DTS Sentinel unit serial number:	SN410029Multiplexer serial number:	ORYXHardware model number:	OX2-SRSoftware version number:	ORYX F/W v4,00 Oryx Data Collector v3.7.2.0data status	okinstallation	B3 Nyhavnadifferential loss correction	single-endedforward channel	channel 1reverse channel	N/Adate	2023/11/28time	14:37:30forward acquisition time	300,00reverse acquisition time	0,00gamma	499,1914k internal	0,3150k external	0,3150temperature offset calibration	1,0000default loss term (dB/km)	0,3820temperature slope calibration	1,0000multiplexer offset coefficient	1,0000multiplexer slope coefficient	1,0000fibre end	0,00T internal ref (°C)	7,42T ext. ref 1 (°C)	-7,79T ext. ref 2 (°C)	-7,96length (m)	temperature (°C)	Stokes	anti-Stokes-744,400	63,376	-0,434	-0,322
-743,385	-200,000	-0,011	0,383
-742,371	124,129	-0,178	-0,165
-741,356	-200,000	-0,018	0,294
-740,342	326,533	-0,142	-0,201
-739,327	-200,000	-0,041	0,243
-738,312	-200,000	-0,038	-0,285
-737,298	-200,000	-0,054	0,200
-736,283	249,828	-0,257	-0,323
-735,269	-200,000	0,015	0,251
-734,254	225,810	-0,210	-0,252
-733,239	-70,421	-0,196	0,055
-732,225	-200,000	-0,030	-0,183
-731,210	-130,795	0,142	0,014
-730,196	-200,000	0,006	-0,024
-729,181	-70,279	-0,188	-0,052
-728,167	343,961	0,037	-0,054
-727,152	800,000	-0,010	0,026
-726,137	-72,595	0,026	0,007
-725,123	160,976	-0,098	-0,101
-724,108	118,422	0,155	-0,141
-723,094	-82,679	-0,222	0,053
-722,079	-56,532	-0,106	-0,034
-721,064	-87,471	-0,086	0,019
-720,050	-40,452	0,039	-0,015
-719,035	92,728	-0,040	-0,034
-718,021	-6,307	-0,042	0,021
-717,006	800,000	-0,034	0,088
-715,991	85,243	-0,068	-0,055
-714,977	-200,000	0,005	-0,090
-713,962	458,338	-0,049	-0,080
-712,948	-200,000	-0,017	0,066
-711,933	-50,282	-0,202	0,070
-710,918	-86,225	0,063	0,014
-709,904	231,614	0,048	0,059
-708,889	-96,415	0,018	0,003
-707,875	-51,910	-0,152	-0,052
-706,860	54,404	0,090	0,064
-705,845	-178,381	0,196	0,003
-704,831	190,057	-0,068	-0,075
-703,816	-44,616	-0,057	0,021
-702,802	156,005	-0,072	0,073
-701,787	-62,708	-0,096	-0,029
-700,772	-11,742	-0,073	0,035
-699,758	-54,852	0,060	0,020
-698,743	337,583	-0,076	0,109
-697,729	310,344	-0,045	0,062
-696,714	102,262	0,055	0,048
-695,699	-105,289	0,085	-0,014
-694,685	-200,000	-0,002	0,016
-693,670	106,970	-0,174	-0,153
-692,656	-37,162	0,057	-0,022
-691,641	-200,000	0,023	0,104
-690,627	234,622	0,055	-0,067
-689,612	712,563	0,039	-0,077
-688,597	-147,091	-0,040	-0,002
-687,583	45,060	-0,107	0,073
-686,568	-59,218	-0,135	-0,043
-685,554	-200,000	-0,002	-0,014
-684,539	-160,039	0,059	-0,002
-683,524	570,976	0,040	-0,073
-682,510	137,646	0,040	0,038
-681,495	387,837	-0,030	-0,046
-680,481	-15,044	-0,073	0,034
-679,466	-17,466	0,088	-0,041
-678,451	-1,490	-0,137	0,071
-677,437	425,465	-0,033	-0,053
-676,422	-200,000	0,019	-0,116
-675,408	51,330	-0,124	0,086
-674,393	38,834	-0,106	-0,069
-673,378	-154,875	0,073	-0,004
-672,364	-200,000	-0,056	-0,212
-671,349	-103,548	-0,292	-0,050
-670,335	578,768	-0,039	-0,071
-669,320	239,056	0,045	0,055
-668,305	-73,654	-0,067	0,018
-667,291	563,865	-0,050	-0,090
-666,276	-129,389	-0,045	-0,005
-665,262	31,341	-0,096	-0,061
-664,247	20,978	0,098	-0,058
-663,232	41,800	0,084	-0,056
-662,218	-200,000	-0,002	0,173
-661,203	-200,000	0,005	0,076
-660,189	213,402	-0,038	0,044
-659,174	800,000	-0,022	-0,064
-658,159	76,767	-0,090	-0,070
-657,145	-74,996	-0,145	0,038
-656,130	-200,000	0,003	-0,055
-655,116	-76,927	0,058	0,015
-654,101	306,645	0,032	0,045
-653,086	-88,479	-0,066	-0,014
-652,072	-20,420	-0,066	0,030
-651,057	-69,726	-0,151	-0,042
-650,043	66,932	-0,126	-0,095
-649,028	-176,816	0,169	0,003
-648,014	744,775	0,042	0,084
-646,999	260,278	-0,090	-0,115
-645,984	328,282	-0,022	-0,031
-644,970	352,749	-0,046	-0,068
-643,955	118,249	-0,134	-0,122
-642,941	-200,000	0,011	-0,112
-641,926	-200,000	0,013	-0,088
-640,911	131,287	0,026	-0,025
-639,897	53,360	0,160	0,113
-638,882	185,286	0,155	0,170
-637,868	800,000	0,052	0,146
-636,853	-200,000	0,105	0,000
-635,838	24,615	-0,105	-0,064
-634,824	-200,000	-0,022	-0,169
-633,809	-200,000	0,002	-0,105
-632,795	-200,000	-0,007	-0,042
-631,780	-186,896	-0,171	-0,002
-630,765	-76,627	-0,114	-0,029
-629,751	50,580	-0,071	-0,049
-628,736	-48,192	-0,063	-0,022
-627,722	299,688	-0,046	0,063
-626,707	-83,463	0,069	-0,016
-625,692	405,679	-0,020	-0,031
-624,678	7,462	-0,081	0,044
-623,663	460,949	-0,051	0,084
-622,649	447,408	0,059	-0,095
-621,634	-200,000	0,003	-0,059
-620,619	-42,488	0,061	-0,023
-619,605	-200,000	0,013	0,104
-618,590	72,085	-0,042	-0,032
-617,576	-175,912	0,258	-0,005
-616,561	-150,556	-0,075	-0,004
-615,546	703,615	0,093	-0,182
-614,532	-110,679	-0,176	0,026
-613,517	800,000	0,058	-0,139
-612,503	-200,000	-0,008	-0,029
-611,488	53,949	-0,079	-0,056
-610,474	270,918	0,013	-0,016
-609,459	-73,450	0,113	-0,030
-608,444	-200,000	-0,026	-0,100
-607,430	-13,097	-0,173	-0,083
-606,415	30,156	0,024	0,015
-605,401	-200,000	0,030	-0,103
-604,386	144,128	0,144	0,141
-603,371	-200,000	0,022	-0,135
-602,357	-71,603	-0,047	0,013
-601,342	29,456	0,086	-0,054
-600,328	-121,524	-0,120	-0,015
-599,313	-29,245	0,036	0,015
-598,298	66,838	-0,044	0,033
-597,284	154,120	-0,014	0,014
-596,269	-30,865	0,137	-0,057
-595,255	800,000	-0,044	0,114
-594,240	-200,000	-0,033	-0,109
-593,225	-94,356	-0,145	-0,029
-592,211	144,450	-0,106	-0,104
-591,196	-200,000	-0,008	-0,104
-590,182	-34,086	0,109	-0,044
-589,167	-200,000	0,027	0,102
-588,152	310,733	-0,059	-0,082
-587,138	-89,027	-0,023	-0,005
-586,123	800,000	0,025	-0,057
-585,109	265,513	-0,044	-0,056
-584,094	-163,567	-0,135	0,005
-583,079	800,000	0,036	0,110
-582,065	606,129	0,039	0,072
-581,050	264,319	0,013	0,016
-580,036	-200,000	-0,021	0,120
-579,021	-127,504	0,081	0,009
-578,006	111,975	0,061	-0,054
-576,992	-200,000	0,023	0,104
-575,977	548,400	0,036	-0,063
-574,963	120,590	0,154	-0,141
-573,948	304,939	-0,076	-0,104
-572,934	149,315	0,091	0,091
-571,919	-21,802	0,134	0,059
-570,904	196,737	-0,034	-0,038
-569,890	33,096	-0,111	-0,071
-568,875	800,000	0,030	0,089
-567,861	-81,927	0,088	0,021
-566,846	245,706	-0,046	-0,057
-565,831	800,000	-0,039	-0,107
-564,817	647,863	0,053	-0,101
-563,802	-32,006	-0,024	0,010
-562,788	630,185	-0,026	0,049
-561,773	-200,000	0,011	-0,094
-560,758	-200,000	0,024	0,087
-559,744	316,630	0,064	0,089
-558,729	-78,388	-0,110	-0,028
-557,715	80,408	-0,045	-0,035
-556,700	-166,844	-0,107	0,003
-555,685	-200,000	-0,001	-0,016
-554,671	-145,239	0,153	-0,010
-553,656	122,353	-0,060	0,055
-552,642	800,000	-0,006	-0,012
-551,627	71,492	0,056	0,042
-550,612	-69,761	-0,110	-0,031
-549,598	-191,329	-0,170	-0,001
-548,583	158,337	0,034	-0,035
-547,569	26,111	0,016	0,010
-546,554	380,672	0,110	0,167
-545,539	-70,749	-0,066	0,018
-544,525	-48,530	-0,041	-0,014
-543,510	-200,000	0,045	0,168
-542,496	517,133	0,029	-0,049
-541,481	800,000	-0,057	-0,176
-540,466	-200,000	-0,009	-0,081
-539,452	369,749	0,069	0,102
-538,437	-102,900	0,098	0,017
-537,423	166,043	-0,084	0,087
-536,408	-200,000	-0,006	0,046
-535,393	1,062	-0,103	-0,054
-534,379	-200,000	-0,040	-0,154
-533,364	7,631	-0,062	-0,034
-532,350	96,813	0,032	0,027
-531,335	-89,258	-0,038	0,008
-530,321	397,447	0,060	-0,093
-529,306	-185,816	-0,116	-0,001
-528,291	-112,245	-0,046	0,007
-527,277	-200,000	-0,027	-0,161
-526,262	34,898	0,085	-0,054
-525,248	201,771	-0,063	-0,071
-524,233	-200,000	0,007	0,045
-523,218	-62,330	-0,066	0,020
-522,204	800,000	0,038	0,082
-521,189	-200,000	-0,005	-0,045
-520,175	800,000	-0,040	0,114
-519,160	-105,610	-0,173	-0,028
-518,145	-94,636	0,164	0,032
-517,131	-130,256	0,154	0,015
-516,116	-101,520	0,071	0,013
-515,102	66,496	-0,054	0,040
-514,087	7,960	-0,086	-0,047
-513,072	64,873	-0,083	0,062
-512,058	-200,000	-0,000	-0,039
-511,043	-26,337	0,111	0,048
-510,029	-200,000	0,024	0,147
-509,014	-70,492	0,082	-0,023
-507,999	-200,000	0,000	0,014
-506,985	-200,000	-0,003	0,161
-505,970	81,788	-0,100	-0,079
-504,956	-166,736	-0,068	0,002
-503,941	-14,552	0,100	0,047
-502,926	316,724	-0,028	-0,039
-501,912	539,901	0,070	0,123
-500,897	800,000	-0,067	-0,175
-499,883	-142,205	-0,077	-0,005
-498,868	800,000	-0,060	-0,191
-497,853	201,786	0,048	0,054
-496,839	322,985	0,011	-0,015
-495,824	100,017	0,032	0,027
-494,810	-122,922	0,037	-0,004
-493,795	-200,000	-0,005	-0,161
-492,781	441,395	0,064	-0,103
-491,766	-200,000	0,005	-0,025
-490,751	-200,000	0,006	0,155
-489,737	-200,000	-0,007	0,063
-488,722	-103,369	0,060	0,010
-487,708	-64,702	0,146	-0,043
-486,693	-77,732	-0,018	0,004
-485,678	628,727	-0,095	-0,177
-484,664	-200,000	-0,009	0,067
-483,649	69,345	-0,072	0,054
-482,635	-16,548	0,110	-0,051
-481,620	78,824	0,105	-0,082
-480,605	145,353	0,075	0,074
-479,591	8,331	0,038	-0,021
-478,576	393,644	-0,023	0,035
-477,562	800,000	0,027	-0,059
-476,547	-200,000	-0,005	-0,018
-475,532	800,000	-0,037	-0,103
-474,518	-200,000	0,018	-0,060
-473,503	207,641	0,029	0,033
-472,489	-39,136	-0,102	-0,039
-471,474	-200,000	-0,023	-0,101
-470,459	-138,487	0,036	-0,003
-469,445	46,490	0,024	0,016
-468,430	-131,308	-0,148	-0,014
-467,416	105,040	-0,046	0,040
-466,401	-79,760	0,094	-0,023
-465,386	55,863	0,087	-0,061
-464,372	60,797	-0,102	0,074
-463,357	96,691	-0,100	-0,084
-462,343	26,719	-0,057	-0,035
-461,328	-200,000	-0,001	0,055
-460,313	16,722	-0,105	0,060
-459,299	-200,000	-0,004	0,121
-458,284	-200,000	0,038	0,159
-457,270	-200,000	0,020	-0,084
-456,255	800,000	-0,052	0,165
-455,241	-141,676	-0,141	-0,010
-454,226	-198,461	0,146	-0,001
-453,211	-200,000	0,036	0,135
-452,197	79,968	0,165	0,129
-451,182	-85,450	-0,098	-0,022
-450,168	-200,000	-0,018	0,084
-449,153	800,000	-0,015	0,034
-448,138	-200,000	-0,002	0,017
-447,124	-41,496	-0,079	0,030
-446,109	-146,486	-0,102	-0,006
-445,095	450,361	0,068	0,110
-444,080	30,730	0,042	0,027
-443,065	-200,000	0,014	-0,077
-442,051	800,000	-0,054	-0,140
-441,036	626,200	0,073	-0,135
-440,022	-51,919	-0,083	0,028
-439,007	-23,343	-0,101	0,044
-437,992	103,574	0,075	0,064
-436,978	-15,040	-0,073	0,034
-435,963	800,000	-0,048	-0,099
-434,949	800,000	-0,014	0,033
-433,934	8,220	-0,046	-0,025
-432,919	-36,224	-0,045	-0,018
-431,905	149,025	0,092	0,091
-430,890	-11,888	-0,070	-0,033
-429,876	-71,869	0,097	0,026
-428,861	800,000	0,040	-0,103
-427,846	300,738	-0,053	-0,071
-426,832	-200,000	0,016	-0,151
-425,817	109,981	0,089	0,078
-424,803	159,122	-0,111	0,113
-423,788	9,447	0,103	-0,057
-422,773	-23,524	-0,103	0,045
-421,759	-200,000	-0,004	0,054
-420,744	-200,000	0,004	-0,075
-419,730	-200,000	0,012	-0,098
-418,715	-200,000	0,026	-0,174
-417,701	-200,000	-0,007	-0,031
-416,686	800,000	0,049	0,138
-415,671	-105,855	0,113	-0,018
-414,657	-121,705	0,054	0,006
-413,642	294,903	-0,029	0,039
-412,628	622,818	0,050	-0,093
-411,613	-200,000	-0,035	-0,141
-410,598	-108,644	0,059	0,009
-409,584	-37,722	-0,026	0,010
-408,569	-95,494	0,065	-0,013
-407,555	-78,608	0,138	-0,034
-406,540	158,461	-0,116	0,118
-405,525	-200,000	0,011	0,080
-404,511	800,000	0,037	0,075
-403,496	115,017	0,039	-0,035
-402,482	-89,088	0,123	-0,026
-401,467	-200,000	-0,011	0,095
-400,452	-200,000	0,028	0,173
-399,438	38,300	0,050	-0,033
-398,423	79,858	-0,180	-0,141
-397,409	-200,000	-0,038	-0,154
-396,394	438,493	0,038	-0,061
-395,379	-115,921	0,109	-0,015
-394,365	-175,841	-0,024	0,000
-393,350	800,000	0,026	0,070
-392,336	473,859	-0,043	0,071
-391,321	72,962	0,042	-0,032
-390,306	86,023	0,061	-0,049
-389,292	122,685	-0,034	-0,031
-388,277	-101,440	-0,079	-0,014
-387,263	40,023	0,077	-0,050
-386,248	123,455	0,034	-0,031
-385,233	800,000	-0,013	0,033
-384,219	800,000	0,048	0,134
-383,204	-51,647	-0,025	0,008
-382,190	-130,494	-0,234	-0,023
-381,175	465,835	0,021	-0,035
-380,160	-200,000	-0,017	0,134
-379,146	-200,000	-0,010	0,242
-378,131	548,104	0,056	-0,098
-377,117	-200,000	-0,017	0,102
-376,102	-29,578	-0,092	0,038
-375,088	8,877	-0,119	-0,065
-374,073	136,481	0,106	-0,101
-373,058	-128,971	-0,061	-0,006
-372,044	106,268	0,090	-0,078
-371,029	108,190	0,049	-0,043
-370,015	81,665	-0,041	0,032
-369,000	800,000	-0,052	-0,162
-367,985	-200,000	-0,012	-0,099
-366,971	293,573	-0,078	0,103
-365,956	111,665	-0,075	0,066
-364,942	189,653	0,147	0,160
-363,927	-200,000	-0,001	0,036
-362,912	31,455	0,126	-0,079
-361,898	-122,576	-0,117	0,014
-360,883	163,112	-0,036	-0,037
-359,869	28,532	0,113	0,069
-358,854	57,195	0,024	-0,017
-357,839	-200,000	-0,003	0,032
-356,825	-51,602	0,067	0,023
-355,810	-109,307	-0,117	-0,018
-354,796	800,000	0,008	-0,017
-353,781	-58,352	-0,056	0,018
-352,766	-6,371	0,035	0,017
-351,752	-86,698	0,030	-0,007
-350,737	-200,000	0,013	0,109
-349,723	-200,000	0,012	-0,126
-348,708	-200,000	-0,028	0,110
-347,693	353,087	0,054	0,078
-346,679	800,000	0,040	0,087
-345,664	149,915	-0,033	0,033
-344,650	800,000	0,060	0,165
-343,635	15,520	0,091	-0,052
-342,620	201,705	0,039	-0,044
-341,606	-200,000	-0,011	0,050
-340,591	-200,000	-0,010	-0,129
-339,577	-121,276	0,060	-0,007
-338,562	35,180	-0,054	0,034
-337,548	-154,711	0,105	0,005
-336,533	800,000	-0,048	0,123
-335,518	800,000	0,025	-0,066
-334,504	39,688	-0,108	0,070
-333,489	-200,000	0,001	-0,012
-332,475	800,000	0,027	-0,086
-331,460	299,320	-0,129	-0,173
-330,445	16,551	-0,019	-0,011
-329,431	-12,738	0,119	0,056
-328,416	-17,373	0,093	0,042
-327,402	-79,329	-0,030	-0,007
-326,387	-200,000	0,011	-0,038
-325,372	47,518	-0,069	0,047
-324,358	156,562	-0,136	-0,136
-323,343	-53,893	-0,138	-0,046
-322,329	-200,000	0,017	-0,101
-321,314	56,843	-0,100	0,071
-320,299	-200,000	-0,027	-0,091
-319,285	-200,000	-0,005	-0,089
-318,270	-72,008	0,033	-0,009
-317,256	-197,193	-0,066	-0,000
-316,241	140,717	-0,080	-0,077
-315,226	-200,000	-0,014	-0,058
-314,212	370,227	0,074	0,110
-313,197	-200,000	-0,018	0,163
-312,183	-24,031	0,131	-0,057
-311,168	225,881	-0,079	0,093
-310,153	-13,373	-0,078	-0,036
-309,139	800,000	-0,041	0,120
-308,124	57,041	-0,082	-0,058
-307,110	-34,605	-0,024	-0,009
-306,095	-200,000	0,000	-0,015
-305,080	229,017	-0,044	-0,052
-304,066	124,256	0,051	0,047
-303,051	-200,000	0,053	-0,184
-302,037	537,065	0,055	-0,095
-301,022	-200,000	-0,002	0,009
-300,008	800,000	0,031	-0,062
-298,993	-200,000	0,032	0,223
-297,978	800,000	-0,037	-0,116
-296,964	-67,646	0,077	-0,022
-295,949	800,000	0,028	0,066
-294,935	418,654	0,030	0,047
-293,920	39,021	0,045	0,029
-292,905	258,408	0,085	-0,107
-291,891	800,000	-0,027	0,061
-290,876	-200,000	-0,041	0,181
-289,862	-200,000	0,030	0,123
-288,847	800,000	-0,028	0,058
-287,832	145,240	-0,039	0,038
-286,818	-99,302	0,024	0,004
-285,803	-103,836	0,088	0,015
-284,789	-56,305	0,083	0,027
-283,774	-183,493	0,074	-0,001
-282,759	-72,668	0,075	-0,020
-281,745	-15,927	0,095	-0,044
-280,730	-200,000	-0,004	0,020
-279,716	-200,000	-0,035	-0,152
-278,701	-127,447	-0,093	-0,010
-277,686	485,699	-0,041	0,068
-276,672	-80,449	-0,098	-0,024
-275,657	-22,000	-0,033	-0,015
-274,643	800,000	0,037	-0,085
-273,628	-75,240	-0,102	-0,026
-272,613	410,032	0,023	0,035
-271,599	-47,712	0,059	0,021
-270,584	-15,321	0,147	0,068
-269,570	-40,380	-0,070	0,026
-268,555	-72,890	-0,107	0,028
-267,540	-26,919	-0,150	0,063
-266,526	-200,000	-0,007	0,089
-265,511	-173,383	-0,133	-0,003
-264,497	-95,509	0,088	-0,017
-263,482	-200,000	0,060	-0,210
-262,467	60,800	0,093	0,067
-261,453	-98,975	0,083	0,015
-260,438	77,342	-0,133	0,103
-259,424	-51,322	0,131	-0,044
-258,409	-200,000	-0,018	0,066
-257,395	-200,000	0,011	0,101
-256,380	-156,500	-0,081	0,004
-255,365	-200,000	0,005	0,073
-254,351	2,191	0,069	0,036
-253,336	-94,724	-0,130	-0,025
-252,322	484,589	-0,023	-0,039
-251,307	191,382	0,049	-0,053
-250,292	-200,000	-0,000	-0,027
-249,278	-36,375	0,125	-0,048
-248,263	323,991	0,087	0,121
-247,249	448,098	-0,032	0,051
-246,234	224,474	0,067	0,079
-245,219	-200,000	0,034	0,111
-244,205	-129,216	-0,039	-0,004
-243,190	-65,207	0,048	0,014
-242,176	-113,784	0,085	0,012
-241,161	-7,821	0,133	0,065
-240,146	-200,000	-0,047	0,175
-239,132	634,733	-0,028	0,051
-238,117	-71,617	-0,053	0,014
-237,103	-34,505	0,040	0,016
-236,088	800,000	-0,088	0,184
-235,073	-81,547	0,032	0,008
-234,059	460,501	-0,008	-0,013
-233,044	-17,013	0,059	0,027
-232,030	-92,070	-0,114	-0,023
-231,015	-99,199	0,096	0,017
-230,000	-200,000	-0,008	-0,037
-228,986	800,000	-0,039	-0,082
-227,971	800,000	-0,020	0,053
-226,957	800,000	0,049	0,100
-225,942	34,990	0,054	-0,034
-224,927	800,000	0,009	-0,027
-223,913	139,143	-0,120	-0,114
-222,898	800,000	-0,049	0,103
-221,884	-36,291	-0,111	-0,043
-220,869	219,532	0,103	0,120
-219,855	-86,235	0,156	0,034
-218,840	385,684	-0,055	0,082
-217,825	192,112	-0,005	-0,006
-216,811	36,503	0,016	-0,010
-215,796	800,000	-0,028	-0,076
-214,782	-98,251	-0,047	0,009
-213,767	-200,000	-0,013	-0,100
-212,752	236,856	0,107	0,129
-211,738	23,030	0,061	0,036
-210,723	-200,000	-0,007	0,122
-209,709	-200,000	-0,003	-0,090
-208,694	-86,717	0,061	-0,013
-207,679	274,666	0,032	0,042
-206,665	119,122	-0,086	0,077
-205,650	800,000	0,054	0,111
-204,636	800,000	0,040	0,112
-203,621	-16,194	-0,082	0,037
-202,606	-177,119	-0,143	-0,003
-201,592	-200,000	0,009	0,063
-200,577	800,000	-0,046	-0,123
-199,563	-200,000	0,010	-0,051
-198,548	-200,000	0,010	0,055
-197,533	-155,787	0,094	-0,004
-196,519	281,743	-0,038	0,050
-195,504	-11,247	0,048	0,023
-194,490	-85,334	-0,150	-0,034
-193,475	-2,971	-0,179	-0,090
-192,460	77,357	0,133	0,102
-191,446	13,395	0,075	0,042
-190,431	-200,000	-0,000	-0,010
-189,417	251,977	-0,082	0,101
-188,402	-116,475	0,095	0,012
-187,387	8,045	-0,071	-0,039
-186,373	-55,919	-0,115	-0,037
-185,358	56,709	0,069	-0,048
-184,344	-32,629	0,023	0,009
-183,329	-52,115	0,131	-0,044
-182,315	84,136	-0,046	0,036
-181,300	3,649	-0,107	-0,056
-180,285	-53,095	-0,109	-0,036
-179,271	599,120	-0,020	0,035
-178,256	-129,830	-0,099	0,010
-177,242	-87,778	0,086	-0,019
-176,227	-119,815	0,120	0,015
-175,212	667,708	0,035	-0,066
-174,198	-67,878	-0,044	-0,012
-173,183	213,018	0,086	-0,098
-172,169	577,868	-0,085	-0,151
-171,154	-120,891	0,053	0,006
-170,139	245,497	-0,050	0,061
-169,125	76,777	-0,031	-0,024
-168,110	-197,621	0,162	-0,001
-167,096	2,130	0,062	-0,032
-166,081	-124,381	-0,085	0,009
-165,066	194,253	-0,051	-0,056
-164,052	-200,000	0,008	0,027
-163,037	177,141	0,046	0,048
-162,023	-80,549	0,183	0,044
-161,008	11,376	0,075	0,041
-159,993	181,527	-0,030	-0,032
-158,979	-31,989	-0,020	-0,008
-157,964	-91,724	-0,062	0,013
-156,950	-104,540	-0,187	0,031
-155,935	-19,783	0,044	-0,019
-154,920	800,000	0,015	-0,030
-153,906	287,111	-0,086	-0,112
-152,891	794,068	0,067	0,133
-151,877	800,000	0,032	-0,101
-150,862	-200,000	-0,022	-0,088
-149,847	-58,356	0,112	0,035
-148,833	447,615	0,032	-0,051
-147,818	800,000	-0,021	0,050
-146,804	800,000	0,017	0,037
-145,789	-8,192	-0,130	0,063
-144,775	-140,952	0,116	-0,009
-143,760	-200,000	0,030	-0,135
-142,745	-200,000	-0,017	-0,078
-141,731	-200,000	0,017	-0,134
-140,716	222,024	-0,075	-0,087
-139,702	62,699	0,109	0,079
-138,687	-200,000	-0,002	0,124
-137,672	-200,000	-0,044	0,210
-136,658	-200,000	0,017	0,120
-135,643	-200,000	-0,001	-0,084
-134,629	201,260	-0,078	-0,087
-133,614	-200,000	0,008	0,028
-132,599	-101,486	0,126	0,022
-131,585	-200,000	0,000	-0,055
-130,570	-200,000	-0,002	0,067
-129,556	250,831	-0,050	0,062
-128,541	-22,997	-0,060	-0,026
-127,526	597,686	0,087	-0,155
-126,512	-0,787	0,099	0,051
-125,497	-200,000	-0,029	0,092
-124,483	209,922	0,027	-0,031
-123,468	134,280	0,040	-0,038
-122,453	455,239	-0,094	0,151
-121,439	115,963	-0,090	-0,079
-120,424	154,284	0,093	-0,093
-119,410	200,668	0,026	0,029
-118,395	-10,684	0,109	-0,052
-117,380	800,000	0,046	0,100
-116,366	-48,215	-0,028	-0,010
-115,351	-200,000	-0,011	-0,096
-114,337	-165,157	-0,089	-0,003
-113,322	-154,109	-0,015	0,001
-112,307	800,000	0,067	0,185
-111,293	18,948	-0,022	0,012
-110,278	-28,934	-0,067	0,028
-109,264	149,743	-0,053	0,052
-108,249	102,729	-0,049	-0,041
-107,234	800,000	-0,039	-0,084
-106,220	-200,000	0,029	-0,103
-105,205	-180,564	-0,041	0,001
-104,191	381,549	0,064	0,096
-103,176	723,918	0,043	0,084
-102,162	131,951	-0,089	-0,083
-101,147	-74,827	-0,122	0,031
-100,132	-3,861	-0,062	-0,031
-99,118	447,435	0,018	-0,029
-98,103	-5,594	-0,142	0,070
-97,089	-63,711	0,121	-0,036
-96,074	-52,665	-0,032	0,011
-95,059	-200,000	-0,036	0,137
-94,045	153,801	-0,096	-0,095
-93,030	77,877	-0,090	0,069
-92,016	41,817	-0,112	0,073
-91,001	-200,000	-0,011	0,132
-89,986	-120,392	0,038	0,005
-88,972	225,780	0,034	0,040
-87,957	-2,611	0,035	0,018
-86,943	-200,000	0,005	-0,027
-85,928	800,000	-0,018	-0,044
-84,913	247,347	-0,045	-0,055
-83,899	-200,000	-0,001	0,112
-82,884	-165,091	-0,085	0,003
-81,870	-149,506	0,205	0,011
-80,855	-200,000	0,003	0,050
-79,840	-200,000	-0,018	-0,065
-78,826	-200,000	-0,006	0,033
-77,811	-200,000	-0,008	-0,042
-76,797	800,000	0,038	-0,093
-75,782	-7,797	0,054	0,026
-74,767	71,956	0,031	-0,023
-73,753	9,021	0,126	0,068
-72,738	-10,041	0,078	-0,037
-71,724	800,000	-0,067	-0,176
-70,709	-200,000	0,004	0,016
-69,694	-38,837	0,033	-0,012
-68,680	-110,683	0,066	-0,010
-67,665	454,699	0,037	0,059
-66,651	181,343	0,022	0,023
-65,636	-15,121	-0,064	-0,030
-64,622	49,200	-0,124	-0,084
-63,607	156,604	-0,038	0,038
-62,592	177,368	-0,033	-0,034
-61,578	800,000	-0,039	-0,097
-60,563	156,932	-0,092	0,092
-59,549	436,413	0,113	0,177
-58,534	61,991	-2,270	-1,626
-57,519	501,034	-1,164	-1,941
-56,505	-200,000	-0,402	-4,200
-55,490	475,457	1,040	1,697
-54,476	800,000	5,301	11,351
-53,461	-200,000	22,763	350,571
-52,446	800,000	757,788	2282,722
-51,432	501,382	1637,243	2729,865
-50,417	66,524	1558,349	1138,503
-49,403	19,045	1115,703	641,937
-48,388	10,958	825,567	452,436
-47,373	28,490	791,689	480,501
-46,359	17,183	776,975	442,120
-45,344	7,535	772,985	414,591
-44,330	7,402	771,196	413,266
-43,315	7,236	769,916	412,130
-42,300	7,268	768,682	411,536
-41,286	7,363	767,730	411,257
-40,271	7,282	766,691	410,473
-39,257	7,362	765,816	410,197
-38,242	7,490	764,710	409,921
-37,227	7,483	764,079	409,549
-36,213	7,352	763,469	408,866
-35,198	7,407	762,613	408,534
-34,184	7,497	762,148	408,502
-33,169	7,378	761,092	407,611
-32,154	7,466	760,703	407,615
-31,140	7,445	759,410	406,851
-30,125	7,571	758,677	406,767
-29,111	7,442	758,329	406,232
-28,096	7,443	757,941	406,012
-27,082	7,480	757,073	405,625
-26,067	7,484	756,389	405,253
-25,052	7,388	755,733	404,638
-24,038	7,391	755,343	404,420
-23,023	7,424	754,666	404,128
-22,009	7,492	754,065	403,964
-20,994	7,442	753,641	403,592
-19,979	7,498	752,743	403,239
-18,965	7,469	752,334	402,930
-17,950	7,445	752,007	402,676
-16,936	7,374	751,412	402,160
-15,921	7,394	750,839	401,889
-14,906	7,334	750,184	401,371
-13,892	7,398	749,589	401,199
-12,877	7,379	749,017	400,829
-11,863	7,318	748,728	400,502
-10,848	7,254	748,253	400,070
-9,833	7,468	747,774	400,341
-8,819	7,456	746,988	399,874
-7,804	7,526	746,272	399,652
-6,790	7,394	745,951	399,129
-5,775	7,447	745,683	399,105
-4,760	7,389	745,168	398,668
-3,746	7,342	744,946	398,413
-2,731	7,129	744,364	397,548
-1,717	7,086	743,922	397,188
-0,702	7,242	743,098	397,125
0,313	7,333	739,664	396,117
1,327	11,079	717,673	393,428
2,342	19,569	579,383	334,186
3,356	13,550	318,941	177,478
4,371	-15,724	215,855	98,529
5,386	-18,480	203,279	90,854
6,400	-18,542	199,391	89,066
7,415	-17,827	197,633	88,758
8,429	-19,099	196,676	87,461
9,444	-18,980	195,690	87,094
10,459	-18,680	195,293	87,111
11,473	-18,890	194,857	86,769
12,488	-18,804	194,446	86,635
13,502	-19,182	193,919	86,141
14,517	-18,899	193,654	86,204
15,531	-19,330	193,285	85,745
16,546	-18,762	193,008	85,992
17,561	-18,946	192,615	85,687
18,575	-18,906	192,587	85,694
19,590	-19,252	192,186	85,279
20,604	-18,686	191,920	85,527
21,619	-19,012	191,565	85,146
22,634	-18,833	191,286	85,132
23,648	-18,941	191,004	84,928
24,663	-19,161	190,869	84,717
25,677	-18,952	190,793	84,812
26,692	-18,946	190,336	84,605
27,707	-19,124	190,380	84,501
28,721	-19,117	189,986	84,323
29,736	-18,976	189,745	84,301
30,750	-18,805	189,532	84,310
31,765	-18,769	189,341	84,241
32,780	-18,800	189,177	84,140
33,794	-18,971	189,143	84,006
34,809	-19,000	188,774	83,816
35,823	-18,932	188,635	83,791
36,838	-18,913	188,441	83,710
37,853	-18,928	188,209	83,589
38,867	-18,800	188,009	83,575
39,882	-18,908	187,892	83,447
40,896	-18,901	187,785	83,396
41,911	-18,868	187,591	83,324
42,926	-18,839	187,242	83,180
43,940	-18,938	187,268	83,120
44,955	-18,714	186,898	83,093
45,969	-19,087	186,934	82,862
46,984	-19,004	186,670	82,790
47,999	-18,981	186,545	82,743
49,013	-19,030	186,452	82,663
50,028	-18,884	186,122	82,603
51,042	-18,742	186,062	82,658
52,057	-18,929	185,879	82,451
53,071	-18,871	185,675	82,390
54,086	-18,788	185,544	82,377
55,101	-18,909	185,345	82,205
56,115	-18,839	185,127	82,145
57,130	-18,844	184,891	82,030
58,144	-18,760	184,804	82,037
59,159	-18,920	184,512	81,799
60,174	-18,993	184,434	81,711
61,188	-18,969	184,299	81,659
62,203	-19,115	184,183	81,508
63,217	-18,968	184,068	81,543
64,232	-18,868	183,856	81,505
65,247	-19,151	183,547	81,183
66,261	-18,878	183,381	81,273
67,276	-18,922	183,199	81,158
68,290	-19,009	183,260	81,123
69,305	-18,920	182,937	81,028
70,320	-18,793	182,923	81,095
71,334	-18,683	182,534	80,983
72,349	-18,935	182,584	80,841
73,363	-18,922	182,181	80,664
74,378	-18,822	182,093	80,680
75,393	-19,015	182,046	80,532
76,407	-18,926	181,847	80,492
77,422	-18,893	181,516	80,359
78,436	-18,852	181,619	80,422
79,451	-18,706	181,283	80,357
80,466	-18,858	181,350	80,285
81,480	-18,683	181,026	80,243
82,495	-19,126	180,898	79,905
83,509	-18,671	180,810	80,140
84,524	-19,185	180,782	79,803
85,539	-18,926	180,339	79,760
86,553	-18,612	180,330	79,942
87,568	-19,186	180,189	79,520
88,582	-19,088	180,012	79,495
89,597	-18,811	179,785	79,557
90,611	-18,965	179,738	79,435
91,626	-18,747	179,590	79,496
92,641	-18,779	179,470	79,416
93,655	-18,938	179,335	79,252
94,670	-19,020	179,101	79,092
95,684	-18,981	178,910	79,024
96,699	-18,882	178,877	79,063
97,714	-18,739	178,585	79,014
98,728	-18,701	178,401	78,948
99,743	-18,850	178,395	78,848
100,757	-18,532	178,117	78,912
101,772	-18,816	178,004	78,682
102,787	-18,711	177,929	78,705
103,801	-18,862	177,822	78,559
104,816	-18,748	177,655	78,548
105,830	-18,870	177,520	78,407
106,845	-18,832	177,394	78,367
107,860	-18,753	177,145	78,298
108,874	-18,816	177,137	78,250
109,889	-19,085	176,885	77,969
110,903	-18,945	176,809	78,013
111,918	-18,672	176,588	78,073
112,933	-18,759	176,463	77,959
113,947	-18,592	176,350	78,002
114,962	-18,863	176,114	77,728
115,976	-19,083	176,048	77,560
116,991	-18,927	175,893	77,578
118,006	-18,997	175,798	77,487
119,020	-19,132	175,703	77,358
120,035	-18,700	175,591	77,560
121,049	-18,771	175,472	77,458
122,064	-18,641	175,270	77,440
123,079	-18,569	175,014	77,363
124,093	-18,737	174,899	77,205
125,108	-18,953	174,948	77,091
126,122	-18,766	174,591	77,038
127,137	-18,688	174,467	77,023
128,151	-18,580	174,538	77,111
129,166	-18,679	174,250	76,918
130,181	-18,580	174,129	76,916
131,195	-18,778	173,937	76,708
132,210	-18,983	173,898	76,563
133,224	-18,759	173,686	76,595
134,239	-18,739	173,555	76,542
135,254	-18,496	173,417	76,617
136,268	-18,738	173,149	76,350
137,283	-18,735	173,172	76,355
138,297	-18,679	172,980	76,297
139,312	-18,740	172,751	76,153
140,327	-18,893	172,624	76,001
141,341	-19,005	172,562	75,901
142,356	-18,697	172,257	75,940
143,370	-17,905	172,626	76,560
144,385	-11,500	174,243	81,060
145,400	-4,811	175,644	85,684
146,414	-2,686	175,807	87,019
147,429	-2,391	175,763	87,164
148,443	-2,565	175,857	87,099
149,458	-2,076	175,786	87,346
150,473	-1,823	175,585	87,389
151,487	-1,984	175,610	87,299
152,502	-1,815	175,509	87,340
153,516	-1,971	175,315	87,144
154,531	-1,799	175,148	87,155
155,546	-2,034	175,211	87,039
156,560	-1,612	174,900	87,126
157,575	-1,738	174,893	87,040
158,589	-1,648	174,646	86,963
159,604	-1,734	174,571	86,867
160,619	-1,595	174,382	86,847
161,633	-1,494	174,354	86,885
162,648	-1,484	174,158	86,785
163,662	-1,397	174,043	86,771
164,677	-1,289	174,020	86,815
165,692	-1,602	174,038	86,633
166,706	-1,592	173,932	86,578
167,721	-1,486	173,700	86,517
168,735	-1,389	173,537	86,485
169,750	-1,277	173,481	86,515
170,764	-1,443	173,456	86,397
171,779	-1,165	173,201	86,425
172,794	-1,230	173,063	86,311
173,808	-1,276	172,977	86,233
174,823	-1,402	172,818	86,073
175,837	-1,322	172,812	86,109
176,852	-1,080	172,542	86,107
177,867	-1,786	172,713	85,774
178,881	-1,115	172,375	85,988
179,896	-1,004	172,212	85,964
180,910	-1,460	172,019	85,595
181,925	-1,322	172,094	85,706
182,940	-1,059	171,742	85,674
183,954	-1,270	171,871	85,609
184,969	-0,967	171,640	85,661
185,983	-1,279	171,675	85,491
186,998	-1,360	171,438	85,319
188,013	-1,004	171,305	85,450
189,027	-1,011	171,096	85,334
190,042	-1,148	171,245	85,322
191,056	-1,221	170,958	85,129
192,071	-1,143	170,935	85,155
193,086	-1,124	170,836	85,109
194,100	-1,076	170,623	85,023
195,115	-1,150	170,426	84,875
196,129	-1,167	170,467	84,877
197,144	-1,100	170,192	84,772
198,159	-1,239	170,218	84,697
199,173	-1,228	170,121	84,648
200,188	-0,940	169,790	84,640
201,202	-1,334	169,756	84,391
202,217	-0,772	169,552	84,602
203,232	-1,098	169,561	84,413
204,246	-0,864	169,400	84,459
205,261	-0,902	169,177	84,318
206,275	-1,004	169,147	84,238
207,290	-0,851	169,020	84,254
208,304	-0,907	168,965	84,187
209,319	-0,904	168,845	84,122
210,334	-1,122	168,634	83,886
211,348	-0,975	168,464	83,877
212,363	-0,915	168,399	83,871
213,377	-1,064	168,338	83,749
214,392	-0,951	168,268	83,770
215,407	-0,865	168,054	83,705
216,421	-0,834	168,004	83,690
217,436	-0,997	167,836	83,507
218,450	-0,967	167,663	83,431
219,465	-0,850	167,674	83,494
220,480	-1,279	167,627	83,222
221,494	-1,175	167,539	83,229
222,509	-0,922	167,380	83,285
223,523	-0,946	167,221	83,185
224,538	-0,810	167,051	83,169
225,553	-0,320	166,802	83,311
226,567	-0,933	166,924	83,022
227,582	-0,914	166,714	82,921
228,596	-1,031	166,635	82,809
229,611	-0,488	166,586	83,080
230,626	-0,621	166,397	82,905
231,640	-0,649	166,290	82,828
232,655	-0,600	166,068	82,738
233,669	-0,720	165,960	82,610
234,684	-0,644	165,979	82,654
235,699	-0,634	165,769	82,547
236,713	-0,886	165,785	82,408
237,728	-0,431	165,615	82,568
238,742	-0,450	165,459	82,473
239,757	-0,446	165,338	82,407
240,772	-0,571	165,221	82,272
241,786	-0,634	165,222	82,231
242,801	-0,690	165,038	82,101
243,815	-0,479	164,983	82,183
244,830	-0,474	164,865	82,119
245,844	-0,427	164,676	82,044
246,859	-0,452	164,575	81,973
247,874	-0,769	164,689	81,847
248,888	-0,611	164,471	81,819
249,903	-0,736	164,310	81,663
250,917	-0,544	164,292	81,752
251,932	-0,479	164,147	81,708
252,947	-0,418	163,938	81,630
253,961	-0,557	163,908	81,532
254,976	-0,589	163,823	81,465
255,990	-0,455	163,578	81,409
257,005	-0,436	163,598	81,422
258,020	-0,464	163,420	81,311
259,034	-0,475	163,394	81,285
260,049	-0,543	163,236	81,162
261,063	-0,352	163,135	81,208
262,078	-0,527	163,056	81,067
263,093	-0,607	162,992	80,984
264,107	-0,316	162,731	81,006
265,122	-0,471	162,677	80,887
266,136	-0,408	162,621	80,886
267,151	-0,042	162,377	80,956
268,166	-0,539	162,343	80,663
269,180	-0,382	162,412	80,775
270,195	-0,377	162,227	80,678
271,209	-0,292	162,066	80,637
272,224	-0,493	161,999	80,488
273,239	-0,038	161,755	80,604
274,253	-0,342	161,751	80,431
275,268	-0,348	161,574	80,333
276,282	-0,267	161,446	80,306
277,297	-0,123	161,253	80,280
278,312	-0,135	161,383	80,331
279,326	-0,183	161,251	80,232
280,341	-0,062	161,146	80,239
281,355	-0,153	161,028	80,123
282,370	-0,457	161,095	79,986
283,384	-0,190	160,715	79,934
284,399	-0,063	160,718	79,996
285,414	-0,240	160,771	79,921
286,428	-0,201	160,530	79,814
287,443	-0,008	160,378	79,835
288,457	0,021	160,333	79,821
289,472	0,010	160,135	79,709
290,487	-0,262	160,195	79,587
291,501	0,122	159,787	79,581
292,516	-0,474	159,852	79,289
293,530	0,274	159,738	79,624
294,545	0,128	159,538	79,439
295,560	0,045	159,649	79,443
296,574	0,124	159,385	79,347
297,589	-0,068	159,417	79,254
298,603	0,108	159,148	79,206
299,618	0,015	158,967	79,060
300,633	0,065	158,927	79,060
301,647	0,234	158,905	79,131
302,662	-0,027	158,770	78,919
303,676	0,266	158,749	79,056
304,691	0,175	158,636	78,944
305,706	0,060	158,482	78,800
306,720	0,259	158,279	78,797
307,735	0,197	158,289	78,762
308,749	0,282	158,235	78,773
309,764	-0,002	158,181	78,590
310,779	0,177	157,903	78,539
311,793	-0,065	157,939	78,423
312,808	0,090	157,690	78,373
313,822	-0,093	157,676	78,263
314,837	0,170	157,576	78,345
315,852	0,194	157,556	78,340
316,866	0,011	157,364	78,142
317,881	0,223	157,269	78,198
318,895	0,241	157,220	78,177
319,910	0,062	157,030	77,982
320,925	-0,023	156,941	77,886
321,939	0,043	156,874	77,881
322,954	0,069	156,855	77,878
323,968	0,130	156,747	77,849
324,983	-0,037	156,600	77,682
325,997	0,153	156,686	77,817
327,012	0,340	156,278	77,704
328,027	-0,139	156,273	77,446
329,041	0,076	156,188	77,509
330,056	0,219	156,148	77,556
331,070	0,092	155,982	77,401
332,085	0,144	155,818	77,340
333,100	0,153	155,744	77,300
334,114	0,686	155,614	77,504
335,129	0,200	155,574	77,226
336,143	0,079	155,505	77,123
337,158	0,466	155,311	77,219
338,173	0,483	155,302	77,217
339,187	0,373	155,245	77,125
340,202	0,091	155,114	76,908
341,216	0,098	154,988	76,843
342,231	0,425	154,740	76,880
343,246	0,141	154,854	76,784
344,260	0,215	154,678	76,727
345,275	0,415	154,610	76,789
346,289	0,451	154,503	76,748
347,304	0,503	154,435	76,734
348,319	0,404	154,331	76,625
349,333	0,158	154,045	76,351
350,348	0,293	154,213	76,496
351,362	0,588	153,842	76,455
352,377	0,903	153,937	76,656
353,392	0,537	153,784	76,387
354,406	0,595	153,764	76,400
355,421	191,843	1322,264	1390,740
356,435	151,446	1465,076	1391,201
