DTS Sentinel unit serial number:	SN410029Multiplexer serial number:	ORYXHardware model number:	OX2-SRSoftware version number:	ORYX F/W v4,00 Oryx Data Collector v3.7.2.0data status	okinstallation	B3 Nyhavnadifferential loss correction	single-endedforward channel	channel 1reverse channel	N/Adate	2023/11/28time	12:42:30forward acquisition time	300,00reverse acquisition time	0,00gamma	499,1914k internal	0,3138k external	0,3138temperature offset calibration	1,0000default loss term (dB/km)	0,3820temperature slope calibration	1,0000multiplexer offset coefficient	1,0000multiplexer slope coefficient	1,0000fibre end	0,00T internal ref (°C)	8,34T ext. ref 1 (°C)	-7,51T ext. ref 2 (°C)	-7,72length (m)	temperature (°C)	Stokes	anti-Stokes-744,400	383,455	-0,186	-0,284
-743,385	-200,000	0,019	0,153
-742,371	243,876	-0,113	-0,141
-741,356	800,000	0,086	0,239
-740,342	110,477	-0,160	-0,143
-739,327	-200,000	-0,001	0,260
-738,312	406,804	-0,128	-0,200
-737,298	356,836	-0,146	0,216
-736,283	221,606	-0,136	-0,162
-735,269	125,776	0,131	0,123
-734,254	183,714	-0,238	-0,262
-733,239	-28,794	-0,285	0,121
-732,225	800,000	-0,139	-0,298
-731,210	-11,127	0,171	0,083
-730,196	-129,398	-0,110	0,011
-729,181	-200,000	-0,019	-0,083
-728,167	405,420	-0,050	-0,079
-727,152	-200,000	-0,022	0,080
-726,137	-32,149	-0,051	-0,021
-725,123	-126,301	-0,044	-0,005
-724,108	800,000	0,065	-0,158
-723,094	35,244	-0,107	0,069
-722,079	-70,936	-0,075	0,021
-721,064	-189,219	-0,089	0,001
-720,050	-200,000	0,007	0,041
-719,035	-151,357	0,139	-0,008
-718,021	-6,393	0,051	-0,026
-717,006	139,449	-0,188	-0,183
-715,991	224,470	-0,113	-0,136
-714,977	-200,000	0,006	-0,101
-713,962	2,863	0,071	0,038
-712,948	218,120	-0,056	0,067
-711,933	-200,000	0,008	0,033
-710,918	82,446	-0,018	0,015
-709,904	331,628	0,052	-0,075
-708,889	-26,654	-0,056	0,024
-707,875	573,027	0,115	-0,209
-706,860	13,603	-0,103	-0,059
-705,845	73,578	0,108	0,083
-704,831	-15,357	-0,093	0,044
-703,816	38,238	0,086	-0,056
-702,802	800,000	-0,046	-0,100
-701,787	324,682	-0,019	-0,027
-700,772	-115,581	-0,096	-0,013
-699,758	-200,000	0,008	0,059
-698,743	-55,897	-0,040	-0,013
-697,729	575,302	-0,052	0,095
-696,714	-39,449	0,018	0,007
-695,699	498,766	-0,066	-0,113
-694,685	201,318	0,021	0,024
-693,670	-15,441	-0,049	0,023
-692,656	29,111	0,060	0,038
-691,641	-200,000	0,025	-0,088
-690,627	28,362	-0,083	-0,052
-689,612	282,534	0,061	-0,082
-688,597	98,782	-0,101	0,086
-687,583	-200,000	0,001	-0,049
-686,568	107,521	-0,087	-0,077
-685,554	-98,245	0,170	0,032
-684,539	-95,156	-0,034	-0,007
-683,524	663,636	-0,057	0,109
-682,510	800,000	0,067	-0,144
-681,495	138,545	-0,096	-0,093
-680,481	-76,006	-0,101	0,026
-679,466	48,953	-0,170	-0,118
-678,451	-200,000	-0,004	-0,090
-677,437	14,087	0,159	0,091
-676,422	293,948	-0,051	0,068
-675,408	-173,614	0,184	0,004
-674,393	281,823	-0,063	0,084
-673,378	-16,292	-0,187	-0,088
-672,364	800,000	-0,018	0,051
-671,349	43,582	0,044	-0,030
-670,335	-140,183	0,075	0,006
-669,320	-153,194	0,212	0,011
-668,305	800,000	0,064	0,150
-667,291	-177,025	0,025	-0,000
-666,276	-200,000	0,018	0,067
-665,262	33,188	0,122	-0,078
-664,247	-200,000	0,028	0,156
-663,232	147,089	-0,077	0,077
-662,218	-200,000	0,017	-0,102
-661,203	121,417	-0,095	0,088
-660,189	236,853	-0,066	0,081
-659,174	800,000	-0,012	0,035
-658,159	122,441	-0,053	-0,049
-657,145	368,673	-0,019	-0,029
-656,130	265,806	0,058	0,075
-655,116	-17,518	0,075	0,035
-654,101	-200,000	0,006	-0,078
-653,086	602,196	-0,037	-0,068
-652,072	2,405	-0,058	-0,031
-651,057	528,555	-0,051	-0,090
-650,043	207,373	-0,026	-0,030
-649,028	190,862	0,070	-0,078
-648,014	574,347	-0,112	0,202
-646,999	-200,000	-0,032	0,106
-645,984	-115,558	0,057	0,008
-644,970	267,011	-0,057	0,074
-643,955	800,000	0,032	0,081
-642,941	-27,960	-0,206	-0,088
-641,926	800,000	-0,043	0,091
-640,911	-50,595	0,169	0,059
-639,897	85,763	0,018	-0,015
-638,882	-200,000	0,002	0,062
-637,868	-149,112	-0,191	0,011
-636,853	-36,313	0,044	0,017
-635,838	-48,710	-0,111	0,039
-634,824	-23,307	0,028	-0,012
-633,809	123,346	-0,095	-0,088
-632,795	800,000	-0,015	0,044
-631,780	-200,000	-0,015	0,087
-630,765	-200,000	0,019	-0,098
-629,751	18,862	-0,043	0,025
-628,736	800,000	0,060	-0,160
-627,722	800,000	0,069	-0,169
-626,707	-27,023	0,093	0,040
-625,692	-121,233	-0,118	-0,014
-624,678	800,000	-0,033	0,084
-623,663	-64,515	-0,088	-0,026
-622,649	-0,361	0,103	0,054
-621,634	788,435	-0,067	0,137
-620,619	357,650	-0,060	-0,088
-619,605	800,000	-0,012	-0,029
-618,590	40,276	0,105	0,070
-617,576	0,334	-0,019	0,010
-616,561	800,000	-0,045	0,119
-615,546	687,602	-0,055	-0,106
-614,532	-200,000	-0,001	-0,023
-613,517	-12,396	0,104	0,050
-612,503	119,420	-0,045	0,041
-611,488	315,379	-0,033	0,045
-610,474	523,386	0,040	-0,070
-609,459	800,000	0,023	-0,071
-608,444	9,127	-0,081	-0,045
-607,430	-72,609	-0,037	-0,010
-606,415	31,488	-0,067	-0,042
-605,401	24,071	-0,021	0,013
-604,386	352,038	0,034	-0,049
-603,371	800,000	-0,030	-0,072
-602,357	-200,000	0,002	-0,027
-601,342	-43,330	0,098	0,036
-600,328	217,194	0,007	0,009
-599,313	-200,000	-0,071	0,000
-598,298	572,151	-0,045	0,082
-597,284	800,000	-0,029	0,089
-596,269	-55,081	0,135	0,044
-595,255	-200,000	-0,018	0,071
-594,240	800,000	0,018	0,059
-593,225	-40,752	0,088	-0,033
-592,211	99,681	-0,054	0,046
-591,196	243,850	-0,078	-0,097
-590,182	-200,000	-0,005	-0,025
-589,167	209,344	-0,103	-0,119
-588,152	-41,987	-0,051	0,019
-587,138	303,770	0,058	0,080
-586,123	-200,000	-0,032	-0,148
-585,109	-67,587	-0,052	-0,015
-584,094	-61,779	0,144	0,044
-583,079	307,519	-0,022	-0,031
-582,065	180,221	0,058	-0,063
-581,050	800,000	0,032	0,102
-580,036	-129,602	-0,029	-0,003
-579,021	-120,746	0,044	-0,005
-578,006	-200,000	-0,032	-0,126
-576,992	494,634	0,005	0,009
-575,977	800,000	-0,010	0,034
-574,963	45,979	-0,053	0,036
-573,948	-24,135	0,058	0,025
-572,934	800,000	0,020	-0,053
-571,919	-187,765	-0,105	-0,001
-570,904	800,000	0,064	-0,143
-569,890	-200,000	-0,016	-0,079
-568,875	167,529	0,070	-0,073
-567,861	-200,000	-0,030	0,118
-566,846	-79,997	-0,025	-0,006
-565,831	131,317	0,071	0,067
-564,817	-200,000	-0,004	0,071
-563,802	585,450	-0,041	-0,074
-562,788	-200,000	-0,067	-0,220
-561,773	25,262	0,074	0,045
-560,758	-3,953	-0,161	0,082
-559,744	800,000	0,019	-0,051
-558,729	182,909	-0,070	-0,076
-557,715	-52,001	0,066	0,023
-556,700	-200,000	-0,016	-0,153
-555,685	800,000	-0,022	-0,059
-554,671	62,652	0,019	0,014
-553,656	800,000	0,021	-0,055
-552,642	-200,000	0,025	-0,104
-551,627	18,085	-0,045	0,026
-550,612	199,941	0,066	-0,074
-549,598	428,931	-0,081	-0,129
-548,583	486,605	-0,056	-0,094
-547,569	350,943	0,029	0,042
-546,554	73,072	0,057	0,044
-545,539	-93,379	-0,077	0,016
-544,525	-94,622	-0,157	0,031
-543,510	800,000	0,040	0,101
-542,496	254,982	-0,071	0,090
-541,481	-200,000	-0,015	-0,121
-540,466	-200,000	-0,009	0,067
-539,452	471,532	-0,057	-0,094
-538,437	5,725	0,097	0,053
-537,423	488,186	0,095	0,160
-536,408	239,944	0,055	-0,067
-535,393	161,545	-0,046	-0,048
-534,379	-200,000	-0,003	-0,190
-533,364	800,000	-0,025	-0,060
-532,350	375,330	-0,011	0,016
-531,335	306,792	0,049	0,067
-530,321	-140,797	-0,016	0,001
-529,306	427,633	0,044	-0,070
-528,291	-200,000	-0,082	-0,000
-527,277	-200,000	-0,017	0,128
-526,262	282,761	-0,075	-0,099
-525,248	-200,000	0,011	-0,072
-524,233	-200,000	0,015	0,098
-523,218	380,085	0,008	-0,012
-522,204	800,000	-0,041	-0,087
-521,189	-112,322	0,071	0,010
-520,175	234,915	-0,137	-0,167
-519,160	800,000	-0,012	0,039
-518,145	800,000	0,024	-0,050
-517,131	490,424	0,097	0,163
-516,116	-200,000	0,002	-0,045
-515,102	-200,000	0,004	0,046
-514,087	225,313	-0,074	0,088
-513,072	194,241	-0,054	-0,060
-512,058	-61,844	0,082	-0,025
-511,043	-200,000	0,017	0,058
-510,029	800,000	-0,024	-0,055
-509,014	-200,000	-0,007	0,129
-507,999	86,151	0,117	0,094
-506,985	800,000	-0,014	0,032
-505,970	-31,347	0,116	-0,048
-504,956	800,000	-0,024	-0,072
-503,941	138,999	0,032	-0,031
-502,926	-200,000	-0,002	0,051
-501,912	800,000	-0,052	0,137
-500,897	800,000	0,089	-0,184
-499,883	252,343	-0,033	0,042
-498,868	-132,502	-0,097	0,009
-497,853	286,457	0,063	-0,083
-496,839	-37,950	-0,079	-0,031
-495,824	-58,681	0,129	0,041
-494,810	800,000	0,078	0,162
-493,795	-33,838	0,074	0,030
-492,781	187,061	-0,057	-0,063
-491,766	-170,346	0,043	0,001
-490,751	10,609	-0,075	-0,042
-489,737	-200,000	0,011	-0,057
-488,722	320,134	0,092	0,129
-487,708	-34,055	0,054	-0,022
-486,693	711,461	0,034	0,067
-485,678	184,632	-0,094	0,102
-484,664	26,055	-0,153	-0,094
-483,649	157,229	0,040	-0,040
-482,635	564,891	-0,040	0,071
-481,620	88,983	-0,072	0,059
-480,605	17,160	0,027	0,016
-479,591	-200,000	0,011	0,138
-478,576	-200,000	-0,022	-0,088
-477,562	170,876	0,031	-0,032
-476,547	175,520	-0,073	-0,077
-475,532	-26,669	0,021	0,009
-474,518	-95,574	-0,023	-0,004
-473,503	560,733	0,063	0,113
-472,489	42,700	0,200	0,133
-471,474	300,117	0,056	-0,076
-470,459	24,615	-0,154	-0,094
-469,445	-156,195	0,031	-0,001
-468,430	228,458	0,037	0,044
-467,416	-135,509	-0,177	-0,015
-466,401	-200,000	-0,003	-0,035
-465,386	557,973	-0,028	-0,050
-464,372	-93,065	0,182	-0,037
-463,357	-176,748	-0,089	0,002
-462,343	800,000	-0,017	-0,037
-461,328	4,972	-0,017	-0,009
-460,313	-90,667	0,263	-0,055
-459,299	-200,000	-0,022	-0,094
-458,284	-200,000	0,006	0,176
-457,270	-200,000	-0,032	0,105
-456,255	-67,322	-0,160	-0,046
-455,241	144,544	0,082	-0,080
-454,226	39,692	0,084	-0,055
-453,211	-200,000	-0,015	-0,065
-452,197	516,891	0,080	0,137
-451,182	-67,472	0,058	-0,017
-450,168	308,295	0,067	-0,092
-449,153	-149,725	-0,042	0,002
-448,138	-200,000	-0,020	-0,121
-447,124	316,266	0,043	0,060
-446,109	800,000	-0,017	-0,036
-445,095	67,237	0,229	0,171
-444,080	800,000	0,011	-0,033
-443,065	196,277	0,058	0,065
-442,051	-200,000	-0,023	0,110
-441,036	-200,000	-0,000	0,035
-440,022	-200,000	-0,013	-0,090
-439,007	58,591	0,056	0,040
-437,992	382,265	0,074	0,112
-436,978	105,496	-0,058	0,050
-435,963	2,970	-0,108	0,057
-434,949	-200,000	0,004	0,074
-433,934	800,000	-0,020	-0,042
-432,919	800,000	-0,043	-0,091
-431,905	189,060	-0,087	0,096
-430,890	51,091	-0,032	0,022
-429,876	800,000	-0,097	0,211
-428,861	79,750	0,086	-0,068
-427,846	128,596	0,004	-0,004
-426,832	800,000	0,018	-0,049
-425,817	800,000	0,072	-0,158
-424,803	-148,009	-0,058	-0,003
-423,788	430,930	0,029	-0,047
-422,773	41,147	-0,072	0,048
-421,759	-200,000	0,032	0,113
-420,744	-200,000	-0,007	0,057
-419,730	85,712	-0,036	0,029
-418,715	-200,000	0,030	-0,110
-417,701	43,281	0,062	-0,041
-416,686	-200,000	0,001	-0,048
-415,671	-15,087	-0,097	-0,045
-414,657	140,609	0,183	0,177
-413,642	55,399	-0,052	-0,037
-412,628	4,665	0,043	-0,023
-411,613	24,118	-0,060	-0,036
-410,598	184,265	0,118	0,128
-409,584	289,597	-0,078	-0,103
-408,569	-200,000	0,035	0,150
-407,555	-200,000	-0,000	0,028
-406,540	606,076	0,078	0,142
-405,525	-36,395	-0,013	-0,005
-404,511	-200,000	-0,010	-0,089
-403,496	-26,980	-0,046	0,020
-402,482	-82,622	0,131	0,031
-401,467	-79,285	-0,066	-0,016
-400,452	-116,941	0,207	0,027
-399,438	437,618	-0,037	-0,060
-398,423	-200,000	0,016	-0,130
-397,409	649,455	0,040	-0,074
-396,394	64,799	-0,047	-0,035
-395,379	-200,000	-0,026	-0,186
-394,365	-152,778	0,103	-0,005
-393,350	408,688	0,016	-0,025
-392,336	-61,535	0,091	0,028
-391,321	352,179	-0,064	-0,092
-390,306	-200,000	0,012	0,040
-389,292	-200,000	0,008	0,051
-388,277	155,428	-0,054	-0,054
-387,263	800,000	-0,004	0,013
-386,248	320,153	0,045	0,063
-385,233	292,842	-0,080	0,107
-384,219	800,000	0,019	-0,059
-383,204	-200,000	0,016	-0,081
-382,190	-200,000	-0,028	-0,107
-381,175	-200,000	-0,021	-0,095
-380,160	-35,976	0,057	-0,023
-379,146	800,000	-0,020	-0,052
-378,131	800,000	-0,019	0,054
-377,117	-88,130	0,090	0,020
-376,102	238,037	-0,065	-0,080
-375,088	151,063	0,068	0,068
-374,073	-159,359	-0,089	-0,004
-373,058	800,000	0,035	-0,072
-372,044	426,317	0,055	-0,086
-371,029	40,124	-0,070	-0,046
-370,015	-200,000	0,003	0,057
-369,000	-106,793	-0,107	-0,017
-367,985	270,376	0,045	-0,058
-366,971	800,000	0,025	0,066
-365,956	528,136	0,042	0,073
-364,942	-200,000	-0,019	0,084
-363,927	774,765	0,007	0,013
-362,912	-75,626	-0,061	-0,016
-361,898	800,000	0,017	0,050
-360,883	150,223	-0,018	0,018
-359,869	-200,000	-0,003	-0,090
-358,854	-200,000	0,011	-0,202
-357,839	-200,000	0,037	0,143
-356,825	-124,467	0,095	0,011
-355,810	-7,165	0,051	0,025
-354,796	-67,995	0,051	0,014
-353,781	-56,756	-0,077	0,025
-352,766	-131,453	-0,051	0,005
-351,752	55,760	0,126	-0,089
-350,737	-200,000	0,014	0,055
-349,723	329,024	0,064	0,090
-348,708	-200,000	-0,011	0,200
-347,693	-23,053	-0,034	0,015
-346,679	-54,753	-0,139	-0,045
-345,664	-93,669	0,231	-0,046
-344,650	-200,000	-0,012	0,070
-343,635	800,000	-0,025	-0,052
-342,620	36,075	-0,101	-0,065
-341,606	-102,399	-0,170	-0,029
-340,591	85,532	-0,089	0,072
-339,577	800,000	-0,026	-0,083
-338,562	243,591	-0,016	0,019
-337,548	-200,000	0,006	-0,058
-336,533	216,946	-0,047	0,055
-335,518	-200,000	-0,012	0,132
-334,504	-63,693	0,077	0,023
-333,489	-139,669	0,068	-0,005
-332,475	-200,000	-0,015	-0,103
-331,460	800,000	-0,031	-0,071
-330,445	346,669	0,031	-0,045
-329,431	17,549	-0,026	-0,015
-328,416	-200,000	0,006	0,046
-327,402	-196,447	0,114	0,001
-326,387	-200,000	-0,012	0,044
-325,372	169,636	0,119	0,125
-324,358	108,012	-0,046	0,040
-323,343	-200,000	-0,006	-0,023
-322,329	-29,376	-0,035	-0,015
-321,314	266,565	0,043	0,055
-320,299	260,884	-0,111	0,141
-319,285	-35,767	0,024	0,010
-318,270	-200,000	0,005	-0,161
-317,256	-200,000	0,046	-0,187
-316,241	127,190	-0,107	-0,099
-315,226	-63,874	0,170	0,050
-314,212	-200,000	0,001	0,087
-313,197	87,725	-0,112	-0,091
-312,183	262,287	-0,029	0,036
-311,168	-200,000	-0,019	0,093
-310,153	-80,216	-0,169	0,041
-309,139	800,000	0,020	0,044
-308,124	-200,000	-0,002	0,057
-307,110	-200,000	-0,004	0,065
-306,095	-47,334	-0,100	0,035
-305,080	-200,000	0,008	0,095
-304,066	598,850	-0,036	0,066
-303,051	-200,000	-0,010	0,076
-302,037	-62,090	-0,118	-0,036
-301,022	308,869	-0,023	-0,031
-300,008	-53,735	-0,081	0,027
-298,993	-200,000	-0,002	0,040
-297,978	800,000	0,031	0,074
-296,964	-173,147	0,148	-0,003
-295,949	137,886	-0,100	0,096
-294,935	-131,870	0,076	0,007
-293,920	110,792	-0,045	-0,039
-292,905	800,000	0,048	0,097
-291,891	-19,329	0,220	0,099
-290,876	-200,000	0,016	-0,073
-289,862	-108,023	0,174	0,027
-288,847	214,109	0,010	-0,012
-287,832	134,956	0,055	0,052
-286,818	-54,513	-0,036	-0,012
-285,803	178,039	0,066	0,070
-284,789	800,000	0,093	0,199
-283,774	-69,096	-0,070	0,020
-282,759	-200,000	-0,000	0,120
-281,745	165,691	-0,035	-0,036
-280,730	740,902	-0,023	-0,045
-279,716	-152,911	0,123	0,006
-278,701	235,857	0,116	-0,140
-277,686	800,000	-0,070	0,215
-276,672	43,060	-0,036	-0,024
-275,657	-200,000	-0,037	0,167
-274,643	-146,278	0,125	-0,008
-273,628	258,797	-0,073	0,091
-272,613	800,000	-0,048	-0,153
-271,599	800,000	0,020	-0,063
-270,584	800,000	-0,030	0,078
-269,570	-69,276	-0,054	0,015
-268,555	-129,668	-0,010	-0,001
-267,540	-37,987	0,073	0,028
-266,526	-88,938	-0,110	-0,023
-265,511	-200,000	-0,006	-0,053
-264,497	-200,000	0,012	-0,125
-263,482	-10,861	0,085	-0,041
-262,467	372,616	-0,037	0,055
-261,453	256,383	0,043	-0,054
-260,438	101,700	0,073	-0,062
-259,424	-112,156	-0,049	0,007
-258,409	800,000	0,054	-0,152
-257,395	-200,000	0,009	-0,054
-256,380	84,117	-0,020	0,016
-255,365	-200,000	0,001	-0,092
-254,351	-200,000	-0,094	0,000
-253,336	800,000	-0,028	-0,074
-252,322	677,671	-0,071	-0,135
-251,307	-41,943	-0,105	-0,039
-250,292	274,167	-0,038	0,049
-249,278	128,708	0,086	-0,080
-248,263	800,000	-0,038	0,098
-247,249	64,809	0,088	0,064
-246,234	-131,944	-0,169	-0,016
-245,219	-200,000	0,000	-0,093
-244,205	399,627	-0,064	-0,097
-243,190	111,804	0,074	-0,065
-242,176	27,818	0,124	-0,076
-241,161	-85,386	0,088	0,020
-240,146	-47,012	0,090	-0,032
-239,132	411,856	0,025	-0,038
-238,117	-40,801	0,080	-0,030
-237,103	800,000	-0,014	-0,039
-236,088	800,000	0,047	0,150
-235,073	800,000	-0,007	-0,016
-234,059	379,973	0,050	0,074
-233,044	-108,558	0,024	0,004
-232,030	397,913	0,030	0,046
-231,015	-52,865	0,128	-0,043
-230,000	46,029	-0,032	-0,021
-228,986	-200,000	-0,026	0,173
-227,971	-200,000	-0,015	0,061
-226,957	800,000	0,053	0,108
-225,942	-57,487	-0,095	0,030
-224,927	800,000	0,029	-0,080
-223,913	-85,083	-0,107	0,024
-222,898	800,000	0,047	-0,096
-221,884	-64,206	-0,060	0,018
-220,869	-200,000	-0,001	0,006
-219,855	-87,703	-0,029	0,006
-218,840	555,813	0,051	0,090
-217,825	26,233	0,111	0,067
-216,811	-17,709	-0,087	-0,039
-215,796	76,754	-0,045	0,035
-214,782	379,017	0,064	-0,096
-213,767	-37,562	-0,101	0,039
-212,752	21,909	-0,032	-0,019
-211,738	47,501	-0,158	0,107
-210,723	-200,000	-0,015	0,088
-209,709	-49,743	-0,046	-0,016
-208,694	301,767	-0,071	-0,095
-207,679	365,807	-0,030	-0,044
-206,665	145,744	-0,021	-0,020
-205,650	106,822	-0,075	0,065
-204,636	-200,000	-0,021	0,116
-203,621	70,821	0,043	-0,032
-202,606	-200,000	-0,018	-0,135
-201,592	113,862	-0,043	0,038
-200,577	18,137	-0,040	0,023
-199,563	-20,768	0,075	-0,033
-198,548	152,882	0,033	0,032
-197,533	-200,000	0,018	0,097
-196,519	-200,000	0,003	-0,042
-195,504	344,365	0,050	0,072
-194,490	-200,000	-0,003	-0,032
-193,475	800,000	0,048	-0,118
-192,460	-127,598	0,092	-0,010
-191,446	800,000	-0,042	-0,093
-190,431	-71,479	0,112	-0,030
-189,417	800,000	-0,050	0,123
-188,402	-83,752	-0,134	0,031
-187,387	-9,596	0,043	-0,021
-186,373	-200,000	-0,000	0,063
-185,358	1,498	-0,131	-0,068
-184,344	-60,288	0,183	-0,056
-183,329	272,068	0,067	-0,086
-182,315	-66,547	-0,152	-0,043
-181,300	-107,620	0,068	0,011
-180,285	370,882	-0,108	-0,159
-179,271	-108,615	-0,099	-0,015
-178,256	-200,000	0,021	-0,140
-177,242	-200,000	-0,023	-0,131
-176,227	224,058	0,041	0,048
-175,212	-200,000	-0,022	0,000
-174,198	-200,000	0,005	0,061
-173,183	800,000	-0,073	-0,152
-172,169	40,509	0,055	-0,036
-171,154	-200,000	0,025	-0,085
-170,139	130,828	0,034	0,032
-169,125	174,280	0,042	0,044
-168,110	-93,927	0,150	0,030
-167,096	27,444	-0,142	-0,086
-166,081	-200,000	-0,002	0,064
-165,066	11,066	-0,169	0,093
-164,052	800,000	-0,040	0,113
-163,037	-59,218	-0,119	0,037
-162,023	800,000	0,029	-0,086
-161,008	212,433	0,108	0,124
-159,993	37,620	0,114	0,073
-158,979	212,629	-0,010	-0,012
-157,964	488,052	0,074	-0,123
-156,950	278,175	-0,039	0,050
-155,935	-41,711	0,141	-0,052
-154,920	213,146	-0,052	0,060
-153,906	-142,806	-0,064	-0,004
-152,891	640,403	-0,029	-0,053
-151,877	-133,253	0,064	-0,006
-150,862	125,925	0,041	-0,038
-149,847	-119,128	-0,115	0,014
-148,833	189,635	0,072	-0,079
-147,818	333,464	-0,047	0,066
-146,804	-74,586	0,048	-0,012
-145,789	800,000	0,023	0,067
-144,775	-184,469	-0,056	-0,001
-143,760	-144,481	-0,160	-0,011
-142,745	-200,000	-0,054	-0,206
-141,731	-80,992	0,207	-0,049
-140,716	-176,549	0,011	-0,000
-139,702	268,471	-0,033	-0,042
-138,687	372,273	0,122	0,181
-137,672	-200,000	-0,038	0,208
-136,658	-200,000	-0,045	-0,191
-135,643	800,000	0,032	-0,100
-134,629	153,508	-0,058	0,058
-133,614	-10,596	-0,025	0,012
-132,599	197,934	-0,052	0,057
-131,585	-200,000	0,032	0,189
-130,570	-3,786	-0,096	0,048
-129,556	-122,336	0,137	-0,016
-128,541	122,950	0,091	0,083
-127,526	19,056	-0,070	-0,041
-126,512	800,000	0,031	0,071
-125,497	642,399	-0,095	0,177
-124,483	800,000	-0,037	-0,094
-123,468	-200,000	-0,013	0,122
-122,453	192,879	0,036	0,040
-121,439	-29,729	-0,095	0,039
-120,424	289,951	-0,117	-0,154
-119,410	55,435	0,065	0,046
-118,395	-200,000	0,015	0,143
-117,380	278,058	0,066	0,086
-116,366	-200,000	0,009	-0,116
-115,351	94,082	0,065	-0,053
-114,337	440,161	0,045	-0,071
-113,322	-69,129	0,042	0,012
-112,307	-200,000	-0,008	0,130
-111,293	-66,763	0,135	0,038
-110,278	-200,000	0,016	-0,091
-109,264	61,268	-0,038	-0,027
-108,249	219,277	-0,098	0,113
-107,234	-200,000	0,010	0,073
-106,220	89,086	-0,062	0,050
-105,205	154,660	0,074	-0,073
-104,191	-64,909	-0,052	-0,015
-103,176	57,806	-0,145	-0,103
-102,162	45,959	0,133	-0,089
-101,147	-114,352	-0,040	0,005
-100,132	-168,868	-0,093	-0,002
-99,118	14,576	-0,062	-0,035
-98,103	-124,014	0,053	-0,006
-97,089	-41,404	0,089	0,033
-96,074	-200,000	-0,020	0,118
-95,059	35,164	0,054	-0,034
-94,045	228,126	-0,073	-0,086
-93,030	52,303	-0,133	0,091
-92,016	800,000	-0,016	-0,033
-91,001	340,568	0,032	0,046
-89,986	-140,808	-0,034	0,002
-88,972	-56,710	0,119	-0,038
-87,957	417,003	-0,017	-0,027
-86,943	111,555	-0,069	0,061
-85,928	418,238	0,097	-0,151
-84,913	36,113	0,023	-0,015
-83,899	-11,731	-0,105	0,050
-82,884	-192,286	0,079	0,001
-81,870	-200,000	0,005	0,038
-80,855	-200,000	-0,021	0,095
-79,840	69,855	-0,104	0,078
-78,826	72,427	-0,183	0,138
-77,811	-81,371	-0,103	-0,024
-76,797	106,117	0,022	0,019
-75,782	621,651	0,030	-0,054
-74,767	-76,580	0,085	0,021
-73,753	800,000	-0,049	0,131
-72,738	54,812	0,130	0,090
-71,724	800,000	-0,027	-0,069
-70,709	35,002	-0,116	-0,073
-69,694	139,256	0,048	-0,046
-68,680	-6,997	-0,060	0,030
-67,665	800,000	-0,041	0,109
-66,651	-11,901	0,106	0,050
-65,636	156,672	0,059	0,059
-64,622	800,000	0,031	0,072
-63,607	161,973	-0,043	0,043
-62,592	-106,522	0,097	-0,015
-61,578	-24,889	-0,113	-0,048
-60,563	-76,851	0,204	0,051
-59,549	-200,000	0,008	0,044
-58,534	78,220	-2,126	-1,638
-57,519	715,718	-1,152	-2,217
-56,505	-200,000	-0,190	-4,365
-55,490	800,000	0,868	1,742
-54,476	800,000	5,240	11,169
-53,461	-200,000	22,039	345,095
-52,446	800,000	754,645	2310,750
-51,432	513,357	1641,405	2773,605
-50,417	67,869	1573,473	1160,337
-49,403	19,248	1156,459	668,538
-48,388	11,568	882,075	486,951
-47,373	25,887	849,498	510,019
-46,359	17,244	835,346	477,195
-45,344	8,530	831,051	450,137
-44,330	8,332	829,466	448,698
-43,315	8,231	828,221	447,724
-42,300	8,274	826,990	447,161
-41,286	8,271	826,028	446,616
-40,271	8,245	825,098	446,022
-39,257	8,339	823,959	445,650
-38,242	8,405	823,080	445,344
-37,227	8,359	822,240	444,743
-36,213	8,396	821,265	444,300
-35,198	8,303	820,592	443,659
-34,184	8,390	819,813	443,464
-33,169	8,327	819,117	442,894
-32,154	8,410	818,297	442,666
-31,140	8,420	816,977	441,961
-30,125	8,486	816,245	441,730
-29,111	8,398	815,775	441,214
-28,096	8,281	815,572	440,761
-27,082	8,361	814,672	440,479
-26,067	8,398	813,572	439,970
-25,052	8,306	813,149	439,469
-24,038	8,324	812,410	439,102
-23,023	8,279	811,864	438,664
-22,009	8,399	811,279	438,662
-20,994	8,428	810,478	438,292
-19,979	8,370	809,864	437,783
-18,965	8,410	809,215	437,524
-17,950	8,454	808,872	437,444
-16,936	8,319	808,431	436,815
-15,921	8,294	807,647	436,305
-14,906	8,258	806,903	435,789
-13,892	8,256	806,395	435,492
-12,877	8,261	805,776	435,152
-11,863	8,207	805,453	434,814
-10,848	8,211	804,906	434,512
-9,833	8,296	804,485	434,500
-8,819	8,325	803,729	434,155
-7,804	8,390	802,983	433,911
-6,790	8,255	802,701	433,375
-5,775	8,306	802,269	433,261
-4,760	8,353	801,594	433,010
-3,746	8,210	801,511	432,557
-2,731	8,069	800,825	431,786
-1,717	8,071	800,233	431,454
-0,702	8,122	799,545	431,206
0,313	8,173	796,927	430,582
1,327	11,991	780,000	431,529
2,342	20,835	634,938	370,239
3,356	14,743	350,084	196,915
4,371	-15,623	235,820	108,108
5,386	-18,677	222,000	99,422
6,400	-18,920	217,760	97,332
7,415	-17,845	215,816	97,255
8,429	-18,793	214,662	96,025
9,444	-18,952	213,830	95,526
10,459	-18,900	213,464	95,393
11,473	-18,774	212,685	95,129
12,488	-18,888	212,599	94,998
13,502	-19,187	211,961	94,486
14,517	-18,691	211,706	94,726
15,531	-19,143	211,126	94,129
16,546	-18,925	210,783	94,126
17,561	-19,117	210,467	93,837
18,575	-18,749	210,277	94,011
19,590	-18,753	209,836	93,802
20,604	-18,917	209,919	93,713
21,619	-18,860	209,580	93,594
22,634	-19,020	209,053	93,235
23,648	-19,143	208,735	92,996
24,663	-18,883	208,635	93,131
25,677	-18,838	208,432	93,064
26,692	-18,783	208,182	92,983
27,707	-18,974	207,906	92,715
28,721	-18,799	207,587	92,690
29,736	-19,067	207,336	92,378
30,750	-19,002	207,210	92,360
31,765	-18,954	207,068	92,323
32,780	-19,178	206,969	92,110
33,794	-19,089	206,601	92,002
34,809	-18,882	206,390	92,047
35,823	-19,012	206,179	91,852
36,838	-18,804	205,903	91,869
37,853	-18,932	205,729	91,693
38,867	-18,914	205,445	91,570
39,882	-18,947	205,349	91,496
40,896	-18,842	205,262	91,524
41,911	-18,841	205,015	91,405
42,926	-18,855	204,713	91,253
43,940	-18,903	204,623	91,171
44,955	-18,899	204,410	91,070
45,969	-19,046	204,165	90,850
46,984	-18,848	203,943	90,882
47,999	-18,783	204,069	90,975
49,013	-18,717	203,734	90,865
50,028	-18,459	203,477	90,922
51,042	-18,666	203,304	90,693
52,057	-18,709	203,056	90,544
53,071	-18,841	202,993	90,415
54,086	-18,795	202,837	90,369
55,101	-18,665	202,507	90,305
56,115	-18,826	202,339	90,110
57,130	-18,916	202,195	89,975
58,144	-19,152	201,908	89,676
59,159	-19,039	201,758	89,680
60,174	-18,739	201,525	89,776
61,188	-18,997	201,503	89,580
62,203	-18,888	201,250	89,535
63,217	-18,808	201,161	89,542
64,232	-19,073	200,919	89,243
65,247	-18,986	200,651	89,176
66,261	-18,963	200,366	89,058
67,276	-18,744	200,264	89,155
68,290	-18,669	200,099	89,125
69,305	-18,835	200,159	89,030
70,320	-18,657	199,730	88,953
71,334	-18,743	199,760	88,899
72,349	-19,012	199,389	88,542
73,363	-18,741	199,030	88,560
74,378	-18,803	199,047	88,518
75,393	-18,665	198,827	88,506
76,407	-18,644	198,609	88,415
77,422	-18,931	198,574	88,197
78,436	-18,714	198,378	88,249
79,451	-18,990	198,306	88,022
80,466	-18,896	198,110	87,991
81,480	-18,674	197,768	87,981
82,495	-18,869	197,761	87,838
83,509	-18,574	197,503	87,915
84,524	-18,703	197,499	87,819
85,539	-18,815	197,168	87,588
86,553	-18,580	196,990	87,660
87,568	-18,671	196,846	87,527
88,582	-18,516	196,574	87,502
89,597	-18,712	196,702	87,419
90,611	-18,869	196,338	87,144
91,626	-18,946	196,315	87,074
92,641	-18,850	196,127	87,047
93,655	-18,783	195,898	86,983
94,670	-18,696	195,833	87,005
95,684	-18,706	195,489	86,837
96,699	-18,698	195,381	86,787
97,714	-18,721	195,320	86,737
98,728	-18,466	195,158	86,828
99,743	-18,639	195,071	86,665
100,757	-18,763	194,839	86,472
101,772	-18,774	194,699	86,395
102,787	-18,732	194,411	86,287
103,801	-18,623	194,339	86,320
104,816	-18,817	194,258	86,147
105,830	-18,826	193,981	86,011
106,845	-18,934	193,762	85,835
107,860	-18,680	193,610	85,928
108,874	-18,818	193,588	85,819
109,889	-18,838	193,423	85,725
110,903	-18,816	193,153	85,612
111,918	-18,864	193,165	85,578
112,933	-18,668	192,922	85,592
113,947	-18,772	192,695	85,416
114,962	-18,584	192,508	85,449
115,976	-18,731	192,463	85,325
116,991	-18,590	192,231	85,306
118,006	-18,818	192,046	85,067
119,020	-18,620	192,024	85,180
120,035	-18,574	191,847	85,124
121,049	-18,980	191,730	84,798
122,064	-18,636	191,485	84,908
123,079	-18,644	191,348	84,834
124,093	-18,641	191,239	84,780
125,108	-18,591	191,103	84,745
126,122	-18,669	191,112	84,690
127,137	-18,558	190,844	84,636
128,151	-18,392	190,555	84,609
129,166	-18,843	190,575	84,316
130,181	-18,784	190,382	84,262
131,195	-18,772	190,094	84,135
132,210	-18,688	189,952	84,119
133,224	-18,629	189,751	84,061
134,239	-18,714	189,807	84,023
135,254	-18,625	189,550	83,959
136,268	-18,841	189,406	83,748
137,283	-18,850	189,205	83,646
138,297	-18,465	188,953	83,775
139,312	-18,848	188,809	83,458
140,327	-19,005	188,696	83,299
141,341	-18,931	188,404	83,211
142,356	-19,147	188,343	83,037
143,370	-18,102	188,763	83,887
144,385	-10,782	190,685	89,490
145,400	-3,950	192,229	94,670
146,414	-2,856	192,472	95,494
147,429	-2,581	192,229	95,544
148,443	-2,391	192,217	95,654
149,458	-2,248	192,105	95,683
150,473	-2,078	192,077	95,771
151,487	-1,543	191,809	95,976
152,502	-1,670	191,860	95,911
153,516	-1,838	191,681	95,704
154,531	-1,672	191,553	95,739
155,546	-1,757	191,415	95,607
156,560	-1,532	191,293	95,682
157,575	-1,525	191,145	95,604
158,589	-1,702	190,974	95,396
159,604	-1,825	190,913	95,277
160,619	-1,866	190,871	95,222
161,633	-1,532	190,630	95,308
162,648	-1,357	190,497	95,346
163,662	-1,496	190,404	95,202
164,677	-1,085	190,194	95,352
165,692	-1,419	190,268	95,166
166,706	-1,208	190,033	95,176
167,721	-1,174	189,783	95,064
168,735	-1,167	189,804	95,070
169,750	-1,224	189,693	94,969
170,764	-1,248	189,481	94,840
171,779	-1,325	189,532	94,808
172,794	-1,242	189,189	94,680
173,808	-1,099	189,078	94,708
174,823	-1,432	189,101	94,498
175,837	-1,300	188,891	94,469
176,852	-1,217	188,677	94,406
177,867	-1,175	188,564	94,368
178,881	-1,014	188,534	94,447
179,896	-1,309	188,362	94,165
180,910	-1,177	188,173	94,146
181,925	-1,512	188,152	93,914
182,940	-1,248	187,792	93,894
183,954	-1,287	187,719	93,824
184,969	-1,298	187,752	93,825
185,983	-0,943	187,608	93,970
186,998	-1,014	187,486	93,855
188,013	-0,955	187,182	93,732
189,027	-1,195	187,218	93,590
190,042	-1,154	186,958	93,477
191,056	-1,022	186,885	93,516
192,071	-1,271	186,836	93,326
193,086	-0,760	186,619	93,531
194,100	-1,029	186,518	93,303
195,115	-0,835	186,354	93,334
196,129	-1,001	186,179	93,135
197,144	-1,007	186,130	93,098
198,159	-0,940	185,987	93,060
199,173	-0,984	185,771	92,916
200,188	-0,971	185,662	92,861
201,202	-1,040	185,391	92,674
202,217	-0,921	185,403	92,746
203,232	-0,816	185,206	92,705
204,246	-1,088	185,206	92,527
205,261	-1,056	184,941	92,406
206,275	-0,856	184,778	92,441
207,290	-0,800	184,728	92,443
208,304	-0,901	184,566	92,291
209,319	-1,039	184,435	92,131
210,334	-1,106	184,314	92,021
211,348	-1,001	184,098	91,970
212,363	-1,020	184,067	91,935
213,377	-0,757	183,985	92,049
214,392	-0,734	183,914	92,019
215,407	-0,853	183,773	91,867
216,421	-0,737	183,679	91,883
217,436	-0,925	183,503	91,671
218,450	-0,863	183,294	91,596
219,465	-0,711	183,169	91,619
220,480	-0,961	183,143	91,444
221,494	-0,885	182,905	91,364
222,509	-0,823	182,897	91,390
223,523	-0,635	182,631	91,364
224,538	-0,522	182,519	91,370
225,553	-0,575	182,376	91,257
226,567	-0,555	182,297	91,222
227,582	-0,777	182,276	91,067
228,596	-0,817	182,279	91,036
229,611	-0,488	182,012	91,096
230,626	-0,483	181,901	91,035
231,640	-0,655	181,704	90,823
232,655	-0,797	181,735	90,744
233,669	-0,685	181,597	90,735
234,684	-0,837	181,417	90,545
235,699	-0,746	181,287	90,527
236,713	-0,453	181,233	90,671
237,728	-0,402	181,068	90,611
238,742	-0,620	180,924	90,399
239,757	-0,536	180,856	90,407
240,772	-0,577	180,686	90,289
241,786	-0,591	180,589	90,225
242,801	-0,585	180,524	90,188
243,815	-0,568	180,428	90,142
244,830	-0,427	180,188	90,099
245,844	-0,303	180,080	90,112
246,859	-0,375	179,986	90,014
247,874	-0,584	179,874	89,823
248,888	-0,535	179,776	89,796
249,903	-0,367	179,689	89,846
250,917	-0,238	179,522	89,832
251,932	-0,273	179,318	89,700
252,947	-0,251	179,243	89,669
253,961	-0,489	179,231	89,511
254,976	-0,371	179,071	89,495
255,990	-0,377	178,929	89,412
257,005	-0,224	178,806	89,434
258,020	-0,160	178,640	89,381
259,034	-0,179	178,660	89,372
260,049	-0,426	178,457	89,115
261,063	-0,546	178,389	89,001
262,078	-0,549	178,201	88,898
263,093	-0,575	178,182	88,865
264,107	-0,281	178,100	88,991
265,122	-0,344	178,012	88,902
266,136	-0,022	177,629	88,894
267,151	-0,146	177,662	88,830
268,166	-0,374	177,484	88,597
269,180	-0,164	177,299	88,621
270,195	-0,300	177,260	88,513
271,209	-0,203	177,004	88,435
272,224	-0,058	176,996	88,509
273,239	-0,206	177,006	88,418
274,253	-0,166	176,767	88,315
275,268	-0,207	176,608	88,203
276,282	-0,224	176,621	88,192
277,297	-0,182	176,335	88,066
278,312	0,035	176,212	88,124
279,326	-0,052	176,005	87,962
280,341	-0,059	176,071	87,983
281,355	-0,222	176,056	87,871
282,370	-0,436	175,956	87,688
283,384	-0,182	175,663	87,683
284,399	-0,279	175,796	87,684
285,414	-0,119	175,510	87,628
286,428	-0,122	175,400	87,564
287,443	0,183	175,315	87,692
288,457	0,198	175,161	87,616
289,472	-0,405	175,144	87,246
290,487	-0,026	175,053	87,415
291,501	-0,145	175,023	87,323
292,516	0,004	174,692	87,237
293,530	-0,030	174,787	87,257
294,545	0,264	174,445	87,249
295,560	-0,053	174,452	87,061
296,574	0,207	174,166	87,061
297,589	-0,097	174,170	86,879
298,603	0,200	174,111	87,014
299,618	-0,049	174,007	86,810
300,633	-0,015	173,936	86,786
301,647	0,000	173,621	86,630
302,662	0,068	173,712	86,707
303,676	-0,177	173,434	86,419
304,691	0,117	173,454	86,592
305,706	-0,005	173,184	86,379
306,720	-0,037	173,216	86,368
307,735	-0,044	173,102	86,299
308,749	0,039	172,889	86,234
309,764	-0,103	172,903	86,151
310,779	0,177	172,777	86,242
311,793	-0,064	172,639	86,027
312,808	-0,329	172,412	85,753
313,822	-0,066	172,515	85,948
314,837	0,145	172,234	85,922
315,852	0,391	172,063	85,970
316,866	0,060	171,992	85,737
317,881	-0,007	172,011	85,701
318,895	0,160	171,750	85,658
319,910	0,352	171,487	85,629
320,925	0,047	171,493	85,450
321,939	0,107	171,560	85,510
322,954	0,363	171,398	85,568
323,968	0,047	171,274	85,318
324,983	0,274	171,133	85,370
325,997	0,265	170,985	85,283
327,012	0,148	170,832	85,133
328,027	0,030	170,857	85,071
329,041	-0,040	170,779	84,984
330,056	0,370	170,601	85,121
331,070	0,177	170,562	84,984
332,085	0,410	170,297	84,977
333,100	0,208	170,196	84,804
334,114	0,433	170,117	84,885
335,129	0,308	169,990	84,743
336,143	0,403	169,886	84,738
337,158	0,376	169,816	84,680
338,173	0,451	169,729	84,671
339,187	0,359	169,628	84,561
340,202	0,362	169,507	84,496
341,216	0,547	169,249	84,464
342,231	0,369	169,177	84,320
343,246	0,203	169,182	84,221
344,260	0,434	169,080	84,292
345,275	0,733	168,986	84,406
346,289	0,496	168,966	84,256
347,304	0,207	168,799	84,003
348,319	0,450	168,646	84,055
349,333	0,143	168,705	83,905
350,348	0,604	168,366	83,987
351,362	0,459	168,331	83,881
352,377	0,248	168,206	83,693
353,392	0,659	168,071	83,848
354,406	0,479	168,015	83,713
355,421	190,019	1326,109	1393,828
356,435	150,340	1467,638	1394,293
