DTS Sentinel unit serial number:	SN410029Multiplexer serial number:	ORYXHardware model number:	OX2-SRSoftware version number:	ORYX F/W v4,00 Oryx Data Collector v3.7.2.0data status	okinstallation	B3 Nyhavnadifferential loss correction	single-endedforward channel	channel 1reverse channel	N/Adate	2023/11/28time	10:42:30forward acquisition time	300,00reverse acquisition time	0,00gamma	499,1914k internal	0,3157k external	0,3157temperature offset calibration	1,0000default loss term (dB/km)	0,3820temperature slope calibration	1,0000multiplexer offset coefficient	1,0000multiplexer slope coefficient	1,0000fibre end	0,00T internal ref (°C)	9,73T ext. ref 1 (°C)	-7,26T ext. ref 2 (°C)	-7,49length (m)	temperature (°C)	Stokes	anti-Stokes-744,400	621,545	-0,154	-0,287
-743,385	-200,000	-0,025	0,207
-742,371	75,956	-0,128	-0,100
-741,356	-200,000	0,015	0,291
-740,342	155,347	-0,140	-0,142
-739,327	-200,000	0,049	0,285
-738,312	234,119	-0,295	-0,358
-737,298	-200,000	0,084	0,341
-736,283	597,727	-0,158	-0,291
-735,269	-200,000	0,002	0,159
-734,254	-200,000	-0,043	-0,208
-733,239	-78,468	-0,245	0,061
-732,225	800,000	-0,123	-0,333
-731,210	188,311	0,122	0,134
-730,196	-200,000	0,008	0,039
-729,181	445,566	-0,067	-0,109
-728,167	501,448	-0,043	0,074
-727,152	-57,847	0,139	-0,044
-726,137	-189,226	-0,185	0,002
-725,123	-200,000	0,003	-0,104
-724,108	31,612	-0,026	0,017
-723,094	-200,000	0,039	-0,151
-722,079	46,519	0,023	-0,016
-721,064	-114,318	0,028	-0,004
-720,050	15,649	-0,079	0,046
-719,035	231,723	-0,013	0,016
-718,021	13,874	0,034	-0,019
-717,006	800,000	-0,034	-0,086
-715,991	-200,000	0,015	-0,049
-714,977	-200,000	0,025	-0,086
-713,962	-120,347	0,055	-0,007
-712,948	-3,734	0,064	-0,032
-711,933	800,000	-0,074	-0,176
-710,918	309,494	-0,014	0,020
-709,904	262,314	-0,100	-0,127
-708,889	-57,049	-0,145	-0,047
-707,875	229,950	-0,110	-0,133
-706,860	142,494	0,065	-0,064
-705,845	800,000	0,069	0,212
-704,831	30,093	-0,101	0,063
-703,816	-101,193	-0,063	0,011
-702,802	88,055	-0,055	0,045
-701,787	-200,000	0,022	-0,090
-700,772	-200,000	-0,004	-0,066
-699,758	-200,000	0,035	-0,121
-698,743	-200,000	-0,020	-0,080
-697,729	115,149	-0,099	0,089
-696,714	52,217	0,112	0,078
-695,699	6,034	0,154	0,084
-694,685	274,756	-0,097	0,127
-693,670	389,706	0,015	0,023
-692,656	-40,033	-0,067	0,026
-691,641	312,374	0,089	0,123
-690,627	194,082	0,033	-0,037
-689,612	474,702	-0,014	-0,023
-688,597	57,713	0,031	0,022
-687,583	134,107	-0,119	-0,113
-686,568	-87,851	-0,153	-0,034
-685,554	271,808	-0,071	0,092
-684,539	800,000	0,042	0,096
-683,524	-200,000	-0,004	0,048
-682,510	362,204	0,040	-0,059
-681,495	739,658	-0,036	0,071
-680,481	-200,000	0,020	-0,210
-679,466	26,880	-0,040	-0,024
-678,451	-200,000	-0,000	0,071
-677,437	-200,000	0,007	-0,064
-676,422	-90,547	-0,114	0,024
-675,408	-133,860	-0,064	-0,006
-674,393	-90,999	-0,047	-0,010
-673,378	479,557	-0,030	-0,049
-672,364	-200,000	0,003	0,056
-671,349	800,000	-0,009	-0,021
-670,335	-200,000	0,013	0,056
-669,320	800,000	-0,017	-0,043
-668,305	-200,000	0,027	0,130
-667,291	-200,000	0,005	0,114
-666,276	-200,000	0,012	-0,043
-665,262	-143,705	-0,133	0,009
-664,247	800,000	0,026	-0,057
-663,232	-53,010	0,192	-0,064
-662,218	-200,000	0,007	-0,112
-661,203	-200,000	-0,004	0,098
-660,189	383,940	0,041	-0,062
-659,174	99,193	-0,128	-0,109
-658,159	531,154	-0,010	0,018
-657,145	265,875	-0,065	-0,084
-656,130	669,856	-0,033	0,062
-655,116	48,738	0,046	-0,031
-654,101	800,000	0,065	0,145
-653,086	800,000	-0,056	0,158
-652,072	-187,671	-0,128	0,001
-651,057	800,000	-0,074	0,157
-650,043	-144,760	-0,187	0,012
-649,028	-200,000	-0,011	-0,125
-648,014	-200,000	0,019	0,151
-646,999	-16,377	0,105	0,049
-645,984	147,700	0,043	0,042
-644,970	-200,000	0,050	0,239
-643,955	-200,000	-0,027	-0,164
-642,941	368,856	0,091	0,135
-641,926	-55,800	0,102	0,033
-640,911	-200,000	-0,008	-0,111
-639,897	-200,000	-0,006	0,081
-638,882	-58,310	-0,084	0,027
-637,868	-172,254	-0,081	0,002
-636,853	156,047	0,023	-0,024
-635,838	800,000	-0,032	-0,074
-634,824	800,000	-0,034	-0,072
-633,809	13,038	-0,084	0,048
-632,795	276,547	0,093	0,122
-631,780	-200,000	-0,014	0,051
-630,765	22,031	-0,061	-0,036
-629,751	-200,000	0,020	-0,180
-628,736	2,350	-0,062	0,033
-627,722	198,887	0,007	-0,008
-626,707	111,472	0,021	-0,018
-625,692	747,499	0,048	0,096
-624,678	6,464	0,130	-0,071
-623,663	5,401	0,129	-0,070
-622,649	14,277	-0,160	0,092
-621,634	-33,218	0,156	0,063
-620,619	785,320	-0,072	-0,146
-619,605	716,848	0,038	-0,074
-618,590	87,627	0,078	0,063
-617,576	45,883	-0,104	0,071
-616,561	24,405	-0,019	0,011
-615,546	-35,834	0,019	-0,007
-614,532	-200,000	-0,012	-0,090
-613,517	-179,493	-0,074	-0,001
-612,503	316,731	0,041	0,057
-611,488	-106,345	-0,220	0,036
-610,474	-69,319	0,213	-0,059
-609,459	800,000	-0,020	0,041
-608,444	-200,000	-0,006	0,099
-607,430	13,890	-0,145	-0,082
-606,415	-7,623	-0,012	0,006
-605,401	-53,946	0,107	-0,036
-604,386	129,484	0,076	-0,071
-603,371	93,550	-0,034	-0,028
-602,357	-200,000	0,006	0,045
-601,342	15,719	-0,108	-0,062
-600,328	-88,765	-0,052	-0,011
-599,313	-11,496	-0,175	-0,084
-598,298	-142,996	-0,089	-0,006
-597,284	-200,000	0,017	-0,067
-596,269	-200,000	0,013	-0,089
-595,255	140,076	-0,034	-0,032
-594,240	6,439	0,147	-0,080
-593,225	-1,291	-0,052	0,027
-592,211	506,451	0,020	-0,034
-591,196	35,799	0,024	-0,015
-590,182	-76,108	0,101	0,026
-589,167	104,955	-0,053	0,046
-588,152	51,496	0,037	0,026
-587,138	82,114	-0,045	0,036
-586,123	88,964	0,048	0,039
-585,109	-70,595	-0,181	-0,050
-584,094	-107,564	0,050	-0,008
-583,079	-200,000	0,014	-0,068
-582,065	-200,000	0,011	0,054
-581,050	16,648	-0,054	0,031
-580,036	-200,000	-0,003	0,116
-579,021	-2,816	0,065	0,033
-578,006	200,758	-0,156	-0,176
-576,992	-200,000	-0,015	0,185
-575,977	79,468	0,203	0,159
-574,963	-200,000	0,019	0,102
-573,948	237,212	-0,053	0,064
-572,934	428,325	-0,041	0,065
-571,919	-74,289	-0,059	0,016
-570,904	-25,586	0,068	0,029
-569,890	800,000	0,047	0,133
-568,875	-200,000	0,005	0,038
-567,861	-200,000	0,013	0,114
-566,846	150,372	0,121	0,120
-565,831	239,759	-0,057	0,070
-564,817	153,458	-0,025	-0,026
-563,802	-200,000	-0,000	0,122
-562,788	-200,000	0,000	-0,136
-561,773	-16,153	0,195	0,091
-560,758	57,789	-0,041	0,030
-559,744	-160,585	-0,080	-0,003
-558,729	89,669	0,103	0,084
-557,715	-65,384	-0,069	0,020
-556,700	383,894	-0,034	-0,052
-555,685	-14,522	-0,121	0,057
-554,671	-26,839	-0,134	-0,057
-553,656	260,740	-0,036	0,046
-552,642	-200,000	-0,006	0,059
-551,627	800,000	0,017	-0,037
-550,612	175,269	-0,036	0,038
-549,598	-71,393	0,153	-0,042
-548,583	160,757	-0,075	-0,077
-547,569	800,000	0,072	-0,163
-546,554	800,000	0,053	0,114
-545,539	-200,000	0,041	0,139
-544,525	-151,418	0,163	-0,009
-543,510	-200,000	-0,018	-0,067
-542,496	-185,208	-0,031	0,000
-541,481	5,302	-0,061	-0,033
-540,466	458,403	0,069	0,112
-539,452	-84,323	-0,095	-0,022
-538,437	132,526	-0,052	-0,049
-537,423	371,460	0,052	-0,077
-536,408	4,520	-0,140	0,075
-535,393	-200,000	-0,006	0,113
-534,379	400,451	0,035	-0,055
-533,364	-200,000	-0,004	-0,037
-532,350	90,795	0,045	0,037
-531,335	-186,264	-0,058	0,001
-530,321	215,826	-0,007	-0,008
-529,306	-200,000	0,010	-0,040
-528,291	156,442	-0,127	-0,128
-527,277	-56,356	-0,006	0,002
-526,262	-200,000	-0,014	0,101
-525,248	455,272	-0,037	0,061
-524,233	62,202	0,059	0,043
-523,218	-200,000	-0,008	-0,053
-522,204	-18,656	0,025	0,011
-521,189	-101,645	0,054	-0,009
-520,175	-20,922	-0,054	-0,024
-519,160	242,999	-0,038	-0,047
-518,145	344,967	0,086	0,124
-517,131	28,109	0,087	0,054
-516,116	-200,000	0,034	0,295
-515,102	317,649	-0,056	-0,078
-514,087	-71,788	-0,098	0,026
-513,072	-71,151	-0,167	-0,045
-512,058	47,029	-0,053	0,036
-511,043	-54,610	-0,100	-0,033
-510,029	13,566	0,126	0,071
-509,014	-69,904	0,122	-0,034
-507,999	-49,196	0,123	-0,043
-506,985	800,000	-0,031	-0,085
-505,970	399,539	-0,058	-0,089
-504,956	800,000	-0,072	-0,191
-503,941	93,647	-0,089	-0,074
-502,926	464,162	0,072	0,118
-501,912	-200,000	-0,028	0,103
-500,897	345,282	0,074	0,107
-499,883	35,407	0,054	0,034
-498,868	80,006	-0,129	-0,101
-497,853	-24,759	-0,083	-0,036
-496,839	493,846	-0,035	-0,060
-495,824	60,172	0,154	-0,111
-494,810	-7,992	-0,152	0,075
-493,795	800,000	0,035	0,081
-492,781	-30,914	0,059	0,024
-491,766	27,843	0,082	-0,051
-490,751	-200,000	0,001	0,018
-489,737	-200,000	-0,008	-0,094
-488,722	-200,000	-0,007	-0,046
-487,708	105,837	0,031	0,026
-486,693	-61,993	0,039	0,012
-485,678	-200,000	0,018	-0,067
-484,664	-48,433	-0,044	-0,015
-483,649	800,000	-0,042	0,130
-482,635	-200,000	-0,008	-0,135
-481,620	-43,159	0,075	0,028
-480,605	-16,018	-0,130	0,060
-479,591	-200,000	-0,004	0,057
-478,576	161,001	0,037	0,038
-477,562	490,474	-0,041	-0,068
-476,547	800,000	0,023	0,062
-475,532	-200,000	0,025	-0,156
-474,518	800,000	-0,038	-0,091
-473,503	-26,988	0,052	-0,022
-472,489	182,105	-0,083	0,089
-471,474	-181,566	0,181	0,003
-470,459	-141,814	-0,088	-0,006
-469,445	-200,000	0,009	-0,067
-468,430	-135,547	-0,054	0,005
-467,416	800,000	0,009	-0,020
-466,401	63,843	-0,100	0,073
-465,386	154,252	-0,085	0,085
-464,372	-115,122	-0,034	-0,005
-463,357	-200,000	-0,021	0,074
-462,343	-112,718	-0,189	0,027
-461,328	68,135	-0,083	-0,062
-460,313	36,738	0,090	-0,058
-459,299	-200,000	0,003	-0,020
-458,284	124,171	0,132	0,121
-457,270	171,510	0,072	-0,075
-456,255	-21,446	-0,103	-0,046
-455,241	159,531	-0,022	0,023
-454,226	-102,993	0,102	0,017
-453,211	508,910	0,021	0,036
-452,197	-200,000	0,034	0,149
-451,182	-51,745	0,128	-0,043
-450,168	-26,849	-0,025	0,011
-449,153	139,385	-0,084	-0,080
-448,138	-200,000	0,039	-0,132
-447,124	-152,825	-0,112	-0,006
-446,109	-153,662	0,067	-0,003
-445,095	800,000	0,043	0,097
-444,080	-200,000	0,003	-0,030
-443,065	59,810	0,061	-0,044
-442,051	-9,199	0,032	-0,016
-441,036	375,580	-0,077	0,114
-440,022	-75,519	-0,056	-0,014
-439,007	-61,271	0,092	0,028
-437,992	619,177	-0,077	0,141
-436,978	172,621	0,028	-0,029
-435,963	-200,000	0,003	0,051
-434,949	-200,000	0,008	-0,029
-433,934	-1,459	-0,086	-0,044
-432,919	547,122	0,048	-0,084
-431,905	-200,000	-0,044	-0,220
-430,890	-200,000	0,000	-0,123
-429,876	800,000	-0,045	0,106
-428,861	-30,893	0,063	0,026
-427,846	-76,599	0,082	-0,021
-426,832	260,404	-0,109	-0,138
-425,817	-167,570	-0,062	-0,002
-424,803	265,886	-0,096	-0,123
-423,788	235,221	-0,022	-0,026
-422,773	-200,000	0,005	-0,068
-421,759	127,140	0,081	-0,075
-420,744	-200,000	-0,013	-0,072
-419,730	274,497	-0,063	-0,082
-418,715	800,000	-0,070	-0,170
-417,701	-3,735	-0,118	0,060
-416,686	-200,000	-0,004	0,104
-415,671	800,000	0,026	0,079
-414,657	-66,317	-0,154	-0,044
-413,642	50,657	-0,040	0,028
-412,628	-76,937	0,136	-0,034
-411,613	-200,000	-0,029	-0,127
-410,598	-200,000	0,014	0,049
-409,584	-17,370	0,182	-0,083
-408,569	-99,260	0,101	0,018
-407,555	-200,000	-0,002	-0,049
-406,540	-132,399	-0,141	0,013
-405,525	-200,000	-0,007	-0,076
-404,511	73,957	-0,055	0,042
-403,496	211,561	-0,093	-0,106
-402,482	62,380	0,032	-0,023
-401,467	-146,802	0,085	-0,005
-400,452	-200,000	0,006	0,071
-399,438	-148,344	0,084	0,005
-398,423	800,000	-0,072	-0,171
-397,409	800,000	0,035	-0,077
-396,394	-66,541	0,085	-0,024
-395,379	56,661	-0,058	-0,041
-394,365	274,665	0,079	-0,102
-393,350	201,690	-0,085	-0,095
-392,336	-169,995	0,139	-0,004
-391,321	-200,000	-0,016	0,073
-390,306	-28,464	-0,063	0,026
-389,292	-56,947	-0,056	-0,018
-388,277	800,000	0,022	0,069
-387,263	-200,000	-0,007	0,036
-386,248	553,099	-0,040	0,070
-385,233	-200,000	-0,008	-0,031
-384,219	800,000	0,036	0,105
-383,204	-200,000	0,016	-0,101
-382,190	-200,000	-0,034	-0,119
-381,175	800,000	0,008	0,017
-380,160	323,314	0,081	0,113
-379,146	-200,000	0,025	0,112
-378,131	800,000	0,046	-0,102
-377,117	-121,990	0,059	-0,007
-376,102	102,039	-0,073	-0,062
-375,088	-119,511	-0,061	-0,008
-374,073	-200,000	0,004	-0,095
-373,058	-20,546	0,067	-0,030
-372,044	108,320	-0,037	-0,032
-371,029	-33,571	0,078	0,031
-370,015	51,766	-0,051	0,035
-369,000	115,276	-0,078	0,069
-367,985	-200,000	-0,016	-0,094
-366,971	-46,729	0,036	-0,013
-365,956	-200,000	0,128	-0,000
-364,942	186,995	0,024	-0,026
-363,927	-200,000	0,025	-0,145
-362,912	-200,000	0,135	-0,000
-361,898	74,625	-0,024	-0,019
-360,883	-200,000	-0,015	0,059
-359,869	-200,000	0,004	-0,077
-358,854	-67,513	-0,063	-0,018
-357,839	800,000	0,031	0,065
-356,825	200,874	-0,097	0,109
-355,810	-68,629	0,032	-0,009
-354,796	-51,539	0,112	-0,038
-353,781	-200,000	0,009	-0,032
-352,766	165,806	0,023	0,024
-351,752	-76,958	0,076	0,019
-350,737	800,000	0,049	0,110
-349,723	249,562	0,078	0,096
-348,708	206,516	-0,038	-0,042
-347,693	800,000	0,016	-0,033
-346,679	109,698	0,182	-0,158
-345,664	-196,750	-0,041	-0,000
-344,650	35,678	0,066	0,042
-343,635	-157,882	-0,184	-0,008
-342,620	-131,508	0,052	0,005
-341,606	-100,633	0,071	-0,013
-340,591	-200,000	-0,001	0,050
-339,577	29,663	0,087	-0,054
-338,562	38,463	0,046	-0,030
-337,548	60,623	-0,122	0,088
-336,533	800,000	0,064	-0,169
-335,518	-12,185	-0,077	0,037
-334,504	-54,612	-0,052	-0,017
-333,489	-21,872	0,149	0,065
-332,475	78,940	-0,050	0,039
-331,460	800,000	-0,065	0,140
-330,445	-9,329	0,091	-0,044
-329,431	347,029	0,015	-0,021
-328,416	249,967	0,062	-0,077
-327,402	23,776	0,058	-0,035
-326,387	-15,497	0,072	-0,033
-325,372	-169,643	-0,054	-0,001
-324,358	454,072	0,028	0,045
-323,343	52,278	0,020	-0,014
-322,329	557,094	-0,021	0,037
-321,314	-6,236	-0,046	0,023
-320,299	-92,384	0,115	-0,023
-319,285	343,012	0,076	0,108
-318,270	-56,893	-0,182	0,058
-317,256	800,000	0,034	0,094
-316,241	91,306	-0,058	0,047
-315,226	46,085	-0,066	0,045
-314,212	-200,000	0,044	0,148
-313,197	800,000	0,034	0,069
-312,183	34,336	0,098	0,062
-311,168	330,926	-0,069	-0,097
-310,153	-180,990	-0,117	-0,002
-309,139	-47,867	-0,086	0,030
-308,124	40,992	0,056	-0,037
-307,110	291,678	-0,021	0,028
-306,095	-200,000	-0,005	0,132
-305,080	20,888	-0,094	0,055
-304,066	48,951	-0,110	0,075
-303,051	-200,000	-0,018	-0,083
-302,037	83,276	-0,144	-0,114
-301,022	800,000	-0,052	-0,131
-300,008	126,880	-0,045	0,041
-298,993	-200,000	0,032	-0,116
-297,978	22,174	0,114	0,067
-296,964	93,114	-0,115	0,095
-295,949	-86,308	-0,115	-0,025
-294,935	-200,000	0,031	-0,099
-293,920	-200,000	-0,006	0,026
-292,905	624,525	0,033	-0,060
-291,891	-200,000	-0,089	0,000
-290,876	64,604	0,049	0,036
-289,862	19,505	-0,182	-0,106
-288,847	627,351	0,050	-0,092
-287,832	-200,000	-0,020	-0,072
-286,818	-90,674	-0,032	0,007
-285,803	-66,851	-0,070	0,020
-284,789	800,000	0,059	0,183
-283,774	531,471	0,053	0,090
-282,759	-200,000	-0,007	0,087
-281,745	-25,035	-0,036	0,015
-280,730	800,000	0,006	0,017
-279,716	83,695	0,111	-0,087
-278,701	-61,709	0,083	0,025
-277,686	4,690	0,082	0,043
-276,672	-200,000	-0,019	-0,100
-275,657	-146,156	-0,051	0,003
-274,643	293,152	0,047	0,062
-273,628	-13,810	0,011	-0,005
-272,613	303,850	-0,057	-0,076
-271,599	-200,000	0,007	0,151
-270,584	-114,402	0,070	-0,010
-269,570	-29,740	0,064	0,026
-268,555	-112,209	-0,081	0,012
-267,540	-200,000	-0,008	0,040
-266,526	-18,309	-0,039	-0,017
-265,511	-50,735	0,059	-0,020
-264,497	-68,011	0,125	0,035
-263,482	-200,000	0,003	-0,130
-262,467	-7,528	0,082	0,040
-261,453	-178,356	0,121	-0,002
-260,438	6,960	0,037	-0,020
-259,424	327,900	0,047	-0,065
-258,409	261,687	-0,118	0,148
-257,395	286,706	-0,016	-0,021
-256,380	800,000	-0,015	-0,033
-255,365	-200,000	-0,013	-0,089
-254,351	-91,644	0,095	0,019
-253,336	-76,375	0,078	0,020
-252,322	270,596	-0,057	0,072
-251,307	-200,000	0,042	-0,172
-250,292	34,951	0,131	-0,083
-249,278	-110,181	0,133	-0,020
-248,263	333,566	0,080	0,112
-247,249	-200,000	-0,001	-0,037
-246,234	-200,000	-0,024	0,082
-245,219	800,000	-0,017	0,045
-244,205	425,200	-0,013	-0,020
-243,190	-35,131	0,063	0,025
-242,176	-41,747	0,111	-0,041
-241,161	476,893	-0,020	0,033
-240,146	491,030	0,034	0,057
-239,132	-52,312	0,074	0,025
-238,117	312,026	-0,010	-0,013
-237,103	-38,857	-0,193	-0,073
-236,088	737,981	-0,061	-0,118
-235,073	190,737	-0,021	0,023
-234,059	52,471	-0,067	0,046
-233,044	-200,000	0,005	0,044
-232,030	-119,046	-0,049	-0,006
-231,015	-101,978	-0,160	-0,028
-230,000	-162,545	-0,025	0,001
-228,986	238,566	0,118	-0,142
-227,971	481,369	0,067	-0,110
-226,957	-9,828	0,079	0,038
-225,942	-140,110	0,076	-0,006
-224,927	-155,509	-0,018	0,001
-223,913	800,000	-0,027	-0,057
-222,898	721,841	-0,046	0,089
-221,884	206,452	0,038	-0,043
-220,869	-200,000	0,030	0,211
-219,855	-200,000	0,021	0,222
-218,840	-200,000	-0,031	0,202
-217,825	-200,000	0,018	-0,069
-216,811	204,624	0,086	0,097
-215,796	-42,800	-0,099	-0,036
-214,782	-200,000	0,007	0,132
-213,767	109,108	0,063	0,054
-212,752	153,087	-0,066	-0,065
-211,738	369,600	0,010	-0,015
-210,723	252,216	0,039	0,047
-209,709	95,405	0,030	0,025
-208,694	-200,000	0,003	0,037
-207,679	-200,000	-0,017	-0,093
-206,665	-200,000	0,001	0,027
-205,650	103,736	-0,035	0,030
-204,636	-200,000	-0,020	0,105
-203,621	-200,000	0,001	-0,043
-202,606	-56,548	-0,104	-0,033
-201,592	-9,140	-0,036	0,017
-200,577	11,512	-0,147	-0,081
-199,563	-200,000	0,028	0,099
-198,548	800,000	0,038	0,107
-197,533	-73,316	-0,110	-0,029
-196,519	574,376	0,033	0,059
-195,504	-105,600	0,074	-0,012
-194,490	-200,000	-0,009	-0,086
-193,475	-83,972	-0,097	0,022
-192,460	6,503	-0,144	-0,077
-191,446	-200,000	0,007	0,105
-190,431	-200,000	0,029	-0,097
-189,417	800,000	0,024	-0,066
-188,402	-200,000	-0,033	-0,175
-187,387	800,000	0,025	-0,078
-186,373	-200,000	-0,010	-0,097
-185,358	-41,032	0,064	-0,024
-184,344	800,000	0,044	-0,117
-183,329	-200,000	-0,012	0,142
-182,315	-200,000	-0,002	0,019
-181,300	621,156	-0,085	-0,156
-180,285	460,113	-0,036	-0,059
-179,271	6,590	-0,037	-0,020
-178,256	-200,000	0,015	-0,056
-177,242	-103,096	-0,113	0,019
-176,227	-200,000	0,002	0,128
-175,212	-165,955	-0,064	-0,002
-174,198	7,734	-0,158	0,085
-173,183	-141,043	0,134	0,010
-172,169	47,245	0,051	-0,034
-171,154	-115,377	-0,058	-0,008
-170,139	-23,712	0,102	-0,044
-169,125	217,218	0,077	0,089
-168,110	800,000	0,033	0,084
-167,096	-200,000	-0,012	0,082
-166,081	-200,000	-0,010	0,093
-165,066	200,902	0,016	0,018
-164,052	-200,000	0,009	-0,152
-163,037	126,193	0,141	-0,129
-162,023	-197,229	0,087	0,000
-161,008	198,854	0,038	0,042
-159,993	140,963	0,042	-0,040
-158,979	155,159	-0,071	-0,071
-157,964	229,933	0,043	-0,050
-156,950	104,677	-0,033	-0,028
-155,935	-126,601	-0,048	0,005
-154,920	-3,507	0,058	-0,029
-153,906	116,064	-0,063	-0,056
-152,891	-200,000	-0,020	0,069
-151,877	134,384	-0,081	-0,076
-150,862	800,000	0,037	-0,079
-149,847	5,609	-0,119	0,063
-148,833	-101,173	0,059	-0,010
-147,818	-164,593	0,053	0,002
-146,804	-16,173	0,084	0,038
-145,789	-113,831	0,038	0,005
-144,775	314,660	-0,070	-0,095
-143,760	666,491	-0,079	0,147
-142,745	-158,701	-0,095	-0,004
-141,731	193,116	0,079	-0,086
-140,716	209,338	-0,081	0,091
-139,702	800,000	0,055	-0,118
-138,687	-200,000	-0,011	0,087
-137,672	-200,000	0,003	0,031
-136,658	-200,000	-0,022	-0,081
-135,643	-66,382	0,056	0,016
-134,629	-24,756	0,065	-0,028
-133,614	-62,529	0,043	-0,013
-132,599	76,741	0,045	-0,035
-131,585	268,733	0,083	-0,106
-130,570	54,547	-0,061	-0,042
-129,556	-35,501	-0,067	0,026
-128,541	324,656	0,046	-0,064
-127,526	800,000	-0,056	0,147
-126,512	19,587	0,044	-0,026
-125,497	-53,115	0,093	0,030
-124,483	-200,000	0,001	0,066
-123,468	-116,212	-0,098	-0,013
-122,453	-200,000	-0,024	-0,084
-121,439	-51,114	-0,064	-0,021
-120,424	-35,387	0,117	-0,045
-119,410	800,000	-0,025	-0,054
-118,395	-130,709	0,091	0,009
-117,380	800,000	0,023	0,071
-116,366	-87,842	-0,147	0,032
-115,351	-123,953	0,070	0,008
-114,337	-119,915	-0,154	-0,019
-113,322	-200,000	0,005	-0,052
-112,307	95,968	0,008	-0,007
-111,293	-200,000	-0,002	0,063
-110,278	800,000	-0,023	0,061
-109,264	-147,304	-0,119	-0,007
-108,249	800,000	-0,038	-0,115
-107,234	-200,000	0,002	-0,099
-106,220	800,000	-0,064	-0,156
-105,205	221,113	-0,030	0,034
-104,191	-179,724	0,027	-0,000
-103,176	-200,000	-0,003	-0,018
-102,162	37,629	0,070	-0,045
-101,147	800,000	-0,047	0,112
-100,132	-200,000	-0,008	-0,050
-99,118	800,000	-0,002	0,006
-98,103	13,251	-0,020	0,011
-97,089	-200,000	-0,011	0,069
-96,074	-2,522	0,073	0,036
-95,059	-200,000	0,002	-0,097
-94,045	60,892	-0,114	0,081
-93,030	-200,000	-0,028	-0,117
-92,016	-200,000	-0,001	0,076
-91,001	555,603	-0,043	0,075
-89,986	207,754	-0,100	0,113
-88,972	800,000	0,077	0,189
-87,957	-200,000	-0,001	-0,134
-86,943	-154,196	-0,108	0,005
-85,928	434,621	-0,073	-0,115
-84,913	-45,549	-0,157	-0,056
-83,899	-185,732	-0,115	0,001
-82,884	149,200	0,052	-0,051
-81,870	-171,187	0,110	0,003
-80,855	544,631	0,006	-0,011
-79,840	143,817	-0,041	0,039
-78,826	800,000	-0,058	0,118
-77,811	238,775	-0,024	-0,029
-76,797	-200,000	0,011	0,060
-75,782	800,000	0,020	0,056
-74,767	175,740	-0,060	-0,063
-73,753	272,068	-0,035	-0,044
-72,738	15,110	0,135	-0,076
-71,724	-0,594	-0,078	0,040
-70,709	-162,752	-0,180	0,006
-69,694	149,403	-0,093	-0,090
-68,680	-71,705	-0,076	-0,020
-67,665	69,846	0,092	0,068
-66,651	-137,956	0,109	0,009
-65,636	617,709	-0,033	0,061
-64,622	172,765	-0,052	-0,054
-63,607	-200,000	-0,022	0,100
-62,592	800,000	0,052	-0,106
-61,578	155,080	0,038	-0,038
-60,563	-200,000	0,007	0,096
-59,549	800,000	-0,049	0,125
-58,534	37,754	-2,045	-1,301
-57,519	435,752	-1,187	-1,860
-56,505	-200,000	-0,303	-4,179
-55,490	674,259	0,674	1,261
-54,476	800,000	5,315	11,596
-53,461	-200,000	21,520	344,244
-52,446	800,000	762,292	2366,035
-51,432	533,439	1663,883	2839,335
-50,417	73,648	1579,724	1186,594
-49,403	22,986	1090,575	640,342
-48,388	13,821	764,894	425,560
-47,373	27,414	724,956	436,335
-46,359	20,086	710,127	410,016
-45,344	9,900	705,814	383,296
-44,330	9,705	704,217	381,948
-43,315	9,659	702,956	381,139
-42,300	9,583	701,905	380,374
-41,286	9,688	701,227	380,240
-40,271	9,545	700,512	379,500
-39,257	9,650	699,556	379,214
-38,242	9,720	698,596	378,845
-37,227	9,713	697,772	378,366
-36,213	9,676	697,071	377,883
-35,198	9,689	696,101	377,373
-34,184	9,795	695,886	377,492
-33,169	9,655	694,967	376,649
-32,154	9,833	694,374	376,731
-31,140	9,773	693,021	375,841
-30,125	9,867	692,442	375,733
-29,111	9,761	692,146	375,308
-28,096	9,732	691,797	375,035
-27,082	9,703	691,547	374,819
-26,067	9,755	690,706	374,468
-25,052	9,653	690,239	373,963
-24,038	9,679	689,477	373,597
-23,023	9,641	689,095	373,285
-22,009	9,848	688,323	373,334
-20,994	9,708	687,549	372,573
-19,979	9,785	687,054	372,469
-18,965	9,792	686,663	372,260
-17,950	9,871	686,155	372,153
-16,936	9,722	685,769	371,582
-15,921	9,769	685,342	371,445
-14,906	9,807	684,254	370,928
-13,892	9,734	683,917	370,564
-12,877	9,716	683,402	370,227
-11,863	9,719	683,198	370,108
-10,848	9,590	683,012	369,697
-9,833	9,767	682,571	369,850
-8,819	9,670	681,852	369,222
-7,804	9,738	681,064	368,940
-6,790	9,762	680,727	368,796
-5,775	9,727	680,649	368,659
-4,760	9,720	679,929	368,238
-3,746	9,650	679,675	367,926
-2,731	9,452	679,370	367,292
-1,717	9,535	678,831	367,176
-0,702	9,546	678,127	366,805
0,313	9,682	674,322	365,610
1,327	13,615	647,799	359,802
2,342	22,097	519,965	303,584
3,356	15,472	287,998	161,733
4,371	-14,987	193,484	88,592
5,386	-18,054	182,283	81,538
6,400	-18,189	178,727	79,858
7,415	-17,532	177,169	79,554
8,429	-18,490	176,489	78,661
9,444	-18,191	175,629	78,451
10,459	-18,290	175,381	78,274
11,473	-17,961	174,887	78,244
12,488	-17,912	174,593	78,135
13,502	-18,120	174,046	77,759
14,517	-17,941	173,810	77,753
15,531	-18,223	173,482	77,431
16,546	-18,154	173,227	77,352
17,561	-18,123	172,900	77,217
18,575	-17,842	172,737	77,304
19,590	-18,006	172,326	77,017
20,604	-17,919	172,400	77,094
21,619	-18,005	171,985	76,851
22,634	-17,723	171,427	76,760
23,648	-18,035	171,435	76,573
24,663	-17,901	171,205	76,543
25,677	-17,966	171,244	76,515
26,692	-17,737	170,978	76,524
27,707	-17,873	170,760	76,340
28,721	-17,836	170,615	76,289
29,736	-18,196	170,415	75,984
30,750	-17,960	170,210	76,023
31,765	-18,259	170,043	75,767
32,780	-17,885	169,830	75,883
33,794	-17,764	169,592	75,841
34,809	-17,817	169,487	75,756
35,823	-17,739	169,310	75,715
36,838	-17,785	169,039	75,561
37,853	-17,766	168,922	75,512
38,867	-18,098	168,858	75,286
39,882	-17,941	168,683	75,291
40,896	-17,766	168,628	75,361
41,911	-17,924	168,491	75,202
42,926	-18,018	168,328	75,068
43,940	-17,656	167,870	75,065
44,955	-18,060	167,853	74,819
45,969	-17,673	167,650	74,944
46,984	-17,869	167,619	74,811
47,999	-17,796	167,581	74,829
49,013	-17,461	167,249	74,865
50,028	-17,438	167,190	74,846
51,042	-17,621	166,981	74,641
52,057	-17,390	166,902	74,731
53,071	-17,655	166,515	74,400
54,086	-17,497	166,478	74,467
55,101	-17,777	166,504	74,312
56,115	-17,910	166,273	74,127
57,130	-17,883	165,902	73,970
58,144	-18,353	165,861	73,679
59,159	-18,483	165,469	73,425
60,174	-18,201	165,389	73,543
61,188	-18,159	165,344	73,540
62,203	-17,915	165,161	73,589
63,217	-18,009	165,038	73,475
64,232	-18,016	164,831	73,372
65,247	-18,390	164,633	73,068
66,261	-18,368	164,539	73,032
67,276	-17,987	164,477	73,212
68,290	-17,906	164,357	73,197
69,305	-17,987	164,247	73,096
70,320	-17,917	164,042	73,037
71,334	-17,972	163,937	72,953
72,349	-18,238	163,684	72,686
73,363	-17,987	163,485	72,731
74,378	-18,272	163,278	72,474
75,393	-18,254	163,201	72,443
76,407	-18,034	163,045	72,490
77,422	-18,116	162,892	72,370
78,436	-18,100	162,838	72,348
79,451	-18,028	162,599	72,276
80,466	-17,796	162,415	72,315
81,480	-17,691	162,309	72,320
82,495	-17,818	162,229	72,207
83,509	-17,860	162,234	72,180
84,524	-17,646	162,063	72,216
85,539	-17,956	162,023	72,020
86,553	-17,700	161,867	72,086
87,568	-17,821	161,636	71,910
88,582	-17,939	161,382	71,726
89,597	-18,026	161,421	71,689
90,611	-18,049	161,252	71,595
91,626	-17,905	161,148	71,621
92,641	-17,666	160,867	71,621
93,655	-17,558	160,691	71,595
94,670	-17,752	160,760	71,513
95,684	-17,995	160,527	71,270
96,699	-17,709	160,370	71,351
97,714	-17,814	160,330	71,269
98,728	-17,538	160,199	71,355
99,743	-17,851	160,106	71,137
100,757	-17,728	159,992	71,146
101,772	-17,821	159,721	70,969
102,787	-17,839	159,563	70,883
103,801	-17,663	159,461	70,927
104,816	-17,819	159,343	70,783
105,830	-17,892	159,200	70,674
106,845	-17,908	159,015	70,577
107,860	-18,046	158,974	70,478
108,874	-17,972	158,785	70,428
109,889	-17,742	158,500	70,419
110,903	-17,897	158,442	70,303
111,918	-17,704	158,451	70,405
112,933	-17,767	158,310	70,302
113,947	-17,673	158,186	70,291
114,962	-17,982	158,091	70,077
115,976	-17,814	157,871	70,063
116,991	-18,058	157,849	69,916
118,006	-17,706	157,638	70,005
119,020	-17,853	157,564	69,888
120,035	-17,743	157,542	69,931
121,049	-17,616	157,288	69,879
122,064	-17,993	157,196	69,631
123,079	-17,655	157,092	69,759
124,093	-17,663	156,872	69,650
125,108	-17,788	156,767	69,531
126,122	-17,559	156,702	69,619
127,137	-17,539	156,743	69,640
128,151	-17,559	156,373	69,460
129,166	-17,558	156,365	69,450
130,181	-17,536	156,075	69,327
131,195	-17,678	156,021	69,221
132,210	-18,032	156,008	69,022
133,224	-18,156	155,753	68,838
134,239	-17,829	155,603	68,938
135,254	-17,919	155,479	68,829
136,268	-18,036	155,463	68,754
137,283	-17,648	155,261	68,863
138,297	-17,724	155,148	68,767
139,312	-18,002	154,831	68,474
140,327	-18,793	154,583	67,944
141,341	-18,597	154,448	67,981
142,356	-18,816	154,397	67,838
143,370	-17,923	154,737	68,450
144,385	-11,018	156,203	72,745
145,400	-3,778	157,448	77,169
146,414	-2,017	157,671	78,207
147,429	-1,897	157,810	78,333
148,443	-1,858	157,782	78,333
149,458	-1,521	157,445	78,337
150,473	-1,289	157,458	78,460
151,487	-1,362	157,414	78,392
152,502	-1,008	157,245	78,488
153,516	-1,362	157,187	78,265
154,531	-0,898	157,080	78,450
155,546	-1,105	156,907	78,247
156,560	-1,143	156,858	78,196
157,575	-0,818	156,682	78,272
158,589	-0,869	156,551	78,173
159,604	-1,193	156,526	77,983
160,619	-1,328	156,399	77,842
161,633	-0,744	156,331	78,108
162,648	-0,936	156,175	77,922
163,662	-0,610	156,076	78,037
164,677	-0,607	156,057	78,022
165,692	-0,782	155,910	77,850
166,706	-0,553	155,629	77,822
167,721	-0,950	155,694	77,640
168,735	-0,400	155,624	77,886
169,750	-0,574	155,401	77,676
170,764	-0,777	155,387	77,556
171,779	-0,503	155,297	77,647
172,794	-0,786	155,205	77,447
173,808	-0,463	155,001	77,507
174,823	-0,718	155,030	77,382
175,837	-0,766	154,876	77,273
176,852	-0,635	154,703	77,248
177,867	-0,707	154,620	77,162
178,881	-0,552	154,586	77,219
179,896	-0,590	154,462	77,130
180,910	-0,384	154,332	77,165
181,925	-0,539	154,146	76,985
182,940	-0,693	154,117	76,883
183,954	-0,509	153,956	76,891
184,969	-0,761	153,880	76,717
185,983	-0,430	153,775	76,828
186,998	-0,768	153,739	76,629
188,013	-0,889	153,684	76,532
189,027	-0,807	153,458	76,456
190,042	-0,505	153,386	76,568
191,056	-0,903	153,288	76,308
192,071	-0,368	153,186	76,525
193,086	-0,850	153,026	76,191
194,100	-0,667	152,962	76,246
195,115	-0,085	152,811	76,462
196,129	-0,514	152,638	76,149
197,144	-0,572	152,534	76,061
198,159	-0,666	152,497	75,988
199,173	-0,236	152,350	76,127
200,188	-0,413	152,331	76,020
201,202	-0,210	152,169	76,037
202,217	-0,301	152,049	75,923
203,232	-0,336	151,836	75,792
204,246	-0,509	151,893	75,726
205,261	-0,335	151,737	75,730
206,275	-0,296	151,497	75,623
207,290	-0,175	151,476	75,668
208,304	-0,073	151,423	75,686
209,319	-0,380	151,353	75,488
210,334	-0,511	151,140	75,309
211,348	-0,623	151,153	75,252
212,363	-0,003	150,815	75,390
213,377	-0,489	150,801	75,131
214,392	-0,423	150,792	75,154
215,407	0,083	150,620	75,316
216,421	-0,134	150,532	75,156
217,436	-0,096	150,348	75,076
218,450	0,015	150,388	75,146
219,465	-0,367	150,228	74,867
220,480	-0,303	150,150	74,854
221,494	-0,309	150,043	74,791
222,509	-0,282	149,961	74,757
223,523	0,009	149,918	74,874
224,538	-0,145	149,737	74,700
225,553	0,072	149,503	74,685
226,567	-0,078	149,576	74,640
227,582	-0,152	149,425	74,521
228,596	-0,036	149,440	74,580
229,611	0,286	149,235	74,631
230,626	-0,070	149,149	74,405
231,640	-0,332	149,113	74,249
232,655	-0,477	149,100	74,164
233,669	-0,023	148,769	74,218
234,684	0,119	148,853	74,324
235,699	0,051	148,655	74,185
236,713	0,000	148,624	74,137
237,728	-0,195	148,514	73,980
238,742	0,045	148,421	74,045
239,757	-0,022	148,205	73,898
240,772	0,058	148,100	73,878
241,786	-0,053	147,976	73,755
242,801	0,056	147,874	73,752
243,815	0,056	148,044	73,829
244,830	0,167	147,840	73,776
245,844	0,028	147,644	73,604
246,859	0,091	147,492	73,552
247,874	0,306	147,394	73,602
248,888	0,271	147,303	73,533
249,903	0,360	147,204	73,521
250,917	0,267	147,274	73,504
251,932	0,051	147,216	73,362
252,947	0,201	146,847	73,245
253,961	0,064	146,819	73,158
254,976	0,172	146,722	73,155
255,990	0,232	146,641	73,138
257,005	0,069	146,753	73,107
258,020	0,249	146,603	73,114
259,034	0,224	146,390	72,990
260,049	0,207	146,412	72,986
261,063	0,346	146,177	72,930
262,078	0,148	146,049	72,763
263,093	0,421	145,966	72,848
264,107	0,464	145,820	72,789
265,122	0,319	145,875	72,739
266,136	0,422	145,624	72,658
267,151	0,335	145,649	72,622
268,166	0,470	145,538	72,625
269,180	0,625	145,303	72,576
270,195	0,361	145,312	72,447
271,209	-0,147	145,274	72,176
272,224	0,771	145,143	72,547
273,239	0,765	144,959	72,447
274,253	0,269	144,973	72,208
275,268	0,192	144,906	72,131
276,282	0,292	144,730	72,085
277,297	0,362	144,656	72,075
278,312	0,247	144,638	72,004
279,326	0,527	144,547	72,087
280,341	0,651	144,454	72,094
281,355	0,481	144,394	71,976
282,370	0,556	144,180	71,899
283,384	0,714	144,014	71,886
284,399	0,335	144,077	71,729
285,414	0,382	144,100	71,757
286,428	0,134	144,032	71,597
287,443	0,289	143,778	71,539
288,457	0,698	143,661	71,669
289,472	0,572	143,558	71,551
290,487	0,173	143,512	71,333
291,501	0,135	143,397	71,250
292,516	0,351	143,271	71,285
293,530	0,600	143,280	71,401
294,545	0,405	143,243	71,283
295,560	0,661	142,942	71,249
296,574	0,504	142,813	71,103
297,589	0,650	142,675	71,098
298,603	0,387	142,713	70,986
299,618	0,536	142,548	70,968
300,633	0,587	142,551	70,987
301,647	0,819	142,527	71,078
302,662	0,683	142,336	70,913
303,676	0,767	142,201	70,879
304,691	0,699	142,212	70,846
305,706	0,825	141,908	70,747
306,720	0,627	142,064	70,726
307,735	0,429	142,038	70,613
308,749	0,673	141,838	70,622
309,764	0,779	141,685	70,590
310,779	0,508	141,561	70,394
311,793	0,574	141,591	70,434
312,808	0,545	141,321	70,280
313,822	0,565	141,317	70,281
314,837	0,352	141,310	70,171
315,852	0,881	141,203	70,360
316,866	0,681	141,038	70,178
317,881	0,848	140,874	70,167
318,895	0,824	140,797	70,112
319,910	0,551	140,777	69,969
320,925	0,757	140,661	70,000
321,939	0,835	140,648	70,024
322,954	0,912	140,494	69,977
323,968	0,877	140,316	69,866
324,983	0,666	140,283	69,745
325,997	0,761	140,246	69,764
327,012	0,522	140,053	69,552
328,027	0,861	140,138	69,745
329,041	0,834	140,018	69,666
330,056	0,700	139,855	69,517
331,070	0,957	139,758	69,581
332,085	0,904	139,529	69,436
333,100	0,826	139,559	69,409
334,114	0,975	139,426	69,406
335,129	0,883	139,316	69,302
336,143	0,866	139,257	69,259
337,158	0,914	139,204	69,249
338,173	0,835	139,135	69,172
339,187	1,204	138,933	69,234
340,202	1,257	138,860	69,216
341,216	1,096	138,812	69,113
342,231	1,113	138,660	69,038
343,246	0,967	138,563	68,917
344,260	0,966	138,631	68,944
345,275	1,072	138,556	68,949
346,289	0,942	138,595	68,903
347,304	0,995	138,420	68,834
348,319	1,030	138,349	68,808
349,333	1,132	138,148	68,750
350,348	1,121	138,135	68,732
351,362	1,344	137,920	68,720
352,377	0,951	137,841	68,495
353,392	1,234	137,842	68,619
354,406	1,257	137,654	68,530
355,421	194,934	1320,315	1395,163
356,435	153,539	1464,886	1395,661
