DTS Sentinel unit serial number:	SN410029Multiplexer serial number:	ORYXHardware model number:	OX2-SRSoftware version number:	ORYX F/W v4,00 Oryx Data Collector v3.7.2.0data status	okinstallation	B3 Nyhavnadifferential loss correction	single-endedforward channel	channel 1reverse channel	N/Adate	2023/11/28time	14:47:30forward acquisition time	300,00reverse acquisition time	0,00gamma	499,1914k internal	0,3154k external	0,3154temperature offset calibration	1,0000default loss term (dB/km)	0,3820temperature slope calibration	1,0000multiplexer offset coefficient	1,0000multiplexer slope coefficient	1,0000fibre end	0,00T internal ref (°C)	7,37T ext. ref 1 (°C)	-7,80T ext. ref 2 (°C)	-7,96length (m)	temperature (°C)	Stokes	anti-Stokes-744,400	-22,401	-0,198	-0,088
-743,385	-200,000	0,027	0,202
-742,371	441,240	-0,165	-0,268
-741,356	-200,000	-0,047	0,268
-740,342	-200,000	-0,042	-0,152
-739,327	-200,000	-0,034	0,230
-738,312	-44,039	-0,187	-0,069
-737,298	-200,000	-0,021	0,328
-736,283	-200,000	-0,079	-0,300
-735,269	-200,000	0,075	0,266
-734,254	13,141	-0,210	-0,120
-733,239	-153,679	-0,277	0,014
-732,225	800,000	-0,068	-0,155
-731,210	231,460	0,164	0,199
-730,196	34,362	-0,083	-0,053
-729,181	-100,610	0,101	0,018
-728,167	-200,000	-0,012	0,161
-727,152	101,807	0,134	0,115
-726,137	482,924	-0,058	0,097
-725,123	-125,821	-0,048	-0,005
-724,108	24,599	-0,128	-0,078
-723,094	89,527	-0,024	0,020
-722,079	352,795	0,049	-0,072
-721,064	-200,000	-0,005	0,035
-720,050	273,489	0,051	0,066
-719,035	-200,000	0,020	-0,134
-718,021	-28,955	-0,104	-0,044
-717,006	393,696	-0,062	-0,095
-715,991	11,675	-0,132	0,074
-714,977	-162,377	-0,021	0,001
-713,962	800,000	0,020	0,058
-712,948	-200,000	0,030	-0,176
-711,933	199,285	-0,021	-0,023
-710,918	-102,981	0,073	0,013
-709,904	-200,000	0,010	-0,110
-708,889	800,000	0,038	-0,114
-707,875	157,587	-0,076	-0,078
-706,860	800,000	-0,075	-0,162
-705,845	133,514	0,026	-0,025
-704,831	-49,801	0,156	-0,054
-703,816	800,000	-0,046	-0,100
-702,802	-52,209	-0,049	0,017
-701,787	-120,640	-0,064	-0,008
-700,772	420,818	-0,094	-0,149
-699,758	15,317	0,049	-0,028
-698,743	800,000	-0,030	0,071
-697,729	-200,000	0,039	-0,134
-696,714	-82,886	-0,076	-0,018
-695,699	-71,604	-0,108	-0,030
-694,685	800,000	0,014	-0,038
-693,670	58,417	-0,062	-0,045
-692,656	-128,302	-0,025	-0,003
-691,641	-108,883	0,033	0,005
-690,627	800,000	-0,034	-0,096
-689,612	800,000	-0,051	0,124
-688,597	-47,879	-0,050	-0,018
-687,583	-59,536	-0,149	-0,047
-686,568	-106,884	0,082	0,013
-685,554	800,000	0,034	-0,095
-684,539	800,000	0,043	0,124
-683,524	800,000	0,051	0,122
-682,510	162,352	0,063	0,065
-681,495	-85,793	-0,171	0,039
-680,481	-62,397	-0,084	-0,025
-679,466	-137,556	-0,016	-0,001
-678,451	23,019	0,027	0,016
-677,437	64,784	0,043	0,032
-676,422	83,407	-0,063	0,051
-675,408	291,012	0,099	0,133
-674,393	-47,703	-0,054	0,019
-673,378	-31,617	0,041	-0,017
-672,364	-200,000	-0,028	-0,161
-671,349	-200,000	-0,001	-0,076
-670,335	-72,377	0,035	-0,009
-669,320	-200,000	0,023	0,103
-668,305	-200,000	-0,029	0,133
-667,291	-98,402	-0,046	0,009
-666,276	-200,000	0,015	-0,088
-665,262	-87,899	0,026	-0,006
-664,247	-87,681	0,128	-0,028
-663,232	739,903	-0,015	0,030
-662,218	341,143	0,061	0,088
-661,203	800,000	0,057	0,142
-660,189	-20,694	-0,038	0,017
-659,174	72,161	-0,063	-0,048
-658,159	752,434	0,009	-0,017
-657,145	-41,932	0,093	0,035
-656,130	-102,381	-0,020	0,003
-655,116	34,149	0,111	0,071
-654,101	-200,000	0,059	0,194
-653,086	190,859	-0,147	0,163
-652,072	-200,000	0,004	-0,102
-651,057	4,673	-0,068	0,037
-650,043	494,134	0,036	0,062
-649,028	-200,000	-0,021	-0,088
-648,014	800,000	0,008	0,019
-646,999	300,921	0,029	0,039
-645,984	88,514	0,046	0,038
-644,970	800,000	-0,040	0,101
-643,955	188,871	-0,068	-0,075
-642,941	244,019	0,025	-0,031
-641,926	471,712	-0,049	-0,081
-640,911	94,874	0,052	-0,043
-639,897	-200,000	0,014	0,099
-638,882	-27,389	0,012	-0,005
-637,868	581,131	0,065	-0,117
-636,853	-200,000	-0,023	-0,078
-635,838	-59,813	-0,121	-0,038
-634,824	191,462	0,013	0,014
-633,809	-200,000	-0,021	-0,113
-632,795	552,361	-0,042	0,074
-631,780	16,355	-0,007	-0,004
-630,765	178,433	-0,071	-0,077
-629,751	-143,618	-0,024	0,002
-628,736	800,000	-0,069	-0,210
-627,722	18,842	0,083	-0,049
-626,707	477,296	0,086	0,144
-625,692	-60,030	0,121	0,038
-624,678	-200,000	-0,038	0,200
-623,663	-200,000	0,002	0,052
-622,649	284,653	-0,149	-0,197
-621,634	64,386	0,085	-0,063
-620,619	180,331	-0,123	-0,133
-619,605	-165,006	-0,061	-0,002
-618,590	-160,963	0,098	-0,004
-617,576	144,423	0,050	0,049
-616,561	800,000	-0,051	0,117
-615,546	66,826	-0,148	0,110
-614,532	89,201	0,013	-0,010
-613,517	183,742	0,038	0,041
-612,503	180,362	0,146	0,157
-611,488	257,908	0,021	-0,026
-610,474	-200,000	-0,008	0,055
-609,459	-200,000	0,025	0,282
-608,444	-8,296	0,031	0,015
-607,430	-89,091	-0,125	-0,027
-606,415	-123,257	-0,123	-0,014
-605,401	9,826	0,097	0,054
-604,386	57,444	-0,004	0,003
-603,371	800,000	0,014	0,041
-602,357	776,410	0,046	-0,092
-601,342	-200,000	-0,002	-0,028
-600,328	800,000	0,019	-0,050
-599,313	-30,148	0,080	0,033
-598,298	-33,076	0,036	-0,015
-597,284	46,558	-0,046	-0,032
-596,269	276,316	-0,073	0,095
-595,255	5,977	0,073	0,039
-594,240	-61,326	0,054	0,017
-593,225	26,445	0,146	-0,090
-592,211	15,916	-0,091	0,052
-591,196	49,661	0,078	0,054
-590,182	-200,000	0,021	-0,121
-589,167	800,000	-0,051	0,151
-588,152	358,725	0,047	0,069
-587,138	-17,611	-0,161	0,074
-586,123	260,206	0,028	0,035
-585,109	-90,649	-0,057	-0,012
-584,094	241,037	-0,039	-0,047
-583,079	-126,135	-0,074	-0,008
-582,065	46,306	0,126	0,086
-581,050	-43,552	-0,091	0,034
-580,036	-200,000	-0,004	-0,017
-579,021	40,790	-0,067	-0,044
-578,006	-51,501	-0,084	-0,029
-576,992	-159,805	-0,030	0,001
-575,977	-51,588	0,191	-0,065
-574,963	-200,000	-0,007	0,032
-573,948	-58,077	-0,059	0,019
-572,934	-200,000	0,019	-0,152
-571,919	133,463	-0,017	-0,016
-570,904	-56,223	-0,092	0,030
-569,890	-87,208	0,062	-0,014
-568,875	-38,470	0,054	-0,021
-567,861	175,389	0,034	0,036
-566,846	-66,207	0,045	-0,013
-565,831	800,000	-0,005	-0,014
-564,817	-23,927	-0,075	-0,033
-563,802	144,696	0,049	0,048
-562,788	-53,021	0,108	-0,036
-561,773	93,517	0,058	0,048
-560,758	48,170	-0,116	0,080
-559,744	112,666	0,066	0,059
-558,729	-200,000	-0,002	0,018
-557,715	98,188	-0,119	-0,100
-556,700	-28,482	0,102	-0,043
-555,685	800,000	-0,024	0,051
-554,671	771,054	-0,061	0,123
-553,656	-200,000	0,002	0,069
-552,642	-181,852	0,237	0,003
-551,627	-200,000	-0,000	-0,044
-550,612	-126,870	-0,032	0,003
-549,598	151,482	-0,061	-0,061
-548,583	800,000	-0,030	-0,071
-547,569	-200,000	0,006	-0,022
-546,554	37,463	-0,072	-0,047
-545,539	-170,714	0,102	-0,003
-544,525	277,735	-0,087	0,114
-543,510	-119,001	-0,108	-0,014
-542,496	-148,968	-0,084	0,005
-541,481	800,000	0,017	0,040
-540,466	-86,323	-0,128	0,029
-539,452	-91,291	0,129	-0,027
-538,437	692,695	-0,018	0,034
-537,423	174,787	0,042	-0,045
-536,408	709,961	0,032	-0,063
-535,393	29,036	0,066	-0,041
-534,379	800,000	-0,032	-0,079
-533,364	-79,732	0,088	0,022
-532,350	-24,579	0,111	0,048
-531,335	486,171	-0,057	0,096
-530,321	-200,000	0,002	0,042
-529,306	-106,868	0,098	-0,016
-528,291	-5,273	0,053	-0,027
-527,277	-200,000	0,026	-0,102
-526,262	44,843	-0,046	0,031
-525,248	46,048	-0,090	-0,061
-524,233	-173,072	-0,044	0,001
-523,218	351,564	0,035	0,052
-522,204	-47,911	-0,089	0,031
-521,189	800,000	-0,033	0,069
-520,175	-69,271	0,089	-0,025
-519,160	-18,048	-0,127	-0,058
-518,145	-55,046	-0,095	0,031
-517,131	486,824	0,039	-0,065
-516,116	729,889	0,105	-0,207
-515,102	-200,000	0,015	-0,069
-514,087	800,000	0,004	-0,009
-513,072	-200,000	0,020	-0,088
-512,058	59,490	-0,100	-0,072
-511,043	-34,956	-0,067	-0,027
-510,029	1,244	0,151	-0,079
-509,014	-100,993	0,105	0,019
-507,999	157,242	0,029	0,030
-506,985	-4,347	-0,045	-0,023
-505,970	800,000	-0,011	-0,027
-504,956	-85,478	0,080	-0,018
-503,941	-23,104	-0,091	-0,040
-502,926	800,000	-0,026	0,064
-501,912	-24,556	0,096	0,042
-500,897	512,519	-0,104	-0,177
-499,883	-121,142	-0,071	0,009
-498,868	75,356	0,031	0,024
-497,853	-200,000	-0,006	0,092
-496,839	199,297	0,032	-0,035
-495,824	734,159	-0,034	0,068
-494,810	-115,467	0,035	0,005
-493,795	800,000	-0,018	0,055
-492,781	123,788	-0,090	-0,083
-491,766	290,786	0,012	-0,017
-490,751	13,573	-0,049	-0,028
-489,737	800,000	0,016	-0,035
-488,722	-45,543	-0,070	-0,025
-487,708	-200,000	-0,018	0,177
-486,693	-109,861	-0,081	-0,012
-485,678	-114,176	0,008	-0,001
-484,664	294,505	-0,049	-0,066
-483,649	-73,382	0,186	-0,049
-482,635	-200,000	-0,014	-0,091
-481,620	81,537	-0,037	-0,029
-480,605	-182,945	0,037	-0,000
-479,591	-58,118	0,104	0,033
-478,576	-81,867	-0,127	-0,030
-477,562	-200,000	-0,010	-0,082
-476,547	-69,618	-0,183	0,051
-475,532	-144,089	-0,061	-0,004
-474,518	-120,912	0,018	0,002
-473,503	261,248	-0,003	0,004
-472,489	800,000	-0,042	0,103
-471,474	-200,000	-0,008	-0,145
-470,459	-34,664	0,091	0,036
-469,445	-200,000	0,038	-0,162
-468,430	92,094	-0,034	-0,028
-467,416	54,902	-0,093	-0,065
-466,401	-200,000	0,004	-0,015
-465,386	-200,000	0,019	-0,127
-464,372	-83,172	0,046	0,011
-463,357	-200,000	0,033	0,237
-462,343	280,869	-0,049	0,064
-461,328	-200,000	0,010	-0,063
-460,313	-145,487	0,099	-0,006
-459,299	-81,171	0,171	0,041
-458,284	123,719	-0,090	0,082
-457,270	-200,000	0,007	0,124
-456,255	800,000	0,050	-0,128
-455,241	21,168	-0,073	-0,043
-454,226	19,235	0,076	-0,045
-453,211	-200,000	-0,066	-0,263
-452,197	-114,414	0,116	0,016
-451,182	-200,000	0,028	-0,103
-450,168	48,433	0,142	-0,097
-449,153	-200,000	0,002	-0,018
-448,138	-200,000	-0,023	-0,115
-447,124	-137,210	-0,145	0,012
-446,109	-21,136	0,092	0,041
-445,095	-200,000	0,005	0,134
-444,080	636,722	0,059	0,109
-443,065	-138,793	-0,077	0,006
-442,051	-19,919	-0,046	0,021
-441,036	69,992	-0,124	-0,093
-440,022	-81,773	-0,177	-0,042
-439,007	141,881	0,111	0,107
-437,992	-105,304	0,161	0,027
-436,978	427,414	-0,031	-0,049
-435,963	-200,000	-0,008	-0,044
-434,949	79,332	0,085	0,066
-433,934	-4,212	-0,049	0,024
-432,919	18,446	0,043	0,025
-431,905	-200,000	-0,037	0,139
-430,890	141,012	0,060	0,058
-429,876	102,350	-0,014	0,012
-428,861	-86,772	0,110	-0,024
-427,846	-119,732	0,135	-0,017
-426,832	-91,977	0,021	0,004
-425,817	90,079	-0,104	-0,085
-424,803	6,065	-0,085	-0,046
-423,788	-200,000	-0,010	0,070
-422,773	-23,621	0,035	0,015
-421,759	-200,000	-0,010	0,143
-420,744	45,062	-0,022	0,015
-419,730	-187,985	-0,090	0,001
-418,715	34,895	-0,040	0,026
-417,701	800,000	-0,054	0,127
-416,686	-200,000	0,026	0,107
-415,671	-131,852	-0,080	0,008
-414,657	256,544	0,069	-0,087
-413,642	116,766	-0,032	0,029
-412,628	155,608	-0,066	-0,066
-411,613	-200,000	-0,001	-0,010
-410,598	-200,000	-0,009	0,139
-409,584	93,418	0,062	0,051
-408,569	143,346	0,075	-0,073
-407,555	-200,000	-0,003	0,053
-406,540	164,269	-0,054	0,055
-405,525	85,309	0,082	-0,065
-404,511	0,670	-0,129	-0,067
-403,496	557,394	-0,055	0,097
-402,482	169,842	0,075	-0,078
-401,467	-38,523	0,083	0,032
-400,452	-200,000	-0,008	0,071
-399,438	800,000	0,049	0,140
-398,423	745,652	0,026	0,051
-397,409	-56,118	-0,067	0,022
-396,394	-200,000	0,023	-0,075
-395,379	-159,949	-0,045	-0,002
-394,365	-115,980	0,131	0,018
-393,350	800,000	0,038	-0,102
-392,336	309,452	-0,093	0,126
-391,321	-12,868	-0,107	0,051
-390,306	800,000	0,061	0,143
-389,292	346,769	0,033	-0,047
-388,277	-166,120	0,128	0,004
-387,263	54,090	0,093	0,065
-386,248	21,814	0,044	-0,026
-385,233	800,000	-0,057	0,164
-384,219	800,000	0,025	-0,051
-383,204	-200,000	-0,067	-0,222
-382,190	-200,000	0,023	-0,085
-381,175	52,101	-0,049	-0,034
-380,160	-200,000	-0,032	-0,108
-379,146	800,000	0,068	0,218
-378,131	-200,000	-0,011	0,061
-377,117	-36,596	-0,179	0,070
-376,102	-5,748	-0,106	-0,052
-375,088	275,331	0,033	0,042
-374,073	-169,088	0,073	0,002
-373,058	19,365	0,077	-0,045
-372,044	128,288	-0,036	0,033
-371,029	75,250	-0,063	0,048
-370,015	-200,000	-0,010	0,092
-369,000	213,673	-0,116	-0,133
-367,985	200,447	0,040	-0,045
-366,971	-81,669	-0,121	0,029
-365,956	-26,807	0,091	-0,038
-364,942	-200,000	-0,003	0,195
-363,927	-100,062	0,026	0,005
-362,912	-9,363	0,122	0,059
-361,898	-200,000	0,022	0,081
-360,883	-200,000	-0,006	-0,187
-359,869	-200,000	-0,066	-0,000
-358,854	-139,064	-0,162	-0,013
-357,839	0,450	0,132	0,068
-356,825	-200,000	0,020	0,100
-355,810	87,018	-0,050	-0,040
-354,796	668,030	0,033	-0,062
-353,781	-200,000	0,017	-0,115
-352,766	567,722	0,047	-0,084
-351,752	-57,959	0,118	-0,037
-350,737	22,843	0,075	0,045
-349,723	-192,408	-0,098	0,001
-348,708	294,583	-0,046	0,061
-347,693	-68,536	0,105	-0,029
-346,679	213,432	-0,055	0,063
-345,664	-49,844	-0,083	0,029
-344,650	117,705	-0,112	-0,100
-343,635	800,000	0,035	-0,102
-342,620	654,572	0,071	0,134
-341,606	487,747	-0,053	0,089
-340,591	44,717	-0,083	0,055
-339,577	47,179	-0,072	-0,049
-338,562	-200,000	0,055	-0,179
-337,548	-29,939	-0,002	-0,001
-336,533	-200,000	0,008	0,041
-335,518	-48,050	-0,108	0,038
-334,504	716,734	0,063	-0,123
-333,489	-200,000	0,003	-0,011
-332,475	-107,012	-0,079	-0,013
-331,460	-175,083	-0,087	-0,002
-330,445	42,758	0,035	-0,023
-329,431	218,693	-0,087	0,101
-328,416	7,409	0,106	0,057
-327,402	35,199	0,165	-0,105
-326,387	-200,000	-0,007	0,120
-325,372	-93,649	-0,072	0,014
-324,358	60,580	0,054	-0,039
-323,343	65,249	-0,065	0,048
-322,329	283,898	-0,023	-0,031
-321,314	-200,000	-0,022	0,092
-320,299	404,354	-0,036	0,056
-319,285	68,303	-0,066	-0,049
-318,270	-200,000	-0,054	-0,186
-317,256	415,416	-0,025	-0,038
-316,241	467,650	-0,053	-0,087
-315,226	114,130	0,057	-0,050
-314,212	-24,332	0,046	0,020
-313,197	-35,029	0,086	-0,034
-312,183	-200,000	-0,024	-0,097
-311,168	564,155	-0,023	-0,041
-310,153	-200,000	0,017	0,099
-309,139	-89,987	0,079	0,017
-308,124	-200,000	0,040	0,134
-307,110	458,530	-0,029	0,047
-306,095	20,344	0,081	-0,047
-305,080	257,518	-0,054	0,067
-304,066	522,039	0,031	0,053
-303,051	114,019	-0,115	-0,102
-302,037	99,797	0,108	-0,090
-301,022	159,716	0,043	-0,043
-300,008	763,099	-0,017	-0,033
-298,993	-200,000	0,018	0,068
-297,978	59,187	0,112	0,080
-296,964	800,000	0,043	0,107
-295,949	7,316	-0,071	0,038
-294,935	800,000	-0,040	-0,124
-293,920	-113,664	-0,092	0,013
-292,905	-200,000	0,002	0,168
-291,891	-190,114	-0,074	-0,001
-290,876	-200,000	-0,017	0,165
-289,862	80,976	-0,054	-0,043
-288,847	-200,000	-0,000	0,020
-287,832	-200,000	-0,002	-0,012
-286,818	800,000	-0,003	-0,007
-285,803	-200,000	-0,007	0,132
-284,789	-200,000	0,031	0,171
-283,774	800,000	0,026	-0,074
-282,759	800,000	0,026	-0,079
-281,745	-105,491	-0,057	0,009
-280,730	-200,000	-0,029	0,109
-279,716	-71,450	-0,139	0,038
-278,701	561,747	0,031	-0,054
-277,686	800,000	-0,032	-0,084
-276,672	-11,048	0,061	-0,029
-275,657	148,682	0,070	0,069
-274,643	-52,615	-0,086	-0,029
-273,628	205,930	0,120	-0,135
-272,613	102,392	-0,031	-0,026
-271,599	-111,189	-0,107	0,016
-270,584	800,000	-0,044	0,101
-269,570	112,443	0,054	-0,048
-268,555	65,937	-0,014	0,010
-267,540	464,449	-0,005	0,008
-266,526	-15,097	-0,041	-0,019
-265,511	800,000	0,032	0,065
-264,497	53,087	0,121	-0,084
-263,482	308,814	-0,063	0,085
-262,467	393,344	0,014	0,021
-261,453	-120,575	0,139	0,017
-260,438	1,892	-0,079	-0,041
-259,424	-200,000	0,024	-0,189
-258,409	-115,861	-0,067	0,009
-257,395	800,000	0,019	-0,054
-256,380	-200,000	0,040	-0,185
-255,365	-200,000	-0,034	0,115
-254,351	555,798	-0,074	0,129
-253,336	-94,842	-0,088	-0,017
-252,322	-139,832	0,063	-0,005
-251,307	-42,642	-0,108	-0,040
-250,292	-200,000	0,010	-0,181
-249,278	-200,000	0,001	-0,119
-248,263	54,219	0,070	-0,049
-247,249	513,935	-0,041	-0,069
-246,234	-200,000	-0,001	-0,049
-245,219	-200,000	0,007	-0,068
-244,205	-30,444	0,084	-0,034
-243,190	23,913	0,084	0,050
-242,176	800,000	0,005	0,016
-241,161	-4,153	0,060	0,030
-240,146	-200,000	-0,003	-0,089
-239,132	-200,000	-0,013	-0,109
-238,117	-153,391	-0,090	0,004
-237,103	-119,240	0,085	0,011
-236,088	-200,000	-0,026	0,105
-235,073	-45,819	0,124	0,044
-234,059	161,518	0,061	0,061
-233,044	629,035	0,055	0,101
-232,030	-72,347	0,028	-0,007
-231,015	-82,696	-0,091	-0,021
-230,000	-69,996	-0,064	0,017
-228,986	-107,752	-0,058	0,009
-227,971	53,648	0,077	0,053
-226,957	76,043	0,041	0,032
-225,942	95,452	-0,121	0,100
-224,927	757,698	0,053	-0,105
-223,913	38,807	0,104	-0,067
-222,898	-15,648	0,071	0,033
-221,884	800,000	0,034	0,083
-220,869	149,104	0,098	0,096
-219,855	38,092	0,056	-0,036
-218,840	583,192	0,031	0,055
-217,825	-200,000	-0,004	-0,074
-216,811	800,000	0,066	-0,148
-215,796	-200,000	-0,016	0,056
-214,782	-90,120	-0,041	0,009
-213,767	669,876	0,073	-0,138
-212,752	-200,000	-0,003	0,151
-211,738	-12,675	-0,137	0,065
-210,723	-131,476	0,106	0,010
-209,709	-102,577	0,034	-0,006
-208,694	-62,214	-0,055	-0,017
-207,679	378,968	0,031	0,045
-206,665	391,845	0,068	0,103
-205,650	252,215	-0,020	-0,025
-204,636	-113,271	0,043	0,006
-203,621	-200,000	0,005	0,036
-202,606	-200,000	0,010	0,090
-201,592	365,712	-0,022	-0,032
-200,577	-119,085	-0,049	-0,006
-199,563	-57,454	0,113	-0,036
-198,548	-200,000	-0,008	0,029
-197,533	24,190	0,132	-0,079
-196,519	-200,000	0,041	0,167
-195,504	-69,284	0,030	-0,008
-194,490	207,136	-0,114	-0,128
-193,475	171,652	-0,089	0,092
-192,460	118,811	-0,048	-0,043
-191,446	12,692	0,045	-0,025
-190,431	-45,735	0,057	-0,020
-189,417	25,059	0,030	0,018
-188,402	-0,942	-0,055	0,028
-187,387	424,296	0,050	-0,079
-186,373	14,361	0,144	-0,081
-185,358	-200,000	-0,011	0,186
-184,344	-95,323	-0,142	0,027
-183,329	155,259	0,070	-0,069
-182,315	-27,115	-0,071	-0,030
-181,300	-30,085	-0,102	-0,042
-180,285	-154,885	0,112	-0,005
-179,271	-176,877	-0,133	-0,002
-178,256	-200,000	-0,004	0,030
-177,242	-200,000	-0,004	-0,021
-176,227	116,468	0,129	0,114
-175,212	-200,000	-0,014	-0,115
-174,198	-200,000	0,006	-0,060
-173,183	-200,000	-0,043	-0,202
-172,169	468,582	0,019	0,031
-171,154	-200,000	0,036	-0,221
-170,139	-200,000	0,011	0,077
-169,125	285,169	0,056	0,073
-168,110	-69,341	-0,121	-0,033
-167,096	800,000	0,025	-0,077
-166,081	800,000	-0,061	-0,134
-165,066	-54,565	-0,023	-0,007
-164,052	467,289	-0,022	-0,036
-163,037	403,701	-0,068	0,103
-162,023	-200,000	0,001	-0,041
-161,008	-200,000	-0,030	0,098
-159,993	-163,613	0,046	-0,002
-158,979	16,843	-0,097	0,055
-157,964	660,378	-0,033	-0,062
-156,950	800,000	0,015	0,044
-155,935	-200,000	0,009	-0,039
-154,920	-200,000	0,004	-0,035
-153,906	-200,000	0,014	0,053
-152,891	-200,000	-0,005	0,228
-151,877	-16,005	0,006	0,003
-150,862	-106,133	-0,027	-0,004
-149,847	800,000	-0,045	-0,135
-148,833	-200,000	-0,002	0,015
-147,818	-200,000	0,023	0,183
-146,804	800,000	-0,019	-0,043
-145,789	47,785	0,043	0,029
-144,775	-200,000	-0,001	-0,106
-143,760	-6,796	-0,138	0,068
-142,745	102,194	0,081	0,068
-141,731	646,226	-0,009	0,016
-140,716	-200,000	-0,017	0,062
-139,702	144,070	-0,073	0,071
-138,687	-101,097	-0,062	-0,011
-137,672	800,000	-0,068	0,139
-136,658	116,385	-0,144	0,127
-135,643	180,564	0,120	-0,127
-134,629	99,757	0,065	0,054
-133,614	800,000	0,096	0,208
-132,599	-200,000	-0,028	0,131
-131,585	36,155	0,028	0,018
-130,570	-43,063	-0,126	0,046
-129,556	-200,000	0,013	0,083
-128,541	-20,893	-0,223	-0,098
-127,526	-200,000	0,026	0,093
-126,512	-25,163	0,034	0,014
-125,497	399,996	0,071	0,107
-124,483	-55,119	0,165	0,053
-123,468	-169,176	-0,059	-0,002
-122,453	800,000	-0,052	-0,140
-121,439	-200,000	-0,034	-0,132
-120,424	-200,000	-0,000	-0,060
-119,410	-200,000	-0,017	-0,167
-118,395	83,551	0,093	-0,073
-117,380	-200,000	-0,013	0,127
-116,366	67,361	-0,087	-0,064
-115,351	12,250	0,043	-0,024
-114,337	6,086	-0,152	-0,081
-113,322	-63,799	-0,069	0,020
-112,307	-200,000	0,007	-0,030
-111,293	800,000	-0,021	-0,053
-110,278	-119,754	-0,063	-0,008
-109,264	-52,687	0,138	-0,046
-108,249	72,811	-0,125	-0,094
-107,234	-200,000	-0,007	-0,120
-106,220	-200,000	-0,016	-0,133
-105,205	-139,115	-0,047	-0,004
-104,191	120,961	-0,044	-0,039
-103,176	800,000	-0,055	0,118
-102,162	309,050	0,075	0,101
-101,147	-200,000	-0,003	-0,062
-100,132	152,615	0,025	-0,024
-99,118	-105,750	-0,051	0,008
-98,103	359,692	-0,043	0,063
-97,089	178,074	0,067	-0,070
-96,074	101,021	0,113	-0,095
-95,059	-30,458	-0,088	0,036
-94,045	206,838	-0,031	-0,035
-93,030	-83,969	0,018	0,004
-92,016	-131,623	-0,157	-0,015
-91,001	-200,000	-0,005	-0,069
-89,986	-200,000	0,000	0,057
-88,972	132,065	-0,051	0,047
-87,957	800,000	0,032	-0,087
-86,943	363,692	-0,008	-0,011
-85,928	-200,000	0,010	0,035
-84,913	-200,000	0,003	-0,120
-83,899	-200,000	0,009	-0,106
-82,884	7,498	-0,059	0,032
-81,870	434,892	0,014	-0,022
-80,855	-200,000	-0,003	-0,024
-79,840	439,964	-0,064	0,102
-78,826	146,715	-0,049	-0,047
-77,811	800,000	-0,020	0,047
-76,797	323,651	-0,067	-0,092
-75,782	4,830	0,078	-0,041
-74,767	39,097	0,125	0,081
-73,753	-52,223	0,071	-0,023
-72,738	505,083	-0,069	-0,115
-71,724	-200,000	-0,009	-0,058
-70,709	800,000	-0,038	0,084
-69,694	800,000	-0,025	-0,057
-68,680	16,574	0,014	0,008
-67,665	800,000	0,025	-0,060
-66,651	-148,430	0,038	-0,002
-65,636	-75,182	0,030	0,008
-64,622	800,000	-0,017	0,047
-63,607	-8,858	-0,198	0,095
-62,592	263,396	0,118	0,148
-61,578	-200,000	0,004	0,041
-60,563	161,061	0,147	0,148
-59,549	-200,000	-0,017	0,107
-58,534	75,228	-2,269	-1,718
-57,519	500,731	-1,179	-1,962
-56,505	-200,000	-0,253	-4,366
-55,490	800,000	0,856	1,773
-54,476	800,000	5,252	11,380
-53,461	-200,000	22,828	350,105
-52,446	800,000	757,670	2281,535
-51,432	502,797	1636,955	2728,898
-50,417	66,935	1555,253	1136,723
-49,403	19,427	1100,389	633,681
-48,388	11,066	801,374	438,877
-47,373	29,174	766,512	466,335
-46,359	17,512	751,637	427,955
-45,344	7,496	747,361	400,205
-44,330	7,292	745,649	398,758
-43,315	7,210	744,651	398,001
-42,300	7,293	743,146	397,390
-41,286	7,273	742,380	396,914
-40,271	7,215	741,575	396,321
-39,257	7,295	740,531	395,948
-38,242	7,486	739,562	395,894
-37,227	7,396	738,950	395,325
-36,213	7,352	738,167	394,780
-35,198	7,301	737,476	394,268
-34,184	7,375	736,932	394,146
-33,169	7,224	736,118	393,319
-32,154	7,449	735,456	393,509
-31,140	7,441	734,491	392,958
-30,125	7,449	733,627	392,499
-29,111	7,408	733,246	392,178
-28,096	7,349	732,931	391,847
-27,082	7,350	731,898	391,282
-26,067	7,420	731,427	391,189
-25,052	7,269	730,830	390,481
-24,038	7,294	730,256	390,221
-23,023	7,400	729,553	390,092
-22,009	7,414	729,202	389,924
-20,994	7,504	728,472	389,739
-19,979	7,601	727,605	389,498
-18,965	7,413	727,367	388,893
-17,950	7,476	726,888	388,776
-16,936	7,377	726,480	388,299
-15,921	7,356	725,831	387,885
-14,906	7,304	725,258	387,435
-13,892	7,323	724,721	387,179
-12,877	7,385	724,072	386,970
-11,863	7,283	723,905	386,615
-10,848	7,166	723,409	386,047
-9,833	7,416	722,939	386,395
-8,819	7,420	722,188	385,986
-7,804	7,445	721,472	385,650
-6,790	7,377	721,082	385,260
-5,775	7,392	720,894	385,182
-4,760	7,336	720,450	384,792
-3,746	7,320	719,960	384,476
-2,731	7,138	719,486	383,763
-1,717	7,139	719,158	383,577
-0,702	7,039	718,623	383,032
0,313	7,302	714,819	382,218
1,327	11,288	690,307	378,400
2,342	19,773	554,992	320,063
3,356	13,711	305,637	170,011
4,371	-15,415	206,610	94,401
5,386	-18,726	194,706	86,740
6,400	-18,568	191,041	85,203
7,415	-17,710	189,162	84,915
8,429	-18,674	188,011	83,768
9,444	-18,938	187,364	83,303
10,459	-18,787	186,958	83,212
11,473	-19,380	186,544	82,640
12,488	-18,527	186,154	83,006
13,502	-18,754	185,641	82,625
14,517	-18,933	185,375	82,385
15,531	-18,900	184,952	82,210
16,546	-18,710	184,764	82,240
17,561	-19,023	184,336	81,844
18,575	-18,928	184,210	81,841
19,590	-19,072	183,834	81,576
20,604	-18,668	183,721	81,773
21,619	-18,836	183,419	81,526
22,634	-18,911	182,952	81,264
23,648	-18,843	182,914	81,282
24,663	-18,773	182,703	81,225
25,677	-18,699	182,427	81,142
26,692	-18,896	182,232	80,924
27,707	-18,934	182,139	80,853
28,721	-18,822	181,886	80,803
29,736	-18,942	181,688	80,633
30,750	-18,950	181,422	80,502
31,765	-18,786	181,242	80,517
32,780	-18,832	180,980	80,366
33,794	-18,844	181,033	80,374
34,809	-18,546	180,789	80,444
35,823	-18,898	180,545	80,110
36,838	-18,627	180,206	80,120
37,853	-19,046	180,173	79,840
38,867	-18,751	179,918	79,901
39,882	-18,851	179,926	79,836
40,896	-18,935	179,844	79,741
41,911	-18,937	179,527	79,592
42,926	-18,838	179,343	79,564
43,940	-18,759	179,154	79,521
44,955	-18,755	179,040	79,466
45,969	-18,894	178,892	79,308
46,984	-18,604	178,569	79,336
47,999	-18,881	178,694	79,214
49,013	-18,880	178,388	79,072
50,028	-18,678	178,230	79,119
51,042	-18,590	178,000	79,062
52,057	-18,733	177,874	78,913
53,071	-18,836	177,612	78,726
54,086	-18,948	177,574	78,635
55,101	-18,739	177,416	78,685
56,115	-18,634	177,202	78,647
57,130	-19,038	177,015	78,312
58,144	-18,830	176,859	78,362
59,159	-18,855	176,583	78,217
60,174	-18,938	176,587	78,162
61,188	-18,939	176,309	78,032
62,203	-18,617	176,196	78,168
63,217	-18,839	176,171	78,017
64,232	-18,750	175,819	77,907
65,247	-18,944	175,676	77,720
66,261	-18,786	175,632	77,789
67,276	-18,899	175,312	77,572
68,290	-18,906	175,299	77,556
69,305	-18,512	175,027	77,664
70,320	-18,729	175,102	77,561
71,334	-18,538	174,828	77,546
72,349	-18,944	174,704	77,242
73,363	-18,911	174,348	77,098
74,378	-18,705	174,272	77,180
75,393	-19,035	174,230	76,958
76,407	-18,609	174,073	77,135
77,422	-18,582	173,949	77,089
78,436	-18,619	173,658	76,931
79,451	-19,002	173,648	76,693
80,466	-18,654	173,376	76,772
81,480	-18,870	173,235	76,575
82,495	-18,887	173,147	76,519
83,509	-18,875	172,953	76,433
84,524	-18,792	172,735	76,380
85,539	-18,625	172,617	76,419
86,553	-18,753	172,510	76,289
87,568	-18,537	172,202	76,273
88,582	-18,747	172,296	76,185
89,597	-18,818	172,063	76,033
90,611	-18,654	171,808	76,010
91,626	-18,613	171,810	76,028
92,641	-18,886	171,681	75,804
93,655	-18,796	171,682	75,850
94,670	-18,848	171,357	75,670
95,684	-18,633	171,272	75,751
96,699	-18,932	171,118	75,502
97,714	-18,847	170,995	75,490
98,728	-18,523	170,803	75,587
99,743	-18,681	170,629	75,412
100,757	-19,020	170,751	75,262
101,772	-18,580	170,424	75,367
102,787	-18,627	170,145	75,209
103,801	-18,665	170,219	75,213
104,816	-18,716	170,011	75,085
105,830	-18,786	169,906	74,991
106,845	-18,696	169,671	74,933
107,860	-18,754	169,536	74,833
108,874	-18,492	169,389	74,912
109,889	-18,804	169,337	74,703
110,903	-18,918	169,149	74,548
111,918	-18,515	168,976	74,697
112,933	-18,687	168,899	74,557
113,947	-18,787	168,882	74,485
114,962	-18,655	168,616	74,437
115,976	-18,722	168,388	74,292
116,991	-18,576	168,260	74,312
118,006	-19,030	168,337	74,079
119,020	-18,562	168,057	74,217
120,035	-18,771	168,198	74,153
121,049	-18,726	167,965	74,070
122,064	-18,558	167,638	74,015
123,079	-18,726	167,469	73,838
124,093	-18,481	167,373	73,928
125,108	-18,612	167,349	73,837
126,122	-18,660	167,126	73,704
127,137	-18,661	166,993	73,639
128,151	-18,787	167,089	73,603
129,166	-18,697	166,762	73,504
130,181	-18,740	166,665	73,430
131,195	-18,713	166,553	73,389
132,210	-18,946	166,424	73,194
133,224	-18,715	166,332	73,277
134,239	-18,692	166,066	73,166
135,254	-18,793	166,048	73,095
136,268	-18,733	165,767	72,999
137,283	-18,625	165,541	72,953
138,297	-18,620	165,663	73,004
139,312	-18,542	165,345	72,901
140,327	-18,576	165,136	72,783
141,341	-18,611	165,055	72,721
142,356	-18,910	165,039	72,540
143,370	-17,657	165,112	73,268
144,385	-11,662	166,776	77,390
145,400	-4,552	168,136	82,058
146,414	-2,780	168,311	83,142
147,429	-2,517	168,420	83,338
148,443	-2,268	168,318	83,422
149,458	-2,160	168,118	83,377
150,473	-1,890	168,081	83,503
151,487	-1,580	168,095	83,678
152,502	-1,637	167,840	83,512
153,516	-1,766	167,715	83,370
154,531	-1,482	167,673	83,501
155,546	-1,542	167,535	83,391
156,560	-1,467	167,429	83,373
157,575	-1,403	167,415	83,395
158,589	-1,460	167,211	83,254
159,604	-1,482	167,141	83,199
160,619	-1,374	166,789	83,077
161,633	-1,406	166,852	83,083
162,648	-1,585	166,948	83,023
163,662	-1,089	166,524	83,083
164,677	-1,327	166,602	82,981
165,692	-1,335	166,550	82,943
166,706	-1,092	166,375	82,985
167,721	-1,354	166,265	82,776
168,735	-1,253	166,166	82,775
169,750	-1,146	166,012	82,751
170,764	-1,253	165,960	82,658
171,779	-0,966	165,840	82,751
172,794	-1,187	165,740	82,571
173,808	-1,085	165,543	82,522
174,823	-1,034	165,450	82,496
175,837	-1,176	165,346	82,359
176,852	-1,102	165,211	82,325
177,867	-1,092	165,018	82,227
178,881	-1,114	164,948	82,173
179,896	-0,980	164,917	82,224
180,910	-1,134	164,687	82,017
181,925	-1,222	164,738	81,986
182,940	-1,198	164,478	81,863
183,954	-1,247	164,359	81,769
184,969	-1,222	164,381	81,787
185,983	-1,103	164,255	81,782
186,998	-0,924	164,041	81,767
188,013	-0,998	164,059	81,728
189,027	-1,150	163,809	81,512
190,042	-1,089	163,735	81,502
191,056	-0,981	163,737	81,555
192,071	-1,038	163,710	81,503
193,086	-1,206	163,529	81,314
194,100	-1,039	163,363	81,315
195,115	-0,980	163,117	81,218
196,129	-1,014	162,975	81,121
197,144	-0,727	162,749	81,158
198,159	-1,038	162,724	80,969
199,173	-1,067	162,759	80,963
200,188	-0,744	162,580	81,043
201,202	-1,073	162,427	80,780
202,217	-0,687	162,352	80,946
203,232	-0,733	162,167	80,821
204,246	-0,845	162,172	80,756
205,261	-1,001	161,933	80,545
206,275	-0,641	161,789	80,661
207,290	-0,889	161,675	80,463
208,304	-0,574	161,606	80,592
209,319	-0,772	161,443	80,396
210,334	-1,080	161,301	80,152
211,348	-1,088	161,270	80,125
212,363	-0,670	161,252	80,335
213,377	-0,636	161,133	80,287
214,392	-0,609	161,062	80,259
215,407	-0,468	160,762	80,178
216,421	-0,532	160,822	80,166
217,436	-0,778	160,602	79,917
218,450	-0,893	160,668	79,881
219,465	-0,801	160,534	79,857
220,480	-0,846	160,285	79,702
221,494	-0,684	160,382	79,830
222,509	-0,398	160,115	79,843
223,523	-0,826	160,009	79,554
224,538	-0,732	159,980	79,582
225,553	-0,643	159,848	79,557
226,567	-0,662	159,651	79,442
227,582	-0,551	159,558	79,448
228,596	-0,452	159,539	79,485
229,611	-0,628	159,445	79,336
230,626	-0,407	159,310	79,380
231,640	-0,547	159,157	79,223
232,655	-0,438	159,015	79,203
233,669	-0,739	159,009	79,033
234,684	-0,585	158,871	79,039
235,699	-0,742	158,764	78,895
236,713	-0,629	158,721	78,926
237,728	-0,477	158,544	78,912
238,742	-0,478	158,373	78,819
239,757	-0,367	158,135	78,753
240,772	-0,266	158,155	78,809
241,786	-0,412	158,109	78,702
242,801	-0,390	158,066	78,685
243,815	-0,589	158,150	78,614
244,830	-0,139	157,787	78,664
245,844	-0,481	157,703	78,435
246,859	-0,265	157,558	78,470
247,874	-0,221	157,440	78,427
248,888	-0,326	157,344	78,317
249,903	-0,662	157,321	78,122
250,917	-0,265	157,292	78,309
251,932	-0,302	156,983	78,129
252,947	-0,335	157,038	78,132
253,961	-0,328	156,838	78,029
254,976	-0,242	156,828	78,063
255,990	-0,281	156,594	77,919
257,005	-0,484	156,587	77,802
258,020	-0,346	156,528	77,838
259,034	-0,428	156,466	77,758
260,049	-0,088	156,081	77,736
261,063	-0,353	156,203	77,652
262,078	-0,207	155,935	77,588
263,093	-0,268	155,912	77,537
264,107	-0,284	155,824	77,479
265,122	-0,453	155,849	77,396
266,136	-0,201	155,636	77,414
267,151	-0,148	155,506	77,370
268,166	-0,138	155,403	77,317
269,180	-0,273	155,355	77,217
270,195	-0,276	155,199	77,131
271,209	-0,375	155,124	77,036
272,224	-0,346	155,038	77,001
273,239	-0,510	155,051	76,916
274,253	0,037	154,724	77,029
275,268	-0,312	154,678	76,819
276,282	-0,612	154,697	76,667
277,297	-0,175	154,412	76,743
278,312	-0,456	154,483	76,628
279,326	-0,197	154,331	76,678
280,341	0,112	154,186	76,758
281,355	0,013	154,100	76,658
282,370	-0,018	153,961	76,566
283,384	-0,034	153,859	76,500
284,399	0,129	153,765	76,530
285,414	-0,294	153,743	76,295
286,428	-0,025	153,572	76,342
287,443	-0,144	153,686	76,331
288,457	0,172	153,369	76,328
289,472	-0,040	153,421	76,239
290,487	-0,042	153,132	76,087
291,501	0,008	153,028	76,054
292,516	-0,394	153,013	75,835
293,530	0,305	152,878	76,117
294,545	0,013	152,975	76,010
295,560	-0,123	152,769	75,832
296,574	0,402	152,546	75,980
297,589	0,042	152,565	75,801
298,603	-0,046	152,416	75,675
299,618	-0,078	152,485	75,686
300,633	0,116	152,288	75,680
301,647	0,153	152,240	75,668
302,662	0,330	151,955	75,609
303,676	0,009	152,025	75,475
304,691	0,213	151,844	75,482
305,706	-0,084	151,712	75,259
306,720	0,310	151,507	75,349
307,735	-0,045	151,536	75,179
308,749	0,417	151,392	75,332
309,764	0,286	151,347	75,237
310,779	0,337	151,215	75,191
311,793	0,326	151,057	75,100
312,808	0,081	150,978	74,931
313,822	0,059	150,856	74,853
314,837	0,331	150,823	74,966
315,852	0,292	150,783	74,920
316,866	0,028	150,606	74,693
317,881	0,103	150,518	74,681
318,895	0,105	150,497	74,665
319,910	0,296	150,316	74,663
320,925	0,160	150,314	74,588
321,939	0,084	150,251	74,512
322,954	-0,059	150,187	74,402
323,968	0,068	150,023	74,378
324,983	0,693	149,930	74,636
325,997	0,506	149,653	74,398
327,012	0,462	149,563	74,325
328,027	0,106	149,593	74,157
329,041	0,203	149,462	74,133
330,056	0,150	149,376	74,058
331,070	0,316	149,442	74,166
332,085	0,413	149,222	74,098
333,100	0,449	149,003	74,001
334,114	0,224	148,900	73,832
335,129	0,148	148,949	73,812
336,143	0,476	148,864	73,925
337,158	0,309	148,613	73,712
338,173	0,477	148,621	73,792
339,187	0,558	148,470	73,750
340,202	0,502	148,469	73,716
341,216	0,533	148,303	73,642
342,231	0,745	148,136	73,656
343,246	0,326	148,107	73,430
344,260	0,537	148,022	73,484
345,275	0,575	148,005	73,488
346,289	0,657	147,841	73,440
347,304	0,680	147,672	73,361
348,319	0,477	147,652	73,246
349,333	0,116	147,554	73,014
350,348	0,614	147,406	73,177
351,362	0,246	147,395	72,986
352,377	0,598	147,404	73,156
353,392	0,841	147,050	73,091
354,406	0,369	147,208	72,933
355,421	192,739	1322,339	1391,806
356,435	151,995	1465,953	1392,265
