DTS Sentinel unit serial number:	SN410029Multiplexer serial number:	ORYXHardware model number:	OX2-SRSoftware version number:	ORYX F/W v4,00 Oryx Data Collector v3.7.2.0data status	okinstallation	B3 Nyhavnadifferential loss correction	single-endedforward channel	channel 1reverse channel	N/Adate	2023/11/28time	14:52:30forward acquisition time	300,00reverse acquisition time	0,00gamma	499,1914k internal	0,3157k external	0,3157temperature offset calibration	1,0000default loss term (dB/km)	0,3820temperature slope calibration	1,0000multiplexer offset coefficient	1,0000multiplexer slope coefficient	1,0000fibre end	0,00T internal ref (°C)	7,37T ext. ref 1 (°C)	-7,68T ext. ref 2 (°C)	-7,86length (m)	temperature (°C)	Stokes	anti-Stokes-744,400	288,038	-0,243	-0,325
-743,385	800,000	-0,110	0,248
-742,371	341,058	-0,092	-0,133
-741,356	-200,000	0,019	0,312
-740,342	118,501	-0,247	-0,224
-739,327	244,938	-0,170	0,211
-738,312	277,724	-0,125	-0,164
-737,298	461,188	-0,144	0,237
-736,283	746,671	-0,128	-0,255
-735,269	800,000	0,086	0,186
-734,254	273,134	-0,184	-0,241
-733,239	-132,929	-0,266	-0,025
-732,225	800,000	-0,096	-0,226
-731,210	387,018	0,124	0,190
-730,196	64,700	-0,071	0,053
-729,181	-54,582	-0,078	-0,026
-728,167	-191,572	-0,109	-0,001
-727,152	-200,000	-0,023	0,085
-726,137	-200,000	-0,007	-0,082
-725,123	-200,000	0,018	-0,143
-724,108	416,084	-0,037	-0,059
-723,094	-50,290	-0,127	0,044
-722,079	800,000	0,006	-0,015
-721,064	-5,657	-0,065	-0,033
-720,050	93,917	-0,078	0,065
-719,035	-200,000	-0,001	-0,016
-718,021	679,107	0,052	-0,100
-717,006	6,709	-0,171	-0,093
-715,991	170,264	0,035	-0,037
-714,977	57,273	0,087	-0,062
-713,962	-122,256	-0,032	0,004
-712,948	91,930	0,068	0,056
-711,933	800,000	-0,050	0,130
-710,918	42,321	0,077	0,051
-709,904	-200,000	0,009	-0,075
-708,889	-200,000	-0,026	-0,108
-707,875	-172,042	-0,133	0,003
-706,860	50,468	-0,090	0,063
-705,845	800,000	-0,033	-0,078
-704,831	-3,284	-0,076	-0,039
-703,816	309,834	0,013	0,018
-702,802	-26,209	-0,200	-0,086
-701,787	-200,000	-0,023	-0,084
-700,772	-200,000	0,035	-0,137
-699,758	-200,000	0,011	-0,035
-698,743	154,465	-0,127	0,128
-697,729	800,000	0,073	0,223
-696,714	-166,287	-0,099	0,003
-695,699	-128,464	0,058	0,006
-694,685	529,956	0,037	-0,065
-693,670	-31,115	-0,109	-0,045
-692,656	113,960	0,093	0,083
-691,641	-54,797	0,045	-0,015
-690,627	-200,000	-0,013	-0,173
-689,612	-10,293	-0,075	0,037
-688,597	-5,297	0,038	-0,019
-687,583	520,829	0,090	0,156
-686,568	-22,910	0,103	-0,046
-685,554	800,000	0,045	-0,131
-684,539	725,288	-0,036	0,072
-683,524	114,344	-0,114	0,102
-682,510	-200,000	0,018	-0,103
-681,495	-54,522	-0,135	0,045
-680,481	800,000	-0,020	-0,052
-679,466	97,463	0,068	-0,057
-678,451	651,703	0,045	0,085
-677,437	158,820	-0,035	0,036
-676,422	97,075	0,166	-0,140
-675,408	-200,000	-0,022	0,074
-674,393	-200,000	-0,011	-0,070
-673,378	800,000	-0,014	0,037
-672,364	34,192	-0,062	0,040
-671,349	42,918	-0,097	-0,065
-670,335	208,430	-0,065	0,075
-669,320	51,589	0,026	0,018
-668,305	800,000	0,042	0,101
-667,291	800,000	-0,040	0,094
-666,276	-33,084	0,089	0,036
-665,262	-29,263	-0,158	-0,066
-664,247	290,365	-0,104	0,139
-663,232	-41,946	0,134	-0,050
-662,218	543,631	0,069	0,121
-661,203	-8,975	-0,034	0,017
-660,189	90,779	0,027	-0,022
-659,174	-34,090	0,063	-0,026
-658,159	800,000	0,027	-0,086
-657,145	-6,887	-0,095	-0,047
-656,130	800,000	-0,015	0,048
-655,116	342,406	0,043	0,062
-654,101	-200,000	-0,019	-0,068
-653,086	96,754	-0,073	0,061
-652,072	-71,841	0,028	0,008
-651,057	800,000	0,003	-0,008
-650,043	291,237	0,019	-0,025
-649,028	708,805	-0,062	0,122
-648,014	-200,000	-0,004	-0,169
-646,999	175,513	0,060	-0,064
-645,984	800,000	0,025	0,052
-644,970	181,850	-0,070	-0,076
-643,955	90,631	-0,060	-0,050
-642,941	241,048	-0,120	-0,147
-641,926	-156,592	-0,111	0,005
-640,911	175,426	0,082	-0,087
-639,897	800,000	-0,018	0,054
-638,882	-165,144	0,209	0,007
-637,868	800,000	-0,056	-0,161
-636,853	144,097	-0,110	-0,108
-635,838	155,614	-0,039	0,040
-634,824	155,387	-0,121	-0,122
-633,809	35,539	-0,064	0,041
-632,795	226,683	0,137	0,164
-631,780	-200,000	0,026	0,140
-630,765	518,672	-0,089	0,154
-629,751	-200,000	-0,003	-0,146
-628,736	800,000	-0,034	-0,079
-627,722	-200,000	-0,017	0,067
-626,707	36,707	0,075	0,049
-625,692	-34,031	0,070	0,028
-624,678	-88,990	-0,070	0,015
-623,663	150,152	0,012	-0,012
-622,649	-200,000	-0,025	0,108
-621,634	296,757	-0,020	-0,027
-620,619	44,091	-0,037	0,025
-619,605	-9,248	-0,152	0,074
-618,590	71,512	0,090	0,068
-617,576	258,063	-0,052	-0,066
-616,561	59,839	-0,100	-0,073
-615,546	33,066	0,085	0,054
-614,532	800,000	0,025	-0,060
-613,517	-44,950	-0,135	-0,049
-612,503	-200,000	-0,009	0,103
-611,488	-26,323	-0,100	0,043
-610,474	-41,291	0,226	-0,085
-609,459	-200,000	-0,026	0,146
-608,444	217,689	-0,107	-0,125
-607,430	-200,000	-0,012	-0,092
-606,415	349,735	0,068	-0,099
-605,401	800,000	0,057	-0,132
-604,386	-200,000	-0,008	-0,120
-603,371	2,503	-0,043	0,023
-602,357	241,276	-0,109	0,133
-601,342	-12,093	-0,020	-0,010
-600,328	115,803	-0,128	-0,115
-599,313	-200,000	0,005	-0,053
-598,298	800,000	-0,041	0,115
-597,284	-74,852	0,109	-0,029
-596,269	568,280	-0,047	0,084
-595,255	331,004	0,057	0,080
-594,240	-200,000	0,008	0,158
-593,225	-200,000	0,012	0,133
-592,211	800,000	-0,062	-0,145
-591,196	-200,000	0,007	-0,102
-590,182	800,000	0,046	-0,121
-589,167	224,423	0,069	-0,082
-588,152	-13,309	0,008	-0,004
-587,138	-200,000	-0,011	0,098
-586,123	-74,871	-0,028	-0,007
-585,109	-200,000	0,002	-0,072
-584,094	-93,695	0,042	-0,008
-583,079	520,788	0,052	-0,090
-582,065	-200,000	-0,015	0,148
-581,050	258,924	0,040	-0,051
-580,036	-91,582	-0,139	-0,029
-579,021	590,561	0,106	-0,193
-578,006	-151,910	-0,124	-0,007
-576,992	800,000	-0,054	0,122
-575,977	215,084	-0,087	-0,101
-574,963	-181,153	-0,037	0,001
-573,948	119,800	-0,012	-0,011
-572,934	340,231	-0,025	0,036
-571,919	800,000	-0,038	-0,087
-570,904	118,904	-0,013	0,012
-569,890	7,418	0,040	0,022
-568,875	327,769	0,024	0,034
-567,861	136,455	0,092	0,088
-566,846	799,170	0,032	-0,066
-565,831	192,507	-0,060	0,066
-564,817	54,893	0,018	-0,013
-563,802	36,319	-0,059	0,038
-562,788	-115,510	-0,096	-0,013
-561,773	177,567	0,124	0,133
-560,758	47,710	0,115	-0,078
-559,744	-8,972	-0,014	-0,007
-558,729	800,000	-0,034	-0,095
-557,715	800,000	-0,052	-0,132
-556,700	90,463	-0,015	0,013
-555,685	29,670	-0,071	0,044
-554,671	171,615	0,076	-0,080
-553,656	-143,615	-0,040	-0,003
-552,642	-32,783	-0,040	0,016
-551,627	543,812	-0,070	0,122
-550,612	-25,239	-0,098	-0,042
-549,598	20,390	0,097	-0,057
-548,583	-104,463	-0,151	0,025
-547,569	-107,609	0,246	-0,039
-546,554	-142,718	-0,092	0,006
-545,539	-200,000	-0,015	0,088
-544,525	616,717	-0,050	0,092
-543,510	88,307	-0,115	-0,093
-542,496	70,798	-0,044	0,033
-541,481	135,467	-0,052	-0,050
-540,466	-200,000	-0,004	0,019
-539,452	497,925	0,015	0,025
-538,437	267,526	0,073	-0,093
-537,423	623,184	0,068	0,126
-536,408	-200,000	0,016	0,175
-535,393	-42,917	-0,103	0,038
-534,379	-200,000	0,031	-0,100
-533,364	800,000	0,042	0,117
-532,350	402,687	-0,033	0,051
-531,335	-200,000	-0,031	0,134
-530,321	-84,004	0,118	-0,027
-529,306	-117,858	-0,070	-0,009
-528,291	246,932	-0,104	-0,129
-527,277	651,273	-0,049	0,093
-526,262	110,046	-0,020	0,017
-525,248	-127,337	-0,056	-0,006
-524,233	-43,505	0,007	0,003
-523,218	-63,038	-0,114	0,034
-522,204	-154,914	0,071	-0,003
-521,189	340,014	-0,024	0,034
-520,175	-149,114	-0,130	-0,007
-519,160	-200,000	-0,012	-0,088
-518,145	195,023	-0,143	-0,158
-517,131	-0,179	0,071	-0,037
-516,116	453,873	-0,043	0,070
-515,102	549,952	-0,035	0,062
-514,087	72,323	-0,021	-0,016
-513,072	-200,000	-0,001	-0,052
-512,058	363,951	-0,029	-0,042
-511,043	800,000	-0,017	0,044
-510,029	24,012	0,099	0,060
-509,014	-49,951	0,002	0,001
-507,999	-60,539	0,058	0,018
-506,985	800,000	0,056	-0,166
-505,970	-35,952	0,035	0,014
-504,956	-200,000	-0,008	0,130
-503,941	-108,096	0,117	0,018
-502,926	800,000	0,011	0,029
-501,912	43,336	0,048	0,032
-500,897	104,893	-0,016	0,014
-499,883	102,385	-0,130	-0,111
-498,868	142,086	-0,092	-0,089
-497,853	-200,000	0,001	0,021
-496,839	66,900	0,139	0,103
-495,824	-200,000	-0,017	-0,078
-494,810	800,000	-0,029	0,060
-493,795	-200,000	-0,041	0,199
-492,781	-44,830	0,202	0,073
-491,766	213,472	-0,026	-0,030
-490,751	-29,700	0,148	0,062
-489,737	-200,000	0,045	-0,154
-488,722	-3,320	-0,039	-0,020
-487,708	-200,000	0,144	-0,000
-486,693	-8,212	0,026	0,013
-485,678	73,639	-0,086	0,066
-484,664	14,521	0,067	-0,038
-483,649	-115,568	-0,066	0,009
-482,635	800,000	-0,056	0,166
-481,620	192,854	-0,139	0,154
-480,605	800,000	0,043	0,098
-479,591	406,521	-0,016	0,024
-478,576	407,796	0,037	0,057
-477,562	-200,000	0,011	-0,057
-476,547	355,515	-0,098	-0,143
-475,532	537,790	-0,099	-0,172
-474,518	-200,000	0,006	0,068
-473,503	-200,000	0,016	0,074
-472,489	513,143	0,010	0,018
-471,474	800,000	-0,034	0,101
-470,459	9,454	-0,099	-0,055
-469,445	223,239	-0,074	-0,088
-468,430	-200,000	0,012	0,047
-467,416	-114,710	-0,090	0,012
-466,401	-200,000	0,049	0,186
-465,386	-200,000	-0,012	-0,040
-464,372	80,732	0,217	-0,170
-463,357	-53,715	0,050	0,017
-462,343	-200,000	-0,015	-0,079
-461,328	800,000	0,048	-0,130
-460,313	-155,203	0,155	-0,007
-459,299	-49,115	-0,085	0,030
-458,284	-200,000	0,007	-0,046
-457,270	800,000	-0,059	-0,150
-456,255	800,000	-0,047	-0,116
-455,241	-84,056	-0,063	0,014
-454,226	730,053	-0,030	-0,058
-453,211	27,522	-0,045	0,028
-452,197	455,665	-0,046	0,075
-451,182	-200,000	0,001	0,076
-450,168	-200,000	0,027	-0,124
-449,153	-3,008	-0,120	-0,061
-448,138	-43,364	-0,055	-0,020
-447,124	-102,567	0,154	-0,026
-446,109	-200,000	0,002	-0,101
-445,095	800,000	0,045	0,131
-444,080	-200,000	0,022	0,189
-443,065	800,000	-0,034	0,100
-442,051	139,871	-0,130	-0,125
-441,036	-90,690	-0,069	-0,014
-440,022	213,154	-0,085	0,098
-439,007	412,688	-0,031	0,047
-437,992	-125,724	-0,090	0,010
-436,978	89,784	0,102	-0,083
-435,963	-200,000	0,001	0,037
-434,949	-200,000	0,016	-0,076
-433,934	-200,000	0,009	-0,056
-432,919	218,536	-0,028	0,033
-431,905	-43,985	0,099	-0,036
-430,890	-85,748	0,102	0,023
-429,876	640,244	0,091	0,169
-428,861	-1,403	-0,102	0,052
-427,846	-200,000	0,002	0,098
-426,832	-142,436	-0,100	-0,007
-425,817	-200,000	-0,030	-0,215
-424,803	490,324	0,049	-0,083
-423,788	-200,000	-0,005	0,057
-422,773	-35,754	-0,137	0,054
-421,759	346,130	-0,046	-0,065
-420,744	88,293	0,042	-0,034
-419,730	568,321	-0,075	-0,134
-418,715	-200,000	0,037	-0,216
-417,701	129,989	-0,039	0,037
-416,686	124,004	-0,048	0,044
-415,671	198,066	-0,114	0,127
-414,657	-200,000	-0,015	0,088
-413,642	-127,385	0,035	0,004
-412,628	253,741	0,076	0,094
-411,613	-47,964	-0,103	-0,036
-410,598	128,504	0,026	-0,024
-409,584	-200,000	-0,000	-0,021
-408,569	-62,912	0,124	0,037
-407,555	282,701	0,089	-0,117
-406,540	673,670	0,026	-0,049
-405,525	-200,000	-0,015	0,064
-404,511	-97,529	-0,123	-0,023
-403,496	-26,636	0,013	-0,005
-402,482	-6,928	0,161	0,079
-401,467	518,032	0,021	0,036
-400,452	742,938	0,047	-0,092
-399,438	432,654	-0,035	-0,056
-398,423	1,862	-0,134	0,070
-397,409	-200,000	-0,006	0,093
-396,394	175,700	-0,132	-0,139
-395,379	-200,000	0,025	-0,216
-394,365	-44,370	-0,081	-0,029
-393,350	21,923	0,099	0,059
-392,336	-52,703	-0,125	0,042
-391,321	800,000	-0,024	-0,056
-390,306	800,000	0,020	-0,044
-389,292	-200,000	-0,013	-0,181
-388,277	14,280	0,103	-0,058
-387,263	-127,836	0,176	-0,018
-386,248	-46,425	0,175	0,062
-385,233	107,965	0,020	-0,017
-384,219	-140,503	0,082	0,006
-383,204	800,000	-0,006	-0,012
-382,190	507,628	0,014	-0,024
-381,175	800,000	-0,033	-0,068
-380,160	-30,542	0,062	0,025
-379,146	-62,076	0,090	-0,027
-378,131	46,963	0,098	0,066
-377,117	181,395	-0,034	0,037
-376,102	25,707	-0,097	0,059
-375,088	381,463	0,126	-0,189
-374,073	-8,213	-0,143	0,070
-373,058	162,277	0,144	0,147
-372,044	671,270	0,048	0,091
-371,029	800,000	-0,056	-0,130
-370,015	-99,033	0,116	0,021
-369,000	-33,532	-0,127	-0,051
-367,985	15,996	-0,025	0,014
-366,971	800,000	0,049	-0,119
-365,956	-200,000	0,001	0,119
-364,942	237,277	0,043	0,052
-363,927	123,086	-0,048	0,043
-362,912	67,883	0,053	-0,040
-361,898	-114,635	0,038	0,005
-360,883	139,829	-0,126	-0,120
-359,869	-87,798	0,168	0,036
-358,854	-200,000	0,020	0,071
-357,839	315,380	-0,093	0,127
-356,825	283,247	0,145	0,189
-355,810	-200,000	0,004	-0,018
-354,796	218,548	0,179	-0,208
-353,781	261,269	-0,041	0,051
-352,766	51,512	0,075	-0,052
-351,752	97,749	0,071	-0,060
-350,737	-77,681	0,067	-0,017
-349,723	283,807	-0,054	-0,070
-348,708	107,875	0,050	0,043
-347,693	71,296	-0,064	0,048
-346,679	-63,457	-0,093	0,028
-345,664	174,229	0,059	-0,062
-344,650	-200,000	-0,009	-0,034
-343,635	64,056	0,160	-0,117
-342,620	800,000	-0,033	0,104
-341,606	160,873	-0,062	0,063
-340,591	530,131	-0,062	-0,107
-339,577	271,566	-0,045	-0,057
-338,562	-73,705	-0,177	-0,046
-337,548	247,412	0,029	0,036
-336,533	-44,093	-0,053	-0,019
-335,518	-200,000	0,015	-0,151
-334,504	800,000	-0,095	0,215
-333,489	800,000	0,054	-0,109
-332,475	697,564	0,044	0,084
-331,460	748,074	-0,059	0,116
-330,445	-113,529	-0,065	0,009
-329,431	58,644	0,081	0,058
-328,416	34,773	0,091	0,058
-327,402	-200,000	0,035	-0,115
-326,387	-200,000	0,006	-0,019
-325,372	-84,617	-0,106	0,024
-324,358	10,962	0,204	0,113
-323,343	-95,300	0,058	-0,011
-322,329	9,357	-0,090	-0,049
-321,314	-200,000	-0,024	-0,147
-320,299	800,000	-0,013	-0,036
-319,285	-200,000	0,040	0,203
-318,270	-15,200	0,073	-0,034
-317,256	238,178	-0,099	0,119
-316,241	-103,519	-0,076	0,013
-315,226	262,861	0,061	0,077
-314,212	45,668	0,132	0,088
-313,197	-78,104	0,033	-0,008
-312,183	93,304	0,081	0,067
-311,168	66,134	0,005	-0,004
-310,153	-34,006	0,077	-0,030
-309,139	-27,770	0,166	-0,069
-308,124	79,817	0,109	0,085
-307,110	-200,000	0,008	-0,074
-306,095	51,560	0,093	-0,064
-305,080	501,626	-0,035	0,059
-304,066	139,836	-0,131	0,125
-303,051	-48,703	-0,071	-0,024
-302,037	699,843	0,056	-0,107
-301,022	-200,000	-0,028	0,114
-300,008	-200,000	-0,028	0,229
-298,993	472,269	0,023	-0,038
-297,978	266,028	0,077	0,098
-296,964	-50,516	0,065	0,022
-295,949	-37,546	0,119	0,046
-294,935	40,116	-0,011	-0,007
-293,920	-49,898	-0,087	0,030
-292,905	-83,336	0,018	-0,004
-291,891	50,294	0,101	0,069
-290,876	124,777	0,028	-0,025
-289,862	-182,287	0,097	0,001
-288,847	166,582	-0,048	0,049
-287,832	-168,584	0,077	-0,002
-286,818	-200,000	0,014	0,085
-285,803	263,645	0,069	0,088
-284,789	87,538	0,077	0,062
-283,774	-101,267	0,072	-0,013
-282,759	-49,126	0,146	-0,050
-281,745	391,028	-0,094	-0,142
-280,730	161,097	-0,073	-0,074
-279,716	439,177	-0,061	-0,096
-278,701	476,888	-0,016	-0,027
-277,686	-117,127	-0,026	0,003
-276,672	-28,438	-0,128	0,053
-275,657	168,204	0,122	-0,126
-274,643	-168,811	0,065	-0,002
-273,628	158,510	-0,062	0,062
-272,613	800,000	0,036	0,089
-271,599	-130,046	0,106	0,010
-270,584	-200,000	-0,011	0,171
-269,570	52,627	-0,062	0,043
-268,555	800,000	0,050	0,107
-267,540	-119,881	0,059	-0,007
-266,526	110,601	-0,021	-0,018
-265,511	-98,286	0,035	-0,007
-264,497	21,635	-0,044	0,026
-263,482	628,221	0,114	0,209
-262,467	-200,000	0,026	0,145
-261,453	170,565	0,130	-0,135
-260,438	-140,365	0,097	-0,007
-259,424	110,161	-0,018	-0,016
-258,409	-37,974	-0,087	-0,033
-257,395	586,701	-0,043	0,078
-256,380	-127,258	0,131	0,014
-255,365	29,632	-0,066	-0,041
-254,351	-138,148	0,044	-0,003
-253,336	-21,393	0,098	0,043
-252,322	-8,676	-0,060	-0,029
-251,307	-200,000	0,003	-0,116
-250,292	132,878	0,023	0,021
-249,278	-200,000	-0,026	0,103
-248,263	-18,828	0,111	0,050
-247,249	-123,231	-0,090	0,010
-246,234	495,654	-0,012	-0,019
-245,219	-200,000	0,010	-0,121
-244,205	800,000	0,034	-0,103
-243,190	129,198	-0,081	-0,074
-242,176	223,286	0,094	-0,110
-241,161	190,940	-0,026	-0,029
-240,146	-97,652	0,126	-0,023
-239,132	-155,397	-0,069	-0,003
-238,117	800,000	0,017	-0,055
-237,103	-200,000	-0,003	0,060
-236,088	-200,000	0,014	0,067
-235,073	-70,838	0,046	-0,013
-234,059	-200,000	-0,004	-0,034
-233,044	150,865	0,034	-0,033
-232,030	-170,864	0,070	0,002
-231,015	-67,866	0,054	-0,015
-230,000	130,790	0,089	0,082
-228,986	800,000	0,063	0,168
-227,971	71,890	-0,030	0,023
-226,957	323,923	0,071	-0,098
-225,942	-200,000	-0,007	0,063
-224,927	440,973	-0,008	0,013
-223,913	-34,361	-0,165	0,065
-222,898	256,920	-0,093	-0,115
-221,884	-103,444	0,078	-0,013
-220,869	-200,000	0,004	0,043
-219,855	-147,327	0,147	-0,009
-218,840	-106,623	0,159	0,025
-217,825	-200,000	-0,208	-0,001
-216,811	-200,000	-0,016	0,053
-215,796	800,000	-0,061	0,131
-214,782	-200,000	0,012	0,066
-213,767	-35,162	0,105	-0,041
-212,752	800,000	0,059	0,171
-211,738	-93,372	-0,093	-0,018
-210,723	327,860	0,060	0,083
-209,709	-48,397	-0,097	-0,034
-208,694	60,514	-0,082	0,059
-207,679	398,235	0,108	-0,163
-206,665	-22,908	0,077	0,034
-205,650	306,747	0,059	0,080
-204,636	211,731	-0,055	0,062
-203,621	6,334	0,037	-0,020
-202,606	495,461	0,059	-0,098
-201,592	-100,661	-0,069	0,012
-200,577	-46,230	-0,136	-0,048
-199,563	800,000	0,028	0,064
-198,548	388,432	-0,085	-0,127
-197,533	-27,472	0,072	0,030
-196,519	-200,000	0,000	-0,052
-195,504	158,059	0,097	0,098
-194,490	50,308	-0,214	-0,146
-193,475	68,994	-0,089	-0,066
-192,460	9,410	0,145	-0,079
-191,446	-116,094	-0,047	-0,006
-190,431	-164,233	-0,042	0,001
-189,417	-36,914	0,118	-0,045
-188,402	85,618	-0,222	-0,176
-187,387	-55,997	-0,077	-0,025
-186,373	-200,000	0,015	0,099
-185,358	-200,000	-0,009	-0,030
-184,344	-47,312	-0,043	-0,015
-183,329	-154,733	0,248	0,012
-182,315	538,915	-0,055	0,094
-181,300	-44,031	-0,121	-0,044
-180,285	-87,048	-0,179	0,039
-179,271	-142,249	-0,047	0,003
-178,256	-141,471	-0,084	0,006
-177,242	681,570	-0,066	0,125
-176,227	-200,000	0,003	0,120
-175,212	-200,000	0,005	0,066
-174,198	467,740	-0,028	0,045
-173,183	-200,000	-0,015	0,064
-172,169	-82,265	-0,107	-0,025
-171,154	800,000	0,013	-0,030
-170,139	-200,000	-0,016	-0,063
-169,125	91,440	0,053	-0,043
-168,110	-63,893	0,066	0,019
-167,096	79,042	-0,128	-0,099
-166,081	-200,000	-0,026	0,088
-165,066	-97,986	0,050	-0,009
-164,052	-30,692	-0,075	-0,030
-163,037	-200,000	-0,003	-0,041
-162,023	-200,000	-0,037	-0,154
-161,008	-77,028	0,068	-0,017
-159,993	526,763	-0,066	0,113
-158,979	-37,378	-0,049	0,019
-157,964	800,000	0,046	-0,144
-156,950	538,534	-0,065	-0,111
-155,935	800,000	0,049	-0,134
-154,920	-200,000	0,036	0,132
-153,906	299,902	-0,025	-0,033
-152,891	256,894	0,112	-0,139
-151,877	-4,365	-0,128	0,064
-150,862	800,000	-0,100	-0,202
-149,847	-200,000	-0,031	-0,176
-148,833	61,740	0,083	0,060
-147,818	-35,750	0,095	-0,037
-146,804	800,000	0,041	-0,113
-145,789	-200,000	0,005	-0,039
-144,775	-200,000	0,017	-0,091
-143,760	214,954	-0,048	-0,055
-142,745	193,853	-0,044	-0,048
-141,731	79,818	0,121	-0,094
-140,716	37,131	-0,036	0,023
-139,702	-200,000	-0,003	-0,012
-138,687	800,000	-0,028	0,075
-137,672	-41,325	0,073	-0,027
-136,658	605,554	0,082	-0,147
-135,643	26,115	0,015	-0,009
-134,629	-96,624	-0,087	-0,016
-133,614	-200,000	0,010	-0,051
-132,599	-22,957	0,145	0,063
-131,585	-113,274	0,067	0,009
-130,570	-82,382	0,135	0,031
-129,556	800,000	-0,009	-0,025
-128,541	-200,000	-0,036	-0,121
-127,526	271,835	-0,044	-0,056
-126,512	-130,021	0,302	0,029
-125,497	-4,042	0,097	0,048
-124,483	-200,000	0,022	0,083
-123,468	-183,766	0,020	-0,000
-122,453	-23,524	-0,092	0,040
-121,439	283,581	0,037	-0,048
-120,424	59,687	-0,094	0,067
-119,410	800,000	0,011	0,025
-118,395	800,000	0,055	0,132
-117,380	800,000	0,055	0,152
-116,366	-161,154	0,091	-0,003
-115,351	800,000	-0,045	-0,102
-114,337	438,212	0,073	-0,116
-113,322	800,000	0,025	-0,059
-112,307	656,953	0,049	0,092
-111,293	-20,454	-0,036	-0,016
-110,278	-92,288	0,117	0,024
-109,264	-200,000	-0,037	0,134
-108,249	22,480	0,083	0,049
-107,234	107,023	0,017	-0,015
-106,220	-152,706	-0,133	-0,007
-105,205	-43,787	0,047	-0,017
-104,191	-42,672	0,039	0,014
-103,176	110,267	0,121	0,105
-102,162	601,194	-0,050	-0,089
-101,147	800,000	0,046	0,099
-100,132	800,000	-0,025	-0,051
-99,118	800,000	-0,019	-0,038
-98,103	229,663	0,041	0,048
-97,089	-137,018	-0,018	0,001
-96,074	800,000	-0,042	0,117
-95,059	670,956	-0,005	0,010
-94,045	800,000	0,031	-0,080
-93,030	84,322	-0,111	-0,088
-92,016	-26,640	0,099	0,042
-91,001	483,761	-0,052	-0,085
-89,986	-22,841	0,113	0,049
-88,972	172,354	0,090	0,094
-87,957	-124,185	-0,103	0,011
-86,943	-24,019	-0,136	0,058
-85,928	-200,000	0,012	-0,080
-84,913	-143,306	-0,122	0,008
-83,899	4,218	-0,129	-0,068
-82,884	-200,000	-0,004	0,033
-81,870	800,000	-0,101	0,211
-80,855	-194,068	0,183	0,001
-79,840	-81,182	-0,197	-0,046
-78,826	-115,774	-0,119	0,016
-77,811	-45,904	-0,166	0,059
-76,797	101,903	0,110	-0,092
-75,782	-14,734	-0,099	-0,045
-74,767	55,379	-0,168	-0,116
-73,753	-200,000	0,001	0,147
-72,738	718,347	-0,097	-0,186
-71,724	-37,527	0,045	-0,017
-70,709	800,000	0,007	-0,021
-69,694	-200,000	-0,007	-0,082
-68,680	-200,000	-0,026	0,114
-67,665	-90,498	0,114	0,023
-66,651	800,000	0,080	0,188
-65,636	54,538	-0,092	0,064
-64,622	-200,000	0,021	-0,099
-63,607	-140,374	-0,068	-0,005
-62,592	-56,349	0,138	0,044
-61,578	-200,000	-0,008	0,070
-60,563	-200,000	-0,009	-0,056
-59,549	3,427	0,078	0,041
-58,534	68,311	-2,185	-1,605
-57,519	504,947	-1,191	-1,987
-56,505	-200,000	-0,237	-4,436
-55,490	800,000	0,803	1,765
-54,476	800,000	5,300	11,286
-53,461	-200,000	22,851	350,208
-52,446	800,000	757,881	2281,343
-51,432	503,595	1637,162	2728,293
-50,417	67,211	1553,359	1135,543
-49,403	19,721	1091,211	628,837
-48,388	11,178	787,643	431,222
-47,373	29,687	752,331	458,525
-46,359	17,790	737,307	420,061
-45,344	7,459	733,355	392,219
-44,330	7,317	731,650	390,939
-43,315	7,275	730,221	390,056
-42,300	7,226	729,167	389,355
-41,286	7,291	728,293	389,033
-40,271	7,129	727,441	388,163
-39,257	7,362	726,282	388,104
-38,242	7,417	725,487	387,798
-37,227	7,417	724,821	387,428
-36,213	7,300	724,144	386,763
-35,198	7,334	723,290	386,376
-34,184	7,404	722,925	386,335
-33,169	7,361	721,951	385,696
-32,154	7,381	721,515	385,495
-31,140	7,420	720,441	385,002
-30,125	7,482	719,554	384,664
-29,111	7,259	719,290	383,964
-28,096	7,311	719,073	383,959
-27,082	7,372	718,013	383,527
-26,067	7,426	717,343	383,285
-25,052	7,327	716,845	382,762
-24,038	7,317	716,362	382,465
-23,023	7,351	715,642	382,150
-22,009	7,467	715,109	382,130
-20,994	7,451	714,393	381,692
-19,979	7,521	713,762	381,509
-18,965	7,500	713,485	381,296
-17,950	7,442	713,129	380,950
-16,936	7,366	712,381	380,352
-15,921	7,296	712,052	379,994
-14,906	7,295	711,246	379,547
-13,892	7,345	710,686	379,351
-12,877	7,326	710,270	379,069
-11,863	7,274	710,081	378,827
-10,848	7,333	709,475	378,633
-9,833	7,434	708,854	378,528
-8,819	7,401	708,454	378,221
-7,804	7,555	707,525	378,077
-6,790	7,329	707,406	377,458
-5,775	7,329	707,185	377,326
-4,760	7,336	706,540	376,983
-3,746	7,366	706,116	376,813
-2,731	7,149	705,746	376,083
-1,717	7,075	705,545	375,783
-0,702	7,146	704,912	375,601
0,313	7,351	700,735	374,426
1,327	11,305	674,844	369,590
2,342	19,545	541,402	311,498
3,356	13,683	297,861	165,490
4,371	-15,457	201,484	91,937
5,386	-18,391	189,728	84,655
6,400	-18,477	186,072	82,962
7,415	-17,719	184,472	82,720
8,429	-18,641	183,435	81,668
9,444	-18,684	182,622	81,272
10,459	-18,839	182,197	80,979
11,473	-18,825	181,822	80,814
12,488	-18,813	181,404	80,628
13,502	-19,098	180,979	80,255
14,517	-18,547	180,723	80,476
15,531	-19,088	180,258	79,927
16,546	-18,978	180,206	79,965
17,561	-18,937	179,671	79,746
18,575	-18,537	179,509	79,913
19,590	-18,985	179,297	79,536
20,604	-18,694	179,106	79,623
21,619	-18,696	178,746	79,454
22,634	-18,942	178,543	79,207
23,648	-18,877	178,349	79,153
24,663	-18,726	177,946	79,059
25,677	-18,670	177,786	79,015
26,692	-18,762	177,687	78,909
27,707	-18,938	177,798	78,843
28,721	-18,736	177,237	78,710
29,736	-18,956	177,049	78,487
30,750	-18,907	176,982	78,479
31,765	-18,690	176,750	78,501
32,780	-18,363	176,522	78,590
33,794	-18,757	176,340	78,264
34,809	-18,756	176,256	78,220
35,823	-18,779	176,057	78,112
36,838	-18,737	175,898	78,059
37,853	-18,701	175,655	77,966
38,867	-18,573	175,367	77,908
39,882	-18,529	175,226	77,865
40,896	-18,755	175,172	77,699
41,911	-19,056	175,085	77,473
42,926	-18,856	174,829	77,472
43,940	-18,936	174,619	77,325
44,955	-18,764	174,496	77,366
45,969	-18,652	174,288	77,333
46,984	-18,539	174,181	77,347
47,999	-18,673	174,071	77,211
49,013	-18,599	173,886	77,166
50,028	-18,727	173,770	77,032
51,042	-18,707	173,413	76,878
52,057	-18,631	173,395	76,908
53,071	-18,614	173,133	76,795
54,086	-18,625	173,079	76,758
55,101	-18,868	172,895	76,526
56,115	-18,854	172,739	76,458
57,130	-18,697	172,562	76,466
58,144	-18,471	172,416	76,527
59,159	-18,982	172,059	76,062
60,174	-18,819	172,069	76,156
61,188	-18,587	172,019	76,263
62,203	-18,666	171,832	76,126
63,217	-18,749	171,562	75,952
64,232	-18,558	171,384	75,978
65,247	-18,857	171,333	75,774
66,261	-18,801	171,180	75,732
67,276	-18,889	171,029	75,607
68,290	-18,765	170,855	75,596
69,305	-18,583	170,782	75,663
70,320	-18,708	170,540	75,476
71,334	-18,702	170,456	75,435
72,349	-18,630	170,207	75,360
73,363	-18,837	170,045	75,162
74,378	-18,713	169,927	75,175
75,393	-18,729	169,711	75,063
76,407	-18,662	169,692	75,087
77,422	-18,887	169,598	74,909
78,436	-18,651	169,425	74,962
79,451	-18,759	169,084	74,742
80,466	-18,978	168,975	74,561
81,480	-18,690	168,834	74,658
82,495	-18,778	168,782	74,578
83,509	-18,731	168,733	74,576
84,524	-18,522	168,571	74,618
85,539	-18,620	168,298	74,435
86,553	-18,707	168,139	74,308
87,568	-18,645	168,086	74,313
88,582	-18,758	167,851	74,138
89,597	-18,900	167,847	74,048
90,611	-18,765	167,714	74,060
91,626	-18,512	167,468	74,089
92,641	-18,622	167,394	73,987
93,655	-18,572	167,225	73,934
94,670	-18,675	167,011	73,775
95,684	-18,777	166,860	73,643
96,699	-18,728	166,788	73,633
97,714	-18,609	166,764	73,683
98,728	-18,733	166,653	73,557
99,743	-18,556	166,430	73,552
100,757	-18,798	166,459	73,422
101,772	-18,809	166,234	73,310
102,787	-18,551	165,919	73,310
103,801	-18,686	165,911	73,224
104,816	-18,623	165,884	73,241
105,830	-18,684	165,650	73,096
106,845	-18,446	165,542	73,176
107,860	-18,680	165,357	72,957
108,874	-18,674	165,139	72,857
109,889	-18,644	165,009	72,810
110,903	-18,590	164,758	72,724
111,918	-18,503	164,690	72,735
112,933	-18,659	164,622	72,612
113,947	-18,572	164,586	72,638
114,962	-18,766	164,477	72,475
115,976	-18,583	164,234	72,463
116,991	-18,858	164,235	72,304
118,006	-18,642	163,884	72,263
119,020	-18,840	163,952	72,177
120,035	-18,541	163,760	72,252
121,049	-18,462	163,649	72,241
122,064	-18,749	163,489	72,004
123,079	-18,482	163,412	72,112
124,093	-18,744	163,201	71,867
125,108	-18,575	162,986	71,860
126,122	-18,601	163,017	71,853
127,137	-18,643	162,883	71,764
128,151	-18,552	162,873	71,803
129,166	-18,569	162,513	71,628
130,181	-18,507	162,355	71,587
131,195	-18,561	162,282	71,519
132,210	-18,494	162,110	71,473
133,224	-18,792	162,051	71,277
134,239	-18,505	161,777	71,308
135,254	-18,395	161,752	71,351
136,268	-18,568	161,732	71,240
137,283	-18,409	161,477	71,209
138,297	-18,578	161,329	71,045
139,312	-18,436	161,206	71,062
140,327	-18,722	161,014	70,815
141,341	-18,833	160,911	70,703
142,356	-18,859	160,773	70,622
143,370	-17,591	160,975	71,396
144,385	-11,456	162,394	75,394
145,400	-4,795	163,739	79,697
146,414	-2,678	164,250	81,111
147,429	-2,408	164,129	81,193
148,443	-2,247	163,954	81,188
149,458	-2,076	164,069	81,332
150,473	-2,048	163,992	81,303
151,487	-1,857	163,821	81,316
152,502	-1,674	163,505	81,252
153,516	-1,602	163,651	81,357
154,531	-1,865	163,497	81,129
155,546	-1,286	163,382	81,383
156,560	-1,705	163,244	81,077
157,575	-1,539	163,047	81,063
158,589	-1,566	163,008	81,021
159,604	-1,497	162,823	80,960
160,619	-1,706	162,794	80,824
161,633	-1,387	162,632	80,911
162,648	-1,006	162,487	81,039
163,662	-1,104	162,604	81,037
164,677	-1,056	162,357	80,933
165,692	-1,118	162,273	80,850
166,706	-1,031	162,235	80,871
167,721	-1,057	161,944	80,705
168,735	-1,373	162,067	80,587
169,750	-1,330	161,886	80,513
170,764	-1,122	161,717	80,535
171,779	-1,117	161,603	80,474
172,794	-1,084	161,455	80,411
173,808	-0,941	161,341	80,424
174,823	-1,203	161,340	80,274
175,837	-1,040	161,084	80,228
176,852	-1,127	161,047	80,156
177,867	-1,251	160,962	80,039
178,881	-1,108	160,821	80,039
179,896	-1,206	160,923	80,030
180,910	-1,082	160,565	79,911
181,925	-1,004	160,518	79,922
182,940	-1,157	160,253	79,702
183,954	-1,070	160,305	79,767
184,969	-1,269	160,243	79,622
185,983	-0,894	160,031	79,711
186,998	-0,973	160,005	79,649
188,013	-1,002	159,840	79,544
189,027	-1,107	159,798	79,459
190,042	-0,856	159,597	79,487
191,056	-0,666	159,356	79,461
192,071	-0,593	159,316	79,473
193,086	-0,717	159,274	79,379
194,100	-0,907	159,113	79,191
195,115	-0,884	158,979	79,129
196,129	-0,884	158,822	79,043
197,144	-0,931	158,783	78,992
198,159	-0,793	158,629	78,982
199,173	-0,939	158,528	78,847
200,188	-1,186	158,616	78,752
201,202	-0,621	158,323	78,899
202,217	-0,585	158,251	78,875
203,232	-0,734	158,030	78,679
204,246	-1,132	158,085	78,489
205,261	-1,137	158,045	78,460
206,275	-0,951	157,817	78,438
207,290	-1,047	157,585	78,265
208,304	-0,635	157,614	78,490
209,319	-0,659	157,414	78,371
210,334	-0,728	157,306	78,273
211,348	-1,071	157,288	78,077
212,363	-0,890	157,132	78,088
213,377	-0,396	157,039	78,294
214,392	-0,360	156,816	78,195
215,407	-0,487	156,816	78,121
216,421	-0,822	156,706	77,884
217,436	-0,815	156,577	77,817
218,450	-0,932	156,597	77,758
219,465	-0,666	156,542	77,863
220,480	-0,548	156,257	77,776
221,494	-0,730	156,245	77,668
222,509	-0,603	156,324	77,767
223,523	-0,392	155,989	77,703
224,538	-0,940	155,810	77,321
225,553	-0,603	155,596	77,384
226,567	-0,471	155,547	77,421
227,582	-0,620	155,518	77,322
228,596	-0,376	155,425	77,396
229,611	-0,533	155,376	77,283
230,626	-0,682	155,297	77,160
231,640	-0,457	154,922	77,083
232,655	-0,676	154,990	76,997
233,669	-0,916	155,040	76,890
234,684	-0,301	154,696	77,031
235,699	-0,464	154,692	76,937
236,713	-0,563	154,682	76,875
237,728	-0,566	154,735	76,892
238,742	-0,434	154,482	76,828
239,757	-0,422	154,347	76,760
240,772	-0,565	154,264	76,639
241,786	-0,439	154,156	76,643
242,801	-0,311	154,012	76,630
243,815	-0,816	153,970	76,343
244,830	-0,241	153,842	76,568
245,844	-0,187	153,748	76,542
246,859	-0,515	153,658	76,322
247,874	-0,534	153,543	76,249
248,888	-0,111	153,321	76,348
249,903	-0,438	153,306	76,166
250,917	-0,381	153,249	76,160
251,932	-0,366	153,157	76,115
252,947	-0,119	153,089	76,201
253,961	-0,419	152,926	75,960
254,976	-0,441	152,883	75,921
255,990	-0,297	152,710	75,901
257,005	-0,451	152,648	75,785
258,020	-0,215	152,448	75,799
259,034	-0,023	152,380	75,856
260,049	-0,430	152,337	75,621
261,063	-0,264	152,236	75,648
262,078	-0,160	152,080	75,617
263,093	-0,139	151,936	75,549
264,107	-0,281	151,998	75,502
265,122	-0,219	151,797	75,426
266,136	0,126	151,739	75,565
267,151	-0,368	151,703	75,291
268,166	-0,443	151,571	75,181
269,180	-0,217	151,359	75,183
270,195	-0,193	151,276	75,147
271,209	-0,210	151,195	75,092
272,224	-0,208	150,990	74,984
273,239	0,107	151,007	75,144
274,253	-0,408	150,839	74,796
275,268	-0,494	150,715	74,684
276,282	-0,088	150,609	74,828
277,297	-0,100	150,488	74,756
278,312	-0,307	150,335	74,569
279,326	-0,132	150,420	74,692
280,341	0,266	150,381	74,866
281,355	-0,042	150,167	74,598
282,370	-0,282	150,100	74,439
283,384	0,078	150,140	74,631
284,399	-0,197	149,926	74,381
285,414	0,198	149,852	74,535
286,428	0,128	149,807	74,471
287,443	0,026	149,683	74,352
288,457	-0,133	149,567	74,208
289,472	0,169	149,383	74,261
290,487	-0,023	149,259	74,097
291,501	0,135	149,201	74,140
292,516	-0,122	149,071	73,942
293,530	0,242	149,021	74,090
294,545	0,374	148,977	74,127
295,560	0,190	148,908	73,995
296,574	0,363	148,658	73,950
297,589	0,009	148,655	73,767
298,603	0,171	148,496	73,762
299,618	-0,224	148,719	73,670
300,633	0,077	148,385	73,647
301,647	0,048	148,268	73,568
302,662	0,261	148,136	73,600
303,676	-0,096	148,182	73,441
304,691	0,210	147,901	73,446
305,706	0,298	147,779	73,421
306,720	-0,127	147,728	73,181
307,735	0,226	147,667	73,318
308,749	0,522	147,531	73,389
309,764	0,233	147,654	73,302
310,779	0,104	147,530	73,170
311,793	0,229	147,241	73,081
312,808	0,168	147,382	73,115
313,822	0,211	147,024	72,952
314,837	-0,085	147,017	72,798
315,852	0,187	146,883	72,858
316,866	0,351	146,869	72,924
317,881	0,212	146,720	72,776
318,895	0,111	146,781	72,751
319,910	0,192	146,513	72,650
320,925	0,122	146,504	72,605
321,939	0,585	146,235	72,690
322,954	0,152	146,307	72,509
323,968	0,232	146,322	72,549
324,983	0,292	146,105	72,464
325,997	-0,086	146,105	72,275
327,012	0,509	145,785	72,397
328,027	0,062	145,761	72,163
329,041	0,145	145,631	72,132
330,056	0,138	145,619	72,117
331,070	0,344	145,448	72,125
332,085	0,662	145,430	72,262
333,100	0,701	145,090	72,106
334,114	0,594	145,036	72,021
335,129	0,313	145,122	71,923
336,143	0,693	145,043	72,059
337,158	0,283	144,989	71,829
338,173	0,487	144,951	71,902
339,187	0,676	144,786	71,904
340,202	0,545	144,781	71,833
341,216	0,573	144,540	71,720
342,231	0,504	144,355	71,588
343,246	0,744	144,381	71,710
344,260	0,602	144,431	71,661
345,275	0,529	144,254	71,531
346,289	0,488	144,185	71,471
347,304	0,440	144,052	71,376
348,319	0,642	143,938	71,410
349,333	0,654	143,718	71,299
350,348	0,515	143,721	71,229
351,362	0,745	143,583	71,263
352,377	0,673	143,442	71,153
353,392	0,882	143,524	71,286
354,406	0,923	143,233	71,154
355,421	193,557	1321,830	1392,479
356,435	152,556	1465,871	1392,937
