DTS Sentinel unit serial number:	SN410029Multiplexer serial number:	ORYXHardware model number:	OX2-SRSoftware version number:	ORYX F/W v4,00 Oryx Data Collector v3.7.2.0data status	okinstallation	B3 Nyhavnadifferential loss correction	single-endedforward channel	channel 1reverse channel	N/Adate	2023/11/28time	13:22:30forward acquisition time	300,00reverse acquisition time	0,00gamma	499,1914k internal	0,3138k external	0,3138temperature offset calibration	1,0000default loss term (dB/km)	0,3820temperature slope calibration	1,0000multiplexer offset coefficient	1,0000multiplexer slope coefficient	1,0000fibre end	0,00T internal ref (°C)	7,92T ext. ref 1 (°C)	-7,67T ext. ref 2 (°C)	-7,84length (m)	temperature (°C)	Stokes	anti-Stokes-744,400	71,648	-0,310	-0,239
-743,385	800,000	-0,107	0,284
-742,371	230,451	-0,152	-0,184
-741,356	-200,000	-0,043	0,365
-740,342	381,868	-0,144	-0,220
-739,327	491,737	0,062	0,107
-738,312	534,596	-0,209	-0,368
-737,298	-200,000	-0,006	0,294
-736,283	-200,000	-0,112	-0,431
-735,269	-200,000	-0,052	0,280
-734,254	500,660	-0,209	-0,359
-733,239	-49,487	-0,259	0,091
-732,225	800,000	0,054	-0,163
-731,210	117,279	0,144	0,131
-730,196	752,341	0,055	-0,111
-729,181	-7,472	-0,045	-0,023
-728,167	46,993	0,112	0,077
-727,152	28,853	0,044	0,028
-726,137	-143,287	-0,107	-0,007
-725,123	229,382	-0,004	0,005
-724,108	465,204	-0,140	-0,233
-723,094	-63,749	0,067	-0,020
-722,079	-52,466	-0,121	-0,041
-721,064	87,648	-0,107	-0,087
-720,050	-200,000	-0,013	-0,088
-719,035	229,083	-0,079	-0,096
-718,021	-200,000	-0,010	0,134
-717,006	397,530	-0,031	-0,048
-715,991	16,789	-0,136	-0,080
-714,977	-90,339	-0,027	0,006
-713,962	800,000	0,021	0,065
-712,948	-200,000	0,021	-0,204
-711,933	96,593	-0,034	-0,029
-710,918	24,634	-0,123	0,075
-709,904	800,000	-0,050	-0,145
-708,889	18,220	0,049	-0,029
-707,875	511,880	-0,058	-0,101
-706,860	800,000	0,037	-0,080
-705,845	-200,000	-0,012	0,048
-704,831	-200,000	-0,008	-0,037
-703,816	-200,000	0,013	-0,129
-702,802	-200,000	0,003	-0,065
-701,787	-85,655	0,063	-0,014
-700,772	237,170	-0,031	0,038
-699,758	15,007	0,154	0,089
-698,743	379,861	-0,091	0,138
-697,729	-200,000	0,023	0,083
-696,714	80,030	0,101	-0,080
-695,699	653,177	0,015	-0,028
-694,685	47,092	-0,090	-0,062
-693,670	-110,834	-0,051	0,008
-692,656	31,525	-0,042	0,027
-691,641	-172,670	-0,078	-0,002
-690,627	800,000	0,014	0,032
-689,612	-200,000	0,006	-0,108
-688,597	-200,000	-0,046	-0,176
-687,583	485,724	-0,006	-0,010
-686,568	-111,683	-0,092	0,014
-685,554	105,903	-0,102	-0,089
-684,539	22,209	-0,117	-0,071
-683,524	319,505	0,049	-0,069
-682,510	174,363	-0,042	-0,045
-681,495	512,978	-0,019	-0,033
-680,481	-145,576	-0,060	-0,004
-679,466	-123,241	0,014	0,002
-678,451	314,663	0,034	-0,048
-677,437	12,783	0,103	-0,059
-676,422	45,758	0,023	-0,015
-675,408	183,245	0,021	-0,023
-674,393	528,841	0,070	-0,123
-673,378	65,112	-0,078	-0,058
-672,364	34,205	-0,143	-0,092
-671,349	9,795	-0,063	0,035
-670,335	393,529	-0,075	-0,116
-669,320	53,921	0,045	-0,032
-668,305	350,184	-0,127	0,186
-667,291	-16,338	-0,092	-0,043
-666,276	-32,085	-0,052	-0,021
-665,262	394,978	-0,190	-0,293
-664,247	639,904	-0,081	0,154
-663,232	-82,983	0,129	0,031
-662,218	-200,000	0,008	-0,037
-661,203	-69,296	-0,070	0,020
-660,189	-200,000	-0,040	0,168
-659,174	-200,000	0,004	0,112
-658,159	542,080	0,027	-0,048
-657,145	-77,251	0,032	0,008
-656,130	-200,000	0,009	-0,106
-655,116	-103,749	0,050	-0,009
-654,101	-51,838	0,122	0,042
-653,086	-49,783	-0,052	0,018
-652,072	624,778	0,022	0,040
-651,057	-200,000	-0,008	-0,192
-650,043	196,488	0,097	-0,109
-649,028	-200,000	-0,017	-0,056
-648,014	-113,557	0,092	-0,013
-646,999	189,955	0,068	-0,075
-645,984	-63,314	0,126	0,038
-644,970	800,000	0,032	-0,069
-643,955	800,000	-0,067	-0,149
-642,941	-200,000	-0,008	-0,064
-641,926	527,836	-0,050	0,087
-640,911	-62,964	-0,068	-0,021
-639,897	-164,706	-0,070	-0,002
-638,882	112,813	0,083	0,074
-637,868	-200,000	-0,003	0,018
-636,853	-18,446	-0,168	-0,077
-635,838	192,178	-0,146	-0,163
-634,824	-200,000	-0,006	-0,103
-633,809	103,556	-0,099	0,085
-632,795	-200,000	0,017	-0,116
-631,780	-200,000	0,020	0,092
-630,765	-200,000	0,006	-0,105
-629,751	139,430	-0,150	-0,146
-628,736	-51,169	-0,081	-0,028
-627,722	131,977	-0,077	-0,074
-626,707	-67,124	0,139	-0,040
-625,692	127,659	0,057	-0,053
-624,678	-30,894	-0,061	-0,025
-623,663	800,000	-0,048	0,110
-622,649	192,251	0,106	-0,118
-621,634	800,000	0,056	-0,153
-620,619	-200,000	-0,046	-0,179
-619,605	55,013	0,055	0,040
-618,590	-49,441	0,045	0,016
-617,576	-200,000	0,027	0,188
-616,561	-200,000	-0,026	-0,112
-615,546	-110,808	-0,129	0,019
-614,532	17,388	0,033	-0,019
-613,517	-200,000	0,022	-0,087
-612,503	-200,000	-0,048	-0,180
-611,488	238,620	0,096	0,118
-610,474	-200,000	-0,183	-0,000
-609,459	-200,000	0,012	0,055
-608,444	8,003	0,073	-0,041
-607,430	-200,000	-0,016	0,169
-606,415	-136,698	-0,135	0,011
-605,401	116,481	-0,014	0,013
-604,386	699,316	0,111	0,216
-603,371	800,000	-0,036	0,103
-602,357	-5,216	-0,105	-0,053
-601,342	-25,267	-0,080	-0,035
-600,328	-200,000	0,002	-0,010
-599,313	236,797	0,108	-0,132
-598,298	776,469	-0,056	-0,113
-597,284	-200,000	0,024	-0,081
-596,269	37,984	-0,026	-0,017
-595,255	-116,912	-0,122	-0,016
-594,240	-200,000	-0,001	-0,136
-593,225	673,901	0,040	0,076
-592,211	58,938	-0,099	-0,072
-591,196	-9,589	0,049	0,024
-590,182	3,726	0,102	0,055
-589,167	-21,311	0,124	0,056
-588,152	382,624	0,025	-0,038
-587,138	-200,000	-0,015	-0,101
-586,123	438,044	-0,065	0,105
-585,109	625,744	0,069	-0,129
-584,094	-200,000	0,045	0,000
-583,079	-197,545	0,118	0,001
-582,065	-75,069	0,142	0,037
-581,050	-200,000	-0,002	0,027
-580,036	50,250	0,045	-0,031
-579,021	800,000	-0,016	-0,037
-578,006	800,000	0,016	-0,052
-576,992	-125,997	0,108	-0,012
-575,977	652,305	0,021	-0,040
-574,963	800,000	0,047	0,110
-573,948	270,646	-0,049	0,063
-572,934	69,003	-0,163	-0,123
-571,919	49,894	-0,101	0,070
-570,904	800,000	-0,019	-0,041
-569,890	-135,087	-0,182	0,016
-568,875	543,188	0,040	0,071
-567,861	-200,000	0,014	0,080
-566,846	800,000	0,053	0,110
-565,831	318,145	-0,071	0,100
-564,817	-23,743	-0,026	-0,011
-563,802	32,560	0,072	0,046
-562,788	11,621	0,057	0,032
-561,773	-135,040	0,054	0,005
-560,758	-161,035	-0,075	-0,003
-559,744	134,757	0,086	0,082
-558,729	118,282	-0,081	0,073
-557,715	-200,000	-0,003	-0,032
-556,700	-200,000	0,010	-0,083
-555,685	-103,180	-0,038	-0,007
-554,671	-149,348	-0,083	-0,005
-553,656	476,130	0,122	0,204
-552,642	118,445	-0,053	-0,049
-551,627	-200,000	-0,015	-0,069
-550,612	28,963	0,025	0,016
-549,598	536,637	-0,038	0,067
-548,583	-48,544	-0,071	-0,025
-547,569	676,678	0,041	-0,079
-546,554	-200,000	0,002	0,053
-545,539	439,854	0,052	0,084
-544,525	-200,000	0,030	0,099
-543,510	-200,000	0,037	0,135
-542,496	-200,000	0,008	-0,117
-541,481	-200,000	-0,018	-0,087
-540,466	130,813	0,060	0,057
-539,452	-200,000	-0,016	-0,053
-538,437	-200,000	-0,007	0,121
-537,423	548,582	0,061	0,108
-536,408	800,000	-0,048	-0,154
-535,393	-29,369	-0,070	-0,029
-534,379	181,023	0,105	-0,114
-533,364	424,682	-0,060	0,095
-532,350	42,848	0,055	0,037
-531,335	733,987	-0,042	0,083
-530,321	145,334	-0,038	-0,037
-529,306	601,428	0,040	0,073
-528,291	800,000	0,051	-0,160
-527,277	-200,000	0,007	-0,155
-526,262	800,000	-0,072	0,188
-525,248	108,572	0,104	0,092
-524,233	-73,384	-0,062	0,017
-523,218	-154,354	-0,101	0,005
-522,204	-65,900	-0,050	-0,015
-521,189	63,951	-0,036	0,027
-520,175	74,091	0,049	-0,038
-519,160	351,697	0,075	-0,109
-518,145	-135,403	0,080	0,007
-517,131	-200,000	0,005	-0,090
-516,116	-97,428	0,037	-0,007
-515,102	-183,328	-0,150	-0,002
-514,087	-75,490	0,126	0,033
-513,072	-2,905	-0,017	-0,009
-512,058	-200,000	0,025	-0,121
-511,043	131,648	-0,122	0,115
-510,029	190,395	-0,102	0,112
-509,014	-76,296	-0,071	-0,018
-507,999	800,000	-0,020	0,063
-506,985	375,011	-0,022	-0,032
-505,970	-200,000	-0,029	-0,105
-504,956	-200,000	-0,003	0,034
-503,941	-200,000	0,014	0,125
-502,926	0,780	0,108	0,057
-501,912	-56,814	-0,110	0,036
-500,897	170,300	0,081	0,085
-499,883	-200,000	0,000	-0,074
-498,868	505,572	-0,057	0,098
-497,853	40,424	0,089	-0,059
-496,839	-73,430	0,088	-0,023
-495,824	-177,469	-0,073	0,001
-494,810	-72,149	0,098	0,027
-493,795	34,086	-0,089	-0,057
-492,781	46,294	0,071	0,048
-491,766	-154,641	0,016	-0,001
-490,751	-102,348	-0,108	0,019
-489,737	-82,089	0,109	-0,026
-488,722	39,671	0,100	0,066
-487,708	-191,831	-0,043	0,000
-486,693	-200,000	-0,014	-0,086
-485,678	-45,267	0,028	-0,010
-484,664	17,946	-0,061	-0,035
-483,649	83,358	-0,121	-0,096
-482,635	413,031	0,079	0,124
-481,620	-36,028	0,079	0,031
-480,605	152,835	0,038	0,038
-479,591	552,946	0,040	0,072
-478,576	800,000	0,011	-0,034
-477,562	-200,000	0,002	-0,045
-476,547	17,195	0,066	0,038
-475,532	-200,000	-0,018	-0,066
-474,518	315,837	0,115	0,159
-473,503	-90,603	0,220	-0,046
-472,489	176,419	-0,025	0,027
-471,474	154,736	-0,103	-0,104
-470,459	-200,000	-0,011	-0,058
-469,445	50,284	-0,080	-0,055
-468,430	-200,000	0,037	-0,124
-467,416	761,930	-0,034	0,068
-466,401	-40,106	0,056	0,021
-465,386	800,000	0,034	0,093
-464,372	800,000	0,034	0,089
-463,357	-200,000	0,023	-0,082
-462,343	-200,000	0,036	-0,140
-461,328	-26,057	0,047	-0,020
-460,313	139,710	0,048	-0,046
-459,299	260,433	0,056	-0,071
-458,284	228,512	-0,050	-0,060
-457,270	800,000	0,021	0,048
-456,255	-96,324	-0,026	-0,005
-455,241	-199,835	0,145	0,001
-454,226	800,000	0,052	-0,112
-453,211	800,000	0,034	-0,079
-452,197	-21,209	0,081	-0,036
-451,182	11,281	0,019	0,011
-450,168	99,099	-0,009	0,008
-449,153	-89,389	0,091	0,020
-448,138	-200,000	-0,004	-0,037
-447,124	275,640	-0,051	0,067
-446,109	86,143	0,046	0,037
-445,095	268,586	0,038	0,049
-444,080	249,272	0,077	0,096
-443,065	-200,000	0,035	0,131
-442,051	-200,000	-0,016	0,080
-441,036	-162,458	0,190	0,007
-440,022	800,000	-0,010	-0,028
-439,007	-105,935	0,034	0,005
-437,992	242,995	-0,026	-0,033
-436,978	-200,000	0,003	0,060
-435,963	-92,379	0,024	0,005
-434,949	-200,000	-0,006	0,093
-433,934	160,886	-0,043	0,044
-432,919	-63,041	-0,117	-0,035
-431,905	88,342	0,056	0,046
-430,890	39,575	0,101	-0,067
-429,876	399,300	0,021	-0,032
-428,861	800,000	-0,021	0,048
-427,846	800,000	-0,019	0,044
-426,832	800,000	-0,027	-0,082
-425,817	593,279	-0,027	0,049
-424,803	-2,656	0,107	-0,055
-423,788	-26,068	-0,099	0,043
-422,773	-200,000	-0,006	-0,071
-421,759	-200,000	0,017	0,114
-420,744	451,883	0,023	-0,037
-419,730	-125,908	-0,041	0,004
-418,715	-62,647	-0,169	-0,051
-417,701	331,124	-0,041	0,058
-416,686	-200,000	-0,015	-0,062
-415,671	-200,000	0,018	0,115
-414,657	450,355	0,034	0,055
-413,642	-200,000	0,003	-0,108
-412,628	-71,574	-0,099	-0,027
-411,613	56,917	0,061	-0,044
-410,598	-200,000	0,021	-0,186
-409,584	-57,099	-0,057	-0,018
-408,569	529,982	-0,030	0,052
-407,555	193,669	0,081	0,090
-406,540	199,531	-0,029	-0,032
-405,525	6,931	-0,023	0,012
-404,511	59,272	-0,048	0,035
-403,496	237,340	-0,046	-0,056
-402,482	-58,423	-0,142	0,045
-401,467	800,000	-0,030	0,065
-400,452	631,747	0,051	0,095
-399,438	-93,313	-0,020	0,004
-398,423	-64,803	0,061	0,018
-397,409	221,059	-0,092	0,108
-396,394	418,306	-0,057	0,089
-395,379	108,435	-0,108	-0,094
-394,365	-200,000	0,002	-0,040
-393,350	-17,972	-0,057	0,026
-392,336	715,299	0,083	0,162
-391,321	151,870	-0,018	0,018
-390,306	431,345	-0,075	-0,119
-389,292	254,143	-0,068	-0,086
-388,277	-140,951	0,109	0,008
-387,263	800,000	0,039	-0,084
-386,248	-175,657	-0,051	-0,001
-385,233	743,094	-0,047	0,092
-384,219	-1,652	-0,107	-0,055
-383,204	147,997	0,124	-0,122
-382,190	-72,904	0,091	-0,024
-381,175	58,179	0,060	0,043
-380,160	746,243	0,034	0,067
-379,146	11,250	0,064	0,036
-378,131	-200,000	0,012	0,107
-377,117	257,664	0,053	0,067
-376,102	-134,161	-0,063	0,006
-375,088	229,960	-0,057	-0,068
-374,073	34,795	-0,045	0,028
-373,058	209,762	0,059	0,067
-372,044	-90,664	0,042	0,009
-371,029	800,000	-0,055	0,120
-370,015	-200,000	-0,040	-0,148
-369,000	-200,000	-0,029	-0,140
-367,985	-12,418	-0,042	0,020
-366,971	91,195	-0,060	-0,050
-365,956	69,149	-0,028	-0,021
-364,942	-178,511	-0,133	-0,002
-363,927	-95,054	0,139	-0,027
-362,912	394,198	0,059	0,090
-361,898	235,269	-0,027	-0,032
-360,883	216,065	-0,060	0,070
-359,869	800,000	0,066	0,146
-358,854	247,240	-0,058	-0,071
-357,839	-50,309	0,042	0,014
-356,825	117,795	-0,083	0,075
-355,810	174,377	-0,033	0,035
-354,796	232,869	-0,024	-0,029
-353,781	-14,039	-0,046	-0,022
-352,766	-107,276	-0,067	0,011
-351,752	-62,177	0,044	0,013
-350,737	4,214	0,029	-0,015
-349,723	-71,655	-0,173	-0,047
-348,708	519,189	0,047	-0,081
-347,693	96,823	0,125	-0,105
-346,679	66,597	-0,147	-0,109
-345,664	48,077	0,136	0,093
-344,650	254,395	-0,084	-0,105
-343,635	-37,734	0,124	0,048
-342,620	-10,007	-0,062	0,030
-341,606	163,278	-0,039	-0,040
-340,591	-66,719	-0,099	-0,028
-339,577	748,038	-0,050	-0,099
-338,562	800,000	-0,022	-0,045
-337,548	392,742	-0,096	-0,145
-336,533	-200,000	0,012	-0,087
-335,518	-27,471	0,073	0,031
-334,504	89,700	0,073	-0,059
-333,489	-94,924	0,024	0,005
-332,475	316,638	-0,077	-0,106
-331,460	-200,000	-0,016	0,123
-330,445	-29,313	0,151	-0,063
-329,431	-36,487	0,176	0,069
-328,416	-40,726	0,116	0,044
-327,402	25,957	0,159	0,097
-326,387	624,929	-0,040	0,074
-325,372	-82,256	-0,072	0,017
-324,358	800,000	-0,041	-0,098
-323,343	327,246	-0,013	-0,018
-322,329	-126,442	0,085	0,009
-321,314	800,000	0,053	0,117
-320,299	-12,268	0,102	-0,048
-319,285	-200,000	0,019	-0,100
-318,270	544,387	0,046	-0,081
-317,256	-200,000	-0,005	-0,026
-316,241	-45,205	0,143	-0,052
-315,226	-126,564	0,097	-0,010
-314,212	620,767	0,044	0,080
-313,197	440,178	-0,046	0,073
-312,183	-200,000	-0,006	-0,123
-311,168	154,532	0,023	-0,023
-310,153	448,911	-0,005	0,007
-309,139	-200,000	-0,025	0,101
-308,124	-200,000	0,014	-0,048
-307,110	800,000	0,015	-0,037
-306,095	246,202	0,058	0,072
-305,080	95,941	0,034	-0,028
-304,066	800,000	-0,029	0,079
-303,051	-89,183	-0,025	0,005
-302,037	-136,566	0,098	-0,008
-301,022	87,874	-0,036	0,029
-300,008	800,000	0,043	0,102
-298,993	104,335	0,033	0,028
-297,978	257,990	0,068	0,085
-296,964	-164,643	0,016	0,001
-295,949	127,192	-0,177	-0,163
-294,935	800,000	-0,017	-0,042
-293,920	800,000	-0,002	-0,006
-292,905	-200,000	-0,002	-0,047
-291,891	-55,950	0,182	0,059
-290,876	-94,691	-0,117	-0,023
-289,862	500,112	-0,059	0,100
-288,847	-171,950	-0,117	-0,003
-287,832	209,403	0,040	-0,046
-286,818	113,429	0,058	-0,051
-285,803	-200,000	-0,001	-0,008
-284,789	92,094	0,014	-0,012
-283,774	117,265	-0,013	0,011
-282,759	89,568	-0,062	-0,051
-281,745	365,643	0,075	0,110
-280,730	800,000	-0,026	0,067
-279,716	-65,572	0,162	0,047
-278,701	-103,949	0,126	-0,021
-277,686	143,797	0,077	0,075
-276,672	20,599	0,097	-0,057
-275,657	-0,290	-0,099	-0,051
-274,643	800,000	0,028	-0,080
-273,628	176,957	-0,040	-0,042
-272,613	-35,130	0,082	-0,032
-271,599	-55,274	0,040	-0,013
-270,584	800,000	-0,011	-0,034
-269,570	-145,538	0,048	-0,003
-268,555	800,000	0,034	0,072
-267,540	800,000	-0,030	-0,097
-266,526	388,719	-0,122	0,184
-265,511	-200,000	-0,011	0,113
-264,497	-200,000	-0,034	0,159
-263,482	800,000	0,033	0,085
-262,467	335,722	0,104	0,148
-261,453	-100,798	-0,088	-0,016
-260,438	-140,539	-0,137	0,010
-259,424	48,781	0,119	-0,081
-258,409	7,319	-0,120	0,065
-257,395	-43,065	0,033	0,012
-256,380	-200,000	-0,004	0,056
-255,365	-52,311	0,078	-0,026
-254,351	-135,899	-0,070	-0,006
-253,336	26,578	-0,150	-0,091
-252,322	702,212	0,040	-0,076
-251,307	100,627	0,096	-0,081
-250,292	-200,000	-0,012	-0,067
-249,278	248,478	0,032	0,039
-248,263	-53,809	-0,094	-0,031
-247,249	-200,000	0,019	0,192
-246,234	-200,000	0,024	-0,081
-245,219	-135,388	-0,047	0,004
-244,205	800,000	-0,024	0,055
-243,190	67,507	0,073	0,054
-242,176	-200,000	0,027	0,098
-241,161	375,381	0,069	0,103
-240,146	645,315	0,011	-0,020
-239,132	-11,437	-0,112	-0,053
-238,117	54,848	-0,143	-0,101
-237,103	-14,291	0,116	-0,054
-236,088	-146,507	-0,011	-0,001
-235,073	106,805	-0,025	0,022
-234,059	-80,705	0,094	-0,022
-233,044	250,910	-0,119	-0,147
-232,030	229,430	-0,119	-0,142
-231,015	800,000	0,026	-0,053
-230,000	76,257	-0,039	-0,030
-228,986	-200,000	-0,001	-0,025
-227,971	-117,385	-0,031	0,004
-226,957	-200,000	-0,027	0,091
-225,942	-200,000	0,031	0,131
-224,927	143,352	0,131	0,126
-223,913	154,323	-0,102	0,102
-222,898	84,690	-0,140	0,111
-221,884	800,000	0,038	0,111
-220,869	800,000	0,028	0,087
-219,855	800,000	-0,024	-0,055
-218,840	129,312	-0,038	0,035
-217,825	-84,281	0,103	0,023
-216,811	-55,912	-0,086	0,028
-215,796	-111,574	-0,226	-0,033
-214,782	230,165	0,072	0,086
-213,767	73,378	0,048	0,036
-212,752	19,742	-0,044	0,026
-211,738	800,000	-0,020	0,044
-210,723	88,784	-0,108	0,087
-209,709	-71,771	-0,018	-0,005
-208,694	30,364	-0,109	-0,067
-207,679	14,452	-0,032	0,018
-206,665	350,851	0,033	-0,047
-205,650	-83,804	0,208	0,048
-204,636	-111,886	-0,024	0,003
-203,621	-163,839	-0,054	0,002
-202,606	800,000	-0,029	-0,072
-201,592	420,880	0,019	-0,029
-200,577	-200,000	0,006	-0,034
-199,563	-151,112	0,016	-0,001
-198,548	117,444	-0,057	-0,051
-197,533	-171,126	0,145	-0,003
-196,519	-200,000	-0,034	0,216
-195,504	173,713	-0,065	0,068
-194,490	-134,854	-0,107	0,009
-193,475	-200,000	-0,006	-0,079
-192,460	800,000	0,020	0,044
-191,446	-200,000	0,023	0,098
-190,431	-49,140	-0,043	-0,015
-189,417	46,196	0,100	-0,067
-188,402	-165,827	-0,041	0,001
-187,387	800,000	0,025	-0,056
-186,373	-200,000	0,029	0,000
-185,358	-94,378	-0,128	-0,025
-184,344	-41,881	-0,058	0,021
-183,329	-200,000	-0,010	-0,033
-182,315	-17,082	-0,062	0,028
-181,300	-195,309	-0,058	0,000
-180,285	698,766	0,030	-0,057
-179,271	-70,169	-0,123	-0,034
-178,256	-200,000	-0,001	-0,005
-177,242	57,517	0,042	-0,030
-176,227	97,242	0,149	0,124
-175,212	-156,701	-0,042	-0,002
-174,198	800,000	-0,021	-0,066
-173,183	-102,529	-0,048	0,008
-172,169	-200,000	-0,028	-0,142
-171,154	232,285	0,071	-0,085
-170,139	800,000	0,031	-0,077
-169,125	-200,000	-0,005	0,105
-168,110	-70,099	0,155	-0,043
-167,096	-166,898	-0,218	0,006
-166,081	261,727	-0,049	0,061
-165,066	-104,047	-0,143	-0,024
-164,052	800,000	0,033	-0,085
-163,037	81,481	0,080	-0,063
-162,023	-200,000	0,002	0,031
-161,008	-66,556	0,083	0,024
-159,993	-11,360	-0,159	0,075
-158,979	-84,863	-0,216	0,049
-157,964	-200,000	0,010	-0,097
-156,950	118,696	0,130	-0,116
-155,935	-200,000	-0,021	-0,088
-154,920	-105,629	0,078	-0,013
-153,906	800,000	0,054	0,152
-152,891	-40,686	0,052	0,020
-151,877	525,924	-0,017	0,029
-150,862	-138,133	-0,045	-0,004
-149,847	239,905	0,073	-0,088
-148,833	59,092	0,032	-0,023
-147,818	223,684	-0,060	-0,070
-146,804	-200,000	0,047	0,224
-145,789	-56,982	-0,065	-0,021
-144,775	-52,994	-0,052	-0,017
-143,760	-200,000	0,022	-0,118
-142,745	800,000	0,011	0,032
-141,731	-42,444	0,072	-0,026
-140,716	-147,224	-0,078	0,005
-139,702	-200,000	-0,003	0,069
-138,687	17,208	-0,095	0,055
-137,672	110,057	0,102	-0,088
-136,658	-200,000	0,008	-0,073
-135,643	800,000	-0,044	-0,130
-134,629	-39,903	0,027	-0,010
-133,614	-111,378	0,119	0,017
-132,599	477,069	-0,074	0,121
-131,585	-123,050	-0,198	-0,023
-130,570	39,953	0,070	0,046
-129,556	-183,871	-0,105	0,001
-128,541	800,000	-0,043	-0,088
-127,526	-116,530	0,069	0,009
-126,512	-193,486	0,139	0,001
-125,497	-69,903	0,103	-0,028
-124,483	-200,000	-0,053	0,178
-123,468	-96,607	0,036	-0,007
-122,453	-12,861	-0,144	0,068
-121,439	717,530	-0,062	-0,120
-120,424	800,000	-0,028	-0,063
-119,410	50,377	0,095	-0,065
-118,395	-39,563	0,033	0,013
-117,380	-200,000	0,006	0,075
-116,366	-60,197	-0,098	-0,030
-115,351	800,000	-0,017	-0,038
-114,337	-135,629	0,108	0,009
-113,322	-200,000	0,005	-0,133
-112,307	-147,546	-0,059	0,004
-111,293	83,614	0,103	0,081
-110,278	-97,553	-0,025	0,005
-109,264	420,668	0,033	0,051
-108,249	199,641	0,058	0,065
-107,234	-200,000	-0,045	0,170
-106,220	329,867	0,084	-0,117
-105,205	-200,000	-0,036	0,134
-104,191	462,604	0,032	0,051
-103,176	-200,000	0,041	0,150
-102,162	-30,383	0,086	0,035
-101,147	-1,394	-0,105	0,054
-100,132	-200,000	-0,003	0,118
-99,118	-88,324	-0,167	0,036
-98,103	-33,723	0,134	0,053
-97,089	-27,356	-0,116	-0,048
-96,074	800,000	0,032	-0,091
-95,059	470,345	-0,090	-0,148
-94,045	29,195	0,106	0,065
-93,030	24,776	-0,068	-0,041
-92,016	-104,970	-0,093	-0,015
-91,001	800,000	-0,028	0,064
-89,986	722,762	0,025	-0,048
-88,972	-103,325	0,099	-0,017
-87,957	371,820	-0,044	-0,065
-86,943	196,284	-0,049	-0,054
-85,928	-123,695	-0,071	0,008
-84,913	295,308	0,107	-0,142
-83,899	259,170	0,067	-0,084
-82,884	-52,195	0,149	-0,050
-81,870	457,040	-0,028	-0,045
-80,855	-146,224	-0,063	0,004
-79,840	472,684	-0,027	-0,044
-78,826	-154,276	-0,111	-0,005
-77,811	-25,298	-0,059	0,025
-76,797	86,731	0,024	0,019
-75,782	-96,456	0,098	-0,018
-74,767	-119,339	0,172	0,021
-73,753	295,035	-0,063	0,083
-72,738	-122,441	-0,052	-0,006
-71,724	-200,000	0,001	0,009
-70,709	-200,000	0,004	-0,138
-69,694	258,025	0,106	-0,132
-68,680	-76,362	0,082	0,021
-67,665	800,000	0,058	0,128
-66,651	225,557	-0,026	0,031
-65,636	98,233	-0,102	0,085
-64,622	-95,543	-0,045	0,009
-63,607	21,117	-0,105	-0,061
-62,592	-18,666	0,023	-0,011
-61,578	-4,662	-0,132	0,066
-60,563	-200,000	-0,002	0,094
-59,549	119,400	-0,064	0,057
-58,534	68,405	-2,185	-1,616
-57,519	617,102	-1,019	-1,856
-56,505	-200,000	-0,268	-4,301
-55,490	651,095	1,005	1,867
-54,476	800,000	5,197	11,349
-53,461	-200,000	22,315	345,580
-52,446	800,000	753,497	2288,653
-51,432	504,603	1636,958	2746,771
-50,417	66,373	1570,341	1150,740
-49,403	18,525	1161,869	668,919
-48,388	11,060	893,699	491,889
-47,373	25,962	862,414	518,060
-46,359	16,758	848,019	483,105
-45,344	7,989	844,032	455,672
-44,330	7,864	842,436	454,433
-43,315	7,834	841,091	453,604
-42,300	7,895	839,589	452,949
-41,286	7,907	838,673	452,472
-40,271	7,818	837,755	451,704
-39,257	7,890	836,734	451,340
-38,242	8,013	835,844	451,194
-37,227	7,918	834,936	450,415
-36,213	7,930	834,097	449,978
-35,198	7,837	833,495	449,373
-34,184	7,977	832,608	449,274
-33,169	7,843	831,661	448,365
-32,154	7,960	831,069	448,360
-31,140	8,018	829,889	447,870
-30,125	8,058	828,927	447,444
-29,111	7,898	828,552	446,774
-28,096	7,867	828,223	446,490
-27,082	7,941	827,314	446,191
-26,067	7,943	826,435	445,706
-25,052	7,941	825,661	445,264
-24,038	7,885	825,300	444,896
-23,023	7,872	824,601	444,464
-22,009	7,961	823,985	444,363
-20,994	7,957	823,361	443,997
-19,979	8,008	822,650	443,741
-18,965	7,952	822,209	443,328
-17,950	7,976	821,635	443,068
-16,936	7,970	821,037	442,712
-15,921	7,910	820,314	442,136
-14,906	7,921	819,544	441,736
-13,892	7,920	819,094	441,472
-12,877	7,803	818,575	440,847
-11,863	7,721	818,161	440,380
-10,848	7,773	817,519	440,161
-9,833	7,926	817,110	440,348
-8,819	7,922	816,337	439,903
-7,804	8,023	815,560	439,747
-6,790	7,953	815,291	439,392
-5,775	7,894	815,079	439,095
-4,760	7,851	814,449	438,619
-3,746	7,861	814,112	438,447
-2,731	7,712	813,392	437,630
-1,717	7,644	813,080	437,258
-0,702	7,733	812,306	437,069
0,313	7,742	809,472	436,230
1,327	11,148	793,354	436,704
2,342	19,406	646,415	373,867
3,356	13,195	356,427	198,639
4,371	-15,802	240,514	110,125
5,386	-18,788	226,414	101,326
6,400	-18,957	222,099	99,257
7,415	-17,905	220,160	99,181
8,429	-19,087	218,936	97,727
9,444	-19,136	218,036	97,280
10,459	-19,031	217,641	97,174
11,473	-19,096	217,033	96,845
12,488	-19,041	216,577	96,674
13,502	-19,228	216,115	96,320
14,517	-19,054	215,670	96,242
15,531	-19,037	215,311	96,086
16,546	-18,749	214,991	96,149
17,561	-19,112	214,603	95,698
18,575	-19,124	214,551	95,657
19,590	-19,321	214,176	95,336
20,604	-19,027	213,893	95,418
21,619	-18,866	213,448	95,330
22,634	-19,188	213,077	94,919
23,648	-19,139	213,002	94,913
24,663	-19,399	212,821	94,634
25,677	-19,237	212,395	94,554
26,692	-19,073	212,304	94,625
27,707	-18,855	211,908	94,600
28,721	-19,076	211,648	94,313
29,736	-19,240	211,682	94,201
30,750	-19,379	211,213	93,883
31,765	-19,092	211,150	94,055
32,780	-19,099	210,893	93,927
33,794	-18,942	210,698	93,946
34,809	-18,894	210,395	93,837
35,823	-19,165	210,258	93,571
36,838	-18,870	210,038	93,678
37,853	-19,255	209,875	93,319
38,867	-18,917	209,403	93,345
39,882	-18,872	209,320	93,331
40,896	-19,020	209,219	93,172
41,911	-19,198	209,025	92,949
42,926	-19,039	208,833	92,970
43,940	-19,068	208,682	92,873
44,955	-19,156	208,445	92,696
45,969	-19,217	208,105	92,494
46,984	-18,894	208,066	92,699
47,999	-18,942	207,998	92,626
49,013	-19,110	207,772	92,397
50,028	-18,758	207,481	92,510
51,042	-19,047	207,235	92,186
52,057	-19,032	207,221	92,183
53,071	-19,153	207,005	91,992
54,086	-19,055	206,914	92,014
55,101	-18,788	206,503	92,012
56,115	-18,963	206,353	91,813
57,130	-19,047	206,219	91,686
58,144	-18,953	205,991	91,642
59,159	-19,089	205,801	91,454
60,174	-19,199	205,570	91,265
61,188	-19,358	205,352	91,048
62,203	-18,961	205,053	91,187
63,217	-19,061	204,966	91,070
64,232	-19,253	204,981	90,933
65,247	-19,240	204,772	90,842
66,261	-19,013	204,194	90,736
67,276	-19,027	204,154	90,700
68,290	-18,726	204,025	90,846
69,305	-18,925	203,744	90,574
70,320	-19,107	203,801	90,463
71,334	-18,966	203,485	90,414
72,349	-19,019	203,425	90,342
73,363	-18,940	203,175	90,278
74,378	-19,129	203,028	90,073
75,393	-19,120	202,803	89,971
76,407	-18,827	202,569	90,063
77,422	-18,865	202,421	89,963
78,436	-19,105	202,339	89,752
79,451	-18,997	202,006	89,671
80,466	-18,879	201,907	89,701
81,480	-18,987	201,606	89,484
82,495	-19,045	201,708	89,482
83,509	-19,064	201,550	89,390
84,524	-18,858	201,154	89,349
85,539	-18,948	201,135	89,270
86,553	-19,052	201,003	89,132
87,568	-19,066	200,747	89,001
88,582	-19,045	200,596	88,941
89,597	-18,855	200,317	88,940
90,611	-18,914	200,372	88,916
91,626	-19,103	200,244	88,721
92,641	-19,135	199,958	88,564
93,655	-18,899	200,004	88,738
94,670	-18,914	199,594	88,538
95,684	-19,235	199,426	88,237
96,699	-19,077	199,342	88,300
97,714	-19,149	199,169	88,166
98,728	-18,850	199,029	88,300
99,743	-19,008	198,897	88,126
100,757	-18,807	198,677	88,158
101,772	-18,887	198,373	87,961
102,787	-18,822	198,255	87,944
103,801	-18,854	198,078	87,836
104,816	-18,851	197,940	87,769
105,830	-18,863	197,853	87,715
106,845	-18,821	197,712	87,673
107,860	-19,115	197,571	87,404
108,874	-19,206	197,513	87,308
109,889	-18,950	197,138	87,308
110,903	-18,945	196,992	87,239
111,918	-19,004	196,908	87,154
112,933	-18,888	196,767	87,162
113,947	-18,893	196,601	87,077
114,962	-18,891	196,331	86,952
115,976	-18,705	196,097	86,965
116,991	-18,850	195,978	86,807
118,006	-19,022	195,905	86,652
119,020	-19,101	195,911	86,594
120,035	-18,930	195,730	86,621
121,049	-18,760	195,598	86,668
122,064	-18,854	195,392	86,506
123,079	-18,823	195,205	86,436
124,093	-18,887	195,015	86,302
125,108	-18,909	194,896	86,227
126,122	-18,769	194,816	86,277
127,137	-18,569	194,477	86,252
128,151	-18,772	194,432	86,089
129,166	-18,762	194,243	86,004
130,181	-18,717	193,944	85,895
131,195	-18,918	193,937	85,751
132,210	-19,011	193,838	85,638
133,224	-18,678	193,441	85,674
134,239	-18,773	193,389	85,581
135,254	-18,955	193,237	85,386
136,268	-18,804	193,137	85,434
137,283	-18,708	193,031	85,443
138,297	-18,904	192,828	85,216
139,312	-18,792	192,508	85,141
140,327	-19,170	192,483	84,874
141,341	-19,159	192,281	84,784
142,356	-19,147	191,979	84,652
143,370	-18,031	192,276	85,507
144,385	-11,021	194,372	91,075
145,400	-4,293	195,955	96,289
146,414	-2,924	196,280	97,351
147,429	-2,878	196,148	97,308
148,443	-2,446	195,981	97,503
149,458	-2,377	195,899	97,500
150,473	-2,192	195,867	97,598
151,487	-1,738	195,699	97,807
152,502	-2,024	195,531	97,524
153,516	-1,821	195,467	97,618
154,531	-1,847	195,272	97,495
155,546	-1,714	195,244	97,560
156,560	-1,665	194,969	97,447
157,575	-1,819	194,915	97,309
158,589	-1,806	194,758	97,231
159,604	-1,724	194,609	97,201
160,619	-1,769	194,354	97,036
161,633	-1,753	194,481	97,101
162,648	-1,986	194,432	96,914
163,662	-1,573	194,153	97,038
164,677	-1,389	194,096	97,122
165,692	-1,514	193,895	96,931
166,706	-1,393	193,688	96,898
167,721	-1,297	193,631	96,923
168,735	-1,340	193,392	96,767
169,750	-1,472	193,498	96,725
170,764	-1,204	193,249	96,767
171,779	-1,442	193,281	96,619
172,794	-1,247	192,999	96,597
173,808	-1,296	192,902	96,508
174,823	-1,413	192,722	96,333
175,837	-1,540	192,649	96,205
176,852	-1,606	192,550	96,104
177,867	-1,218	192,342	96,244
178,881	-1,287	192,333	96,186
179,896	-1,443	192,127	95,973
180,910	-1,425	191,850	95,838
181,925	-1,127	191,678	95,936
182,940	-1,581	191,574	95,582
183,954	-1,324	191,678	95,792
184,969	-1,368	191,466	95,649
185,983	-1,111	191,313	95,730
186,998	-1,046	191,155	95,684
188,013	-1,257	191,044	95,484
189,027	-0,954	190,736	95,516
190,042	-1,329	190,668	95,232
191,056	-1,304	190,690	95,251
192,071	-1,294	190,475	95,141
193,086	-1,277	190,384	95,099
194,100	-0,995	190,307	95,233
195,115	-1,286	190,112	94,940
196,129	-1,145	189,955	94,944
197,144	-1,119	189,783	94,866
198,159	-1,224	189,606	94,702
199,173	-1,257	189,422	94,580
200,188	-0,891	189,347	94,768
201,202	-1,135	189,228	94,544
202,217	-1,119	189,023	94,444
203,232	-0,858	189,011	94,596
204,246	-0,937	188,776	94,419
205,261	-1,186	188,672	94,201
206,275	-1,064	188,572	94,220
207,290	-0,777	188,414	94,314
208,304	-1,002	188,420	94,166
209,319	-1,359	188,260	93,851
210,334	-1,116	187,985	93,860
211,348	-0,961	187,990	93,952
212,363	-0,974	187,736	93,809
213,377	-0,932	187,704	93,811
214,392	-1,055	187,691	93,718
215,407	-0,767	187,347	93,720
216,421	-0,823	187,297	93,651
217,436	-0,999	187,077	93,422
218,450	-1,056	187,013	93,345
219,465	-1,131	186,909	93,239
220,480	-0,971	186,764	93,258
221,494	-1,054	186,743	93,187
222,509	-1,001	186,631	93,157
223,523	-0,695	186,350	93,200
224,538	-0,848	186,243	93,042
225,553	-1,052	186,116	92,843
226,567	-0,857	185,971	92,884
227,582	-1,070	185,883	92,699
228,596	-0,741	185,814	92,861
229,611	-0,739	185,617	92,756
230,626	-0,692	185,388	92,663
231,640	-0,692	185,341	92,631
232,655	-0,934	185,281	92,442
233,669	-1,022	185,264	92,370
234,684	-0,978	184,973	92,244
235,699	-0,817	184,945	92,323
236,713	-0,482	184,780	92,439
237,728	-0,381	184,558	92,383
238,742	-0,637	184,533	92,203
239,757	-0,785	184,566	92,120
240,772	-0,533	184,165	92,067
241,786	-0,940	184,349	91,899
242,801	-0,795	184,237	91,925
243,815	-0,429	184,000	92,025
244,830	-0,709	183,810	91,749
245,844	-0,727	183,796	91,722
246,859	-0,693	183,511	91,593
247,874	-0,776	183,485	91,521
248,888	-0,688	183,284	91,466
249,903	-0,661	183,183	91,424
250,917	-0,542	183,168	91,482
251,932	-0,446	182,943	91,420
252,947	-0,565	182,898	91,317
253,961	-0,710	182,872	91,207
254,976	-0,742	182,587	91,037
255,990	-0,496	182,507	91,139
257,005	-0,543	182,460	91,078
258,020	-0,587	182,299	90,963
259,034	-0,344	182,137	91,023
260,049	-0,492	182,067	90,890
261,063	-0,845	182,008	90,637
262,078	-0,638	181,734	90,618
263,093	-0,687	181,671	90,549
264,107	-0,769	181,629	90,470
265,122	-0,711	181,572	90,469
266,136	-0,381	181,264	90,508
267,151	-0,664	181,366	90,378
268,166	-0,943	181,235	90,136
269,180	-0,570	180,923	90,199
270,195	-0,547	180,819	90,153
271,209	-0,353	180,684	90,194
272,224	-0,219	180,730	90,291
273,239	-0,306	180,512	90,121
274,253	-0,363	180,346	89,996
275,268	-0,343	180,164	89,909
276,282	-0,559	180,065	89,721
277,297	-0,476	180,048	89,755
278,312	-0,548	179,948	89,654
279,326	-0,375	179,793	89,672
280,341	-0,268	179,691	89,678
281,355	-0,035	179,657	89,793
282,370	-0,506	179,371	89,359
283,384	-0,276	179,310	89,459
284,399	-0,208	179,109	89,392
285,414	-0,409	179,169	89,293
286,428	-0,291	178,969	89,256
287,443	-0,353	178,867	89,160
288,457	-0,352	178,746	89,093
289,472	-0,404	178,675	89,018
290,487	-0,146	178,448	89,051
291,501	-0,253	178,436	88,973
292,516	-0,305	178,242	88,838
293,530	-0,281	178,270	88,858
294,545	-0,161	178,107	88,840
295,560	-0,426	178,081	88,661
296,574	-0,235	177,867	88,661
297,589	-0,239	177,793	88,614
298,603	-0,109	177,562	88,567
299,618	0,166	177,393	88,638
300,633	-0,201	177,264	88,348
301,647	-0,080	177,197	88,379
302,662	-0,191	177,177	88,296
303,676	0,091	177,043	88,388
304,691	-0,292	177,038	88,150
305,706	-0,230	176,758	88,041
306,720	0,011	176,522	88,057
307,735	-0,229	176,478	87,886
308,749	-0,056	176,462	87,971
309,764	-0,256	176,355	87,793
310,779	-0,055	176,100	87,776
311,793	-0,333	176,166	87,638
312,808	-0,320	176,004	87,557
313,822	-0,096	175,774	87,566
314,837	-0,140	175,701	87,496
315,852	-0,097	175,706	87,516
316,866	-0,055	175,569	87,465
317,881	0,156	175,457	87,524
318,895	-0,378	175,335	87,143
319,910	-0,013	175,124	87,244
320,925	-0,123	174,971	87,096
321,939	0,162	174,993	87,265
322,954	0,191	174,831	87,193
323,968	0,003	174,819	87,070
324,983	-0,141	174,632	86,885
325,997	-0,221	174,433	86,733
327,012	-0,034	174,243	86,739
328,027	-0,235	174,237	86,611
329,041	-0,028	174,075	86,643
330,056	-0,022	174,049	86,626
331,070	-0,149	173,992	86,517
332,085	0,226	173,823	86,641
333,100	0,152	173,679	86,519
334,114	0,178	173,586	86,480
335,129	0,153	173,458	86,394
336,143	0,501	173,254	86,485
337,158	0,238	173,248	86,323
338,173	0,130	173,278	86,268
339,187	0,053	173,012	86,084
340,202	0,211	172,942	86,132
341,216	0,202	172,975	86,135
342,231	0,415	172,790	86,158
343,246	0,110	172,726	85,944
344,260	0,203	172,582	85,918
345,275	0,391	172,423	85,938
346,289	0,116	172,180	85,652
347,304	0,183	172,227	85,707
348,319	0,053	172,043	85,533
349,333	0,320	171,937	85,625
350,348	0,417	171,666	85,538
351,362	0,269	171,733	85,479
352,377	0,111	171,691	85,361
353,392	0,502	171,476	85,469
354,406	0,151	171,417	85,232
355,421	190,397	1325,916	1395,038
356,435	150,761	1467,012	1395,520
