DTS Sentinel unit serial number:	SN410029Multiplexer serial number:	ORYXHardware model number:	OX2-SRSoftware version number:	ORYX F/W v4,00 Oryx Data Collector v3.7.2.0data status	okinstallation	B3 Nyhavnadifferential loss correction	single-endedforward channel	channel 1reverse channel	N/Adate	2023/11/28time	11:22:30forward acquisition time	300,00reverse acquisition time	0,00gamma	499,1914k internal	0,3151k external	0,3151temperature offset calibration	1,0000default loss term (dB/km)	0,3820temperature slope calibration	1,0000multiplexer offset coefficient	1,0000multiplexer slope coefficient	1,0000fibre end	0,00T internal ref (°C)	9,27T ext. ref 1 (°C)	-7,60T ext. ref 2 (°C)	-7,80length (m)	temperature (°C)	Stokes	anti-Stokes-744,400	800,000	-0,120	-0,304
-743,385	-200,000	-0,036	0,337
-742,371	221,666	-0,133	-0,158
-741,356	-200,000	0,058	0,320
-740,342	336,611	-0,206	-0,296
-739,327	-200,000	0,047	0,275
-738,312	247,195	-0,217	-0,272
-737,298	-200,000	0,011	0,239
-736,283	800,000	-0,135	-0,314
-735,269	-200,000	0,031	0,202
-734,254	158,896	-0,203	-0,208
-733,239	-6,971	-0,255	0,128
-732,225	800,000	-0,098	-0,284
-731,210	-200,000	0,021	0,094
-730,196	96,490	-0,117	0,099
-729,181	561,495	0,039	-0,070
-728,167	-151,880	-0,175	-0,009
-727,152	800,000	-0,034	-0,071
-726,137	-61,449	-0,083	-0,026
-725,123	225,674	0,045	0,054
-724,108	-200,000	-0,008	-0,064
-723,094	-200,000	-0,047	-0,193
-722,079	-200,000	0,015	-0,173
-721,064	84,869	0,058	0,047
-720,050	-200,000	-0,003	0,041
-719,035	-191,972	-0,060	-0,000
-718,021	370,193	-0,022	-0,033
-717,006	218,144	-0,148	-0,175
-715,991	-56,467	0,114	-0,037
-714,977	-96,392	-0,192	-0,037
-713,962	369,936	-0,065	-0,098
-712,948	-200,000	0,018	0,120
-711,933	800,000	0,067	-0,145
-710,918	73,749	0,049	-0,038
-709,904	-200,000	-0,006	-0,081
-708,889	-34,913	-0,152	-0,061
-707,875	-200,000	0,025	-0,162
-706,860	-5,166	-0,092	-0,047
-705,845	406,815	-0,070	0,109
-704,831	800,000	0,030	0,067
-703,816	449,091	0,035	0,058
-702,802	113,285	-0,111	0,099
-701,787	-200,000	-0,021	-0,309
-700,772	147,692	0,015	0,015
-699,758	140,239	-0,054	0,052
-698,743	247,280	-0,061	0,077
-697,729	457,106	-0,037	-0,061
-696,714	-85,606	0,134	0,030
-695,699	-200,000	-0,006	-0,054
-694,685	30,946	-0,062	-0,039
-693,670	210,351	-0,075	-0,087
-692,656	800,000	0,041	-0,094
-691,641	450,772	0,071	0,116
-690,627	138,848	-0,031	0,030
-689,612	246,648	-0,046	0,057
-688,597	219,865	0,036	-0,042
-687,583	-39,865	-0,073	0,028
-686,568	-88,292	0,049	-0,011
-685,554	-118,948	0,202	0,026
-684,539	765,324	-0,008	0,015
-683,524	-26,197	-0,072	-0,031
-682,510	10,972	-0,027	-0,015
-681,495	-37,018	0,094	0,037
-680,481	-167,727	-0,139	-0,004
-679,466	-80,169	0,040	-0,010
-678,451	327,385	-0,011	0,016
-677,437	497,895	-0,037	0,063
-676,422	584,317	0,036	0,066
-675,408	162,612	-0,061	-0,063
-674,393	100,396	0,096	-0,082
-673,378	178,447	-0,078	0,084
-672,364	244,524	-0,025	-0,031
-671,349	-3,587	-0,123	-0,063
-670,335	31,282	0,119	-0,075
-669,320	-83,440	-0,031	0,007
-668,305	42,508	0,095	-0,063
-667,291	-78,031	0,065	-0,016
-666,276	117,977	-0,125	0,113
-665,262	450,479	-0,032	0,053
-664,247	151,389	-0,057	-0,058
-663,232	-95,780	0,128	-0,025
-662,218	-200,000	0,026	0,178
-661,203	101,545	-0,132	0,113
-660,189	-131,777	-0,078	0,007
-659,174	46,145	-0,090	-0,061
-658,159	-200,000	-0,020	-0,065
-657,145	-92,073	0,098	0,020
-656,130	320,011	0,026	0,037
-655,116	114,818	-0,066	-0,059
-654,101	-200,000	0,004	-0,098
-653,086	800,000	0,066	-0,168
-652,072	120,391	-0,043	0,039
-651,057	138,967	-0,021	0,020
-650,043	-200,000	-0,004	-0,165
-649,028	-200,000	0,005	-0,106
-648,014	-200,000	0,009	-0,101
-646,999	-200,000	0,022	0,076
-645,984	-191,883	0,215	-0,001
-644,970	79,010	-0,037	0,029
-643,955	-152,370	-0,076	-0,004
-642,941	456,475	-0,040	0,066
-641,926	-200,000	0,005	-0,137
-640,911	-139,291	0,104	-0,008
-639,897	19,672	-0,111	-0,065
-638,882	-147,839	0,103	0,006
-637,868	-17,197	-0,141	-0,065
-636,853	188,361	-0,070	0,077
-635,838	379,104	0,067	0,101
-634,824	12,457	-0,182	-0,103
-633,809	436,622	0,039	0,063
-632,795	800,000	0,025	0,065
-631,780	-26,938	0,124	0,053
-630,765	-97,204	-0,029	-0,006
-629,751	-200,000	0,001	-0,116
-628,736	-143,020	-0,090	0,006
-627,722	281,814	-0,077	-0,102
-626,707	-79,835	0,034	-0,008
-625,692	-144,506	0,097	0,006
-624,678	800,000	0,024	0,061
-623,663	50,084	-0,121	-0,084
-622,649	-24,995	-0,075	-0,033
-621,634	-50,714	-0,114	0,039
-620,619	-200,000	-0,010	-0,164
-619,605	-200,000	0,028	0,109
-618,590	174,301	0,006	0,006
-617,576	-83,899	-0,110	-0,025
-616,561	800,000	-0,063	0,141
-615,546	-152,960	0,100	0,005
-614,532	-42,342	-0,172	0,064
-613,517	-200,000	-0,001	0,057
-612,503	800,000	0,010	0,033
-611,488	226,532	0,037	0,045
-610,474	-102,736	0,081	-0,014
-609,459	184,576	-0,050	0,055
-608,444	-117,534	-0,080	-0,011
-607,430	-200,000	0,012	0,135
-606,415	5,624	-0,044	-0,024
-605,401	-71,569	-0,022	0,006
-604,386	63,710	0,079	0,058
-603,371	-59,203	-0,084	0,026
-602,357	697,851	-0,065	0,126
-601,342	35,726	0,073	-0,047
-600,328	-200,000	0,007	-0,083
-599,313	197,441	0,063	0,070
-598,298	-168,651	0,129	0,004
-597,284	-136,309	0,149	-0,013
-596,269	-156,123	0,046	-0,002
-595,255	-69,134	-0,023	0,006
-594,240	-200,000	0,015	-0,053
-593,225	-36,962	-0,217	-0,085
-592,211	-173,138	-0,154	-0,003
-591,196	-140,272	0,101	0,008
-590,182	14,822	0,025	-0,014
-589,167	294,071	0,045	-0,060
-588,152	800,000	-0,034	0,074
-587,138	263,704	-0,092	0,118
-586,123	800,000	-0,052	-0,138
-585,109	38,311	-0,164	-0,107
-584,094	-200,000	-0,023	-0,091
-583,079	-80,253	0,053	-0,013
-582,065	157,536	0,054	0,055
-581,050	-200,000	-0,011	0,124
-580,036	-200,000	0,001	-0,097
-579,021	37,185	-0,098	-0,063
-578,006	262,392	-0,113	-0,145
-576,992	-200,000	0,004	0,019
-575,977	228,247	0,067	0,080
-574,963	800,000	0,035	0,071
-573,948	-117,286	0,207	0,027
-572,934	-64,435	-0,162	-0,048
-571,919	-105,299	-0,115	0,019
-570,904	800,000	-0,031	-0,070
-569,890	-163,219	-0,148	-0,005
-568,875	800,000	0,045	-0,124
-567,861	22,842	0,053	-0,032
-566,846	428,830	-0,027	-0,043
-565,831	-200,000	0,010	-0,080
-564,817	-200,000	0,008	0,068
-563,802	312,866	-0,039	-0,054
-562,788	800,000	0,035	0,096
-561,773	-200,000	-0,000	-0,067
-560,758	-200,000	-0,009	0,113
-559,744	355,109	-0,022	-0,032
-558,729	512,153	0,052	0,089
-557,715	-200,000	-0,016	-0,060
-556,700	-200,000	-0,015	-0,127
-555,685	-200,000	-0,025	-0,130
-554,671	-200,000	-0,018	0,095
-553,656	-200,000	-0,033	-0,184
-552,642	426,490	0,021	0,033
-551,627	326,447	-0,014	-0,020
-550,612	52,875	-0,077	0,054
-549,598	26,955	-0,253	-0,155
-548,583	800,000	0,052	-0,130
-547,569	800,000	0,053	-0,111
-546,554	-200,000	-0,005	0,029
-545,539	800,000	0,016	0,046
-544,525	376,669	0,025	0,038
-543,510	800,000	0,023	-0,054
-542,496	-200,000	0,013	-0,092
-541,481	-200,000	0,019	-0,196
-540,466	-89,587	-0,106	0,023
-539,452	83,212	-0,052	0,042
-538,437	-151,674	-0,067	-0,004
-537,423	-200,000	0,036	0,139
-536,408	-200,000	0,032	0,106
-535,393	-18,223	-0,065	0,030
-534,379	800,000	0,033	0,104
-533,364	20,701	-0,061	0,036
-532,350	-150,362	0,085	-0,005
-531,335	298,043	0,034	-0,046
-530,321	637,106	-0,009	-0,016
-529,306	-193,714	0,083	0,001
-528,291	154,129	-0,073	-0,074
-527,277	100,404	0,095	-0,081
-526,262	800,000	0,010	0,032
-525,248	-152,104	0,079	-0,004
-524,233	95,427	0,105	-0,087
-523,218	-100,677	0,131	-0,023
-522,204	800,000	0,071	-0,165
-521,189	-200,000	0,014	0,063
-520,175	-71,226	-0,024	-0,007
-519,160	800,000	-0,020	0,047
-518,145	800,000	0,031	0,062
-517,131	-19,304	-0,059	-0,027
-516,116	85,713	-0,079	0,064
-515,102	800,000	0,012	0,032
-514,087	84,323	-0,072	-0,058
-513,072	-200,000	0,010	-0,071
-512,058	-4,354	-0,031	-0,016
-511,043	332,715	0,064	0,091
-510,029	-71,256	0,121	0,033
-509,014	-80,305	0,148	0,036
-507,999	-119,766	-0,054	-0,007
-506,985	-200,000	0,005	-0,061
-505,970	-200,000	-0,006	0,041
-504,956	60,037	0,041	0,029
-503,941	-200,000	-0,013	-0,077
-502,926	-44,410	-0,068	0,025
-501,912	-200,000	0,004	0,111
-500,897	-200,000	0,027	-0,101
-499,883	-85,240	0,038	-0,009
-498,868	-3,256	-0,051	-0,026
-497,853	5,376	-0,062	-0,033
-496,839	800,000	-0,015	0,038
-495,824	-38,403	0,084	-0,032
-494,810	293,751	-0,026	0,035
-493,795	120,087	0,037	0,034
-492,781	-123,357	0,033	0,004
-491,766	307,484	0,047	-0,064
-490,751	-30,414	-0,168	-0,070
-489,737	144,643	0,116	-0,114
-488,722	-70,935	-0,123	-0,034
-487,708	-200,000	0,016	0,058
-486,693	-200,000	0,013	-0,068
-485,678	70,754	-0,044	-0,033
-484,664	-156,655	0,100	-0,004
-483,649	184,496	-0,076	0,083
-482,635	4,359	0,169	0,090
-481,620	-200,000	0,004	0,059
-480,605	-193,293	0,098	0,001
-479,591	135,535	0,084	0,080
-478,576	271,571	-0,066	0,086
-477,562	451,297	0,072	-0,116
-476,547	127,433	0,067	-0,063
-475,532	796,161	-0,018	0,036
-474,518	-200,000	-0,006	0,040
-473,503	800,000	0,029	0,089
-472,489	188,154	0,076	0,083
-471,474	-93,039	-0,129	0,026
-470,459	-135,106	0,045	-0,004
-469,445	406,044	-0,105	-0,163
-468,430	191,059	-0,049	0,054
-467,416	51,299	0,049	0,034
-466,401	215,561	0,036	0,042
-465,386	-200,000	0,021	0,177
-464,372	539,270	-0,035	-0,060
-463,357	138,794	-0,112	-0,108
-462,343	57,231	-0,088	-0,063
-461,328	800,000	0,023	-0,055
-460,313	-56,595	0,063	0,020
-459,299	13,076	0,074	-0,042
-458,284	37,880	0,029	-0,019
-457,270	83,427	0,052	-0,042
-456,255	-200,000	0,004	-0,068
-455,241	201,530	0,061	0,068
-454,226	169,709	0,051	-0,054
-453,211	17,893	-0,107	0,062
-452,197	-130,965	0,040	-0,004
-451,182	-88,627	0,162	0,035
-450,168	-125,891	-0,151	0,016
-449,153	-95,061	0,025	0,005
-448,138	-98,776	0,075	-0,014
-447,124	72,610	-0,054	-0,041
-446,109	-152,258	0,040	-0,002
-445,095	133,227	0,050	0,047
-444,080	14,846	0,092	0,053
-443,065	-100,935	0,103	-0,018
-442,051	-93,837	0,104	0,021
-441,036	244,088	-0,086	-0,105
-440,022	478,374	-0,054	-0,089
-439,007	85,926	-0,058	0,047
-437,992	-39,949	0,125	-0,047
-436,978	278,788	-0,051	0,067
-435,963	-200,000	-0,021	0,115
-434,949	-156,142	-0,058	0,003
-433,934	-85,241	-0,098	-0,022
-432,919	412,858	-0,042	-0,066
-431,905	-178,409	0,106	-0,002
-430,890	-68,924	-0,030	-0,009
-429,876	800,000	-0,039	0,089
-428,861	-200,000	0,004	-0,090
-427,846	-200,000	-0,012	-0,097
-426,832	39,210	0,078	0,051
-425,817	15,324	-0,087	-0,049
-424,803	65,723	-0,060	-0,044
-423,788	-87,403	-0,058	-0,013
-422,773	313,314	0,023	0,032
-421,759	374,516	0,033	0,049
-420,744	611,686	-0,014	-0,026
-419,730	-80,507	0,048	0,012
-418,715	95,962	-0,051	-0,043
-417,701	-200,000	0,001	0,090
-416,686	-200,000	-0,013	0,043
-415,671	-200,000	-0,025	-0,129
-414,657	800,000	0,053	-0,110
-413,642	-136,451	-0,076	0,006
-412,628	249,230	0,053	-0,065
-411,613	-200,000	-0,012	0,086
-410,598	-18,213	0,065	0,029
-409,584	398,260	0,052	-0,080
-408,569	10,400	0,088	-0,048
-407,555	-80,854	0,099	0,024
-406,540	-200,000	-0,010	-0,101
-405,525	-68,628	-0,093	0,026
-404,511	-200,000	0,009	0,103
-403,496	-39,862	0,097	0,037
-402,482	-184,754	-0,094	-0,001
-401,467	-101,089	-0,130	0,023
-400,452	-200,000	0,012	0,041
-399,438	-90,227	-0,173	-0,036
-398,423	387,525	-0,046	0,069
-397,409	-200,000	0,029	0,126
-396,394	-23,772	-0,052	-0,023
-395,379	-200,000	-0,013	-0,111
-394,365	-126,041	0,119	0,013
-393,350	800,000	-0,023	0,059
-392,336	176,207	0,102	0,108
-391,321	135,547	0,066	-0,063
-390,306	-200,000	0,031	-0,175
-389,292	41,034	-0,152	0,100
-388,277	-200,000	0,001	0,070
-387,263	-68,082	0,098	0,027
-386,248	4,342	0,042	0,023
-385,233	-200,000	-0,003	-0,094
-384,219	-73,032	0,041	0,011
-383,204	-200,000	0,002	-0,056
-382,190	800,000	-0,035	-0,093
-381,175	800,000	0,007	0,016
-380,160	800,000	0,024	-0,057
-379,146	-200,000	0,010	0,041
-378,131	-65,801	0,028	0,008
-377,117	434,753	0,035	-0,056
-376,102	-200,000	-0,027	-0,113
-375,088	-183,081	0,031	0,000
-374,073	-129,258	-0,180	0,018
-373,058	800,000	-0,026	0,081
-372,044	800,000	0,061	0,132
-371,029	-28,222	0,047	-0,020
-370,015	-180,811	-0,038	0,001
-369,000	-168,693	-0,059	0,002
-367,985	-200,000	0,013	-0,046
-366,971	299,352	-0,110	-0,148
-365,956	-59,152	0,060	0,019
-364,942	197,218	0,067	0,075
-363,927	-200,000	0,026	0,115
-362,912	453,384	-0,056	0,090
-361,898	401,545	0,021	-0,033
-360,883	272,622	0,044	-0,057
-359,869	-196,982	0,097	0,000
-358,854	-200,000	0,012	-0,049
-357,839	-62,255	-0,031	-0,009
-356,825	339,643	-0,059	-0,084
-355,810	-16,790	-0,016	-0,007
-354,796	76,729	0,075	0,058
-353,781	-200,000	-0,002	-0,125
-352,766	-200,000	-0,000	0,020
-351,752	42,908	-0,136	-0,090
-350,737	182,268	0,084	-0,091
-349,723	-200,000	-0,008	-0,043
-348,708	-47,224	0,090	-0,032
-347,693	-108,388	0,077	0,012
-346,679	160,708	-0,129	-0,131
-345,664	800,000	0,031	-0,086
-344,650	79,138	-0,027	-0,021
-343,635	99,279	0,133	-0,112
-342,620	94,186	0,078	-0,065
-341,606	96,805	0,003	-0,003
-340,591	313,756	0,027	-0,037
-339,577	52,135	-0,017	0,012
-338,562	-123,650	-0,077	0,009
-337,548	672,539	-0,022	0,043
-336,533	-55,009	0,117	-0,038
-335,518	20,303	0,052	0,030
-334,504	-200,000	0,020	0,141
-333,489	-200,000	0,003	-0,048
-332,475	800,000	0,011	-0,024
-331,460	41,348	-0,054	-0,036
-330,445	-13,789	0,108	-0,051
-329,431	-140,900	0,072	-0,005
-328,416	-63,434	0,062	0,019
-327,402	56,157	-0,071	0,050
-326,387	-89,207	-0,047	-0,010
-325,372	614,475	-0,041	-0,075
-324,358	152,367	0,051	0,051
-323,343	-131,736	0,034	-0,003
-322,329	-200,000	0,022	0,160
-321,314	231,369	0,071	0,085
-320,299	-14,734	0,202	0,094
-319,285	-81,730	-0,208	-0,049
-318,270	-30,940	0,074	0,030
-317,256	-60,966	-0,071	0,022
-316,241	5,524	0,099	-0,053
-315,226	238,352	0,067	0,081
-314,212	-105,878	0,074	0,012
-313,197	435,083	0,035	0,056
-312,183	-200,000	-0,054	0,216
-311,168	580,766	0,025	-0,044
-310,153	603,364	-0,033	-0,061
-309,139	596,896	-0,049	-0,089
-308,124	-7,758	-0,156	-0,076
-307,110	31,219	0,015	-0,009
-306,095	193,044	-0,040	0,044
-305,080	173,629	-0,064	0,067
-304,066	38,998	-0,149	-0,096
-303,051	-22,688	-0,136	0,059
-302,037	-200,000	-0,041	0,180
-301,022	-200,000	0,004	-0,063
-300,008	78,421	0,066	0,051
-298,993	-200,000	0,012	0,103
-297,978	143,890	0,100	0,097
-296,964	344,006	-0,050	0,071
-295,949	151,950	0,110	-0,109
-294,935	-20,385	-0,057	0,025
-293,920	-200,000	0,011	-0,065
-292,905	-101,683	0,170	0,030
-291,891	-90,666	-0,059	0,012
-290,876	-141,453	-0,052	0,004
-289,862	800,000	-0,044	-0,112
-288,847	1,217	-0,132	-0,069
-287,832	32,525	-0,182	0,114
-286,818	329,111	-0,056	-0,078
-285,803	-126,263	0,152	-0,016
-284,789	-15,964	-0,120	-0,055
-283,774	220,284	0,097	0,113
-282,759	800,000	-0,032	0,078
-281,745	630,174	-0,029	-0,053
-280,730	-200,000	0,000	0,050
-279,716	173,376	0,072	0,076
-278,701	33,391	-0,029	-0,018
-277,686	-87,712	-0,155	-0,034
-276,672	800,000	-0,008	0,017
-275,657	-15,374	0,027	0,012
-274,643	133,806	-0,052	0,048
-273,628	-200,000	0,001	0,067
-272,613	-60,868	0,060	-0,018
-271,599	3,584	-0,108	0,057
-270,584	416,245	0,037	0,057
-269,570	184,388	0,023	-0,025
-268,555	-200,000	-0,005	0,094
-267,540	298,495	-0,053	-0,071
-266,526	95,280	-0,129	-0,106
-265,511	23,760	-0,173	-0,103
-264,497	240,805	0,042	-0,051
-263,482	800,000	0,022	0,048
-262,467	700,607	0,067	0,129
-261,453	217,187	0,069	-0,080
-260,438	-128,780	-0,102	-0,010
-259,424	800,000	0,029	-0,064
-258,409	800,000	0,061	-0,132
-257,395	-200,000	0,032	0,165
-256,380	-113,550	0,162	-0,023
-255,365	-200,000	0,004	0,091
-254,351	152,402	-0,068	-0,067
-253,336	80,494	-0,058	-0,045
-252,322	170,322	0,079	-0,082
-251,307	629,321	0,040	-0,074
-250,292	59,610	-0,011	-0,008
-249,278	-200,000	-0,001	-0,082
-248,263	-25,800	-0,071	0,030
-247,249	24,652	0,084	0,050
-246,234	34,640	-0,087	0,055
-245,219	-200,000	0,019	-0,072
-244,205	388,407	-0,072	-0,109
-243,190	-200,000	-0,016	0,060
-242,176	800,000	0,053	-0,123
-241,161	582,214	-0,050	0,089
-240,146	92,130	-0,048	-0,039
-239,132	25,740	-0,049	0,030
-238,117	91,935	-0,075	0,061
-237,103	360,654	0,039	-0,056
-236,088	-70,200	0,074	-0,020
-235,073	-56,312	0,145	0,046
-234,059	800,000	0,093	0,213
-233,044	-200,000	-0,027	0,110
-232,030	565,877	0,081	0,142
-231,015	111,615	-0,128	-0,112
-230,000	12,594	0,091	-0,051
-228,986	-200,000	0,019	-0,071
-227,971	-200,000	-0,012	0,148
-226,957	-89,554	0,122	-0,026
-225,942	-200,000	0,014	-0,119
-224,927	12,562	-0,022	-0,012
-223,913	538,160	-0,030	-0,052
-222,898	54,495	0,053	0,037
-221,884	-49,819	0,120	0,041
-220,869	800,000	-0,064	0,147
-219,855	800,000	0,049	0,150
-218,840	73,815	-0,086	-0,065
-217,825	800,000	0,062	0,128
-216,811	-26,452	-0,118	0,050
-215,796	-98,653	-0,044	-0,008
-214,782	-49,791	0,084	-0,029
-213,767	-200,000	-0,008	-0,106
-212,752	424,993	0,106	0,165
-211,738	-200,000	0,027	0,088
-210,723	800,000	0,032	0,084
-209,709	658,097	0,084	-0,157
-208,694	176,682	-0,140	-0,147
-207,679	196,050	0,035	0,039
-206,665	259,770	0,080	0,100
-205,650	51,907	0,097	0,067
-204,636	549,582	-0,075	-0,130
-203,621	-138,511	-0,135	0,011
-202,606	183,827	-0,080	0,086
-201,592	-200,000	-0,009	-0,191
-200,577	0,077	-0,078	-0,040
-199,563	-138,587	-0,102	-0,008
-198,548	124,868	0,033	0,030
-197,533	367,708	0,048	-0,070
-196,519	114,759	0,042	-0,037
-195,504	156,502	0,081	0,081
-194,490	-104,441	0,089	0,015
-193,475	-200,000	0,005	0,151
-192,460	126,054	-0,031	0,028
-191,446	60,533	0,045	0,032
-190,431	-200,000	-0,025	0,086
-189,417	-2,785	-0,031	0,015
-188,402	99,973	-0,084	-0,070
-187,387	272,168	-0,110	-0,140
-186,373	137,672	0,064	0,060
-185,358	15,536	0,079	0,045
-184,344	57,593	0,043	0,031
-183,329	383,634	-0,060	-0,089
-182,315	438,180	0,040	-0,063
-181,300	57,729	-0,045	0,032
-180,285	564,103	-0,024	-0,043
-179,271	800,000	0,063	-0,159
-178,256	346,493	-0,050	0,071
-177,242	-200,000	-0,014	0,049
-176,227	-200,000	0,026	0,174
-175,212	-200,000	-0,007	0,034
-174,198	102,936	0,082	0,070
-173,183	16,916	-0,024	-0,014
-172,169	-200,000	-0,009	-0,034
-171,154	300,104	-0,043	-0,057
-170,139	-42,683	0,098	0,036
-169,125	800,000	-0,044	0,126
-168,110	-200,000	0,013	0,080
-167,096	800,000	-0,030	0,092
-166,081	800,000	-0,020	-0,041
-165,066	47,452	-0,027	0,018
-164,052	63,813	-0,089	0,065
-163,037	5,493	0,062	0,033
-162,023	-58,502	-0,098	0,030
-161,008	95,640	0,164	-0,135
-159,993	477,151	0,058	0,095
-158,979	37,850	-0,082	0,052
-157,964	26,971	-0,068	-0,041
-156,950	109,461	0,087	0,075
-155,935	-200,000	-0,009	0,056
-154,920	-200,000	0,024	0,147
-153,906	-106,692	-0,029	-0,005
-152,891	119,343	0,034	0,031
-151,877	-97,828	0,074	0,014
-150,862	-200,000	-0,027	-0,160
-149,847	-200,000	-0,034	-0,117
-148,833	38,630	0,106	0,068
-147,818	-4,605	-0,106	0,053
-146,804	-200,000	-0,000	-0,018
-145,789	197,297	0,091	-0,100
-144,775	129,388	-0,051	0,047
-143,760	92,768	0,093	-0,076
-142,745	47,353	-0,065	0,044
-141,731	800,000	-0,034	0,102
-140,716	-200,000	0,012	-0,048
-139,702	302,403	0,028	-0,038
-138,687	137,542	-0,047	-0,045
-137,672	20,949	-0,092	0,054
-136,658	421,774	0,062	-0,097
-135,643	494,133	0,134	-0,223
-134,629	-106,754	0,114	0,018
-133,614	-22,610	0,028	0,012
-132,599	-29,288	-0,045	0,018
-131,585	800,000	-0,018	0,047
-130,570	800,000	0,028	-0,060
-129,556	-52,954	-0,020	-0,007
-128,541	800,000	0,017	0,041
-127,526	-200,000	-0,024	-0,084
-126,512	-102,107	-0,029	0,005
-125,497	46,259	0,061	0,041
-124,483	-200,000	-0,013	0,168
-123,468	78,718	-0,077	0,060
-122,453	-50,617	0,071	-0,024
-121,439	-200,000	0,023	0,129
-120,424	31,872	-0,139	0,086
-119,410	338,188	0,095	0,134
-118,395	346,231	-0,017	0,024
-117,380	800,000	0,059	-0,143
-116,366	-200,000	0,014	0,142
-115,351	800,000	0,014	-0,031
-114,337	-200,000	0,008	0,053
-113,322	-200,000	-0,013	0,103
-112,307	615,119	-0,082	0,149
-111,293	182,932	0,037	0,040
-110,278	-200,000	0,027	0,097
-109,264	21,112	-0,099	0,058
-108,249	336,096	0,013	0,019
-107,234	-117,145	-0,178	-0,023
-106,220	-69,018	0,047	0,013
-105,205	800,000	-0,012	0,029
-104,191	388,967	-0,043	-0,065
-103,176	64,149	0,042	0,031
-102,162	-38,791	0,064	0,024
-101,147	-53,730	-0,050	-0,016
-100,132	-200,000	0,001	-0,066
-99,118	32,799	-0,078	0,049
-98,103	175,630	-0,059	-0,061
-97,089	-171,497	0,123	0,003
-96,074	-200,000	0,003	-0,060
-95,059	800,000	-0,063	-0,131
-94,045	42,177	-0,112	-0,073
-93,030	323,947	-0,053	-0,073
-92,016	-200,000	-0,021	-0,083
-91,001	62,430	0,050	0,036
-89,986	2,854	0,120	-0,063
-88,972	-119,060	0,183	0,023
-87,957	-200,000	-0,002	0,096
-86,943	-200,000	0,015	0,080
-85,928	-33,089	-0,079	0,032
-84,913	-200,000	-0,013	-0,070
-83,899	-200,000	0,008	0,034
-82,884	265,814	0,067	-0,085
-81,870	-48,345	-0,041	0,014
-80,855	-87,963	-0,189	0,041
-79,840	227,213	0,128	-0,149
-78,826	-81,714	-0,054	0,013
-77,811	-200,000	0,003	0,047
-76,797	-200,000	0,003	-0,038
-75,782	183,324	0,044	-0,046
-74,767	299,271	0,069	0,092
-73,753	-195,756	0,153	0,001
-72,738	800,000	0,047	0,107
-71,724	-76,920	0,095	0,024
-70,709	316,242	-0,037	-0,050
-69,694	-116,495	-0,041	-0,005
-68,680	-200,000	0,014	-0,101
-67,665	800,000	0,039	-0,100
-66,651	-200,000	0,011	0,213
-65,636	292,558	-0,120	0,157
-64,622	-49,577	-0,089	0,030
-63,607	800,000	-0,066	-0,141
-62,592	112,948	-0,056	-0,049
-61,578	-168,055	0,059	0,002
-60,563	-9,797	-0,105	0,050
-59,549	-200,000	0,039	0,166
-58,534	50,110	-1,977	-1,340
-57,519	413,522	-1,276	-1,959
-56,505	-200,000	-0,166	-4,179
-55,490	692,858	0,769	1,457
-54,476	800,000	5,222	11,466
-53,461	-200,000	21,644	340,284
-52,446	800,000	759,397	2328,128
-51,432	521,480	1655,451	2804,013
-50,417	71,367	1574,700	1173,801
-49,403	22,064	1097,763	642,384
-48,388	13,159	781,324	433,769
-47,373	27,290	742,711	447,555
-46,359	19,299	728,109	419,264
-45,344	9,360	724,007	392,586
-44,330	9,178	722,212	391,153
-43,315	9,154	721,014	390,431
-42,300	9,101	719,908	389,687
-41,286	9,167	718,879	389,275
-40,271	9,061	718,298	388,685
-39,257	9,174	717,238	388,373
-38,242	9,264	716,393	388,119
-37,227	9,269	715,616	387,694
-36,213	9,260	714,878	387,257
-35,198	9,322	713,739	386,774
-34,184	9,370	713,409	386,696
-33,169	9,236	712,608	385,922
-32,154	9,392	711,958	385,932
-31,140	9,309	710,872	385,129
-30,125	9,405	710,159	384,957
-29,111	9,311	709,719	384,479
-28,096	9,316	709,582	384,401
-27,082	9,251	708,907	383,863
-26,067	9,292	708,212	383,571
-25,052	9,199	707,684	383,046
-24,038	9,189	707,212	382,752
-23,023	9,236	706,445	382,434
-22,009	9,361	705,745	382,338
-20,994	9,311	705,089	381,849
-19,979	9,377	704,274	381,550
-18,965	9,345	704,113	381,372
-17,950	9,278	703,711	380,978
-16,936	9,280	703,075	380,623
-15,921	9,327	702,598	380,462
-14,906	9,231	701,917	379,850
-13,892	9,324	701,301	379,723
-12,877	9,241	700,830	379,255
-11,863	9,222	700,741	379,148
-10,848	9,120	700,157	378,573
-9,833	9,155	700,013	378,565
-8,819	9,206	699,232	378,247
-7,804	9,307	698,351	377,995
-6,790	9,231	698,164	377,698
-5,775	9,279	698,024	377,723
-4,760	9,177	697,291	377,069
-3,746	9,102	696,989	376,714
-2,731	9,015	696,540	376,250
-1,717	8,974	696,131	375,919
-0,702	8,981	695,706	375,690
0,313	9,136	691,922	374,575
1,327	13,580	665,889	370,466
2,342	22,710	535,319	314,235
3,356	16,486	295,951	167,523
4,371	-14,679	198,743	91,381
5,386	-18,044	187,106	83,859
6,400	-18,450	183,627	82,036
7,415	-17,304	182,022	82,029
8,429	-18,213	180,984	80,988
9,444	-18,388	180,316	80,574
10,459	-18,145	179,936	80,547
11,473	-18,211	179,384	80,253
12,488	-18,402	179,140	80,019
13,502	-18,211	178,583	79,880
14,517	-18,258	178,478	79,797
15,531	-18,473	178,090	79,485
16,546	-18,219	177,869	79,534
17,561	-18,418	177,442	79,215
18,575	-18,152	177,396	79,349
19,590	-18,375	177,056	79,054
20,604	-18,176	176,896	79,097
21,619	-18,067	176,473	78,967
22,634	-18,071	176,173	78,823
23,648	-17,983	175,982	78,784
24,663	-18,182	175,886	78,613
25,677	-18,125	175,711	78,563
26,692	-18,209	175,433	78,381
27,707	-17,973	175,238	78,429
28,721	-18,170	174,974	78,185
29,736	-18,275	174,888	78,077
30,750	-18,385	174,786	77,959
31,765	-18,327	174,469	77,845
32,780	-18,278	174,347	77,813
33,794	-17,934	174,189	77,941
34,809	-18,104	173,973	77,736
35,823	-18,013	173,686	77,654
36,838	-18,368	173,605	77,400
37,853	-18,308	173,436	77,354
38,867	-18,300	173,199	77,246
39,882	-18,127	173,076	77,287
40,896	-18,391	172,977	77,079
41,911	-18,198	172,854	77,132
42,926	-17,963	172,553	77,130
43,940	-18,378	172,432	76,823
44,955	-18,090	172,204	76,885
45,969	-18,000	172,110	76,889
46,984	-18,008	171,967	76,813
47,999	-17,894	171,844	76,819
49,013	-18,109	171,715	76,628
50,028	-18,087	171,577	76,573
51,042	-17,933	171,407	76,580
52,057	-18,113	171,139	76,349
53,071	-18,088	171,142	76,357
54,086	-18,227	170,918	76,169
55,101	-17,896	170,647	76,235
56,115	-18,156	170,529	76,024
57,130	-18,148	170,312	75,925
58,144	-18,319	170,247	75,790
59,159	-18,352	169,978	75,644
60,174	-18,054	169,922	75,785
61,188	-18,014	169,690	75,699
62,203	-18,330	169,684	75,506
63,217	-18,366	169,581	75,432
64,232	-18,447	169,322	75,263
65,247	-18,519	169,205	75,163
66,261	-18,128	168,827	75,214
67,276	-18,039	168,774	75,235
68,290	-18,266	168,789	75,104
69,305	-18,074	168,672	75,156
70,320	-17,857	168,369	75,139
71,334	-18,124	168,332	74,962
72,349	-18,395	168,127	74,709
73,363	-18,103	167,799	74,724
74,378	-18,199	167,671	74,605
75,393	-18,119	167,540	74,586
76,407	-18,446	167,561	74,401
77,422	-18,144	167,235	74,423
78,436	-18,392	167,154	74,238
79,451	-18,208	166,981	74,260
80,466	-18,161	166,777	74,189
81,480	-18,063	166,715	74,211
82,495	-18,231	166,661	74,084
83,509	-18,270	166,599	74,028
84,524	-18,317	166,587	73,989
85,539	-18,033	166,076	73,917
86,553	-18,217	166,241	73,879
87,568	-18,164	165,813	73,713
88,582	-17,712	165,732	73,926
89,597	-18,247	165,627	73,570
90,611	-18,328	165,450	73,439
91,626	-18,139	165,376	73,506
92,641	-18,106	165,246	73,461
93,655	-18,079	165,109	73,408
94,670	-17,932	164,986	73,430
95,684	-18,209	164,722	73,150
96,699	-18,067	164,683	73,206
97,714	-17,859	164,490	73,230
98,728	-17,833	164,386	73,192
99,743	-18,038	164,343	73,052
100,757	-18,056	164,031	72,896
101,772	-18,127	164,044	72,856
102,787	-18,229	163,831	72,697
103,801	-18,124	163,790	72,732
104,816	-18,088	163,601	72,662
105,830	-18,137	163,427	72,551
106,845	-18,252	163,354	72,447
107,860	-18,290	163,193	72,349
108,874	-18,131	163,073	72,377
109,889	-18,122	162,769	72,241
110,903	-18,246	162,691	72,131
111,918	-18,189	162,583	72,108
112,933	-18,173	162,606	72,121
113,947	-17,912	162,259	72,104
114,962	-17,939	162,224	72,068
115,976	-18,325	162,264	71,866
116,991	-18,147	162,082	71,877
118,006	-18,172	161,847	71,753
119,020	-18,159	161,864	71,761
120,035	-18,188	161,710	71,670
121,049	-18,084	161,437	71,600
122,064	-18,115	161,491	71,600
123,079	-18,362	161,370	71,405
124,093	-18,115	161,107	71,418
125,108	-18,097	161,017	71,381
126,122	-17,553	160,774	71,564
127,137	-17,858	160,792	71,400
128,151	-17,865	160,570	71,291
129,166	-17,881	160,407	71,203
130,181	-18,039	160,312	71,068
131,195	-17,846	160,218	71,126
132,210	-18,310	159,915	70,732
133,224	-18,415	159,945	70,683
134,239	-18,102	159,814	70,788
135,254	-18,120	159,662	70,705
136,268	-18,215	159,477	70,565
137,283	-18,081	159,579	70,677
138,297	-18,137	159,394	70,558
139,312	-18,053	159,153	70,490
140,327	-18,474	158,891	70,141
141,341	-18,812	158,639	69,842
142,356	-19,346	158,529	69,499
143,370	-18,066	158,796	70,301
144,385	-10,812	160,409	74,956
145,400	-4,039	161,894	79,354
146,414	-2,033	161,975	80,484
147,429	-2,220	161,963	80,369
148,443	-1,926	161,960	80,521
149,458	-1,682	161,745	80,540
150,473	-1,347	161,826	80,756
151,487	-1,246	161,724	80,753
152,502	-1,082	161,476	80,711
153,516	-1,344	161,520	80,583
154,531	-1,178	161,351	80,582
155,546	-1,044	161,254	80,599
156,560	-1,030	161,063	80,504
157,575	-1,012	160,913	80,432
158,589	-0,899	160,740	80,399
159,604	-0,989	160,735	80,341
160,619	-1,124	160,619	80,203
161,633	-1,249	160,566	80,101
162,648	-1,062	160,446	80,136
163,662	-1,077	160,311	80,053
164,677	-1,058	160,233	80,017
165,692	-0,688	160,065	80,125
166,706	-0,951	160,135	80,012
167,721	-0,504	159,679	80,017
168,735	-0,685	159,758	79,952
169,750	-0,662	159,745	79,950
170,764	-0,949	159,506	79,670
171,779	-0,680	159,493	79,800
172,794	-0,770	159,336	79,666
173,808	-0,828	159,343	79,632
174,823	-0,761	159,164	79,571
175,837	-0,740	158,920	79,454
176,852	-0,712	158,940	79,471
177,867	-0,687	158,832	79,424
178,881	-0,534	158,601	79,383
179,896	-0,703	158,536	79,253
180,910	-0,727	158,469	79,200
181,925	-0,590	158,311	79,186
182,940	-0,757	158,204	79,037
183,954	-0,661	158,102	79,030
184,969	-0,739	157,946	78,904
185,983	-0,330	157,944	79,113
186,998	-0,586	157,825	78,911
188,013	-0,663	157,836	78,868
189,027	-0,573	157,471	78,726
190,042	-0,889	157,469	78,551
191,056	-0,684	157,304	78,570
192,071	-0,564	157,222	78,585
193,086	-0,405	157,071	78,587
194,100	-0,330	157,051	78,609
195,115	-0,333	156,870	78,510
196,129	-0,560	156,865	78,381
197,144	-0,459	156,557	78,273
198,159	-0,527	156,562	78,233
199,173	-0,529	156,348	78,118
200,188	-0,344	156,330	78,199
201,202	-0,637	156,240	77,993
202,217	-0,301	156,088	78,087
203,232	-0,229	155,793	77,969
204,246	-0,422	155,901	77,916
205,261	-0,277	155,600	77,834
206,275	-0,479	155,821	77,832
207,290	-0,638	155,587	77,626
208,304	-0,223	155,435	77,759
209,319	-0,366	155,430	77,675
210,334	-0,694	155,266	77,415
211,348	-0,601	155,126	77,387
212,363	-0,298	155,033	77,491
213,377	-0,313	155,018	77,469
214,392	0,033	154,721	77,493
215,407	-0,130	154,677	77,379
216,421	-0,563	154,790	77,205
217,436	-0,259	154,420	77,170
218,450	-0,546	154,342	76,976
219,465	-0,466	154,342	77,011
220,480	-0,306	154,267	77,049
221,494	-0,116	154,155	77,085
222,509	-0,056	154,030	77,046
223,523	-0,172	154,001	76,965
224,538	-0,148	153,773	76,856
225,553	-0,314	153,747	76,751
226,567	-0,533	153,721	76,618
227,582	-0,271	153,424	76,598
228,596	-0,108	153,446	76,686
229,611	-0,461	153,348	76,449
230,626	-0,089	153,221	76,570
231,640	-0,248	153,011	76,377
232,655	-0,079	152,970	76,436
233,669	0,020	152,843	76,416
234,684	-0,139	152,880	76,346
235,699	-0,306	152,802	76,215
236,713	0,034	152,656	76,309
237,728	-0,025	152,437	76,163
238,742	0,200	152,440	76,272
239,757	0,066	152,205	76,080
240,772	0,109	152,023	76,003
241,786	-0,160	152,050	75,874
242,801	0,181	151,990	76,010
243,815	0,074	151,911	75,909
244,830	0,451	151,544	75,910
245,844	-0,141	151,762	75,713
246,859	-0,156	151,517	75,576
247,874	-0,345	151,434	75,432
248,888	-0,425	151,539	75,437
249,903	-0,134	151,361	75,489
250,917	0,139	151,126	75,503
251,932	0,141	151,056	75,462
252,947	-0,070	150,972	75,307
253,961	0,107	150,780	75,294
254,976	0,208	150,808	75,352
255,990	-0,262	150,726	75,068
257,005	0,155	150,561	75,189
258,020	-0,039	150,471	75,040
259,034	0,299	150,344	75,139
260,049	-0,221	150,328	74,864
261,063	-0,208	150,192	74,795
262,078	0,069	150,055	74,859
263,093	0,329	150,013	74,962
264,107	0,365	149,849	74,891
265,122	0,249	149,821	74,813
266,136	-0,095	149,643	74,545
267,151	-0,072	149,502	74,480
268,166	0,212	149,484	74,606
269,180	0,176	149,321	74,500
270,195	0,111	149,245	74,423
271,209	0,387	149,061	74,462
272,224	0,144	149,044	74,326
273,239	-0,058	149,089	74,242
274,253	0,468	148,743	74,324
275,268	0,033	148,924	74,192
276,282	-0,237	148,681	73,930
277,297	0,601	148,571	74,283
278,312	0,107	148,502	73,998
279,326	0,442	148,356	74,084
280,341	0,020	148,396	73,889
281,355	0,151	148,353	73,926
282,370	0,106	148,171	73,806
283,384	-0,092	148,029	73,631
284,399	0,488	147,873	73,833
285,414	0,686	147,809	73,891
286,428	0,252	147,651	73,592
287,443	0,423	147,697	73,693
288,457	0,503	147,484	73,619
289,472	0,570	147,582	73,695
290,487	0,641	147,276	73,570
291,501	0,312	147,247	73,387
292,516	0,542	147,104	73,423
293,530	0,262	147,127	73,290
294,545	0,787	146,859	73,407
295,560	0,502	146,952	73,307
296,574	0,541	146,713	73,201
297,589	0,411	146,680	73,114
298,603	0,111	146,661	72,952
299,618	0,223	146,531	72,935
300,633	0,679	146,234	73,003
301,647	0,653	146,342	73,037
302,662	0,420	146,323	72,908
303,676	0,917	146,115	73,039
304,691	0,356	145,960	72,683
305,706	0,224	145,903	72,584
306,720	0,541	145,757	72,659
307,735	0,470	145,817	72,648
308,749	0,707	145,698	72,697
309,764	0,015	145,646	72,329
310,779	0,586	145,432	72,493
311,793	0,638	145,375	72,483
312,808	0,676	145,191	72,403
313,822	0,714	145,105	72,372
314,837	0,444	144,995	72,181
315,852	0,583	144,969	72,228
316,866	0,254	144,829	71,994
317,881	0,662	144,766	72,153
318,895	0,739	144,497	72,049
319,910	0,672	144,505	72,014
320,925	0,485	144,486	71,909
321,939	0,440	144,358	71,817
322,954	0,442	144,284	71,774
323,968	0,742	144,182	71,861
324,983	0,514	144,188	71,748
325,997	0,768	144,072	71,806
327,012	0,551	143,908	71,614
328,027	0,624	143,818	71,598
329,041	0,914	143,719	71,680
330,056	0,779	143,686	71,593
331,070	0,781	143,638	71,564
332,085	0,525	143,556	71,395
333,100	0,811	143,278	71,386
334,114	0,818	143,363	71,425
335,129	1,020	143,073	71,370
336,143	0,955	143,075	71,334
337,158	1,006	142,958	71,293
338,173	0,764	142,959	71,173
339,187	0,795	142,784	71,094
340,202	1,062	142,653	71,148
341,216	0,920	142,515	71,006
342,231	0,949	142,514	71,013
343,246	0,777	142,454	70,896
344,260	0,637	142,365	70,779
345,275	0,838	142,319	70,845
346,289	0,993	142,359	70,931
347,304	0,975	142,160	70,818
348,319	0,798	142,048	70,672
349,333	0,999	141,855	70,664
350,348	0,891	141,694	70,527
351,362	1,013	141,646	70,554
352,377	0,925	141,736	70,551
353,392	1,145	141,449	70,505
354,406	1,055	141,359	70,412
355,421	192,799	1323,290	1394,105
356,435	151,869	1467,762	1394,599
