DTS Sentinel unit serial number:	SN410029Multiplexer serial number:	ORYXHardware model number:	OX2-SRSoftware version number:	ORYX F/W v4,00 Oryx Data Collector v3.7.2.0data status	okinstallation	B3 Nyhavnadifferential loss correction	single-endedforward channel	channel 1reverse channel	N/Adate	2023/11/28time	13:12:30forward acquisition time	300,00reverse acquisition time	0,00gamma	499,1914k internal	0,3138k external	0,3138temperature offset calibration	1,0000default loss term (dB/km)	0,3820temperature slope calibration	1,0000multiplexer offset coefficient	1,0000multiplexer slope coefficient	1,0000fibre end	0,00T internal ref (°C)	8,02T ext. ref 1 (°C)	-7,56T ext. ref 2 (°C)	-7,76length (m)	temperature (°C)	Stokes	anti-Stokes-744,400	652,090	-0,137	-0,262
-743,385	60,788	0,228	0,168
-742,371	67,522	-0,185	-0,140
-741,356	-200,000	0,036	0,404
-740,342	568,122	-0,099	-0,180
-739,327	-200,000	-0,003	0,283
-738,312	171,404	-0,154	-0,165
-737,298	478,741	-0,055	0,092
-736,283	370,762	-0,162	-0,245
-735,269	-200,000	-0,051	0,299
-734,254	502,690	-0,180	-0,310
-733,239	-104,907	-0,282	-0,048
-732,225	330,206	-0,106	-0,151
-731,210	32,650	0,150	0,096
-730,196	800,000	-0,021	-0,051
-729,181	202,037	-0,068	-0,078
-728,167	210,475	-0,077	-0,090
-727,152	-114,602	0,108	0,015
-726,137	800,000	-0,029	-0,078
-725,123	10,835	-0,118	-0,066
-724,108	653,855	0,047	0,089
-723,094	-39,464	-0,089	0,035
-722,079	-200,000	-0,014	0,053
-721,064	-136,147	-0,173	-0,015
-720,050	800,000	0,055	0,114
-719,035	394,271	0,077	0,119
-718,021	-200,000	-0,011	-0,062
-717,006	-83,216	-0,101	-0,024
-715,991	560,255	0,012	-0,022
-714,977	-184,785	-0,075	0,001
-713,962	241,784	-0,080	-0,099
-712,948	-200,000	-0,003	-0,040
-711,933	-95,734	0,088	0,017
-710,918	270,997	0,047	-0,062
-709,904	572,933	0,068	-0,124
-708,889	-15,871	-0,212	0,100
-707,875	289,581	0,047	-0,063
-706,860	24,278	0,152	-0,093
-705,845	-64,172	0,126	-0,038
-704,831	496,165	-0,050	-0,086
-703,816	800,000	-0,046	-0,132
-702,802	200,573	-0,059	-0,067
-701,787	115,909	-0,057	-0,052
-700,772	-10,780	-0,066	0,032
-699,758	-200,000	-0,010	-0,097
-698,743	117,045	0,056	0,051
-697,729	-134,290	-0,111	-0,010
-696,714	-37,283	0,126	-0,050
-695,699	-66,332	-0,028	0,008
-694,685	-200,000	-0,015	-0,083
-693,670	-71,363	0,032	-0,009
-692,656	-122,551	0,096	-0,011
-691,641	20,834	-0,041	-0,025
-690,627	-118,209	0,115	-0,015
-689,612	800,000	0,028	0,092
-688,597	-59,523	-0,022	0,007
-687,583	4,173	-0,043	0,023
-686,568	-200,000	-0,049	-0,172
-685,554	39,197	0,073	0,048
-684,539	-54,137	-0,013	-0,004
-683,524	-106,403	0,053	-0,009
-682,510	-57,838	-0,066	-0,021
-681,495	-200,000	0,058	-0,189
-680,481	-200,000	-0,018	-0,067
-679,466	243,446	-0,086	-0,106
-678,451	52,759	-0,023	-0,017
-677,437	-49,510	-0,114	-0,040
-676,422	-97,671	-0,020	-0,004
-675,408	-177,879	-0,161	-0,003
-674,393	-90,064	0,057	0,012
-673,378	800,000	0,049	-0,152
-672,364	-200,000	-0,006	0,021
-671,349	-200,000	0,031	-0,205
-670,335	800,000	0,040	-0,111
-669,320	-143,378	0,129	0,009
-668,305	-41,964	0,060	0,023
-667,291	-87,296	-0,178	0,040
-666,276	800,000	-0,014	-0,035
-665,262	-200,000	-0,002	0,018
-664,247	-57,546	-0,039	0,013
-663,232	-16,827	0,103	-0,048
-662,218	120,774	-0,063	0,058
-661,203	-200,000	0,019	0,071
-660,189	-153,782	-0,087	0,004
-659,174	-200,000	0,006	-0,030
-658,159	30,497	-0,003	0,002
-657,145	-200,000	0,003	-0,062
-656,130	16,269	0,030	-0,017
-655,116	-6,575	0,158	0,080
-654,101	-142,463	0,050	-0,004
-653,086	92,188	-0,052	-0,044
-652,072	-183,407	0,086	0,001
-651,057	29,723	-0,132	-0,083
-650,043	34,938	-0,114	-0,074
-649,028	-90,398	-0,070	0,015
-648,014	51,680	0,057	0,040
-646,999	36,011	-0,128	0,083
-645,984	800,000	-0,023	-0,061
-644,970	-11,526	0,075	-0,036
-643,955	-61,161	-0,242	-0,075
-642,941	215,504	0,049	-0,058
-641,926	38,291	0,035	-0,023
-640,911	-154,886	-0,006	-0,000
-639,897	-200,000	0,009	-0,098
-638,882	-200,000	0,012	-0,099
-637,868	104,333	0,045	0,039
-636,853	-25,507	-0,053	-0,023
-635,838	-200,000	0,028	-0,103
-634,824	-200,000	-0,012	0,084
-633,809	80,110	0,033	-0,026
-632,795	-89,549	-0,096	0,021
-631,780	-200,000	-0,002	-0,044
-630,765	101,898	-0,075	-0,065
-629,751	151,685	0,086	-0,087
-628,736	800,000	-0,047	-0,114
-627,722	800,000	0,023	0,058
-626,707	-45,846	0,023	0,008
-625,692	292,564	0,105	0,142
-624,678	-200,000	0,016	-0,074
-623,663	-200,000	-0,005	-0,068
-622,649	-15,643	-0,033	0,016
-621,634	-200,000	0,021	-0,209
-620,619	-9,173	0,122	-0,060
-619,605	-56,558	0,065	0,021
-618,590	184,992	0,008	-0,009
-617,576	42,372	-0,094	-0,063
-616,561	106,598	0,027	-0,024
-615,546	-200,000	0,019	0,068
-614,532	39,787	0,080	-0,053
-613,517	-200,000	0,009	0,064
-612,503	-200,000	-0,018	-0,125
-611,488	-16,513	-0,060	0,028
-610,474	-97,287	0,052	-0,010
-609,459	65,634	-0,074	0,055
-608,444	-90,352	-0,088	-0,019
-607,430	-200,000	-0,017	-0,070
-606,415	800,000	-0,045	-0,127
-605,401	-80,888	-0,138	-0,034
-604,386	339,443	-0,062	-0,090
-603,371	252,004	0,050	0,063
-602,357	113,562	-0,017	0,015
-601,342	-200,000	-0,004	0,017
-600,328	432,803	0,017	0,027
-599,313	-99,248	-0,082	0,015
-598,298	-145,119	0,072	-0,005
-597,284	800,000	0,014	0,039
-596,269	211,837	0,013	0,016
-595,255	-200,000	0,017	-0,183
-594,240	280,157	-0,086	-0,114
-593,225	-200,000	0,007	0,110
-592,211	-121,253	-0,122	0,015
-591,196	-200,000	0,008	0,119
-590,182	34,415	0,097	0,062
-589,167	211,629	-0,045	0,053
-588,152	140,174	-0,020	0,020
-587,138	-77,544	0,057	-0,014
-586,123	97,817	0,054	-0,046
-585,109	619,219	-0,052	0,097
-584,094	-200,000	0,021	0,107
-583,079	-95,741	-0,043	-0,008
-582,065	85,310	0,012	-0,010
-581,050	-63,862	-0,010	0,003
-580,036	75,424	-0,051	0,040
-579,021	245,630	-0,060	0,074
-578,006	800,000	-0,028	0,059
-576,992	-3,575	-0,067	-0,034
-575,977	800,000	-0,016	0,040
-574,963	-47,092	0,060	0,021
-573,948	800,000	-0,007	-0,019
-572,934	-75,199	-0,018	-0,005
-571,919	37,996	-0,039	-0,026
-570,904	-73,468	-0,144	-0,039
-569,890	-50,699	0,070	0,024
-568,875	-200,000	0,000	0,102
-567,861	-59,122	0,077	0,024
-566,846	-20,388	0,087	-0,039
-565,831	-200,000	0,008	-0,065
-564,817	185,750	-0,089	-0,098
-563,802	-62,020	0,096	0,029
-562,788	800,000	0,042	-0,086
-561,773	-200,000	0,022	-0,137
-560,758	34,376	0,064	0,041
-559,744	800,000	-0,011	0,034
-558,729	280,617	0,090	0,119
-557,715	-75,751	0,163	0,042
-556,700	-63,879	-0,163	-0,049
-555,685	398,300	-0,003	-0,004
-554,671	-200,000	-0,007	0,116
-553,656	-92,485	0,262	0,054
-552,642	-200,000	0,002	0,121
-551,627	-200,000	-0,043	0,186
-550,612	44,291	-0,025	0,017
-549,598	177,958	-0,039	0,042
-548,583	800,000	-0,013	-0,039
-547,569	-173,919	-0,121	-0,003
-546,554	-200,000	0,016	-0,121
-545,539	152,340	0,058	-0,058
-544,525	-200,000	-0,004	-0,013
-543,510	19,404	-0,111	-0,065
-542,496	-93,088	-0,119	-0,024
-541,481	800,000	0,024	-0,064
-540,466	-200,000	-0,018	-0,095
-539,452	-200,000	-0,013	-0,233
-538,437	-200,000	0,029	0,110
-537,423	800,000	0,056	0,145
-536,408	-23,879	-0,042	-0,018
-535,393	800,000	-0,036	-0,074
-534,379	-44,727	-0,070	0,026
-533,364	231,058	-0,029	-0,034
-532,350	800,000	-0,026	0,076
-531,335	800,000	-0,041	0,089
-530,321	-57,493	0,048	0,015
-529,306	120,750	-0,029	0,027
-528,291	800,000	-0,017	-0,042
-527,277	91,018	-0,245	-0,202
-526,262	-2,781	-0,113	-0,058
-525,248	325,757	0,022	0,031
-524,233	-200,000	-0,031	0,118
-523,218	-200,000	-0,001	0,137
-522,204	-200,000	-0,010	0,033
-521,189	-200,000	0,003	0,044
-520,175	63,585	-0,103	-0,076
-519,160	115,453	0,098	0,088
-518,145	-107,139	-0,089	-0,014
-517,131	-200,000	-0,007	0,034
-516,116	-200,000	-0,047	0,171
-515,102	800,000	0,021	0,065
-514,087	-106,630	0,041	0,007
-513,072	139,377	-0,102	-0,099
-512,058	305,793	0,047	0,064
-511,043	800,000	-0,033	-0,068
-510,029	-200,000	0,004	0,098
-509,014	-200,000	0,006	-0,021
-507,999	257,066	0,012	-0,016
-506,985	477,440	-0,039	0,065
-505,970	-49,229	-0,132	-0,046
-504,956	-165,993	0,113	0,003
-503,941	117,440	0,017	0,016
-502,926	175,348	0,084	0,089
-501,912	3,045	0,092	0,049
-500,897	162,237	-0,083	-0,085
-499,883	303,168	-0,065	-0,089
-498,868	-4,399	-0,153	0,077
-497,853	-39,718	0,117	-0,045
-496,839	108,767	0,059	-0,052
-495,824	224,813	-0,077	-0,092
-494,810	-200,000	0,003	0,043
-493,795	115,909	0,113	0,102
-492,781	143,625	-0,095	-0,093
-491,766	-83,773	-0,104	0,024
-490,751	-3,554	-0,103	-0,053
-489,737	249,569	0,082	-0,103
-488,722	65,395	-0,145	0,108
-487,708	-8,700	0,014	-0,007
-486,693	50,424	-0,065	0,045
-485,678	-200,000	-0,001	-0,124
-484,664	-63,377	-0,113	-0,034
-483,649	-151,210	-0,058	0,003
-482,635	218,922	0,018	-0,022
-481,620	85,367	0,064	-0,051
-480,605	800,000	0,038	0,109
-479,591	296,508	0,047	-0,064
-478,576	-56,212	-0,028	0,009
-477,562	800,000	0,043	-0,098
-476,547	229,508	-0,043	0,052
-475,532	591,601	-0,068	0,124
-474,518	-200,000	-0,009	-0,071
-473,503	64,897	0,039	-0,029
-472,489	-200,000	0,011	0,081
-471,474	363,633	0,110	-0,163
-470,459	-81,075	-0,098	-0,024
-469,445	-200,000	0,015	-0,054
-468,430	-200,000	-0,011	-0,086
-467,416	718,411	0,059	-0,116
-466,401	394,072	0,055	-0,084
-465,386	60,071	-0,003	-0,002
-464,372	-81,394	-0,071	0,017
-463,357	-45,452	0,106	-0,038
-462,343	800,000	-0,078	-0,212
-461,328	-57,588	-0,018	0,006
-460,313	-61,903	0,067	0,020
-459,299	94,796	0,061	0,051
-458,284	-28,312	-0,057	-0,024
-457,270	-120,199	0,074	-0,009
-456,255	794,289	-0,065	-0,132
-455,241	232,368	-0,066	-0,080
-454,226	6,345	0,085	0,046
-453,211	800,000	0,059	0,129
-452,197	90,341	-0,068	-0,056
-451,182	800,000	-0,080	0,216
-450,168	800,000	0,051	0,160
-449,153	397,798	-0,027	-0,041
-448,138	-200,000	0,010	-0,077
-447,124	-189,816	-0,093	0,001
-446,109	762,209	-0,065	-0,131
-445,095	-62,790	0,102	0,031
-444,080	-45,573	0,104	0,038
-443,065	-67,909	0,146	-0,041
-442,051	328,062	-0,057	0,080
-441,036	258,254	-0,066	-0,084
-440,022	-200,000	0,029	0,198
-439,007	266,764	-0,050	0,065
-437,992	74,430	0,135	0,104
-436,978	-47,404	0,093	-0,033
-435,963	800,000	-0,062	0,140
-434,949	227,367	-0,087	-0,103
-433,934	-64,078	0,046	-0,014
-432,919	-92,872	0,047	0,010
-431,905	800,000	-0,049	0,156
-430,890	-35,118	-0,070	0,028
-429,876	180,252	0,044	-0,047
-428,861	496,601	-0,027	0,045
-427,846	-6,400	-0,119	-0,059
-426,832	-93,011	-0,148	0,030
-425,817	-18,686	-0,063	0,029
-424,803	-200,000	0,015	-0,080
-423,788	-200,000	-0,010	0,040
-422,773	-130,333	0,109	0,011
-421,759	93,687	-0,017	-0,014
-420,744	64,720	-0,043	-0,032
-419,730	-36,152	0,140	-0,055
-418,715	800,000	-0,055	-0,131
-417,701	381,179	-0,088	-0,132
-416,686	348,939	0,048	0,070
-415,671	130,815	0,124	0,116
-414,657	800,000	-0,037	0,108
-413,642	-168,181	-0,108	-0,003
-412,628	-200,000	-0,019	0,086
-411,613	7,550	0,082	0,045
-410,598	-115,014	0,067	0,009
-409,584	-99,907	0,058	0,010
-408,569	-65,273	-0,088	-0,026
-407,555	115,358	0,120	0,107
-406,540	272,314	-0,014	-0,019
-405,525	254,217	0,067	-0,084
-404,511	259,521	-0,051	-0,064
-403,496	120,571	-0,170	-0,155
-402,482	628,127	-0,069	-0,127
-401,467	147,505	0,199	0,197
-400,452	12,390	-0,110	-0,062
-399,438	-34,443	-0,115	-0,046
-398,423	-200,000	0,003	-0,034
-397,409	800,000	-0,045	0,124
-396,394	518,874	-0,062	0,107
-395,379	-155,423	0,083	-0,004
-394,365	474,575	-0,028	-0,047
-393,350	291,234	0,073	0,098
-392,336	-68,778	-0,088	0,025
-391,321	800,000	0,058	-0,155
-390,306	-200,000	0,027	-0,184
-389,292	-26,380	-0,091	-0,039
-388,277	63,596	0,060	0,044
-387,263	-200,000	0,020	0,073
-386,248	155,366	0,149	0,150
-385,233	800,000	0,008	0,018
-384,219	800,000	-0,026	-0,064
-383,204	-200,000	0,020	-0,092
-382,190	-200,000	0,000	0,048
-381,175	400,778	-0,051	0,079
-380,160	-200,000	-0,034	0,132
-379,146	-55,169	0,014	0,005
-378,131	-195,781	0,128	-0,001
-377,117	179,231	-0,083	0,089
-376,102	169,707	0,131	0,137
-375,088	654,285	-0,042	-0,079
-374,073	-88,131	-0,080	-0,017
-373,058	-107,018	0,093	-0,015
-372,044	-200,000	0,001	0,121
-371,029	-200,000	-0,036	0,125
-370,015	-63,278	0,102	0,030
-369,000	207,616	0,063	-0,072
-367,985	242,774	0,125	-0,153
-366,971	-13,120	0,069	-0,033
-365,956	-200,000	-0,024	0,125
-364,942	-28,339	0,138	0,058
-363,927	210,360	0,068	0,078
-362,912	-165,424	-0,186	-0,006
-361,898	543,480	0,009	0,016
-360,883	800,000	-0,029	-0,082
-359,869	800,000	0,032	-0,065
-358,854	88,632	-0,052	0,042
-357,839	-91,915	0,072	-0,015
-356,825	-169,180	0,106	0,003
-355,810	49,455	0,049	0,034
-354,796	329,113	-0,073	0,102
-353,781	-44,838	-0,015	0,006
-352,766	-54,826	0,047	-0,016
-351,752	-93,220	-0,145	-0,029
-350,737	-200,000	-0,001	0,077
-349,723	79,266	0,131	0,103
-348,708	-200,000	0,000	-0,008
-347,693	289,839	0,054	0,071
-346,679	-200,000	-0,005	0,055
-345,664	163,947	-0,100	0,103
-344,650	21,768	-0,046	0,027
-343,635	118,510	0,056	-0,051
-342,620	-137,493	0,106	-0,009
-341,606	800,000	0,016	0,047
-340,591	134,146	0,091	0,086
-339,577	232,662	0,094	-0,113
-338,562	-200,000	-0,003	-0,081
-337,548	-200,000	0,002	0,048
-336,533	527,692	0,069	-0,119
-335,518	-200,000	-0,006	-0,028
-334,504	-164,405	0,072	-0,002
-333,489	331,365	-0,071	-0,101
-332,475	-81,228	0,048	-0,012
-331,460	800,000	-0,043	-0,103
-330,445	25,889	-0,054	0,033
-329,431	-93,563	-0,128	0,026
-328,416	223,284	0,062	0,073
-327,402	370,214	0,072	0,107
-326,387	209,167	0,034	-0,038
-325,372	-18,909	-0,081	-0,037
-324,358	99,417	-0,135	-0,114
-323,343	265,671	-0,078	0,099
-322,329	-25,139	0,020	-0,009
-321,314	800,000	0,023	0,055
-320,299	86,412	0,096	0,077
-319,285	72,318	-0,065	0,049
-318,270	58,895	-0,036	0,026
-317,256	-41,668	-0,067	-0,025
-316,241	-200,000	-0,032	0,152
-315,226	-200,000	0,005	0,099
-314,212	-150,151	0,132	-0,007
-313,197	-200,000	-0,002	0,039
-312,183	-200,000	-0,013	-0,099
-311,168	-78,338	-0,063	0,016
-310,153	-200,000	-0,017	-0,093
-309,139	-1,792	0,026	-0,014
-308,124	-74,318	0,048	-0,013
-307,110	-150,913	-0,070	0,004
-306,095	-200,000	-0,020	-0,068
-305,080	-180,681	0,126	-0,002
-304,066	-200,000	-0,019	-0,096
-303,051	-200,000	-0,002	-0,073
-302,037	144,302	-0,154	-0,150
-301,022	403,706	-0,085	-0,131
-300,008	-17,830	0,063	-0,029
-298,993	-200,000	-0,019	0,095
-297,978	800,000	-0,081	0,184
-296,964	-200,000	-0,002	-0,028
-295,949	174,310	-0,037	-0,039
-294,935	-200,000	-0,012	0,121
-293,920	800,000	-0,054	-0,139
-292,905	-8,743	0,187	-0,091
-291,891	-110,923	-0,053	0,008
-290,876	202,778	0,134	0,151
-289,862	800,000	0,047	-0,108
-288,847	-200,000	-0,006	-0,052
-287,832	-89,746	-0,075	-0,016
-286,818	56,507	0,027	-0,019
-285,803	800,000	0,022	-0,062
-284,789	-200,000	-0,008	0,063
-283,774	-200,000	-0,001	0,013
-282,759	800,000	0,027	-0,067
-281,745	168,254	0,059	-0,062
-280,730	-100,116	-0,074	-0,013
-279,716	173,805	0,074	-0,077
-278,701	-200,000	0,008	0,025
-277,686	70,277	0,071	0,054
-276,672	-94,391	-0,166	-0,033
-275,657	-200,000	-0,016	-0,090
-274,643	-200,000	0,006	-0,103
-273,628	128,181	-0,095	-0,088
-272,613	800,000	-0,043	-0,097
-271,599	-14,729	0,077	0,036
-270,584	48,283	0,055	0,038
-269,570	-147,622	-0,126	0,008
-268,555	-134,877	0,020	-0,002
-267,540	-24,910	-0,061	0,026
-266,526	-200,000	0,012	-0,145
-265,511	-45,923	-0,127	-0,045
-264,497	-179,809	-0,070	0,001
-263,482	-200,000	0,007	-0,035
-262,467	-200,000	0,004	0,021
-261,453	-200,000	-0,023	0,197
-260,438	380,558	-0,026	0,039
-259,424	11,979	-0,056	-0,031
-258,409	632,597	0,004	-0,008
-257,395	-115,637	0,114	0,015
-256,380	59,657	0,045	-0,032
-255,365	-151,115	-0,081	0,004
-254,351	127,086	0,084	-0,077
-253,336	-77,797	-0,041	-0,010
-252,322	226,512	-0,072	-0,085
-251,307	224,796	-0,049	-0,058
-250,292	-84,587	0,126	-0,029
-249,278	800,000	-0,010	0,030
-248,263	-74,428	0,149	0,039
-247,249	-200,000	0,039	0,151
-246,234	-200,000	-0,042	-0,191
-245,219	434,728	-0,076	-0,121
-244,205	-200,000	-0,034	-0,143
-243,190	88,386	0,120	-0,097
-242,176	61,450	0,172	-0,124
-241,161	-72,035	-0,072	-0,019
-240,146	326,792	-0,007	0,010
-239,132	-27,389	-0,096	-0,041
-238,117	40,109	-0,111	-0,072
-237,103	-74,217	-0,037	-0,010
-236,088	800,000	-0,095	0,194
-235,073	225,670	0,063	-0,074
-234,059	58,819	0,070	0,050
-233,044	800,000	0,019	-0,047
-232,030	-197,665	0,049	0,000
-231,015	800,000	-0,022	-0,059
-230,000	800,000	-0,106	-0,226
-228,986	-31,544	0,076	-0,031
-227,971	-200,000	-0,015	0,093
-226,957	665,972	-0,008	0,015
-225,942	-68,427	0,096	0,027
-224,927	71,968	-0,048	0,036
-223,913	-200,000	-0,028	0,108
-222,898	-200,000	-0,023	0,145
-221,884	89,395	0,126	0,102
-220,869	-50,098	0,102	0,035
-219,855	-131,999	0,086	-0,008
-218,840	-100,039	0,158	0,028
-217,825	-200,000	0,008	-0,075
-216,811	-200,000	0,001	0,061
-215,796	-36,023	-0,127	-0,049
-214,782	800,000	-0,022	0,071
-213,767	-76,209	-0,038	0,010
-212,752	-200,000	-0,008	0,071
-211,738	-200,000	-0,051	0,200
-210,723	85,633	0,053	0,042
-209,709	800,000	0,033	0,083
-208,694	-48,645	-0,074	-0,026
-207,679	-200,000	0,012	0,062
-206,665	186,188	0,071	-0,077
-205,650	349,889	0,058	0,084
-204,636	90,149	0,156	0,127
-203,621	-161,518	0,085	0,003
-202,606	449,536	-0,030	0,048
-201,592	800,000	0,082	-0,181
-200,577	305,365	-0,016	-0,022
-199,563	800,000	0,026	0,070
-198,548	800,000	0,017	-0,037
-197,533	146,072	0,049	0,048
-196,519	800,000	-0,025	0,070
-195,504	389,329	-0,076	-0,115
-194,490	175,412	-0,083	0,087
-193,475	-69,390	-0,138	0,038
-192,460	694,989	0,056	0,108
-191,446	-171,986	-0,108	-0,002
-190,431	-200,000	0,043	0,168
-189,417	164,069	0,077	0,078
-188,402	200,317	0,051	-0,057
-187,387	-127,108	-0,105	0,011
-186,373	-39,419	0,093	-0,035
-185,358	-140,045	0,095	-0,007
-184,344	-9,638	0,115	-0,055
-183,329	480,273	0,027	0,044
-182,315	800,000	-0,061	0,152
-181,300	44,952	-0,042	0,028
-180,285	292,863	-0,032	-0,042
-179,271	93,033	-0,126	-0,103
-178,256	-200,000	-0,056	-0,200
-177,242	220,392	0,087	0,102
-176,227	-71,157	0,124	0,033
-175,212	800,000	0,054	-0,120
-174,198	800,000	0,024	0,051
-173,183	-114,755	-0,058	0,008
-172,169	29,897	0,052	-0,032
-171,154	51,525	0,141	-0,097
-170,139	800,000	0,062	0,129
-169,125	-200,000	0,004	0,114
-168,110	-69,796	0,143	-0,039
-167,096	800,000	0,015	-0,040
-166,081	80,372	-0,057	0,045
-165,066	9,486	0,038	-0,021
-164,052	-200,000	-0,008	0,027
-163,037	155,172	-0,047	0,047
-162,023	-200,000	0,014	0,117
-161,008	687,760	-0,033	0,063
-159,993	29,911	0,088	-0,054
-158,979	800,000	0,007	0,018
-157,964	327,183	-0,059	-0,083
-156,950	-200,000	-0,004	-0,105
-155,935	-200,000	-0,007	0,042
-154,920	-78,872	0,247	0,061
-153,906	695,786	0,038	0,072
-152,891	-200,000	-0,014	0,099
-151,877	442,757	0,026	-0,041
-150,862	-200,000	-0,027	-0,133
-149,847	800,000	0,038	0,080
-148,833	-109,810	-0,020	0,003
-147,818	800,000	-0,030	0,069
-146,804	233,827	-0,047	-0,056
-145,789	-56,070	-0,043	0,014
-144,775	-200,000	0,000	0,120
-143,760	227,982	0,048	-0,057
-142,745	-200,000	-0,030	-0,116
-141,731	-200,000	-0,003	-0,053
-140,716	307,964	-0,112	0,152
-139,702	17,748	0,063	0,037
-138,687	-92,253	-0,085	0,017
-137,672	800,000	0,033	-0,078
-136,658	-18,121	0,044	-0,020
-135,643	17,488	0,065	-0,038
-134,629	-200,000	0,009	-0,164
-133,614	-200,000	-0,002	0,010
-132,599	-149,127	-0,072	-0,004
-131,585	-39,267	0,143	0,054
-130,570	-88,785	-0,051	-0,011
-129,556	-200,000	-0,021	-0,078
-128,541	74,279	0,131	-0,100
-127,526	-57,388	0,089	-0,028
-126,512	10,204	-0,119	-0,065
-125,497	-112,869	0,141	0,020
-124,483	-131,197	0,177	0,017
-123,468	375,475	-0,025	-0,036
-122,453	-28,666	0,091	0,038
-121,439	-200,000	0,029	-0,108
-120,424	105,616	-0,099	-0,084
-119,410	490,969	0,040	-0,067
-118,395	-137,912	0,062	-0,005
-117,380	-200,000	0,044	0,237
-116,366	-200,000	-0,035	-0,138
-115,351	800,000	-0,051	-0,157
-114,337	781,916	-0,016	-0,032
-113,322	-200,000	0,032	-0,105
-112,307	-200,000	0,003	0,010
-111,293	-170,181	0,151	0,004
-110,278	32,923	-0,088	0,055
-109,264	-200,000	0,020	-0,113
-108,249	-159,685	-0,022	-0,001
-107,234	-57,738	0,166	0,052
-106,220	-200,000	-0,002	-0,014
-105,205	665,195	0,081	-0,151
-104,191	-200,000	-0,002	0,047
-103,176	142,782	-0,026	0,025
-102,162	-200,000	0,006	0,055
-101,147	661,157	0,024	-0,044
-100,132	23,162	-0,133	-0,079
-99,118	800,000	0,043	0,087
-98,103	-200,000	0,013	0,049
-97,089	-122,224	-0,099	0,012
-96,074	-200,000	-0,007	0,047
-95,059	-200,000	0,049	-0,192
-94,045	357,682	-0,105	-0,152
-93,030	399,340	0,065	-0,098
-92,016	447,421	0,045	-0,072
-91,001	575,858	0,031	0,056
-89,986	-145,174	0,104	0,007
-88,972	-200,000	-0,001	-0,101
-87,957	-126,801	0,201	0,021
-86,943	-49,326	-0,106	0,037
-85,928	-96,743	-0,096	-0,018
-84,913	-113,219	-0,144	0,020
-83,899	509,538	-0,032	-0,053
-82,884	-6,174	0,045	0,022
-81,870	800,000	0,006	-0,013
-80,855	-200,000	0,020	0,102
-79,840	62,944	0,045	-0,032
-78,826	-88,977	0,024	-0,005
-77,811	464,763	-0,041	-0,067
-76,797	230,494	0,057	-0,067
-75,782	-47,207	0,118	0,041
-74,767	759,155	0,015	0,030
-73,753	515,265	0,025	-0,043
-72,738	-200,000	-0,013	-0,207
-71,724	178,736	0,022	-0,023
-70,709	-200,000	-0,015	0,085
-69,694	87,314	0,058	-0,046
-68,680	304,955	-0,038	0,051
-67,665	-200,000	0,005	0,064
-66,651	65,787	-0,097	-0,071
-65,636	445,312	0,090	-0,143
-64,622	168,274	0,135	-0,139
-63,607	-13,552	-0,171	-0,080
-62,592	-192,313	-0,226	-0,001
-61,578	659,523	-0,017	0,031
-60,563	87,276	0,079	0,063
-59,549	-200,000	-0,038	0,149
-58,534	52,911	-2,253	-1,554
-57,519	438,087	-1,250	-1,976
-56,505	-200,000	-0,266	-4,346
-55,490	747,054	0,797	1,559
-54,476	800,000	5,270	11,323
-53,461	-200,000	22,352	345,224
-52,446	800,000	753,660	2292,072
-51,432	505,891	1637,437	2750,703
-50,417	66,651	1570,699	1152,477
-49,403	18,661	1161,292	669,173
-48,388	11,200	892,347	491,610
-47,373	25,998	861,054	517,386
-46,359	16,826	846,501	482,471
-45,344	8,134	842,552	455,323
-44,330	8,054	840,800	454,129
-43,315	7,941	839,480	453,076
-42,300	7,938	838,244	452,381
-41,286	7,989	837,260	451,978
-40,271	7,868	836,324	451,110
-39,257	7,953	835,333	450,801
-38,242	8,127	834,319	450,729
-37,227	8,014	833,776	450,098
-36,213	7,953	832,679	449,315
-35,198	8,027	831,835	449,050
-34,184	8,063	831,230	448,807
-33,169	8,054	830,161	448,187
-32,154	8,044	829,620	447,848
-31,140	8,067	828,254	447,159
-30,125	8,064	827,590	446,775
-29,111	8,036	826,980	446,349
-28,096	7,966	826,806	446,040
-27,082	8,096	825,808	445,849
-26,067	8,058	824,971	445,273
-25,052	8,004	824,269	444,724
-24,038	8,019	823,620	444,399
-23,023	7,999	823,068	444,027
-22,009	8,132	822,535	444,096
-20,994	8,078	821,975	443,625
-19,979	8,143	820,921	443,218
-18,965	8,059	820,529	442,756
-17,950	8,132	820,033	442,675
-16,936	8,038	819,550	442,135
-15,921	8,020	818,868	441,698
-14,906	7,913	818,132	440,985
-13,892	7,988	817,625	440,903
-12,877	7,940	817,045	440,440
-11,863	7,873	816,591	439,992
-10,848	7,929	815,924	439,770
-9,833	8,029	815,564	439,836
-8,819	8,048	814,810	439,463
-7,804	8,084	814,026	439,124
-6,790	8,047	813,723	438,840
-5,775	8,001	813,406	438,526
-4,760	7,921	812,771	437,942
-3,746	7,894	812,444	437,675
-2,731	7,813	811,841	437,108
-1,717	7,755	811,401	436,695
-0,702	7,843	810,487	436,429
0,313	7,913	807,983	435,930
1,327	11,396	791,590	436,433
2,342	19,788	645,023	373,922
3,356	13,831	355,393	198,845
4,371	-15,668	239,395	109,732
5,386	-18,802	225,599	100,959
6,400	-18,923	221,176	98,878
7,415	-17,877	219,207	98,780
8,429	-18,896	217,873	97,403
9,444	-19,256	217,202	96,826
10,459	-19,127	216,607	96,649
11,473	-19,200	216,140	96,376
12,488	-19,010	215,652	96,292
13,502	-19,020	215,124	96,040
14,517	-18,882	214,786	95,982
15,531	-19,103	214,280	95,585
16,546	-19,213	214,168	95,445
17,561	-19,114	213,641	95,275
18,575	-19,025	213,581	95,305
19,590	-19,050	213,172	95,095
20,604	-18,856	212,939	95,125
21,619	-18,951	212,508	94,855
22,634	-19,028	212,398	94,741
23,648	-18,928	211,943	94,602
24,663	-18,938	211,910	94,572
25,677	-19,005	211,618	94,384
26,692	-18,888	211,297	94,318
27,707	-18,920	211,138	94,216
28,721	-18,968	210,939	94,083
29,736	-19,007	210,848	94,006
30,750	-19,301	210,527	93,641
31,765	-18,958	210,304	93,782
32,780	-18,946	210,053	93,671
33,794	-18,950	209,755	93,527
34,809	-18,958	209,631	93,457
35,823	-18,996	209,253	93,253
36,838	-19,094	209,149	93,128
37,853	-18,991	208,950	93,105
38,867	-19,119	208,713	92,899
39,882	-18,716	208,310	93,001
40,896	-19,002	208,346	92,803
41,911	-18,799	208,107	92,834
42,926	-18,994	208,026	92,649
43,940	-19,051	207,734	92,471
44,955	-18,952	207,405	92,387
45,969	-18,998	207,186	92,248
46,984	-18,905	207,030	92,237
47,999	-18,671	207,090	92,421
49,013	-19,127	206,928	92,017
50,028	-18,887	206,769	92,108
51,042	-18,911	206,422	91,929
52,057	-18,901	206,318	91,881
53,071	-18,805	206,075	91,833
54,086	-18,592	205,759	91,835
55,101	-18,831	205,840	91,693
56,115	-18,837	205,519	91,538
57,130	-18,948	205,369	91,385
58,144	-18,850	204,955	91,261
59,159	-19,113	204,984	91,081
60,174	-19,122	204,720	90,949
61,188	-18,904	204,600	91,041
62,203	-19,067	204,447	90,850
63,217	-18,715	204,069	90,921
64,232	-18,847	204,044	90,809
65,247	-18,787	203,771	90,721
66,261	-19,107	203,563	90,397
67,276	-18,885	203,522	90,526
68,290	-18,833	203,250	90,433
69,305	-18,749	203,190	90,457
70,320	-18,876	202,937	90,248
71,334	-19,017	202,610	89,996
72,349	-19,082	202,459	89,876
73,363	-19,154	202,367	89,777
74,378	-19,116	202,088	89,671
75,393	-18,835	201,857	89,756
76,407	-18,813	201,887	89,777
77,422	-18,793	201,568	89,641
78,436	-18,987	201,529	89,481
79,451	-18,834	201,210	89,438
80,466	-18,854	201,042	89,341
81,480	-18,955	200,910	89,204
82,495	-18,802	200,807	89,256
83,509	-18,887	200,708	89,146
84,524	-18,948	200,537	89,020
85,539	-18,953	200,427	88,960
86,553	-18,778	200,060	88,909
87,568	-18,772	199,937	88,850
88,582	-19,092	199,887	88,601
89,597	-18,895	199,580	88,591
90,611	-18,918	199,446	88,509
91,626	-18,745	199,231	88,523
92,641	-18,961	199,284	88,391
93,655	-18,891	198,976	88,295
94,670	-18,895	198,754	88,185
95,684	-19,015	198,663	88,056
96,699	-18,823	198,415	88,069
97,714	-18,954	198,347	87,942
98,728	-18,901	198,295	87,947
99,743	-18,744	197,945	87,890
100,757	-18,860	197,932	87,798
101,772	-18,858	197,704	87,690
102,787	-18,713	197,431	87,659
103,801	-18,756	197,343	87,583
104,816	-19,061	197,330	87,363
105,830	-18,707	196,988	87,443
106,845	-18,696	197,026	87,459
107,860	-18,750	196,819	87,324
108,874	-18,751	196,672	87,250
109,889	-18,960	196,355	86,961
110,903	-18,855	196,233	86,970
111,918	-18,798	195,952	86,876
112,933	-18,756	195,965	86,902
113,947	-18,715	195,670	86,791
114,962	-18,781	195,613	86,714
115,976	-18,735	195,412	86,648
116,991	-18,605	195,358	86,703
118,006	-18,826	195,125	86,444
119,020	-18,867	195,053	86,377
120,035	-19,035	194,992	86,231
121,049	-18,696	194,770	86,351
122,064	-18,841	194,504	86,129
123,079	-18,662	194,312	86,154
124,093	-19,020	194,180	85,850
125,108	-18,980	194,077	85,824
126,122	-18,840	193,977	85,865
127,137	-18,803	193,775	85,792
128,151	-18,689	193,534	85,753
129,166	-18,722	193,610	85,757
130,181	-18,575	193,244	85,684
131,195	-18,718	193,030	85,488
132,210	-18,750	192,907	85,405
133,224	-18,708	192,727	85,345
134,239	-18,795	192,645	85,244
135,254	-18,780	192,499	85,181
136,268	-18,977	192,340	84,974
137,283	-18,832	192,082	84,948
138,297	-18,646	191,974	85,014
139,312	-18,816	191,853	84,842
140,327	-18,836	191,608	84,713
141,341	-19,022	191,499	84,536
142,356	-18,806	191,158	84,519
143,370	-17,916	191,551	85,266
144,385	-10,863	193,629	90,838
145,400	-4,174	195,246	96,027
146,414	-2,814	195,226	96,909
147,429	-2,824	195,219	96,890
148,443	-2,408	195,181	97,138
149,458	-2,157	194,991	97,201
150,473	-2,015	195,031	97,306
151,487	-1,651	194,794	97,419
152,502	-1,689	194,815	97,396
153,516	-1,917	194,736	97,197
154,531	-1,671	194,484	97,225
155,546	-1,722	194,425	97,153
156,560	-1,612	194,186	97,097
157,575	-1,495	194,012	97,079
158,589	-1,865	193,964	96,803
159,604	-1,613	193,695	96,826
160,619	-1,669	193,677	96,771
161,633	-1,519	193,563	96,803
162,648	-1,611	193,381	96,644
163,662	-1,745	193,352	96,533
164,677	-1,161	193,090	96,775
165,692	-1,405	193,135	96,630
166,706	-1,325	192,854	96,532
167,721	-1,310	192,729	96,471
168,735	-1,455	192,718	96,363
169,750	-1,226	192,508	96,398
170,764	-1,373	192,349	96,214
171,779	-1,019	192,313	96,418
172,794	-1,129	192,159	96,260
173,808	-1,538	192,116	95,965
174,823	-1,092	191,831	96,103
175,837	-1,120	191,745	96,034
176,852	-1,459	191,608	95,736
177,867	-1,151	191,517	95,882
178,881	-1,336	191,350	95,671
179,896	-1,240	191,392	95,745
180,910	-1,208	191,191	95,656
181,925	-1,419	190,884	95,358
182,940	-1,653	190,891	95,202
183,954	-1,196	190,740	95,412
184,969	-1,069	190,524	95,378
185,983	-1,395	190,470	95,132
186,998	-1,081	190,439	95,310
188,013	-1,102	190,231	95,184
189,027	-1,239	189,996	94,971
190,042	-1,352	189,969	94,876
191,056	-1,181	189,785	94,886
192,071	-1,131	189,647	94,840
193,086	-1,084	189,516	94,796
194,100	-0,923	189,290	94,777
195,115	-1,025	189,239	94,679
196,129	-0,952	189,121	94,657
197,144	-1,028	188,874	94,477
198,159	-1,014	188,825	94,453
199,173	-1,239	188,636	94,206
200,188	-0,996	188,528	94,299
201,202	-1,022	188,397	94,208
202,217	-1,155	188,378	94,106
203,232	-1,096	188,174	94,033
204,246	-1,191	188,065	93,910
205,261	-0,730	187,731	94,027
206,275	-1,315	187,753	93,659
207,290	-1,076	187,619	93,735
208,304	-0,875	187,539	93,813
209,319	-0,829	187,336	93,733
210,334	-1,042	187,137	93,490
211,348	-1,238	187,093	93,337
212,363	-0,755	186,942	93,557
213,377	-0,881	186,990	93,493
214,392	-0,762	186,781	93,455
215,407	-0,713	186,717	93,446
216,421	-0,726	186,475	93,308
217,436	-0,980	186,337	93,071
218,450	-0,836	186,214	93,092
219,465	-0,767	186,119	93,079
220,480	-0,694	185,947	93,031
221,494	-0,642	185,816	92,990
222,509	-0,794	185,766	92,861
223,523	-0,789	185,549	92,748
224,538	-1,003	185,479	92,570
225,553	-0,841	185,215	92,532
226,567	-0,679	185,327	92,681
227,582	-0,980	185,074	92,358
228,596	-0,683	184,993	92,494
229,611	-0,661	184,848	92,427
230,626	-0,751	184,656	92,267
231,640	-0,670	184,550	92,256
232,655	-0,596	184,414	92,226
233,669	-0,731	184,275	92,064
234,684	-0,934	184,273	91,929
235,699	-0,880	184,231	91,934
236,713	-0,517	183,982	92,025
237,728	-0,684	183,907	91,877
238,742	-0,669	183,805	91,827
239,757	-0,500	183,758	91,900
240,772	-0,675	183,541	91,675
241,786	-0,690	183,502	91,639
242,801	-0,663	183,359	91,575
243,815	-0,593	183,181	91,521
244,830	-0,321	183,041	91,610
245,844	-0,805	183,035	91,301
246,859	-0,570	182,979	91,410
247,874	-0,578	182,633	91,224
248,888	-0,628	182,563	91,150
249,903	-0,377	182,440	91,235
250,917	-0,468	182,382	91,141
251,932	-0,444	182,332	91,123
252,947	-0,516	182,151	90,981
253,961	-0,588	182,049	90,877
254,976	-0,321	181,726	90,871
255,990	-0,608	181,737	90,693
257,005	-0,422	181,597	90,729
258,020	-0,265	181,469	90,752
259,034	-0,259	181,301	90,664
260,049	-0,554	181,296	90,474
261,063	-0,257	181,170	90,584
262,078	-0,516	181,053	90,359
263,093	-0,506	180,908	90,285
264,107	-0,663	180,786	90,122
265,122	-0,677	180,770	90,097
266,136	-0,304	180,459	90,159
267,151	-0,235	180,431	90,179
268,166	-0,594	180,326	89,901
269,180	-0,548	180,185	89,850
270,195	-0,400	180,059	89,869
271,209	-0,395	179,983	89,826
272,224	-0,074	179,812	89,926
273,239	-0,076	179,716	89,869
274,253	-0,574	179,656	89,532
275,268	-0,389	179,487	89,550
276,282	-0,628	179,388	89,349
277,297	-0,331	179,203	89,427
278,312	-0,504	179,171	89,300
279,326	-0,339	179,068	89,339
280,341	-0,283	179,000	89,331
281,355	-0,325	178,813	89,204
282,370	-0,363	178,719	89,127
283,384	-0,347	178,450	88,995
284,399	-0,263	178,373	88,999
285,414	-0,092	178,238	89,025
286,428	-0,333	178,289	88,899
287,443	-0,173	178,084	88,884
288,457	-0,383	178,044	88,731
289,472	0,067	177,830	88,884
290,487	0,021	177,683	88,775
291,501	-0,228	177,644	88,600
292,516	-0,299	177,446	88,451
293,530	-0,184	177,578	88,577
294,545	-0,122	177,312	88,474
295,560	-0,125	177,146	88,381
296,574	0,097	176,952	88,407
297,589	-0,028	176,945	88,322
298,603	0,062	176,809	88,300
299,618	0,233	176,642	88,309
300,633	-0,130	176,676	88,105
301,647	0,091	176,439	88,108
302,662	0,149	176,436	88,134
303,676	-0,176	176,339	87,886
304,691	-0,115	176,189	87,839
305,706	-0,192	176,037	87,710
306,720	0,164	175,875	87,831
307,735	-0,155	175,849	87,622
308,749	0,076	175,851	87,751
309,764	0,058	175,746	87,680
310,779	0,406	175,227	87,618
311,793	-0,340	175,379	87,249
312,808	-0,086	175,268	87,334
313,822	0,099	175,001	87,302
314,837	0,133	174,982	87,304
315,852	0,090	174,837	87,199
316,866	-0,027	174,760	87,085
317,881	-0,090	174,691	87,006
318,895	-0,166	174,551	86,884
319,910	0,137	174,439	86,997
320,925	-0,361	174,301	86,631
321,939	0,072	174,192	86,821
322,954	-0,044	174,135	86,716
323,968	-0,069	174,119	86,686
324,983	-0,150	173,946	86,546
325,997	0,005	173,800	86,555
327,012	-0,027	173,598	86,429
328,027	0,189	173,479	86,486
329,041	-0,038	173,438	86,327
330,056	0,083	173,345	86,343
331,070	0,232	173,256	86,376
332,085	0,204	173,083	86,267
333,100	0,220	172,873	86,163
334,114	0,266	172,702	86,097
335,129	-0,222	172,759	85,838
336,143	0,111	172,663	85,973
337,158	0,479	172,468	86,080
338,173	0,434	172,345	85,985
339,187	0,283	172,378	85,907
340,202	0,426	172,150	85,868
341,216	0,055	172,086	85,616
342,231	0,351	171,914	85,692
343,246	0,144	171,949	85,583
344,260	0,303	171,754	85,569
345,275	0,739	171,638	85,753
346,289	0,447	171,618	85,568
347,304	0,369	171,346	85,380
348,319	0,333	171,297	85,328
349,333	0,321	171,147	85,239
350,348	0,479	170,993	85,245
351,362	0,257	171,079	85,153
352,377	0,440	170,922	85,172
353,392	0,274	170,696	84,957
354,406	0,301	170,707	84,971
355,421	189,386	1326,818	1392,813
356,435	149,891	1468,108	1393,290
