DTS Sentinel unit serial number:	SN410029Multiplexer serial number:	ORYXHardware model number:	OX2-SRSoftware version number:	ORYX F/W v4,00 Oryx Data Collector v3.7.2.0data status	okinstallation	B3 Nyhavnadifferential loss correction	single-endedforward channel	channel 1reverse channel	N/Adate	2023/11/28time	15:32:30forward acquisition time	300,00reverse acquisition time	0,00gamma	499,1914k internal	0,3185k external	0,3185temperature offset calibration	1,0000default loss term (dB/km)	0,3820temperature slope calibration	1,0000multiplexer offset coefficient	1,0000multiplexer slope coefficient	1,0000fibre end	0,00T internal ref (°C)	7,29T ext. ref 1 (°C)	-7,60T ext. ref 2 (°C)	-7,77length (m)	temperature (°C)	Stokes	anti-Stokes-744,400	101,620	-0,227	-0,193
-743,385	-200,000	-0,055	0,211
-742,371	800,000	-0,083	-0,226
-741,356	-200,000	-0,087	0,446
-740,342	163,547	-0,115	-0,118
-739,327	-200,000	0,019	0,312
-738,312	187,804	-0,262	-0,286
-737,298	800,000	-0,050	0,150
-736,283	69,459	-0,178	-0,134
-735,269	800,000	-0,064	0,155
-734,254	142,608	-0,236	-0,230
-733,239	-151,655	-0,285	-0,015
-732,225	-200,000	0,027	-0,182
-731,210	168,303	0,132	0,137
-730,196	-200,000	-0,047	-0,161
-729,181	702,629	-0,044	-0,084
-728,167	800,000	0,035	0,083
-727,152	-158,297	-0,060	0,003
-726,137	-63,172	-0,104	-0,031
-725,123	-122,817	-0,068	0,008
-724,108	-200,000	-0,007	-0,039
-723,094	-48,197	-0,039	0,014
-722,079	-200,000	0,014	0,076
-721,064	-129,520	0,109	-0,011
-720,050	415,685	-0,109	-0,170
-719,035	30,086	-0,066	-0,041
-718,021	217,122	-0,061	-0,071
-717,006	-200,000	-0,018	-0,165
-715,991	-200,000	0,018	-0,074
-714,977	-63,435	-0,106	-0,032
-713,962	135,777	-0,069	-0,065
-712,948	79,535	0,105	-0,082
-711,933	325,499	0,109	-0,152
-710,918	-130,222	-0,123	0,012
-709,904	-63,511	-0,049	0,014
-708,889	800,000	-0,057	-0,155
-707,875	-178,483	-0,112	-0,002
-706,860	800,000	0,017	0,039
-705,845	231,354	0,061	0,073
-704,831	-200,000	0,013	0,275
-703,816	-16,868	-0,061	-0,028
-702,802	800,000	-0,059	-0,188
-701,787	800,000	0,037	-0,101
-700,772	393,825	0,042	0,064
-699,758	-55,293	0,103	-0,033
-698,743	-200,000	0,000	0,007
-697,729	126,091	-0,054	0,050
-696,714	-61,605	0,118	0,036
-695,699	800,000	0,006	0,012
-694,685	40,108	-0,046	0,030
-693,670	89,640	0,075	-0,061
-692,656	-21,340	-0,044	0,019
-691,641	800,000	0,030	0,093
-690,627	159,052	0,035	-0,036
-689,612	396,522	0,065	-0,099
-688,597	520,536	-0,079	-0,136
-687,583	-41,725	-0,196	-0,073
-686,568	426,958	0,089	-0,141
-685,554	-200,000	-0,047	-0,156
-684,539	-200,000	0,013	-0,080
-683,524	-79,734	-0,099	-0,024
-682,510	-90,953	0,135	0,028
-681,495	-200,000	-0,014	0,071
-680,481	77,044	-0,077	-0,059
-679,466	218,019	-0,091	-0,106
-678,451	683,633	0,028	0,054
-677,437	800,000	0,016	0,033
-676,422	197,457	-0,076	-0,085
-675,408	-200,000	0,001	0,019
-674,393	141,723	-0,070	0,068
-673,378	-130,460	-0,127	-0,012
-672,364	-127,942	-0,047	0,005
-671,349	-106,644	-0,083	0,013
-670,335	191,585	0,075	0,083
-669,320	-75,264	-0,082	0,021
-668,305	-64,858	0,134	-0,039
-667,291	-140,991	0,075	0,005
-666,276	-200,000	0,025	-0,122
-665,262	62,718	0,083	-0,060
-664,247	800,000	-0,011	-0,028
-663,232	-200,000	-0,025	0,118
-662,218	102,217	-0,035	0,030
-661,203	-200,000	0,009	0,125
-660,189	752,324	0,054	0,107
-659,174	-76,929	-0,072	0,018
-658,159	289,235	0,061	0,080
-657,145	-200,000	-0,001	0,087
-656,130	195,747	0,063	-0,070
-655,116	368,082	-0,047	0,069
-654,101	-200,000	-0,025	-0,102
-653,086	-200,000	0,008	0,038
-652,072	162,667	-0,099	0,101
-651,057	-83,528	-0,139	0,032
-650,043	-61,633	0,048	-0,015
-649,028	-10,023	-0,032	0,016
-648,014	71,800	0,047	-0,035
-646,999	-32,401	-0,074	0,030
-645,984	800,000	0,021	0,054
-644,970	426,748	0,141	-0,221
-643,955	-6,922	0,081	-0,040
-642,941	-131,834	0,025	0,002
-641,926	800,000	0,028	-0,059
-640,911	395,468	0,130	-0,198
-639,897	38,534	0,150	-0,097
-638,882	-200,000	-0,013	0,168
-637,868	800,000	-0,010	0,028
-636,853	186,524	-0,109	-0,118
-635,838	-200,000	0,033	-0,121
-634,824	-170,149	-0,072	0,002
-633,809	227,448	-0,040	0,047
-632,795	-168,803	-0,089	-0,002
-631,780	800,000	0,055	0,152
-630,765	-200,000	-0,006	0,020
-629,751	800,000	-0,050	-0,124
-628,736	-2,232	-0,036	-0,018
-627,722	-135,217	-0,028	0,002
-626,707	38,117	-0,039	-0,025
-625,692	800,000	-0,033	0,086
-624,678	800,000	-0,022	-0,063
-623,663	800,000	0,054	0,122
-622,649	-200,000	0,017	-0,089
-621,634	45,321	-0,072	-0,048
-620,619	-132,696	0,017	-0,002
-619,605	-200,000	0,021	0,083
-618,590	148,844	-0,077	0,076
-617,576	-29,724	0,140	-0,058
-616,561	-71,539	0,058	-0,016
-615,546	60,654	-0,090	0,065
-614,532	-200,000	-0,002	-0,074
-613,517	-200,000	0,009	-0,125
-612,503	800,000	-0,053	0,129
-611,488	147,763	0,121	0,119
-610,474	-16,110	0,086	0,040
-609,459	270,312	-0,048	0,061
-608,444	324,114	-0,017	-0,023
-607,430	93,543	0,111	-0,091
-606,415	-54,151	-0,035	0,012
-605,401	800,000	-0,029	-0,069
-604,386	-200,000	0,019	0,099
-603,371	-200,000	-0,006	0,035
-602,357	800,000	0,026	0,066
-601,342	-42,630	0,057	0,021
-600,328	800,000	-0,045	-0,138
-599,313	16,950	-0,044	-0,025
-598,298	622,409	0,076	-0,139
-597,284	45,902	0,096	-0,064
-596,269	-45,424	-0,069	-0,025
-595,255	300,911	-0,032	-0,043
-594,240	-0,218	0,117	0,060
-593,225	32,843	0,058	-0,036
-592,211	84,120	-0,137	-0,108
-591,196	-101,323	-0,060	-0,011
-590,182	-200,000	-0,007	0,058
-589,167	-200,000	0,000	0,023
-588,152	-28,191	-0,092	0,038
-587,138	-51,909	-0,038	0,013
-586,123	-124,979	-0,125	-0,014
-585,109	542,703	-0,035	-0,061
-584,094	-200,000	-0,031	-0,170
-583,079	95,742	0,041	0,034
-582,065	462,155	-0,074	0,120
-581,050	-200,000	0,010	0,088
-580,036	109,548	-0,084	0,073
-579,021	244,582	-0,108	-0,132
-578,006	39,417	-0,085	0,055
-576,992	315,891	0,056	0,077
-575,977	-81,883	0,063	-0,015
-574,963	-104,273	0,131	-0,022
-573,948	98,479	0,077	-0,065
-572,934	-154,409	-0,078	-0,004
-571,919	498,221	-0,022	0,037
-570,904	-200,000	-0,008	-0,072
-569,890	-200,000	0,002	0,008
-568,875	-39,034	-0,037	-0,014
-567,861	156,258	0,063	-0,063
-566,846	800,000	0,018	0,046
-565,831	-200,000	-0,006	0,031
-564,817	47,733	0,093	0,063
-563,802	-6,755	-0,099	0,049
-562,788	-200,000	-0,010	0,068
-561,773	22,680	0,094	0,055
-560,758	800,000	0,059	-0,123
-559,744	46,148	-0,057	0,038
-558,729	-84,452	-0,041	0,009
-557,715	-75,899	0,089	-0,023
-556,700	-200,000	-0,036	-0,126
-555,685	76,832	0,101	-0,078
-554,671	56,036	0,033	-0,023
-553,656	277,913	0,031	-0,040
-552,642	477,527	0,044	0,072
-551,627	800,000	0,012	-0,032
-550,612	-200,000	-0,016	-0,058
-549,598	295,194	-0,160	-0,212
-548,583	118,417	-0,123	-0,110
-547,569	41,961	0,101	-0,066
-546,554	184,895	0,020	0,022
-545,539	188,402	0,112	0,122
-544,525	800,000	-0,030	-0,063
-543,510	341,512	0,025	-0,036
-542,496	800,000	0,068	-0,146
-541,481	800,000	-0,027	-0,081
-540,466	156,953	0,062	-0,062
-539,452	-28,061	0,181	-0,075
-538,437	100,829	-0,031	0,026
-537,423	800,000	0,043	0,101
-536,408	-5,856	-0,106	0,053
-535,393	-150,545	-0,093	-0,005
-534,379	800,000	0,047	-0,109
-533,364	-95,919	0,049	0,009
-532,350	-12,096	-0,086	-0,040
-531,335	-85,527	0,065	0,015
-530,321	108,554	-0,114	0,099
-529,306	-124,316	-0,079	-0,009
-528,291	221,555	-0,106	-0,124
-527,277	125,445	0,031	0,029
-526,262	-200,000	-0,019	-0,114
-525,248	800,000	-0,080	0,174
-524,233	704,059	0,070	-0,135
-523,218	-142,557	0,159	0,011
-522,204	800,000	-0,037	0,108
-521,189	-104,818	-0,107	-0,018
-520,175	92,905	-0,067	-0,055
-519,160	-200,000	-0,025	-0,135
-518,145	-119,426	-0,057	0,007
-517,131	-200,000	-0,010	-0,065
-516,116	-87,751	0,156	0,034
-515,102	-200,000	-0,022	-0,091
-514,087	-95,189	0,042	-0,008
-513,072	-200,000	-0,038	0,137
-512,058	-200,000	0,018	-0,110
-511,043	800,000	-0,066	0,140
-510,029	-200,000	-0,002	0,060
-509,014	333,775	0,056	0,079
-507,999	-200,000	-0,003	-0,008
-506,985	521,833	0,057	-0,098
-505,970	-200,000	0,039	0,154
-504,956	93,440	-0,102	-0,084
-503,941	-58,393	0,109	-0,034
-502,926	-120,305	0,066	-0,008
-501,912	-200,000	0,007	0,154
-500,897	95,983	0,024	0,020
-499,883	-200,000	0,002	-0,151
-498,868	-56,460	0,085	0,027
-497,853	-200,000	0,009	-0,095
-496,839	106,611	0,027	0,024
-495,824	57,531	0,059	0,042
-494,810	230,105	0,062	0,074
-493,795	-109,745	-0,086	0,013
-492,781	800,000	-0,050	-0,158
-491,766	36,376	0,075	0,048
-490,751	-200,000	0,016	-0,076
-489,737	206,878	0,078	0,088
-488,722	239,479	-0,088	-0,106
-487,708	-114,459	0,128	-0,018
-486,693	-200,000	0,006	0,076
-485,678	1,427	-0,073	-0,038
-484,664	-200,000	-0,045	-0,152
-483,649	-6,036	-0,066	0,032
-482,635	227,818	0,025	0,030
-481,620	30,511	-0,099	0,061
-480,605	91,191	0,080	0,065
-479,591	-41,760	-0,128	-0,047
-478,576	4,416	0,077	0,041
-477,562	800,000	-0,051	0,105
-476,547	-200,000	0,009	-0,095
-475,532	172,454	-0,107	-0,112
-474,518	122,522	0,070	0,063
-473,503	-200,000	-0,040	0,152
-472,489	65,211	0,084	0,061
-471,474	290,307	-0,051	-0,068
-470,459	-200,000	-0,016	-0,057
-469,445	-134,706	-0,044	0,004
-468,430	305,485	0,050	0,067
-467,416	425,984	0,062	-0,097
-466,401	-144,799	-0,092	0,006
-465,386	-109,079	0,088	-0,013
-464,372	272,567	-0,043	-0,055
-463,357	-200,000	-0,002	0,123
-462,343	-200,000	0,014	-0,063
-461,328	108,278	-0,142	-0,123
-460,313	39,866	0,164	0,106
-459,299	3,642	-0,063	-0,033
-458,284	-179,658	-0,050	-0,001
-457,270	-21,481	0,162	0,071
-456,255	800,000	0,030	-0,067
-455,241	-5,006	-0,102	0,050
-454,226	407,151	-0,014	-0,022
-453,211	-34,813	0,028	0,011
-452,197	800,000	0,050	0,108
-451,182	327,815	0,058	-0,081
-450,168	800,000	-0,023	0,063
-449,153	72,882	-0,035	-0,027
-448,138	800,000	0,012	0,029
-447,124	29,812	0,064	0,039
-446,109	-146,355	-0,033	0,002
-445,095	-65,919	-0,040	0,011
-444,080	-83,059	-0,057	0,013
-443,065	-200,000	0,047	0,172
-442,051	15,470	-0,039	-0,022
-441,036	-12,949	-0,175	-0,082
-440,022	-148,581	0,058	-0,003
-439,007	31,871	0,154	-0,096
-437,992	46,843	-0,082	0,055
-436,978	154,381	0,049	0,048
-435,963	800,000	-0,056	0,164
-434,949	37,007	-0,065	-0,042
-433,934	-22,928	-0,079	0,034
-432,919	-200,000	0,037	-0,134
-431,905	-200,000	0,022	0,086
-430,890	75,966	-0,026	0,020
-429,876	330,061	0,023	0,032
-428,861	-200,000	-0,015	0,062
-427,846	-11,590	-0,026	-0,012
-426,832	800,000	0,045	0,121
-425,817	-88,178	-0,270	-0,058
-424,803	271,212	0,100	-0,127
-423,788	317,996	-0,041	-0,056
-422,773	-200,000	0,011	-0,146
-421,759	-200,000	-0,002	-0,057
-420,744	-37,976	-0,064	0,024
-419,730	554,139	0,018	-0,032
-418,715	-190,739	-0,097	-0,001
-417,701	423,588	-0,057	-0,088
-416,686	172,562	-0,057	0,060
-415,671	4,918	0,122	0,064
-414,657	-200,000	-0,001	-0,042
-413,642	-34,822	0,026	0,010
-412,628	180,841	0,043	0,046
-411,613	-10,080	-0,068	-0,032
-410,598	-200,000	-0,020	-0,078
-409,584	-200,000	-0,006	0,082
-408,569	-140,196	-0,067	0,005
-407,555	-200,000	-0,010	-0,083
-406,540	162,973	-0,035	-0,035
-405,525	-108,194	0,103	0,016
-404,511	-19,578	-0,083	-0,037
-403,496	-5,683	-0,107	0,053
-402,482	800,000	0,024	0,063
-401,467	90,143	0,063	0,051
-400,452	20,089	0,053	0,031
-399,438	-200,000	0,038	-0,139
-398,423	411,359	-0,067	0,103
-397,409	-98,853	-0,048	0,009
-396,394	49,750	-0,102	-0,069
-395,379	64,334	0,081	0,059
-394,365	181,167	-0,087	0,092
-393,350	-200,000	0,006	0,144
-392,336	-133,774	0,133	0,012
-391,321	-200,000	0,039	-0,133
-390,306	135,749	0,112	-0,105
-389,292	177,045	0,037	0,039
-388,277	367,843	-0,017	-0,024
-387,263	-200,000	0,010	-0,085
-386,248	800,000	-0,010	0,026
-385,233	119,832	0,168	0,150
-384,219	-58,469	-0,042	0,013
-383,204	-34,919	-0,102	0,040
-382,190	132,557	0,041	0,038
-381,175	-200,000	0,035	0,155
-380,160	-200,000	0,045	0,188
-379,146	-200,000	-0,019	-0,072
-378,131	-200,000	-0,005	-0,020
-377,117	127,241	-0,100	-0,091
-376,102	800,000	-0,045	0,101
-375,088	-28,179	0,115	0,048
-374,073	2,084	-0,255	0,132
-373,058	-62,755	0,124	-0,037
-372,044	303,029	0,056	0,075
-371,029	-200,000	-0,015	-0,060
-370,015	-200,000	-0,000	0,038
-369,000	800,000	-0,105	-0,251
-367,985	68,172	0,131	-0,096
-366,971	2,188	-0,120	-0,062
-365,956	156,924	0,034	-0,034
-364,942	-38,149	-0,124	0,047
-363,927	281,354	-0,051	0,066
-362,912	-200,000	0,001	-0,012
-361,898	-200,000	-0,010	-0,059
-360,883	589,139	0,044	-0,078
-359,869	-13,063	-0,109	-0,051
-358,854	-175,973	0,103	0,002
-357,839	-75,844	-0,034	0,009
-356,825	-200,000	-0,000	0,062
-355,810	-200,000	-0,028	-0,178
-354,796	318,564	0,048	0,066
-353,781	-18,743	-0,109	-0,049
-352,766	15,100	0,102	-0,058
-351,752	217,786	0,070	-0,081
-350,737	-200,000	0,027	0,178
-349,723	194,931	0,122	0,134
-348,708	-200,000	0,030	0,136
-347,693	-32,546	-0,048	-0,019
-346,679	-138,495	-0,018	-0,001
-345,664	-32,037	-0,058	0,023
-344,650	800,000	0,053	-0,111
-343,635	269,575	0,029	0,037
-342,620	-200,000	0,030	0,125
-341,606	800,000	0,035	0,100
-340,591	-200,000	-0,011	0,057
-339,577	-81,451	-0,073	-0,017
-338,562	6,589	-0,175	-0,093
-337,548	-200,000	-0,043	-0,173
-336,533	-46,977	-0,036	-0,013
-335,518	-200,000	-0,003	0,081
-334,504	251,309	0,057	-0,070
-333,489	-76,216	-0,053	-0,013
-332,475	800,000	-0,040	-0,086
-331,460	-33,967	0,155	0,061
-330,445	-200,000	0,018	0,110
-329,431	800,000	0,063	-0,152
-328,416	10,888	0,078	0,043
-327,402	725,671	-0,018	0,034
-326,387	178,620	-0,027	-0,028
-325,372	-200,000	0,001	-0,116
-324,358	345,665	0,101	-0,143
-323,343	-200,000	-0,006	0,037
-322,329	-12,895	0,072	0,034
-321,314	162,274	0,079	0,080
-320,299	-200,000	-0,007	0,103
-319,285	-99,907	0,082	0,015
-318,270	-200,000	0,008	0,031
-317,256	34,908	0,011	0,007
-316,241	-139,761	-0,027	-0,002
-315,226	-98,842	-0,091	-0,016
-314,212	-7,476	0,055	-0,027
-313,197	-1,672	0,041	-0,020
-312,183	429,048	0,027	0,042
-311,168	428,990	-0,015	-0,023
-310,153	-200,000	0,005	-0,034
-309,139	-200,000	-0,018	-0,068
-308,124	135,216	0,069	0,065
-307,110	234,662	-0,060	0,071
-306,095	122,929	0,111	0,100
-305,080	-110,807	-0,082	-0,012
-304,066	489,400	-0,037	0,062
-303,051	-200,000	0,013	0,109
-302,037	-31,252	0,031	-0,013
-301,022	360,319	0,051	-0,073
-300,008	43,047	0,135	0,089
-298,993	-200,000	-0,004	0,138
-297,978	-141,584	-0,065	-0,005
-296,964	800,000	-0,037	-0,104
-295,949	262,656	-0,113	-0,142
-294,935	9,962	-0,090	0,049
-293,920	304,751	-0,053	-0,071
-292,905	-64,849	0,060	0,017
-291,891	449,344	-0,047	0,075
-290,876	96,811	0,059	0,049
-289,862	-91,171	-0,123	-0,025
-288,847	-24,717	-0,176	0,075
-287,832	-200,000	-0,009	-0,052
-286,818	-29,647	0,087	-0,035
-285,803	800,000	-0,021	-0,049
-284,789	681,513	0,093	0,174
-283,774	-200,000	0,038	0,220
-282,759	-107,498	0,100	0,016
-281,745	320,061	-0,050	-0,069
-280,730	-23,446	-0,162	-0,070
-279,716	-4,414	-0,126	0,062
-278,701	7,427	0,049	0,026
-277,686	-110,353	0,094	0,014
-276,672	800,000	-0,021	0,065
-275,657	30,377	-0,092	-0,056
-274,643	-54,830	-0,029	0,009
-273,628	585,618	-0,058	-0,104
-272,613	80,291	0,024	-0,018
-271,599	6,135	0,091	-0,048
-270,584	-67,697	0,017	0,005
-269,570	-200,000	0,014	0,090
-268,555	-10,762	0,177	-0,084
-267,540	-80,164	-0,266	-0,064
-266,526	-200,000	-0,018	-0,061
-265,511	60,112	-0,110	0,078
-264,497	-200,000	0,019	0,175
-263,482	800,000	-0,041	-0,106
-262,467	3,406	-0,027	0,014
-261,453	800,000	0,048	0,134
-260,438	5,480	-0,026	0,014
-259,424	-77,534	-0,058	0,014
-258,409	29,208	-0,090	-0,055
-257,395	2,354	0,061	-0,032
-256,380	-200,000	-0,002	0,130
-255,365	429,057	0,066	0,102
-254,351	-200,000	-0,007	0,127
-253,336	-99,730	-0,026	-0,005
-252,322	113,515	-0,081	-0,070
-251,307	-169,395	-0,059	-0,002
-250,292	113,415	-0,056	0,049
-249,278	-200,000	-0,035	0,121
-248,263	742,285	0,018	0,034
-247,249	-200,000	0,002	0,021
-246,234	608,193	-0,026	-0,046
-245,219	-182,759	-0,033	0,000
-244,205	-60,405	0,085	-0,026
-243,190	-117,133	0,090	-0,012
-242,176	-200,000	0,024	0,082
-241,161	-200,000	0,025	0,108
-240,146	139,308	0,058	0,055
-239,132	-200,000	0,004	0,065
-238,117	-49,350	-0,143	0,049
-237,103	536,180	-0,090	-0,154
-236,088	-76,662	0,190	-0,047
-235,073	-50,732	0,029	-0,010
-234,059	273,247	0,043	-0,055
-233,044	281,875	-0,052	0,067
-232,030	-200,000	-0,037	0,000
-231,015	-25,755	-0,010	-0,004
-230,000	-200,000	0,010	-0,076
-228,986	800,000	0,010	0,030
-227,971	36,347	0,132	0,083
-226,957	-50,858	0,140	0,047
-225,942	-200,000	-0,002	-0,106
-224,927	158,002	0,032	0,032
-223,913	227,357	-0,004	-0,005
-222,898	800,000	-0,046	0,135
-221,884	-149,553	-0,099	0,006
-220,869	-176,146	0,147	-0,003
-219,855	-181,932	0,030	-0,000
-218,840	-81,058	0,088	-0,021
-217,825	-200,000	-0,009	0,095
-216,811	-159,236	-0,091	-0,004
-215,796	800,000	0,025	-0,056
-214,782	321,883	-0,059	0,081
-213,767	135,158	0,076	0,071
-212,752	-13,426	0,074	0,034
-211,738	800,000	0,069	0,152
-210,723	-200,000	-0,017	-0,090
-209,709	-75,584	0,117	0,030
-208,694	738,237	-0,036	-0,069
-207,679	800,000	-0,060	-0,147
-206,665	-159,180	0,240	0,009
-205,650	-22,463	0,062	0,027
-204,636	-200,000	0,003	0,100
-203,621	-200,000	-0,020	-0,075
-202,606	-48,012	0,148	-0,051
-201,592	713,716	-0,057	-0,108
-200,577	156,878	-0,044	-0,043
-199,563	128,225	-0,041	0,037
-198,548	148,454	0,091	0,088
-197,533	17,329	0,002	-0,001
-196,519	-200,000	-0,028	-0,119
-195,504	229,695	-0,098	0,114
-194,490	-200,000	0,013	-0,138
-193,475	-63,479	-0,080	-0,024
-192,460	185,749	-0,087	0,092
-191,446	-200,000	0,017	-0,117
-190,431	312,300	-0,032	0,043
-189,417	239,212	-0,056	0,067
-188,402	-200,000	0,008	-0,110
-187,387	800,000	-0,046	-0,132
-186,373	-200,000	-0,049	-0,185
-185,358	-83,413	-0,087	0,020
-184,344	-200,000	0,025	0,137
-183,329	-200,000	-0,008	-0,099
-182,315	266,812	-0,091	-0,113
-181,300	2,462	0,107	0,055
-180,285	12,272	-0,124	0,068
-179,271	46,894	-0,074	-0,049
-178,256	342,019	0,056	0,079
-177,242	-200,000	0,019	0,105
-176,227	-200,000	0,017	-0,092
-175,212	36,847	-0,144	0,091
-174,198	-55,053	-0,102	0,033
-173,183	18,693	0,051	-0,029
-172,169	598,698	-0,022	-0,039
-171,154	-176,682	0,149	-0,003
-170,139	-200,000	0,036	-0,121
-169,125	-61,141	0,064	0,019
-168,110	-200,000	0,012	0,123
-167,096	-91,138	0,212	0,043
-166,081	800,000	-0,037	-0,098
-165,066	-200,000	0,006	-0,080
-164,052	226,371	0,049	0,057
-163,037	210,899	0,146	0,165
-162,023	-134,840	-0,096	0,008
-161,008	119,098	-0,068	0,060
-159,993	120,092	0,055	0,049
-158,979	800,000	-0,056	-0,119
-157,964	800,000	0,043	-0,129
-156,950	166,547	-0,049	0,050
-155,935	106,060	0,065	0,055
-154,920	64,809	0,029	0,021
-153,906	-200,000	-0,000	0,081
-152,891	-68,066	-0,119	-0,033
-151,877	27,484	0,127	-0,076
-150,862	-200,000	0,020	-0,110
-149,847	202,718	-0,049	-0,055
-148,833	-17,161	0,076	0,034
-147,818	-135,311	-0,147	0,012
-146,804	-200,000	0,028	0,102
-145,789	141,476	0,111	-0,105
-144,775	800,000	0,074	-0,148
-143,760	700,800	0,008	-0,015
-142,745	75,878	0,136	0,103
-141,731	407,574	-0,157	-0,238
-140,716	630,271	0,055	0,099
-139,702	661,769	-0,052	0,097
-138,687	-200,000	0,004	0,106
-137,672	107,867	-0,042	0,036
-136,658	304,881	0,061	-0,081
-135,643	-12,989	-0,118	0,055
-134,629	-92,901	-0,086	0,017
-133,614	247,495	-0,026	0,031
-132,599	26,265	-0,128	-0,076
-131,585	-71,523	0,143	-0,038
-130,570	800,000	-0,037	0,088
-129,556	798,746	-0,046	-0,091
-128,541	90,946	0,112	0,090
-127,526	-49,272	-0,099	0,034
-126,512	800,000	0,031	-0,093
-125,497	247,334	0,107	0,130
-124,483	267,702	-0,044	-0,055
-123,468	399,020	-0,063	0,095
-122,453	122,854	-0,114	0,102
-121,439	-200,000	-0,040	-0,146
-120,424	-200,000	0,004	0,115
-119,410	42,772	0,072	0,047
-118,395	81,118	0,031	0,024
-117,380	212,144	0,104	-0,117
-116,366	-7,187	0,067	0,032
-115,351	-127,882	-0,139	0,014
-114,337	125,801	-0,056	0,050
-113,322	-1,422	-0,102	-0,051
-112,307	-65,887	-0,007	0,002
-111,293	-200,000	0,017	0,104
-110,278	-200,000	-0,027	0,093
-109,264	-200,000	0,015	0,175
-108,249	-110,610	-0,067	-0,010
-107,234	260,295	-0,036	-0,044
-106,220	-60,180	-0,085	-0,026
-105,205	-22,699	0,027	-0,012
-104,191	155,209	0,056	0,055
-103,176	318,005	0,031	0,041
-102,162	-200,000	0,003	0,029
-101,147	800,000	-0,032	-0,098
-100,132	33,965	-0,102	-0,063
-99,118	-122,853	0,096	0,011
-98,103	611,865	0,077	0,138
-97,089	146,886	-0,054	0,051
-96,074	-200,000	0,017	0,089
-95,059	383,881	0,062	-0,091
-94,045	-117,495	0,049	-0,006
-93,030	34,649	-0,041	-0,025
-92,016	-0,186	-0,116	0,059
-91,001	800,000	-0,030	0,092
-89,986	128,875	-0,067	-0,061
-88,972	-114,732	0,052	0,007
-87,957	-200,000	-0,008	0,112
-86,943	14,538	-0,124	0,069
-85,928	-200,000	-0,021	-0,281
-84,913	800,000	0,043	-0,088
-83,899	800,000	0,005	0,013
-82,884	681,705	0,021	-0,039
-81,870	-50,693	0,040	-0,013
-80,855	-69,397	0,131	0,036
-79,840	4,664	-0,103	-0,054
-78,826	-200,000	0,005	-0,017
-77,811	-28,201	-0,093	-0,038
-76,797	-113,731	-0,086	0,012
-75,782	96,569	0,022	0,018
-74,767	-200,000	0,032	-0,136
-73,753	-200,000	0,007	-0,078
-72,738	800,000	-0,045	0,132
-71,724	357,702	-0,093	0,132
-70,709	-130,613	0,079	-0,007
-69,694	-88,959	0,067	-0,014
-68,680	-119,288	0,060	0,007
-67,665	135,288	-0,038	0,035
-66,651	11,900	0,119	0,065
-65,636	161,876	-0,040	0,040
-64,622	-200,000	-0,000	-0,009
-63,607	-152,090	-0,279	0,014
-62,592	-77,403	-0,063	-0,015
-61,578	-115,002	0,114	-0,015
-60,563	518,063	0,052	0,087
-59,549	-39,152	-0,053	0,020
-58,534	70,929	-2,198	-1,619
-57,519	549,892	-1,084	-1,857
-56,505	-200,000	-0,313	-4,383
-55,490	771,940	0,937	1,825
-54,476	800,000	5,322	11,241
-53,461	-200,000	22,923	349,509
-52,446	800,000	758,298	2278,002
-51,432	512,874	1636,968	2724,972
-50,417	69,757	1540,047	1128,293
-49,403	21,947	1024,550	592,889
-48,388	11,895	684,454	373,130
-47,373	33,773	644,406	397,990
-46,359	19,524	628,879	358,818
-45,344	7,571	624,573	331,385
-44,330	7,310	623,074	330,029
-43,315	7,122	621,919	329,011
-42,300	7,183	620,704	328,482
-41,286	7,223	619,934	328,145
-40,271	7,069	619,360	327,508
-39,257	7,298	618,409	327,468
-38,242	7,391	617,453	327,142
-37,227	7,224	616,933	326,507
-36,213	7,156	616,368	326,055
-35,198	7,202	615,652	325,757
-34,184	7,434	615,059	325,910
-33,169	7,245	614,363	325,138
-32,154	7,351	613,783	325,038
-31,140	7,335	612,795	324,469
-30,125	7,522	612,086	324,465
-29,111	7,295	611,751	323,807
-28,096	7,241	611,546	323,575
-27,082	7,298	610,917	323,346
-26,067	7,338	610,287	323,082
-25,052	7,304	609,832	322,759
-24,038	7,160	609,603	322,330
-23,023	7,283	608,924	322,209
-22,009	7,487	608,231	322,248
-20,994	7,330	607,958	321,770
-19,979	7,423	607,425	321,664
-18,965	7,299	607,008	321,177
-17,950	7,340	606,623	321,045
-16,936	7,251	606,132	320,591
-15,921	7,329	605,578	320,444
-14,906	7,178	604,907	319,771
-13,892	7,198	604,761	319,721
-12,877	7,293	604,120	319,561
-11,863	7,112	604,090	319,165
-10,848	7,077	603,711	318,881
-9,833	7,324	603,240	319,121
-8,819	7,310	602,559	318,719
-7,804	7,415	601,854	318,546
-6,790	7,309	601,543	318,155
-5,775	7,382	601,145	318,078
-4,760	7,384	600,886	317,933
-3,746	7,260	600,643	317,541
-2,731	7,041	600,297	316,906
-1,717	7,009	600,057	316,702
-0,702	7,088	599,309	316,453
0,313	7,602	592,804	314,516
1,327	11,880	550,195	299,778
2,342	19,763	426,197	243,402
3,356	13,544	233,483	128,492
4,371	-14,837	158,303	71,943
5,386	-18,162	149,225	66,124
6,400	-18,169	146,300	64,818
7,415	-16,944	144,850	64,773
8,429	-18,112	143,916	63,778
9,444	-18,238	143,399	63,482
10,459	-18,275	143,055	63,306
11,473	-18,424	142,749	63,093
12,488	-18,029	142,357	63,105
13,502	-18,424	142,230	62,853
14,517	-18,639	141,935	62,613
15,531	-18,671	141,499	62,399
16,546	-18,534	141,395	62,414
17,561	-18,362	141,027	62,328
18,575	-18,046	140,907	62,421
19,590	-18,249	140,714	62,233
20,604	-18,524	140,604	62,047
21,619	-18,122	140,262	62,082
22,634	-18,164	140,066	61,970
23,648	-18,523	140,069	61,795
24,663	-18,418	139,793	61,718
25,677	-18,334	139,523	61,632
26,692	-18,416	139,479	61,569
27,707	-18,427	139,357	61,504
28,721	-18,540	139,140	61,350
29,736	-18,456	138,968	61,308
30,750	-18,179	138,742	61,333
31,765	-18,319	138,606	61,202
32,780	-18,287	138,436	61,136
33,794	-18,321	138,425	61,110
34,809	-18,474	138,127	60,902
35,823	-17,848	137,832	61,059
36,838	-18,330	137,986	60,896
37,853	-18,346	137,669	60,743
38,867	-18,609	137,732	60,643
39,882	-18,057	137,440	60,766
40,896	-18,190	137,401	60,681
41,911	-18,009	137,205	60,674
42,926	-18,516	137,098	60,385
43,940	-18,106	136,968	60,513
44,955	-18,283	136,801	60,352
45,969	-18,532	136,785	60,224
46,984	-18,343	136,707	60,271
47,999	-18,352	136,452	60,150
49,013	-18,123	136,460	60,254
50,028	-18,059	136,325	60,218
51,042	-17,676	136,056	60,271
52,057	-18,061	135,970	60,050
53,071	-18,193	135,792	59,905
54,086	-18,244	135,650	59,814
55,101	-18,393	135,647	59,739
56,115	-18,260	135,435	59,701
57,130	-18,171	135,342	59,695
58,144	-18,360	135,113	59,503
59,159	-18,519	135,116	59,425
60,174	-18,615	135,001	59,326
61,188	-18,318	134,878	59,403
62,203	-18,151	134,698	59,394
63,217	-18,107	134,621	59,375
64,232	-18,154	134,487	59,289
65,247	-18,269	134,354	59,173
66,261	-17,935	134,215	59,258
67,276	-18,137	134,022	59,076
68,290	-18,127	133,978	59,056
69,305	-18,089	133,918	59,041
70,320	-17,996	133,771	59,013
71,334	-18,377	133,708	58,808
72,349	-18,375	133,478	58,702
73,363	-18,064	133,243	58,734
74,378	-18,558	133,220	58,496
75,393	-18,096	133,008	58,605
76,407	-18,237	132,940	58,507
77,422	-18,434	133,012	58,445
78,436	-17,991	132,794	58,542
79,451	-18,022	132,740	58,500
80,466	-18,407	132,528	58,229
81,480	-18,276	132,323	58,192
82,495	-18,296	132,316	58,175
83,509	-18,536	132,312	58,060
84,524	-18,083	132,117	58,172
85,539	-18,388	131,940	57,953
86,553	-18,312	131,874	57,953
87,568	-18,671	131,733	57,726
88,582	-18,060	131,599	57,933
89,597	-18,313	131,528	57,784
90,611	-18,325	131,521	57,771
91,626	-18,072	131,326	57,792
92,641	-17,986	131,236	57,786
93,655	-18,169	131,226	57,695
94,670	-18,268	130,940	57,521
95,684	-18,060	130,831	57,560
96,699	-18,396	130,852	57,415
97,714	-18,135	130,677	57,448
98,728	-18,337	130,617	57,328
99,743	-18,241	130,625	57,368
100,757	-17,802	130,315	57,420
101,772	-18,096	130,202	57,236
102,787	-18,439	130,127	57,048
103,801	-18,209	129,906	57,046
104,816	-18,047	129,821	57,075
105,830	-18,423	129,851	56,918
106,845	-18,267	129,776	56,949
107,860	-17,914	129,669	57,051
108,874	-17,859	129,508	56,999
109,889	-18,055	129,371	56,848
110,903	-18,116	129,275	56,774
111,918	-18,082	129,119	56,716
112,933	-18,014	129,073	56,720
113,947	-18,554	129,171	56,523
114,962	-18,060	128,819	56,578
115,976	-18,058	128,687	56,516
116,991	-17,831	128,716	56,622
118,006	-17,818	128,512	56,533
119,020	-18,475	128,476	56,228
120,035	-18,114	128,441	56,363
121,049	-17,867	128,122	56,325
122,064	-18,373	128,316	56,187
123,079	-18,131	128,012	56,153
124,093	-18,078	127,872	56,109
125,108	-18,300	127,820	55,986
126,122	-18,357	127,807	55,951
127,137	-17,956	127,718	56,079
128,151	-18,138	127,554	55,924
129,166	-17,866	127,414	55,974
130,181	-17,865	127,245	55,895
131,195	-18,106	127,145	55,744
132,210	-18,331	127,095	55,620
133,224	-18,189	127,014	55,640
134,239	-17,746	126,701	55,687
135,254	-17,900	126,818	55,668
136,268	-17,958	126,662	55,570
137,283	-17,793	126,625	55,619
138,297	-17,892	126,440	55,491
139,312	-18,172	126,456	55,374
140,327	-18,353	126,204	55,182
141,341	-17,905	126,128	55,334
142,356	-17,864	126,170	55,364
143,370	-16,977	126,088	55,700
144,385	-11,428	127,313	58,608
145,400	-4,572	128,393	62,048
146,414	-2,420	128,628	63,081
147,429	-1,601	128,408	63,319
148,443	-1,687	128,540	63,341
149,458	-1,146	128,349	63,474
150,473	-1,239	128,503	63,504
151,487	-1,136	128,425	63,504
152,502	-0,914	128,243	63,504
153,516	-1,219	128,257	63,374
154,531	-1,343	128,163	63,269
155,546	-0,816	128,020	63,417
156,560	-0,921	127,880	63,298
157,575	-0,779	127,746	63,286
158,589	-0,977	127,571	63,110
159,604	-1,193	127,570	63,012
160,619	-0,888	127,446	63,074
161,633	-0,755	127,399	63,102
162,648	-0,897	127,517	63,095
163,662	-1,101	127,381	62,935
164,677	-0,669	127,219	63,032
165,692	-0,749	127,189	62,978
166,706	-0,434	126,981	63,003
167,721	-0,860	127,056	62,854
168,735	-0,628	126,864	62,851
169,750	-0,512	126,854	62,890
170,764	-0,419	126,768	62,881
171,779	-0,643	126,774	62,784
172,794	-0,564	126,496	62,674
173,808	-0,315	126,364	62,707
174,823	-0,535	126,318	62,587
175,837	-0,505	126,240	62,555
176,852	-0,541	126,162	62,496
177,867	-0,340	126,110	62,549
178,881	-0,358	125,976	62,469
179,896	-0,800	126,024	62,302
180,910	-0,378	125,956	62,440
181,925	-0,281	125,835	62,415
182,940	-0,585	125,630	62,180
183,954	-0,546	125,533	62,143
184,969	-0,337	125,480	62,198
185,983	-0,355	125,474	62,183
186,998	-0,435	125,455	62,135
188,013	-0,189	125,200	62,105
189,027	-0,429	125,132	61,966
190,042	-0,587	124,989	61,824
191,056	-0,206	124,802	61,884
192,071	-0,071	124,813	61,939
193,086	-0,589	124,763	61,695
194,100	-0,506	124,792	61,738
195,115	-0,099	124,412	61,713
196,129	-0,318	124,514	61,667
197,144	-0,346	124,295	61,542
198,159	-0,269	124,200	61,521
199,173	-0,095	124,246	61,610
200,188	-0,099	124,044	61,502
201,202	-0,360	124,033	61,384
202,217	-0,209	124,009	61,429
203,232	-0,936	123,909	61,075
204,246	-0,549	123,843	61,196
205,261	-0,412	123,719	61,185
206,275	-0,380	123,691	61,179
207,290	-0,170	123,550	61,190
208,304	0,102	123,516	61,280
209,319	0,134	123,182	61,121
210,334	-0,287	123,284	60,995
211,348	-0,384	123,252	60,934
212,363	-0,112	123,036	60,932
213,377	-0,232	123,082	60,901
214,392	-0,092	122,908	60,866
215,407	0,061	122,789	60,864
216,421	-0,192	122,910	60,815
217,436	-0,104	122,687	60,735
218,450	-0,326	122,500	60,547
219,465	-0,088	122,501	60,639
220,480	0,173	122,404	60,692
221,494	-0,220	122,329	60,489
222,509	-0,101	122,260	60,498
223,523	0,253	122,199	60,606
224,538	0,007	122,067	60,436
225,553	-0,101	122,058	60,383
226,567	-0,087	121,879	60,294
227,582	0,160	121,743	60,321
228,596	-0,073	121,820	60,259
229,611	0,059	121,731	60,263
230,626	-0,058	121,594	60,143
231,640	-0,579	121,613	59,938
232,655	0,212	121,263	60,077
233,669	-0,081	121,355	60,000
234,684	0,287	121,195	60,063
235,699	0,237	121,116	59,998
236,713	0,507	121,150	60,117
237,728	0,097	121,187	59,966
238,742	0,088	121,060	59,895
239,757	-0,198	120,898	59,695
240,772	0,358	120,717	59,822
241,786	0,207	120,605	59,701
242,801	0,202	120,627	59,705
243,815	-0,065	120,635	59,597
244,830	0,103	120,585	59,634
245,844	0,371	120,269	59,579
246,859	-0,197	120,337	59,381
247,874	0,152	120,247	59,470
248,888	0,389	120,124	59,498
249,903	0,498	120,058	59,503
250,917	0,111	120,079	59,355
251,932	-0,071	119,955	59,216
252,947	0,463	119,880	59,386
253,961	0,117	119,847	59,227
254,976	0,376	119,629	59,216
255,990	0,346	119,521	59,146
257,005	0,194	119,598	59,118
258,020	0,693	119,571	59,297
259,034	0,237	119,434	59,044
260,049	-0,117	119,374	58,869
261,063	0,507	119,092	58,970
262,078	0,120	119,193	58,862
263,093	0,627	118,931	58,927
264,107	0,132	119,090	58,806
265,122	0,275	118,943	58,785
266,136	0,267	118,847	58,729
267,151	0,463	118,705	58,730
268,166	0,321	118,689	58,661
269,180	0,577	118,561	58,693
270,195	-0,331	118,565	58,334
271,209	0,281	118,575	58,573
272,224	0,504	118,437	58,587
273,239	0,184	118,432	58,455
274,253	0,636	118,201	58,511
275,268	0,351	118,072	58,332
276,282	0,188	118,163	58,308
277,297	0,453	117,919	58,285
278,312	0,473	117,928	58,292
279,326	0,514	117,770	58,224
280,341	0,481	117,730	58,187
281,355	0,159	117,729	58,056
282,370	0,430	117,552	58,069
283,384	0,876	117,496	58,208
284,399	0,526	117,431	58,036
285,414	0,957	117,281	58,123
286,428	0,656	117,303	58,012
287,443	0,698	117,232	57,989
288,457	0,706	117,082	57,912
289,472	0,833	116,994	57,912
290,487	0,541	116,909	57,753
291,501	0,977	116,897	57,910
292,516	0,459	116,778	57,646
293,530	0,951	116,701	57,792
294,545	0,543	116,750	57,654
295,560	0,537	116,575	57,561
296,574	0,840	116,423	57,596
297,589	0,943	116,551	57,694
298,603	1,247	116,238	57,650
299,618	0,929	116,334	57,571
300,633	0,690	116,252	57,433
301,647	0,660	116,264	57,423
302,662	0,676	116,195	57,390
303,676	0,803	116,026	57,350
304,691	0,449	115,985	57,189
305,706	0,330	115,896	57,095
306,720	0,362	115,746	57,029
307,735	1,004	115,757	57,273
308,749	1,038	115,513	57,160
309,764	0,808	115,554	57,088
310,779	0,954	115,446	57,085
311,793	0,681	115,537	57,021
312,808	0,629	115,281	56,870
313,822	0,794	115,182	56,879
314,837	0,988	115,140	56,926
315,852	0,852	115,101	56,850
316,866	1,203	114,981	56,919
317,881	0,942	114,924	56,787
318,895	0,744	114,821	56,656
319,910	1,036	114,842	56,772
320,925	1,103	114,586	56,665
321,939	0,707	114,565	56,501
322,954	0,514	114,648	56,464
323,968	0,842	114,473	56,496
324,983	0,715	114,457	56,436
325,997	0,677	114,251	56,314
327,012	0,917	114,284	56,416
328,027	0,795	114,126	56,287
329,041	0,894	114,117	56,315
330,056	1,154	114,113	56,405
331,070	1,251	113,966	56,364
332,085	0,976	113,988	56,267
333,100	0,745	113,867	56,116
334,114	1,218	113,619	56,165
335,129	1,114	113,493	56,059
336,143	0,958	113,583	56,040
337,158	1,096	113,429	56,010
338,173	1,010	113,497	56,007
339,187	0,887	113,413	55,915
340,202	0,833	113,345	55,856
341,216	1,262	113,182	55,930
342,231	1,300	113,092	55,895
343,246	1,017	113,029	55,754
344,260	1,046	113,024	55,757
345,275	1,025	113,055	55,760
346,289	1,423	112,918	55,834
347,304	1,375	112,816	55,761
348,319	1,405	112,674	55,697
349,333	1,136	112,630	55,571
350,348	1,017	112,549	55,482
351,362	1,248	112,483	55,530
352,377	1,230	112,530	55,541
353,392	1,473	112,364	55,544
354,406	1,467	112,309	55,510
355,421	198,573	1317,255	1391,395
356,435	155,789	1464,507	1391,852
