DTS Sentinel unit serial number:	SN410029Multiplexer serial number:	ORYXHardware model number:	OX2-SRSoftware version number:	ORYX F/W v4,00 Oryx Data Collector v3.7.2.0data status	okinstallation	B3 Nyhavnadifferential loss correction	single-endedforward channel	channel 1reverse channel	N/Adate	2023/11/28time	11:37:30forward acquisition time	300,00reverse acquisition time	0,00gamma	499,1914k internal	0,3149k external	0,3149temperature offset calibration	1,0000default loss term (dB/km)	0,3820temperature slope calibration	1,0000multiplexer offset coefficient	1,0000multiplexer slope coefficient	1,0000fibre end	0,00T internal ref (°C)	9,09T ext. ref 1 (°C)	-7,60T ext. ref 2 (°C)	-7,82length (m)	temperature (°C)	Stokes	anti-Stokes-744,400	-200,000	-0,101	-0,367
-743,385	-200,000	0,056	0,328
-742,371	37,047	-0,190	-0,124
-741,356	-200,000	0,015	0,339
-740,342	501,130	-0,138	-0,236
-739,327	800,000	-0,117	0,341
-738,312	800,000	-0,101	-0,239
-737,298	43,663	0,043	0,029
-736,283	800,000	-0,123	-0,288
-735,269	-200,000	0,038	0,372
-734,254	248,925	-0,112	-0,140
-733,239	-27,524	-0,233	0,100
-732,225	-200,000	-0,053	-0,193
-731,210	800,000	0,094	0,228
-730,196	22,128	-0,091	0,055
-729,181	222,223	-0,023	0,027
-728,167	18,057	0,046	0,027
-727,152	652,253	-0,019	0,036
-726,137	-200,000	0,002	0,010
-725,123	216,957	-0,078	-0,092
-724,108	-112,237	-0,125	-0,018
-723,094	800,000	0,045	-0,094
-722,079	151,433	0,074	0,074
-721,064	368,387	0,076	0,113
-720,050	-9,715	-0,050	-0,024
-719,035	197,845	-0,106	0,119
-718,021	-200,000	-0,025	-0,169
-717,006	12,506	-0,250	-0,142
-715,991	-200,000	0,021	-0,200
-714,977	37,698	-0,083	-0,054
-713,962	499,237	0,042	-0,072
-712,948	-48,520	-0,026	0,009
-711,933	800,000	-0,035	-0,082
-710,918	-200,000	0,012	0,051
-709,904	-59,511	-0,102	-0,032
-708,889	800,000	0,069	-0,202
-707,875	-200,000	0,015	0,068
-706,860	184,595	0,081	-0,089
-705,845	-200,000	0,002	0,139
-704,831	-200,000	-0,012	-0,056
-703,816	-153,881	-0,095	0,005
-702,802	-200,000	-0,007	0,039
-701,787	-200,000	-0,006	-0,032
-700,772	95,990	-0,078	-0,066
-699,758	553,143	-0,080	0,143
-698,743	-60,305	0,154	0,048
-697,729	6,014	0,040	0,022
-696,714	91,984	-0,159	0,132
-695,699	-200,000	0,001	-0,126
-694,685	744,064	0,075	0,149
-693,670	800,000	0,006	0,018
-692,656	417,420	0,053	-0,083
-691,641	-87,072	0,045	-0,010
-690,627	-200,000	0,027	-0,150
-689,612	559,783	0,034	0,060
-688,597	800,000	-0,022	0,071
-687,583	-28,951	-0,124	0,052
-686,568	-160,672	0,024	0,001
-685,554	-200,000	-0,006	-0,145
-684,539	-200,000	0,004	0,019
-683,524	593,694	0,076	-0,140
-682,510	-120,401	-0,072	-0,009
-681,495	-200,000	-0,007	-0,118
-680,481	-200,000	-0,012	-0,041
-679,466	-200,000	-0,002	0,010
-678,451	-200,000	-0,008	-0,080
-677,437	59,377	-0,025	0,018
-676,422	-140,903	-0,051	-0,004
-675,408	-24,497	-0,079	-0,035
-674,393	-200,000	-0,004	-0,104
-673,378	57,257	0,097	-0,070
-672,364	-19,397	-0,115	0,052
-671,349	-90,773	-0,148	0,031
-670,335	213,784	0,080	-0,094
-669,320	-113,184	0,023	-0,003
-668,305	314,711	-0,069	0,096
-667,291	-200,000	0,016	0,182
-666,276	50,510	-0,083	0,058
-665,262	-4,192	-0,151	-0,077
-664,247	59,849	0,015	-0,011
-663,232	-200,000	-0,005	-0,069
-662,218	-33,845	-0,031	-0,013
-661,203	-91,130	0,104	-0,022
-660,189	-200,000	0,001	0,042
-659,174	-200,000	-0,015	0,082
-658,159	800,000	0,004	-0,009
-657,145	800,000	0,006	0,017
-656,130	-200,000	-0,012	-0,044
-655,116	182,589	0,076	0,082
-654,101	-200,000	-0,002	-0,128
-653,086	-200,000	-0,022	-0,077
-652,072	-200,000	-0,007	-0,066
-651,057	-200,000	-0,037	-0,187
-650,043	-37,266	-0,117	0,046
-649,028	-81,279	0,113	0,027
-648,014	126,755	0,073	0,068
-646,999	309,204	0,048	-0,066
-645,984	492,127	-0,025	0,042
-644,970	91,340	-0,054	0,045
-643,955	122,242	-0,079	0,073
-642,941	220,195	-0,057	0,068
-641,926	-111,527	0,014	-0,002
-640,911	-200,000	0,019	-0,092
-639,897	95,630	-0,043	0,036
-638,882	-59,648	-0,054	-0,017
-637,868	800,000	0,030	-0,074
-636,853	-138,086	-0,124	-0,010
-635,838	-200,000	0,015	-0,089
-634,824	29,373	0,184	0,115
-633,809	120,675	-0,068	-0,063
-632,795	-29,919	0,010	0,004
-631,780	-41,800	-0,084	-0,031
-630,765	9,829	0,025	-0,014
-629,751	-200,000	-0,008	-0,104
-628,736	-11,322	-0,037	0,018
-627,722	176,286	0,078	0,084
-626,707	-200,000	0,021	-0,100
-625,692	622,737	-0,051	-0,094
-624,678	-200,000	-0,008	-0,098
-623,663	56,117	0,049	0,035
-622,649	800,000	-0,031	0,085
-621,634	800,000	-0,049	-0,121
-620,619	-200,000	-0,007	0,044
-619,605	-127,477	0,041	0,004
-618,590	39,182	-0,087	-0,057
-617,576	-166,627	-0,193	-0,006
-616,561	-5,091	0,084	0,042
-615,546	-1,989	0,093	-0,048
-614,532	-200,000	-0,015	0,114
-613,517	387,338	-0,043	0,065
-612,503	589,130	0,018	0,032
-611,488	800,000	-0,054	0,123
-610,474	62,133	0,056	0,041
-609,459	216,826	-0,063	0,074
-608,444	800,000	-0,052	-0,132
-607,430	800,000	-0,005	0,015
-606,415	732,445	-0,043	-0,084
-605,401	-200,000	-0,003	0,034
-604,386	800,000	-0,041	0,101
-603,371	117,294	-0,044	0,039
-602,357	-200,000	-0,033	0,157
-601,342	130,869	-0,084	-0,079
-600,328	-22,340	-0,079	0,035
-599,313	800,000	-0,083	-0,173
-598,298	152,762	0,048	-0,048
-597,284	158,818	-0,050	-0,051
-596,269	-3,273	0,061	-0,031
-595,255	800,000	-0,051	0,129
-594,240	-200,000	0,008	-0,081
-593,225	63,439	-0,072	0,053
-592,211	-141,369	-0,101	0,007
-591,196	157,506	-0,013	-0,013
-590,182	800,000	0,019	-0,054
-589,167	84,616	0,049	0,039
-588,152	195,711	-0,066	-0,074
-587,138	800,000	-0,021	-0,049
-586,123	800,000	-0,020	-0,059
-585,109	-200,000	-0,026	-0,107
-584,094	-200,000	-0,007	-0,166
-583,079	189,745	0,034	0,038
-582,065	-200,000	-0,011	0,053
-581,050	-162,619	-0,139	0,005
-580,036	-200,000	0,009	-0,097
-579,021	-200,000	-0,017	-0,094
-578,006	-88,745	-0,028	-0,006
-576,992	247,949	-0,064	-0,080
-575,977	-16,803	0,033	0,015
-574,963	-96,287	0,079	0,015
-573,948	335,426	0,035	-0,051
-572,934	800,000	-0,038	0,093
-571,919	38,406	-0,078	-0,051
-570,904	-64,493	-0,107	-0,032
-569,890	423,303	-0,033	-0,053
-568,875	92,130	-0,047	-0,039
-567,861	800,000	0,033	0,088
-566,846	800,000	0,038	-0,122
-565,831	-39,477	-0,085	-0,032
-564,817	-200,000	-0,002	0,016
-563,802	-200,000	0,029	-0,140
-562,788	-44,125	0,081	-0,030
-561,773	301,196	0,097	-0,131
-560,758	-7,225	0,102	-0,050
-559,744	800,000	-0,062	0,149
-558,729	800,000	0,026	-0,082
-557,715	711,115	0,115	-0,225
-556,700	-200,000	-0,004	-0,024
-555,685	-200,000	0,001	0,017
-554,671	101,450	0,144	0,123
-553,656	414,828	0,042	0,065
-552,642	-14,176	0,139	0,066
-551,627	-200,000	-0,004	-0,065
-550,612	84,529	-0,101	0,081
-549,598	-200,000	-0,008	-0,080
-548,583	-113,905	-0,112	0,016
-547,569	382,423	-0,082	-0,124
-546,554	800,000	0,035	0,093
-545,539	-129,754	0,057	0,006
-544,525	-138,223	-0,115	0,009
-543,510	800,000	-0,056	0,136
-542,496	800,000	-0,040	-0,083
-541,481	-72,499	0,079	0,021
-540,466	97,579	-0,099	0,084
-539,452	-15,360	0,026	0,012
-538,437	-200,000	-0,005	0,059
-537,423	-82,529	0,240	0,057
-536,408	-27,337	-0,192	0,082
-535,393	-200,000	0,000	-0,046
-534,379	800,000	-0,036	-0,095
-533,364	-61,791	-0,057	-0,017
-532,350	800,000	-0,033	-0,079
-531,335	-141,889	-0,086	0,006
-530,321	-200,000	-0,020	0,165
-529,306	6,637	-0,081	-0,044
-528,291	152,043	-0,034	-0,034
-527,277	32,284	0,069	0,044
-526,262	209,785	-0,101	-0,116
-525,248	589,638	0,020	0,037
-524,233	-200,000	-0,000	-0,069
-523,218	351,284	-0,063	0,092
-522,204	800,000	-0,029	0,064
-521,189	-164,490	-0,111	0,004
-520,175	696,669	-0,036	-0,070
-519,160	-200,000	0,001	-0,121
-518,145	-200,000	-0,010	0,073
-517,131	304,043	0,090	0,123
-516,116	136,718	0,051	0,049
-515,102	-200,000	-0,012	0,046
-514,087	-76,340	0,077	-0,020
-513,072	76,613	0,040	0,031
-512,058	-26,352	-0,037	-0,016
-511,043	-200,000	0,006	-0,033
-510,029	72,506	0,053	-0,041
-509,014	20,802	-0,089	-0,053
-507,999	230,023	0,074	-0,089
-506,985	-200,000	0,001	-0,015
-505,970	145,416	-0,091	-0,090
-504,956	800,000	-0,040	-0,089
-503,941	-61,517	-0,042	0,013
-502,926	800,000	0,010	-0,031
-501,912	-200,000	0,026	0,191
-500,897	-174,813	0,072	-0,001
-499,883	-200,000	-0,011	0,075
-498,868	29,913	-0,165	0,103
-497,853	-67,110	-0,030	-0,009
-496,839	800,000	0,042	-0,093
-495,824	-200,000	0,000	0,053
-494,810	800,000	0,021	0,051
-493,795	-98,708	0,115	-0,021
-492,781	-6,876	-0,103	-0,051
-491,766	40,811	0,081	-0,053
-490,751	-38,908	-0,039	-0,015
-489,737	-200,000	0,001	0,104
-488,722	-61,350	0,158	-0,048
-487,708	103,366	0,113	0,097
-486,693	800,000	0,011	0,031
-485,678	-17,440	0,019	-0,009
-484,664	90,327	-0,054	0,044
-483,649	20,710	0,047	0,028
-482,635	173,269	-0,068	-0,072
-481,620	631,565	0,058	0,108
-480,605	595,308	-0,058	0,106
-479,591	-127,686	0,098	0,010
-478,576	103,007	0,089	-0,076
-477,562	13,227	-0,084	-0,048
-476,547	-163,448	-0,138	0,005
-475,532	800,000	0,007	-0,022
-474,518	9,601	-0,103	0,057
-473,503	-57,436	0,118	-0,038
-472,489	-200,000	0,021	0,081
-471,474	-99,355	-0,111	-0,020
-470,459	-96,141	-0,042	-0,008
-469,445	-25,936	-0,052	0,022
-468,430	103,021	0,154	-0,132
-467,416	800,000	-0,069	-0,175
-466,401	193,523	0,042	0,047
-465,386	800,000	0,011	0,026
-464,372	-200,000	0,017	-0,063
-463,357	226,150	-0,051	-0,061
-462,343	289,044	0,068	-0,090
-461,328	800,000	0,102	-0,258
-460,313	-157,417	0,144	0,006
-459,299	207,729	0,099	0,114
-458,284	31,127	0,046	0,029
-457,270	-200,000	0,021	-0,069
-456,255	0,087	0,086	0,045
-455,241	-66,561	-0,105	-0,030
-454,226	143,706	-0,057	-0,055
-453,211	309,634	-0,020	0,027
-452,197	-200,000	-0,006	0,141
-451,182	-126,187	0,102	-0,011
-450,168	-200,000	0,031	0,139
-449,153	-53,029	-0,196	-0,065
-448,138	39,153	-0,013	0,009
-447,124	338,011	-0,020	0,029
-446,109	-72,320	0,117	-0,031
-445,095	221,485	0,053	-0,062
-444,080	23,040	-0,067	0,040
-443,065	-200,000	-0,006	0,162
-442,051	358,664	0,093	0,136
-441,036	800,000	-0,059	0,144
-440,022	800,000	0,029	-0,066
-439,007	50,875	0,071	-0,049
-437,992	800,000	0,029	-0,076
-436,978	122,576	-0,014	0,012
-435,963	171,403	0,141	0,148
-434,949	-200,000	0,017	-0,092
-433,934	-134,436	-0,275	0,024
-432,919	-200,000	0,017	0,065
-431,905	201,136	-0,050	0,057
-430,890	-132,240	0,098	-0,009
-429,876	467,777	0,025	0,041
-428,861	-38,931	-0,086	0,033
-427,846	38,566	0,129	0,084
-426,832	423,155	-0,044	0,070
-425,817	533,902	-0,120	-0,208
-424,803	202,600	0,172	-0,194
-423,788	142,482	0,071	-0,068
-422,773	-34,780	-0,031	0,012
-421,759	800,000	0,018	0,059
-420,744	-200,000	-0,003	0,085
-419,730	-200,000	-0,017	-0,086
-418,715	54,535	0,092	-0,064
-417,701	-31,455	0,081	-0,033
-416,686	-200,000	-0,027	0,129
-415,671	-60,424	0,069	-0,021
-414,657	51,805	-0,088	0,061
-413,642	404,052	0,106	0,163
-412,628	236,549	0,035	-0,043
-411,613	-200,000	0,008	-0,128
-410,598	800,000	-0,049	-0,123
-409,584	178,200	-0,039	-0,041
-408,569	800,000	0,016	-0,042
-407,555	-139,383	0,030	0,002
-406,540	143,919	0,029	0,028
-405,525	504,035	0,031	-0,052
-404,511	29,217	0,057	-0,035
-403,496	-121,361	0,030	0,004
-402,482	800,000	0,037	-0,079
-401,467	-48,290	0,029	0,010
-400,452	-65,364	-0,077	0,023
-399,438	325,839	-0,047	-0,065
-398,423	389,830	0,035	-0,054
-397,409	-108,355	0,163	-0,025
-396,394	800,000	0,057	-0,174
-395,379	624,375	-0,107	0,198
-394,365	487,912	-0,032	0,053
-393,350	697,131	0,058	0,112
-392,336	552,444	-0,051	0,090
-391,321	-11,304	-0,085	0,041
-390,306	31,066	-0,071	-0,044
-389,292	-200,000	0,012	-0,195
-388,277	800,000	0,023	0,054
-387,263	-16,170	0,115	0,053
-386,248	-18,330	-0,133	0,060
-385,233	38,917	-0,111	0,072
-384,219	185,996	0,021	-0,023
-383,204	800,000	0,021	-0,061
-382,190	-48,958	0,070	-0,024
-381,175	545,822	0,044	-0,077
-380,160	51,825	0,122	0,085
-379,146	10,493	-0,183	0,101
-378,131	295,743	-0,092	0,123
-377,117	-200,000	0,014	0,074
-376,102	-200,000	-0,024	-0,094
-375,088	800,000	-0,032	-0,097
-374,073	257,141	-0,007	-0,009
-373,058	-50,704	0,178	0,061
-372,044	6,904	0,070	-0,038
-371,029	223,391	-0,048	0,056
-370,015	325,351	0,095	0,133
-369,000	647,137	0,035	-0,065
-367,985	-18,899	0,065	0,030
-366,971	800,000	0,066	0,158
-365,956	15,774	-0,038	0,021
-364,942	800,000	-0,023	-0,072
-363,927	-200,000	0,030	-0,113
-362,912	309,659	-0,063	-0,087
-361,898	363,494	0,058	0,085
-360,883	-200,000	-0,084	0,000
-359,869	800,000	-0,028	0,090
-358,854	424,562	0,098	-0,154
-357,839	-34,617	0,075	-0,030
-356,825	-200,000	0,010	0,159
-355,810	-200,000	0,001	-0,087
-354,796	-200,000	-0,001	-0,102
-353,781	71,912	0,082	-0,062
-352,766	-200,000	0,016	-0,175
-351,752	-105,114	0,093	0,015
-350,737	-88,086	0,081	-0,018
-349,723	273,952	-0,085	0,110
-348,708	-90,661	0,049	-0,010
-347,693	-127,018	0,102	-0,011
-346,679	352,716	-0,090	-0,131
-345,664	-30,590	0,067	-0,027
-344,650	675,923	-0,031	-0,060
-343,635	-61,565	0,068	0,021
-342,620	-200,000	0,002	0,122
-341,606	800,000	0,052	0,152
-340,591	5,124	-0,053	-0,029
-339,577	-200,000	0,005	-0,066
-338,562	326,685	-0,057	0,080
-337,548	-200,000	0,004	-0,043
-336,533	79,524	0,106	-0,083
-335,518	29,729	0,040	0,025
-334,504	173,931	-0,032	-0,034
-333,489	56,271	0,049	-0,035
-332,475	-108,384	-0,079	-0,012
-331,460	-200,000	-0,006	-0,105
-330,445	439,187	0,042	0,067
-329,431	46,531	0,026	-0,017
-328,416	-200,000	0,010	0,081
-327,402	130,819	0,025	0,023
-326,387	-200,000	-0,015	-0,107
-325,372	-200,000	-0,002	-0,094
-324,358	727,950	0,049	0,096
-323,343	-85,406	-0,113	0,025
-322,329	432,164	0,050	0,079
-321,314	214,142	0,054	0,062
-320,299	422,116	-0,014	0,022
-319,285	-8,424	0,036	-0,018
-318,270	-55,922	-0,071	-0,023
-317,256	26,217	-0,076	0,046
-316,241	-130,089	-0,118	-0,012
-315,226	-200,000	-0,010	-0,127
-314,212	744,224	0,052	0,101
-313,197	-152,856	-0,084	0,004
-312,183	-72,607	0,051	-0,014
-311,168	60,231	-0,041	0,029
-310,153	-200,000	0,007	-0,070
-309,139	-96,713	0,027	-0,005
-308,124	153,236	0,060	-0,060
-307,110	393,234	-0,009	0,014
-306,095	365,659	-0,041	-0,060
-305,080	300,371	-0,056	-0,075
-304,066	45,275	0,138	-0,092
-303,051	-93,388	0,071	-0,014
-302,037	800,000	0,082	0,171
-301,022	-101,651	-0,067	-0,012
-300,008	-200,000	0,001	-0,209
-298,993	-85,127	-0,032	-0,007
-297,978	516,159	0,032	0,054
-296,964	-9,723	-0,104	0,050
-295,949	396,235	-0,083	-0,127
-294,935	-54,875	-0,075	-0,025
-293,920	-200,000	-0,032	0,106
-292,905	-200,000	0,001	-0,034
-291,891	196,946	-0,063	0,070
-290,876	56,595	0,126	0,089
-289,862	-65,853	0,122	0,035
-288,847	748,575	0,016	-0,031
-287,832	15,307	-0,138	-0,078
-286,818	45,987	0,119	0,080
-285,803	571,245	-0,073	0,129
-284,789	-123,302	0,154	-0,018
-283,774	800,000	-0,084	-0,263
-282,759	800,000	-0,044	-0,135
-281,745	61,278	0,050	0,036
-280,730	529,573	-0,037	-0,063
-279,716	63,199	-0,050	-0,036
-278,701	281,981	0,083	-0,108
-277,686	800,000	-0,015	-0,046
-276,672	-28,077	-0,055	-0,023
-275,657	179,425	0,028	0,030
-274,643	-15,993	-0,057	0,026
-273,628	-200,000	0,018	-0,083
-272,613	-105,814	-0,071	0,012
-271,599	-200,000	-0,001	0,189
-270,584	800,000	0,081	0,218
-269,570	-104,505	-0,032	-0,005
-268,555	71,827	-0,007	0,005
-267,540	-57,691	-0,044	-0,014
-266,526	-74,429	-0,112	-0,029
-265,511	24,114	0,087	-0,052
-264,497	126,503	-0,068	0,062
-263,482	-134,602	0,138	0,012
-262,467	-137,865	0,118	0,009
-261,453	-89,936	-0,178	0,037
-260,438	137,818	0,057	-0,054
-259,424	-200,000	-0,016	-0,191
-258,409	-200,000	0,025	0,091
-257,395	-200,000	-0,011	0,107
-256,380	-200,000	-0,009	-0,077
-255,365	236,093	0,095	0,114
-254,351	11,979	-0,090	0,050
-253,336	130,001	-0,062	-0,058
-252,322	-200,000	0,003	-0,055
-251,307	48,614	-0,113	-0,077
-250,292	311,200	-0,035	-0,047
-249,278	555,326	0,024	0,043
-248,263	432,365	0,089	0,140
-247,249	271,897	-0,038	0,049
-246,234	800,000	0,014	0,034
-245,219	187,914	-0,032	-0,034
-244,205	-200,000	0,010	-0,088
-243,190	-41,951	0,073	0,027
-242,176	-192,824	0,059	-0,000
-241,161	800,000	0,061	0,171
-240,146	800,000	-0,004	0,010
-239,132	621,646	-0,075	0,137
-238,117	329,584	-0,073	-0,101
-237,103	-32,857	-0,093	-0,037
-236,088	-34,327	0,186	-0,073
-235,073	-143,175	0,170	-0,012
-234,059	800,000	0,027	0,060
-233,044	-107,928	-0,092	-0,014
-232,030	-200,000	-0,005	0,062
-231,015	-200,000	0,021	-0,069
-230,000	-181,844	0,100	-0,001
-228,986	188,571	-0,054	-0,059
-227,971	800,000	-0,026	0,073
-226,957	-2,596	-0,170	0,086
-225,942	312,954	0,044	-0,061
-224,927	-9,598	0,101	-0,049
-223,913	-141,532	-0,043	0,003
-222,898	800,000	-0,057	0,151
-221,884	-144,867	0,075	0,005
-220,869	-44,555	0,061	0,022
-219,855	-200,000	0,013	0,088
-218,840	-110,317	0,063	0,009
-217,825	-200,000	0,036	-0,122
-216,811	-44,633	-0,188	0,068
-215,796	800,000	0,021	-0,051
-214,782	-200,000	-0,002	0,023
-213,767	-200,000	-0,010	0,057
-212,752	238,008	0,033	0,039
-211,738	-200,000	-0,010	0,072
-210,723	43,699	-0,079	-0,052
-209,709	186,317	-0,048	0,052
-208,694	-200,000	-0,006	0,043
-207,679	550,435	0,070	-0,122
-206,665	-200,000	0,003	-0,022
-205,650	21,565	0,136	0,080
-204,636	135,518	0,048	0,045
-203,621	-132,798	-0,108	0,010
-202,606	221,936	0,040	0,047
-201,592	262,192	-0,019	0,023
-200,577	-200,000	-0,005	0,123
-199,563	-100,403	0,143	0,025
-198,548	260,273	-0,021	0,027
-197,533	-200,000	0,019	0,115
-196,519	23,087	0,062	0,037
-195,504	-29,123	-0,105	0,043
-194,490	-200,000	-0,017	-0,173
-193,475	32,626	-0,116	-0,072
-192,460	516,411	0,025	0,042
-191,446	-45,626	-0,078	0,028
-190,431	-200,000	-0,000	-0,046
-189,417	203,538	-0,020	0,022
-188,402	-97,917	-0,081	-0,015
-187,387	-200,000	-0,012	0,047
-186,373	-141,029	-0,095	-0,007
-185,358	208,691	0,047	0,053
-184,344	127,116	0,014	-0,013
-183,329	-104,074	0,104	-0,017
-182,315	66,162	-0,074	0,054
-181,300	174,318	0,023	-0,024
-180,285	187,021	-0,095	-0,102
-179,271	-62,069	0,158	0,047
-178,256	279,508	0,085	0,110
-177,242	-200,000	0,032	0,158
-176,227	-44,780	-0,104	0,037
-175,212	-102,437	0,106	0,018
-174,198	67,600	0,092	0,068
-173,183	-80,089	-0,098	-0,023
-172,169	-51,509	-0,069	-0,023
-171,154	-181,927	-0,085	-0,001
-170,139	243,515	0,018	0,022
-169,125	-15,970	0,098	-0,045
-168,110	126,375	-0,047	0,043
-167,096	-86,622	-0,047	0,010
-166,081	-200,000	-0,012	0,088
-165,066	338,313	-0,103	-0,145
-164,052	-200,000	-0,001	-0,045
-163,037	-53,439	-0,082	0,027
-162,023	6,502	0,064	-0,034
-161,008	-35,999	0,104	0,040
-159,993	800,000	-0,050	0,104
-158,979	238,482	-0,064	-0,076
-157,964	-200,000	0,009	0,034
-156,950	328,390	-0,093	-0,130
-155,935	-89,376	0,114	0,024
-154,920	57,232	-0,093	0,066
-153,906	-23,179	0,106	0,046
-152,891	800,000	0,047	0,123
-151,877	-200,000	0,016	0,223
-150,862	-102,575	-0,143	0,024
-149,847	-200,000	-0,028	-0,107
-148,833	100,160	0,122	0,102
-147,818	800,000	-0,023	0,054
-146,804	68,425	-0,113	-0,084
-145,789	344,003	0,074	0,105
-144,775	-200,000	-0,002	-0,047
-143,760	-200,000	-0,033	0,116
-142,745	736,391	0,025	0,049
-141,731	-180,191	-0,069	-0,001
-140,716	287,627	0,090	0,118
-139,702	-200,000	0,030	0,218
-138,687	-72,373	0,094	-0,025
-137,672	-77,354	-0,056	-0,014
-136,658	20,528	-0,073	-0,043
-135,643	-200,000	0,010	-0,160
-134,629	692,156	0,038	-0,072
-133,614	-200,000	-0,036	0,162
-132,599	455,841	0,019	-0,031
-131,585	12,177	0,030	0,017
-130,570	95,206	-0,124	-0,102
-129,556	-12,886	0,036	-0,017
-128,541	-65,332	-0,033	-0,009
-127,526	-149,912	-0,102	0,006
-126,512	-200,000	-0,006	0,082
-125,497	-18,207	0,011	-0,005
-124,483	-117,934	0,136	0,017
-123,468	800,000	0,022	-0,045
-122,453	146,386	-0,070	-0,068
-121,439	476,351	0,080	-0,132
-120,424	634,426	-0,077	0,141
-119,410	-51,861	0,118	0,039
-118,395	74,518	-0,041	-0,031
-117,380	408,267	-0,058	-0,089
-116,366	-60,676	-0,132	-0,040
-115,351	-156,465	-0,050	0,002
-114,337	270,605	0,046	-0,058
-113,322	77,832	-0,070	0,053
-112,307	-200,000	0,008	0,058
-111,293	-93,784	0,081	0,016
-110,278	-99,278	0,040	0,007
-109,264	-53,062	-0,043	-0,014
-108,249	168,377	0,065	-0,067
-107,234	-113,090	-0,075	0,011
-106,220	800,000	0,026	-0,056
-105,205	235,405	-0,052	-0,062
-104,191	454,802	0,055	0,088
-103,176	-200,000	0,020	0,160
-102,162	136,212	0,040	0,038
-101,147	17,820	-0,131	0,075
-100,132	800,000	0,020	-0,053
-99,118	484,673	0,048	0,079
-98,103	167,745	0,012	-0,012
-97,089	-10,630	0,085	0,041
-96,074	-51,508	0,048	0,016
-95,059	81,865	0,109	0,085
-94,045	-148,585	0,074	0,004
-93,030	-58,355	-0,085	-0,026
-92,016	-110,328	0,045	-0,007
-91,001	126,442	0,057	0,052
-89,986	578,506	0,044	0,077
-88,972	-200,000	-0,018	0,094
-87,957	224,507	0,034	0,039
-86,943	-30,644	0,057	-0,023
-85,928	-36,246	-0,129	-0,050
-84,913	-200,000	-0,010	0,155
-83,899	-200,000	-0,010	-0,116
-82,884	-200,000	0,002	-0,072
-81,870	-30,977	0,076	0,031
-80,855	800,000	-0,030	0,067
-79,840	137,099	0,069	-0,065
-78,826	-200,000	-0,041	-0,178
-77,811	-54,583	-0,138	0,045
-76,797	-200,000	0,021	-0,074
-75,782	89,606	0,060	0,049
-74,767	229,470	-0,090	0,106
-73,753	-43,138	0,090	0,033
-72,738	-200,000	-0,022	0,072
-71,724	-200,000	-0,013	-0,128
-70,709	755,277	0,037	-0,072
-69,694	-69,296	-0,038	-0,010
-68,680	-83,751	0,078	0,018
-67,665	-200,000	-0,015	0,173
-66,651	-133,722	0,068	-0,006
-65,636	-13,761	0,088	0,041
-64,622	52,271	-0,077	-0,053
-63,607	-200,000	0,011	-0,115
-62,592	-129,288	0,064	-0,006
-61,578	-19,305	0,105	-0,047
-60,563	-20,072	0,109	-0,048
-59,549	-115,079	0,082	0,011
-58,534	32,515	-2,180	-1,353
-57,519	494,957	-1,232	-2,044
-56,505	-200,000	-0,149	-4,195
-55,490	645,215	0,807	1,488
-54,476	800,000	5,212	11,386
-53,461	-200,000	21,733	339,585
-52,446	800,000	757,415	2315,759
-51,432	517,868	1651,201	2790,889
-50,417	70,413	1574,355	1169,707
-49,403	21,449	1110,485	648,024
-48,388	12,787	803,419	445,358
-47,373	27,039	765,796	461,169
-46,359	18,792	751,323	431,673
-45,344	9,278	747,075	405,190
-44,330	9,128	745,438	403,909
-43,315	9,030	744,203	402,976
-42,300	8,960	742,761	402,001
-41,286	9,023	742,216	401,849
-40,271	8,956	741,332	401,188
-39,257	9,054	740,205	400,806
-38,242	9,064	739,433	400,397
-37,227	9,004	738,829	399,905
-36,213	9,047	737,796	399,437
-35,198	9,093	736,993	399,102
-34,184	9,161	736,525	399,004
-33,169	9,073	735,637	398,287
-32,154	9,235	735,032	398,347
-31,140	9,197	733,798	397,568
-30,125	9,233	733,136	397,282
-29,111	9,150	732,606	396,773
-28,096	9,063	732,547	396,509
-27,082	9,068	731,768	396,084
-26,067	9,175	730,959	395,898
-25,052	9,056	730,424	395,296
-24,038	8,950	729,993	394,785
-23,023	9,016	729,224	394,516
-22,009	9,163	728,681	394,571
-20,994	9,100	727,976	394,017
-19,979	9,135	727,227	393,682
-18,965	9,145	726,884	393,505
-17,950	9,199	726,420	393,373
-16,936	9,111	725,981	392,902
-15,921	9,125	725,404	392,609
-14,906	9,083	724,494	391,998
-13,892	9,071	724,257	391,825
-12,877	9,094	723,542	391,478
-11,863	9,021	723,041	391,013
-10,848	8,873	723,004	390,615
-9,833	9,005	722,614	390,712
-8,819	9,170	721,503	390,498
-7,804	9,151	720,998	390,163
-6,790	9,081	720,716	389,825
-5,775	9,169	720,372	389,839
-4,760	9,058	719,746	389,213
-3,746	8,997	719,491	388,911
-2,731	8,811	719,147	388,255
-1,717	8,902	718,685	388,213
-0,702	8,867	717,939	387,709
0,313	8,967	714,599	386,731
1,327	13,009	690,831	383,296
2,342	21,686	557,415	325,535
3,356	15,512	307,858	173,383
4,371	-14,972	206,772	94,936
5,386	-18,160	194,650	87,228
6,400	-18,510	191,031	85,368
7,415	-17,471	189,268	85,250
8,429	-18,552	188,452	84,174
9,444	-18,723	187,687	83,714
10,459	-18,417	187,537	83,837
11,473	-18,310	186,619	83,488
12,488	-18,096	186,517	83,573
13,502	-18,311	185,871	83,138
14,517	-18,716	185,828	82,853
15,531	-18,373	185,182	82,775
16,546	-18,189	184,903	82,760
17,561	-18,362	184,717	82,560
18,575	-18,510	184,633	82,421
19,590	-18,723	184,228	82,098
20,604	-17,996	184,032	82,463
21,619	-18,463	183,731	82,026
22,634	-18,385	183,591	82,005
23,648	-18,194	183,131	81,913
24,663	-18,273	182,859	81,734
25,677	-18,371	182,890	81,679
26,692	-18,355	182,833	81,657
27,707	-18,207	182,377	81,538
28,721	-18,367	182,383	81,433
29,736	-18,356	182,003	81,263
30,750	-18,239	181,796	81,237
31,765	-18,451	181,571	80,997
32,780	-18,512	181,555	80,945
33,794	-18,265	181,316	80,985
34,809	-18,504	181,237	80,793
35,823	-18,335	180,850	80,719
36,838	-18,179	180,596	80,695
37,853	-18,237	180,557	80,634
38,867	-18,454	180,284	80,370
39,882	-18,297	180,093	80,375
40,896	-18,307	180,016	80,328
41,911	-18,266	179,794	80,247
42,926	-18,309	179,658	80,153
43,940	-18,271	179,344	80,028
44,955	-18,253	179,135	79,939
45,969	-18,139	179,084	79,979
46,984	-18,010	178,946	79,990
47,999	-18,226	178,921	79,839
49,013	-18,196	178,750	79,774
50,028	-17,882	178,489	79,842
51,042	-18,099	178,347	79,639
52,057	-18,126	178,344	79,614
53,071	-17,973	178,039	79,564
54,086	-17,877	177,926	79,565
55,101	-18,165	177,738	79,298
56,115	-18,332	177,585	79,121
57,130	-18,127	177,358	79,138
58,144	-18,517	177,108	78,783
59,159	-18,641	177,085	78,691
60,174	-18,287	176,806	78,774
61,188	-18,374	176,691	78,663
62,203	-18,264	176,518	78,645
63,217	-18,375	176,388	78,513
64,232	-18,499	176,118	78,311
65,247	-18,527	175,877	78,180
66,261	-18,195	175,858	78,365
67,276	-18,555	175,651	78,049
68,290	-18,250	175,663	78,231
69,305	-18,115	175,431	78,202
70,320	-18,268	175,347	78,065
71,334	-18,176	175,100	78,004
72,349	-18,500	174,899	77,713
73,363	-18,382	174,651	77,667
74,378	-18,565	174,612	77,533
75,393	-18,362	174,303	77,510
76,407	-18,410	174,335	77,488
77,422	-18,395	174,182	77,422
78,436	-18,168	174,001	77,470
79,451	-18,150	173,833	77,399
80,466	-18,378	173,705	77,200
81,480	-18,288	173,487	77,150
82,495	-18,489	173,573	77,062
83,509	-18,061	173,268	77,173
84,524	-18,017	173,183	77,154
85,539	-17,970	172,800	77,005
86,553	-18,065	172,943	77,005
87,568	-18,242	172,632	76,755
88,582	-18,232	172,437	76,668
89,597	-18,168	172,411	76,687
90,611	-18,376	172,311	76,513
91,626	-18,008	172,018	76,593
92,641	-18,291	172,048	76,433
93,655	-18,183	171,849	76,401
94,670	-18,088	171,604	76,341
95,684	-18,074	171,482	76,288
96,699	-18,302	171,412	76,117
97,714	-18,220	171,268	76,094
98,728	-18,255	171,132	76,006
99,743	-17,794	170,891	76,161
100,757	-17,877	170,869	76,096
101,772	-18,193	170,672	75,818
102,787	-18,621	170,657	75,555
103,801	-18,106	170,345	75,710
104,816	-18,161	170,221	75,616
105,830	-18,107	170,020	75,551
106,845	-18,278	170,070	75,467
107,860	-18,057	169,738	75,441
108,874	-18,293	169,673	75,269
109,889	-18,209	169,438	75,207
110,903	-18,177	169,398	75,200
111,918	-17,968	169,294	75,269
112,933	-18,245	169,136	75,032
113,947	-18,375	169,062	74,917
114,962	-18,221	168,939	74,945
115,976	-18,219	168,652	74,812
116,991	-18,185	168,604	74,804
118,006	-18,087	168,341	74,736
119,020	-18,534	168,526	74,555
120,035	-18,687	168,335	74,376
121,049	-18,143	168,116	74,585
122,064	-18,002	167,923	74,573
123,079	-17,932	167,806	74,554
124,093	-18,198	167,543	74,279
125,108	-18,309	167,529	74,203
126,122	-17,841	167,410	74,410
127,137	-18,038	167,349	74,264
128,151	-18,074	167,086	74,121
129,166	-18,002	166,998	74,116
130,181	-17,974	166,947	74,103
131,195	-18,251	166,806	73,876
132,210	-18,180	166,591	73,814
133,224	-18,115	166,317	73,723
134,239	-18,118	166,313	73,714
135,254	-18,011	166,266	73,746
136,268	-18,138	165,952	73,529
137,283	-18,182	165,905	73,476
138,297	-18,036	165,769	73,492
139,312	-18,258	165,563	73,269
140,327	-18,253	165,307	73,152
141,341	-18,832	165,153	72,753
142,356	-18,931	164,839	72,552
143,370	-17,517	165,239	73,516
144,385	-10,397	167,117	78,385
145,400	-3,618	168,346	82,818
146,414	-2,056	168,559	83,805
147,429	-2,066	168,431	83,728
148,443	-1,911	168,477	83,832
149,458	-1,631	168,423	83,957
150,473	-1,396	168,386	84,065
151,487	-1,119	168,229	84,136
152,502	-1,211	168,160	84,041
153,516	-1,311	167,933	83,864
154,531	-1,077	167,871	83,958
155,546	-1,182	167,758	83,835
156,560	-1,309	167,733	83,743
157,575	-1,205	167,505	83,680
158,589	-1,124	167,457	83,695
159,604	-1,098	167,410	83,678
160,619	-1,198	167,250	83,535
161,633	-0,959	167,042	83,558
162,648	-1,092	166,997	83,453
163,662	-0,709	166,883	83,604
164,677	-0,834	166,641	83,405
165,692	-0,709	166,585	83,440
166,706	-0,846	166,534	83,330
167,721	-0,698	166,313	83,295
168,735	-0,946	166,352	83,168
169,750	-1,067	166,219	83,026
170,764	-0,778	166,181	83,162
171,779	-0,981	166,032	82,966
172,794	-0,722	165,813	82,994
173,808	-0,618	165,694	82,985
174,823	-0,718	165,599	82,874
175,837	-0,816	165,419	82,722
176,852	-0,773	165,316	82,687
177,867	-0,816	165,296	82,646
178,881	-0,815	165,184	82,583
179,896	-0,908	165,107	82,485
180,910	-0,750	164,917	82,471
181,925	-0,866	164,807	82,344
182,940	-0,809	164,731	82,331
183,954	-1,031	164,653	82,161
184,969	-0,790	164,536	82,229
185,983	-0,341	164,316	82,360
186,998	-0,589	164,208	82,162
188,013	-0,605	164,233	82,158
189,027	-0,506	163,872	82,025
190,042	-0,719	163,976	81,952
191,056	-0,503	163,787	81,969
192,071	-0,589	163,667	81,854
193,086	-0,702	163,518	81,710
194,100	-0,450	163,421	81,793
195,115	-0,411	163,211	81,702
196,129	-0,550	163,129	81,578
197,144	-0,535	162,971	81,499
198,159	-0,580	162,783	81,374
199,173	-0,424	162,863	81,491
200,188	-0,588	162,699	81,312
201,202	-0,715	162,579	81,176
202,217	-0,387	162,458	81,287
203,232	-0,800	162,436	81,043
204,246	-0,282	161,990	81,096
205,261	-0,492	162,038	80,998
206,275	-0,485	161,987	80,969
207,290	-0,780	162,060	80,838
208,304	-0,249	161,815	80,997
209,319	-0,294	161,710	80,913
210,334	-0,753	161,611	80,608
211,348	-0,757	161,231	80,409
212,363	-0,527	161,276	80,548
213,377	-0,448	161,144	80,518
214,392	-0,531	161,202	80,495
215,407	-0,335	161,215	80,600
216,421	-0,167	160,916	80,534
217,436	-0,509	160,824	80,296
218,450	-0,552	160,864	80,286
219,465	-0,482	160,693	80,231
220,480	-0,559	160,454	80,063
221,494	-0,448	160,465	80,121
222,509	-0,072	160,217	80,192
223,523	-0,299	160,153	80,031
224,538	-0,099	159,985	80,047
225,553	-0,204	159,894	79,938
226,567	-0,272	159,728	79,812
227,582	-0,504	159,830	79,731
228,596	-0,134	159,617	79,816
229,611	-0,426	159,704	79,696
230,626	-0,063	159,346	79,704
231,640	-0,329	159,397	79,580
232,655	0,065	159,072	79,621
233,669	-0,014	159,041	79,556
234,684	-0,273	158,926	79,354
235,699	-0,017	158,905	79,473
236,713	-0,079	158,867	79,413
237,728	-0,307	158,764	79,234
238,742	-0,163	158,594	79,218
239,757	-0,082	158,487	79,201
240,772	0,105	158,376	79,237
241,786	0,106	158,164	79,124
242,801	0,119	158,168	79,127
243,815	-0,009	158,196	79,066
244,830	0,036	157,898	78,933
245,844	0,202	157,758	78,944
246,859	0,126	157,838	78,937
247,874	0,041	157,630	78,781
248,888	0,078	157,506	78,732
249,903	0,133	157,399	78,699
250,917	0,479	157,311	78,830
251,932	0,306	157,212	78,684
252,947	0,172	157,095	78,548
253,961	-0,013	157,021	78,406
254,976	-0,256	156,920	78,221
255,990	0,036	156,754	78,284
257,005	0,051	156,687	78,252
258,020	0,217	156,539	78,258
259,034	0,150	156,579	78,236
260,049	0,228	156,449	78,205
261,063	0,261	156,245	78,113
262,078	0,264	156,128	78,049
263,093	0,037	156,097	77,908
264,107	0,281	155,924	77,942
265,122	-0,010	155,864	77,754
266,136	0,165	155,755	77,784
267,151	0,152	155,722	77,753
268,166	0,162	155,440	77,611
269,180	0,039	155,396	77,518
270,195	0,168	155,385	77,573
271,209	-0,140	155,240	77,334
272,224	0,196	155,206	77,484
273,239	0,252	154,984	77,395
274,253	0,077	154,794	77,202
275,268	0,481	154,770	77,393
276,282	-0,050	154,794	77,124
277,297	0,523	154,486	77,258
278,312	0,218	154,602	77,152
279,326	0,430	154,412	77,160
280,341	0,159	154,435	77,025
281,355	0,446	154,315	77,105
282,370	0,461	154,095	76,997
283,384	0,237	154,050	76,852
284,399	0,244	153,969	76,809
285,414	0,361	153,876	76,815
286,428	0,480	153,756	76,809
287,443	0,567	153,697	76,818
288,457	0,556	153,490	76,702
289,472	0,622	153,375	76,671
290,487	0,505	153,176	76,505
291,501	0,250	153,225	76,393
292,516	0,509	153,041	76,426
293,530	0,361	153,069	76,358
294,545	0,531	152,899	76,353
295,560	0,782	152,778	76,413
296,574	0,638	152,737	76,313
297,589	0,368	152,589	76,095
298,603	0,304	152,565	76,044
299,618	0,422	152,387	76,008
300,633	0,589	152,299	76,042
301,647	0,546	152,329	76,028
302,662	0,792	152,033	75,998
303,676	0,754	152,001	75,956
304,691	0,409	151,961	75,755
305,706	0,310	151,786	75,611
306,720	0,488	151,762	75,682
307,735	0,663	151,620	75,693
308,749	0,402	151,625	75,557
309,764	0,729	151,490	75,648
310,779	0,253	151,462	75,387
311,793	0,699	151,243	75,496
312,808	0,703	151,000	75,370
313,822	0,599	151,001	75,312
314,837	0,350	150,932	75,145
315,852	0,587	150,867	75,225
316,866	0,893	150,699	75,288
317,881	0,482	150,701	75,076
318,895	0,512	150,510	74,990
319,910	0,690	150,398	75,016
320,925	0,469	150,403	74,901
321,939	0,611	150,145	74,837
322,954	0,685	150,115	74,852
323,968	0,515	150,058	74,733
324,983	0,920	149,963	74,880
325,997	0,542	149,948	74,678
327,012	0,581	149,814	74,624
328,027	0,644	149,692	74,587
329,041	0,356	149,616	74,400
330,056	0,732	149,495	74,520
331,070	0,498	149,367	74,333
332,085	0,752	149,283	74,411
333,100	0,516	149,189	74,240
334,114	1,027	148,967	74,376
335,129	0,738	148,963	74,225
336,143	0,660	148,858	74,127
337,158	0,924	148,886	74,265
338,173	0,526	148,780	74,009
339,187	0,825	148,748	74,133
340,202	0,745	148,501	73,965
341,216	0,759	148,443	73,936
342,231	0,746	148,403	73,903
343,246	0,742	148,335	73,861
344,260	1,033	148,173	73,916
345,275	0,880	148,117	73,807
346,289	0,807	147,913	73,663
347,304	1,109	147,861	73,778
348,319	0,895	147,699	73,586
349,333	0,957	147,622	73,572
350,348	1,057	147,532	73,569
351,362	0,874	147,466	73,440
352,377	0,936	147,408	73,435
353,392	1,025	147,309	73,422
354,406	0,835	147,067	73,203
355,421	191,401	1324,288	1391,704
356,435	150,872	1468,177	1392,191
