DTS Sentinel unit serial number:	SN410029Multiplexer serial number:	ORYXHardware model number:	OX2-SRSoftware version number:	ORYX F/W v4,00 Oryx Data Collector v3.7.2.0data status	okinstallation	B3 Nyhavnadifferential loss correction	single-endedforward channel	channel 1reverse channel	N/Adate	2023/11/28time	16:07:30forward acquisition time	300,00reverse acquisition time	0,00gamma	499,1914k internal	0,3212k external	0,3212temperature offset calibration	1,0000default loss term (dB/km)	0,3820temperature slope calibration	1,0000multiplexer offset coefficient	1,0000multiplexer slope coefficient	1,0000fibre end	0,00T internal ref (°C)	7,26T ext. ref 1 (°C)	-7,62T ext. ref 2 (°C)	-7,78length (m)	temperature (°C)	Stokes	anti-Stokes-744,400	-200,000	-0,104	-0,383
-743,385	662,425	-0,202	0,379
-742,371	788,068	-0,070	-0,140
-741,356	-200,000	0,046	0,263
-740,342	222,854	-0,224	-0,262
-739,327	-200,000	-0,002	0,267
-738,312	398,694	-0,207	-0,315
-737,298	-200,000	-0,085	0,308
-736,283	165,164	-0,097	-0,099
-735,269	-200,000	0,066	0,287
-734,254	428,611	-0,135	-0,213
-733,239	45,352	-0,200	0,133
-732,225	154,185	-0,205	-0,204
-731,210	51,848	0,138	0,095
-730,196	-200,000	-0,014	0,081
-729,181	-200,000	0,007	0,063
-728,167	75,373	-0,057	-0,044
-727,152	-82,381	-0,155	0,036
-726,137	-58,861	-0,109	-0,034
-725,123	123,967	-0,068	-0,062
-724,108	21,589	-0,089	-0,052
-723,094	800,000	-0,091	-0,195
-722,079	-200,000	-0,004	-0,069
-721,064	-129,850	0,078	-0,008
-720,050	6,037	-0,042	0,023
-719,035	26,783	-0,056	-0,034
-718,021	-14,152	-0,085	0,040
-717,006	650,458	-0,032	-0,060
-715,991	-200,000	-0,023	-0,078
-714,977	800,000	-0,090	-0,213
-713,962	88,490	0,090	0,072
-712,948	245,014	-0,047	0,058
-711,933	-64,994	-0,074	-0,021
-710,918	11,369	-0,160	0,089
-709,904	83,767	-0,115	-0,091
-708,889	-42,461	-0,075	-0,027
-707,875	107,828	0,096	-0,083
-706,860	291,605	0,035	0,047
-705,845	462,866	-0,019	-0,031
-704,831	-65,398	-0,043	0,012
-703,816	-198,917	-0,147	-0,001
-702,802	33,730	0,072	-0,045
-701,787	763,391	0,063	-0,124
-700,772	-200,000	0,043	-0,175
-699,758	230,261	-0,064	-0,076
-698,743	-74,037	0,110	0,029
-697,729	-200,000	0,024	0,163
-696,714	-71,767	0,074	-0,020
-695,699	165,564	-0,040	-0,041
-694,685	-200,000	-0,000	-0,010
-693,670	-200,000	0,030	0,112
-692,656	-200,000	-0,007	0,129
-691,641	-200,000	-0,013	0,072
-690,627	93,520	0,124	-0,101
-689,612	115,607	-0,070	-0,062
-688,597	-200,000	0,011	0,037
-687,583	186,428	0,148	-0,160
-686,568	-56,351	-0,097	0,031
-685,554	800,000	0,051	-0,156
-684,539	-139,301	0,073	-0,006
-683,524	-200,000	-0,014	0,062
-682,510	449,439	0,036	0,057
-681,495	-142,334	-0,057	0,004
-680,481	-200,000	-0,018	-0,061
-679,466	-200,000	0,039	-0,160
-678,451	253,459	0,106	-0,131
-677,437	216,125	-0,098	0,113
-676,422	242,450	0,054	0,065
-675,408	-160,854	0,127	-0,005
-674,393	-107,643	0,049	0,008
-673,378	-200,000	-0,009	-0,104
-672,364	-200,000	0,040	0,134
-671,349	-200,000	0,025	-0,130
-670,335	706,782	0,039	0,075
-669,320	-75,936	0,106	-0,027
-668,305	-27,841	0,068	0,028
-667,291	800,000	-0,061	-0,134
-666,276	-200,000	0,020	0,072
-665,262	95,971	-0,126	-0,104
-664,247	-200,000	-0,006	-0,066
-663,232	29,919	0,055	0,034
-662,218	800,000	0,038	0,084
-661,203	-200,000	0,000	0,023
-660,189	-200,000	0,003	0,071
-659,174	584,422	0,050	0,089
-658,159	-5,009	0,018	0,009
-657,145	-44,258	0,047	-0,017
-656,130	-10,258	-0,052	-0,025
-655,116	151,226	0,003	-0,003
-654,101	433,210	-0,051	0,081
-653,086	-103,293	0,009	0,001
-652,072	800,000	-0,044	0,102
-651,057	751,796	-0,078	-0,153
-650,043	-200,000	-0,032	-0,148
-649,028	145,462	0,031	-0,030
-648,014	158,013	0,072	0,072
-646,999	-42,201	0,039	0,014
-645,984	720,381	0,035	-0,067
-644,970	-200,000	-0,020	0,145
-643,955	-31,220	-0,138	-0,056
-642,941	-44,668	0,145	-0,052
-641,926	108,237	-0,124	0,107
-640,911	-19,081	-0,154	0,069
-639,897	228,209	-0,053	0,062
-638,882	-15,671	0,051	-0,023
-637,868	-200,000	0,033	0,107
-636,853	-171,703	-0,157	0,004
-635,838	-200,000	-0,016	-0,130
-634,824	-153,910	0,081	-0,004
-633,809	432,626	0,045	-0,070
-632,795	-37,283	0,082	-0,031
-631,780	800,000	-0,017	-0,047
-630,765	-200,000	-0,021	-0,217
-629,751	-200,000	0,049	-0,175
-628,736	-71,113	-0,135	-0,036
-627,722	-23,091	0,057	-0,025
-626,707	-99,281	-0,106	0,019
-625,692	-200,000	-0,019	-0,070
-624,678	252,042	-0,057	0,070
-623,663	376,141	-0,026	0,039
-622,649	258,852	-0,035	-0,044
-621,634	693,791	-0,026	-0,049
-620,619	-200,000	0,012	0,049
-619,605	-200,000	-0,006	0,058
-618,590	-146,122	0,073	-0,005
-617,576	-200,000	0,012	0,074
-616,561	348,197	-0,089	-0,126
-615,546	-182,847	-0,063	0,001
-614,532	47,574	0,060	0,040
-613,517	-188,583	-0,129	0,001
-612,503	-200,000	0,013	0,080
-611,488	181,177	-0,040	-0,043
-610,474	-200,000	0,004	-0,061
-609,459	-200,000	-0,005	-0,052
-608,444	-50,260	-0,173	-0,059
-607,430	-10,510	-0,039	-0,019
-606,415	205,468	0,049	0,055
-605,401	800,000	0,062	0,174
-604,386	800,000	-0,062	-0,129
-603,371	-200,000	0,003	0,019
-602,357	-2,479	-0,083	-0,042
-601,342	800,000	-0,070	-0,196
-600,328	-37,415	-0,189	-0,072
-599,313	39,628	-0,100	-0,064
-598,298	-200,000	-0,047	-0,164
-597,284	94,016	0,057	-0,047
-596,269	26,456	-0,066	0,040
-595,255	-88,233	-0,101	0,022
-594,240	-19,372	-0,036	0,016
-593,225	800,000	0,010	0,028
-592,211	1,846	-0,118	-0,061
-591,196	11,996	0,049	0,027
-590,182	-167,383	0,125	0,004
-589,167	417,296	0,020	-0,031
-588,152	579,971	0,058	-0,103
-587,138	31,271	-0,154	0,095
-586,123	506,093	-0,071	0,120
-585,109	184,676	-0,047	-0,050
-584,094	296,091	0,068	-0,090
-583,079	800,000	0,053	0,120
-582,065	8,646	0,139	0,075
-581,050	-200,000	-0,020	-0,115
-580,036	-87,003	-0,060	-0,013
-579,021	-200,000	-0,006	-0,037
-578,006	181,902	0,058	0,062
-576,992	-41,458	0,084	0,031
-575,977	-5,776	0,071	-0,035
-574,963	-200,000	-0,008	0,154
-573,948	800,000	0,038	-0,108
-572,934	158,976	-0,051	0,051
-571,919	-65,849	-0,037	-0,011
-570,904	-200,000	0,001	-0,031
-569,890	-168,779	-0,037	-0,001
-568,875	-5,255	-0,122	-0,060
-567,861	-200,000	-0,046	0,179
-566,846	316,940	0,091	0,124
-565,831	-200,000	-0,014	0,123
-564,817	-200,000	-0,012	-0,156
-563,802	-200,000	0,019	-0,214
-562,788	200,832	0,041	-0,046
-561,773	-200,000	-0,015	0,096
-560,758	-65,069	0,042	-0,012
-559,744	122,473	-0,068	0,062
-558,729	-67,193	-0,173	0,049
-557,715	451,453	0,116	-0,185
-556,700	-23,476	-0,111	-0,048
-555,685	43,016	-0,040	-0,026
-554,671	-101,101	0,151	0,026
-553,656	257,487	0,103	0,127
-552,642	-200,000	0,025	0,201
-551,627	244,421	-0,032	0,039
-550,612	-86,705	0,064	0,014
-549,598	-147,017	-0,048	0,003
-548,583	-38,766	0,019	0,007
-547,569	-119,205	-0,079	-0,010
-546,554	550,784	0,059	0,103
-545,539	20,449	-0,107	-0,062
-544,525	632,818	0,036	-0,065
-543,510	800,000	-0,066	-0,139
-542,496	178,774	-0,029	-0,030
-541,481	-101,041	-0,149	-0,026
-540,466	-200,000	0,005	0,100
-539,452	78,170	0,091	0,070
-538,437	-200,000	-0,010	-0,035
-537,423	-91,258	0,097	0,020
-536,408	-100,430	-0,203	0,036
-535,393	-200,000	0,010	0,095
-534,379	106,460	-0,107	-0,091
-533,364	77,593	-0,075	-0,057
-532,350	-33,955	0,019	0,007
-531,335	-200,000	0,021	0,082
-530,321	-76,904	-0,007	0,002
-529,306	417,309	-0,021	-0,032
-528,291	76,177	-0,130	-0,099
-527,277	-200,000	-0,007	-0,032
-526,262	800,000	-0,015	0,040
-525,248	-118,708	0,173	-0,022
-524,233	411,283	0,092	0,140
-523,218	-200,000	-0,006	0,125
-522,204	-114,129	-0,073	-0,010
-521,189	128,365	0,004	-0,004
-520,175	800,000	0,040	-0,083
-519,160	-200,000	0,031	-0,157
-518,145	-91,945	0,081	-0,016
-517,131	-200,000	0,059	0,213
-516,116	228,073	0,061	0,071
-515,102	-200,000	0,001	0,031
-514,087	-67,048	-0,068	0,019
-513,072	-200,000	-0,011	-0,095
-512,058	800,000	0,024	0,069
-511,043	800,000	0,022	-0,049
-510,029	-200,000	0,030	-0,146
-509,014	-111,485	0,140	-0,020
-507,999	209,107	0,053	0,060
-506,985	86,980	0,102	0,081
-505,970	-49,267	0,180	-0,061
-504,956	24,208	-0,060	0,035
-503,941	-200,000	-0,028	0,113
-502,926	129,921	0,137	0,126
-501,912	-200,000	0,017	0,113
-500,897	-125,922	0,033	-0,003
-499,883	18,399	-0,019	0,011
-498,868	187,640	-0,006	-0,006
-497,853	-200,000	0,014	-0,136
-496,839	-133,257	0,111	-0,010
-495,824	-200,000	0,002	-0,048
-494,810	112,697	0,083	-0,072
-493,795	-99,428	-0,032	-0,006
-492,781	-140,323	-0,073	-0,005
-491,766	-13,960	-0,096	-0,044
-490,751	142,344	0,086	-0,082
-489,737	-127,707	0,039	0,004
-488,722	86,523	0,070	-0,055
-487,708	355,015	-0,047	0,068
-486,693	-124,659	-0,061	-0,007
-485,678	-200,000	-0,002	-0,081
-484,664	-109,410	0,123	-0,018
-483,649	800,000	-0,021	-0,060
-482,635	-17,302	-0,039	-0,018
-481,620	560,237	0,039	-0,069
-480,605	800,000	-0,047	0,107
-479,591	39,396	0,034	-0,022
-478,576	80,035	0,077	-0,059
-477,562	-200,000	-0,010	0,103
-476,547	-81,974	-0,059	0,014
-475,532	-146,369	-0,055	-0,003
-474,518	384,915	-0,075	-0,112
-473,503	265,709	-0,136	0,170
-472,489	-200,000	-0,023	0,139
-471,474	-133,444	-0,136	-0,012
-470,459	26,912	-0,135	-0,081
-469,445	-200,000	0,123	-0,000
-468,430	-200,000	-0,013	0,050
-467,416	-151,527	0,113	-0,006
-466,401	27,642	0,090	-0,054
-465,386	-200,000	-0,002	-0,110
-464,372	-200,000	0,019	-0,093
-463,357	-200,000	-0,024	-0,079
-462,343	540,582	-0,101	-0,174
-461,328	-200,000	0,022	0,080
-460,313	-0,097	0,042	-0,022
-459,299	-143,322	0,104	0,007
-458,284	13,734	-0,086	-0,048
-457,270	-200,000	0,009	-0,071
-456,255	-65,110	-0,141	0,041
-455,241	800,000	0,022	0,064
-454,226	471,361	-0,075	-0,121
-453,211	-126,738	0,187	0,020
-452,197	-200,000	-0,009	0,052
-451,182	4,074	-0,104	-0,054
-450,168	-200,000	-0,000	-0,006
-449,153	81,547	0,076	-0,059
-448,138	174,792	-0,062	-0,065
-447,124	-63,547	-0,122	0,036
-446,109	-143,125	0,063	0,004
-445,095	644,475	0,027	-0,049
-444,080	-200,000	-0,000	0,083
-443,065	393,089	-0,094	0,140
-442,051	130,806	-0,062	-0,057
-441,036	107,029	-0,073	-0,062
-440,022	195,843	-0,083	0,090
-439,007	-102,034	-0,012	-0,002
-437,992	-74,515	0,155	0,040
-436,978	800,000	0,016	0,032
-435,963	-200,000	0,042	0,136
-434,949	397,075	0,043	0,065
-433,934	-28,793	-0,086	-0,035
-432,919	139,716	0,086	-0,081
-431,905	-29,263	-0,097	0,040
-430,890	225,762	0,081	0,094
-429,876	103,018	0,083	-0,069
-428,861	768,663	0,015	-0,029
-427,846	-200,000	0,008	-0,092
-426,832	95,741	-0,030	-0,024
-425,817	701,187	0,045	0,086
-424,803	-33,322	-0,032	0,013
-423,788	-83,168	0,083	-0,019
-422,773	61,729	0,089	0,063
-421,759	218,259	0,043	0,050
-420,744	-200,000	0,011	0,151
-419,730	30,157	-0,055	0,033
-418,715	62,870	0,024	0,017
-417,701	-113,303	-0,028	-0,004
-416,686	272,169	-0,027	0,034
-415,671	800,000	0,005	-0,014
-414,657	-200,000	0,015	-0,089
-413,642	-200,000	0,011	0,071
-412,628	-10,385	0,078	0,037
-411,613	74,842	-0,106	0,080
-410,598	507,907	-0,084	-0,139
-409,584	31,187	0,117	-0,072
-408,569	48,371	-0,084	0,056
-407,555	-200,000	0,008	0,107
-406,540	-19,049	-0,079	0,035
-405,525	408,529	0,043	0,065
-404,511	569,240	-0,068	-0,120
-403,496	95,217	0,030	0,025
-402,482	-200,000	-0,009	-0,061
-401,467	253,066	0,067	0,082
-400,452	-200,000	-0,024	0,125
-399,438	-93,298	-0,062	-0,012
-398,423	-24,687	-0,157	0,067
-397,409	-81,921	0,020	0,005
-396,394	-5,105	0,106	-0,052
-395,379	-148,511	0,105	0,006
-394,365	-200,000	-0,011	0,053
-393,350	800,000	-0,024	0,072
-392,336	-100,255	-0,058	-0,010
-391,321	-200,000	0,002	-0,020
-390,306	-138,365	-0,014	0,001
-389,292	-1,578	-0,080	0,040
-388,277	-25,154	0,032	-0,014
-387,263	-16,977	-0,066	-0,030
-386,248	166,210	-0,073	-0,073
-385,233	-200,000	0,013	-0,126
-384,219	-67,372	-0,109	0,030
-383,204	507,486	-0,019	-0,031
-382,190	746,836	-0,034	-0,066
-381,175	800,000	-0,014	-0,033
-380,160	800,000	-0,038	0,098
-379,146	-200,000	-0,016	0,117
-378,131	-40,819	0,098	-0,036
-377,117	28,646	0,133	0,080
-376,102	800,000	-0,054	-0,156
-375,088	203,214	-0,032	-0,036
-374,073	800,000	-0,030	-0,085
-373,058	800,000	0,043	0,120
-372,044	-200,000	-0,030	-0,101
-371,029	6,314	-0,055	-0,029
-370,015	8,889	0,013	-0,007
-369,000	-102,842	-0,069	-0,012
-367,985	-200,000	-0,003	0,060
-366,971	-9,963	-0,107	-0,050
-365,956	382,915	0,047	0,069
-364,942	-200,000	-0,013	0,072
-363,927	-51,243	0,129	0,043
-362,912	800,000	0,070	-0,155
-361,898	116,318	-0,128	0,112
-360,883	92,527	0,087	-0,070
-359,869	-10,356	-0,109	0,051
-358,854	97,645	0,179	0,147
-357,839	283,207	-0,057	0,074
-356,825	-119,613	-0,056	0,007
-355,810	584,119	-0,053	0,094
-354,796	-200,000	0,006	-0,112
-353,781	148,624	0,092	0,089
-352,766	-87,541	0,131	-0,028
-351,752	81,827	0,084	-0,065
-350,737	97,053	-0,067	0,055
-349,723	-194,674	0,087	0,000
-348,708	-98,919	-0,156	0,028
-347,693	35,043	0,033	0,021
-346,679	-200,000	-0,015	-0,154
-345,664	224,201	0,009	-0,011
-344,650	96,927	0,096	-0,078
-343,635	163,599	0,120	0,121
-342,620	0,635	0,098	0,050
-341,606	-70,254	0,081	0,022
-340,591	-200,000	-0,066	0,000
-339,577	747,425	-0,055	-0,106
-338,562	162,809	-0,041	-0,041
-337,548	-200,000	0,005	-0,115
-336,533	476,294	-0,009	-0,014
-335,518	800,000	0,042	0,125
-334,504	237,444	0,023	0,027
-333,489	-200,000	0,039	0,145
-332,475	800,000	-0,028	0,085
-331,460	-123,092	-0,078	0,009
-330,445	-102,095	0,089	0,015
-329,431	21,356	0,103	0,060
-328,416	-200,000	-0,011	0,078
-327,402	-40,425	-0,096	-0,035
-326,387	102,448	0,043	0,036
-325,372	84,708	-0,053	-0,041
-324,358	-200,000	0,006	-0,131
-323,343	-200,000	-0,002	-0,015
-322,329	193,880	-0,126	-0,137
-321,314	178,138	0,064	-0,066
-320,299	-200,000	-0,028	0,139
-319,285	800,000	0,054	-0,120
-318,270	26,401	0,124	-0,074
-317,256	-200,000	-0,009	0,094
-316,241	-200,000	0,001	0,002
-315,226	42,108	0,035	0,023
-314,212	-42,151	0,021	-0,008
-313,197	-86,669	-0,044	-0,009
-312,183	-200,000	0,011	0,158
-311,168	-157,251	-0,067	0,003
-310,153	-6,892	-0,046	0,022
-309,139	276,127	-0,031	-0,039
-308,124	-104,244	-0,081	-0,013
-307,110	-86,241	0,164	0,036
-306,095	42,423	-0,078	0,051
-305,080	800,000	0,022	-0,056
-304,066	16,116	-0,051	0,029
-303,051	800,000	-0,047	-0,095
-302,037	297,817	-0,049	-0,064
-301,022	-200,000	-0,014	0,072
-300,008	-200,000	0,027	-0,093
-298,993	391,036	0,106	0,158
-297,978	90,889	-0,015	-0,012
-296,964	114,871	-0,071	0,062
-295,949	-84,416	-0,082	0,018
-294,935	-93,278	0,061	-0,012
-293,920	800,000	0,008	-0,023
-292,905	280,722	0,056	0,071
-291,891	128,515	0,073	0,066
-290,876	488,937	0,052	0,084
-289,862	-200,000	0,001	0,043
-288,847	-200,000	0,035	-0,130
-287,832	-200,000	-0,015	-0,077
-286,818	59,259	0,065	0,046
-285,803	-200,000	-0,006	0,045
-284,789	588,412	0,078	0,138
-283,774	247,881	-0,052	0,062
-282,759	-34,652	-0,048	-0,019
-281,745	16,847	-0,121	0,068
-280,730	800,000	-0,072	-0,145
-279,716	-200,000	-0,048	-0,198
-278,701	687,900	0,087	-0,162
-277,686	5,913	0,125	-0,066
-276,672	2,792	0,044	-0,023
-275,657	155,780	0,020	-0,020
-274,643	800,000	-0,047	-0,105
-273,628	800,000	-0,067	-0,177
-272,613	-87,980	-0,051	-0,011
-271,599	4,197	0,050	0,026
-270,584	-167,435	0,076	-0,002
-269,570	185,297	0,033	-0,035
-268,555	251,391	0,046	0,056
-267,540	-74,104	0,089	-0,023
-266,526	73,255	-0,176	-0,131
-265,511	-200,000	0,025	0,201
-264,497	-200,000	0,014	-0,167
-263,482	-200,000	-0,000	-0,111
-262,467	-200,000	-0,001	0,042
-261,453	800,000	0,044	0,118
-260,438	246,571	0,030	0,036
-259,424	-73,587	0,053	0,014
-258,409	212,390	0,025	-0,028
-257,395	-152,882	0,091	0,005
-256,380	-85,177	0,131	0,029
-255,365	42,716	-0,066	0,043
-254,351	-113,817	-0,101	-0,014
-253,336	-151,196	-0,078	0,004
-252,322	-200,000	-0,016	-0,052
-251,307	-200,000	-0,024	-0,145
-250,292	-169,592	0,032	-0,001
-249,278	434,202	-0,027	0,041
-248,263	274,733	-0,060	-0,075
-247,249	-20,771	-0,020	0,009
-246,234	-57,419	-0,023	0,007
-245,219	-200,000	0,011	0,076
-244,205	51,499	-0,087	0,059
-243,190	-24,917	0,090	0,038
-242,176	-7,774	0,072	-0,035
-241,161	-124,052	0,039	0,004
-240,146	-200,000	0,010	0,131
-239,132	-48,742	0,048	-0,016
-238,117	192,068	-0,035	-0,038
-237,103	-200,000	0,002	-0,021
-236,088	-101,283	-0,113	0,019
-235,073	-47,335	-0,078	0,027
-234,059	-140,499	0,118	-0,009
-233,044	-200,000	-0,014	0,124
-232,030	91,397	0,081	-0,065
-231,015	-73,967	-0,158	-0,041
-230,000	751,808	0,025	-0,048
-228,986	27,815	-0,099	-0,059
-227,971	-200,000	-0,016	-0,052
-226,957	-88,622	0,110	-0,023
-225,942	-200,000	0,004	0,066
-224,927	185,308	0,074	0,078
-223,913	-200,000	-0,007	0,072
-222,898	-200,000	-0,006	-0,057
-221,884	-200,000	0,022	-0,087
-220,869	-200,000	0,008	0,233
-219,855	-200,000	-0,044	0,168
-218,840	-200,000	-0,014	0,092
-217,825	-166,933	0,078	-0,002
-216,811	25,735	0,020	0,012
-215,796	31,082	-0,104	0,063
-214,782	-98,398	0,110	0,020
-213,767	19,622	0,053	-0,030
-212,752	541,411	0,033	-0,057
-211,738	714,747	0,025	0,047
-210,723	320,747	0,019	-0,026
-209,709	553,928	-0,037	-0,064
-208,694	23,074	-0,075	0,044
-207,679	244,655	-0,029	-0,034
-206,665	112,807	0,075	-0,064
-205,650	-88,413	0,153	0,032
-204,636	243,141	-0,048	-0,058
-203,621	-88,178	-0,042	-0,009
-202,606	563,560	0,044	-0,075
-201,592	653,791	-0,014	-0,025
-200,577	-102,662	-0,018	-0,003
-199,563	-200,000	0,012	0,111
-198,548	-200,000	-0,069	0,236
-197,533	-55,356	-0,008	0,002
-196,519	391,741	0,039	-0,058
-195,504	20,259	-0,080	-0,046
-194,490	85,852	-0,046	0,036
-193,475	184,849	0,039	-0,041
-192,460	-130,785	-0,062	0,006
-191,446	146,174	0,063	0,060
-190,431	-200,000	0,048	0,176
-189,417	-44,803	0,118	-0,041
-188,402	-13,519	-0,056	0,026
-187,387	-200,000	-0,004	-0,068
-186,373	-200,000	-0,035	-0,131
-185,358	-200,000	0,010	-0,138
-184,344	92,733	0,072	-0,057
-183,329	-200,000	-0,005	-0,023
-182,315	197,141	0,042	-0,046
-181,300	155,368	0,018	0,017
-180,285	81,092	0,117	-0,090
-179,271	-200,000	0,012	-0,043
-178,256	800,000	-0,011	0,031
-177,242	253,889	0,100	-0,121
-176,227	233,655	0,129	0,151
-175,212	-33,771	-0,139	0,054
-174,198	-200,000	0,020	-0,070
-173,183	800,000	-0,027	-0,065
-172,169	800,000	0,046	0,097
-171,154	-134,165	-0,059	0,005
-170,139	144,084	0,074	0,070
-169,125	521,587	0,059	0,099
-168,110	56,021	0,097	0,066
-167,096	-200,000	0,047	0,174
-166,081	800,000	-0,019	-0,053
-165,066	-74,289	-0,081	-0,021
-164,052	411,034	-0,029	-0,044
-163,037	172,775	0,006	0,006
-162,023	108,043	-0,067	-0,057
-161,008	148,524	0,030	-0,028
-159,993	-200,000	-0,008	-0,110
-158,979	800,000	-0,062	-0,139
-157,964	-92,435	-0,097	-0,019
-156,950	-99,998	0,181	-0,032
-155,935	313,115	-0,050	0,067
-154,920	110,144	0,069	0,059
-153,906	217,419	0,108	0,122
-152,891	800,000	0,034	0,097
-151,877	212,391	0,106	-0,119
-150,862	-200,000	-0,003	-0,012
-149,847	-200,000	0,010	0,110
-148,833	139,606	0,042	0,039
-147,818	67,704	0,035	0,025
-146,804	-1,126	0,076	0,038
-145,789	-200,000	0,028	0,110
-144,775	-200,000	0,006	-0,023
-143,760	-116,019	-0,132	0,017
-142,745	-157,623	-0,046	-0,002
-141,731	-28,033	-0,114	0,046
-140,716	-200,000	0,008	0,080
-139,702	98,195	-0,023	-0,019
-138,687	-49,092	-0,043	-0,014
-137,672	89,775	-0,066	-0,052
-136,658	26,323	-0,086	-0,051
-135,643	243,640	-0,100	-0,119
-134,629	800,000	-0,023	-0,058
-133,614	278,065	0,060	0,076
-132,599	-111,019	0,027	0,004
-131,585	-71,682	0,089	-0,023
-130,570	800,000	-0,034	0,068
-129,556	-200,000	0,014	-0,098
-128,541	800,000	0,048	-0,129
-127,526	-87,457	0,141	-0,030
-126,512	631,820	-0,031	0,056
-125,497	-200,000	0,020	0,070
-124,483	-200,000	-0,021	0,147
-123,468	166,606	-0,069	0,070
-122,453	-86,093	-0,094	-0,020
-121,439	490,965	-0,039	-0,063
-120,424	-67,772	-0,120	-0,033
-119,410	800,000	0,037	0,076
-118,395	97,942	0,139	-0,113
-117,380	800,000	-0,063	-0,154
-116,366	-200,000	0,003	0,128
-115,351	139,073	-0,087	-0,081
-114,337	-40,072	-0,091	-0,033
-113,322	44,750	0,058	-0,037
-112,307	-200,000	-0,002	0,024
-111,293	674,910	-0,042	0,078
-110,278	12,439	0,184	0,100
-109,264	545,248	0,028	0,047
-108,249	726,237	0,066	-0,126
-107,234	552,647	-0,081	0,139
-106,220	-95,244	-0,086	0,016
-105,205	201,305	0,078	-0,084
-104,191	277,153	-0,069	-0,087
-103,176	800,000	-0,048	0,095
-102,162	354,775	0,054	0,076
-101,147	312,703	-0,032	0,043
-100,132	800,000	-0,055	-0,159
-99,118	200,913	-0,007	-0,008
-98,103	800,000	0,008	-0,022
-97,089	-200,000	-0,035	0,152
-96,074	49,386	-0,104	0,069
-95,059	-200,000	0,007	0,050
-94,045	25,103	-0,089	-0,052
-93,030	-122,088	-0,121	-0,014
-92,016	-200,000	0,029	-0,120
-91,001	-200,000	0,107	-0,000
-89,986	-9,338	0,116	-0,055
-88,972	84,566	0,164	0,127
-87,957	189,816	0,032	-0,034
-86,943	436,282	-0,004	0,007
-85,928	81,362	-0,048	-0,037
-84,913	-200,000	0,002	-0,007
-83,899	35,524	-0,124	-0,077
-82,884	49,578	0,119	-0,079
-81,870	-200,000	0,010	-0,053
-80,855	-42,709	0,085	-0,030
-79,840	763,017	0,047	0,090
-78,826	-176,822	-0,168	-0,003
-77,811	322,065	0,037	-0,050
-76,797	-200,000	-0,007	0,068
-75,782	30,845	0,143	0,086
-74,767	-34,272	0,120	0,046
-73,753	-30,335	-0,096	0,038
-72,738	-79,927	-0,067	0,016
-71,724	311,159	-0,103	-0,136
-70,709	-38,801	-0,159	-0,059
-69,694	45,437	0,228	0,148
-68,680	-123,187	-0,178	0,020
-67,665	-200,000	0,039	0,141
-66,651	-99,185	0,084	0,015
-65,636	-131,285	0,050	-0,005
-64,622	105,102	-0,039	-0,033
-63,607	77,051	-0,085	0,064
-62,592	-200,000	-0,002	0,050
-61,578	-200,000	0,001	-0,058
-60,563	-200,000	0,025	-0,079
-59,549	-200,000	0,010	0,148
-58,534	59,876	-2,291	-1,595
-57,519	580,043	-1,092	-1,895
-56,505	-200,000	-0,260	-4,385
-55,490	800,000	0,847	1,868
-54,476	800,000	5,115	11,244
-53,461	-200,000	22,961	351,220
-52,446	800,000	759,062	2279,760
-51,432	522,879	1637,679	2724,628
-50,417	72,136	1532,147	1124,175
-49,403	24,291	976,758	567,946
-48,388	12,932	610,173	331,905
-47,373	37,734	567,341	354,689
-46,359	21,111	551,402	314,818
-45,344	7,591	546,930	287,757
-44,330	7,325	545,138	286,320
-43,315	7,145	544,017	285,392
-42,300	7,159	543,102	284,927
-41,286	7,248	542,180	284,592
-40,271	7,180	541,609	284,158
-39,257	7,198	540,973	283,846
-38,242	7,282	540,228	283,595
-37,227	7,283	539,551	283,230
-36,213	7,182	539,040	282,770
-35,198	7,219	538,263	282,417
-34,184	7,415	537,960	282,598
-33,169	7,137	537,385	281,788
-32,154	7,417	536,829	281,985
-31,140	7,396	535,849	281,422
-30,125	7,410	535,399	281,200
-29,111	7,363	534,866	280,826
-28,096	7,306	534,650	280,599
-27,082	7,244	533,996	280,134
-26,067	7,367	533,611	280,140
-25,052	7,298	533,275	279,829
-24,038	7,178	533,061	279,494
-23,023	7,267	532,323	279,252
-22,009	7,308	531,994	279,142
-20,994	7,282	531,402	278,774
-19,979	7,217	531,060	278,469
-18,965	7,218	530,566	278,200
-17,950	7,324	530,272	278,222
-16,936	7,248	529,798	277,828
-15,921	7,221	529,430	277,577
-14,906	7,143	528,995	277,199
-13,892	7,345	528,504	277,287
-12,877	7,168	528,091	276,748
-11,863	7,186	527,956	276,699
-10,848	7,160	527,747	276,532
-9,833	7,275	527,222	276,448
-8,819	7,294	526,653	276,172
-7,804	7,261	526,145	275,837
-6,790	7,131	525,825	275,431
-5,775	7,331	525,382	275,538
-4,760	7,173	524,981	275,040
-3,746	7,278	524,814	275,125
-2,731	7,073	524,481	274,582
-1,717	6,983	524,582	274,467
-0,702	7,041	523,548	274,015
0,313	8,232	512,526	270,687
1,327	13,352	441,208	240,504
2,342	20,346	315,689	179,363
3,356	13,430	170,700	93,077
4,371	-14,967	116,081	52,255
5,386	-17,448	109,287	48,278
6,400	-17,442	107,069	47,296
7,415	-16,961	105,967	46,977
8,429	-17,894	105,257	46,327
9,444	-18,072	104,762	46,042
10,459	-17,554	104,448	46,083
11,473	-17,776	104,201	45,891
12,488	-17,959	104,148	45,800
13,502	-18,528	103,799	45,443
14,517	-18,494	103,717	45,415
15,531	-18,233	103,284	45,312
16,546	-18,123	103,284	45,346
17,561	-18,396	103,056	45,147
18,575	-17,899	103,023	45,301
19,590	-17,686	102,807	45,276
20,604	-17,353	102,602	45,297
21,619	-17,796	102,487	45,089
22,634	-18,014	102,321	44,937
23,648	-17,712	101,970	44,882
24,663	-17,925	102,028	44,831
25,677	-17,905	101,918	44,785
26,692	-17,937	101,815	44,725
27,707	-17,621	101,581	44,726
28,721	-17,956	101,634	44,631
29,736	-18,417	101,561	44,438
30,750	-17,924	101,252	44,466
31,765	-18,489	101,207	44,250
32,780	-18,353	101,268	44,320
33,794	-18,301	101,146	44,280
34,809	-17,852	100,956	44,345
35,823	-17,931	100,880	44,281
36,838	-18,021	100,733	44,182
37,853	-18,192	100,623	44,072
38,867	-17,984	100,437	44,057
39,882	-17,843	100,441	44,102
40,896	-17,793	100,349	44,074
41,911	-17,989	100,300	43,983
42,926	-17,816	100,059	43,932
43,940	-18,148	100,041	43,808
44,955	-17,617	99,886	43,915
45,969	-18,257	99,834	43,673
46,984	-17,897	99,699	43,731
47,999	-17,772	99,657	43,750
49,013	-18,012	99,676	43,675
50,028	-17,700	99,587	43,736
51,042	-18,015	99,427	43,557
52,057	-18,058	99,274	43,471
53,071	-17,727	99,185	43,539
54,086	-18,068	99,101	43,384
55,101	-18,096	99,046	43,347
56,115	-17,600	98,906	43,447
57,130	-18,209	98,889	43,233
58,144	-18,189	98,830	43,210
59,159	-18,020	98,585	43,155
60,174	-18,043	98,517	43,114
61,188	-17,963	98,447	43,106
62,203	-17,564	98,279	43,160
63,217	-17,809	98,389	43,124
64,232	-17,918	98,123	42,967
65,247	-17,845	98,085	42,971
66,261	-17,947	97,871	42,840
67,276	-18,219	97,869	42,746
68,290	-18,394	97,796	42,653
69,305	-17,581	97,760	42,900
70,320	-17,987	97,769	42,767
71,334	-18,079	97,480	42,606
72,349	-17,566	97,356	42,716
73,363	-17,846	97,254	42,576
74,378	-18,003	97,207	42,501
75,393	-17,795	97,129	42,531
76,407	-17,623	97,103	42,571
77,422	-18,111	97,008	42,367
78,436	-17,667	96,745	42,393
79,451	-17,973	96,849	42,335
80,466	-17,719	96,658	42,330
81,480	-17,954	96,556	42,206
82,495	-17,558	96,501	42,306
83,509	-17,911	96,386	42,138
84,524	-18,085	96,448	42,105
85,539	-17,782	96,228	42,103
86,553	-18,082	96,380	42,068
87,568	-17,795	96,173	42,067
88,582	-17,899	95,940	41,928
89,597	-17,846	96,015	41,974
90,611	-17,960	95,945	41,903
91,626	-17,954	95,706	41,796
92,641	-17,990	95,679	41,770
93,655	-18,039	95,626	41,727
94,670	-17,949	95,591	41,737
95,684	-17,536	95,387	41,776
96,699	-18,242	95,410	41,557
97,714	-17,838	95,339	41,651
98,728	-17,790	95,357	41,671
99,743	-17,945	95,323	41,603
100,757	-17,796	95,055	41,529
101,772	-18,068	94,918	41,379
102,787	-17,686	95,019	41,541
103,801	-18,049	94,734	41,298
104,816	-17,883	94,783	41,368
105,830	-17,295	94,609	41,475
106,845	-17,890	94,632	41,293
107,860	-18,026	94,541	41,206
108,874	-17,975	94,444	41,176
109,889	-17,817	94,220	41,125
110,903	-18,099	94,293	41,064
111,918	-17,718	94,179	41,130
112,933	-18,062	94,154	41,008
113,947	-17,793	94,113	41,071
114,962	-17,815	94,041	41,029
115,976	-17,400	93,738	41,023
116,991	-17,921	93,757	40,865
118,006	-17,606	93,564	40,875
119,020	-17,158	93,544	41,003
120,035	-17,687	93,754	40,925
121,049	-17,847	93,489	40,757
122,064	-17,610	93,487	40,826
123,079	-17,079	93,395	40,947
124,093	-17,467	93,205	40,740
125,108	-17,930	93,262	40,617
126,122	-17,602	93,146	40,665
127,137	-17,725	93,014	40,565
128,151	-17,943	93,163	40,559
129,166	-17,804	92,999	40,527
130,181	-17,940	92,912	40,444
131,195	-18,103	92,800	40,341
132,210	-17,429	92,684	40,495
133,224	-17,810	92,473	40,281
134,239	-17,698	92,499	40,324
135,254	-17,779	92,480	40,287
136,268	-18,222	92,327	40,081
137,283	-17,558	92,438	40,330
138,297	-17,673	92,210	40,192
139,312	-17,928	92,193	40,102
140,327	-17,484	92,100	40,194
141,341	-17,471	91,863	40,091
142,356	-17,308	91,901	40,154
143,370	-16,958	92,102	40,346
144,385	-10,703	92,712	42,540
145,400	-4,191	93,626	44,980
146,414	-1,876	93,789	45,773
147,429	-1,293	93,720	45,916
148,443	-1,287	93,689	45,899
149,458	-1,294	93,886	45,989
150,473	-1,005	93,559	45,914
151,487	-0,927	93,610	45,960
152,502	-0,904	93,463	45,890
153,516	-0,613	93,515	46,002
154,531	-0,656	93,386	45,921
155,546	-0,742	93,357	45,876
156,560	-0,742	93,232	45,810
157,575	-0,440	93,270	45,918
158,589	-0,761	93,050	45,707
159,604	-0,596	93,038	45,748
160,619	-0,565	92,913	45,692
161,633	-0,165	92,856	45,782
162,648	-1,195	93,033	45,549
163,662	0,330	92,758	45,877
164,677	-0,513	92,744	45,608
165,692	-0,606	92,796	45,601
166,706	-0,293	92,681	45,637
167,721	-0,167	92,406	45,536
168,735	0,086	92,435	45,623
169,750	-0,208	92,481	45,552
170,764	-0,130	92,421	45,542
171,779	-0,154	92,383	45,512
172,794	-0,008	92,221	45,472
173,808	0,187	92,260	45,547
174,823	-0,298	92,072	45,303
175,837	-0,726	92,144	45,204
176,852	0,245	91,881	45,365
177,867	0,053	91,859	45,292
178,881	-0,058	91,921	45,285
179,896	-0,089	91,864	45,244
180,910	-0,353	91,677	45,067
181,925	-0,095	91,660	45,133
182,940	0,028	91,497	45,086
183,954	-0,388	91,542	44,978
184,969	0,089	91,454	45,075
185,983	0,300	91,375	45,095
186,998	0,157	91,274	44,999
188,013	-0,242	91,314	44,895
189,027	-0,405	91,179	44,775
190,042	-0,186	91,229	44,861
191,056	0,106	90,989	44,827
192,071	0,101	91,142	44,897
193,086	-0,095	90,905	44,717
194,100	-0,307	90,867	44,632
195,115	0,364	90,775	44,783
196,129	0,132	90,654	44,650
197,144	0,180	90,626	44,646
198,159	0,261	90,578	44,643
199,173	0,332	90,509	44,626
200,188	-0,355	90,495	44,411
201,202	-0,265	90,537	44,454
202,217	-0,019	90,462	44,486
203,232	0,289	90,321	44,505
204,246	-0,342	90,243	44,275
205,261	-0,410	90,203	44,231
206,275	-0,151	90,189	44,297
207,290	0,121	90,052	44,307
208,304	0,222	90,147	44,379
209,319	0,453	89,885	44,315
210,334	0,166	89,950	44,258
211,348	0,522	89,713	44,242
212,363	-0,503	89,733	43,946
213,377	0,356	89,554	44,107
214,392	0,002	89,591	44,018
215,407	0,242	89,513	44,045
216,421	0,524	89,489	44,113
217,436	0,454	89,328	44,009
218,450	0,233	89,232	43,893
219,465	-0,145	89,279	43,801
220,480	0,415	89,238	43,941
221,494	-0,045	89,294	43,830
222,509	0,283	89,032	43,793
223,523	0,269	89,018	43,778
224,538	0,753	88,977	43,896
225,553	0,022	89,006	43,693
226,567	0,249	88,783	43,646
227,582	0,204	88,730	43,602
228,596	0,402	88,748	43,665
229,611	0,775	88,590	43,692
230,626	0,057	88,745	43,555
231,640	0,009	88,635	43,484
232,655	-0,173	88,386	43,305
233,669	-0,042	88,344	43,318
234,684	-0,063	88,362	43,317
235,699	0,233	88,268	43,353
236,713	0,140	88,313	43,345
237,728	0,749	88,169	43,446
238,742	0,897	88,152	43,477
239,757	0,630	88,075	43,357
240,772	1,047	88,019	43,446
241,786	0,312	87,995	43,218
242,801	0,586	87,917	43,255
243,815	0,959	87,840	43,321
244,830	0,732	87,794	43,229
245,844	0,984	87,679	43,241
246,859	0,444	87,650	43,068
247,874	0,030	87,677	42,958
248,888	0,807	87,613	43,146
249,903	0,345	87,611	43,009
250,917	0,394	87,520	42,974
251,932	1,070	87,317	43,064
252,947	0,579	87,402	42,961
253,961	0,370	87,278	42,837
254,976	0,352	87,202	42,791
255,990	0,634	87,120	42,827
257,005	0,884	87,193	42,931
258,020	0,644	87,065	42,795
259,034	0,494	87,067	42,750
260,049	0,739	86,857	42,712
261,063	0,603	86,806	42,645
262,078	0,654	86,878	42,691
263,093	0,520	86,817	42,619
264,107	0,715	86,681	42,604
265,122	0,684	86,706	42,603
266,136	0,734	86,514	42,520
267,151	0,292	86,507	42,387
268,166	0,714	86,456	42,478
269,180	0,704	86,457	42,472
270,195	0,669	86,450	42,455
271,209	0,614	86,262	42,343
272,224	1,172	86,140	42,436
273,239	1,168	86,164	42,443
274,253	1,181	86,166	42,444
275,268	1,240	85,960	42,355
276,282	0,491	86,103	42,211
277,297	1,127	85,967	42,319
278,312	1,053	85,740	42,183
279,326	0,842	85,790	42,145
280,341	1,004	85,763	42,173
281,355	0,818	85,788	42,130
282,370	0,966	85,725	42,137
283,384	1,031	85,659	42,119
284,399	0,661	85,577	41,971
285,414	1,534	85,453	42,150
286,428	0,759	85,499	41,953
287,443	1,295	85,461	42,080
288,457	0,987	85,406	41,963
289,472	1,448	85,220	41,996
290,487	0,842	85,278	41,852
291,501	1,732	85,233	42,074
292,516	0,997	85,197	41,848
293,530	0,993	85,048	41,770
294,545	0,700	85,062	41,692
295,560	1,178	85,026	41,803
296,574	0,905	84,941	41,682
297,589	0,437	84,788	41,474
298,603	1,138	84,865	41,702
299,618	1,015	84,784	41,625
300,633	0,719	84,656	41,476
301,647	1,454	84,471	41,584
302,662	1,317	84,517	41,566
303,676	0,876	84,598	41,480
304,691	0,747	84,473	41,379
305,706	0,887	84,429	41,393
306,720	1,309	84,266	41,425
307,735	1,121	84,282	41,378
308,749	1,384	84,093	41,353
309,764	1,540	84,220	41,455
310,779	0,749	84,045	41,148
311,793	0,795	84,037	41,153
312,808	0,934	83,973	41,157
313,822	1,450	83,909	41,263
314,837	1,119	83,866	41,147
315,852	1,106	83,855	41,134
316,866	1,209	83,724	41,095
317,881	1,132	83,633	41,025
318,895	1,060	83,618	40,995
319,910	1,490	83,639	41,118
320,925	1,789	83,475	41,115
321,939	1,115	83,416	40,900
322,954	1,392	83,471	40,998
323,968	1,070	83,474	40,909
324,983	1,460	83,327	40,939
325,997	1,251	83,380	40,904
327,012	1,212	83,231	40,817
328,027	1,009	83,181	40,734
329,041	1,397	83,150	40,820
330,056	1,369	83,137	40,802
331,070	1,776	82,983	40,833
332,085	1,709	83,027	40,833
333,100	1,877	82,887	40,806
334,114	1,932	82,798	40,773
335,129	1,559	82,659	40,601
336,143	1,138	82,754	40,531
337,158	1,199	82,660	40,497
338,173	1,697	82,642	40,619
339,187	1,707	82,582	40,588
340,202	1,649	82,583	40,569
341,216	0,613	82,502	40,248
342,231	2,088	82,281	40,531
343,246	1,575	82,450	40,473
344,260	1,963	82,370	40,534
345,275	1,501	82,287	40,367
346,289	1,584	82,232	40,358
347,304	1,544	82,120	40,289
348,319	2,051	82,056	40,389
349,333	1,796	81,990	40,285
350,348	1,729	82,026	40,281
351,362	1,840	81,814	40,203
352,377	1,666	81,921	40,206
353,392	2,041	81,768	40,227
354,406	1,655	81,700	40,087
355,421	202,129	1314,917	1388,056
356,435	157,782	1465,624	1388,515
