DTS Sentinel unit serial number:	SN410029Multiplexer serial number:	ORYXHardware model number:	OX2-SRSoftware version number:	ORYX F/W v4,00 Oryx Data Collector v3.7.2.0data status	okinstallation	B3 Nyhavnadifferential loss correction	single-endedforward channel	channel 1reverse channel	N/Adate	2023/11/28time	15:37:30forward acquisition time	300,00reverse acquisition time	0,00gamma	499,1914k internal	0,3188k external	0,3188temperature offset calibration	1,0000default loss term (dB/km)	0,3820temperature slope calibration	1,0000multiplexer offset coefficient	1,0000multiplexer slope coefficient	1,0000fibre end	0,00T internal ref (°C)	7,27T ext. ref 1 (°C)	-7,63T ext. ref 2 (°C)	-7,80length (m)	temperature (°C)	Stokes	anti-Stokes-744,400	177,095	-0,200	-0,213
-743,385	798,634	0,108	0,219
-742,371	800,000	-0,094	-0,233
-741,356	800,000	0,063	0,181
-740,342	-200,000	-0,021	-0,270
-739,327	42,391	-0,156	0,104
-738,312	448,850	-0,219	-0,354
-737,298	800,000	-0,119	0,262
-736,283	505,534	-0,168	-0,285
-735,269	-200,000	-0,072	0,320
-734,254	244,129	-0,155	-0,191
-733,239	-123,474	-0,187	-0,021
-732,225	-200,000	-0,044	-0,279
-731,210	225,445	0,121	0,143
-730,196	378,425	-0,070	-0,105
-729,181	800,000	-0,031	-0,099
-728,167	311,088	-0,031	-0,043
-727,152	-43,399	-0,051	0,019
-726,137	141,675	-0,053	0,052
-725,123	800,000	-0,006	-0,014
-724,108	193,683	-0,096	-0,107
-723,094	800,000	0,015	-0,041
-722,079	-149,113	-0,108	-0,006
-721,064	-22,728	-0,093	0,041
-720,050	520,276	0,070	-0,120
-719,035	-72,459	-0,102	0,027
-718,021	92,031	-0,162	-0,133
-717,006	-14,528	-0,134	-0,063
-715,991	403,171	-0,054	-0,082
-714,977	78,090	-0,095	-0,074
-713,962	-131,023	-0,035	-0,003
-712,948	62,418	0,089	-0,065
-711,933	-200,000	-0,013	0,098
-710,918	108,635	-0,117	-0,102
-709,904	-55,176	-0,067	-0,022
-708,889	340,611	-0,128	-0,183
-707,875	-59,924	-0,156	-0,048
-706,860	17,330	0,130	-0,075
-705,845	139,326	0,085	0,082
-704,831	-50,553	0,081	0,028
-703,816	143,312	0,051	0,049
-702,802	-200,000	0,011	-0,058
-701,787	332,445	-0,050	0,071
-700,772	426,720	-0,070	-0,110
-699,758	-25,012	0,075	0,032
-698,743	-200,000	0,031	0,133
-697,729	-22,937	0,056	0,025
-696,714	128,015	-0,079	0,073
-695,699	-178,406	-0,108	0,002
-694,685	-75,539	-0,122	-0,031
-693,670	6,762	0,098	-0,053
-692,656	-134,273	-0,086	-0,008
-691,641	-5,160	-0,077	0,039
-690,627	534,964	-0,067	0,117
-689,612	245,687	-0,071	-0,088
-688,597	800,000	-0,060	-0,157
-687,583	-200,000	-0,015	-0,146
-686,568	39,221	-0,075	0,049
-685,554	295,343	0,043	-0,057
-684,539	-200,000	-0,017	-0,064
-683,524	-200,000	-0,003	-0,044
-682,510	119,840	0,029	0,026
-681,495	-200,000	-0,025	-0,124
-680,481	800,000	-0,075	-0,218
-679,466	45,540	-0,107	-0,072
-678,451	800,000	0,071	-0,186
-677,437	-200,000	0,010	-0,052
-676,422	43,611	-0,050	0,033
-675,408	587,318	0,011	0,020
-674,393	800,000	-0,039	-0,110
-673,378	-93,734	-0,129	0,026
-672,364	284,478	0,026	-0,035
-671,349	-9,285	-0,064	-0,031
-670,335	185,689	-0,031	0,033
-669,320	188,812	0,061	-0,066
-668,305	-200,000	0,034	0,144
-667,291	-123,351	-0,012	0,001
-666,276	46,108	-0,067	-0,045
-665,262	-38,625	-0,070	0,027
-664,247	-200,000	-0,001	0,008
-663,232	655,303	-0,012	-0,022
-662,218	-84,593	-0,078	0,018
-661,203	204,369	-0,035	-0,040
-660,189	419,191	0,065	0,102
-659,174	800,000	0,022	0,060
-658,159	306,490	-0,120	-0,164
-657,145	34,523	-0,086	-0,055
-656,130	-56,739	0,045	-0,014
-655,116	179,424	0,100	0,106
-654,101	-200,000	0,015	0,058
-653,086	120,093	-0,059	-0,054
-652,072	509,375	0,065	-0,111
-651,057	-200,000	-0,001	-0,023
-650,043	33,703	-0,075	0,047
-649,028	-200,000	0,005	0,066
-648,014	6,926	-0,098	0,053
-646,999	800,000	-0,023	-0,057
-645,984	-115,381	0,074	0,010
-644,970	800,000	0,040	-0,084
-643,955	209,843	-0,060	0,068
-642,941	800,000	-0,018	-0,040
-641,926	800,000	-0,061	-0,123
-640,911	-92,063	-0,094	-0,019
-639,897	33,468	0,056	0,035
-638,882	394,198	0,060	-0,091
-637,868	563,223	-0,040	-0,072
-636,853	800,000	-0,054	-0,112
-635,838	369,160	-0,104	-0,154
-634,824	800,000	-0,020	-0,052
-633,809	800,000	0,020	-0,050
-632,795	-162,594	0,100	0,004
-631,780	-14,119	0,047	0,022
-630,765	-200,000	0,002	0,153
-629,751	-200,000	-0,031	-0,129
-628,736	-124,539	-0,235	-0,026
-627,722	-44,706	0,045	-0,016
-626,707	57,367	0,089	-0,063
-625,692	-200,000	-0,011	0,051
-624,678	486,162	-0,032	0,054
-623,663	-58,290	-0,090	0,028
-622,649	-105,156	-0,091	-0,015
-621,634	800,000	0,029	-0,087
-620,619	136,641	-0,077	0,073
-619,605	800,000	-0,041	0,130
-618,590	347,795	0,136	0,196
-617,576	18,055	0,035	-0,020
-616,561	-99,643	0,142	-0,026
-615,546	800,000	0,044	0,091
-614,532	761,328	0,037	0,073
-613,517	-15,590	0,039	0,018
-612,503	134,850	0,061	0,057
-611,488	-76,754	-0,128	0,032
-610,474	33,211	0,025	-0,016
-609,459	-109,547	-0,061	-0,009
-608,444	248,818	-0,082	0,101
-607,430	-200,000	0,030	-0,095
-606,415	600,042	0,055	0,099
-605,401	800,000	-0,037	-0,114
-604,386	54,505	-0,068	-0,047
-603,371	-95,775	0,125	0,024
-602,357	-179,652	-0,088	0,001
-601,342	331,104	-0,035	0,050
-600,328	-200,000	-0,003	-0,082
-599,313	-200,000	-0,012	-0,058
-598,298	-132,282	-0,097	-0,009
-597,284	-58,392	-0,039	-0,012
-596,269	-106,138	-0,130	0,021
-595,255	-200,000	-0,040	0,139
-594,240	-7,518	-0,029	0,014
-593,225	-72,642	-0,036	-0,010
-592,211	-200,000	-0,011	0,140
-591,196	284,741	0,078	-0,102
-590,182	-39,686	0,107	0,041
-589,167	800,000	0,029	0,060
-588,152	800,000	-0,022	-0,055
-587,138	-95,403	0,034	-0,007
-586,123	-75,553	-0,098	0,025
-585,109	800,000	-0,032	0,066
-584,094	33,761	0,056	0,035
-583,079	-98,230	-0,092	-0,017
-582,065	800,000	-0,039	0,108
-581,050	-200,000	-0,012	0,125
-580,036	-37,528	-0,165	0,063
-579,021	-200,000	-0,027	-0,156
-578,006	4,864	-0,161	-0,085
-576,992	-20,868	-0,099	0,044
-575,977	800,000	0,049	0,123
-574,963	-5,438	0,093	0,046
-573,948	762,172	-0,102	0,202
-572,934	-120,432	0,104	-0,013
-571,919	-82,200	-0,203	-0,048
-570,904	-51,844	0,175	-0,059
-569,890	-200,000	-0,002	-0,185
-568,875	800,000	0,025	0,050
-567,861	-70,279	0,057	0,016
-566,846	-200,000	0,041	0,148
-565,831	-118,301	-0,144	-0,018
-564,817	-22,714	-0,141	-0,062
-563,802	-200,000	0,005	-0,081
-562,788	800,000	-0,076	0,166
-561,773	-200,000	-0,004	-0,120
-560,758	-200,000	0,007	0,117
-559,744	-200,000	0,013	0,090
-558,729	800,000	0,052	0,115
-557,715	47,251	-0,013	-0,009
-556,700	193,837	-0,020	0,022
-555,685	800,000	0,021	-0,061
-554,671	-25,778	0,183	-0,078
-553,656	-200,000	-0,010	-0,074
-552,642	-63,304	-0,008	0,002
-551,627	207,037	-0,024	-0,027
-550,612	800,000	-0,037	-0,089
-549,598	-65,884	0,121	0,035
-548,583	800,000	-0,046	-0,105
-547,569	-200,000	-0,009	-0,043
-546,554	800,000	0,066	0,149
-545,539	-78,650	-0,115	-0,028
-544,525	31,393	0,141	-0,087
-543,510	800,000	0,021	0,052
-542,496	800,000	-0,058	0,117
-541,481	46,660	0,100	-0,067
-540,466	357,750	0,019	0,028
-539,452	-200,000	-0,000	-0,039
-538,437	495,577	-0,066	-0,110
-537,423	-65,631	0,158	-0,046
-536,408	-200,000	-0,019	-0,117
-535,393	190,699	-0,131	-0,143
-534,379	-200,000	0,007	-0,042
-533,364	32,932	0,080	-0,050
-532,350	-107,450	0,134	0,021
-531,335	553,465	0,072	-0,127
-530,321	800,000	0,063	-0,129
-529,306	-75,099	0,115	-0,030
-528,291	199,413	-0,054	-0,060
-527,277	54,000	-0,121	-0,084
-526,262	800,000	-0,055	-0,151
-525,248	74,940	-0,070	0,053
-524,233	336,443	0,044	0,062
-523,218	-200,000	-0,022	-0,098
-522,204	-73,079	0,049	0,013
-521,189	-200,000	-0,036	-0,142
-520,175	1,716	-0,063	0,033
-519,160	23,088	-0,043	-0,025
-518,145	-11,189	0,103	-0,049
-517,131	800,000	0,039	0,109
-516,116	-200,000	0,014	0,136
-515,102	-63,051	0,070	0,021
-514,087	-146,394	-0,091	-0,006
-513,072	-200,000	0,016	-0,156
-512,058	-200,000	0,034	-0,142
-511,043	238,396	-0,021	-0,026
-510,029	-200,000	0,125	-0,000
-509,014	-64,724	0,047	0,014
-507,999	-79,588	-0,175	-0,042
-506,985	420,545	-0,027	0,042
-505,970	800,000	0,018	-0,050
-504,956	223,745	0,076	0,089
-503,941	0,135	0,148	0,076
-502,926	-87,257	0,169	-0,037
-501,912	726,747	0,019	0,038
-500,897	60,788	0,035	-0,025
-499,883	469,866	-0,031	-0,050
-498,868	-200,000	0,036	-0,128
-497,853	297,779	-0,044	-0,059
-496,839	-189,108	-0,021	0,000
-495,824	48,913	-0,113	-0,077
-494,810	437,838	-0,042	-0,067
-493,795	800,000	0,014	0,029
-492,781	-200,000	-0,020	0,088
-491,766	-20,193	0,048	0,021
-490,751	-200,000	-0,001	-0,077
-489,737	-200,000	0,010	-0,059
-488,722	-200,000	-0,011	0,114
-487,708	130,320	0,118	0,110
-486,693	800,000	0,040	0,120
-485,678	-39,975	-0,107	-0,040
-484,664	-6,163	-0,059	0,029
-483,649	192,161	-0,077	-0,084
-482,635	-200,000	0,003	-0,169
-481,620	-200,000	0,015	0,164
-480,605	101,688	0,082	-0,069
-479,591	800,000	0,015	0,040
-478,576	-33,921	-0,178	-0,070
-477,562	800,000	0,043	-0,111
-476,547	192,678	0,105	-0,115
-475,532	-147,194	0,143	-0,009
-474,518	57,395	0,015	-0,011
-473,503	-200,000	0,013	0,064
-472,489	-200,000	-0,014	0,090
-471,474	376,796	-0,090	-0,133
-470,459	800,000	-0,036	-0,093
-469,445	329,443	0,023	-0,031
-468,430	369,212	0,023	0,034
-467,416	580,899	0,073	0,131
-466,401	-103,709	0,099	-0,017
-465,386	55,822	-0,030	0,021
-464,372	38,573	0,144	0,093
-463,357	-71,698	0,022	0,006
-462,343	121,675	-0,116	-0,104
-461,328	-200,000	-0,008	-0,121
-460,313	578,032	0,044	0,078
-459,299	-200,000	0,011	0,211
-458,284	-200,000	-0,040	0,220
-457,270	-200,000	0,015	0,064
-456,255	-147,261	-0,037	0,002
-455,241	-200,000	-0,017	-0,106
-454,226	800,000	0,011	-0,024
-453,211	265,820	0,032	-0,040
-452,197	88,273	-0,036	-0,029
-451,182	-43,431	0,139	0,050
-450,168	17,599	0,053	-0,030
-449,153	17,253	-0,096	-0,055
-448,138	13,565	0,190	-0,106
-447,124	-29,818	-0,047	-0,019
-446,109	252,977	-0,058	-0,072
-445,095	-200,000	0,053	0,175
-444,080	-200,000	-0,024	0,124
-443,065	539,109	0,070	0,120
-442,051	149,854	-0,047	0,046
-441,036	-162,507	-0,094	-0,003
-440,022	395,707	-0,078	-0,117
-439,007	489,667	0,019	-0,032
-437,992	190,341	0,050	0,054
-436,978	286,446	-0,028	0,037
-435,963	-130,220	0,131	-0,013
-434,949	23,905	-0,065	-0,038
-433,934	800,000	0,031	0,072
-432,919	-200,000	0,022	-0,103
-431,905	-200,000	-0,001	-0,072
-430,890	-50,558	0,141	0,048
-429,876	140,612	-0,109	0,104
-428,861	800,000	0,046	0,117
-427,846	-200,000	-0,011	0,075
-426,832	-57,447	-0,070	-0,022
-425,817	24,065	-0,036	-0,022
-424,803	-120,572	-0,091	0,011
-423,788	117,921	0,035	-0,031
-422,773	800,000	0,032	0,091
-421,759	800,000	0,049	0,135
-420,744	-200,000	-0,009	0,167
-419,730	-172,934	0,116	-0,003
-418,715	-200,000	0,006	-0,056
-417,701	123,873	-0,045	-0,041
-416,686	492,923	0,023	0,039
-415,671	49,324	0,120	0,081
-414,657	329,509	0,080	0,111
-413,642	800,000	0,028	-0,063
-412,628	-25,600	-0,043	-0,018
-411,613	800,000	0,014	0,032
-410,598	-61,566	0,128	-0,038
-409,584	-200,000	-0,044	0,164
-408,569	-200,000	0,030	0,104
-407,555	-200,000	-0,020	0,108
-406,540	-200,000	-0,003	0,062
-405,525	-200,000	-0,025	-0,114
-404,511	138,835	-0,029	-0,028
-403,496	61,117	-0,048	0,034
-402,482	94,708	-0,081	0,066
-401,467	82,118	0,073	-0,057
-400,452	-31,589	0,044	0,018
-399,438	-38,215	0,140	0,053
-398,423	800,000	0,078	0,176
-397,409	-200,000	-0,028	-0,148
-396,394	-200,000	-0,006	0,131
-395,379	-46,032	0,040	-0,014
-394,365	-41,199	0,128	0,047
-393,350	-30,799	0,069	-0,028
-392,336	200,080	0,083	0,091
-391,321	67,389	0,029	0,022
-390,306	-200,000	-0,054	-0,188
-389,292	80,926	-0,059	0,046
-388,277	800,000	0,046	-0,104
-387,263	-97,290	0,144	0,027
-386,248	800,000	0,020	0,043
-385,233	-115,574	0,066	-0,009
-384,219	-91,196	0,080	0,016
-383,204	-200,000	-0,008	-0,140
-382,190	-200,000	0,020	-0,104
-381,175	-200,000	-0,006	0,069
-380,160	800,000	0,007	-0,016
-379,146	-200,000	0,015	0,129
-378,131	80,682	-0,057	0,044
-377,117	35,488	-0,045	0,028
-376,102	-200,000	0,002	0,054
-375,088	-96,954	0,093	-0,017
-374,073	-200,000	-0,001	-0,028
-373,058	-36,649	-0,058	0,023
-372,044	-200,000	0,017	-0,119
-371,029	-100,879	-0,098	-0,017
-370,015	800,000	0,084	0,220
-369,000	-33,342	-0,103	0,041
-367,985	-23,657	-0,147	-0,063
-366,971	-170,512	0,072	-0,002
-365,956	-200,000	-0,031	0,107
-364,942	800,000	0,022	-0,067
-363,927	-200,000	-0,005	-0,048
-362,912	247,932	0,127	0,155
-361,898	800,000	-0,032	-0,074
-360,883	-169,765	-0,040	-0,001
-359,869	13,971	0,090	-0,050
-358,854	-13,269	0,106	0,049
-357,839	148,832	0,083	0,081
-356,825	5,759	0,117	-0,062
-355,810	-200,000	-0,016	-0,065
-354,796	139,743	-0,059	-0,056
-353,781	295,562	0,081	0,107
-352,766	-200,000	-0,002	0,025
-351,752	-200,000	-0,003	-0,053
-350,737	-123,192	0,059	0,007
-349,723	-200,000	-0,013	0,071
-348,708	-38,151	-0,131	-0,050
-347,693	451,066	0,016	0,025
-346,679	-56,268	-0,111	0,035
-345,664	10,891	-0,057	-0,031
-344,650	-59,308	0,032	-0,010
-343,635	800,000	0,026	0,074
-342,620	89,693	0,057	0,046
-341,606	126,650	0,041	0,037
-340,591	-200,000	-0,015	-0,131
-339,577	715,610	-0,019	-0,037
-338,562	-132,604	0,016	-0,001
-337,548	-200,000	0,020	0,153
-336,533	-200,000	0,049	-0,162
-335,518	92,418	-0,126	0,102
-334,504	-200,000	0,010	0,116
-333,489	30,889	0,091	0,056
-332,475	428,406	-0,025	0,039
-331,460	-48,209	-0,130	-0,045
-330,445	213,014	-0,073	-0,082
-329,431	95,700	0,126	-0,103
-328,416	-98,112	-0,124	0,023
-327,402	-11,911	-0,068	0,032
-326,387	-112,332	-0,030	-0,004
-325,372	800,000	-0,049	-0,138
-324,358	800,000	-0,056	-0,163
-323,343	-118,449	-0,070	-0,009
-322,329	426,236	0,062	-0,096
-321,314	-132,910	0,060	0,005
-320,299	295,703	0,064	0,085
-319,285	-79,046	-0,086	-0,021
-318,270	-200,000	-0,017	-0,056
-317,256	416,992	0,111	-0,171
-316,241	-5,485	0,058	-0,028
-315,226	695,104	-0,054	-0,102
-314,212	620,963	-0,133	0,241
-313,197	40,079	0,059	0,038
-312,183	52,113	-0,092	-0,063
-311,168	-200,000	0,022	0,084
-310,153	-200,000	0,016	0,067
-309,139	-200,000	-0,012	0,086
-308,124	-200,000	-0,005	-0,059
-307,110	-40,194	-0,076	0,028
-306,095	44,563	-0,026	0,017
-305,080	800,000	-0,047	0,115
-304,066	-91,047	-0,094	0,019
-303,051	5,529	-0,122	-0,064
-302,037	800,000	0,030	0,083
-301,022	201,281	0,025	0,027
-300,008	111,184	0,045	0,039
-298,993	-200,000	0,036	0,170
-297,978	-89,675	0,080	-0,017
-296,964	-124,942	-0,074	-0,008
-295,949	80,823	-0,016	-0,013
-294,935	754,922	-0,081	-0,159
-293,920	-200,000	-0,027	0,122
-292,905	-200,000	-0,044	-0,194
-291,891	-39,134	-0,081	-0,030
-290,876	55,394	0,111	0,077
-289,862	-39,842	0,093	0,035
-288,847	-152,966	-0,225	-0,011
-287,832	-81,444	0,080	-0,019
-286,818	21,449	-0,029	-0,017
-285,803	30,811	0,124	0,076
-284,789	226,003	-0,056	-0,065
-283,774	800,000	-0,072	0,183
-282,759	-200,000	0,031	0,134
-281,745	-200,000	0,030	-0,111
-280,730	-200,000	-0,025	-0,128
-279,716	-200,000	0,001	0,023
-278,701	-200,000	0,029	0,097
-277,686	-122,667	-0,035	-0,004
-276,672	-13,243	0,030	-0,014
-275,657	-200,000	0,026	0,105
-274,643	185,483	0,036	-0,039
-273,628	-200,000	0,007	-0,043
-272,613	-200,000	0,018	-0,084
-271,599	-40,302	0,077	0,029
-270,584	245,865	-0,052	0,063
-269,570	-126,560	0,027	0,003
-268,555	36,596	-0,140	0,088
-267,540	95,748	-0,082	0,067
-266,526	33,827	-0,201	-0,125
-265,511	50,262	-0,155	-0,105
-264,497	800,000	0,005	0,013
-263,482	-200,000	0,002	-0,040
-262,467	-200,000	0,021	-0,111
-261,453	-200,000	0,001	-0,085
-260,438	352,576	0,041	-0,058
-259,424	144,705	-0,052	0,050
-258,409	-200,000	-0,013	0,044
-257,395	136,810	0,060	0,056
-256,380	-33,912	-0,076	-0,030
-255,365	246,251	0,123	0,149
-254,351	92,769	0,045	-0,036
-253,336	55,860	-0,091	0,063
-252,322	121,182	-0,109	-0,097
-251,307	103,082	-0,112	0,094
-250,292	-89,115	-0,049	0,010
-249,278	800,000	0,008	0,025
-248,263	-200,000	0,035	-0,221
-247,249	-200,000	0,007	-0,072
-246,234	-200,000	0,016	-0,110
-245,219	83,560	-0,072	0,056
-244,205	-85,488	-0,061	0,013
-243,190	654,094	-0,090	0,167
-242,176	-39,387	0,063	0,023
-241,161	216,645	0,097	0,110
-240,146	-79,973	0,074	-0,018
-239,132	213,326	-0,036	0,041
-238,117	17,338	-0,086	0,049
-237,103	-200,000	-0,030	-0,130
-236,088	46,235	-0,050	0,033
-235,073	800,000	-0,032	0,070
-234,059	516,299	0,006	0,010
-233,044	-186,111	0,131	-0,001
-232,030	-107,164	0,080	0,012
-231,015	74,956	-0,066	0,050
-230,000	212,465	-0,054	-0,061
-228,986	-200,000	-0,002	0,012
-227,971	-0,246	-0,024	-0,012
-226,957	800,000	0,037	-0,074
-225,942	544,431	-0,049	0,084
-224,927	-200,000	0,000	-0,081
-223,913	-200,000	0,001	-0,015
-222,898	-75,890	-0,067	-0,017
-221,884	-54,701	-0,077	0,025
-220,869	-200,000	-0,007	-0,043
-219,855	-31,582	-0,076	-0,030
-218,840	-55,465	0,160	0,051
-217,825	800,000	0,055	-0,150
-216,811	-34,244	0,079	0,031
-215,796	800,000	0,049	-0,150
-214,782	800,000	-0,043	-0,116
-213,767	-40,866	0,094	0,035
-212,752	-147,411	0,102	-0,006
-211,738	-200,000	-0,026	0,092
-210,723	-200,000	0,004	-0,174
-209,709	206,017	-0,119	-0,133
-208,694	66,008	-0,092	-0,066
-207,679	800,000	0,021	0,050
-206,665	409,463	0,072	-0,109
-205,650	796,023	0,042	0,084
-204,636	368,744	0,075	-0,109
-203,621	15,740	0,032	0,018
-202,606	800,000	-0,066	0,181
-201,592	389,240	0,056	0,084
-200,577	128,686	-0,107	-0,097
-199,563	-84,481	-0,065	-0,015
-198,548	-193,407	0,114	-0,001
-197,533	-183,321	0,119	0,001
-196,519	-200,000	0,010	0,088
-195,504	-200,000	-0,003	0,076
-194,490	127,820	-0,049	-0,045
-193,475	800,000	-0,051	-0,103
-192,460	135,072	-0,072	-0,067
-191,446	800,000	-0,033	-0,073
-190,431	-184,017	-0,006	0,000
-189,417	-200,000	0,006	-0,108
-188,402	-25,629	-0,089	0,038
-187,387	37,443	-0,021	-0,013
-186,373	105,976	0,106	-0,090
-185,358	-200,000	-0,021	0,084
-184,344	-200,000	0,002	0,061
-183,329	800,000	0,041	0,115
-182,315	423,865	0,052	0,080
-181,300	-33,326	-0,102	-0,040
-180,285	353,659	-0,098	-0,139
-179,271	800,000	-0,056	-0,134
-178,256	-96,377	-0,049	0,009
-177,242	800,000	0,029	-0,074
-176,227	-58,336	0,105	-0,033
-175,212	573,126	-0,035	-0,061
-174,198	11,894	-0,101	0,055
-173,183	-126,419	0,054	-0,006
-172,169	371,474	0,060	-0,088
-171,154	603,408	0,017	-0,030
-170,139	-120,917	0,071	-0,008
-169,125	-121,588	0,160	0,019
-168,110	800,000	-0,052	0,117
-167,096	69,270	0,023	0,017
-166,081	-200,000	0,003	0,035
-165,066	800,000	-0,037	0,085
-164,052	-200,000	-0,002	0,039
-163,037	249,036	0,014	0,017
-162,023	-121,840	0,065	0,008
-161,008	-200,000	-0,005	0,045
-159,993	-36,728	-0,119	-0,045
-158,979	800,000	0,029	-0,083
-157,964	-200,000	-0,008	-0,066
-156,950	-200,000	0,029	0,103
-155,935	180,497	0,074	0,078
-154,920	800,000	0,006	0,012
-153,906	0,190	0,034	-0,017
-152,891	-47,416	0,034	0,012
-151,877	-49,242	-0,115	0,039
-150,862	-200,000	-0,029	0,104
-149,847	109,045	-0,033	-0,028
-148,833	-200,000	-0,006	-0,058
-147,818	-24,674	-0,059	0,025
-146,804	199,260	-0,193	0,211
-145,789	800,000	0,028	0,083
-144,775	66,229	-0,042	0,031
-143,760	-65,446	-0,193	-0,055
-142,745	-200,000	0,008	-0,144
-141,731	-200,000	-0,024	0,142
-140,716	-200,000	-0,017	0,157
-139,702	-70,554	0,192	0,052
-138,687	-60,712	0,054	0,016
-137,672	-10,462	-0,061	-0,029
-136,658	334,677	-0,024	-0,033
-135,643	196,432	-0,023	0,025
-134,629	537,198	0,094	0,159
-133,614	800,000	0,055	0,131
-132,599	800,000	0,028	-0,065
-131,585	-106,968	0,020	0,003
-130,570	415,765	0,095	-0,144
-129,556	-108,236	-0,192	0,029
-128,541	800,000	0,058	-0,134
-127,526	460,750	-0,059	-0,094
-126,512	418,397	0,056	-0,086
-125,497	800,000	0,036	0,077
-124,483	800,000	0,040	0,104
-123,468	107,153	-0,052	0,044
-122,453	-200,000	0,007	0,202
-121,439	115,351	0,058	0,051
-120,424	800,000	-0,074	0,202
-119,410	-41,691	-0,032	0,012
-118,395	-99,143	0,136	0,024
-117,380	69,967	0,099	0,073
-116,366	554,694	-0,028	0,048
-115,351	38,710	0,103	0,066
-114,337	800,000	-0,030	-0,063
-113,322	281,333	-0,045	-0,057
-112,307	-0,354	0,077	0,039
-111,293	-200,000	-0,011	-0,095
-110,278	-149,229	0,178	-0,010
-109,264	318,629	0,070	-0,094
-108,249	-21,864	-0,064	0,028
-107,234	800,000	-0,088	-0,226
-106,220	-200,000	-0,020	-0,117
-105,205	144,458	0,069	-0,065
-104,191	10,064	0,086	-0,046
-103,176	-49,327	0,165	0,056
-102,162	424,299	-0,007	0,010
-101,147	-96,609	-0,199	-0,037
-100,132	-184,507	-0,111	-0,001
-99,118	222,136	0,130	-0,150
-98,103	800,000	-0,033	0,068
-97,089	60,260	-0,089	-0,062
-96,074	-87,238	-0,145	-0,031
-95,059	-144,496	-0,032	-0,002
-94,045	-200,000	-0,031	0,112
-93,030	14,987	-0,123	-0,068
-92,016	-11,680	-0,065	0,030
-91,001	-75,366	0,048	-0,012
-89,986	-200,000	0,016	0,177
-88,972	-82,275	-0,053	0,012
-87,957	-146,106	0,053	-0,003
-86,943	-98,775	-0,025	0,004
-85,928	800,000	-0,042	-0,115
-84,913	-147,945	-0,199	-0,012
-83,899	-200,000	0,002	0,069
-82,884	-200,000	0,012	0,118
-81,870	183,372	0,039	0,041
-80,855	-16,885	0,012	0,006
-79,840	800,000	0,025	0,069
-78,826	63,720	-0,078	-0,056
-77,811	-200,000	0,017	0,122
-76,797	189,847	0,095	0,101
-75,782	-47,059	-0,075	-0,026
-74,767	36,190	-0,070	0,044
-73,753	-200,000	0,006	0,021
-72,738	-49,517	0,006	0,002
-71,724	-8,474	0,051	-0,024
-70,709	-200,000	-0,004	0,156
-69,694	144,048	-0,035	0,033
-68,680	391,532	-0,039	0,058
-67,665	-101,186	-0,070	0,012
-66,651	-200,000	0,003	-0,012
-65,636	800,000	0,032	-0,084
-64,622	-8,883	0,013	0,006
-63,607	-163,178	-0,040	-0,001
-62,592	-127,727	-0,055	-0,006
-61,578	-200,000	-0,031	0,149
-60,563	-92,725	0,125	0,025
-59,549	275,596	-0,119	0,151
-58,534	74,730	-2,263	-1,692
-57,519	520,797	-1,105	-1,850
-56,505	-200,000	-0,280	-4,530
-55,490	800,000	0,835	1,916
-54,476	800,000	5,222	11,402
-53,461	-200,000	22,888	350,138
-52,446	800,000	758,643	2278,330
-51,432	513,647	1637,249	2724,417
-50,417	69,970	1538,843	1127,302
-49,403	22,274	1017,200	589,151
-48,388	12,001	673,358	366,952
-47,373	34,071	632,885	391,101
-46,359	19,670	617,161	352,080
-45,344	7,439	613,005	324,650
-44,330	7,281	611,417	323,471
-43,315	7,075	610,185	322,385
-42,300	7,194	608,824	321,897
-41,286	7,126	608,314	321,475
-40,271	7,040	607,589	320,905
-39,257	7,113	606,825	320,636
-38,242	7,272	606,020	320,521
-37,227	7,285	605,194	320,098
-36,213	7,316	604,680	319,878
-35,198	7,241	603,793	319,242
-34,184	7,427	603,377	319,388
-33,169	7,196	602,558	318,473
-32,154	7,350	602,246	318,607
-31,140	7,372	601,051	318,007
-30,125	7,382	600,566	317,758
-29,111	7,278	600,073	317,276
-28,096	7,330	600,050	317,355
-27,082	7,321	599,160	316,854
-26,067	7,306	598,812	316,627
-25,052	7,216	598,306	316,166
-24,038	7,198	598,125	316,021
-23,023	7,254	597,332	315,702
-22,009	7,339	596,976	315,672
-20,994	7,325	596,216	315,230
-19,979	7,462	595,828	315,285
-18,965	7,343	595,350	314,783
-17,950	7,298	595,049	314,522
-16,936	7,219	594,591	314,110
-15,921	7,295	594,104	313,991
-14,906	7,212	593,522	313,505
-13,892	7,278	593,234	313,472
-12,877	7,205	592,790	313,080
-11,863	7,160	592,488	312,818
-10,848	7,144	592,101	312,569
-9,833	7,264	591,796	312,636
-8,819	7,266	590,966	312,188
-7,804	7,326	590,535	312,067
-6,790	7,188	590,239	311,625
-5,775	7,318	589,787	311,632
-4,760	7,224	589,475	311,269
-3,746	7,257	588,964	311,051
-2,731	7,028	588,801	310,500
-1,717	7,039	588,627	310,418
-0,702	7,009	588,008	310,020
0,313	7,597	580,897	307,880
1,327	11,994	535,460	291,661
2,342	19,803	412,007	235,118
3,356	13,513	225,301	123,842
4,371	-14,758	152,825	69,425
5,386	-17,991	144,255	63,941
6,400	-17,821	141,195	62,661
7,415	-17,165	139,933	62,407
8,429	-18,110	139,115	61,590
9,444	-18,317	138,533	61,229
10,459	-18,272	138,217	61,106
11,473	-18,460	137,880	60,863
12,488	-18,424	137,612	60,756
13,502	-18,785	137,242	60,419
14,517	-18,442	137,083	60,503
15,531	-18,533	136,695	60,285
16,546	-18,127	136,429	60,350
17,561	-18,160	136,091	60,180
18,575	-18,548	136,102	60,000
19,590	-18,396	135,866	59,961
20,604	-17,904	135,620	60,074
21,619	-17,986	135,427	59,945
22,634	-18,773	135,314	59,528
23,648	-18,323	135,060	59,618
24,663	-18,432	134,934	59,506
25,677	-18,028	134,771	59,614
26,692	-18,165	134,647	59,492
27,707	-18,191	134,369	59,352
28,721	-17,922	134,252	59,417
29,736	-18,388	134,287	59,214
30,750	-18,454	133,978	59,043
31,765	-18,118	133,878	59,146
32,780	-17,720	133,648	59,220
33,794	-18,702	133,814	58,843
34,809	-17,973	133,467	59,015
35,823	-17,756	133,218	58,997
36,838	-18,117	133,182	58,813
37,853	-18,353	133,102	58,666
38,867	-18,540	133,057	58,557
39,882	-18,099	132,687	58,587
40,896	-18,035	132,609	58,576
41,911	-17,913	132,535	58,593
42,926	-18,131	132,299	58,386
43,940	-18,145	132,240	58,348
44,955	-18,349	132,062	58,173
45,969	-18,207	132,001	58,204
46,984	-17,957	131,909	58,271
47,999	-17,875	131,786	58,248
49,013	-18,413	131,835	58,024
50,028	-18,071	131,571	58,055
51,042	-18,471	131,521	57,850
52,057	-18,095	131,270	57,901
53,071	-18,127	131,239	57,868
54,086	-18,184	131,178	57,811
55,101	-17,912	131,052	57,871
56,115	-18,070	130,969	57,759
57,130	-18,050	130,658	57,625
58,144	-18,418	130,656	57,456
59,159	-18,366	130,345	57,338
60,174	-18,249	130,361	57,391
61,188	-18,133	130,167	57,352
62,203	-18,138	130,043	57,290
63,217	-18,584	130,162	57,141
64,232	-18,296	129,696	57,058
65,247	-18,226	129,802	57,130
66,261	-18,083	129,679	57,133
67,276	-18,329	129,489	56,937
68,290	-18,241	129,329	56,900
69,305	-18,463	129,375	56,818
70,320	-17,901	129,257	57,006
71,334	-18,285	129,081	56,756
72,349	-18,264	128,876	56,670
73,363	-18,129	128,717	56,654
74,378	-18,387	128,840	56,591
75,393	-18,112	128,540	56,573
76,407	-18,508	128,578	56,413
77,422	-17,946	128,352	56,552
78,436	-18,285	128,275	56,367
79,451	-18,051	128,067	56,371
80,466	-18,185	127,977	56,269
81,480	-18,386	127,868	56,129
82,495	-18,106	127,777	56,205
83,509	-18,089	127,714	56,179
84,524	-18,220	127,520	56,033
85,539	-18,304	127,542	56,002
86,553	-18,358	127,324	55,877
87,568	-18,060	127,071	55,889
88,582	-18,303	127,081	55,785
89,597	-18,225	127,047	55,798
90,611	-17,958	126,856	55,824
91,626	-17,925	126,824	55,818
92,641	-17,485	126,622	55,912
93,655	-18,066	126,640	55,668
94,670	-18,252	126,538	55,538
95,684	-18,239	126,464	55,506
96,699	-18,309	126,274	55,388
97,714	-18,141	126,153	55,402
98,728	-18,043	126,285	55,496
99,743	-17,904	125,925	55,392
100,757	-17,987	125,821	55,306
101,772	-18,201	125,790	55,197
102,787	-18,508	125,646	54,999
103,801	-18,316	125,503	55,013
104,816	-18,264	125,587	55,066
105,830	-17,999	125,430	55,105
106,845	-18,039	125,228	54,994
107,860	-18,260	125,258	54,909
108,874	-18,357	124,953	54,730
109,889	-18,107	124,922	54,816
110,903	-17,993	124,769	54,792
111,918	-18,534	124,721	54,539
112,933	-18,052	124,715	54,734
113,947	-18,182	124,636	54,640
114,962	-18,066	124,403	54,582
115,976	-18,206	124,355	54,497
116,991	-17,938	124,100	54,492
118,006	-18,133	124,144	54,425
119,020	-18,289	124,044	54,311
120,035	-18,456	123,993	54,215
121,049	-18,090	123,952	54,345
122,064	-18,015	123,783	54,297
123,079	-18,265	123,710	54,156
124,093	-17,516	123,438	54,343
125,108	-17,972	123,471	54,163
126,122	-17,720	123,310	54,192
127,137	-17,874	123,353	54,143
128,151	-17,699	123,057	54,080
129,166	-17,920	123,123	54,013
130,181	-17,758	122,808	53,937
131,195	-17,931	122,716	53,820
132,210	-18,074	122,817	53,801
133,224	-17,899	122,673	53,805
134,239	-18,245	122,682	53,662
135,254	-17,880	122,529	53,740
136,268	-17,851	122,275	53,636
137,283	-17,706	122,121	53,623
138,297	-17,862	122,053	53,524
139,312	-17,825	121,976	53,501
140,327	-18,262	121,982	53,320
141,341	-18,139	121,726	53,253
142,356	-18,035	121,671	53,267
143,370	-17,174	121,984	53,752
144,385	-10,974	122,866	56,691
145,400	-4,400	123,829	59,854
146,414	-2,296	124,229	60,914
147,429	-1,646	124,234	61,181
148,443	-1,836	124,112	61,036
149,458	-1,961	124,129	60,988
150,473	-0,889	124,050	61,387
151,487	-0,834	124,092	61,425
152,502	-1,026	123,924	61,257
153,516	-1,073	123,736	61,139
154,531	-0,881	123,693	61,192
155,546	-1,004	123,553	61,066
156,560	-0,395	123,373	61,222
157,575	-0,912	123,355	60,995
158,589	-0,879	123,428	61,040
159,604	-0,649	123,201	61,016
160,619	-0,988	123,137	60,840
161,633	-0,639	123,030	60,925
162,648	-0,715	123,085	60,916
163,662	-0,607	123,012	60,918
164,677	-0,504	122,763	60,832
165,692	-0,695	122,791	60,762
166,706	-0,859	122,707	60,648
167,721	-0,684	122,583	60,652
168,735	-0,630	122,606	60,681
169,750	-0,635	122,518	60,629
170,764	-0,421	122,205	60,556
171,779	-0,584	122,289	60,526
172,794	-0,382	122,235	60,576
173,808	-0,617	122,094	60,405
174,823	-0,568	121,897	60,322
175,837	-0,113	121,813	60,460
176,852	-0,344	121,855	60,382
177,867	-0,778	121,744	60,146
178,881	-0,307	121,804	60,361
179,896	-0,323	121,582	60,239
180,910	-0,468	121,533	60,151
181,925	-0,536	121,441	60,072
182,940	-0,321	121,350	60,108
183,954	-0,236	121,168	60,047
184,969	-0,305	121,050	59,956
185,983	-0,605	121,305	59,956
186,998	-0,166	120,984	59,968
188,013	-0,317	121,043	59,931
189,027	-0,256	120,812	59,836
190,042	-0,628	120,761	59,656
191,056	-0,705	120,594	59,537
192,071	-0,157	120,640	59,775
193,086	-0,217	120,448	59,650
194,100	0,035	120,386	59,715
195,115	-0,061	120,242	59,600
196,129	-0,126	120,061	59,479
197,144	-0,254	120,166	59,474
198,159	-0,371	120,149	59,414
199,173	0,110	119,831	59,443
200,188	-0,273	119,845	59,292
201,202	-0,239	119,756	59,256
202,217	-0,082	119,752	59,311
203,232	0,146	119,488	59,265
204,246	0,040	119,511	59,230
205,261	-0,112	119,341	59,080
206,275	-0,093	119,329	59,077
207,290	-0,205	119,305	59,015
208,304	-0,102	119,229	59,013
209,319	-0,167	119,101	58,918
210,334	-0,042	119,013	58,919
211,348	-0,278	118,960	58,795
212,363	-0,097	118,893	58,828
213,377	0,081	118,631	58,762
214,392	0,031	118,788	58,815
215,407	0,195	118,721	58,842
216,421	-0,095	118,581	58,653
217,436	0,024	118,410	58,610
218,450	0,163	118,357	58,633
219,465	-0,219	118,376	58,487
220,480	-0,131	118,161	58,410
221,494	0,353	118,214	58,621
222,509	0,138	118,122	58,486
223,523	0,360	117,916	58,465
224,538	0,037	117,787	58,270
225,553	-0,007	117,750	58,230
226,567	-0,168	117,731	58,152
227,582	-0,042	117,831	58,246
228,596	0,000	117,653	58,169
229,611	0,334	117,465	58,200
230,626	-0,471	117,384	57,842
231,640	0,213	117,284	58,053
232,655	0,201	117,178	57,991
233,669	0,109	117,100	57,912
234,684	-0,099	117,163	57,857
235,699	0,206	117,095	57,936
236,713	0,597	116,906	57,989
237,728	0,503	116,878	57,934
238,742	0,416	116,812	57,862
239,757	0,382	116,650	57,763
240,772	-0,003	116,599	57,585
241,786	0,187	116,538	57,623
242,801	0,183	116,555	57,624
243,815	0,115	116,506	57,569
244,830	0,417	116,408	57,632
245,844	0,148	116,286	57,462
246,859	-0,211	116,158	57,256
247,874	0,413	116,092	57,458
248,888	0,152	116,006	57,311
249,903	0,148	116,101	57,350
250,917	0,435	115,873	57,343
251,932	0,483	115,938	57,388
252,947	0,307	115,880	57,287
253,961	0,135	115,723	57,139
254,976	0,357	115,498	57,107
255,990	0,162	115,621	57,089
257,005	0,067	115,490	56,982
258,020	0,578	115,388	57,121
259,034	0,645	115,333	57,115
260,049	0,678	115,218	57,065
261,063	0,058	115,133	56,782
262,078	0,563	115,077	56,941
263,093	0,338	114,953	56,789
264,107	0,258	114,985	56,770
265,122	1,037	114,759	56,948
266,136	0,411	114,749	56,701
267,151	0,721	114,617	56,748
268,166	0,770	114,503	56,705
269,180	1,031	114,399	56,747
270,195	0,572	114,336	56,538
271,209	0,605	114,340	56,547
272,224	0,429	114,280	56,446
273,239	0,898	114,137	56,547
274,253	0,679	114,102	56,442
275,268	0,528	113,924	56,292
276,282	0,530	113,927	56,290
277,297	0,788	113,865	56,351
278,312	0,727	113,729	56,256
279,326	0,725	113,635	56,203
280,341	0,911	113,624	56,262
281,355	0,638	113,673	56,179
282,370	0,392	113,559	56,026
283,384	0,480	113,409	55,980
284,399	0,594	113,369	55,998
285,414	0,468	113,335	55,929
286,428	0,543	113,222	55,896
287,443	0,945	113,242	56,051
288,457	0,812	113,112	55,932
289,472	0,677	113,160	55,900
290,487	0,494	112,975	55,736
291,501	0,817	112,892	55,810
292,516	0,618	112,866	55,718
293,530	0,667	112,725	55,662
294,545	0,619	112,771	55,662
295,560	0,869	112,490	55,610
296,574	0,357	112,537	55,439
297,589	0,972	112,399	55,594
298,603	0,436	112,300	55,342
299,618	0,960	112,137	55,450
300,633	1,084	112,293	55,568
301,647	0,431	112,144	55,249
302,662	0,830	112,093	55,365
303,676	0,745	112,080	55,323
304,691	0,459	111,985	55,166
305,706	0,683	111,790	55,147
306,720	1,096	111,727	55,263
307,735	0,874	111,783	55,204
308,749	0,639	111,596	55,021
309,764	1,161	111,558	55,188
310,779	0,576	111,406	54,894
311,793	0,665	111,406	54,922
312,808	0,696	111,287	54,869
313,822	1,015	111,364	55,019
314,837	1,154	111,034	54,901
315,852	0,732	111,090	54,771
316,866	0,826	111,113	54,812
317,881	0,588	110,970	54,650
318,895	0,708	110,915	54,661
319,910	0,758	110,861	54,648
320,925	0,948	110,689	54,627
321,939	0,721	110,647	54,519
322,954	0,949	110,644	54,596
323,968	1,389	110,468	54,663
324,983	1,324	110,441	54,621
325,997	1,232	110,411	54,568
327,012	0,641	110,288	54,289
328,027	0,956	110,163	54,336
329,041	1,467	110,203	54,536
330,056	1,226	110,099	54,392
331,070	0,823	110,103	54,244
332,085	0,845	110,053	54,223
333,100	1,162	109,768	54,191
334,114	0,945	109,816	54,132
335,129	1,173	109,731	54,168
336,143	0,995	109,629	54,049
337,158	1,257	109,691	54,168
338,173	1,258	109,590	54,114
339,187	0,682	109,446	53,832
340,202	1,240	109,408	54,008
341,216	1,517	109,301	54,050
342,231	1,351	109,213	53,942
343,246	1,354	109,095	53,880
344,260	0,974	109,133	53,758
345,275	0,882	109,167	53,737
346,289	1,240	108,967	53,761
347,304	1,587	108,830	53,812
348,319	1,215	108,736	53,629
349,333	1,089	108,691	53,557
350,348	0,423	108,793	53,366
351,362	1,155	108,567	53,510
352,377	1,289	108,538	53,539
353,392	1,335	108,540	53,551
354,406	1,551	108,518	53,612
355,421	198,129	1317,857	1389,254
356,435	155,304	1465,641	1389,704
