DTS Sentinel unit serial number:	SN410029Multiplexer serial number:	ORYXHardware model number:	OX2-SRSoftware version number:	ORYX F/W v4,00 Oryx Data Collector v3.7.2.0data status	okinstallation	B3 Nyhavnadifferential loss correction	single-endedforward channel	channel 1reverse channel	N/Adate	2023/11/28time	11:02:30forward acquisition time	300,00reverse acquisition time	0,00gamma	499,1914k internal	0,3153k external	0,3153temperature offset calibration	1,0000default loss term (dB/km)	0,3820temperature slope calibration	1,0000multiplexer offset coefficient	1,0000multiplexer slope coefficient	1,0000fibre end	0,00T internal ref (°C)	9,47T ext. ref 1 (°C)	-7,33T ext. ref 2 (°C)	-7,55length (m)	temperature (°C)	Stokes	anti-Stokes-744,400	800,000	-0,106	-0,287
-743,385	-200,000	-0,031	0,323
-742,371	18,999	-0,204	-0,121
-741,356	-200,000	0,044	0,262
-740,342	493,890	-0,112	-0,190
-739,327	-200,000	0,001	0,274
-738,312	-5,510	-0,304	-0,154
-737,298	500,628	-0,150	0,256
-736,283	177,489	-0,189	-0,204
-735,269	800,000	0,113	0,326
-734,254	158,400	-0,248	-0,254
-733,239	356,366	-0,112	0,165
-732,225	403,639	-0,073	-0,113
-731,210	-18,184	0,087	0,040
-730,196	800,000	-0,047	-0,103
-729,181	134,117	0,048	-0,046
-728,167	79,616	-0,012	-0,010
-727,152	25,247	0,074	-0,045
-726,137	-146,699	-0,164	-0,010
-725,123	220,090	0,040	-0,048
-724,108	-118,534	-0,270	-0,035
-723,094	18,802	-0,073	0,043
-722,079	76,347	-0,104	-0,081
-721,064	800,000	0,032	0,067
-720,050	-7,940	0,067	-0,033
-719,035	-89,614	-0,104	-0,022
-718,021	-54,513	-0,155	-0,051
-717,006	-3,937	-0,165	0,084
-715,991	-93,739	-0,016	0,003
-714,977	-200,000	-0,003	0,018
-713,962	707,238	0,029	0,057
-712,948	-200,000	0,013	-0,079
-711,933	-200,000	-0,008	0,089
-710,918	-130,197	-0,069	0,007
-709,904	39,396	-0,139	-0,092
-708,889	-175,870	-0,186	-0,004
-707,875	-200,000	0,018	0,166
-706,860	123,160	-0,111	0,103
-705,845	-148,753	-0,126	-0,007
-704,831	-200,000	0,002	0,012
-703,816	405,269	-0,053	-0,083
-702,802	-26,763	0,096	-0,041
-701,787	-117,841	-0,252	0,033
-700,772	800,000	-0,023	-0,047
-699,758	-97,190	-0,065	0,012
-698,743	633,068	0,000	-0,000
-697,729	11,873	0,058	0,033
-696,714	110,165	-0,074	-0,066
-695,699	-139,674	-0,042	0,003
-694,685	-37,474	-0,096	-0,037
-693,670	13,443	-0,096	0,055
-692,656	197,174	0,120	-0,135
-691,641	-200,000	-0,017	-0,180
-690,627	-161,783	0,100	0,004
-689,612	-67,589	-0,059	0,017
-688,597	234,469	0,085	0,104
-687,583	-15,015	-0,053	-0,025
-686,568	-200,000	-0,006	-0,116
-685,554	-200,000	0,034	-0,140
-684,539	-200,000	0,006	0,160
-683,524	-200,000	0,021	-0,082
-682,510	-165,306	0,133	-0,004
-681,495	-200,000	-0,028	0,103
-680,481	-200,000	-0,007	-0,039
-679,466	-200,000	-0,012	-0,066
-678,451	240,092	0,024	-0,030
-677,437	-200,000	0,029	0,205
-676,422	-14,518	0,008	-0,004
-675,408	435,208	0,032	0,051
-674,393	-200,000	-0,013	-0,095
-673,378	800,000	-0,043	-0,117
-672,364	97,516	-0,136	-0,115
-671,349	-104,282	-0,173	-0,029
-670,335	195,909	-0,064	0,072
-669,320	737,985	0,055	-0,110
-668,305	800,000	0,043	0,097
-667,291	-0,982	-0,109	-0,057
-666,276	-200,000	0,016	-0,075
-665,262	-200,000	-0,019	-0,085
-664,247	86,635	0,149	-0,121
-663,232	-34,586	-0,165	-0,066
-662,218	-41,282	0,026	-0,010
-661,203	800,000	-0,010	-0,031
-660,189	-128,454	-0,084	-0,009
-659,174	-66,389	-0,065	-0,019
-658,159	651,272	0,046	-0,088
-657,145	234,277	-0,023	0,027
-656,130	76,724	-0,071	0,055
-655,116	11,259	0,063	-0,035
-654,101	345,730	-0,035	-0,051
-653,086	-200,000	0,019	0,103
-652,072	508,978	-0,071	-0,121
-651,057	800,000	0,018	-0,056
-650,043	91,743	-0,080	-0,066
-649,028	69,941	0,108	-0,082
-648,014	-5,763	-0,057	0,028
-646,999	-150,431	-0,131	0,007
-645,984	301,050	0,095	-0,129
-644,970	93,386	-0,047	-0,039
-643,955	800,000	-0,056	-0,141
-642,941	-200,000	-0,001	-0,085
-641,926	-200,000	-0,031	0,120
-640,911	77,782	0,078	0,061
-639,897	56,965	0,070	0,050
-638,882	-57,366	-0,078	0,025
-637,868	152,622	-0,053	-0,053
-636,853	-200,000	-0,019	0,077
-635,838	800,000	-0,049	0,117
-634,824	800,000	0,048	-0,130
-633,809	166,818	0,059	-0,061
-632,795	142,745	0,172	0,168
-631,780	230,058	-0,060	0,072
-630,765	-200,000	-0,008	0,111
-629,751	-121,693	0,116	0,014
-628,736	61,930	0,088	0,064
-627,722	-200,000	0,000	-0,096
-626,707	8,847	0,042	-0,023
-625,692	-53,781	-0,085	0,028
-624,678	-200,000	-0,015	-0,109
-623,663	17,001	-0,040	0,023
-622,649	13,801	-0,049	-0,028
-621,634	-91,070	-0,059	-0,012
-620,619	-200,000	0,000	0,027
-619,605	-67,685	-0,154	0,044
-618,590	324,153	0,004	-0,006
-617,576	-200,000	0,002	0,064
-616,561	138,372	0,060	-0,058
-615,546	-200,000	-0,009	0,090
-614,532	-55,126	-0,148	0,049
-613,517	-76,172	0,116	0,030
-612,503	1,369	-0,031	0,016
-611,488	-151,664	-0,104	-0,006
-610,474	84,099	0,053	-0,043
-609,459	-185,566	-0,059	0,001
-608,444	100,113	-0,026	0,022
-607,430	-200,000	0,016	-0,176
-606,415	212,451	-0,029	-0,034
-605,401	-142,999	0,054	0,004
-604,386	-200,000	0,008	0,034
-603,371	-30,425	0,137	0,057
-602,357	-30,194	-0,056	-0,023
-601,342	-200,000	0,034	0,150
-600,328	800,000	-0,066	-0,143
-599,313	-150,462	-0,117	0,006
-598,298	-200,000	-0,017	0,074
-597,284	-200,000	0,013	-0,049
-596,269	-200,000	0,009	0,083
-595,255	-97,691	0,147	-0,028
-594,240	800,000	-0,027	0,055
-593,225	800,000	0,022	0,052
-592,211	467,200	-0,011	0,018
-591,196	-14,935	0,109	-0,051
-590,182	-84,397	-0,069	-0,016
-589,167	-58,191	0,097	-0,031
-588,152	339,173	-0,041	-0,059
-587,138	-200,000	0,027	-0,114
-586,123	800,000	0,024	0,053
-585,109	-200,000	0,007	-0,038
-584,094	354,381	-0,036	-0,053
-583,079	-163,523	0,092	-0,003
-582,065	-93,706	0,084	0,017
-581,050	-200,000	-0,012	-0,075
-580,036	47,946	-0,163	0,112
-579,021	51,019	-0,091	0,063
-578,006	-80,916	0,077	-0,019
-576,992	-200,000	-0,001	-0,108
-575,977	-200,000	0,007	0,099
-574,963	390,256	-0,019	0,029
-573,948	193,798	0,133	0,148
-572,934	-200,000	-0,091	-0,000
-571,919	-79,670	-0,127	-0,031
-570,904	-5,552	-0,067	-0,034
-569,890	-200,000	0,002	0,032
-568,875	-32,310	-0,076	0,031
-567,861	-50,941	0,038	0,013
-566,846	-200,000	0,003	-0,027
-565,831	-73,484	0,138	0,037
-564,817	-138,807	-0,134	0,011
-563,802	-105,468	0,036	-0,006
-562,788	533,829	0,122	-0,212
-561,773	-200,000	-0,014	-0,088
-560,758	-151,929	0,057	0,003
-559,744	112,448	0,079	-0,070
-558,729	66,080	0,007	-0,005
-557,715	-30,094	-0,064	0,027
-556,700	800,000	0,018	0,045
-555,685	-200,000	0,007	-0,108
-554,671	37,976	-0,043	0,028
-553,656	572,621	0,087	0,156
-552,642	70,112	-0,051	0,038
-551,627	90,976	-0,037	-0,031
-550,612	800,000	0,053	-0,140
-549,598	800,000	0,006	-0,015
-548,583	-23,427	-0,063	0,028
-547,569	522,450	-0,046	0,079
-546,554	-121,558	0,118	0,014
-545,539	27,126	0,117	0,072
-544,525	800,000	-0,039	-0,083
-543,510	-105,759	-0,089	-0,015
-542,496	800,000	0,022	-0,047
-541,481	-200,000	0,030	-0,195
-540,466	-66,597	0,058	0,017
-539,452	66,526	-0,089	0,066
-538,437	92,972	0,150	0,124
-537,423	800,000	0,014	-0,041
-536,408	-200,000	0,034	0,110
-535,393	4,422	0,070	-0,038
-534,379	-200,000	0,004	-0,076
-533,364	61,983	0,053	0,038
-532,350	151,300	0,052	-0,052
-531,335	555,373	0,065	0,114
-530,321	643,429	-0,018	0,035
-529,306	-119,606	-0,080	0,010
-528,291	-113,310	-0,106	-0,015
-527,277	95,949	-0,058	0,049
-526,262	-5,073	-0,093	-0,047
-525,248	256,528	-0,024	0,031
-524,233	-200,000	-0,006	0,100
-523,218	193,350	0,052	-0,058
-522,204	187,308	-0,044	-0,048
-521,189	126,605	-0,130	-0,121
-520,175	68,157	-0,059	0,044
-519,160	-40,141	-0,131	-0,050
-518,145	-78,449	-0,092	0,023
-517,131	800,000	0,031	0,064
-516,116	13,723	0,073	-0,041
-515,102	230,574	-0,063	-0,075
-514,087	-200,000	-0,017	-0,135
-513,072	-200,000	-0,016	-0,054
-512,058	704,425	0,031	-0,060
-511,043	-200,000	0,092	-0,000
-510,029	-122,479	0,099	-0,012
-509,014	762,597	0,032	0,063
-507,999	800,000	-0,032	0,074
-506,985	96,872	-0,031	0,026
-505,970	-35,169	-0,101	-0,040
-504,956	-200,000	-0,031	-0,105
-503,941	-200,000	0,020	-0,093
-502,926	348,150	-0,092	0,133
-501,912	-200,000	0,013	0,047
-500,897	85,600	-0,031	0,025
-499,883	269,144	-0,036	0,046
-498,868	767,817	-0,042	-0,083
-497,853	-141,519	0,052	-0,004
-496,839	701,204	-0,008	0,015
-495,824	800,000	0,062	-0,138
-494,810	100,940	0,055	0,047
-493,795	800,000	-0,027	0,077
-492,781	109,169	-0,060	0,052
-491,766	461,707	-0,089	-0,145
-490,751	231,807	-0,060	-0,072
-489,737	-52,479	0,121	0,041
-488,722	-200,000	0,009	0,184
-487,708	800,000	0,018	0,052
-486,693	237,041	-0,057	0,069
-485,678	86,581	0,065	-0,052
-484,664	-74,825	-0,015	0,004
-483,649	-18,447	-0,087	-0,040
-482,635	-200,000	0,015	-0,073
-481,620	79,889	0,084	0,066
-480,605	-200,000	-0,004	0,042
-479,591	-187,484	0,160	-0,002
-478,576	-154,340	-0,160	-0,008
-477,562	52,161	0,061	0,043
-476,547	-160,634	-0,081	-0,003
-475,532	-200,000	-0,033	-0,139
-474,518	-137,559	0,097	-0,008
-473,503	-93,614	0,051	0,010
-472,489	-200,000	-0,003	0,042
-471,474	800,000	-0,053	-0,119
-470,459	78,061	0,046	-0,036
-469,445	-200,000	-0,006	-0,082
-468,430	160,586	-0,059	-0,061
-467,416	-200,000	-0,036	0,143
-466,401	-126,348	0,073	-0,008
-465,386	800,000	-0,033	0,085
-464,372	-131,055	0,083	-0,008
-463,357	800,000	0,020	-0,059
-462,343	54,000	-0,049	-0,034
-461,328	-59,187	-0,101	0,032
-460,313	-122,779	0,100	-0,012
-459,299	575,226	0,103	0,184
-458,284	-100,322	0,129	0,023
-457,270	21,152	0,092	-0,054
-456,255	73,315	-0,084	0,064
-455,241	37,814	-0,033	-0,022
-454,226	-200,000	0,006	-0,158
-453,211	30,427	-0,081	-0,050
-452,197	51,024	-0,041	-0,028
-451,182	-200,000	0,011	-0,058
-450,168	-188,888	0,046	-0,000
-449,153	53,466	0,037	-0,026
-448,138	670,570	0,023	-0,043
-447,124	461,522	0,024	0,039
-446,109	-84,060	-0,103	0,024
-445,095	605,023	0,056	0,102
-444,080	-200,000	0,002	0,062
-443,065	-200,000	0,017	0,069
-442,051	-200,000	-0,008	-0,031
-441,036	236,959	-0,034	0,041
-440,022	180,532	-0,159	-0,171
-439,007	-200,000	-0,017	-0,106
-437,992	-21,026	-0,109	0,049
-436,978	116,822	0,069	0,062
-435,963	-70,731	0,076	-0,021
-434,949	-107,235	0,068	0,011
-433,934	-12,345	0,011	-0,005
-432,919	800,000	-0,070	-0,150
-431,905	-200,000	-0,017	0,166
-430,890	-24,690	0,012	-0,005
-429,876	-88,120	0,082	0,018
-428,861	-104,481	0,066	0,011
-427,846	800,000	0,033	-0,090
-426,832	-200,000	-0,002	0,022
-425,817	-200,000	-0,000	-0,126
-424,803	-113,614	-0,077	-0,011
-423,788	106,438	0,119	0,103
-422,773	800,000	-0,013	-0,034
-421,759	333,783	0,098	0,139
-420,744	-200,000	-0,009	-0,066
-419,730	-89,977	0,124	-0,026
-418,715	-30,801	0,092	-0,038
-417,701	13,141	0,105	-0,059
-416,686	198,452	-0,041	0,046
-415,671	-200,000	0,004	0,056
-414,657	241,503	-0,116	0,141
-413,642	-4,505	0,112	-0,056
-412,628	-34,655	-0,106	0,042
-411,613	-200,000	-0,011	-0,100
-410,598	13,059	0,121	0,068
-409,584	533,280	0,012	0,021
-408,569	480,854	0,052	0,086
-407,555	24,550	0,105	0,063
-406,540	75,831	0,112	-0,086
-405,525	570,813	-0,047	0,084
-404,511	-19,053	-0,086	-0,039
-403,496	-200,000	-0,003	0,155
-402,482	800,000	-0,051	0,137
-401,467	338,680	0,023	0,032
-400,452	13,343	0,061	-0,035
-399,438	800,000	0,040	0,093
-398,423	-96,628	-0,152	0,029
-397,409	549,459	-0,034	-0,060
-396,394	-200,000	0,011	-0,101
-395,379	-87,254	-0,012	0,003
-394,365	-138,453	-0,090	-0,007
-393,350	-2,273	0,060	0,031
-392,336	-35,767	0,083	0,032
-391,321	800,000	0,057	0,116
-390,306	314,854	-0,054	-0,074
-389,292	-100,578	-0,108	-0,019
-388,277	-2,398	0,058	0,030
-387,263	800,000	0,043	-0,092
-386,248	800,000	-0,021	0,046
-385,233	621,893	-0,028	0,052
-384,219	-28,402	-0,048	0,020
-383,204	350,460	-0,043	-0,063
-382,190	-200,000	0,034	0,119
-381,175	83,008	-0,073	0,058
-380,160	-20,965	0,066	-0,029
-379,146	-200,000	0,007	0,146
-378,131	94,683	-0,036	-0,030
-377,117	130,909	0,111	-0,104
-376,102	-39,201	0,045	0,017
-375,088	24,218	0,118	-0,070
-374,073	-200,000	0,122	0,000
-373,058	617,363	0,044	-0,080
-372,044	-143,059	0,098	-0,007
-371,029	458,667	0,046	0,074
-370,015	168,583	-0,073	0,075
-369,000	-200,000	-0,007	0,034
-367,985	800,000	0,050	-0,103
-366,971	-200,000	0,002	-0,063
-365,956	-50,642	0,184	-0,063
-364,942	-200,000	0,023	0,146
-363,927	45,020	0,046	0,031
-362,912	670,932	-0,086	0,163
-361,898	-183,078	0,093	0,001
-360,883	-177,071	-0,221	0,004
-359,869	-200,000	-0,010	0,034
-358,854	78,889	0,037	-0,029
-357,839	-48,346	-0,031	0,011
-356,825	-200,000	0,000	0,047
-355,810	-58,339	-0,163	-0,051
-354,796	257,678	0,038	0,048
-353,781	-200,000	0,019	-0,117
-352,766	119,935	-0,096	-0,087
-351,752	800,000	0,030	-0,097
-350,737	-200,000	-0,012	0,067
-349,723	32,150	-0,095	0,059
-348,708	318,475	0,054	0,074
-347,693	-164,326	0,109	0,004
-346,679	140,373	0,091	-0,087
-345,664	-200,000	0,002	-0,081
-344,650	800,000	0,022	-0,052
-343,635	38,907	-0,103	-0,067
-342,620	194,966	0,114	-0,126
-341,606	-200,000	-0,003	0,149
-340,591	-107,811	-0,117	-0,018
-339,577	-200,000	-0,010	-0,101
-338,562	-116,700	-0,148	-0,020
-337,548	3,260	0,085	-0,045
-336,533	-173,068	-0,036	0,001
-335,518	-200,000	-0,005	0,087
-334,504	800,000	0,034	-0,080
-333,489	58,069	-0,115	0,082
-332,475	111,479	0,161	-0,141
-331,460	-88,415	-0,064	-0,014
-330,445	-171,772	-0,048	0,001
-329,431	-64,378	0,034	0,010
-328,416	800,000	0,023	0,066
-327,402	-118,448	0,170	0,022
-326,387	800,000	-0,051	0,117
-325,372	416,805	-0,055	-0,085
-324,358	69,827	0,110	-0,082
-323,343	-103,124	0,132	0,022
-322,329	800,000	-0,052	0,122
-321,314	-72,861	0,094	-0,025
-320,299	-200,000	-0,016	-0,103
-319,285	96,150	0,067	-0,055
-318,270	-200,000	-0,008	-0,041
-317,256	25,676	-0,154	-0,093
-316,241	-200,000	0,011	-0,056
-315,226	-200,000	0,010	-0,098
-314,212	524,369	-0,017	-0,029
-313,197	393,732	-0,033	0,050
-312,183	65,121	0,076	-0,056
-311,168	375,111	-0,067	0,100
-310,153	-90,216	-0,121	0,025
-309,139	-67,528	-0,108	-0,030
-308,124	567,780	-0,006	0,011
-307,110	-200,000	-0,005	0,116
-306,095	332,346	0,091	0,128
-305,080	800,000	0,049	0,146
-304,066	557,599	0,025	-0,045
-303,051	800,000	0,073	0,158
-302,037	130,148	-0,056	-0,052
-301,022	54,973	-0,096	-0,067
-300,008	-200,000	-0,011	0,127
-298,993	8,129	-0,158	0,086
-297,978	-200,000	-0,003	-0,172
-296,964	-109,092	-0,029	0,004
-295,949	756,973	-0,042	-0,083
-294,935	96,538	-0,132	0,110
-293,920	61,877	0,048	-0,034
-292,905	-171,912	0,071	-0,002
-291,891	800,000	-0,039	0,112
-290,876	43,014	0,121	0,080
-289,862	127,892	-0,119	0,109
-288,847	-200,000	0,013	-0,098
-287,832	210,930	0,058	-0,066
-286,818	-2,949	0,111	-0,056
-285,803	-20,638	-0,053	-0,023
-284,789	-19,926	-0,120	0,053
-283,774	-200,000	-0,000	0,049
-282,759	549,654	-0,044	0,076
-281,745	-171,504	0,034	0,001
-280,730	-53,729	-0,101	0,033
-279,716	800,000	0,019	0,053
-278,701	-200,000	-0,000	0,128
-277,686	-85,361	0,128	-0,029
-276,672	267,946	-0,084	0,107
-275,657	51,727	0,135	0,093
-274,643	492,718	-0,105	-0,175
-273,628	-136,511	-0,135	0,011
-272,613	18,581	0,164	0,095
-271,599	-200,000	-0,016	-0,101
-270,584	70,983	0,045	0,034
-269,570	-88,306	0,120	-0,026
-268,555	-23,067	0,060	0,026
-267,540	273,726	0,017	0,022
-266,526	593,513	-0,027	-0,049
-265,511	401,736	0,006	-0,009
-264,497	-165,035	-0,065	0,002
-263,482	-34,138	0,032	-0,013
-262,467	800,000	-0,033	0,099
-261,453	-167,894	-0,141	0,004
-260,438	239,957	0,045	-0,055
-259,424	-200,000	-0,009	-0,142
-258,409	213,404	0,057	-0,066
-257,395	-72,010	-0,111	-0,030
-256,380	-129,281	0,078	-0,008
-255,365	-200,000	0,011	0,096
-254,351	351,431	0,079	-0,114
-253,336	-200,000	-0,022	-0,107
-252,322	172,246	-0,044	0,046
-251,307	-200,000	-0,014	0,049
-250,292	800,000	-0,022	0,051
-249,278	21,985	0,162	0,096
-248,263	800,000	-0,036	-0,102
-247,249	540,173	-0,062	0,107
-246,234	87,633	-0,097	-0,078
-245,219	-200,000	0,009	0,088
-244,205	23,699	0,066	0,039
-243,190	800,000	0,009	-0,029
-242,176	800,000	-0,029	-0,093
-241,161	-94,280	0,100	0,020
-240,146	-200,000	0,006	0,097
-239,132	414,226	0,079	-0,121
-238,117	-10,642	-0,239	0,114
-237,103	1,487	0,059	-0,031
-236,088	-123,118	-0,095	0,011
-235,073	110,613	0,108	0,094
-234,059	-200,000	0,021	-0,121
-233,044	116,965	0,047	0,042
-232,030	-200,000	-0,001	-0,101
-231,015	-94,333	-0,224	-0,044
-230,000	27,675	-0,038	0,023
-228,986	596,680	0,020	0,036
-227,971	-88,822	0,132	0,028
-226,957	800,000	0,048	0,112
-225,942	129,180	0,162	0,150
-224,927	-102,993	0,030	-0,005
-223,913	-129,923	-0,099	-0,010
-222,898	-161,707	-0,046	0,002
-221,884	258,847	0,058	-0,072
-220,869	118,282	-0,111	0,099
-219,855	559,584	-0,084	0,147
-218,840	15,756	0,100	0,057
-217,825	377,028	-0,033	0,049
-216,811	-188,196	-0,032	-0,000
-215,796	-12,169	-0,049	0,023
-214,782	-200,000	-0,015	-0,060
-213,767	332,547	0,030	0,042
-212,752	-111,975	-0,054	0,008
-211,738	492,931	0,046	0,076
-210,723	183,624	-0,112	-0,120
-209,709	-200,000	-0,018	0,079
-208,694	551,035	-0,103	-0,179
-207,679	-22,135	-0,087	-0,038
-206,665	800,000	-0,050	-0,158
-205,650	220,279	0,128	-0,149
-204,636	800,000	0,010	-0,020
-203,621	-200,000	-0,002	-0,052
-202,606	-200,000	0,042	-0,189
-201,592	309,831	-0,079	-0,108
-200,577	-26,783	-0,118	0,050
-199,563	-200,000	0,001	0,065
-198,548	-5,434	0,079	-0,039
-197,533	-25,421	-0,061	0,026
-196,519	800,000	-0,051	-0,162
-195,504	-200,000	-0,045	-0,161
-194,490	33,620	-0,088	0,055
-193,475	337,044	0,051	0,072
-192,460	3,874	-0,035	0,019
-191,446	-200,000	0,000	0,088
-190,431	-129,725	0,151	-0,015
-189,417	-200,000	-0,013	0,121
-188,402	800,000	0,030	-0,093
-187,387	139,199	-0,115	-0,109
-186,373	-200,000	0,004	0,055
-185,358	-145,171	-0,121	-0,008
-184,344	583,846	0,014	0,025
-183,329	-103,144	0,044	-0,007
-182,315	800,000	0,082	0,201
-181,300	124,255	-0,063	-0,057
-180,285	107,246	0,060	-0,052
-179,271	268,976	0,021	-0,027
-178,256	359,808	0,064	-0,092
-177,242	-7,762	0,157	0,076
-176,227	-200,000	-0,028	0,110
-175,212	54,664	-0,058	-0,040
-174,198	-160,301	0,009	0,000
-173,183	242,825	-0,060	-0,073
-172,169	800,000	0,065	-0,133
-171,154	-195,815	0,062	0,000
-170,139	-133,508	-0,125	-0,011
-169,125	472,901	0,021	0,035
-168,110	-159,286	0,178	-0,007
-167,096	-200,000	0,009	0,099
-166,081	-97,692	-0,079	0,015
-165,066	800,000	-0,046	-0,096
-164,052	34,888	-0,112	0,071
-163,037	304,487	-0,049	-0,066
-162,023	-76,416	-0,056	-0,014
-161,008	634,531	0,081	0,149
-159,993	756,850	-0,073	-0,144
-158,979	-200,000	0,047	-0,205
-157,964	-161,521	-0,090	0,003
-156,950	-82,737	0,034	-0,008
-155,935	41,351	-0,029	0,019
-154,920	-200,000	0,001	0,037
-153,906	-40,141	0,074	-0,028
-152,891	-200,000	-0,030	0,144
-151,877	-200,000	-0,024	0,084
-150,862	-191,670	-0,079	-0,001
-149,847	100,353	-0,097	-0,081
-148,833	728,557	-0,047	0,091
-147,818	-200,000	-0,000	0,087
-146,804	-200,000	-0,001	0,090
-145,789	-200,000	-0,002	-0,131
-144,775	53,500	-0,042	-0,029
-143,760	800,000	0,022	0,064
-142,745	-200,000	-0,018	-0,061
-141,731	-165,895	0,070	-0,002
-140,716	98,659	-0,032	-0,027
-139,702	-105,664	0,177	-0,029
-138,687	346,392	0,042	-0,060
-137,672	46,598	-0,094	-0,063
-136,658	29,383	-0,068	-0,042
-135,643	-200,000	0,012	0,107
-134,629	-49,808	-0,039	-0,013
-133,614	-18,571	0,104	0,046
-132,599	232,166	0,014	-0,017
-131,585	-57,954	0,080	-0,025
-130,570	800,000	0,028	-0,076
-129,556	737,905	-0,013	0,025
-128,541	-200,000	0,009	-0,149
-127,526	-200,000	-0,045	-0,155
-126,512	800,000	0,021	-0,046
-125,497	-200,000	-0,013	-0,067
-124,483	249,847	0,075	0,092
-123,468	1,296	-0,021	0,011
-122,453	-200,000	-0,009	-0,039
-121,439	-200,000	-0,026	0,000
-120,424	-200,000	-0,025	-0,100
-119,410	15,084	-0,041	0,023
-118,395	-103,168	-0,027	-0,005
-117,380	6,287	0,077	-0,041
-116,366	326,234	-0,027	-0,038
-115,351	46,078	-0,052	-0,034
-114,337	-200,000	0,020	-0,139
-113,322	-200,000	0,018	0,081
-112,307	-189,734	0,093	0,001
-111,293	315,262	0,085	0,115
-110,278	-66,220	-0,059	0,017
-109,264	92,819	0,086	-0,070
-108,249	-200,000	0,013	-0,045
-107,234	74,385	-0,049	-0,037
-106,220	800,000	-0,021	-0,061
-105,205	364,743	0,063	0,091
-104,191	40,066	0,058	-0,037
-103,176	-136,148	0,128	-0,011
-102,162	-200,000	0,001	0,092
-101,147	800,000	-0,065	0,161
-100,132	-200,000	-0,015	-0,051
-99,118	66,654	-0,105	-0,077
-98,103	-200,000	0,022	0,085
-97,089	108,570	-0,015	-0,012
-96,074	800,000	-0,031	0,061
-95,059	337,418	0,108	0,151
-94,045	800,000	0,033	-0,078
-93,030	-200,000	-0,003	-0,014
-92,016	-106,429	0,017	0,003
-91,001	-42,628	-0,108	-0,039
-89,986	-27,283	0,057	-0,024
-88,972	-200,000	-0,019	0,088
-87,957	31,284	0,116	0,071
-86,943	-200,000	-0,008	-0,085
-85,928	729,497	-0,039	-0,076
-84,913	-200,000	-0,016	0,078
-83,899	130,471	-0,066	0,061
-82,884	-101,014	0,145	0,025
-81,870	128,171	0,020	-0,018
-80,855	125,183	0,123	0,112
-79,840	-200,000	0,009	0,037
-78,826	521,905	0,023	0,038
-77,811	289,818	-0,044	-0,057
-76,797	-16,476	-0,201	-0,091
-75,782	-200,000	-0,001	0,115
-74,767	-40,176	0,122	0,046
-73,753	26,194	-0,144	0,086
-72,738	-1,365	0,084	0,042
-71,724	208,507	-0,056	-0,063
-70,709	-22,251	-0,101	0,044
-69,694	-200,000	-0,002	-0,056
-68,680	800,000	0,035	0,095
-67,665	673,250	0,076	0,142
-66,651	800,000	0,039	0,084
-65,636	-98,850	-0,177	0,032
-64,622	-44,657	-0,039	0,014
-63,607	308,101	-0,082	-0,110
-62,592	7,844	-0,084	-0,045
-61,578	-6,009	0,126	0,062
-60,563	30,034	-0,054	0,033
-59,549	271,422	0,134	0,170
-58,534	34,632	-2,056	-1,289
-57,519	502,245	-1,203	-2,005
-56,505	-200,000	-0,387	-4,321
-55,490	446,033	0,868	1,376
-54,476	800,000	5,261	11,561
-53,461	-200,000	21,621	343,430
-52,446	800,000	761,369	2350,281
-51,432	527,157	1660,402	2823,257
-50,417	72,525	1577,473	1180,881
-49,403	22,558	1093,254	641,169
-48,388	13,443	771,327	428,702
-47,373	27,544	731,631	441,231
-46,359	19,728	717,034	413,671
-45,344	9,665	712,757	386,992
-44,330	9,488	711,185	385,696
-43,315	9,408	709,889	384,786
-42,300	9,373	708,754	384,072
-41,286	9,370	707,985	383,631
-40,271	9,327	707,290	383,138
-39,257	9,367	706,383	382,725
-38,242	9,453	705,496	382,436
-37,227	9,465	704,817	382,081
-36,213	9,435	703,984	381,544
-35,198	9,515	702,833	381,095
-34,184	9,520	702,539	380,932
-33,169	9,418	701,808	380,277
-32,154	9,519	701,185	380,166
-31,140	9,600	699,943	379,668
-30,125	9,684	699,206	379,453
-29,111	9,484	698,801	378,744
-28,096	9,512	698,654	378,716
-27,082	9,355	698,190	378,080
-26,067	9,493	697,390	377,955
-25,052	9,413	696,855	377,461
-24,038	9,377	696,663	377,259
-23,023	9,534	695,435	376,949
-22,009	9,513	695,193	376,752
-20,994	9,552	694,215	376,299
-19,979	9,556	693,867	376,105
-18,965	9,498	693,392	375,698
-17,950	9,479	693,163	375,514
-16,936	9,416	692,567	375,029
-15,921	9,462	691,960	374,792
-14,906	9,473	691,088	374,330
-13,892	9,520	690,542	374,130
-12,877	9,481	690,206	373,842
-11,863	9,374	689,978	373,452
-10,848	9,341	689,559	373,135
-9,833	9,448	689,116	373,129
-8,819	9,508	688,482	372,913
-7,804	9,487	687,892	372,528
-6,790	9,348	687,549	372,004
-5,775	9,486	687,198	372,119
-4,760	9,378	686,610	371,535
-3,746	9,360	686,338	371,334
-2,731	9,072	686,135	370,539
-1,717	9,173	685,683	370,516
-0,702	9,255	684,878	370,256
0,313	9,412	680,906	369,026
1,327	13,888	654,364	364,515
2,342	23,090	525,404	308,896
3,356	16,899	290,527	164,758
4,371	-14,640	195,332	89,785
5,386	-18,096	183,805	82,297
6,400	-18,251	180,389	80,664
7,415	-17,291	178,741	80,510
8,429	-18,003	177,759	79,626
9,444	-18,428	176,989	79,016
10,459	-18,406	176,971	79,013
11,473	-18,380	176,237	78,694
12,488	-18,021	175,957	78,779
13,502	-17,997	175,527	78,594
14,517	-18,033	175,234	78,435
15,531	-18,362	174,766	78,020
16,546	-18,116	174,535	78,058
17,561	-18,283	174,382	77,883
18,575	-18,102	174,161	77,885
19,590	-18,399	173,843	77,559
20,604	-18,104	173,774	77,697
21,619	-18,197	173,392	77,464
22,634	-18,301	173,153	77,288
23,648	-18,035	172,841	77,300
24,663	-18,183	172,694	77,140
25,677	-18,079	172,606	77,155
26,692	-18,099	172,348	77,021
27,707	-18,353	172,316	76,850
28,721	-18,078	171,991	76,860
29,736	-18,269	171,820	76,665
30,750	-18,502	171,600	76,422
31,765	-18,326	171,441	76,448
32,780	-18,144	171,244	76,460
33,794	-18,200	171,127	76,368
34,809	-18,049	170,830	76,318
35,823	-18,307	170,728	76,114
36,838	-17,933	170,558	76,250
37,853	-17,981	170,343	76,119
38,867	-18,035	170,178	76,007
39,882	-17,883	169,970	75,996
40,896	-18,241	169,985	75,787
41,911	-17,900	169,718	75,860
42,926	-18,210	169,593	75,618
43,940	-18,030	169,294	75,581
44,955	-18,152	169,158	75,443
45,969	-18,170	169,110	75,405
46,984	-17,867	168,897	75,479
47,999	-17,767	168,804	75,488
49,013	-17,431	168,507	75,542
50,028	-17,779	168,437	75,303
51,042	-17,793	168,324	75,238
52,057	-17,857	168,246	75,160
53,071	-17,964	167,871	74,924
54,086	-17,779	167,903	75,038
55,101	-17,882	167,666	74,866
56,115	-17,832	167,481	74,806
57,130	-18,047	167,434	74,655
58,144	-18,527	167,367	74,343
59,159	-18,134	166,893	74,351
60,174	-18,437	167,004	74,220
61,188	-18,026	166,610	74,273
62,203	-18,122	166,548	74,184
63,217	-17,986	166,421	74,198
64,232	-18,080	166,380	74,120
65,247	-18,180	165,962	73,870
66,261	-18,599	166,073	73,675
67,276	-17,892	165,672	73,891
68,290	-18,142	165,837	73,816
69,305	-18,240	165,693	73,690
70,320	-18,107	165,461	73,656
71,334	-17,982	165,252	73,627
72,349	-18,103	165,028	73,452
73,363	-18,291	164,932	73,297
74,378	-18,199	164,656	73,219
75,393	-18,183	164,529	73,165
76,407	-17,986	164,472	73,244
77,422	-18,113	164,357	73,115
78,436	-17,970	164,173	73,107
79,451	-18,043	163,961	72,965
80,466	-17,936	163,999	73,035
81,480	-18,130	163,877	72,866
82,495	-17,953	163,792	72,921
83,509	-17,906	163,554	72,834
84,524	-17,878	163,504	72,822
85,539	-17,678	163,123	72,757
86,553	-17,844	163,147	72,668
87,568	-18,286	163,053	72,374
88,582	-17,832	162,859	72,534
89,597	-17,860	162,673	72,429
90,611	-18,065	162,701	72,321
91,626	-18,132	162,440	72,162
92,641	-18,102	162,465	72,183
93,655	-17,982	162,079	72,072
94,670	-18,237	162,038	71,906
95,684	-17,933	161,863	71,990
96,699	-18,167	161,764	71,810
97,714	-17,699	161,672	72,021
98,728	-18,182	161,570	71,702
99,743	-18,146	161,474	71,674
100,757	-17,972	161,329	71,698
101,772	-17,950	161,035	71,574
102,787	-18,047	161,064	71,527
103,801	-18,193	160,908	71,371
104,816	-17,785	160,714	71,502
105,830	-18,246	160,632	71,207
106,845	-18,132	160,500	71,205
107,860	-17,979	160,266	71,177
108,874	-18,007	160,170	71,114
109,889	-18,202	160,060	70,952
110,903	-18,240	159,942	70,873
111,918	-18,142	159,878	70,891
112,933	-17,799	159,712	70,998
113,947	-18,012	159,523	70,792
114,962	-17,881	159,529	70,859
115,976	-18,143	159,496	70,696
116,991	-17,903	159,089	70,639
118,006	-17,991	159,039	70,564
119,020	-17,728	158,955	70,662
120,035	-17,895	158,954	70,565
121,049	-18,307	158,698	70,223
122,064	-18,264	158,636	70,212
123,079	-18,227	158,443	70,140
124,093	-18,013	158,297	70,184
125,108	-17,815	158,108	70,201
126,122	-17,543	158,034	70,308
127,137	-17,805	157,914	70,108
128,151	-17,726	157,890	70,133
129,166	-17,758	157,621	69,991
130,181	-17,729	157,494	69,943
131,195	-17,803	157,323	69,822
132,210	-17,902	157,241	69,726
133,224	-18,057	157,099	69,574
134,239	-18,102	157,084	69,537
135,254	-18,030	156,950	69,510
136,268	-17,679	156,660	69,562
137,283	-17,752	156,557	69,471
138,297	-17,958	156,473	69,319
139,312	-18,036	156,344	69,214
140,327	-18,224	155,920	68,921
141,341	-18,883	155,687	68,463
142,356	-19,039	155,688	68,375
143,370	-17,882	155,844	69,049
144,385	-10,767	157,580	73,614
145,400	-3,851	158,937	77,959
146,414	-2,512	158,991	78,697
147,429	-1,919	159,070	79,048
148,443	-1,734	158,992	79,101
149,458	-1,748	159,036	79,108
150,473	-1,352	158,970	79,280
151,487	-1,243	158,763	79,228
152,502	-1,295	158,669	79,146
153,516	-1,131	158,603	79,194
154,531	-1,588	158,531	78,907
155,546	-1,004	158,310	79,101
156,560	-0,788	158,102	79,106
157,575	-0,960	158,034	78,973
158,589	-1,325	158,004	78,756
159,604	-1,456	157,832	78,594
160,619	-0,859	157,728	78,852
161,633	-0,736	157,611	78,852
162,648	-0,762	157,527	78,789
163,662	-0,892	157,514	78,707
164,677	-0,999	157,387	78,579
165,692	-1,017	157,371	78,555
166,706	-0,712	157,146	78,597
167,721	-1,030	157,136	78,417
168,735	-0,563	156,959	78,568
169,750	-0,650	156,863	78,467
170,764	-0,877	156,815	78,316
171,779	-0,819	156,702	78,284
172,794	-0,813	156,646	78,251
173,808	-0,669	156,469	78,232
174,823	-0,824	156,184	78,001
175,837	-0,736	156,217	78,057
176,852	-0,744	156,163	78,019
177,867	-0,670	156,002	77,970
178,881	-0,934	155,860	77,754
179,896	-0,926	155,901	77,772
180,910	-0,737	155,607	77,717
181,925	-0,487	155,486	77,780
182,940	-0,776	155,312	77,535
183,954	-0,831	155,279	77,484
184,969	-0,659	155,208	77,531
185,983	-0,711	155,070	77,428
186,998	-0,706	155,051	77,414
188,013	-0,890	154,996	77,284
189,027	-0,435	154,677	77,354
190,042	-0,351	154,706	77,406
191,056	-0,500	154,449	77,193
192,071	-0,508	154,499	77,207
193,086	-0,659	154,532	77,138
194,100	-0,408	154,260	77,125
195,115	-0,269	154,242	77,181
196,129	-0,280	154,001	77,048
197,144	-0,393	153,951	76,958
198,159	-0,445	153,760	76,829
199,173	-0,540	153,709	76,747
200,188	-0,346	153,643	76,808
201,202	-0,620	153,416	76,546
202,217	-0,385	153,420	76,662
203,232	-0,405	153,267	76,569
204,246	-0,218	153,049	76,549
205,261	-0,508	153,173	76,455
206,275	-0,527	153,074	76,389
207,290	-0,187	152,632	76,336
208,304	-0,077	152,644	76,391
209,319	-0,401	152,589	76,191
210,334	-0,474	152,552	76,129
211,348	-0,605	152,324	75,942
212,363	-0,285	152,195	76,033
213,377	-0,186	152,188	76,074
214,392	0,076	151,964	76,088
215,407	-0,387	151,999	75,863
216,421	-0,168	151,890	75,914
217,436	-0,272	151,733	75,776
218,450	-0,380	151,697	75,696
219,465	-0,152	151,494	75,703
220,480	-0,114	151,435	75,686
221,494	-0,184	151,428	75,641
222,509	-0,320	151,420	75,561
223,523	0,054	151,099	75,583
224,538	-0,349	151,013	75,330
225,553	-0,160	150,949	75,386
226,567	-0,289	150,780	75,231
227,582	-0,353	150,704	75,153
228,596	-0,268	150,628	75,152
229,611	-0,098	150,534	75,184
230,626	-0,056	150,352	75,107
231,640	-0,269	150,362	74,998
232,655	0,080	150,225	75,099
233,669	-0,146	150,054	74,893
234,684	-0,127	150,053	74,895
235,699	0,124	149,887	74,932
236,713	0,231	149,825	74,948
237,728	0,120	149,690	74,818
238,742	0,290	149,658	74,880
239,757	-0,004	149,441	74,619
240,772	0,076	149,335	74,598
241,786	-0,183	149,360	74,475
242,801	-0,118	149,310	74,476
243,815	0,033	149,148	74,464
244,830	0,177	149,094	74,502
245,844	0,240	148,990	74,475
246,859	-0,119	148,885	74,237
247,874	0,185	148,836	74,357
248,888	0,115	148,669	74,233
249,903	0,137	148,499	74,152
250,917	-0,083	148,465	74,019
251,932	-0,082	148,409	73,985
252,947	-0,042	148,250	73,919
253,961	0,200	148,075	73,945
254,976	0,087	148,104	73,896
255,990	0,198	147,963	73,875
257,005	-0,153	147,809	73,618
258,020	0,364	147,723	73,824
259,034	-0,036	147,727	73,622
260,049	0,090	147,597	73,612
261,063	-0,162	147,639	73,503
262,078	-0,080	147,455	73,445
263,093	0,329	147,264	73,544
264,107	0,162	147,170	73,408
265,122	0,029	147,110	73,307
266,136	0,212	146,940	73,305
267,151	-0,203	146,994	73,123
268,166	0,102	146,835	73,186
269,180	0,561	146,684	73,328
270,195	0,114	146,594	73,058
271,209	0,078	146,530	73,002
272,224	0,170	146,510	73,031
273,239	0,676	146,246	73,139
274,253	0,184	146,248	72,894
275,268	0,100	146,166	72,806
276,282	0,323	145,859	72,755
277,297	0,426	145,849	72,793
278,312	0,269	145,751	72,662
279,326	0,429	145,847	72,781
280,341	0,339	145,709	72,662
281,355	0,405	145,534	72,600
282,370	0,403	145,346	72,499
283,384	0,329	145,402	72,485
284,399	0,181	145,254	72,332
285,414	0,435	145,066	72,355
286,428	0,334	144,999	72,267
287,443	0,408	145,049	72,321
288,457	0,591	144,867	72,312
289,472	0,439	144,867	72,232
290,487	0,527	144,570	72,120
291,501	0,462	144,537	72,066
292,516	0,371	144,524	72,009
293,530	0,272	144,503	71,945
294,545	0,493	144,296	71,941
295,560	0,678	144,206	71,979
296,574	0,394	144,098	71,782
297,589	0,551	144,096	71,850
298,603	0,454	144,025	71,762
299,618	0,334	143,950	71,661
300,633	0,405	143,714	71,571
301,647	0,779	143,694	71,733
302,662	0,697	143,565	71,623
303,676	0,778	143,418	71,582
304,691	0,623	143,451	71,518
305,706	0,741	143,363	71,524
306,720	0,465	143,195	71,302
307,735	0,161	143,121	71,115
308,749	0,539	143,080	71,268
309,764	0,672	143,049	71,309
310,779	0,661	142,803	71,175
311,793	0,545	142,748	71,086
312,808	0,440	142,618	70,965
313,822	0,535	142,556	70,973
314,837	0,505	142,530	70,939
315,852	0,591	142,383	70,901
316,866	0,716	142,255	70,890
317,881	0,674	142,232	70,852
318,895	1,084	141,974	70,910
319,910	0,658	141,906	70,670
320,925	0,506	141,836	70,557
321,939	0,692	141,915	70,677
322,954	0,635	141,802	70,589
323,968	0,694	141,710	70,564
324,983	0,712	141,556	70,489
325,997	0,650	141,379	70,366
327,012	0,505	141,386	70,295
328,027	0,588	141,250	70,260
329,041	0,424	141,151	70,128
330,056	0,535	141,286	70,241
331,070	0,766	141,048	70,224
332,085	0,759	140,986	70,183
333,100	0,934	140,815	70,174
334,114	0,579	140,781	69,985
335,129	0,717	140,659	69,982
336,143	1,040	140,419	70,007
337,158	0,781	140,410	69,876
338,173	1,005	140,300	69,919
339,187	0,893	140,240	69,830
340,202	0,994	140,065	69,784
341,216	0,692	140,117	69,664
342,231	0,957	139,939	69,692
343,246	0,886	139,937	69,652
344,260	0,956	139,804	69,612
345,275	1,232	139,644	69,654
346,289	1,038	139,658	69,564
347,304	0,980	139,578	69,491
348,319	0,850	139,552	69,413
349,333	0,896	139,491	69,397
350,348	0,887	139,384	69,334
351,362	1,195	139,149	69,352
352,377	1,075	139,123	69,278
353,392	0,877	138,991	69,115
354,406	0,776	138,966	69,050
355,421	193,890	1320,591	1393,905
356,435	152,711	1465,032	1394,401
