DTS Sentinel unit serial number:	SN410029Multiplexer serial number:	ORYXHardware model number:	OX2-SRSoftware version number:	ORYX F/W v4,00 Oryx Data Collector v3.7.2.0data status	okinstallation	B3 Nyhavnadifferential loss correction	single-endedforward channel	channel 1reverse channel	N/Adate	2023/11/28time	10:52:30forward acquisition time	300,00reverse acquisition time	0,00gamma	499,1914k internal	0,3154k external	0,3154temperature offset calibration	1,0000default loss term (dB/km)	0,3820temperature slope calibration	1,0000multiplexer offset coefficient	1,0000multiplexer slope coefficient	1,0000fibre end	0,00T internal ref (°C)	9,59T ext. ref 1 (°C)	-7,39T ext. ref 2 (°C)	-7,61length (m)	temperature (°C)	Stokes	anti-Stokes-744,400	421,673	-0,194	-0,308
-743,385	-200,000	0,012	0,190
-742,371	76,314	-0,169	-0,132
-741,356	-200,000	0,065	0,309
-740,342	-34,241	-0,317	-0,128
-739,327	-200,000	-0,073	0,243
-738,312	800,000	-0,100	-0,253
-737,298	-200,000	0,055	0,298
-736,283	99,022	-0,283	-0,241
-735,269	631,860	0,106	0,198
-734,254	-200,000	-0,065	-0,229
-733,239	-1,222	-0,152	0,079
-732,225	-200,000	-0,019	-0,206
-731,210	-99,921	0,059	0,011
-730,196	-200,000	-0,031	-0,161
-729,181	80,588	-0,087	0,069
-728,167	-77,520	0,081	0,021
-727,152	-200,000	-0,011	-0,054
-726,137	-200,000	0,024	0,091
-725,123	72,593	-0,087	-0,067
-724,108	80,175	-0,123	-0,098
-723,094	800,000	-0,025	-0,070
-722,079	121,006	-0,040	0,037
-721,064	800,000	0,047	-0,144
-720,050	-200,000	0,016	0,153
-719,035	23,547	0,160	0,097
-718,021	-5,089	-0,067	0,034
-717,006	30,086	0,025	0,016
-715,991	800,000	-0,046	-0,128
-714,977	430,434	0,078	-0,126
-713,962	-105,328	0,062	0,010
-712,948	800,000	-0,039	0,108
-711,933	-200,000	0,040	0,165
-710,918	173,273	-0,084	0,089
-709,904	349,238	-0,059	0,086
-708,889	391,643	-0,049	-0,075
-707,875	-104,693	-0,058	-0,010
-706,860	-4,082	-0,054	0,027
-705,845	-139,030	0,167	0,013
-704,831	-200,000	0,001	-0,009
-703,816	175,096	-0,066	0,070
-702,802	800,000	-0,030	-0,096
-701,787	800,000	0,034	-0,106
-700,772	117,019	-0,075	-0,068
-699,758	-106,747	0,010	0,002
-698,743	156,538	-0,112	0,114
-697,729	-66,492	0,149	-0,043
-696,714	145,620	-0,073	0,072
-695,699	67,035	-0,091	0,068
-694,685	-105,250	-0,235	-0,039
-693,670	16,104	0,068	0,039
-692,656	-200,000	0,003	-0,074
-691,641	800,000	-0,028	0,089
-690,627	-200,000	0,020	0,122
-689,612	133,472	-0,090	0,086
-688,597	-3,381	0,127	-0,065
-687,583	365,485	-0,030	0,045
-686,568	-200,000	0,024	-0,094
-685,554	-90,436	-0,235	-0,050
-684,539	-128,432	0,049	-0,005
-683,524	438,060	-0,044	-0,071
-682,510	13,329	-0,167	0,095
-681,495	-200,000	-0,001	-0,046
-680,481	-200,000	0,024	-0,129
-679,466	-149,595	-0,137	-0,008
-678,451	-183,789	-0,094	-0,001
-677,437	-200,000	0,022	0,173
-676,422	85,303	-0,121	-0,098
-675,408	-196,772	0,104	-0,000
-674,393	203,688	0,045	0,052
-673,378	800,000	0,020	-0,044
-672,364	-158,699	-0,170	0,007
-671,349	117,049	0,035	0,031
-670,335	-136,320	-0,058	-0,005
-669,320	800,000	-0,072	0,149
-668,305	7,195	0,069	0,038
-667,291	368,533	-0,081	-0,121
-666,276	501,684	-0,019	-0,032
-665,262	-200,000	0,016	-0,106
-664,247	-94,787	-0,117	-0,023
-663,232	-200,000	-0,027	-0,106
-662,218	-200,000	0,010	0,055
-661,203	163,127	0,042	-0,043
-660,189	1,619	0,110	-0,058
-659,174	204,022	-0,055	-0,063
-658,159	353,339	0,104	-0,152
-657,145	405,737	-0,072	-0,112
-656,130	-167,951	-0,086	0,002
-655,116	22,792	-0,043	-0,026
-654,101	-200,000	-0,003	0,039
-653,086	9,984	0,082	-0,045
-652,072	-200,000	0,007	-0,094
-651,057	-200,000	-0,018	-0,070
-650,043	-200,000	-0,027	-0,145
-649,028	-71,588	-0,044	0,012
-648,014	658,178	0,025	0,047
-646,999	-172,301	0,050	-0,001
-645,984	72,539	-0,111	-0,085
-644,970	800,000	0,017	-0,048
-643,955	143,214	0,109	-0,107
-642,941	0,374	-0,024	-0,012
-641,926	-16,730	-0,082	0,038
-640,911	511,415	0,063	-0,108
-639,897	800,000	0,074	-0,162
-638,882	-112,471	-0,145	-0,021
-637,868	117,357	-0,100	0,091
-636,853	8,797	-0,070	-0,039
-635,838	495,787	-0,053	-0,090
-634,824	-200,000	0,012	-0,082
-633,809	116,168	-0,001	-0,001
-632,795	-200,000	0,001	0,151
-631,780	-109,408	0,070	0,011
-630,765	688,528	0,101	-0,194
-629,751	-200,000	-0,006	-0,119
-628,736	320,321	-0,059	-0,083
-627,722	-200,000	-0,020	-0,078
-626,707	124,533	-0,072	-0,066
-625,692	5,621	0,108	0,059
-624,678	800,000	-0,057	0,149
-623,663	-11,897	-0,085	-0,041
-622,649	-200,000	-0,052	-0,221
-621,634	-200,000	0,005	-0,081
-620,619	-200,000	-0,004	-0,157
-619,605	-170,831	0,086	-0,002
-618,590	-20,692	0,028	0,012
-617,576	-142,755	-0,039	-0,003
-616,561	144,400	0,089	-0,087
-615,546	-200,000	-0,003	-0,014
-614,532	-200,000	-0,022	-0,097
-613,517	193,342	-0,028	0,032
-612,503	-14,778	-0,046	0,022
-611,488	-71,637	-0,062	0,017
-610,474	-90,035	0,089	-0,019
-609,459	800,000	0,043	0,117
-608,444	352,340	0,024	-0,035
-607,430	541,933	0,045	-0,079
-606,415	-200,000	0,003	-0,017
-605,401	-99,317	0,050	0,009
-604,386	-200,000	-0,018	0,108
-603,371	87,161	0,084	-0,068
-602,357	-147,299	-0,119	0,007
-601,342	102,962	0,139	-0,119
-600,328	-200,000	-0,016	-0,280
-599,313	12,681	-0,091	-0,051
-598,298	88,933	0,038	0,031
-597,284	208,120	0,056	-0,065
-596,269	-200,000	-0,016	0,094
-595,255	-113,294	-0,079	0,011
-594,240	-37,075	-0,095	0,037
-593,225	-122,242	-0,066	0,008
-592,211	13,379	-0,096	-0,054
-591,196	32,604	0,108	-0,069
-590,182	-200,000	0,015	0,094
-589,167	283,479	-0,052	-0,069
-588,152	10,196	0,162	0,090
-587,138	-40,661	-0,029	-0,011
-586,123	-31,743	0,079	0,032
-585,109	8,160	0,090	-0,050
-584,094	373,226	0,071	-0,107
-583,079	520,614	-0,014	0,025
-582,065	800,000	0,067	-0,143
-581,050	-200,000	0,022	-0,102
-580,036	726,360	-0,041	0,080
-579,021	-172,323	-0,030	0,001
-578,006	800,000	-0,058	-0,126
-576,992	36,968	-0,105	0,068
-575,977	108,448	-0,089	0,077
-574,963	11,265	0,115	0,064
-573,948	-200,000	-0,002	0,049
-572,934	-73,392	-0,076	0,020
-571,919	39,579	-0,158	-0,104
-570,904	-200,000	-0,010	-0,086
-569,890	-8,210	0,081	0,040
-568,875	-200,000	0,015	0,074
-567,861	202,195	-0,033	0,038
-566,846	800,000	-0,007	0,023
-565,831	-200,000	0,024	0,120
-564,817	22,046	0,093	0,056
-563,802	15,109	-0,225	0,129
-562,788	800,000	0,035	-0,085
-561,773	173,265	0,036	-0,039
-560,758	201,837	0,080	0,091
-559,744	8,261	-0,073	0,040
-558,729	22,733	0,086	0,051
-557,715	150,852	-0,042	-0,042
-556,700	-185,985	-0,035	0,000
-555,685	69,361	-0,054	0,040
-554,671	733,301	-0,044	0,087
-553,656	-109,632	0,103	0,016
-552,642	-116,111	0,068	-0,009
-551,627	-162,201	0,067	0,002
-550,612	-28,264	-0,107	-0,045
-549,598	-200,000	0,006	0,061
-548,583	123,388	-0,068	-0,062
-547,569	-12,379	-0,011	-0,005
-546,554	-200,000	-0,026	-0,084
-545,539	-44,210	-0,129	0,047
-544,525	-7,231	-0,144	0,071
-543,510	-147,802	-0,069	0,004
-542,496	120,733	-0,029	-0,027
-541,481	-89,296	-0,147	0,031
-540,466	-200,000	-0,005	0,056
-539,452	566,866	0,056	-0,100
-538,437	-31,946	0,149	0,061
-537,423	800,000	-0,040	0,119
-536,408	-45,365	0,113	-0,041
-535,393	154,916	0,052	-0,053
-534,379	-44,728	0,038	0,014
-533,364	99,184	-0,043	0,036
-532,350	152,012	0,053	-0,053
-531,335	135,358	0,022	0,021
-530,321	145,752	-0,090	0,088
-529,306	-200,000	0,001	-0,069
-528,291	800,000	-0,041	-0,088
-527,277	-200,000	-0,011	-0,210
-526,262	-200,000	-0,081	0,000
-525,248	-200,000	0,007	-0,026
-524,233	-200,000	-0,028	0,129
-523,218	-200,000	0,002	-0,039
-522,204	-124,852	0,092	-0,010
-521,189	-200,000	-0,027	-0,112
-520,175	-104,707	-0,095	-0,016
-519,160	322,603	0,076	-0,107
-518,145	-107,765	0,116	-0,018
-517,131	-102,864	-0,109	-0,019
-516,116	-86,134	0,090	-0,020
-515,102	23,577	-0,070	0,042
-514,087	-33,484	-0,059	0,024
-513,072	-172,175	0,054	-0,001
-512,058	-31,072	-0,049	-0,020
-511,043	-95,760	0,133	-0,026
-510,029	18,076	0,099	0,058
-509,014	-81,055	0,065	-0,016
-507,999	143,479	0,066	0,064
-506,985	610,139	0,038	0,071
-505,970	-200,000	0,002	0,045
-504,956	800,000	0,038	-0,109
-503,941	-59,396	0,094	-0,029
-502,926	-200,000	-0,019	0,104
-501,912	-200,000	0,013	0,120
-500,897	-31,474	-0,169	0,069
-499,883	59,470	-0,080	-0,058
-498,868	479,279	0,035	-0,058
-497,853	800,000	-0,034	-0,074
-496,839	-200,000	-0,009	0,032
-495,824	99,903	0,092	0,078
-494,810	800,000	0,037	0,094
-493,795	674,142	0,045	-0,086
-492,781	-127,452	-0,032	-0,003
-491,766	-152,071	-0,156	0,008
-490,751	800,000	-0,025	0,075
-489,737	-200,000	-0,044	0,155
-488,722	72,550	-0,084	0,064
-487,708	-127,010	0,095	-0,010
-486,693	679,183	-0,048	0,092
-485,678	112,907	-0,082	-0,073
-484,664	53,605	-0,094	-0,066
-483,649	428,660	0,069	-0,110
-482,635	-121,019	0,123	-0,015
-481,620	-80,409	-0,061	0,015
-480,605	339,058	-0,014	0,020
-479,591	-57,219	0,055	0,017
-478,576	236,140	0,015	-0,018
-477,562	30,797	-0,060	0,037
-476,547	16,676	0,091	-0,052
-475,532	800,000	-0,037	0,093
-474,518	3,760	0,048	-0,025
-473,503	-200,000	-0,027	0,127
-472,489	-26,714	-0,092	0,039
-471,474	-106,654	-0,023	-0,004
-470,459	176,890	-0,071	-0,076
-469,445	-200,000	-0,040	-0,131
-468,430	542,384	-0,048	-0,083
-467,416	42,142	0,085	-0,056
-466,401	-200,000	0,018	0,119
-465,386	-89,226	0,046	-0,010
-464,372	-200,000	-0,010	-0,073
-463,357	160,634	0,056	0,057
-462,343	259,307	-0,025	-0,031
-461,328	219,703	-0,054	-0,064
-460,313	163,397	0,097	0,100
-459,299	30,454	0,066	0,041
-458,284	84,779	0,105	0,084
-457,270	446,818	-0,058	0,094
-456,255	57,852	-0,139	-0,099
-455,241	800,000	-0,051	-0,114
-454,226	-200,000	0,017	-0,081
-453,211	482,653	-0,018	0,030
-452,197	549,909	0,015	0,026
-451,182	-15,821	-0,092	0,043
-450,168	679,332	0,029	-0,055
-449,153	-135,074	0,013	0,001
-448,138	-200,000	-0,013	-0,144
-447,124	800,000	0,017	-0,052
-446,109	42,507	-0,086	-0,057
-445,095	-39,928	-0,124	0,047
-444,080	40,886	0,112	0,074
-443,065	142,295	0,036	-0,035
-442,051	347,969	-0,017	-0,025
-441,036	192,640	-0,150	-0,166
-440,022	-2,026	0,080	-0,041
-439,007	192,400	0,026	0,028
-437,992	1,742	0,066	-0,034
-436,978	-200,000	0,001	0,137
-435,963	800,000	-0,053	0,142
-434,949	291,519	0,008	-0,011
-433,934	470,676	-0,059	-0,097
-432,919	203,206	-0,045	-0,051
-431,905	800,000	-0,047	-0,106
-430,890	-60,182	0,095	-0,029
-429,876	-28,715	0,262	0,110
-428,861	800,000	-0,051	0,144
-427,846	216,720	-0,034	0,039
-426,832	-73,278	0,121	-0,032
-425,817	34,346	0,032	0,020
-424,803	-2,400	-0,160	-0,082
-423,788	800,000	0,038	-0,096
-422,773	232,305	0,101	0,121
-421,759	-200,000	-0,031	-0,103
-420,744	800,000	-0,013	-0,039
-419,730	-200,000	-0,012	0,059
-418,715	800,000	0,033	-0,085
-417,701	-129,155	-0,092	-0,009
-416,686	690,144	-0,049	0,095
-415,671	102,055	0,062	0,053
-414,657	65,228	0,032	0,023
-413,642	-134,995	-0,012	0,001
-412,628	158,838	-0,031	-0,032
-411,613	256,315	-0,079	0,099
-410,598	129,488	-0,077	-0,072
-409,584	-28,716	0,073	-0,031
-408,569	-200,000	-0,015	0,166
-407,555	800,000	0,017	0,042
-406,540	800,000	-0,030	-0,063
-405,525	59,325	0,079	0,056
-404,511	800,000	-0,063	-0,179
-403,496	-33,389	0,084	-0,034
-402,482	-200,000	-0,012	0,053
-401,467	-54,607	-0,096	0,031
-400,452	-62,655	0,055	-0,016
-399,438	-105,819	-0,102	0,017
-398,423	602,063	-0,051	0,093
-397,409	341,727	-0,076	-0,109
-396,394	54,316	-0,151	-0,106
-395,379	88,582	0,030	-0,024
-394,365	-47,925	0,169	0,059
-393,350	-200,000	-0,019	-0,076
-392,336	290,273	-0,047	-0,063
-391,321	306,786	-0,007	-0,010
-390,306	55,995	0,048	0,034
-389,292	800,000	0,031	-0,086
-388,277	-161,652	-0,141	-0,005
-387,263	734,175	0,035	0,069
-386,248	-99,999	0,103	0,019
-385,233	322,161	-0,053	0,074
-384,219	-176,046	0,043	0,001
-383,204	800,000	-0,027	-0,081
-382,190	183,670	-0,064	-0,069
-381,175	60,439	-0,024	0,017
-380,160	800,000	-0,041	0,115
-379,146	-46,306	0,097	0,034
-378,131	-163,682	-0,114	0,004
-377,117	-200,000	0,004	-0,035
-376,102	230,881	-0,113	-0,135
-375,088	-200,000	0,021	-0,153
-374,073	-41,641	-0,136	0,051
-373,058	-113,132	0,190	0,027
-372,044	800,000	-0,052	0,121
-371,029	-102,419	0,060	0,010
-370,015	22,408	-0,106	-0,063
-369,000	-23,926	-0,099	-0,043
-367,985	-168,684	0,094	0,003
-366,971	92,073	-0,123	0,101
-365,956	650,628	0,053	-0,099
-364,942	-200,000	0,023	0,137
-363,927	92,391	0,035	-0,029
-362,912	5,666	-0,032	0,017
-361,898	20,315	-0,031	0,018
-360,883	-200,000	0,009	-0,115
-359,869	207,847	0,026	-0,030
-358,854	138,017	0,041	0,039
-357,839	-200,000	0,010	0,063
-356,825	110,613	0,023	-0,020
-355,810	-200,000	0,008	0,119
-354,796	521,903	-0,023	0,040
-353,781	127,676	-0,079	0,073
-352,766	800,000	-0,019	0,041
-351,752	416,970	-0,044	0,068
-350,737	-94,537	0,123	0,024
-349,723	-200,000	0,003	-0,019
-348,708	-187,815	-0,134	0,001
-347,693	-26,145	0,121	-0,051
-346,679	32,445	-0,050	-0,031
-345,664	29,728	0,117	-0,072
-344,650	-200,000	0,007	0,181
-343,635	359,302	0,063	-0,092
-342,620	-15,348	0,035	0,016
-341,606	800,000	-0,037	0,078
-340,591	800,000	0,018	0,037
-339,577	-23,292	-0,215	-0,093
-338,562	800,000	0,011	0,033
-337,548	800,000	0,009	0,027
-336,533	51,469	0,040	0,028
-335,518	440,419	0,073	-0,117
-334,504	-28,245	-0,110	-0,046
-333,489	800,000	0,027	0,061
-332,475	211,467	-0,087	0,100
-331,460	-59,852	-0,084	0,026
-330,445	800,000	-0,004	-0,010
-329,431	800,000	0,007	-0,018
-328,416	-32,151	0,118	0,048
-327,402	510,697	-0,043	0,073
-326,387	-200,000	0,028	-0,200
-325,372	357,997	-0,033	0,049
-324,358	800,000	0,029	0,058
-323,343	-200,000	-0,026	-0,144
-322,329	-162,981	-0,042	-0,001
-321,314	-36,638	0,082	0,032
-320,299	-200,000	0,003	0,042
-319,285	-200,000	0,018	0,092
-318,270	511,368	-0,042	0,071
-317,256	-200,000	0,000	0,039
-316,241	-200,000	-0,026	-0,089
-315,226	-200,000	-0,000	-0,080
-314,212	-92,027	0,010	-0,002
-313,197	-200,000	-0,019	0,127
-312,183	-74,488	0,097	0,025
-311,168	156,632	-0,064	-0,065
-310,153	138,306	-0,107	-0,102
-309,139	-200,000	-0,021	-0,123
-308,124	-92,483	0,057	-0,012
-307,110	247,930	-0,021	-0,025
-306,095	223,549	0,125	0,146
-305,080	291,942	0,065	-0,087
-304,066	651,798	0,020	0,038
-303,051	-104,994	0,124	0,020
-302,037	-200,000	0,005	-0,059
-301,022	117,834	-0,053	0,047
-300,008	35,701	0,052	0,033
-298,993	162,336	0,087	0,088
-297,978	74,988	-0,091	0,070
-296,964	29,435	0,074	-0,045
-295,949	-200,000	-0,005	0,019
-294,935	-68,390	-0,093	-0,026
-293,920	34,090	0,050	0,031
-292,905	30,821	-0,133	-0,083
-291,891	187,299	0,084	0,091
-290,876	800,000	0,031	-0,091
-289,862	-200,000	0,022	0,144
-288,847	783,197	0,021	0,041
-287,832	-107,275	0,022	0,003
-286,818	158,072	0,080	0,080
-285,803	800,000	0,013	-0,035
-284,789	-200,000	0,017	0,091
-283,774	-3,154	-0,018	-0,009
-282,759	52,661	-0,054	-0,037
-281,745	-31,722	-0,075	0,030
-280,730	-116,684	0,064	-0,008
-279,716	-200,000	0,012	0,132
-278,701	-3,735	0,086	0,043
-277,686	27,619	0,046	-0,028
-276,672	783,062	0,076	0,151
-275,657	-168,803	-0,070	0,002
-274,643	555,492	-0,072	-0,127
-273,628	59,713	0,047	0,034
-272,613	324,568	-0,050	-0,069
-271,599	581,354	0,040	-0,072
-270,584	-200,000	0,020	0,111
-269,570	498,929	-0,004	0,007
-268,555	-200,000	0,008	0,038
-267,540	-91,024	-0,105	-0,022
-266,526	-180,106	0,062	-0,001
-265,511	117,915	-0,018	-0,016
-264,497	-200,000	0,001	-0,003
-263,482	361,019	0,079	-0,115
-262,467	-32,454	-0,149	0,060
-261,453	-131,641	0,120	-0,011
-260,438	97,485	-0,029	0,024
-259,424	-27,455	0,060	-0,025
-258,409	-54,056	-0,069	-0,023
-257,395	67,091	0,084	0,062
-256,380	-140,037	0,078	-0,006
-255,365	137,968	0,138	0,131
-254,351	-43,918	-0,166	-0,060
-253,336	40,162	-0,069	0,045
-252,322	652,041	0,039	-0,073
-251,307	373,362	0,076	0,112
-250,292	-200,000	0,006	0,148
-249,278	-6,836	0,131	0,064
-248,263	432,502	-0,025	-0,040
-247,249	-45,885	0,136	0,048
-246,234	-11,666	-0,014	0,007
-245,219	-200,000	0,011	-0,146
-244,205	178,009	-0,079	-0,084
-243,190	67,937	0,007	0,005
-242,176	134,092	-0,043	0,040
-241,161	-200,000	-0,011	0,051
-240,146	-200,000	-0,015	-0,143
-239,132	-200,000	-0,009	-0,128
-238,117	-200,000	-0,000	0,007
-237,103	800,000	0,021	-0,065
-236,088	1,532	0,048	0,025
-235,073	-200,000	-0,016	0,106
-234,059	800,000	0,081	0,192
-233,044	-120,310	0,124	0,015
-232,030	-152,515	-0,101	-0,005
-231,015	-13,837	-0,069	-0,032
-230,000	-105,067	-0,099	-0,016
-228,986	-200,000	0,018	0,059
-227,971	226,208	0,058	0,068
-226,957	88,244	-0,044	0,036
-225,942	-35,423	-0,053	0,021
-224,927	391,990	0,083	-0,126
-223,913	497,987	-0,042	-0,070
-222,898	-58,418	-0,039	0,012
-221,884	386,368	0,062	0,092
-220,869	-140,593	0,121	-0,009
-219,855	-91,427	0,027	-0,005
-218,840	-200,000	0,014	0,176
-217,825	800,000	-0,035	0,074
-216,811	153,775	-0,054	-0,054
-215,796	-54,804	0,070	-0,023
-214,782	800,000	0,013	0,030
-213,767	57,411	0,061	-0,043
-212,752	458,559	0,058	0,094
-211,738	240,214	0,138	0,166
-210,723	89,106	-0,038	0,030
-209,709	91,404	-0,097	-0,079
-208,694	697,008	-0,012	0,023
-207,679	-200,000	-0,007	0,056
-206,665	-129,142	-0,105	0,010
-205,650	-118,271	0,098	0,012
-204,636	-200,000	-0,015	0,075
-203,621	428,118	0,009	0,015
-202,606	800,000	-0,016	0,034
-201,592	-126,898	-0,056	0,006
-200,577	-86,622	-0,111	0,024
-199,563	-68,028	0,176	0,049
-198,548	602,126	0,057	0,103
-197,533	-145,117	0,058	-0,004
-196,519	59,156	0,073	0,052
-195,504	-38,193	0,056	-0,021
-194,490	-200,000	-0,018	-0,097
-193,475	-200,000	-0,007	-0,051
-192,460	117,015	-0,041	0,036
-191,446	800,000	-0,078	0,177
-190,431	-200,000	0,024	0,184
-189,417	336,879	0,042	0,059
-188,402	2,883	-0,046	-0,024
-187,387	-116,232	-0,063	-0,008
-186,373	-200,000	0,017	-0,072
-185,358	-200,000	-0,075	0,000
-184,344	800,000	-0,020	0,046
-183,329	-172,320	0,179	0,004
-182,315	800,000	0,041	-0,112
-181,300	-132,656	0,088	-0,008
-180,285	-34,822	-0,114	-0,045
-179,271	139,993	-0,035	0,033
-178,256	-9,567	0,048	-0,023
-177,242	206,442	-0,046	-0,052
-176,227	-200,000	-0,020	0,135
-175,212	-64,874	-0,075	0,022
-174,198	226,143	-0,032	-0,037
-173,183	11,039	0,089	-0,049
-172,169	-200,000	0,016	-0,105
-171,154	800,000	-0,008	-0,015
-170,139	224,701	0,071	-0,083
-169,125	119,070	0,071	-0,063
-168,110	-200,000	-0,004	-0,033
-167,096	216,860	-0,044	0,050
-166,081	183,439	0,063	-0,067
-165,066	-2,039	-0,061	0,031
-164,052	-200,000	-0,007	-0,026
-163,037	631,173	0,026	-0,047
-162,023	-200,000	-0,002	0,051
-161,008	42,835	0,086	0,056
-159,993	102,199	-0,035	0,029
-158,979	-124,118	-0,060	-0,007
-157,964	28,386	-0,157	-0,096
-156,950	34,298	0,102	-0,064
-155,935	-36,244	0,029	0,011
-154,920	-54,523	0,202	0,066
-153,906	82,653	-0,123	0,096
-152,891	-11,353	0,060	-0,028
-151,877	800,000	-0,044	-0,128
-150,862	9,456	-0,065	-0,035
-149,847	37,114	-0,017	-0,011
-148,833	-200,000	0,147	0,000
-147,818	298,921	-0,083	0,110
-146,804	121,588	-0,043	0,039
-145,789	-110,800	0,113	0,017
-144,775	-200,000	0,041	-0,171
-143,760	-200,000	-0,008	-0,045
-142,745	-104,585	0,124	-0,020
-141,731	-40,934	-0,094	0,035
-140,716	0,092	-0,013	0,007
-139,702	-36,878	-0,058	-0,022
-138,687	99,019	0,098	0,081
-137,672	316,479	-0,067	-0,091
-136,658	800,000	-0,058	-0,128
-135,643	137,860	0,017	0,016
-134,629	216,903	-0,046	-0,053
-133,614	-46,277	0,106	0,037
-132,599	-200,000	0,009	0,115
-131,585	-200,000	0,001	0,267
-130,570	-40,922	-0,093	0,034
-129,556	-138,357	-0,082	-0,006
-128,541	-32,252	-0,049	-0,020
-127,526	-158,458	-0,078	0,003
-126,512	-13,017	0,067	0,031
-125,497	149,484	0,098	-0,096
-124,483	639,386	-0,068	-0,125
-123,468	800,000	-0,068	0,153
-122,453	258,295	-0,067	-0,084
-121,439	280,220	-0,008	0,011
-120,424	-163,724	0,050	0,002
-119,410	511,397	0,074	0,124
-118,395	330,953	-0,129	0,180
-117,380	-109,300	0,073	-0,011
-116,366	256,064	-0,058	-0,072
-115,351	-55,042	0,101	0,033
-114,337	-200,000	0,007	-0,023
-113,322	-200,000	-0,005	0,093
-112,307	-200,000	-0,027	0,103
-111,293	-162,379	0,121	0,004
-110,278	-11,979	0,038	-0,018
-109,264	-94,998	-0,163	0,031
-108,249	79,483	-0,083	0,064
-107,234	276,520	0,005	0,007
-106,220	265,791	-0,090	-0,113
-105,205	-34,637	-0,075	-0,029
-104,191	-200,000	-0,008	-0,083
-103,176	-158,018	0,121	-0,005
-102,162	13,214	0,046	-0,026
-101,147	-30,290	-0,186	-0,076
-100,132	-200,000	-0,013	-0,139
-99,118	28,702	0,113	-0,068
-98,103	374,105	0,075	0,110
-97,089	698,975	0,085	0,162
-96,074	-200,000	0,008	0,146
-95,059	-54,977	0,042	0,014
-94,045	643,209	0,026	-0,048
-93,030	196,777	-0,071	-0,078
-92,016	-72,883	0,127	0,033
-91,001	-200,000	0,004	0,074
-89,986	-54,633	-0,022	-0,007
-88,972	-200,000	-0,005	-0,108
-87,957	-53,405	-0,163	-0,053
-86,943	-3,725	0,034	0,017
-85,928	595,711	-0,023	-0,041
-84,913	800,000	-0,060	0,166
-83,899	-93,281	0,075	-0,015
-82,884	136,862	0,075	-0,070
-81,870	800,000	0,045	0,100
-80,855	19,475	-0,103	0,059
-79,840	-200,000	0,026	-0,135
-78,826	-26,076	0,086	0,036
-77,811	51,316	-0,084	-0,057
-76,797	800,000	-0,030	0,061
-75,782	-200,000	-0,002	0,066
-74,767	5,513	-0,048	-0,026
-73,753	-3,793	0,071	0,035
-72,738	363,095	0,024	-0,035
-71,724	-181,159	-0,142	0,002
-70,709	-52,761	-0,062	0,020
-69,694	-200,000	-0,014	-0,125
-68,680	267,862	-0,043	-0,054
-67,665	36,194	0,113	0,072
-66,651	-104,677	-0,142	-0,023
-65,636	-200,000	-0,005	0,049
-64,622	431,666	0,026	-0,041
-63,607	-30,283	0,082	0,033
-62,592	-160,449	0,096	-0,004
-61,578	666,887	0,035	0,066
-60,563	487,811	0,034	0,057
-59,549	-200,000	0,001	0,146
-58,534	24,396	-2,113	-1,252
-57,519	391,312	-1,248	-1,868
-56,505	-200,000	-0,266	-4,185
-55,490	800,000	0,602	1,263
-54,476	800,000	5,373	11,709
-53,461	-200,000	21,476	343,279
-52,446	800,000	761,530	2356,864
-51,432	529,964	1661,796	2830,726
-50,417	73,066	1577,937	1183,447
-49,403	22,815	1090,469	640,231
-48,388	13,589	765,867	425,883
-47,373	27,574	725,900	437,681
-46,359	19,948	711,418	410,802
-45,344	9,898	706,774	384,155
-44,330	9,554	705,430	382,587
-43,315	9,455	704,208	381,675
-42,300	9,462	703,061	381,054
-41,286	9,526	702,420	380,843
-40,271	9,455	701,722	380,282
-39,257	9,503	700,699	379,825
-38,242	9,556	699,883	379,494
-37,227	9,529	699,129	379,007
-36,213	9,554	698,177	378,534
-35,198	9,602	697,313	378,165
-34,184	9,754	696,850	378,257
-33,169	9,567	695,972	377,324
-32,154	9,701	695,565	377,403
-31,140	9,691	694,218	376,635
-30,125	9,764	693,600	376,458
-29,111	9,601	693,315	375,903
-28,096	9,584	693,194	375,783
-27,082	9,532	692,622	375,338
-26,067	9,650	691,658	375,075
-25,052	9,560	691,183	374,593
-24,038	9,555	690,661	374,283
-23,023	9,557	690,131	373,985
-22,009	9,541	689,546	373,617
-20,994	9,659	688,735	373,437
-19,979	9,636	688,144	373,047
-18,965	9,674	687,755	372,912
-17,950	9,595	687,557	372,605
-16,936	9,576	686,790	372,131
-15,921	9,593	686,325	371,905
-14,906	9,574	685,540	371,420
-13,892	9,685	685,030	371,386
-12,877	9,575	684,589	370,878
-11,863	9,492	684,457	370,599
-10,848	9,384	684,237	370,215
-9,833	9,585	683,908	370,487
-8,819	9,712	682,773	370,151
-7,804	9,620	682,334	369,686
-6,790	9,594	681,930	369,393
-5,775	9,475	681,920	369,097
-4,760	9,508	681,080	368,705
-3,746	9,481	680,656	368,398
-2,731	9,307	680,330	367,806
-1,717	9,399	679,930	367,787
-0,702	9,307	679,284	367,212
0,313	9,471	675,478	366,081
1,327	13,876	648,628	361,156
2,342	22,770	520,687	305,450
3,356	16,408	288,158	162,876
4,371	-14,816	193,772	88,917
5,386	-18,123	182,396	81,619
6,400	-18,296	178,926	79,952
7,415	-17,356	177,357	79,817
8,429	-18,016	176,484	79,017
9,444	-18,455	175,812	78,444
10,459	-18,251	175,472	78,408
11,473	-18,230	174,968	78,189
12,488	-18,161	174,770	78,134
13,502	-18,423	174,304	77,763
14,517	-17,782	173,841	77,932
15,531	-18,378	173,649	77,483
16,546	-18,242	173,409	77,450
17,561	-18,262	173,088	77,288
18,575	-18,059	172,808	77,277
19,590	-18,286	172,518	77,006
20,604	-17,877	172,327	77,155
21,619	-18,384	172,118	76,755
22,634	-18,367	171,785	76,610
23,648	-18,371	171,832	76,622
24,663	-18,217	171,418	76,521
25,677	-18,081	171,249	76,518
26,692	-18,163	171,117	76,404
27,707	-18,287	170,943	76,247
28,721	-18,356	170,652	76,071
29,736	-18,283	170,544	76,058
30,750	-18,242	170,328	75,979
31,765	-18,263	170,252	75,926
32,780	-18,302	169,914	75,746
33,794	-18,327	169,826	75,685
34,809	-18,178	169,659	75,691
35,823	-18,247	169,418	75,537
36,838	-18,075	169,112	75,493
37,853	-18,159	169,321	75,531
38,867	-18,089	168,917	75,384
39,882	-18,117	168,871	75,341
40,896	-18,329	168,785	75,173
41,911	-17,811	168,360	75,276
42,926	-18,114	168,236	75,039
43,940	-18,133	168,139	74,978
44,955	-18,195	167,901	74,830
45,969	-17,919	167,699	74,892
46,984	-17,812	167,647	74,923
47,999	-17,749	167,727	74,988
49,013	-17,678	167,362	74,859
50,028	-17,916	167,274	74,677
51,042	-17,830	167,059	74,623
52,057	-17,909	166,944	74,520
53,071	-17,712	166,665	74,501
54,086	-17,687	166,598	74,479
55,101	-17,815	166,440	74,329
56,115	-17,805	166,309	74,270
57,130	-18,089	166,149	74,030
58,144	-18,130	165,865	73,874
59,159	-18,251	165,705	73,727
60,174	-18,444	165,496	73,519
61,188	-18,375	165,516	73,560
62,203	-18,286	165,403	73,553
63,217	-18,230	165,068	73,429
64,232	-18,123	164,932	73,423
65,247	-18,380	164,805	73,215
66,261	-18,339	164,680	73,176
67,276	-18,216	164,482	73,151
68,290	-17,593	164,323	73,423
69,305	-17,929	164,250	73,195
70,320	-17,866	164,155	73,182
71,334	-18,057	163,927	72,967
72,349	-18,292	163,768	72,758
73,363	-18,385	163,531	72,594
74,378	-18,096	163,510	72,740
75,393	-17,908	163,287	72,739
76,407	-18,372	163,221	72,445
77,422	-17,961	162,986	72,563
78,436	-18,211	163,053	72,447
79,451	-18,484	162,959	72,246
80,466	-17,995	162,529	72,321
81,480	-17,803	162,550	72,430
82,495	-17,901	162,396	72,301
83,509	-17,899	162,319	72,261
84,524	-17,786	162,226	72,276
85,539	-17,613	161,995	72,262
86,553	-17,838	161,944	72,108
87,568	-17,929	161,751	71,966
88,582	-18,033	161,581	71,827
89,597	-18,244	161,424	71,635
90,611	-18,133	161,342	71,653
91,626	-17,992	161,199	71,660
92,641	-17,960	161,141	71,645
93,655	-17,973	160,959	71,551
94,670	-17,937	160,744	71,469
95,684	-17,872	160,524	71,400
96,699	-17,944	160,517	71,352
97,714	-17,978	160,368	71,261
98,728	-17,928	160,395	71,293
99,743	-17,760	160,033	71,217
100,757	-17,553	160,048	71,331
101,772	-18,036	159,951	71,018
102,787	-17,992	159,798	70,968
103,801	-18,118	159,633	70,820
104,816	-18,195	159,623	70,767
105,830	-18,026	159,353	70,733
106,845	-18,080	159,238	70,646
107,860	-17,956	158,998	70,600
108,874	-18,176	158,943	70,450
109,889	-18,160	158,698	70,345
110,903	-18,119	158,716	70,368
111,918	-17,982	158,569	70,371
112,933	-18,011	158,465	70,303
113,947	-18,107	158,287	70,166
114,962	-17,936	158,243	70,232
115,976	-17,970	157,987	70,094
116,991	-17,962	157,920	70,062
118,006	-18,249	157,750	69,827
119,020	-17,953	157,666	69,942
120,035	-17,790	157,462	69,933
121,049	-17,912	157,452	69,856
122,064	-17,867	157,298	69,806
123,079	-17,956	157,140	69,682
124,093	-17,823	157,070	69,716
125,108	-17,846	156,809	69,582
126,122	-17,999	156,912	69,539
127,137	-17,703	156,734	69,612
128,151	-17,887	156,602	69,450
129,166	-17,887	156,510	69,402
130,181	-17,997	156,269	69,231
131,195	-17,850	156,033	69,198
132,210	-18,121	155,998	69,032
133,224	-17,760	155,765	69,115
134,239	-18,140	155,708	68,882
135,254	-17,742	155,603	69,039
136,268	-17,982	155,429	68,830
137,283	-18,070	155,383	68,757
138,297	-18,057	155,169	68,663
139,312	-17,934	155,057	68,672
140,327	-18,427	154,726	68,260
141,341	-18,599	154,694	68,150
142,356	-18,580	154,489	68,063
143,370	-17,636	154,719	68,654
144,385	-10,677	156,302	73,037
145,400	-3,509	157,618	77,465
146,414	-2,162	157,755	78,242
147,429	-2,265	157,816	78,210
148,443	-1,745	157,671	78,407
149,458	-1,289	157,700	78,658
150,473	-1,443	157,589	78,513
151,487	-0,962	157,548	78,742
152,502	-1,188	157,336	78,508
153,516	-1,390	157,326	78,389
154,531	-0,937	157,086	78,502
155,546	-1,240	157,112	78,348
156,560	-1,314	156,926	78,210
157,575	-1,338	156,847	78,150
158,589	-0,904	156,726	78,312
159,604	-0,920	156,575	78,222
160,619	-1,181	156,502	78,040
161,633	-1,059	156,350	78,021
162,648	-1,112	156,253	77,939
163,662	-1,005	156,269	77,996
164,677	-1,148	156,081	77,819
165,692	-0,819	156,019	77,955
166,706	-0,892	155,872	77,836
167,721	-0,893	155,855	77,820
168,735	-0,889	155,652	77,714
169,750	-0,926	155,550	77,637
170,764	-0,583	155,493	77,781
171,779	-0,886	155,511	77,624
172,794	-0,646	155,223	77,599
173,808	-0,621	155,092	77,539
174,823	-0,790	154,973	77,385
175,837	-0,677	154,920	77,410
176,852	-0,975	154,953	77,265
177,867	-1,022	154,885	77,200
178,881	-0,819	154,699	77,206
179,896	-1,094	154,645	77,029
180,910	-0,733	154,518	77,146
181,925	-0,640	154,295	77,077
182,940	-0,748	154,216	76,974
183,954	-0,739	154,226	76,977
184,969	-0,774	154,035	76,856
185,983	-0,645	153,935	76,866
186,998	-0,462	153,662	76,817
188,013	-0,824	153,622	76,604
189,027	-0,484	153,494	76,708
190,042	-0,734	153,485	76,568
191,056	-0,663	153,306	76,509
192,071	-0,687	153,210	76,442
193,086	-0,458	152,988	76,442
194,100	-0,689	153,048	76,346
195,115	-0,513	152,845	76,328
196,129	-0,449	152,781	76,322
197,144	-0,650	152,580	76,113
198,159	-0,285	152,487	76,245
199,173	-0,664	152,516	76,060
200,188	-0,347	152,408	76,161
201,202	-0,392	152,278	76,066
202,217	-0,604	152,152	75,889
203,232	-0,870	152,124	75,732
204,246	-0,460	151,935	75,840
205,261	-0,525	151,793	75,729
206,275	-0,706	151,742	75,605
207,290	-0,524	151,596	75,618
208,304	-0,051	151,338	75,723
209,319	-0,452	151,280	75,484
210,334	-0,336	151,144	75,468
211,348	-0,134	151,119	75,551
212,363	-0,635	151,011	75,237
213,377	-0,530	151,038	75,296
214,392	-0,258	151,013	75,415
215,407	-0,383	150,862	75,270
216,421	-0,297	150,690	75,220
217,436	-0,428	150,514	75,060
218,450	-0,191	150,395	75,113
219,465	-0,449	150,478	75,018
220,480	-0,186	150,188	74,999
221,494	-0,344	150,145	74,891
222,509	-0,344	150,059	74,842
223,523	-0,420	150,047	74,791
224,538	0,020	149,794	74,879
225,553	-0,277	149,696	74,674
226,567	-0,242	149,612	74,643
227,582	-0,271	149,527	74,580
228,596	-0,167	149,393	74,557
229,611	-0,285	149,416	74,504
230,626	-0,131	149,338	74,535
231,640	-0,218	149,147	74,390
232,655	0,039	148,957	74,417
233,669	-0,215	148,936	74,272
234,684	-0,421	148,914	74,153
235,699	-0,223	148,841	74,208
236,713	-0,238	148,736	74,142
237,728	-0,396	148,581	73,980
238,742	0,159	148,378	74,147
239,757	0,252	148,304	74,149
240,772	0,100	148,267	74,049
241,786	0,144	148,051	73,956
242,801	-0,303	148,034	73,720
243,815	-0,156	147,907	73,723
244,830	-0,012	147,919	73,793
245,844	-0,158	147,846	73,678
246,859	0,070	147,678	73,700
247,874	0,028	147,617	73,643
248,888	-0,134	147,605	73,550
249,903	0,156	147,443	73,606
250,917	0,089	147,444	73,567
251,932	0,092	147,353	73,516
252,947	0,231	147,129	73,466
253,961	-0,272	147,010	73,154
254,976	-0,287	146,969	73,119
255,990	-0,140	146,796	73,098
257,005	0,374	146,655	73,273
258,020	-0,188	146,718	73,023
259,034	0,354	146,504	73,175
260,049	0,142	146,319	72,973
261,063	0,072	146,341	72,943
262,078	0,007	146,101	72,785
263,093	-0,020	146,135	72,783
264,107	0,044	145,991	72,735
265,122	0,161	146,079	72,830
266,136	0,095	145,894	72,699
267,151	-0,001	145,702	72,550
268,166	0,095	145,561	72,520
269,180	0,254	145,481	72,551
270,195	-0,094	145,419	72,345
271,209	0,136	145,197	72,339
272,224	0,059	145,221	72,308
273,239	0,489	145,163	72,480
274,253	0,277	145,156	72,368
275,268	0,141	144,861	72,148
276,282	0,437	144,846	72,277
277,297	0,129	144,707	72,053
278,312	0,689	144,640	72,283
279,326	0,502	144,545	72,139
280,341	0,184	144,598	72,006
281,355	0,221	144,466	71,952
282,370	0,549	144,194	71,967
283,384	0,131	144,302	71,814
284,399	0,597	144,046	71,903
285,414	0,512	144,041	71,854
286,428	0,307	144,022	71,740
287,443	0,517	143,795	71,721
288,457	-0,087	143,868	71,462
289,472	0,611	143,543	71,627
290,487	0,512	143,447	71,526
291,501	0,278	143,312	71,340
292,516	0,290	143,409	71,388
293,530	0,533	143,280	71,433
294,545	0,473	143,252	71,384
295,560	0,599	142,990	71,307
296,574	0,534	142,890	71,220
297,589	0,322	142,815	71,076
298,603	0,478	142,954	71,212
299,618	0,560	142,623	71,080
300,633	0,482	142,571	71,011
301,647	0,703	142,497	71,073
302,662	0,494	142,462	70,950
303,676	0,607	142,361	70,946
304,691	0,328	142,236	70,746
305,706	0,332	142,179	70,713
306,720	0,331	141,991	70,613
307,735	0,425	142,002	70,657
308,749	0,804	141,938	70,797
309,764	0,615	141,823	70,644
310,779	0,597	141,580	70,508
311,793	0,934	141,544	70,643
312,808	0,354	141,473	70,329
313,822	0,474	141,391	70,338
314,837	0,292	141,413	70,257
315,852	0,710	141,154	70,318
316,866	0,442	141,193	70,206
317,881	0,163	141,119	70,032
318,895	0,624	141,000	70,182
319,910	0,657	140,813	70,098
320,925	0,174	140,727	69,824
321,939	0,521	140,799	70,016
322,954	0,655	140,457	69,901
323,968	0,646	140,545	69,935
324,983	0,477	140,420	69,788
325,997	0,646	140,331	69,816
327,012	0,580	140,228	69,728
328,027	0,672	140,120	69,710
329,041	0,474	140,013	69,559
330,056	0,841	139,985	69,709
331,070	0,464	139,958	69,515
332,085	0,672	139,836	69,544
333,100	0,748	139,660	69,486
334,114	0,955	139,481	69,486
335,129	0,642	139,498	69,344
336,143	1,007	139,472	69,493
337,158	1,046	139,203	69,371
338,173	0,502	139,417	69,221
339,187	0,884	138,982	69,174
340,202	1,231	138,839	69,256
341,216	0,897	138,937	69,146
342,231	0,858	138,875	69,090
343,246	0,714	138,885	69,023
344,260	0,696	138,856	68,994
345,275	0,867	138,658	68,968
346,289	1,107	138,492	68,989
347,304	0,976	138,439	68,897
348,319	0,746	138,422	68,777
349,333	0,858	138,138	68,681
350,348	0,628	138,155	68,578
351,362	0,793	138,073	68,607
352,377	0,846	138,084	68,630
353,392	0,999	137,960	68,632
354,406	0,633	137,867	68,413
355,421	194,579	1319,496	1394,417
356,435	153,254	1463,932	1394,912
