DTS Sentinel unit serial number:	SN410029Multiplexer serial number:	ORYXHardware model number:	OX2-SRSoftware version number:	ORYX F/W v4,00 Oryx Data Collector v3.7.2.0data status	okinstallation	B3 Nyhavnadifferential loss correction	single-endedforward channel	channel 1reverse channel	N/Adate	2023/11/28time	15:52:30forward acquisition time	300,00reverse acquisition time	0,00gamma	499,1914k internal	0,3200k external	0,3200temperature offset calibration	1,0000default loss term (dB/km)	0,3820temperature slope calibration	1,0000multiplexer offset coefficient	1,0000multiplexer slope coefficient	1,0000fibre end	0,00T internal ref (°C)	7,27T ext. ref 1 (°C)	-7,62T ext. ref 2 (°C)	-7,78length (m)	temperature (°C)	Stokes	anti-Stokes-744,400	63,531	-0,253	-0,184
-743,385	800,000	-0,050	0,157
-742,371	299,597	-0,180	-0,241
-741,356	-200,000	-0,048	0,322
-740,342	-4,949	-0,230	-0,115
-739,327	-200,000	-0,006	0,179
-738,312	360,080	-0,189	-0,275
-737,298	-42,456	-0,204	0,075
-736,283	118,917	-0,142	-0,128
-735,269	-200,000	-0,007	0,300
-734,254	-43,709	-0,272	-0,099
-733,239	454,248	-0,103	0,166
-732,225	-200,000	-0,015	-0,144
-731,210	160,995	0,141	0,143
-730,196	548,366	-0,034	0,060
-729,181	-200,000	0,008	-0,074
-728,167	169,361	-0,046	-0,048
-727,152	-200,000	-0,008	-0,079
-726,137	-200,000	-0,005	-0,071
-725,123	-200,000	-0,041	-0,227
-724,108	-19,548	-0,095	-0,043
-723,094	-200,000	0,112	-0,000
-722,079	415,120	-0,085	-0,132
-721,064	193,085	-0,090	0,099
-720,050	-200,000	0,024	0,081
-719,035	82,211	-0,044	0,034
-718,021	558,677	-0,090	-0,158
-717,006	800,000	-0,056	-0,140
-715,991	-21,672	-0,197	-0,087
-714,977	-2,622	0,099	-0,050
-713,962	-200,000	-0,007	-0,134
-712,948	-200,000	-0,022	0,076
-711,933	-123,536	0,019	0,002
-710,918	800,000	0,024	-0,055
-709,904	72,749	-0,105	-0,079
-708,889	255,091	0,089	-0,111
-707,875	-143,713	-0,046	0,003
-706,860	-61,545	0,153	0,046
-705,845	140,592	-0,124	-0,119
-704,831	-200,000	-0,023	0,132
-703,816	19,895	0,016	-0,010
-702,802	-115,764	-0,157	0,021
-701,787	-200,000	0,004	-0,085
-700,772	14,687	0,125	0,071
-699,758	-200,000	0,004	-0,026
-698,743	74,081	-0,081	-0,062
-697,729	800,000	-0,009	0,020
-696,714	-34,076	0,067	0,027
-695,699	-200,000	-0,010	0,075
-694,685	199,035	0,062	-0,069
-693,670	-118,222	-0,183	-0,023
-692,656	-200,000	-0,001	0,039
-691,641	800,000	0,033	0,073
-690,627	-96,679	-0,102	0,019
-689,612	-200,000	-0,002	-0,081
-688,597	-200,000	0,008	-0,054
-687,583	-200,000	-0,002	-0,197
-686,568	-200,000	0,016	-0,102
-685,554	-179,801	-0,125	0,002
-684,539	158,372	-0,046	-0,046
-683,524	181,919	-0,016	-0,018
-682,510	19,714	-0,044	-0,025
-681,495	800,000	0,022	-0,053
-680,481	142,074	-0,072	-0,069
-679,466	-22,264	-0,176	-0,077
-678,451	800,000	0,008	0,026
-677,437	-89,894	-0,070	-0,015
-676,422	-200,000	0,005	-0,047
-675,408	457,249	0,071	0,115
-674,393	182,302	-0,059	-0,063
-673,378	220,615	-0,055	0,065
-672,364	636,467	-0,057	-0,105
-671,349	417,609	0,007	-0,010
-670,335	24,814	-0,063	-0,038
-669,320	-141,932	0,043	-0,003
-668,305	-93,691	-0,147	0,029
-667,291	160,536	-0,089	-0,091
-666,276	800,000	-0,078	-0,202
-665,262	-22,984	-0,149	-0,065
-664,247	559,568	-0,090	-0,159
-663,232	-200,000	0,008	0,037
-662,218	-200,000	-0,003	0,096
-661,203	53,845	-0,054	0,038
-660,189	-9,347	-0,050	-0,024
-659,174	-78,129	-0,124	-0,031
-658,159	139,596	-0,086	-0,082
-657,145	438,457	-0,042	0,067
-656,130	-83,492	0,168	0,039
-655,116	800,000	-0,050	0,102
-654,101	-55,555	0,047	-0,015
-653,086	-29,822	0,119	0,049
-652,072	88,151	-0,112	0,090
-651,057	-93,865	-0,167	-0,033
-650,043	-200,000	0,044	-0,169
-649,028	715,747	-0,055	-0,107
-648,014	385,601	-0,030	0,046
-646,999	276,875	-0,081	-0,105
-645,984	-107,673	-0,053	-0,008
-644,970	-42,502	-0,051	0,019
-643,955	9,822	-0,046	-0,025
-642,941	97,043	0,110	-0,092
-641,926	254,132	0,030	0,038
-640,911	529,852	0,048	-0,082
-639,897	235,201	-0,081	-0,097
-638,882	-53,296	-0,090	-0,030
-637,868	-200,000	-0,005	-0,037
-636,853	355,840	-0,060	-0,086
-635,838	800,000	0,042	-0,095
-634,824	800,000	-0,029	-0,078
-633,809	-200,000	0,008	0,032
-632,795	-200,000	-0,013	0,155
-631,780	134,932	0,031	-0,029
-630,765	14,704	-0,141	0,080
-629,751	31,260	-0,169	0,105
-628,736	-141,384	-0,084	-0,006
-627,722	-200,000	-0,017	0,140
-626,707	102,077	-0,046	-0,039
-625,692	-152,639	0,091	-0,005
-624,678	800,000	0,045	0,132
-623,663	-200,000	-0,003	0,037
-622,649	-129,257	-0,171	0,017
-621,634	-200,000	-0,003	-0,119
-620,619	131,807	-0,035	0,032
-619,605	-80,305	-0,007	0,002
-618,590	-184,455	0,053	0,001
-617,576	-150,314	-0,052	-0,003
-616,561	73,839	0,216	0,163
-615,546	39,827	-0,102	0,066
-614,532	800,000	-0,048	-0,146
-613,517	-200,000	0,020	-0,093
-612,503	130,906	-0,046	-0,043
-611,488	90,951	-0,066	0,053
-610,474	-0,260	0,060	-0,031
-609,459	-20,412	0,045	-0,020
-608,444	160,888	-0,053	-0,054
-607,430	-200,000	-0,005	-0,175
-606,415	269,894	-0,046	-0,059
-605,401	623,709	0,022	-0,041
-604,386	272,520	0,087	-0,112
-603,371	800,000	-0,033	-0,087
-602,357	7,548	0,026	0,014
-601,342	234,706	-0,090	0,107
-600,328	68,913	-0,027	-0,020
-599,313	-200,000	0,006	-0,099
-598,298	326,012	-0,026	0,037
-597,284	-200,000	-0,018	0,150
-596,269	160,780	-0,077	-0,078
-595,255	-200,000	-0,000	-0,058
-594,240	-11,576	-0,088	-0,042
-593,225	-200,000	-0,010	-0,061
-592,211	-9,760	0,007	-0,003
-591,196	356,921	0,055	0,079
-590,182	360,459	0,025	-0,036
-589,167	67,885	0,105	0,078
-588,152	-200,000	0,010	0,064
-587,138	-27,859	0,008	0,003
-586,123	-200,000	0,016	-0,066
-585,109	187,398	0,040	0,043
-584,094	-93,985	-0,202	-0,040
-583,079	454,609	0,051	0,082
-582,065	426,516	-0,095	0,149
-581,050	-200,000	-0,007	-0,034
-580,036	29,236	0,036	-0,022
-579,021	-43,442	-0,112	0,041
-578,006	-3,691	-0,074	0,037
-576,992	663,260	0,065	-0,122
-575,977	-115,244	0,132	0,018
-574,963	-200,000	0,007	0,072
-573,948	-200,000	-0,013	0,098
-572,934	-200,000	0,004	0,091
-571,919	800,000	-0,032	0,099
-570,904	800,000	-0,007	-0,021
-569,890	-33,825	-0,069	0,027
-568,875	-68,431	0,033	0,009
-567,861	-20,318	0,057	0,025
-566,846	563,210	-0,074	0,129
-565,831	-95,352	0,083	0,016
-564,817	-149,530	-0,172	-0,010
-563,802	-188,575	-0,079	-0,001
-562,788	800,000	-0,077	0,165
-561,773	282,652	-0,046	-0,059
-560,758	-200,000	0,000	0,022
-559,744	714,397	-0,050	0,097
-558,729	-200,000	0,002	0,081
-557,715	-200,000	-0,011	-0,072
-556,700	32,838	-0,135	-0,084
-555,685	-200,000	-0,008	-0,084
-554,671	-200,000	-0,014	0,199
-553,656	-3,136	0,096	-0,048
-552,642	-200,000	-0,026	0,148
-551,627	-200,000	-0,003	0,101
-550,612	-200,000	0,001	0,017
-549,598	796,367	0,025	-0,050
-548,583	-105,251	-0,028	-0,005
-547,569	-29,026	0,131	0,054
-546,554	55,682	0,162	-0,113
-545,539	-18,789	0,114	-0,051
-544,525	106,383	0,120	-0,103
-543,510	-200,000	0,021	0,073
-542,496	-91,922	-0,036	-0,007
-541,481	800,000	-0,061	-0,178
-540,466	-18,637	-0,051	-0,023
-539,452	451,807	0,060	-0,095
-538,437	162,424	0,057	0,057
-537,423	800,000	-0,008	0,018
-536,408	800,000	0,003	-0,009
-535,393	-200,000	-0,006	-0,035
-534,379	47,222	-0,110	-0,074
-533,364	215,704	0,044	-0,050
-532,350	-102,859	0,022	-0,004
-531,335	111,083	0,074	0,064
-530,321	-200,000	0,003	0,063
-529,306	-14,793	-0,051	0,023
-528,291	-200,000	-0,020	-0,081
-527,277	23,228	-0,091	0,054
-526,262	403,880	0,101	-0,155
-525,248	78,847	0,018	-0,014
-524,233	-200,000	0,013	0,058
-523,218	-50,880	0,095	-0,032
-522,204	-200,000	-0,008	-0,040
-521,189	-200,000	-0,007	0,098
-520,175	150,582	0,066	-0,065
-519,160	183,318	-0,076	0,081
-518,145	-77,926	0,146	0,036
-517,131	-24,427	0,049	0,021
-516,116	-42,610	0,127	-0,046
-515,102	-200,000	-0,017	-0,064
-514,087	477,659	-0,071	-0,116
-513,072	-200,000	-0,003	-0,026
-512,058	-110,360	0,037	0,006
-511,043	74,303	-0,047	-0,035
-510,029	-200,000	0,025	0,108
-509,014	800,000	0,064	0,147
-507,999	-200,000	-0,008	-0,126
-506,985	82,242	-0,045	-0,035
-505,970	800,000	0,031	-0,090
-504,956	379,651	0,029	-0,044
-503,941	127,032	0,086	0,078
-502,926	100,587	-0,104	0,087
-501,912	52,310	0,108	0,074
-500,897	-200,000	0,011	0,058
-499,883	102,196	-0,065	-0,054
-498,868	800,000	-0,013	-0,038
-497,853	-35,920	0,111	0,043
-496,839	-108,383	0,084	0,013
-495,824	568,905	-0,060	0,106
-494,810	110,741	-0,052	0,045
-493,795	-200,000	0,006	-0,031
-492,781	615,578	0,055	-0,100
-491,766	156,063	-0,084	-0,084
-490,751	-200,000	-0,005	-0,100
-489,737	800,000	0,019	0,047
-488,722	-94,267	0,052	-0,010
-487,708	125,462	0,077	0,070
-486,693	44,594	0,096	-0,064
-485,678	-146,235	-0,159	-0,010
-484,664	91,522	0,020	0,016
-483,649	316,595	-0,105	0,144
-482,635	800,000	-0,024	-0,075
-481,620	-200,000	-0,030	0,153
-480,605	23,073	0,071	0,042
-479,591	-200,000	0,003	0,120
-478,576	501,166	0,032	-0,054
-477,562	-200,000	-0,015	-0,106
-476,547	800,000	0,035	0,074
-475,532	21,302	0,053	0,031
-474,518	800,000	-0,017	0,051
-473,503	55,122	0,116	0,080
-472,489	62,475	0,060	0,043
-471,474	2,130	0,065	0,034
-470,459	-99,791	-0,106	0,019
-469,445	-200,000	-0,016	-0,116
-468,430	65,726	0,081	0,059
-467,416	-200,000	0,056	0,210
-466,401	-128,227	0,040	0,004
-465,386	-200,000	-0,015	0,055
-464,372	212,717	-0,064	-0,073
-463,357	-200,000	-0,012	-0,071
-462,343	800,000	0,028	-0,086
-461,328	-200,000	0,019	-0,117
-460,313	614,750	-0,070	-0,127
-459,299	120,241	-0,041	-0,037
-458,284	755,968	0,061	0,118
-457,270	307,063	0,018	-0,024
-456,255	-56,202	0,166	0,053
-455,241	-200,000	-0,151	-0,000
-454,226	128,423	-0,057	-0,052
-453,211	-200,000	0,025	0,094
-452,197	-24,928	-0,050	-0,021
-451,182	-200,000	0,042	0,245
-450,168	125,778	-0,096	-0,087
-449,153	142,909	-0,118	-0,113
-448,138	800,000	-0,024	0,058
-447,124	-200,000	-0,032	-0,164
-446,109	731,991	0,039	-0,075
-445,095	139,917	0,050	-0,047
-444,080	65,212	0,057	0,041
-443,065	29,599	0,126	-0,077
-442,051	-157,217	-0,188	0,008
-441,036	263,593	-0,045	-0,057
-440,022	-114,655	0,072	-0,010
-439,007	152,067	0,047	0,046
-437,992	-200,000	-0,017	0,070
-436,978	73,747	0,098	0,074
-435,963	-152,860	0,094	-0,005
-434,949	800,000	-0,005	-0,011
-433,934	31,736	-0,079	-0,049
-432,919	-152,485	-0,061	-0,003
-431,905	337,317	-0,069	-0,097
-430,890	-200,000	-0,036	0,147
-429,876	-200,000	0,001	-0,055
-428,861	16,658	0,190	-0,108
-427,846	-200,000	-0,016	0,063
-426,832	-200,000	0,007	0,057
-425,817	456,852	0,051	-0,081
-424,803	236,459	-0,045	-0,054
-423,788	50,401	0,153	0,104
-422,773	800,000	0,023	0,071
-421,759	800,000	-0,048	0,113
-420,744	372,081	-0,040	0,058
-419,730	102,465	-0,114	0,096
-418,715	28,642	-0,043	-0,026
-417,701	62,248	0,079	0,056
-416,686	745,296	-0,030	0,059
-415,671	611,612	0,074	0,134
-414,657	-24,728	-0,142	0,060
-413,642	-200,000	0,003	-0,124
-412,628	259,845	0,047	0,059
-411,613	527,988	-0,054	-0,092
-410,598	199,555	-0,054	-0,059
-409,584	-200,000	0,018	0,177
-408,569	-200,000	-0,010	0,097
-407,555	-121,942	0,027	-0,003
-406,540	174,791	0,048	-0,050
-405,525	154,809	-0,076	0,075
-404,511	800,000	-0,084	0,174
-403,496	183,608	-0,039	-0,042
-402,482	12,806	-0,030	-0,017
-401,467	-200,000	0,014	0,197
-400,452	65,544	0,067	-0,048
-399,438	372,009	-0,027	-0,040
-398,423	-200,000	-0,004	0,080
-397,409	-200,000	-0,008	-0,090
-396,394	800,000	0,020	-0,047
-395,379	-12,733	-0,139	0,065
-394,365	-200,000	0,012	0,109
-393,350	-25,906	-0,089	0,037
-392,336	181,717	0,077	0,081
-391,321	-143,667	-0,151	0,010
-390,306	2,853	-0,093	-0,048
-389,292	-125,095	-0,080	0,009
-388,277	-109,172	-0,249	0,038
-387,263	110,240	-0,034	0,030
-386,248	800,000	0,051	-0,105
-385,233	-93,196	0,117	-0,023
-384,219	220,777	0,073	0,084
-383,204	-10,823	-0,075	0,035
-382,190	277,066	-0,071	-0,090
-381,175	227,202	-0,061	0,071
-380,160	800,000	0,057	0,144
-379,146	-200,000	0,030	-0,160
-378,131	-104,666	0,142	-0,023
-377,117	-200,000	0,010	-0,051
-376,102	-115,117	-0,065	0,009
-375,088	8,107	-0,137	-0,074
-374,073	-200,000	0,008	-0,088
-373,058	800,000	0,028	-0,083
-372,044	-200,000	-0,028	-0,133
-371,029	1,097	0,040	-0,020
-370,015	800,000	-0,018	-0,039
-369,000	402,209	0,032	-0,048
-367,985	-200,000	0,012	0,040
-366,971	134,187	0,055	-0,051
-365,956	-200,000	0,013	-0,095
-364,942	-27,982	-0,021	0,009
-363,927	-200,000	0,002	0,127
-362,912	61,070	0,063	0,044
-361,898	577,442	0,101	-0,178
-360,883	10,600	-0,068	0,037
-359,869	-112,473	0,161	-0,023
-358,854	-101,034	-0,089	-0,015
-357,839	406,598	-0,021	0,031
-356,825	-200,000	0,009	0,097
-355,810	730,477	0,027	0,052
-354,796	138,351	-0,055	-0,052
-353,781	287,578	-0,080	-0,104
-352,766	-200,000	0,003	-0,015
-351,752	-34,813	-0,110	-0,043
-350,737	116,710	0,032	-0,028
-349,723	-81,446	0,017	-0,004
-348,708	-200,000	0,000	-0,010
-347,693	800,000	-0,052	0,127
-346,679	-46,559	-0,039	-0,014
-345,664	-73,155	-0,115	0,030
-344,650	121,253	0,071	0,063
-343,635	98,417	-0,035	0,029
-342,620	-9,377	0,106	0,050
-341,606	27,216	0,121	-0,072
-340,591	-129,937	0,168	-0,016
-339,577	163,922	-0,076	-0,077
-338,562	800,000	0,047	-0,128
-337,548	94,042	-0,033	-0,026
-336,533	669,760	-0,104	-0,193
-335,518	-111,692	0,111	0,016
-334,504	-31,394	0,063	0,025
-333,489	-200,000	0,000	0,015
-332,475	-176,219	0,104	0,002
-331,460	-119,468	-0,133	0,016
-330,445	-146,737	-0,073	-0,004
-329,431	146,585	-0,045	0,044
-328,416	9,358	0,049	0,026
-327,402	-200,000	0,013	-0,188
-326,387	-82,535	0,061	0,014
-325,372	-200,000	-0,006	-0,084
-324,358	-110,559	0,037	-0,005
-323,343	-200,000	-0,002	-0,045
-322,329	12,625	0,097	0,053
-321,314	-124,978	0,092	0,010
-320,299	28,544	0,080	0,048
-319,285	538,911	-0,031	0,053
-318,270	420,740	-0,057	-0,088
-317,256	-170,813	-0,105	0,003
-316,241	-200,000	-0,003	0,096
-315,226	-28,216	0,037	-0,015
-314,212	256,807	0,098	0,121
-313,197	303,636	-0,038	-0,051
-312,183	234,138	0,075	-0,089
-311,168	88,001	0,032	-0,025
-310,153	-200,000	-0,002	-0,204
-309,139	426,743	0,020	-0,030
-308,124	-200,000	0,005	-0,046
-307,110	800,000	0,047	-0,100
-306,095	800,000	-0,012	0,025
-305,080	-76,419	0,078	0,020
-304,066	-69,917	0,082	0,022
-303,051	59,717	-0,104	-0,074
-302,037	-12,359	0,064	-0,030
-301,022	-67,499	0,062	0,017
-300,008	257,269	-0,064	0,079
-298,993	-132,986	0,078	-0,007
-297,978	-200,000	-0,011	-0,103
-296,964	117,780	0,075	-0,066
-295,949	-24,001	-0,102	-0,043
-294,935	105,924	0,032	-0,027
-293,920	369,597	-0,028	0,040
-292,905	-100,250	0,096	-0,017
-291,891	409,237	0,054	0,082
-290,876	450,259	-0,025	0,040
-289,862	356,535	-0,070	-0,100
-288,847	29,563	-0,182	-0,111
-287,832	-200,000	0,014	-0,064
-286,818	6,803	0,125	-0,066
-285,803	-200,000	0,009	0,077
-284,789	-56,392	0,043	0,014
-283,774	84,063	0,056	-0,044
-282,759	-200,000	-0,004	0,081
-281,745	800,000	-0,060	-0,124
-280,730	211,890	0,062	0,070
-279,716	-48,390	0,100	-0,034
-278,701	752,357	-0,021	-0,041
-277,686	253,041	-0,005	-0,006
-276,672	-103,941	0,101	-0,017
-275,657	42,338	-0,097	-0,063
-274,643	-128,254	-0,068	0,007
-273,628	0,718	-0,080	-0,041
-272,613	137,730	-0,080	-0,075
-271,599	-130,738	0,067	0,006
-270,584	-122,649	0,170	-0,019
-269,570	18,521	0,111	0,063
-268,555	68,935	-0,130	-0,096
-267,540	37,537	-0,148	0,093
-266,526	-69,128	-0,084	-0,023
-265,511	-40,146	-0,094	0,035
-264,497	-14,651	0,167	0,076
-263,482	353,366	0,127	0,181
-262,467	634,009	0,104	0,190
-261,453	57,638	0,079	-0,055
-260,438	425,621	-0,081	-0,125
-259,424	460,241	-0,091	-0,145
-258,409	204,205	0,038	-0,042
-257,395	-200,000	-0,004	0,077
-256,380	118,168	-0,055	0,048
-255,365	-31,413	-0,034	-0,014
-254,351	33,768	-0,046	-0,029
-253,336	-200,000	0,009	-0,076
-252,322	-200,000	-0,012	-0,063
-251,307	27,701	-0,072	0,043
-250,292	-200,000	0,058	-0,214
-249,278	-200,000	-0,009	-0,179
-248,263	23,950	0,100	-0,058
-247,249	-200,000	0,001	0,092
-246,234	-68,539	0,147	0,040
-245,219	349,600	-0,033	-0,047
-244,205	-200,000	0,001	-0,071
-243,190	-200,000	-0,003	0,011
-242,176	62,602	0,199	0,142
-241,161	-132,330	-0,061	-0,006
-240,146	215,224	0,088	0,100
-239,132	-200,000	-0,008	0,084
-238,117	-200,000	0,011	-0,048
-237,103	-200,000	0,000	-0,116
-236,088	800,000	-0,010	0,025
-235,073	-200,000	-0,003	0,079
-234,059	-110,577	0,073	0,011
-233,044	-200,000	-0,037	0,121
-232,030	-200,000	-0,054	0,201
-231,015	-200,000	-0,013	-0,140
-230,000	800,000	0,025	0,073
-228,986	-120,906	-0,053	0,006
-227,971	800,000	-0,047	0,121
-226,957	-200,000	-0,021	0,172
-225,942	43,362	-0,037	-0,024
-224,927	97,330	-0,018	-0,015
-223,913	-117,548	-0,072	0,009
-222,898	-145,162	-0,107	-0,007
-221,884	-200,000	-0,020	-0,094
-220,869	63,443	0,095	0,068
-219,855	-69,485	-0,089	-0,024
-218,840	-200,000	-0,014	0,115
-217,825	-77,292	0,110	-0,027
-216,811	731,293	-0,047	0,091
-215,796	127,367	-0,074	-0,067
-214,782	173,752	-0,086	-0,089
-213,767	-200,000	0,001	0,027
-212,752	380,348	-0,061	0,089
-211,738	112,115	-0,070	-0,060
-210,723	-13,843	0,035	-0,016
-209,709	45,775	-0,033	0,022
-208,694	-97,447	0,071	0,013
-207,679	-200,000	0,031	-0,135
-206,665	800,000	-0,034	0,069
-205,650	537,548	0,006	0,011
-204,636	-16,903	0,149	0,067
-203,621	53,195	0,116	0,079
-202,606	-200,000	0,001	0,046
-201,592	-62,802	0,043	0,013
-200,577	78,395	0,080	0,061
-199,563	-68,505	-0,108	-0,030
-198,548	-200,000	-0,001	0,205
-197,533	-29,748	0,082	-0,033
-196,519	-200,000	0,016	0,100
-195,504	-23,629	-0,083	0,035
-194,490	-22,919	0,182	-0,078
-193,475	106,807	0,059	-0,050
-192,460	800,000	0,035	0,094
-191,446	-36,336	-0,011	-0,004
-190,431	90,389	0,115	-0,092
-189,417	237,580	0,092	0,109
-188,402	-200,000	-0,034	0,125
-187,387	6,858	0,035	-0,019
-186,373	-200,000	0,008	-0,092
-185,358	9,394	-0,137	-0,074
-184,344	72,170	0,091	-0,067
-183,329	158,272	-0,071	0,070
-182,315	-200,000	-0,012	0,088
-181,300	800,000	-0,065	-0,131
-180,285	-70,671	0,091	-0,024
-179,271	127,217	-0,066	-0,060
-178,256	388,551	0,016	0,024
-177,242	800,000	-0,029	-0,088
-176,227	800,000	0,035	0,107
-175,212	-200,000	-0,001	0,067
-174,198	-200,000	-0,008	0,068
-173,183	-31,454	-0,043	0,017
-172,169	-74,727	-0,021	0,005
-171,154	92,109	-0,113	-0,090
-170,139	800,000	-0,061	0,138
-169,125	800,000	0,048	0,096
-168,110	-200,000	0,003	-0,073
-167,096	78,405	-0,059	0,045
-166,081	133,234	0,091	-0,084
-165,066	-200,000	-0,001	0,035
-164,052	-200,000	0,013	-0,180
-163,037	39,291	-0,045	0,029
-162,023	554,796	-0,040	0,068
-161,008	800,000	-0,041	0,087
-159,993	-200,000	0,002	-0,019
-158,979	124,826	-0,047	0,042
-157,964	-200,000	0,012	-0,092
-156,950	-200,000	-0,004	-0,188
-155,935	220,505	0,120	-0,137
-154,920	172,388	0,054	0,055
-153,906	4,630	-0,105	0,055
-152,891	-36,430	0,065	-0,025
-151,877	137,728	-0,055	-0,052
-150,862	-60,029	-0,089	0,027
-149,847	-161,881	-0,032	-0,001
-148,833	-99,382	-0,094	-0,017
-147,818	-200,000	-0,006	-0,031
-146,804	-200,000	-0,001	-0,086
-145,789	-83,073	-0,104	0,024
-144,775	204,071	0,117	-0,129
-143,760	-129,473	-0,105	-0,010
-142,745	-158,822	-0,164	0,007
-141,731	448,961	-0,078	-0,123
-140,716	41,956	0,076	0,049
-139,702	-200,000	0,033	0,121
-138,687	800,000	-0,012	0,033
-137,672	102,854	-0,103	0,086
-136,658	-149,568	-0,066	-0,004
-135,643	-25,189	-0,076	-0,032
-134,629	-200,000	0,001	-0,104
-133,614	-200,000	-0,042	0,169
-132,599	800,000	0,037	0,090
-131,585	44,144	-0,045	-0,029
-130,570	-200,000	-0,003	0,106
-129,556	-200,000	0,009	-0,100
-128,541	687,351	-0,069	-0,128
-127,526	651,855	-0,036	-0,066
-126,512	275,819	-0,015	0,019
-125,497	-78,503	0,089	-0,022
-124,483	-200,000	-0,044	0,196
-123,468	-119,101	0,074	-0,009
-122,453	162,282	0,085	-0,085
-121,439	-59,975	-0,101	-0,030
-120,424	159,269	-0,097	-0,096
-119,410	-2,157	0,060	-0,030
-118,395	-200,000	-0,030	0,138
-117,380	-196,659	0,157	0,001
-116,366	28,007	-0,161	0,096
-115,351	-82,370	-0,143	-0,033
-114,337	6,359	0,024	0,012
-113,322	800,000	0,047	0,112
-112,307	122,685	-0,035	-0,031
-111,293	800,000	0,041	0,098
-110,278	-200,000	0,017	0,085
-109,264	-200,000	0,003	-0,026
-108,249	332,053	-0,035	-0,048
-107,234	800,000	0,024	0,069
-106,220	-114,152	0,095	-0,013
-105,205	275,603	0,029	0,036
-104,191	66,472	-0,006	0,004
-103,176	-200,000	0,003	-0,076
-102,162	-200,000	-0,013	0,067
-101,147	-61,001	-0,145	0,043
-100,132	-200,000	-0,019	-0,152
-99,118	413,195	0,062	0,094
-98,103	-53,446	0,084	0,027
-97,089	800,000	0,063	0,159
-96,074	800,000	-0,048	-0,115
-95,059	-200,000	0,034	0,119
-94,045	503,337	0,017	-0,028
-93,030	-81,949	0,041	-0,009
-92,016	376,158	-0,042	-0,061
-91,001	-200,000	0,046	-0,164
-89,986	800,000	-0,036	-0,101
-88,972	-124,560	0,111	0,012
-87,957	800,000	0,012	-0,025
-86,943	125,949	-0,094	0,084
-85,928	-200,000	-0,009	-0,050
-84,913	30,462	-0,062	0,037
-83,899	734,533	0,030	-0,057
-82,884	-11,528	0,011	0,005
-81,870	-200,000	-0,019	-0,076
-80,855	800,000	-0,059	-0,166
-79,840	88,567	-0,060	-0,047
-78,826	-200,000	-0,020	0,086
-77,811	800,000	0,066	-0,177
-76,797	-200,000	-0,010	-0,052
-75,782	-200,000	0,009	0,085
-74,767	271,090	-0,075	-0,094
-73,753	800,000	0,060	-0,125
-72,738	-48,719	-0,067	-0,023
-71,724	-200,000	0,004	-0,130
-70,709	-84,550	0,134	-0,030
-69,694	-56,879	-0,038	-0,012
-68,680	800,000	0,031	0,080
-67,665	525,942	-0,014	-0,024
-66,651	-200,000	0,019	0,086
-65,636	-19,413	-0,106	-0,046
-64,622	164,981	-0,081	-0,081
-63,607	-200,000	-0,033	0,000
-62,592	800,000	0,007	-0,015
-61,578	164,962	-0,042	-0,042
-60,563	-162,477	0,083	-0,003
-59,549	153,008	0,063	-0,061
-58,534	72,987	-2,265	-1,674
-57,519	686,671	-0,988	-1,836
-56,505	-200,000	-0,359	-4,472
-55,490	744,918	0,914	1,750
-54,476	800,000	5,356	11,122
-53,461	-200,000	22,895	349,415
-52,446	800,000	758,649	2277,095
-51,432	518,567	1637,029	2724,008
-50,417	71,143	1534,642	1125,351
-49,403	23,316	995,034	577,453
-48,388	12,506	638,512	347,663
-47,373	35,942	596,559	370,826
-46,359	20,419	580,884	331,513
-45,344	7,561	576,655	304,429
-44,330	7,247	575,048	302,964
-43,315	7,107	573,778	302,014
-42,300	7,184	572,598	301,528
-41,286	7,280	571,660	301,205
-40,271	7,103	571,322	300,677
-39,257	7,230	570,506	300,479
-38,242	7,264	569,797	300,159
-37,227	7,276	569,006	299,752
-36,213	7,247	568,411	299,372
-35,198	7,288	567,628	299,026
-34,184	7,347	567,376	298,993
-33,169	7,160	566,658	298,249
-32,154	7,290	566,289	298,288
-31,140	7,301	565,165	297,705
-30,125	7,403	564,595	297,585
-29,111	7,268	564,153	297,086
-28,096	7,311	563,928	297,037
-27,082	7,340	563,085	296,635
-26,067	7,340	562,787	296,467
-25,052	7,260	562,427	296,115
-24,038	7,229	562,254	295,955
-23,023	7,162	561,639	295,493
-22,009	7,371	561,103	295,591
-20,994	7,298	560,524	295,136
-19,979	7,467	559,923	295,125
-18,965	7,227	559,782	294,590
-17,950	7,280	559,492	294,525
-16,936	7,256	558,875	294,144
-15,921	7,236	558,561	293,929
-14,906	7,223	557,974	293,586
-13,892	7,270	557,359	293,338
-12,877	7,249	557,009	293,102
-11,863	7,169	556,895	292,882
-10,848	7,125	556,509	292,585
-9,833	7,280	556,112	292,652
-8,819	7,295	555,477	292,336
-7,804	7,342	554,927	292,121
-6,790	7,212	554,787	291,795
-5,775	7,375	554,220	291,787
-4,760	7,261	553,997	291,447
-3,746	7,313	553,820	291,438
-2,731	7,055	553,538	290,802
-1,717	7,034	553,342	290,648
-0,702	7,036	552,424	290,158
0,313	7,819	543,776	287,471
1,327	12,567	487,040	265,168
2,342	20,171	363,955	207,318
3,356	13,881	198,134	108,721
4,371	-14,864	134,688	60,896
5,386	-17,454	126,839	56,230
6,400	-17,919	124,349	54,925
7,415	-17,233	123,023	54,620
8,429	-18,379	122,398	53,864
9,444	-18,179	121,885	53,716
10,459	-18,060	121,581	53,626
11,473	-18,178	121,264	53,433
12,488	-17,797	121,081	53,503
13,502	-18,176	120,729	53,188
14,517	-17,819	120,568	53,258
15,531	-17,866	120,161	53,054
16,546	-18,432	120,075	52,782
17,561	-18,349	119,854	52,714
18,575	-17,453	119,759	53,030
19,590	-17,991	119,368	52,635
20,604	-18,076	119,483	52,647
21,619	-18,247	119,119	52,413
22,634	-18,141	118,870	52,341
23,648	-18,529	118,872	52,182
24,663	-18,260	118,806	52,256
25,677	-18,168	118,531	52,167
26,692	-17,600	118,493	52,373
27,707	-17,667	118,057	52,149
28,721	-17,806	118,154	52,132
29,736	-17,494	117,784	52,088
30,750	-18,097	117,978	51,929
31,765	-17,916	117,658	51,855
32,780	-18,053	117,563	51,755
33,794	-18,159	117,495	51,678
34,809	-18,118	117,251	51,582
35,823	-17,981	117,142	51,584
36,838	-18,053	117,024	51,499
37,853	-18,091	117,038	51,485
38,867	-18,340	116,951	51,344
39,882	-17,963	116,728	51,390
40,896	-17,702	116,556	51,413
41,911	-18,189	116,595	51,234
42,926	-18,022	116,412	51,214
43,940	-18,250	116,346	51,091
44,955	-17,842	116,150	51,161
45,969	-18,052	116,165	51,080
46,984	-17,882	116,074	51,102
47,999	-18,327	115,944	50,867
49,013	-17,803	115,758	50,985
50,028	-17,973	115,620	50,853
51,042	-17,687	115,430	50,876
52,057	-18,066	115,421	50,720
53,071	-17,880	115,350	50,757
54,086	-18,138	115,447	50,695
55,101	-17,691	115,075	50,700
56,115	-17,956	115,002	50,561
57,130	-17,873	114,806	50,502
58,144	-18,112	114,809	50,407
59,159	-18,451	114,755	50,247
60,174	-18,264	114,456	50,184
61,188	-18,127	114,536	50,268
62,203	-18,327	114,351	50,105
63,217	-17,857	114,254	50,239
64,232	-17,771	114,161	50,227
65,247	-18,554	114,148	49,915
66,261	-17,933	113,932	50,055
67,276	-18,173	113,853	49,924
68,290	-18,134	113,670	49,854
69,305	-18,208	113,797	49,876
70,320	-18,029	113,629	49,867
71,334	-17,610	113,370	49,908
72,349	-18,267	113,307	49,626
73,363	-18,147	113,042	49,551
74,378	-18,205	113,059	49,532
75,393	-17,570	112,894	49,697
76,407	-18,008	113,003	49,574
77,422	-17,796	112,834	49,576
78,436	-17,915	112,640	49,441
79,451	-18,008	112,626	49,395
80,466	-18,138	112,557	49,311
81,480	-18,358	112,444	49,174
82,495	-18,086	112,345	49,229
83,509	-17,969	112,199	49,205
84,524	-18,226	112,317	49,156
85,539	-18,146	112,021	49,052
86,553	-17,965	111,883	49,055
87,568	-18,097	111,707	48,923
88,582	-18,085	111,686	48,915
89,597	-17,939	111,618	48,935
90,611	-18,335	111,662	48,801
91,626	-18,101	111,444	48,790
92,641	-17,907	111,352	48,817
93,655	-17,916	111,136	48,715
94,670	-18,044	111,319	48,743
95,684	-18,054	111,105	48,641
96,699	-17,912	110,926	48,612
97,714	-17,950	110,945	48,601
98,728	-17,702	110,866	48,655
99,743	-17,385	110,610	48,656
100,757	-17,825	110,655	48,508
101,772	-17,875	110,418	48,381
102,787	-18,260	110,446	48,246
103,801	-17,880	110,406	48,365
104,816	-18,078	110,179	48,188
105,830	-17,922	110,211	48,256
106,845	-17,847	110,188	48,269
107,860	-17,899	109,971	48,150
108,874	-17,959	109,855	48,073
109,889	-17,778	109,793	48,109
110,903	-17,646	109,744	48,131
111,918	-17,611	109,638	48,094
112,933	-17,722	109,448	47,965
113,947	-18,076	109,396	47,808
114,962	-17,953	109,371	47,838
115,976	-17,776	109,187	47,818
116,991	-17,449	109,027	47,863
118,006	-17,802	108,997	47,717
119,020	-18,065	108,961	47,601
120,035	-17,472	108,875	47,775
121,049	-17,773	108,902	47,673
122,064	-17,539	108,801	47,710
123,079	-17,824	108,627	47,526
124,093	-17,928	108,582	47,464
125,108	-18,572	108,582	47,226
126,122	-17,420	108,350	47,539
127,137	-17,506	108,375	47,514
128,151	-17,606	108,312	47,446
129,166	-17,743	108,155	47,323
130,181	-18,140	108,036	47,123
131,195	-17,697	107,993	47,260
132,210	-18,204	107,857	47,014
133,224	-17,781	107,721	47,103
134,239	-17,807	107,731	47,094
135,254	-17,807	107,658	47,058
136,268	-17,424	107,352	47,057
137,283	-17,842	107,510	46,972
138,297	-17,808	107,364	46,916
139,312	-18,047	107,149	46,732
140,327	-17,520	107,122	46,905
141,341	-17,962	106,991	46,685
142,356	-17,321	106,891	46,867
143,370	-16,865	107,024	47,084
144,385	-10,686	108,102	49,786
145,400	-3,967	108,932	52,602
146,414	-2,030	109,119	53,390
147,429	-1,309	109,136	53,655
148,443	-1,337	109,106	53,626
149,458	-1,723	109,068	53,463
150,473	-0,931	109,028	53,725
151,487	-0,853	108,981	53,725
152,502	-0,400	108,667	53,729
153,516	-0,679	108,636	53,608
154,531	-0,841	108,671	53,562
155,546	-0,687	108,680	53,618
156,560	-0,560	108,405	53,523
157,575	-0,475	108,463	53,577
158,589	-0,872	108,481	53,438
159,604	-0,350	108,277	53,520
160,619	-0,352	108,179	53,467
161,633	-0,443	108,072	53,376
162,648	-0,505	108,073	53,350
163,662	-0,041	107,954	53,452
164,677	-0,787	107,974	53,191
165,692	-0,248	107,888	53,336
166,706	-0,084	107,846	53,369
167,721	-0,299	107,771	53,250
168,735	-0,350	107,661	53,173
169,750	0,045	107,557	53,258
170,764	0,134	107,492	53,253
171,779	-0,168	107,487	53,138
172,794	-0,413	107,371	52,989
173,808	-0,353	107,224	52,932
174,823	-0,458	107,123	52,841
175,837	-0,261	107,250	52,969
176,852	-0,547	107,068	52,773
177,867	-0,413	107,031	52,797
178,881	0,021	106,947	52,905
179,896	0,014	106,862	52,855
180,910	-0,629	106,764	52,575
181,925	-0,300	106,506	52,559
182,940	-0,378	106,633	52,590
183,954	-0,270	106,677	52,645
184,969	-0,150	106,568	52,629
185,983	0,172	106,356	52,633
186,998	0,099	106,212	52,531
188,013	-0,156	106,256	52,458
189,027	-0,049	106,153	52,441
190,042	0,036	105,908	52,344
191,056	-0,295	106,028	52,283
192,071	0,186	105,962	52,415
193,086	-0,315	105,736	52,123
194,100	0,179	105,758	52,302
195,115	-0,243	105,680	52,111
196,129	-0,051	105,575	52,122
197,144	-0,262	105,551	52,032
198,159	-0,237	105,418	51,970
199,173	0,434	105,304	52,143
200,188	0,553	105,196	52,126
201,202	-0,162	105,290	51,919
202,217	-0,061	105,141	51,876
203,232	-0,184	105,124	51,820
204,246	-0,237	105,120	51,796
205,261	-0,270	104,888	51,665
206,275	0,058	104,821	51,741
207,290	0,074	104,727	51,696
208,304	0,014	104,723	51,669
209,319	0,204	104,505	51,622
210,334	0,177	104,664	51,686
211,348	-0,035	104,353	51,455
212,363	0,235	104,308	51,521
213,377	0,077	104,342	51,479
214,392	0,240	104,352	51,535
215,407	0,152	104,318	51,484
216,421	0,424	104,265	51,547
217,436	0,045	104,017	51,289
218,450	0,799	103,900	51,485
219,465	0,119	103,893	51,244
220,480	0,146	103,846	51,226
221,494	0,274	103,794	51,240
222,509	0,057	103,788	51,158
223,523	0,034	103,690	51,097
224,538	0,201	103,536	51,073
225,553	0,050	103,536	51,018
226,567	0,290	103,299	50,978
227,582	0,435	103,356	51,051
228,596	0,118	103,244	50,883
229,611	0,095	103,256	50,877
230,626	0,358	103,158	50,913
231,640	0,307	102,947	50,788
232,655	0,138	102,939	50,721
233,669	0,171	102,887	50,703
234,684	0,681	102,826	50,841
235,699	0,486	102,817	50,766
236,713	0,288	102,875	50,723
237,728	0,532	102,685	50,707
238,742	0,865	102,616	50,781
239,757	0,280	102,481	50,512
240,772	0,434	102,540	50,588
241,786	0,591	102,364	50,550
242,801	0,466	102,328	50,486
243,815	0,608	102,116	50,425
244,830	0,619	102,187	50,459
245,844	0,855	102,029	50,455
246,859	0,847	102,003	50,435
247,874	0,394	101,941	50,248
248,888	0,931	101,823	50,366
249,903	0,455	101,889	50,234
250,917	0,813	101,712	50,262
251,932	0,431	101,757	50,152
252,947	0,747	101,679	50,215
253,961	0,658	101,570	50,127
254,976	0,806	101,444	50,109
255,990	0,924	101,339	50,093
257,005	0,943	101,350	50,100
258,020	0,292	101,337	49,872
259,034	1,217	101,199	50,107
260,049	0,767	101,107	49,908
261,063	0,852	101,182	49,969
262,078	0,375	100,950	49,691
263,093	0,835	100,916	49,823
264,107	0,618	100,882	49,729
265,122	0,406	100,969	49,698
266,136	0,367	100,846	49,620
267,151	0,514	100,760	49,622
268,166	0,680	100,660	49,623
269,180	0,408	100,506	49,453
270,195	0,551	100,457	49,471
271,209	0,927	100,290	49,508
272,224	1,498	100,236	49,665
273,239	0,929	100,257	49,484
274,253	0,989	100,192	49,468
275,268	0,734	100,113	49,341
276,282	0,544	100,091	49,263
277,297	0,465	100,115	49,244
278,312	0,698	99,904	49,212
279,326	0,672	100,050	49,271
280,341	0,881	99,888	49,255
281,355	0,388	99,925	49,108
282,370	1,049	99,700	49,209
283,384	0,604	99,609	49,014
284,399	0,663	99,579	49,015
285,414	0,479	99,629	48,975
286,428	0,994	99,420	49,035
287,443	1,135	99,404	49,069
288,457	0,603	99,502	48,940
289,472	1,356	99,299	49,080
290,487	0,392	99,238	48,733
291,501	1,044	99,147	48,895
292,516	0,651	99,014	48,698
293,530	0,557	99,087	48,699
294,545	0,908	98,953	48,742
295,560	1,086	98,852	48,746
296,574	0,944	98,795	48,667
297,589	0,949	98,695	48,615
298,603	1,000	98,690	48,625
299,618	1,446	98,662	48,751
300,633	1,240	98,572	48,636
301,647	1,348	98,510	48,635
302,662	0,497	98,441	48,323
303,676	0,712	98,304	48,321
304,691	0,957	98,370	48,428
305,706	1,033	98,229	48,378
306,720	0,673	98,176	48,233
307,735	1,262	98,116	48,388
308,749	0,938	98,154	48,298
309,764	1,050	98,117	48,311
310,779	0,776	97,929	48,127
311,793	0,538	97,946	48,055
312,808	0,888	97,704	48,043
313,822	1,348	97,576	48,123
314,837	1,533	97,605	48,192
315,852	1,836	97,655	48,309
316,866	1,090	97,632	48,055
317,881	1,099	97,429	47,954
318,895	1,360	97,310	47,974
319,910	0,907	97,234	47,788
320,925	1,171	97,214	47,859
321,939	1,087	97,209	47,825
322,954	1,163	97,141	47,811
323,968	1,660	97,085	47,937
324,983	2,350	96,811	48,015
325,997	1,690	96,917	47,855
327,012	1,485	96,922	47,788
328,027	1,318	96,781	47,662
329,041	0,940	96,819	47,557
330,056	1,429	96,781	47,688
331,070	1,134	96,747	47,574
332,085	1,333	96,530	47,526
333,100	1,037	96,463	47,396
334,114	1,078	96,468	47,407
335,129	1,096	96,434	47,391
336,143	1,022	96,383	47,339
337,158	1,286	96,254	47,354
338,173	1,004	96,169	47,220
339,187	1,739	95,995	47,360
340,202	1,420	96,035	47,275
341,216	1,424	96,014	47,262
342,231	0,916	95,969	47,077
343,246	1,284	95,821	47,115
344,260	1,388	95,886	47,176
345,275	1,853	95,698	47,224
346,289	1,899	95,767	47,268
347,304	1,913	95,536	47,154
348,319	1,598	95,514	47,041
349,333	1,276	95,372	46,867
350,348	1,244	95,416	46,874
351,362	1,520	95,403	46,950
352,377	1,594	95,293	46,914
353,392	1,419	95,443	46,930
354,406	1,944	95,297	47,017
355,421	200,367	1316,475	1389,252
356,435	156,748	1465,708	1389,708
