DTS Sentinel unit serial number:	SN410029Multiplexer serial number:	ORYXHardware model number:	OX2-SRSoftware version number:	ORYX F/W v4,00 Oryx Data Collector v3.7.2.0data status	okinstallation	B3 Nyhavnadifferential loss correction	single-endedforward channel	channel 1reverse channel	N/Adate	2023/11/28time	11:47:30forward acquisition time	300,00reverse acquisition time	0,00gamma	499,1914k internal	0,3146k external	0,3146temperature offset calibration	1,0000default loss term (dB/km)	0,3820temperature slope calibration	1,0000multiplexer offset coefficient	1,0000multiplexer slope coefficient	1,0000fibre end	0,00T internal ref (°C)	8,97T ext. ref 1 (°C)	-7,61T ext. ref 2 (°C)	-7,82length (m)	temperature (°C)	Stokes	anti-Stokes-744,400	249,959	-0,120	-0,151
-743,385	-200,000	0,033	0,246
-742,371	148,846	-0,182	-0,182
-741,356	-200,000	0,046	0,318
-740,342	800,000	-0,165	-0,373
-739,327	-200,000	-0,036	0,381
-738,312	800,000	-0,119	-0,266
-737,298	-200,000	-0,073	0,309
-736,283	-200,000	-0,080	-0,270
-735,269	-200,000	0,002	0,520
-734,254	-60,737	-0,236	-0,073
-733,239	62,103	-0,228	0,168
-732,225	332,689	-0,171	-0,245
-731,210	-26,897	0,175	0,075
-730,196	168,248	0,016	-0,017
-729,181	-127,992	-0,155	-0,016
-728,167	-200,000	-0,048	-0,208
-727,152	800,000	-0,059	0,182
-726,137	-149,396	0,063	0,004
-725,123	-72,256	-0,108	0,029
-724,108	-200,000	0,044	-0,220
-723,094	800,000	-0,056	-0,137
-722,079	290,063	-0,066	-0,089
-721,064	-200,000	0,034	-0,178
-720,050	-79,098	0,061	-0,015
-719,035	-54,977	-0,103	0,034
-718,021	800,000	0,043	-0,116
-717,006	-188,179	-0,149	0,001
-715,991	174,982	-0,074	-0,079
-714,977	259,889	0,047	0,060
-713,962	-46,117	0,131	0,048
-712,948	64,069	0,058	0,043
-711,933	-97,002	-0,083	0,016
-710,918	-50,882	-0,045	-0,015
-709,904	26,189	-0,047	0,029
-708,889	-200,000	-0,002	-0,090
-707,875	114,498	0,084	-0,076
-706,860	800,000	0,022	-0,062
-705,845	101,380	0,064	0,055
-704,831	-200,000	-0,016	0,174
-703,816	-4,697	-0,084	0,043
-702,802	800,000	0,048	0,143
-701,787	-200,000	0,001	0,015
-700,772	800,000	-0,053	-0,147
-699,758	-57,862	0,040	-0,013
-698,743	800,000	-0,023	0,064
-697,729	-112,358	0,125	0,018
-696,714	-7,193	-0,043	0,022
-695,699	-200,000	0,013	-0,101
-694,685	-119,524	-0,082	0,010
-693,670	-200,000	0,005	-0,057
-692,656	505,243	-0,038	-0,066
-691,641	123,609	-0,086	0,079
-690,627	181,131	0,093	0,101
-689,612	-56,472	0,140	-0,046
-688,597	209,471	0,099	-0,114
-687,583	266,738	-0,071	-0,091
-686,568	44,274	-0,008	-0,005
-685,554	-200,000	0,023	-0,114
-684,539	25,568	-0,039	0,024
-683,524	-200,000	0,002	-0,031
-682,510	-4,408	0,014	0,007
-681,495	155,270	-0,091	-0,092
-680,481	614,231	-0,087	-0,162
-679,466	663,282	-0,036	-0,069
-678,451	-43,214	0,092	0,034
-677,437	51,919	-0,153	0,108
-676,422	800,000	0,018	0,053
-675,408	745,430	0,023	-0,045
-674,393	-24,014	-0,141	-0,062
-673,378	-200,000	0,009	0,040
-672,364	-87,045	-0,173	-0,039
-671,349	94,884	-0,012	0,010
-670,335	0,226	-0,065	-0,034
-669,320	800,000	0,040	0,099
-668,305	215,935	-0,018	-0,021
-667,291	382,653	0,055	-0,084
-666,276	25,000	-0,036	-0,022
-665,262	395,646	-0,119	-0,183
-664,247	65,890	0,097	-0,073
-663,232	-102,921	-0,119	-0,021
-662,218	-9,475	0,071	-0,035
-661,203	565,450	-0,037	-0,067
-660,189	216,732	0,063	0,074
-659,174	381,237	0,098	-0,149
-658,159	-146,170	-0,050	-0,003
-657,145	527,739	-0,039	-0,068
-656,130	-15,964	-0,092	-0,043
-655,116	532,201	-0,064	0,112
-654,101	-42,872	-0,036	-0,013
-653,086	800,000	-0,022	-0,048
-652,072	-184,086	0,141	0,002
-651,057	-75,727	-0,072	-0,019
-650,043	800,000	0,018	0,056
-649,028	-100,496	0,179	-0,032
-648,014	29,820	0,119	0,075
-646,999	-21,916	0,067	0,030
-645,984	107,253	0,117	0,103
-644,970	138,739	-0,038	-0,037
-643,955	89,437	0,023	-0,019
-642,941	-200,000	-0,017	-0,065
-641,926	800,000	0,068	-0,205
-640,911	-74,750	0,037	0,010
-639,897	217,781	0,018	0,021
-638,882	-47,923	-0,009	-0,003
-637,868	-200,000	0,004	0,018
-636,853	180,191	-0,038	-0,041
-635,838	317,615	-0,090	-0,126
-634,824	-200,000	-0,010	-0,081
-633,809	-43,813	-0,065	0,024
-632,795	-200,000	-0,000	0,144
-631,780	165,843	0,135	0,141
-630,765	219,523	-0,060	0,070
-629,751	2,853	-0,104	-0,055
-628,736	-200,000	-0,021	-0,089
-627,722	536,267	-0,047	0,083
-626,707	-200,000	0,019	0,109
-625,692	-200,000	0,008	0,109
-624,678	800,000	-0,019	-0,057
-623,663	196,521	-0,070	-0,079
-622,649	-200,000	-0,005	-0,067
-621,634	800,000	-0,027	-0,059
-620,619	800,000	0,038	-0,100
-619,605	444,221	0,077	0,125
-618,590	-200,000	0,013	-0,106
-617,576	86,847	-0,080	-0,065
-616,561	-19,400	0,128	-0,058
-615,546	145,172	-0,120	-0,118
-614,532	800,000	0,045	-0,127
-613,517	13,048	-0,017	-0,010
-612,503	-200,000	-0,013	0,085
-611,488	-100,903	0,130	-0,023
-610,474	-140,877	-0,127	0,009
-609,459	0,356	-0,046	0,024
-608,444	-200,000	0,014	0,098
-607,430	148,873	0,037	0,037
-606,415	-200,000	0,002	0,060
-605,401	-137,907	0,092	-0,007
-604,386	800,000	0,029	-0,067
-603,371	-200,000	-0,010	0,202
-602,357	800,000	-0,024	0,072
-601,342	-200,000	0,003	-0,056
-600,328	472,071	0,084	-0,139
-599,313	600,015	0,052	0,096
-598,298	-85,754	-0,098	-0,022
-597,284	-200,000	0,039	-0,167
-596,269	37,975	0,167	0,109
-595,255	86,977	0,086	0,070
-594,240	800,000	-0,038	0,089
-593,225	-200,000	0,002	-0,055
-592,211	14,404	-0,103	-0,059
-591,196	242,224	-0,040	0,050
-590,182	800,000	0,051	-0,159
-589,167	391,991	0,031	0,047
-588,152	800,000	-0,044	0,104
-587,138	63,360	-0,022	-0,016
-586,123	-200,000	-0,028	0,124
-585,109	-54,514	-0,065	-0,021
-584,094	-67,880	-0,124	-0,035
-583,079	-95,416	-0,064	0,013
-582,065	57,365	-0,077	0,055
-581,050	-139,543	-0,055	-0,004
-580,036	212,403	0,065	-0,075
-579,021	36,444	0,113	-0,073
-578,006	-163,297	-0,153	0,005
-576,992	-51,070	0,097	-0,033
-575,977	800,000	-0,017	0,053
-574,963	717,818	0,060	0,118
-573,948	-200,000	0,008	0,029
-572,934	277,907	0,041	-0,054
-571,919	800,000	-0,060	0,127
-570,904	100,768	-0,043	-0,037
-569,890	200,779	0,075	-0,085
-568,875	635,622	0,028	0,052
-567,861	-95,228	-0,028	-0,005
-566,846	184,201	0,079	0,086
-565,831	113,432	0,078	0,070
-564,817	57,408	-0,084	-0,060
-563,802	-25,366	-0,121	-0,052
-562,788	74,631	0,063	-0,049
-561,773	-200,000	-0,011	-0,117
-560,758	-90,834	0,105	0,022
-559,744	117,589	0,079	0,071
-558,729	-26,782	-0,056	0,024
-557,715	-104,019	-0,089	-0,015
-556,700	-200,000	-0,005	-0,151
-555,685	370,507	-0,036	-0,053
-554,671	557,529	0,050	0,090
-553,656	-33,756	0,020	0,008
-552,642	-200,000	0,021	0,128
-551,627	426,502	0,029	0,045
-550,612	72,066	-0,204	-0,156
-549,598	-89,385	-0,107	-0,023
-548,583	-46,086	-0,069	0,025
-547,569	9,123	0,067	0,037
-546,554	240,007	0,064	0,079
-545,539	-68,535	0,219	-0,062
-544,525	-11,823	-0,068	-0,033
-543,510	800,000	-0,031	-0,095
-542,496	800,000	0,017	0,051
-541,481	144,468	-0,120	-0,118
-540,466	103,815	-0,031	-0,027
-539,452	110,158	0,138	-0,122
-538,437	-200,000	-0,012	0,116
-537,423	-167,746	0,072	0,002
-536,408	115,589	0,027	-0,024
-535,393	800,000	0,029	-0,061
-534,379	-180,961	-0,077	-0,001
-533,364	2,695	-0,060	0,032
-532,350	282,923	-0,113	0,150
-531,335	233,813	0,022	-0,027
-530,321	800,000	-0,023	-0,049
-529,306	-152,787	-0,036	-0,002
-528,291	197,572	-0,052	-0,058
-527,277	88,618	-0,052	-0,042
-526,262	800,000	-0,026	0,052
-525,248	-95,880	0,123	-0,024
-524,233	0,293	0,189	0,099
-523,218	-200,000	0,015	0,158
-522,204	135,485	-0,130	0,124
-521,189	673,871	0,072	-0,138
-520,175	339,002	-0,069	-0,099
-519,160	800,000	0,025	-0,063
-518,145	800,000	-0,018	-0,053
-517,131	-200,000	0,036	-0,128
-516,116	800,000	0,038	0,109
-515,102	-131,248	-0,136	-0,013
-514,087	-200,000	-0,040	-0,217
-513,072	-200,000	-0,033	-0,118
-512,058	-3,288	-0,080	-0,041
-511,043	139,889	-0,095	0,092
-510,029	-200,000	0,002	0,028
-509,014	174,982	0,060	0,064
-507,999	800,000	-0,041	-0,086
-506,985	-200,000	0,007	-0,115
-505,970	-132,381	-0,183	-0,017
-504,956	-200,000	0,003	0,072
-503,941	80,278	-0,014	0,011
-502,926	58,429	0,076	0,055
-501,912	-119,948	0,087	-0,011
-500,897	-61,561	-0,175	-0,054
-499,883	-19,128	-0,105	-0,048
-498,868	-200,000	-0,025	-0,132
-497,853	395,180	0,023	-0,036
-496,839	83,027	-0,123	0,098
-495,824	500,392	0,065	-0,111
-494,810	22,860	-0,111	0,066
-493,795	-85,459	0,059	-0,013
-492,781	-200,000	-0,000	-0,031
-491,766	-200,000	-0,011	-0,205
-490,751	237,271	0,088	0,107
-489,737	-43,088	0,134	0,050
-488,722	-42,149	0,079	0,030
-487,708	545,244	-0,017	0,030
-486,693	69,773	0,051	-0,038
-485,678	391,377	0,087	-0,133
-484,664	6,850	-0,161	-0,087
-483,649	-123,097	-0,079	0,009
-482,635	-102,083	-0,118	-0,021
-481,620	8,842	0,059	-0,033
-480,605	-81,292	0,077	0,018
-479,591	-200,000	0,014	0,106
-478,576	145,426	0,173	-0,170
-477,562	99,084	0,027	0,023
-476,547	64,218	-0,107	-0,079
-475,532	-200,000	0,010	0,036
-474,518	-200,000	0,000	0,058
-473,503	574,673	-0,033	0,059
-472,489	-76,963	0,125	0,032
-471,474	-200,000	-0,002	-0,169
-470,459	-200,000	-0,001	-0,019
-469,445	-11,871	0,044	-0,021
-468,430	-200,000	-0,006	-0,043
-467,416	-200,000	-0,013	-0,101
-466,401	16,554	0,035	-0,020
-465,386	126,310	-0,090	0,083
-464,372	80,430	-0,077	0,061
-463,357	-16,509	0,042	-0,019
-462,343	-200,000	0,008	-0,033
-461,328	675,315	0,047	0,090
-460,313	73,451	0,064	0,049
-459,299	-180,286	-0,106	0,002
-458,284	-31,649	0,085	-0,035
-457,270	-59,795	-0,047	0,015
-456,255	-41,230	-0,061	0,023
-455,241	-74,196	-0,052	0,014
-454,226	-16,064	-0,065	0,030
-453,211	-200,000	0,004	-0,074
-452,197	-167,768	0,110	0,003
-451,182	72,731	-0,014	0,011
-450,168	-74,027	0,173	-0,045
-449,153	541,953	0,026	-0,045
-448,138	-57,570	0,147	0,047
-447,124	-105,069	-0,153	-0,025
-446,109	800,000	-0,054	0,140
-445,095	132,474	0,078	-0,073
-444,080	800,000	-0,048	0,109
-443,065	-200,000	0,024	-0,081
-442,051	574,522	-0,043	-0,077
-441,036	735,703	-0,068	-0,134
-440,022	-200,000	-0,005	-0,159
-439,007	-52,443	-0,060	0,020
-437,992	800,000	0,039	-0,079
-436,978	-200,000	0,023	0,083
-435,963	149,788	-0,027	-0,027
-434,949	717,822	0,054	0,105
-433,934	233,368	-0,055	-0,066
-432,919	-200,000	0,008	-0,236
-431,905	168,749	-0,132	0,138
-430,890	800,000	0,016	-0,039
-429,876	800,000	0,013	-0,026
-428,861	40,447	0,053	-0,035
-427,846	-157,724	0,058	0,002
-426,832	-200,000	-0,048	-0,186
-425,817	223,202	-0,090	-0,107
-424,803	415,228	-0,021	0,033
-423,788	800,000	0,047	-0,098
-422,773	-14,130	0,165	0,078
-421,759	-133,811	-0,106	0,009
-420,744	800,000	0,029	0,090
-419,730	-169,170	-0,073	0,002
-418,715	-133,348	-0,121	0,011
-417,701	-62,379	-0,129	0,039
-416,686	-200,000	-0,011	0,103
-415,671	-40,673	-0,053	-0,020
-414,657	-200,000	-0,010	0,048
-413,642	800,000	0,024	-0,067
-412,628	-28,968	0,044	-0,018
-411,613	-200,000	0,003	0,116
-410,598	-116,550	-0,129	-0,017
-409,584	-200,000	-0,006	0,131
-408,569	195,178	0,066	0,073
-407,555	-31,704	0,164	-0,067
-406,540	800,000	0,024	-0,053
-405,525	800,000	-0,029	-0,062
-404,511	-200,000	0,003	-0,228
-403,496	90,405	-0,063	-0,051
-402,482	-200,000	0,006	-0,057
-401,467	-69,043	0,052	0,015
-400,452	800,000	-0,034	0,090
-399,438	-104,973	0,103	-0,017
-398,423	-200,000	0,008	-0,094
-397,409	46,067	-0,029	0,020
-396,394	23,517	0,050	0,030
-395,379	60,208	0,090	-0,065
-394,365	800,000	0,030	-0,066
-393,350	-164,337	0,148	0,005
-392,336	336,184	0,090	0,127
-391,321	-68,819	-0,100	0,028
-390,306	-200,000	0,017	-0,102
-389,292	193,343	-0,055	-0,061
-388,277	246,412	-0,021	0,026
-387,263	-200,000	0,014	0,053
-386,248	71,496	0,058	-0,044
-385,233	800,000	-0,022	-0,060
-384,219	-200,000	0,005	0,082
-383,204	348,421	0,063	-0,091
-382,190	800,000	0,029	-0,073
-381,175	-200,000	0,024	-0,088
-380,160	800,000	0,038	-0,098
-379,146	-187,809	0,152	-0,001
-378,131	92,107	-0,068	0,056
-377,117	-200,000	0,004	0,036
-376,102	-200,000	0,017	0,069
-375,088	-200,000	-0,002	0,067
-374,073	3,558	0,067	-0,036
-373,058	135,633	-0,017	-0,016
-372,044	20,505	-0,105	0,062
-371,029	217,864	0,095	0,110
-370,015	-200,000	-0,015	-0,063
-369,000	42,624	-0,077	0,051
-367,985	72,057	0,073	0,055
-366,971	403,715	-0,115	-0,178
-365,956	67,725	0,092	-0,068
-364,942	800,000	0,021	0,053
-363,927	9,268	0,044	-0,024
-362,912	4,327	0,060	-0,032
-361,898	38,745	0,081	-0,052
-360,883	-200,000	0,000	-0,013
-359,869	-31,959	0,186	-0,076
-358,854	800,000	0,055	0,117
-357,839	800,000	0,051	0,138
-356,825	1,867	-0,101	-0,053
-355,810	-18,708	0,235	-0,106
-354,796	-44,403	-0,057	-0,021
-353,781	-200,000	0,001	0,071
-352,766	-200,000	-0,004	-0,043
-351,752	-123,685	0,090	0,010
-350,737	800,000	0,070	0,144
-349,723	5,292	-0,055	0,029
-348,708	-200,000	-0,112	0,000
-347,693	800,000	-0,016	-0,046
-346,679	800,000	-0,026	-0,066
-345,664	5,121	0,229	-0,122
-344,650	-200,000	-0,004	0,091
-343,635	800,000	-0,062	0,155
-342,620	800,000	-0,039	-0,093
-341,606	-110,354	-0,014	-0,002
-340,591	-200,000	0,006	0,021
-339,577	-1,949	-0,045	-0,023
-338,562	-134,803	-0,164	-0,014
-337,548	46,031	-0,050	0,034
-336,533	-200,000	0,003	-0,064
-335,518	-200,000	0,009	0,093
-334,504	800,000	-0,048	0,132
-333,489	172,091	0,084	-0,088
-332,475	19,967	-0,104	-0,061
-331,460	323,373	-0,105	-0,146
-330,445	196,681	-0,048	-0,054
-329,431	5,764	-0,055	0,029
-328,416	73,719	-0,026	-0,020
-327,402	304,714	-0,076	-0,103
-326,387	-59,333	0,038	0,012
-325,372	307,490	0,014	-0,019
-324,358	-23,304	-0,051	-0,022
-323,343	-46,459	-0,096	-0,034
-322,329	48,319	0,138	-0,094
-321,314	-108,546	0,125	0,019
-320,299	168,432	-0,117	0,121
-319,285	-200,000	0,012	0,116
-318,270	138,006	0,075	-0,072
-317,256	800,000	0,031	0,063
-316,241	-200,000	0,029	-0,109
-315,226	-200,000	0,007	0,151
-314,212	-18,854	0,135	0,061
-313,197	-13,168	0,183	-0,086
-312,183	455,163	-0,084	0,136
-311,168	376,677	-0,029	-0,043
-310,153	-19,667	-0,062	-0,028
-309,139	-200,000	0,024	-0,134
-308,124	-200,000	0,014	-0,056
-307,110	-37,687	-0,068	0,026
-306,095	670,464	0,029	0,055
-305,080	800,000	0,030	-0,066
-304,066	-131,167	-0,011	0,001
-303,051	-200,000	-0,005	0,054
-302,037	-200,000	0,028	-0,210
-301,022	-98,222	0,064	-0,012
-300,008	800,000	0,067	0,142
-298,993	690,707	0,062	0,118
-297,978	-193,026	0,067	0,000
-296,964	-43,430	-0,107	-0,039
-295,949	35,806	0,045	-0,029
-294,935	-200,000	-0,032	-0,174
-293,920	73,935	0,067	0,051
-292,905	-7,170	0,072	-0,036
-291,891	-26,563	-0,101	0,043
-290,876	149,525	-0,032	0,031
-289,862	-200,000	0,016	0,132
-288,847	735,654	0,016	0,032
-287,832	-200,000	-0,029	-0,229
-286,818	-31,149	0,039	0,016
-285,803	-22,168	0,120	0,053
-284,789	527,389	-0,043	0,074
-283,774	9,723	0,054	0,030
-282,759	366,577	-0,063	-0,093
-281,745	-105,713	-0,064	-0,010
-280,730	-200,000	0,014	0,052
-279,716	247,108	-0,119	0,146
-278,701	-200,000	0,011	0,066
-277,686	800,000	0,033	0,083
-276,672	-200,000	0,016	0,117
-275,657	287,631	-0,083	0,109
-274,643	-112,241	-0,050	-0,007
-273,628	800,000	-0,014	0,034
-272,613	-35,026	-0,149	-0,059
-271,599	-101,303	0,140	0,025
-270,584	-24,716	-0,140	0,060
-269,570	-120,632	-0,112	-0,014
-268,555	86,199	-0,025	0,020
-267,540	10,333	0,068	0,038
-266,526	-43,051	-0,109	-0,040
-265,511	-200,000	-0,016	-0,075
-264,497	800,000	-0,055	0,175
-263,482	-145,321	0,159	-0,010
-262,467	800,000	0,032	0,071
-261,453	-82,797	0,020	-0,005
-260,438	408,864	0,048	-0,074
-259,424	800,000	0,023	0,061
-258,409	-16,571	-0,024	-0,011
-257,395	-200,000	-0,007	0,071
-256,380	-19,133	0,149	0,067
-255,365	800,000	0,020	0,043
-254,351	154,496	0,034	-0,034
-253,336	-12,867	-0,114	0,054
-252,322	624,494	-0,009	0,017
-251,307	161,422	-0,033	-0,033
-250,292	-200,000	-0,008	-0,036
-249,278	-64,256	0,107	0,031
-248,263	27,271	-0,117	0,071
-247,249	-200,000	-0,021	0,135
-246,234	601,601	-0,036	0,066
-245,219	131,966	-0,079	-0,074
-244,205	-10,412	0,044	0,021
-243,190	784,889	-0,019	-0,038
-242,176	-200,000	0,009	-0,117
-241,161	-200,000	0,001	0,107
-240,146	104,540	0,038	0,033
-239,132	18,489	-0,044	0,025
-238,117	800,000	-0,027	-0,083
-237,103	-200,000	-0,019	-0,082
-236,088	-200,000	-0,047	0,158
-235,073	120,756	0,049	-0,045
-234,059	19,723	0,042	-0,024
-233,044	210,075	-0,068	0,078
-232,030	-200,000	-0,009	0,138
-231,015	-200,000	-0,004	0,064
-230,000	646,324	0,054	-0,101
-228,986	-64,897	-0,090	-0,026
-227,971	-44,638	-0,040	-0,014
-226,957	58,644	-0,052	0,037
-225,942	-200,000	0,008	-0,070
-224,927	-41,923	0,113	0,042
-223,913	-200,000	-0,018	-0,067
-222,898	175,394	-0,027	0,028
-221,884	-200,000	-0,002	0,060
-220,869	-200,000	-0,021	0,142
-219,855	666,409	-0,054	0,102
-218,840	800,000	0,045	0,127
-217,825	-31,889	0,142	-0,058
-216,811	800,000	0,046	-0,124
-215,796	158,387	-0,108	0,109
-214,782	-186,488	0,054	-0,001
-213,767	800,000	0,057	0,117
-212,752	64,011	0,067	0,049
-211,738	602,743	-0,042	0,076
-210,723	-118,216	0,080	0,010
-209,709	-200,000	-0,073	-0,000
-208,694	-62,566	0,036	0,011
-207,679	280,461	0,054	0,071
-206,665	-162,305	-0,058	-0,002
-205,650	800,000	-0,046	-0,124
-204,636	407,228	-0,135	0,207
-203,621	767,057	0,042	-0,083
-202,606	-200,000	-0,006	0,079
-201,592	176,162	-0,019	-0,020
-200,577	800,000	-0,009	0,028
-199,563	6,975	-0,043	-0,023
-198,548	-125,106	0,150	-0,016
-197,533	-200,000	0,008	0,114
-196,519	161,466	-0,022	0,022
-195,504	-91,079	-0,104	-0,021
-194,490	75,858	-0,121	-0,093
-193,475	-6,317	-0,142	0,070
-192,460	-141,191	0,082	0,006
-191,446	-181,079	-0,071	-0,001
-190,431	-43,251	0,106	0,039
-189,417	-82,095	-0,010	-0,002
-188,402	116,215	-0,075	0,066
-187,387	-46,226	-0,111	-0,039
-186,373	79,685	0,050	-0,039
-185,358	28,499	0,060	-0,036
-184,344	565,980	0,086	0,152
-183,329	185,814	0,103	0,111
-182,315	190,714	0,118	-0,129
-181,300	800,000	-0,021	0,058
-180,285	59,390	-0,118	-0,084
-179,271	800,000	0,076	-0,180
-178,256	-200,000	-0,007	0,034
-177,242	42,252	0,093	0,061
-176,227	692,979	0,039	0,075
-175,212	800,000	-0,036	0,100
-174,198	26,699	-0,027	-0,017
-173,183	-73,751	-0,051	-0,013
-172,169	-81,203	-0,146	0,035
-171,154	-200,000	-0,056	0,213
-170,139	-200,000	-0,006	0,063
-169,125	-200,000	-0,002	0,039
-168,110	-83,296	0,049	-0,011
-167,096	96,271	-0,120	-0,099
-166,081	-200,000	-0,006	-0,048
-165,066	-27,525	-0,127	0,053
-164,052	-0,875	-0,111	-0,057
-163,037	-200,000	0,027	0,146
-162,023	800,000	-0,006	0,015
-161,008	800,000	0,022	0,061
-159,993	-184,209	0,084	-0,001
-158,979	-0,667	-0,032	-0,016
-157,964	-200,000	-0,016	0,137
-156,950	-200,000	0,033	-0,132
-155,935	198,138	-0,036	-0,040
-154,920	-200,000	0,045	0,147
-153,906	-11,162	0,075	-0,036
-152,891	-200,000	0,005	-0,107
-151,877	-200,000	-0,001	-0,039
-150,862	-200,000	-0,000	-0,030
-149,847	-94,776	0,022	-0,004
-148,833	-113,482	0,096	0,013
-147,818	11,612	0,094	0,052
-146,804	800,000	0,027	0,064
-145,789	-200,000	-0,019	-0,065
-144,775	-200,000	-0,006	-0,210
-143,760	-139,461	-0,167	0,013
-142,745	800,000	0,051	-0,111
-141,731	792,322	-0,007	-0,014
-140,716	298,345	0,053	-0,070
-139,702	298,854	0,052	0,070
-138,687	-23,037	0,035	0,015
-137,672	105,588	-0,141	-0,121
-136,658	-50,891	-0,017	-0,006
-135,643	-139,681	-0,076	-0,006
-134,629	800,000	0,047	-0,113
-133,614	167,327	0,115	-0,118
-132,599	-200,000	0,010	-0,102
-131,585	-200,000	-0,046	0,204
-130,570	-40,670	-0,071	-0,026
-129,556	-73,598	-0,063	0,016
-128,541	-104,587	-0,022	-0,004
-127,526	46,667	0,082	0,055
-126,512	-200,000	-0,003	-0,083
-125,497	342,843	0,086	0,122
-124,483	121,802	-0,127	0,115
-123,468	800,000	0,009	-0,027
-122,453	-200,000	0,026	0,105
-121,439	137,366	-0,089	0,084
-120,424	448,338	-0,020	0,033
-119,410	337,950	0,006	0,008
-118,395	800,000	0,035	0,085
-117,380	52,820	-0,047	0,032
-116,366	27,235	0,140	-0,085
-115,351	-121,468	-0,099	-0,012
-114,337	284,490	0,047	0,061
-113,322	-38,395	-0,037	0,014
-112,307	409,231	-0,098	0,150
-111,293	546,995	-0,021	0,036
-110,278	-82,197	-0,056	0,013
-109,264	233,024	-0,018	-0,022
-108,249	-200,000	-0,001	-0,030
-107,234	20,559	-0,078	-0,045
-106,220	-200,000	0,019	-0,068
-105,205	-72,880	0,092	-0,024
-104,191	20,610	0,156	0,091
-103,176	184,052	0,064	-0,068
-102,162	229,966	-0,067	-0,079
-101,147	800,000	-0,051	-0,109
-100,132	100,598	-0,050	-0,042
-99,118	-158,456	-0,019	-0,001
-98,103	-200,000	0,018	-0,091
-97,089	800,000	0,035	0,075
-96,074	-174,715	0,085	0,002
-95,059	25,054	-0,079	0,047
-94,045	9,324	-0,062	-0,034
-93,030	149,871	-0,082	-0,080
-92,016	-59,664	-0,123	-0,038
-91,001	-200,000	-0,012	0,060
-89,986	-200,000	-0,012	0,102
-88,972	-121,265	0,176	0,021
-87,957	-200,000	-0,030	-0,107
-86,943	-18,596	-0,068	0,030
-85,928	800,000	-0,056	-0,145
-84,913	-200,000	0,019	0,100
-83,899	-200,000	0,001	-0,041
-82,884	64,603	0,082	-0,059
-81,870	698,484	-0,025	0,048
-80,855	194,076	-0,026	0,029
-79,840	591,411	0,043	-0,076
-78,826	60,936	-0,106	-0,076
-77,811	800,000	0,051	-0,142
-76,797	-152,712	-0,032	0,002
-75,782	-108,093	0,071	-0,011
-74,767	-200,000	0,026	-0,126
-73,753	73,090	0,095	-0,071
-72,738	-200,000	-0,009	0,066
-71,724	800,000	-0,017	-0,048
-70,709	130,239	-0,076	0,071
-69,694	-200,000	0,019	-0,128
-68,680	32,523	0,048	-0,030
-67,665	-56,012	0,119	-0,038
-66,651	333,892	-0,032	-0,045
-65,636	800,000	-0,034	0,072
-64,622	-50,903	-0,054	-0,018
-63,607	226,611	-0,110	-0,129
-62,592	199,051	-0,106	-0,118
-61,578	119,587	-0,060	0,053
-60,563	78,143	-0,033	0,025
-59,549	-176,768	0,052	0,001
-58,534	72,701	-2,064	-1,551
-57,519	521,165	-1,223	-2,076
-56,505	-200,000	-0,251	-4,345
-55,490	525,208	0,918	1,563
-54,476	800,000	5,271	11,340
-53,461	-200,000	21,754	340,728
-52,446	800,000	756,140	2312,923
-51,432	515,822	1649,107	2785,899
-50,417	69,700	1575,409	1168,261
-49,403	20,866	1125,545	655,339
-48,388	12,524	827,854	458,678
-47,373	26,453	791,609	475,696
-46,359	18,279	777,215	445,705
-45,344	9,099	772,903	419,197
-44,330	8,953	771,332	417,946
-43,315	8,868	770,134	417,059
-42,300	8,885	768,870	416,400
-41,286	8,959	767,835	416,017
-40,271	8,818	767,184	415,280
-39,257	8,896	766,295	414,986
-38,242	8,998	765,256	414,673
-37,227	8,935	764,524	414,096
-36,213	8,947	763,724	413,677
-35,198	9,035	762,702	413,335
-34,184	9,108	762,088	413,174
-33,169	8,919	761,443	412,320
-32,154	9,061	760,639	412,234
-31,140	9,059	759,513	411,603
-30,125	9,023	758,775	411,094
-29,111	8,947	758,248	410,596
-28,096	9,006	758,081	410,642
-27,082	8,974	757,193	410,063
-26,067	8,967	756,592	409,702
-25,052	8,861	756,107	409,151
-24,038	8,916	755,563	408,982
-23,023	8,833	754,884	408,385
-22,009	8,992	754,171	408,391
-20,994	9,035	753,338	408,033
-19,979	9,058	752,697	407,728
-18,965	8,985	752,229	407,272
-17,950	9,105	751,781	407,321
-16,936	9,025	751,208	406,789
-15,921	9,030	750,696	406,508
-14,906	8,902	749,903	405,738
-13,892	9,002	749,351	405,676
-12,877	8,937	748,801	405,199
-11,863	8,860	748,426	404,783
-10,848	8,800	748,165	404,474
-9,833	8,977	747,749	404,681
-8,819	9,008	746,784	404,223
-7,804	9,034	746,090	403,895
-6,790	8,906	745,966	403,488
-5,775	8,947	745,647	403,404
-4,760	8,956	745,094	403,112
-3,746	8,831	744,698	402,567
-2,731	8,702	744,227	401,970
-1,717	8,747	743,705	401,784
-0,702	8,727	743,261	401,479
0,313	8,803	739,885	400,451
1,327	12,567	718,587	398,066
2,342	21,092	581,857	339,029
3,356	14,681	321,387	180,301
4,371	-15,171	215,758	99,025
5,386	-18,384	203,127	90,972
6,400	-18,666	199,189	89,006
7,415	-17,735	197,527	88,889
8,429	-18,669	196,482	87,779
9,444	-18,607	195,572	87,406
10,459	-18,444	195,202	87,343
11,473	-18,749	194,620	86,871
12,488	-18,326	194,450	87,070
13,502	-18,623	193,904	86,620
14,517	-18,612	193,706	86,531
15,531	-18,438	192,977	86,313
16,546	-18,450	192,907	86,266
17,561	-18,558	192,530	86,018
18,575	-18,630	192,515	85,956
19,590	-18,420	191,988	85,852
20,604	-18,374	191,862	85,818
21,619	-18,552	191,634	85,591
22,634	-18,853	191,271	85,223
23,648	-18,460	191,032	85,368
24,663	-18,501	190,814	85,235
25,677	-18,483	190,537	85,116
26,692	-18,559	190,485	85,035
27,707	-18,664	190,227	84,844
28,721	-18,589	190,038	84,801
29,736	-18,657	189,756	84,623
30,750	-18,489	189,539	84,629
31,765	-18,606	189,416	84,490
32,780	-18,539	189,252	84,453
33,794	-18,523	189,003	84,344
34,809	-18,555	188,734	84,196
35,823	-18,451	188,622	84,206
36,838	-18,504	188,372	84,052
37,853	-18,486	188,076	83,925
38,867	-18,733	188,044	83,743
39,882	-18,557	187,698	83,696
40,896	-18,533	187,601	83,660
41,911	-18,192	187,356	83,763
42,926	-18,399	187,156	83,533
43,940	-18,477	187,103	83,452
44,955	-18,224	186,737	83,443
45,969	-18,318	186,847	83,425
46,984	-18,537	186,686	83,205
47,999	-18,192	186,428	83,303
49,013	-18,269	186,413	83,240
50,028	-18,460	186,043	82,945
51,042	-18,630	186,073	82,843
52,057	-18,335	185,748	82,879
53,071	-18,247	185,491	82,813
54,086	-18,126	185,458	82,867
55,101	-18,469	185,272	82,559
56,115	-18,225	185,032	82,599
57,130	-18,593	184,890	82,295
58,144	-18,588	184,682	82,199
59,159	-18,542	184,525	82,150
60,174	-18,652	184,429	82,031
61,188	-18,366	184,153	82,081
62,203	-18,263	184,068	82,101
63,217	-18,537	183,816	81,809
64,232	-18,577	183,683	81,717
65,247	-18,596	183,476	81,606
66,261	-18,583	183,322	81,538
67,276	-18,297	183,240	81,674
68,290	-18,515	183,056	81,448
69,305	-18,457	182,761	81,346
70,320	-18,409	182,715	81,348
71,334	-18,340	182,531	81,302
72,349	-18,587	182,411	81,087
73,363	-18,487	182,159	81,031
74,378	-18,799	182,075	80,792
75,393	-18,314	181,774	80,952
76,407	-18,397	181,722	80,871
77,422	-18,441	181,686	80,820
78,436	-18,429	181,357	80,674
79,451	-18,638	181,176	80,456
80,466	-18,363	181,073	80,574
81,480	-18,369	180,822	80,451
82,495	-18,319	180,830	80,479
83,509	-18,131	180,526	80,452
84,524	-18,243	180,485	80,357
85,539	-18,441	180,303	80,147
86,553	-18,447	180,223	80,101
87,568	-18,511	180,079	79,990
88,582	-18,373	179,885	79,982
89,597	-18,212	179,599	79,946
90,611	-18,383	179,642	79,853
91,626	-18,583	179,276	79,561
92,641	-18,328	179,340	79,738
93,655	-18,370	179,051	79,578
94,670	-18,435	179,023	79,518
95,684	-18,453	178,756	79,381
96,699	-18,369	178,712	79,406
97,714	-18,280	178,619	79,412
98,728	-18,457	178,497	79,243
99,743	-18,256	178,238	79,243
100,757	-18,262	178,102	79,172
101,772	-18,203	177,949	79,132
102,787	-18,355	177,675	78,911
103,801	-18,313	177,565	78,881
104,816	-18,443	177,618	78,819
105,830	-18,511	177,401	78,674
106,845	-18,287	177,275	78,747
107,860	-18,245	176,977	78,633
108,874	-18,263	176,948	78,602
109,889	-18,525	176,889	78,411
110,903	-18,388	176,591	78,354
111,918	-18,348	176,558	78,357
112,933	-18,511	176,444	78,201
113,947	-18,237	176,304	78,297
114,962	-18,418	176,039	78,064
115,976	-18,324	175,947	78,072
116,991	-18,309	175,682	77,956
118,006	-18,513	175,638	77,808
119,020	-18,017	175,428	78,005
120,035	-18,484	175,280	77,653
121,049	-18,187	175,350	77,855
122,064	-18,199	175,020	77,694
123,079	-18,293	174,998	77,621
124,093	-18,404	174,802	77,461
125,108	-18,470	174,581	77,317
126,122	-18,090	174,548	77,522
127,137	-18,067	174,542	77,526
128,151	-18,214	174,249	77,301
129,166	-18,182	174,103	77,249
130,181	-18,219	173,878	77,120
131,195	-18,224	173,840	77,093
132,210	-18,343	173,681	76,945
133,224	-18,073	173,474	77,007
134,239	-18,332	173,416	76,821
135,254	-17,981	173,162	76,908
136,268	-18,149	173,054	76,755
137,283	-18,033	172,989	76,788
138,297	-18,255	172,905	76,612
139,312	-18,288	172,621	76,460
140,327	-18,751	172,381	76,075
141,341	-18,898	172,309	75,951
142,356	-18,991	171,953	75,733
143,370	-17,943	172,373	76,525
144,385	-10,700	174,121	81,582
145,400	-3,757	175,612	86,407
146,414	-2,582	175,833	87,207
147,429	-2,433	175,825	87,284
148,443	-2,176	175,561	87,297
149,458	-1,962	175,687	87,479
150,473	-1,384	175,400	87,671
151,487	-1,312	175,375	87,693
152,502	-1,436	175,144	87,497
153,516	-1,433	175,047	87,442
154,531	-1,142	174,876	87,520
155,546	-1,298	174,927	87,446
156,560	-1,327	174,784	87,350
157,575	-1,320	174,648	87,278
158,589	-1,201	174,442	87,238
159,604	-1,458	174,322	87,019
160,619	-1,263	174,206	87,068
161,633	-1,258	174,032	86,976
162,648	-1,111	174,038	87,058
163,662	-1,253	173,953	86,924
164,677	-0,981	173,957	87,078
165,692	-1,229	173,659	86,776
166,706	-0,973	173,611	86,894
167,721	-0,856	173,538	86,918
168,735	-1,050	173,292	86,674
169,750	-1,259	173,297	86,546
170,764	-0,977	173,093	86,602
171,779	-0,951	173,052	86,588
172,794	-1,088	172,993	86,471
173,808	-0,601	172,680	86,590
174,823	-0,789	172,524	86,395
175,837	-0,840	172,422	86,307
176,852	-0,896	172,466	86,288
177,867	-0,835	172,414	86,290
178,881	-0,702	172,123	86,214
179,896	-0,803	172,067	86,120
180,910	-0,684	171,863	86,079
181,925	-0,928	171,787	85,892
182,940	-1,153	171,770	85,746
183,954	-0,990	171,477	85,686
184,969	-0,846	171,305	85,675
185,983	-0,872	171,484	85,742
186,998	-0,781	171,233	85,661
188,013	-0,513	171,010	85,696
189,027	-0,812	170,982	85,503
190,042	-0,451	170,736	85,579
191,056	-0,752	170,759	85,410
192,071	-0,935	170,633	85,235
193,086	-0,638	170,450	85,305
194,100	-0,518	170,349	85,317
195,115	-0,680	170,324	85,204
196,129	-0,843	170,091	84,986
197,144	-0,794	169,935	84,929
198,159	-0,983	170,042	84,866
199,173	-0,534	169,738	84,963
200,188	-0,945	169,726	84,715
201,202	-1,049	169,602	84,587
202,217	-0,480	169,321	84,762
203,232	-0,399	169,195	84,738
204,246	-0,522	169,182	84,654
205,261	-0,722	168,972	84,428
206,275	-0,250	168,818	84,612
207,290	-0,635	168,722	84,338
208,304	-0,526	168,820	84,441
209,319	-0,570	168,583	84,290
210,334	-0,616	168,395	84,163
211,348	-1,173	168,430	83,857
212,363	-0,595	168,227	84,075
213,377	-0,472	167,996	84,021
214,392	-0,305	168,073	84,147
215,407	-0,640	167,973	83,900
216,421	-0,409	167,683	83,878
217,436	-0,421	167,570	83,807
218,450	-0,401	167,425	83,738
219,465	-0,434	167,390	83,695
220,480	-0,452	167,363	83,664
221,494	-0,522	167,242	83,556
222,509	-0,330	166,966	83,519
223,523	-0,503	167,042	83,453
224,538	-0,409	166,832	83,393
225,553	-0,479	166,671	83,265
226,567	-0,325	166,529	83,273
227,582	-0,397	166,472	83,197
228,596	-0,463	166,481	83,158
229,611	-0,479	166,330	83,066
230,626	-0,564	166,319	83,006
231,640	-0,248	166,018	83,024
232,655	-0,610	166,011	82,811
233,669	-0,349	165,854	82,870
234,684	-0,384	165,854	82,844
235,699	-0,456	165,658	82,698
236,713	-0,476	165,566	82,634
237,728	-0,313	165,556	82,712
238,742	-0,114	165,243	82,658
239,757	-0,374	165,260	82,516
240,772	-0,594	165,265	82,389
241,786	-0,232	165,014	82,456
242,801	-0,544	164,981	82,261
243,815	-0,350	164,882	82,311
244,830	-0,017	164,644	82,368
245,844	-0,006	164,505	82,297
246,859	-0,288	164,464	82,115
247,874	0,052	164,178	82,151
248,888	-0,048	164,168	82,084
249,903	-0,126	164,100	82,000
250,917	-0,357	164,034	81,833
251,932	-0,171	163,989	81,905
252,947	0,082	163,721	81,902
253,961	-0,316	163,727	81,680
254,976	-0,059	163,647	81,774
255,990	-0,272	163,576	81,614
257,005	-0,111	163,292	81,553
258,020	-0,193	163,341	81,526
259,034	-0,062	163,091	81,465
260,049	0,070	163,102	81,535
261,063	-0,178	162,912	81,298
262,078	-0,024	162,789	81,313
263,093	0,068	162,753	81,338
264,107	-0,303	162,622	81,063
265,122	0,083	162,522	81,216
266,136	-0,173	162,544	81,081
267,151	0,056	162,312	81,082
268,166	0,012	162,141	80,965
269,180	0,517	161,885	81,104
270,195	0,102	161,805	80,832
271,209	0,071	161,758	80,785
272,224	-0,178	161,842	80,685
273,239	0,164	161,586	80,735
274,253	0,324	161,505	80,773
275,268	0,109	161,439	80,617
276,282	0,075	161,329	80,537
277,297	0,158	161,269	80,544
278,312	0,212	161,187	80,525
279,326	0,162	160,979	80,387
280,341	0,086	161,039	80,369
281,355	0,020	160,894	80,254
282,370	-0,049	160,750	80,138
283,384	0,182	160,750	80,255
284,399	0,228	160,497	80,146
285,414	0,332	160,364	80,128
286,428	0,423	160,261	80,118
287,443	0,026	160,253	79,894
288,457	0,211	160,085	79,903
289,472	0,060	160,086	79,815
290,487	0,283	159,770	79,769
291,501	0,440	159,699	79,810
292,516	0,209	159,715	79,688
293,530	0,225	159,536	79,601
294,545	0,184	159,440	79,523
295,560	0,191	159,194	79,398
296,574	0,475	159,231	79,560
297,589	0,132	159,250	79,380
298,603	0,246	159,049	79,333
299,618	0,180	158,833	79,184
300,633	0,103	158,832	79,135
301,647	0,152	158,785	79,130
302,662	0,334	158,712	79,183
303,676	0,544	158,563	79,213
304,691	0,141	158,396	78,910
305,706	0,507	158,242	79,019
306,720	0,562	158,122	78,981
307,735	0,642	158,085	78,998
308,749	0,294	158,030	78,780
309,764	0,318	157,860	78,701
310,779	0,519	157,784	78,761
311,793	0,423	157,668	78,646
312,808	0,331	157,481	78,497
313,822	0,294	157,511	78,486
314,837	0,376	157,452	78,493
315,852	0,347	157,278	78,384
316,866	0,484	157,106	78,362
317,881	0,246	157,070	78,214
318,895	0,112	156,940	78,072
319,910	0,083	156,819	77,989
320,925	0,339	156,752	78,083
321,939	0,416	156,734	78,107
322,954	0,342	156,624	78,006
323,968	0,532	156,437	78,005
324,983	0,245	156,364	77,812
325,997	0,042	156,261	77,649
327,012	0,427	156,158	77,791
328,027	0,317	156,139	77,717
329,041	0,121	155,936	77,508
330,056	0,608	155,728	77,650
331,070	0,630	155,694	77,637
332,085	0,337	155,761	77,511
333,100	0,619	155,577	77,559
334,114	0,669	155,390	77,484
335,129	0,585	155,287	77,383
336,143	0,655	155,252	77,395
337,158	0,599	155,210	77,338
338,173	0,329	155,114	77,144
339,187	0,720	154,843	77,203
340,202	0,699	154,887	77,208
341,216	0,643	154,711	77,085
342,231	0,687	154,529	77,010
343,246	0,552	154,606	76,972
344,260	0,631	154,556	76,981
345,275	0,655	154,314	76,866
346,289	0,479	154,320	76,772
347,304	0,518	154,150	76,700
348,319	0,741	154,084	76,774
349,333	0,702	153,936	76,674
350,348	0,751	153,882	76,665
351,362	0,564	153,824	76,534
352,377	0,730	153,652	76,526
353,392	0,547	153,667	76,433
354,406	0,495	153,594	76,364
355,421	190,457	1324,687	1390,634
356,435	150,278	1467,830	1391,115
