DTS Sentinel unit serial number:	SN410029Multiplexer serial number:	ORYXHardware model number:	OX2-SRSoftware version number:	ORYX F/W v4,00 Oryx Data Collector v3.7.2.0data status	okinstallation	B3 Nyhavnadifferential loss correction	single-endedforward channel	channel 1reverse channel	N/Adate	2023/11/28time	10:57:30forward acquisition time	300,00reverse acquisition time	0,00gamma	499,1914k internal	0,3153k external	0,3153temperature offset calibration	1,0000default loss term (dB/km)	0,3820temperature slope calibration	1,0000multiplexer offset coefficient	1,0000multiplexer slope coefficient	1,0000fibre end	0,00T internal ref (°C)	9,53T ext. ref 1 (°C)	-7,41T ext. ref 2 (°C)	-7,64length (m)	temperature (°C)	Stokes	anti-Stokes-744,400	273,511	-0,171	-0,224
-743,385	-200,000	-0,066	0,226
-742,371	-200,000	-0,049	-0,269
-741,356	800,000	-0,097	0,283
-740,342	37,572	-0,123	-0,080
-739,327	-200,000	-0,040	0,282
-738,312	800,000	-0,081	-0,175
-737,298	398,443	-0,141	0,219
-736,283	800,000	-0,163	-0,355
-735,269	-200,000	-0,030	0,363
-734,254	-200,000	-0,055	-0,320
-733,239	150,883	-0,124	0,124
-732,225	-61,518	-0,258	-0,079
-731,210	800,000	0,069	0,179
-730,196	-11,566	0,075	0,036
-729,181	288,064	0,118	0,158
-728,167	209,135	-0,043	-0,050
-727,152	243,281	-0,040	0,050
-726,137	121,983	-0,026	-0,024
-725,123	-33,146	-0,016	-0,006
-724,108	-112,042	-0,114	-0,017
-723,094	3,829	-0,110	-0,059
-722,079	-200,000	-0,011	0,052
-721,064	248,608	0,023	0,029
-720,050	-46,655	-0,110	-0,040
-719,035	8,713	0,138	-0,077
-718,021	756,266	-0,034	0,069
-717,006	-44,727	-0,216	-0,079
-715,991	144,032	-0,139	-0,136
-714,977	-200,000	0,001	-0,043
-713,962	158,403	-0,048	-0,049
-712,948	-161,893	0,057	-0,002
-711,933	800,000	-0,012	0,034
-710,918	85,114	-0,119	0,096
-709,904	17,713	-0,078	-0,046
-708,889	-58,914	-0,061	0,019
-707,875	-17,708	-0,047	0,022
-706,860	-137,741	0,019	0,002
-705,845	358,947	0,030	-0,044
-704,831	-106,939	-0,054	-0,009
-703,816	-200,000	-0,011	-0,076
-702,802	-93,933	-0,029	0,006
-701,787	10,929	-0,015	0,008
-700,772	-200,000	0,021	-0,087
-699,758	-200,000	0,019	-0,070
-698,743	-200,000	-0,003	0,028
-697,729	800,000	0,056	0,155
-696,714	62,272	0,038	-0,028
-695,699	-99,939	-0,036	0,007
-694,685	265,714	-0,067	0,087
-693,670	800,000	-0,017	0,049
-692,656	120,915	0,067	-0,061
-691,641	-82,897	-0,093	-0,022
-690,627	-116,862	0,076	-0,010
-689,612	-200,000	0,007	-0,077
-688,597	-27,054	-0,174	0,074
-687,583	263,509	-0,048	0,062
-686,568	430,012	0,018	0,030
-685,554	-20,727	0,061	0,027
-684,539	-155,621	-0,159	0,007
-683,524	-28,634	0,086	-0,036
-682,510	-73,265	-0,096	-0,026
-681,495	800,000	-0,070	-0,162
-680,481	800,000	-0,054	-0,147
-679,466	-35,374	-0,093	0,037
-678,451	-200,000	-0,005	-0,141
-677,437	-200,000	-0,011	-0,067
-676,422	277,816	0,068	0,089
-675,408	-200,000	-0,001	-0,044
-674,393	-200,000	0,004	-0,069
-673,378	-3,765	-0,047	-0,024
-672,364	800,000	0,098	-0,298
-671,349	-200,000	0,030	-0,151
-670,335	22,314	0,149	-0,089
-669,320	249,568	-0,065	-0,081
-668,305	248,643	0,061	0,077
-667,291	577,716	-0,020	-0,037
-666,276	-200,000	-0,004	-0,084
-665,262	-200,000	-0,014	0,049
-664,247	-106,002	0,172	0,028
-663,232	-38,494	-0,251	0,097
-662,218	-99,062	0,154	0,028
-661,203	-118,450	0,094	-0,012
-660,189	260,329	-0,028	0,036
-659,174	132,105	-0,075	-0,071
-658,159	-6,727	0,094	0,047
-657,145	626,010	-0,032	-0,060
-656,130	-200,000	0,033	0,111
-655,116	-200,000	0,041	0,252
-654,101	286,019	-0,068	-0,091
-653,086	800,000	-0,019	-0,047
-652,072	800,000	-0,058	-0,149
-651,057	-48,729	-0,095	0,033
-650,043	68,652	-0,106	0,080
-649,028	16,451	-0,032	-0,019
-648,014	296,467	-0,071	0,097
-646,999	-80,188	-0,137	-0,033
-645,984	-200,000	-0,006	0,091
-644,970	385,177	0,017	-0,026
-643,955	-13,298	-0,075	-0,036
-642,941	-200,000	0,028	-0,158
-641,926	791,193	0,045	-0,092
-640,911	374,441	0,070	-0,106
-639,897	7,866	-0,102	0,056
-638,882	429,971	0,024	0,038
-637,868	-90,749	-0,161	-0,034
-636,853	-200,000	0,010	0,036
-635,838	-200,000	0,006	-0,048
-634,824	-200,000	-0,000	0,080
-633,809	-81,545	0,110	-0,026
-632,795	800,000	0,035	0,095
-631,780	285,814	-0,079	0,105
-630,765	-46,349	0,018	0,007
-629,751	-15,628	0,041	0,019
-628,736	-16,467	-0,046	-0,021
-627,722	-200,000	-0,005	-0,070
-626,707	27,158	-0,128	-0,079
-625,692	18,584	0,024	0,014
-624,678	-200,000	-0,009	0,140
-623,663	-164,910	-0,098	-0,003
-622,649	263,632	-0,047	-0,060
-621,634	-170,614	0,058	-0,001
-620,619	-149,636	-0,164	0,009
-619,605	-36,875	-0,038	0,015
-618,590	-65,834	0,059	-0,017
-617,576	104,142	0,088	0,076
-616,561	58,311	-0,103	0,074
-615,546	-99,497	-0,212	0,039
-614,532	23,567	0,109	0,066
-613,517	-136,825	-0,108	-0,009
-612,503	-77,645	-0,051	-0,013
-611,488	-200,000	0,003	0,024
-610,474	71,142	0,027	-0,021
-609,459	-22,079	0,025	-0,011
-608,444	-117,473	-0,074	0,010
-607,430	372,906	-0,074	0,110
-606,415	7,444	-0,033	0,018
-605,401	-83,948	0,208	0,048
-604,386	-135,946	0,083	0,007
-603,371	-200,000	0,003	0,041
-602,357	800,000	0,020	-0,053
-601,342	-200,000	-0,001	0,024
-600,328	10,252	-0,061	-0,034
-599,313	800,000	-0,052	-0,122
-598,298	-200,000	0,017	0,063
-597,284	800,000	0,041	-0,086
-596,269	272,776	0,124	0,161
-595,255	-180,222	0,039	-0,001
-594,240	-11,278	-0,105	-0,051
-593,225	800,000	0,047	-0,105
-592,211	203,423	0,045	0,051
-591,196	-11,911	-0,050	-0,024
-590,182	800,000	-0,020	0,042
-589,167	-57,109	0,091	-0,029
-588,152	766,220	-0,041	0,082
-587,138	189,249	-0,039	0,043
-586,123	147,194	-0,147	-0,145
-585,109	159,907	-0,082	-0,084
-584,094	239,639	-0,075	0,092
-583,079	322,248	0,014	0,019
-582,065	-91,303	0,117	0,024
-581,050	17,932	-0,020	-0,012
-580,036	55,180	-0,079	0,056
-579,021	-200,000	0,017	-0,123
-578,006	20,406	-0,087	-0,051
-576,992	198,416	-0,117	-0,131
-575,977	40,085	-0,021	-0,014
-574,963	-27,224	0,073	0,031
-573,948	254,897	0,117	0,147
-572,934	-200,000	0,000	-0,039
-571,919	-200,000	0,013	-0,115
-570,904	188,631	0,087	-0,096
-569,890	59,472	0,084	-0,060
-568,875	-55,377	0,089	0,029
-567,861	-1,904	0,026	0,013
-566,846	226,227	0,097	0,116
-565,831	-200,000	0,008	0,036
-564,817	110,352	-0,095	-0,083
-563,802	-200,000	-0,049	-0,162
-562,788	-68,666	0,067	0,019
-561,773	14,211	0,022	-0,013
-560,758	33,842	0,068	0,043
-559,744	357,576	-0,014	0,021
-558,729	-97,778	0,027	0,005
-557,715	-200,000	0,000	-0,007
-556,700	-200,000	-0,005	-0,070
-555,685	22,580	-0,123	0,074
-554,671	-135,414	-0,092	0,008
-553,656	800,000	0,048	0,106
-552,642	-50,551	0,071	-0,024
-551,627	-20,759	0,018	-0,008
-550,612	-200,000	-0,005	-0,040
-549,598	-82,832	-0,106	-0,025
-548,583	-200,000	-0,033	-0,217
-547,569	47,348	0,061	0,041
-546,554	-119,378	0,147	0,019
-545,539	-200,000	-0,014	-0,119
-544,525	549,078	0,040	0,071
-543,510	146,859	-0,099	-0,097
-542,496	-200,000	-0,049	-0,165
-541,481	800,000	-0,020	-0,051
-540,466	0,964	-0,041	-0,022
-539,452	-30,130	0,082	-0,034
-538,437	800,000	0,060	0,132
-537,423	-200,000	0,001	0,004
-536,408	-200,000	-0,001	0,057
-535,393	-200,000	0,010	-0,098
-534,379	800,000	-0,048	-0,103
-533,364	-200,000	0,002	-0,116
-532,350	-101,382	0,143	-0,025
-531,335	1,195	-0,061	-0,032
-530,321	726,058	0,055	0,108
-529,306	53,990	0,037	-0,026
-528,291	38,928	-0,080	-0,053
-527,277	-34,825	0,100	0,040
-526,262	800,000	-0,019	-0,054
-525,248	-200,000	0,024	0,185
-524,233	-97,008	0,205	-0,039
-523,218	564,060	-0,057	-0,102
-522,204	37,398	-0,121	-0,078
-521,189	663,186	0,052	-0,098
-520,175	44,010	-0,071	0,048
-519,160	-44,490	0,111	0,040
-518,145	800,000	0,025	0,070
-517,131	411,596	0,045	0,069
-516,116	-142,991	-0,016	-0,001
-515,102	800,000	-0,011	0,023
-514,087	-93,697	-0,009	-0,002
-513,072	-119,831	0,012	-0,001
-512,058	-200,000	0,003	-0,052
-511,043	-25,070	0,115	-0,050
-510,029	105,001	-0,059	0,050
-509,014	-110,113	0,070	-0,011
-507,999	192,762	-0,078	0,086
-506,985	-35,428	0,035	0,014
-505,970	-200,000	0,012	-0,145
-504,956	-27,349	0,056	-0,024
-503,941	92,698	-0,077	0,064
-502,926	66,004	-0,028	-0,021
-501,912	800,000	-0,121	0,276
-500,897	170,144	0,149	0,156
-499,883	-40,611	-0,030	-0,011
-498,868	800,000	0,012	-0,027
-497,853	-38,535	-0,141	-0,054
-496,839	-40,050	0,067	-0,025
-495,824	-200,000	-0,005	-0,093
-494,810	-200,000	0,003	0,026
-493,795	800,000	0,023	-0,049
-492,781	800,000	-0,021	-0,063
-491,766	-200,000	-0,004	-0,053
-490,751	800,000	0,030	0,062
-489,737	-164,629	-0,078	-0,003
-488,722	476,990	0,031	0,051
-487,708	402,354	-0,016	-0,024
-486,693	83,922	0,022	-0,018
-485,678	-114,666	-0,035	-0,005
-484,664	-200,000	0,004	-0,014
-483,649	5,801	-0,093	0,050
-482,635	-9,981	0,109	-0,053
-481,620	14,741	-0,051	0,029
-480,605	5,179	-0,083	-0,044
-479,591	213,548	-0,055	0,063
-478,576	17,862	-0,059	0,034
-477,562	-200,000	-0,002	-0,158
-476,547	149,262	0,089	-0,088
-475,532	33,091	0,107	-0,068
-474,518	-57,403	-0,030	-0,010
-473,503	161,406	0,083	0,085
-472,489	27,642	0,100	0,061
-471,474	-9,413	-0,070	-0,034
-470,459	-78,811	-0,033	-0,008
-469,445	800,000	-0,017	0,039
-468,430	-200,000	-0,005	-0,050
-467,416	-196,709	-0,037	0,000
-466,401	11,632	0,123	0,069
-465,386	400,971	0,069	0,105
-464,372	-60,326	-0,071	-0,022
-463,357	126,095	0,118	-0,109
-462,343	-135,135	-0,086	-0,007
-461,328	-200,000	0,024	-0,090
-460,313	-200,000	0,002	-0,072
-459,299	-61,604	-0,018	0,005
-458,284	-75,345	0,029	-0,008
-457,270	492,956	-0,027	0,046
-456,255	-200,000	0,028	-0,217
-455,241	224,043	-0,022	-0,026
-454,226	-200,000	0,028	0,099
-453,211	800,000	-0,027	0,078
-452,197	-79,430	-0,017	0,004
-451,182	87,072	-0,099	-0,080
-450,168	-119,562	-0,026	-0,003
-449,153	-41,779	0,045	-0,017
-448,138	-101,315	-0,077	0,014
-447,124	-45,308	-0,129	0,047
-446,109	-168,474	-0,018	-0,000
-445,095	800,000	0,056	0,123
-444,080	360,124	0,075	0,109
-443,065	800,000	-0,008	0,024
-442,051	-118,911	-0,182	-0,023
-441,036	-200,000	0,014	0,058
-440,022	-25,133	-0,175	-0,075
-439,007	41,424	0,137	0,090
-437,992	-2,012	0,087	0,044
-436,978	-200,000	-0,010	0,096
-435,963	-0,854	0,114	0,059
-434,949	800,000	-0,034	0,080
-433,934	-87,146	0,052	0,011
-432,919	-50,466	-0,146	-0,050
-431,905	800,000	0,031	-0,093
-430,890	-156,482	0,057	-0,003
-429,876	276,041	-0,050	-0,065
-428,861	-200,000	-0,001	0,023
-427,846	396,685	-0,041	0,062
-426,832	422,281	-0,093	-0,146
-425,817	196,962	-0,185	-0,206
-424,803	487,565	0,027	-0,045
-423,788	59,443	-0,103	-0,074
-422,773	-200,000	0,019	0,110
-421,759	194,867	0,061	-0,068
-420,744	800,000	0,006	-0,019
-419,730	51,376	0,097	-0,067
-418,715	-43,812	0,082	-0,030
-417,701	-139,699	-0,100	-0,008
-416,686	-13,957	0,131	0,061
-415,671	591,186	0,080	0,144
-414,657	-13,355	0,103	0,048
-413,642	86,990	0,030	0,024
-412,628	-200,000	0,019	-0,139
-411,613	308,613	0,047	-0,064
-410,598	365,168	-0,036	0,053
-409,584	87,702	0,094	-0,076
-408,569	-45,853	0,171	0,061
-407,555	-28,553	-0,033	-0,014
-406,540	394,779	-0,058	0,088
-405,525	282,655	-0,064	-0,084
-404,511	-77,866	0,111	-0,028
-403,496	800,000	-0,033	-0,101
-402,482	-99,882	-0,090	0,016
-401,467	-108,024	-0,178	0,028
-400,452	-59,343	0,056	0,018
-399,438	-200,000	-0,001	0,093
-398,423	-101,349	0,097	-0,017
-397,409	-74,133	-0,017	-0,004
-396,394	-71,461	0,074	0,020
-395,379	472,342	-0,015	-0,025
-394,365	35,653	0,091	-0,058
-393,350	800,000	0,017	0,043
-392,336	-101,962	0,016	0,003
-391,321	117,271	-0,024	0,022
-390,306	-82,156	-0,061	0,014
-389,292	222,531	-0,031	-0,037
-388,277	31,073	-0,048	0,030
-387,263	152,674	-0,078	-0,078
-386,248	258,437	0,066	0,083
-385,233	127,330	0,082	0,076
-384,219	800,000	-0,031	-0,085
-383,204	164,025	-0,094	-0,097
-382,190	-200,000	0,006	-0,190
-381,175	-95,260	-0,041	-0,008
-380,160	-95,287	0,111	0,022
-379,146	-100,812	0,083	-0,015
-378,131	800,000	0,023	0,061
-377,117	100,320	0,049	-0,041
-376,102	-139,013	-0,012	-0,001
-375,088	134,475	-0,009	0,008
-374,073	-200,000	-0,023	-0,087
-373,058	-97,229	0,060	0,011
-372,044	137,796	-0,064	-0,061
-371,029	52,292	0,017	-0,012
-370,015	-85,927	0,081	0,018
-369,000	-125,094	0,081	0,009
-367,985	295,272	0,068	-0,090
-366,971	121,901	0,024	-0,022
-365,956	800,000	0,021	0,062
-364,942	-17,846	0,189	0,086
-363,927	-97,891	0,022	0,004
-362,912	92,983	0,042	0,034
-361,898	-172,072	-0,130	0,003
-360,883	-200,000	-0,008	-0,068
-359,869	78,545	-0,067	-0,052
-358,854	-184,801	0,053	-0,001
-357,839	800,000	-0,050	-0,151
-356,825	-135,729	0,073	-0,006
-355,810	-200,000	0,003	-0,110
-354,796	-3,128	0,098	-0,050
-353,781	495,643	-0,060	-0,100
-352,766	-140,640	0,049	0,004
-351,752	50,661	0,040	0,027
-350,737	23,399	0,155	-0,093
-349,723	800,000	0,059	0,144
-348,708	103,856	-0,025	-0,021
-347,693	-92,231	0,129	-0,026
-346,679	-121,036	-0,107	-0,013
-345,664	156,100	-0,116	-0,117
-344,650	-200,000	-0,003	0,068
-343,635	551,902	0,053	0,093
-342,620	800,000	0,036	0,093
-341,606	-200,000	0,011	0,135
-340,591	-101,080	-0,035	-0,006
-339,577	-128,505	0,085	-0,009
-338,562	800,000	-0,057	-0,133
-337,548	396,417	0,051	0,077
-336,533	187,961	0,110	0,119
-335,518	800,000	0,027	0,063
-334,504	-15,804	-0,186	0,086
-333,489	-124,960	0,126	0,014
-332,475	582,890	-0,020	0,035
-331,460	79,510	-0,033	-0,026
-330,445	4,935	0,044	0,023
-329,431	235,125	0,075	-0,090
-328,416	800,000	0,070	0,194
-327,402	371,211	-0,058	0,086
-326,387	800,000	0,011	-0,028
-325,372	800,000	0,068	-0,142
-324,358	494,382	0,074	-0,123
-323,343	-123,131	-0,117	0,013
-322,329	-100,963	0,075	0,013
-321,314	-190,692	0,052	0,000
-320,299	73,393	-0,116	0,088
-319,285	-200,000	0,027	0,139
-318,270	738,169	0,040	-0,077
-317,256	-200,000	0,008	-0,103
-316,241	-200,000	0,047	-0,163
-315,226	8,593	0,098	0,054
-314,212	-200,000	-0,007	0,107
-313,197	388,640	-0,045	0,068
-312,183	318,661	-0,040	0,055
-311,168	-111,331	0,087	0,013
-310,153	725,292	-0,006	-0,012
-309,139	-164,735	-0,133	0,004
-308,124	401,523	0,034	0,052
-307,110	17,518	-0,088	0,051
-306,095	59,035	-0,083	0,059
-305,080	516,814	-0,013	-0,023
-304,066	213,229	0,049	-0,056
-303,051	-200,000	-0,013	-0,137
-302,037	64,224	-0,085	-0,062
-301,022	584,744	0,041	-0,073
-300,008	104,699	0,103	0,088
-298,993	-111,015	-0,087	-0,013
-297,978	-85,495	0,048	0,011
-296,964	-73,832	-0,013	0,003
-295,949	800,000	-0,074	-0,160
-294,935	-180,477	0,091	-0,001
-293,920	225,098	-0,079	-0,093
-292,905	100,885	0,062	-0,052
-291,891	-200,000	0,001	0,040
-290,876	-31,635	-0,073	0,030
-289,862	301,289	0,082	-0,110
-288,847	423,386	-0,099	-0,154
-287,832	-200,000	0,016	0,073
-286,818	-57,129	0,132	-0,042
-285,803	509,018	0,028	0,048
-284,789	44,735	-0,050	0,033
-283,774	607,239	-0,057	0,103
-282,759	772,408	0,036	0,071
-281,745	-79,575	-0,046	0,011
-280,730	-200,000	-0,014	-0,145
-279,716	-103,407	-0,087	-0,015
-278,701	-22,844	0,088	-0,038
-277,686	-75,019	0,110	-0,028
-276,672	-149,764	0,078	0,004
-275,657	86,846	-0,109	0,087
-274,643	-200,000	-0,010	-0,034
-273,628	-200,000	0,009	-0,053
-272,613	-19,372	0,046	-0,020
-271,599	586,455	0,030	0,054
-270,584	57,446	0,056	-0,040
-269,570	12,136	-0,081	0,045
-268,555	-30,998	-0,063	-0,026
-267,540	64,752	-0,069	-0,050
-266,526	219,668	-0,085	-0,099
-265,511	-123,683	-0,067	0,008
-264,497	185,077	0,091	0,098
-263,482	800,000	0,050	0,103
-262,467	-200,000	-0,001	-0,068
-261,453	81,192	-0,104	-0,081
-260,438	-21,680	0,107	-0,047
-259,424	-200,000	0,006	0,143
-258,409	-200,000	0,008	-0,053
-257,395	-200,000	0,004	0,022
-256,380	-200,000	-0,027	0,196
-255,365	-175,706	-0,104	0,002
-254,351	-128,199	0,095	-0,010
-253,336	-194,035	-0,100	0,001
-252,322	156,477	0,058	-0,058
-251,307	29,316	-0,075	0,046
-250,292	434,242	-0,037	0,059
-249,278	281,801	-0,016	0,020
-248,263	10,630	-0,107	0,059
-247,249	27,922	0,150	-0,092
-246,234	-200,000	0,018	-0,077
-245,219	-200,000	0,013	-0,047
-244,205	177,766	0,041	-0,043
-243,190	800,000	0,012	-0,033
-242,176	-3,597	0,087	-0,044
-241,161	139,602	0,074	0,071
-240,146	-200,000	-0,003	0,137
-239,132	800,000	-0,040	-0,118
-238,117	-56,332	0,039	-0,013
-237,103	151,252	0,095	-0,094
-236,088	-200,000	-0,015	0,188
-235,073	456,873	-0,059	0,095
-234,059	317,074	0,039	-0,054
-233,044	-113,528	-0,104	-0,015
-232,030	-191,701	0,102	0,001
-231,015	-200,000	-0,001	-0,159
-230,000	-59,633	-0,143	-0,044
-228,986	800,000	0,072	0,207
-227,971	800,000	0,037	-0,093
-226,957	177,534	0,063	-0,067
-225,942	-53,601	0,047	-0,015
-224,927	530,048	0,023	-0,040
-223,913	800,000	-0,044	0,106
-222,898	11,134	-0,075	0,041
-221,884	800,000	-0,071	-0,183
-220,869	143,703	0,054	0,052
-219,855	181,466	0,085	0,091
-218,840	39,587	-0,047	0,031
-217,825	372,288	-0,042	0,062
-216,811	230,098	-0,119	0,141
-215,796	-178,005	-0,068	0,001
-214,782	800,000	-0,028	0,079
-213,767	-74,289	0,070	-0,018
-212,752	449,292	0,055	0,088
-211,738	351,011	0,012	-0,017
-210,723	-4,887	0,111	-0,055
-209,709	-117,215	-0,119	0,016
-208,694	200,832	-0,116	0,129
-207,679	580,038	-0,039	-0,070
-206,665	-26,216	0,049	-0,021
-205,650	-107,522	-0,162	0,025
-204,636	78,530	-0,049	-0,038
-203,621	115,258	0,020	-0,018
-202,606	-91,235	-0,120	-0,025
-201,592	-200,000	-0,002	0,077
-200,577	-148,073	-0,045	0,003
-199,563	800,000	0,090	0,249
-198,548	800,000	0,004	-0,010
-197,533	-200,000	-0,033	0,168
-196,519	-200,000	0,015	0,085
-195,504	-125,507	-0,118	0,013
-194,490	-180,481	0,129	0,002
-193,475	215,858	-0,062	0,071
-192,460	-162,830	-0,099	-0,003
-191,446	-32,923	-0,030	-0,012
-190,431	-94,748	0,046	0,009
-189,417	-52,835	0,105	-0,035
-188,402	800,000	0,017	-0,045
-187,387	800,000	-0,053	0,124
-186,373	800,000	0,051	-0,141
-185,358	42,755	-0,040	0,027
-184,344	409,166	-0,044	0,068
-183,329	232,337	0,087	0,103
-182,315	800,000	0,015	0,037
-181,300	-200,000	0,005	0,034
-180,285	294,522	-0,041	0,055
-179,271	-200,000	-0,007	0,059
-178,256	-99,176	0,041	-0,007
-177,242	19,286	-0,095	-0,055
-176,227	71,289	-0,086	0,064
-175,212	368,437	-0,051	0,074
-174,198	-200,000	-0,002	0,086
-173,183	-179,497	-0,018	0,000
-172,169	-200,000	0,023	0,080
-171,154	800,000	0,018	0,038
-170,139	-120,895	0,071	0,009
-169,125	-104,770	0,099	0,016
-168,110	302,467	0,070	-0,094
-167,096	-113,996	-0,103	0,014
-166,081	205,573	-0,068	-0,076
-165,066	-200,000	-0,026	-0,161
-164,052	800,000	-0,022	0,056
-163,037	-200,000	-0,006	0,058
-162,023	800,000	0,035	-0,080
-161,008	236,950	-0,076	0,091
-159,993	800,000	0,061	0,152
-158,979	298,250	-0,028	-0,037
-157,964	-134,172	-0,229	0,020
-156,950	800,000	-0,034	-0,068
-155,935	-89,539	0,091	-0,019
-154,920	-200,000	0,012	0,084
-153,906	15,517	0,122	0,069
-152,891	14,016	-0,104	0,058
-151,877	-200,000	-0,007	-0,069
-150,862	348,484	-0,018	0,026
-149,847	800,000	-0,043	-0,122
-148,833	22,203	0,115	0,068
-147,818	53,050	0,141	0,097
-146,804	-40,997	0,046	-0,017
-145,789	256,773	-0,085	0,105
-144,775	-200,000	-0,019	-0,090
-143,760	800,000	-0,025	-0,070
-142,745	186,421	-0,135	-0,145
-141,731	69,038	0,059	-0,044
-140,716	-77,682	-0,050	-0,012
-139,702	-125,673	0,068	0,007
-138,687	-200,000	-0,030	-0,096
-137,672	12,731	0,065	0,036
-136,658	-88,056	0,031	-0,007
-135,643	-130,026	0,060	0,006
-134,629	-200,000	-0,029	-0,130
-133,614	-47,437	0,054	0,019
-132,599	800,000	0,041	-0,123
-131,585	-200,000	0,047	0,000
-130,570	-200,000	0,002	0,055
-129,556	71,261	-0,065	-0,048
-128,541	-67,944	-0,128	-0,036
-127,526	800,000	0,026	0,078
-126,512	-200,000	0,025	0,113
-125,497	-200,000	-0,003	-0,037
-124,483	160,614	0,037	-0,038
-123,468	-74,817	0,041	-0,010
-122,453	800,000	0,038	-0,110
-121,439	-100,151	0,037	-0,007
-120,424	98,203	0,057	-0,047
-119,410	800,000	0,056	0,113
-118,395	392,084	-0,012	0,017
-117,380	-200,000	-0,007	0,044
-116,366	-53,079	0,158	0,052
-115,351	-107,385	-0,061	-0,010
-114,337	-98,439	-0,146	-0,027
-113,322	15,308	0,046	-0,026
-112,307	-200,000	0,024	0,119
-111,293	459,629	0,056	-0,090
-110,278	-58,684	0,103	0,032
-109,264	800,000	0,023	-0,056
-108,249	74,676	0,089	-0,068
-107,234	-200,000	-0,002	-0,184
-106,220	126,698	0,049	-0,045
-105,205	-200,000	0,005	0,057
-104,191	249,284	0,142	0,174
-103,176	-156,158	-0,113	-0,005
-102,162	-200,000	0,006	-0,024
-101,147	-56,025	0,094	-0,030
-100,132	554,620	0,048	-0,083
-99,118	-47,761	-0,130	0,045
-98,103	-200,000	0,017	0,061
-97,089	484,882	-0,024	-0,040
-96,074	800,000	0,033	0,091
-95,059	342,457	-0,055	-0,077
-94,045	800,000	-0,027	-0,057
-93,030	-118,261	0,064	-0,008
-92,016	-134,684	-0,106	-0,009
-91,001	337,974	0,064	0,091
-89,986	171,640	0,102	0,106
-88,972	93,006	-0,026	-0,021
-87,957	116,304	-0,043	-0,038
-86,943	88,609	0,020	0,016
-85,928	-137,513	-0,115	-0,009
-84,913	317,282	-0,014	0,019
-83,899	39,259	0,106	0,068
-82,884	-200,000	-0,002	0,041
-81,870	1,018	0,095	0,049
-80,855	402,394	0,127	0,193
-79,840	-88,304	-0,142	-0,030
-78,826	160,159	0,013	-0,013
-77,811	90,837	-0,045	-0,036
-76,797	-186,745	-0,182	-0,002
-75,782	800,000	0,020	0,057
-74,767	73,376	-0,118	-0,089
-73,753	214,899	0,046	-0,052
-72,738	198,822	0,057	0,063
-71,724	-35,078	-0,152	0,059
-70,709	401,893	-0,088	-0,133
-69,694	800,000	0,047	0,129
-68,680	-176,449	0,099	-0,002
-67,665	-41,011	0,076	-0,028
-66,651	-157,956	-0,035	0,001
-65,636	73,468	-0,009	0,007
-64,622	248,406	0,057	-0,069
-63,607	-200,000	-0,016	0,067
-62,592	152,621	-0,096	-0,094
-61,578	-200,000	-0,015	-0,071
-60,563	-200,000	-0,008	0,102
-59,549	800,000	-0,053	0,138
-58,534	46,049	-2,022	-1,343
-57,519	526,790	-1,243	-2,113
-56,505	-200,000	-0,195	-4,270
-55,490	744,204	0,677	1,315
-54,476	800,000	5,313	11,525
-53,461	-200,000	21,496	343,471
-52,446	800,000	761,306	2353,732
-51,432	528,418	1660,791	2826,863
-50,417	72,756	1577,553	1182,152
-49,403	22,608	1091,636	640,440
-48,388	13,442	768,708	427,268
-47,373	27,459	728,780	439,333
-46,359	19,820	714,181	412,271
-45,344	9,663	709,893	385,454
-44,330	9,520	708,312	384,238
-43,315	9,451	707,004	383,349
-42,300	9,352	705,930	382,514
-41,286	9,466	705,042	382,288
-40,271	9,341	704,658	381,768
-39,257	9,337	703,757	381,254
-38,242	9,461	702,620	380,919
-37,227	9,469	701,859	380,511
-36,213	9,501	700,943	380,074
-35,198	9,500	700,074	379,587
-34,184	9,573	699,607	379,491
-33,169	9,476	698,927	378,878
-32,154	9,656	698,140	378,862
-31,140	9,699	696,946	378,300
-30,125	9,752	696,356	378,090
-29,111	9,612	695,979	377,539
-28,096	9,557	695,850	377,325
-27,082	9,514	695,368	376,947
-26,067	9,526	694,667	376,581
-25,052	9,428	693,998	375,972
-24,038	9,455	693,672	375,844
-23,023	9,474	692,601	375,294
-22,009	9,627	692,076	375,354
-20,994	9,551	691,477	374,835
-19,979	9,572	691,017	374,622
-18,965	9,552	690,537	374,298
-17,950	9,594	690,160	374,178
-16,936	9,517	689,460	373,604
-15,921	9,621	688,926	373,541
-14,906	9,523	688,166	372,886
-13,892	9,498	687,912	372,676
-12,877	9,544	687,295	372,435
-11,863	9,480	686,978	372,098
-10,848	9,366	686,858	371,754
-9,833	9,480	686,555	371,839
-8,819	9,601	685,365	371,462
-7,804	9,594	684,691	371,065
-6,790	9,452	684,680	370,716
-5,775	9,544	684,293	370,705
-4,760	9,414	683,861	370,155
-3,746	9,442	683,509	370,015
-2,731	9,161	683,143	369,152
-1,717	9,266	682,702	369,142
-0,702	9,288	682,117	368,861
0,313	9,500	678,144	367,755
1,327	13,864	651,385	362,825
2,342	22,962	522,954	307,251
3,356	16,498	289,497	163,792
4,371	-14,894	194,661	89,312
5,386	-18,224	183,211	81,955
6,400	-18,636	179,742	80,142
7,415	-17,417	178,061	80,131
8,429	-18,364	177,124	79,126
9,444	-18,414	176,467	78,796
10,459	-18,286	176,092	78,698
11,473	-18,280	175,629	78,488
12,488	-18,012	175,414	78,546
13,502	-18,204	174,961	78,222
14,517	-18,249	174,736	78,086
15,531	-18,178	174,305	77,929
16,546	-18,046	174,093	77,907
17,561	-18,542	173,723	77,438
18,575	-18,046	173,397	77,582
19,590	-18,220	173,191	77,379
20,604	-18,193	173,061	77,330
21,619	-18,109	172,822	77,267
22,634	-18,214	172,352	76,987
23,648	-18,338	172,306	76,886
24,663	-18,068	172,068	76,933
25,677	-18,133	172,085	76,895
26,692	-17,906	171,568	76,791
27,707	-17,920	171,523	76,755
28,721	-17,741	171,281	76,746
29,736	-17,960	171,079	76,520
30,750	-18,305	170,860	76,213
31,765	-18,154	170,777	76,257
32,780	-18,272	170,611	76,108
33,794	-18,499	170,646	75,984
34,809	-18,344	170,286	75,907
35,823	-18,185	170,118	75,918
36,838	-18,282	169,786	75,707
37,853	-18,195	169,732	75,727
38,867	-17,989	169,578	75,771
39,882	-18,105	169,534	75,677
40,896	-18,033	169,228	75,575
41,911	-18,262	169,184	75,416
42,926	-18,110	168,959	75,397
43,940	-18,231	168,733	75,220
44,955	-18,227	168,589	75,151
45,969	-17,920	168,410	75,241
46,984	-18,193	168,376	75,062
47,999	-17,946	168,133	75,089
49,013	-17,851	168,040	75,096
50,028	-17,868	167,860	74,999
51,042	-17,975	167,813	74,910
52,057	-17,926	167,421	74,756
53,071	-18,138	167,574	74,696
54,086	-17,907	167,235	74,671
55,101	-17,669	167,109	74,744
56,115	-18,337	167,004	74,309
57,130	-17,932	166,716	74,404
58,144	-18,421	166,585	74,061
59,159	-18,140	166,360	74,115
60,174	-18,190	166,230	74,021
61,188	-18,382	166,068	73,833
62,203	-18,143	165,990	73,928
63,217	-18,242	165,806	73,783
64,232	-18,359	165,785	73,701
65,247	-18,314	165,487	73,587
66,261	-18,162	165,369	73,614
67,276	-18,255	165,235	73,496
68,290	-18,083	165,108	73,530
69,305	-18,088	164,823	73,394
70,320	-17,780	164,744	73,525
71,334	-17,997	164,640	73,350
72,349	-18,181	164,342	73,107
73,363	-18,225	164,226	73,024
74,378	-18,215	164,029	72,936
75,393	-18,175	163,950	72,917
76,407	-18,160	163,847	72,873
77,422	-18,210	163,632	72,742
78,436	-18,118	163,703	72,819
79,451	-18,063	163,298	72,663
80,466	-18,188	163,340	72,606
81,480	-18,061	163,133	72,578
82,495	-17,923	163,150	72,656
83,509	-17,931	162,999	72,578
84,524	-17,881	162,794	72,508
85,539	-17,982	162,575	72,347
86,553	-18,057	162,572	72,298
87,568	-17,948	162,479	72,311
88,582	-18,105	162,381	72,174
89,597	-18,333	162,121	71,926
90,611	-17,934	161,995	72,084
91,626	-18,215	161,883	71,872
92,641	-17,889	161,639	71,937
93,655	-18,073	161,530	71,781
94,670	-18,065	161,379	71,712
95,684	-18,048	161,215	71,643
96,699	-18,103	161,072	71,543
97,714	-18,159	161,080	71,509
98,728	-17,882	160,963	71,602
99,743	-17,951	160,708	71,444
100,757	-17,860	160,654	71,464
101,772	-17,794	160,540	71,443
102,787	-17,939	160,365	71,280
103,801	-18,316	160,230	71,007
104,816	-17,951	160,129	71,155
105,830	-18,008	160,056	71,086
106,845	-17,973	159,806	70,987
107,860	-18,165	159,641	70,803
108,874	-18,161	159,516	70,744
109,889	-18,120	159,399	70,708
110,903	-18,413	159,273	70,486
111,918	-18,146	159,114	70,555
112,933	-18,101	159,044	70,542
113,947	-18,018	158,933	70,531
114,962	-17,817	158,777	70,564
115,976	-18,353	158,747	70,255
116,991	-18,331	158,627	70,207
118,006	-18,036	158,520	70,313
119,020	-17,746	158,327	70,377
120,035	-17,901	158,148	70,208
121,049	-18,046	158,158	70,128
122,064	-18,404	158,058	69,885
123,079	-18,101	157,865	69,956
124,093	-17,885	157,665	69,977
125,108	-18,017	157,447	69,803
126,122	-18,047	157,485	69,798
127,137	-18,028	157,426	69,776
128,151	-17,816	157,278	69,818
129,166	-17,873	156,999	69,657
130,181	-17,915	156,995	69,627
131,195	-17,807	156,657	69,528
132,210	-18,008	156,683	69,426
133,224	-17,773	156,441	69,438
134,239	-18,094	156,309	69,203
135,254	-17,752	156,197	69,328
136,268	-18,034	156,152	69,153
137,283	-17,736	156,046	69,257
138,297	-17,903	155,840	69,071
139,312	-17,955	155,566	68,916
140,327	-18,648	155,466	68,500
141,341	-18,826	155,222	68,293
142,356	-19,069	155,001	68,061
143,370	-17,958	155,389	68,812
144,385	-10,803	157,032	73,343
145,400	-3,885	158,337	77,651
146,414	-2,535	158,568	78,480
147,429	-2,013	158,345	78,641
148,443	-1,820	158,523	78,826
149,458	-1,376	158,315	78,952
150,473	-1,354	158,196	78,898
151,487	-1,299	158,191	78,917
152,502	-1,218	158,115	78,916
153,516	-1,286	157,904	78,767
154,531	-0,984	157,745	78,842
155,546	-1,165	157,750	78,741
156,560	-1,308	157,669	78,617
157,575	-1,004	157,577	78,725
158,589	-1,136	157,359	78,540
159,604	-1,022	157,223	78,525
160,619	-1,251	157,111	78,341
161,633	-1,173	157,057	78,348
162,648	-1,150	156,832	78,242
163,662	-0,956	157,027	78,434
164,677	-0,625	156,704	78,440
165,692	-0,743	156,655	78,347
166,706	-1,023	156,631	78,181
167,721	-0,971	156,536	78,153
168,735	-1,257	156,531	77,993
169,750	-0,978	156,306	78,021
170,764	-0,816	156,099	77,996
171,779	-0,642	156,153	78,107
172,794	-0,659	155,822	77,925
173,808	-0,579	155,838	77,969
174,823	-1,102	155,734	77,636
175,837	-0,837	155,606	77,704
176,852	-0,812	155,467	77,640
177,867	-0,479	155,487	77,817
178,881	-0,572	155,290	77,663
179,896	-0,952	155,288	77,457
180,910	-0,806	155,049	77,407
181,925	-0,617	154,890	77,419
182,940	-0,815	154,679	77,204
183,954	-0,821	154,703	77,206
184,969	-0,732	154,553	77,170
185,983	-0,464	154,630	77,341
186,998	-0,671	154,498	77,161
188,013	-0,631	154,381	77,116
189,027	-0,437	154,247	77,143
190,042	-0,852	154,163	76,879
191,056	-0,702	154,059	76,898
192,071	-0,780	153,996	76,820
193,086	-0,551	153,784	76,825
194,100	-0,615	153,652	76,719
195,115	-0,542	153,524	76,686
196,129	-0,389	153,417	76,704
197,144	-0,474	153,305	76,598
198,159	-0,776	153,202	76,384
199,173	-0,474	153,152	76,508
200,188	-0,400	153,001	76,464
201,202	-0,245	152,776	76,423
202,217	-0,512	152,855	76,320
203,232	-0,492	152,686	76,238
204,246	-0,506	152,519	76,141
205,261	-0,562	152,456	76,075
206,275	-0,531	152,344	76,027
207,290	-0,350	152,277	76,080
208,304	-0,074	152,139	76,145
209,319	-0,518	152,029	75,857
210,334	-0,237	151,856	75,907
211,348	-0,446	151,655	75,693
212,363	-0,358	151,633	75,720
213,377	-0,222	151,505	75,718
214,392	-0,374	151,620	75,692
215,407	-0,176	151,351	75,651
216,421	0,162	151,247	75,764
217,436	-0,181	151,256	75,588
218,450	-0,477	151,070	75,338
219,465	-0,324	150,953	75,351
220,480	-0,489	150,848	75,208
221,494	-0,351	150,776	75,235
222,509	-0,294	150,647	75,193
223,523	-0,286	150,614	75,174
224,538	-0,350	150,573	75,115
225,553	-0,242	150,318	75,035
226,567	-0,576	150,424	74,913
227,582	-0,407	150,147	74,854
228,596	-0,011	150,131	75,038
229,611	-0,359	149,995	74,788
230,626	-0,233	150,003	74,849
231,640	0,182	149,670	74,884
232,655	-0,088	149,657	74,735
233,669	-0,236	149,486	74,569
234,684	-0,154	149,551	74,636
235,699	-0,328	149,404	74,469
236,713	-0,237	149,398	74,504
237,728	-0,464	149,265	74,319
238,742	-0,204	149,229	74,424
239,757	-0,138	148,929	74,300
240,772	-0,206	148,873	74,232
241,786	-0,049	148,853	74,293
242,801	0,194	148,713	74,338
243,815	0,140	148,536	74,216
244,830	0,149	148,479	74,185
245,844	-0,181	148,528	74,039
246,859	0,224	148,110	74,025
247,874	-0,427	148,224	73,753
248,888	-0,215	148,093	73,786
249,903	-0,105	147,983	73,779
250,917	0,215	147,886	73,882
251,932	0,283	147,830	73,881
252,947	-0,203	147,782	73,611
253,961	-0,087	147,739	73,640
254,976	-0,211	147,490	73,448
255,990	-0,096	147,365	73,436
257,005	-0,117	147,330	73,401
258,020	0,104	147,211	73,444
259,034	0,424	147,051	73,515
260,049	-0,042	146,943	73,226
261,063	0,318	146,809	73,329
262,078	0,014	146,805	73,172
263,093	0,252	146,647	73,202
264,107	0,089	146,576	73,081
265,122	0,179	146,572	73,116
266,136	0,273	146,439	73,089
267,151	0,255	146,302	73,006
268,166	0,105	146,149	72,850
269,180	0,068	146,172	72,837
270,195	0,104	146,052	72,788
271,209	0,291	146,011	72,852
272,224	0,029	145,971	72,698
273,239	0,300	145,801	72,739
274,253	0,178	145,696	72,620
275,268	0,215	145,560	72,564
276,282	0,440	145,446	72,610
277,297	0,306	145,306	72,469
278,312	0,506	145,136	72,474
279,326	0,394	145,213	72,452
280,341	0,365	145,169	72,410
281,355	0,373	145,125	72,385
282,370	0,436	144,918	72,306
283,384	0,518	144,701	72,231
284,399	0,177	144,687	72,053
285,414	0,096	144,810	72,069
286,428	0,092	144,477	71,894
287,443	0,398	144,411	72,002
288,457	0,300	144,417	71,952
289,472	0,114	144,230	71,763
290,487	0,477	144,062	71,847
291,501	0,300	143,952	71,701
292,516	0,526	143,852	71,753
293,530	0,389	143,953	71,731
294,545	0,557	143,839	71,748
295,560	0,236	143,700	71,519
296,574	0,250	143,771	71,555
297,589	0,455	143,392	71,458
298,603	0,170	143,378	71,309
299,618	0,541	143,287	71,433
300,633	0,610	143,166	71,400
301,647	0,680	143,199	71,443
302,662	0,251	143,091	71,179
303,676	0,421	142,928	71,172
304,691	0,344	142,820	71,075
305,706	0,572	142,619	71,077
306,720	0,363	142,647	70,985
307,735	0,411	142,613	70,985
308,749	0,394	142,596	70,963
309,764	0,686	142,394	70,994
310,779	0,521	142,347	70,886
311,793	0,423	142,104	70,712
312,808	0,379	142,106	70,686
313,822	0,353	141,968	70,599
314,837	0,352	141,920	70,568
315,852	0,578	142,000	70,708
316,866	0,390	141,843	70,536
317,881	0,760	141,645	70,604
318,895	0,983	141,482	70,622
319,910	0,485	141,432	70,357
320,925	0,490	141,468	70,370
321,939	0,686	141,218	70,332
322,954	0,578	141,102	70,217
323,968	0,726	141,147	70,303
324,983	0,589	141,054	70,186
325,997	0,623	141,050	70,194
327,012	0,547	140,875	70,065
328,027	0,582	140,587	69,932
329,041	0,696	140,634	70,001
330,056	0,718	140,535	69,957
331,070	0,641	140,384	69,839
332,085	0,833	140,303	69,882
333,100	0,835	140,240	69,845
334,114	0,967	140,145	69,853
335,129	0,480	140,074	69,586
336,143	0,181	140,050	69,429
337,158	0,990	139,856	69,701
338,173	0,755	139,956	69,636
339,187	1,035	139,710	69,637
340,202	1,055	139,663	69,616
341,216	1,263	139,452	69,601
342,231	1,004	139,439	69,469
343,246	0,945	139,316	69,374
344,260	0,900	139,214	69,296
345,275	0,781	139,191	69,224
346,289	0,944	139,130	69,262
347,304	1,145	138,911	69,240
348,319	1,124	138,865	69,201
349,333	1,150	138,773	69,161
350,348	0,609	138,679	68,859
351,362	1,061	138,561	69,002
352,377	1,055	138,612	69,019
353,392	0,786	138,458	68,813
354,406	1,289	138,377	68,996
355,421	194,253	1319,905	1394,424
356,435	152,999	1464,333	1394,925
