DTS Sentinel unit serial number:	SN410029Multiplexer serial number:	ORYXHardware model number:	OX2-SRSoftware version number:	ORYX F/W v4,00 Oryx Data Collector v3.7.2.0data status	okinstallation	B3 Nyhavnadifferential loss correction	single-endedforward channel	channel 1reverse channel	N/Adate	2023/11/28time	13:37:30forward acquisition time	300,00reverse acquisition time	0,00gamma	499,1914k internal	0,3138k external	0,3138temperature offset calibration	1,0000default loss term (dB/km)	0,3820temperature slope calibration	1,0000multiplexer offset coefficient	1,0000multiplexer slope coefficient	1,0000fibre end	0,00T internal ref (°C)	7,77T ext. ref 1 (°C)	-7,59T ext. ref 2 (°C)	-7,77length (m)	temperature (°C)	Stokes	anti-Stokes-744,400	64,885	-0,226	-0,169
-743,385	800,000	-0,104	0,318
-742,371	-200,000	-0,028	-0,133
-741,356	800,000	-0,137	0,332
-740,342	167,477	-0,214	-0,226
-739,327	-200,000	-0,028	0,267
-738,312	110,569	-0,172	-0,154
-737,298	-200,000	0,010	0,242
-736,283	184,865	-0,273	-0,301
-735,269	-200,000	0,043	0,251
-734,254	-33,030	-0,294	-0,120
-733,239	-156,777	-0,117	0,005
-732,225	553,459	-0,109	-0,195
-731,210	800,000	0,078	0,176
-730,196	-200,000	0,019	0,082
-729,181	218,488	-0,018	-0,022
-728,167	-133,473	0,065	-0,006
-727,152	366,192	0,024	-0,036
-726,137	-200,000	-0,014	-0,052
-725,123	57,657	-0,085	-0,061
-724,108	-163,205	-0,105	-0,004
-723,094	470,815	-0,033	-0,055
-722,079	190,677	0,041	0,046
-721,064	-5,113	-0,017	0,008
-720,050	181,689	0,136	-0,149
-719,035	-200,000	0,009	0,083
-718,021	-200,000	0,007	-0,046
-717,006	800,000	0,021	-0,049
-715,991	-31,306	-0,049	0,020
-714,977	-200,000	0,004	0,087
-713,962	473,206	-0,087	-0,146
-712,948	-59,216	-0,049	0,016
-711,933	217,134	-0,078	-0,093
-710,918	-60,369	-0,077	0,024
-709,904	37,606	-0,091	0,060
-708,889	-60,353	0,076	-0,024
-707,875	-46,526	-0,127	-0,046
-706,860	572,363	0,061	0,110
-705,845	-125,404	0,024	-0,003
-704,831	-53,724	-0,032	-0,011
-703,816	31,123	0,071	0,045
-702,802	-122,277	0,043	-0,005
-701,787	-78,673	-0,132	-0,033
-700,772	177,776	-0,049	0,053
-699,758	64,037	-0,040	-0,029
-698,743	760,208	-0,008	0,016
-697,729	-123,968	0,103	-0,012
-696,714	-50,580	-0,150	0,052
-695,699	-200,000	0,012	0,054
-694,685	-200,000	0,063	0,000
-693,670	271,678	-0,155	-0,202
-692,656	15,191	-0,142	-0,082
-691,641	-135,579	-0,122	0,011
-690,627	-81,736	-0,193	0,046
-689,612	590,742	0,019	-0,034
-688,597	379,006	-0,069	-0,104
-687,583	800,000	-0,046	-0,132
-686,568	578,641	-0,071	-0,129
-685,554	797,255	0,095	-0,195
-684,539	447,102	-0,073	-0,120
-683,524	-200,000	0,004	-0,057
-682,510	800,000	-0,024	0,052
-681,495	-200,000	-0,004	0,017
-680,481	-44,246	-0,060	0,022
-679,466	-200,000	-0,021	-0,084
-678,451	-116,908	-0,133	-0,018
-677,437	-200,000	0,003	-0,083
-676,422	-56,358	0,039	-0,013
-675,408	126,805	0,108	0,101
-674,393	-125,495	0,040	0,004
-673,378	-200,000	-0,034	0,178
-672,364	139,567	-0,150	-0,146
-671,349	-77,911	-0,070	0,018
-670,335	-85,813	0,020	0,005
-669,320	792,929	0,017	-0,035
-668,305	-200,000	0,019	-0,080
-667,291	-120,582	-0,077	-0,010
-666,276	295,923	-0,057	-0,077
-665,262	800,000	0,014	0,041
-664,247	75,806	-0,062	-0,049
-663,232	-200,000	-0,000	-0,049
-662,218	136,370	-0,106	-0,102
-661,203	164,616	-0,089	-0,093
-660,189	800,000	0,068	0,170
-659,174	176,827	0,014	-0,015
-658,159	71,481	-0,046	-0,035
-657,145	-111,001	-0,078	-0,012
-656,130	800,000	0,057	-0,129
-655,116	41,796	-0,072	0,048
-654,101	-70,227	-0,063	0,018
-653,086	800,000	0,026	0,058
-652,072	140,381	-0,059	0,058
-651,057	-130,181	-0,021	-0,002
-650,043	800,000	0,009	0,023
-649,028	346,224	0,036	0,052
-648,014	239,081	-0,061	0,075
-646,999	-200,000	0,005	0,089
-645,984	-163,434	0,105	-0,004
-644,970	558,193	0,076	-0,136
-643,955	800,000	-0,056	-0,169
-642,941	103,399	-0,040	-0,034
-641,926	-200,000	0,001	-0,080
-640,911	-101,211	-0,058	-0,010
-639,897	97,319	0,105	0,089
-638,882	232,649	-0,085	-0,103
-637,868	106,378	0,043	-0,038
-636,853	800,000	-0,035	-0,074
-635,838	-35,823	-0,071	-0,028
-634,824	262,352	0,032	0,041
-633,809	-200,000	-0,029	-0,123
-632,795	-17,428	0,133	-0,061
-631,780	-28,290	-0,124	0,053
-630,765	57,888	-0,035	-0,025
-629,751	205,496	0,037	0,043
-628,736	85,999	-0,055	0,045
-627,722	368,900	-0,028	0,042
-626,707	165,735	0,043	0,044
-625,692	800,000	0,019	0,044
-624,678	176,460	0,014	0,016
-623,663	84,344	-0,048	0,039
-622,649	-119,223	0,087	-0,011
-621,634	359,840	0,095	-0,140
-620,619	157,781	-0,119	-0,122
-619,605	-200,000	-0,007	0,149
-618,590	800,000	0,017	-0,035
-617,576	142,480	-0,045	0,044
-616,561	224,822	-0,088	-0,105
-615,546	-200,000	0,003	0,086
-614,532	800,000	-0,016	0,033
-613,517	86,842	-0,066	0,054
-612,503	-14,142	-0,057	0,027
-611,488	162,305	0,143	0,148
-610,474	-161,766	-0,088	-0,003
-609,459	800,000	-0,019	-0,051
-608,444	-200,000	0,014	0,052
-607,430	259,749	-0,076	-0,096
-606,415	-200,000	0,008	-0,063
-605,401	705,475	0,027	0,054
-604,386	27,315	-0,106	-0,066
-603,371	-200,000	0,001	-0,068
-602,357	59,397	-0,099	0,072
-601,342	-130,898	0,185	0,018
-600,328	-117,401	-0,020	0,003
-599,313	800,000	0,013	0,041
-598,298	601,086	-0,030	-0,055
-597,284	800,000	-0,025	0,069
-596,269	-58,496	-0,033	-0,010
-595,255	-136,801	0,082	-0,007
-594,240	230,588	-0,050	0,060
-593,225	15,408	-0,123	-0,071
-592,211	83,355	-0,095	-0,076
-591,196	59,279	0,074	-0,054
-590,182	-164,062	0,087	-0,003
-589,167	-200,000	0,002	-0,070
-588,152	-72,990	0,081	0,022
-587,138	-10,834	-0,065	0,031
-586,123	320,527	-0,042	0,060
-585,109	109,589	-0,076	-0,067
-584,094	261,656	0,017	-0,021
-583,079	-200,000	0,006	0,036
-582,065	-200,000	-0,000	-0,075
-581,050	-143,656	0,101	0,007
-580,036	3,289	-0,103	0,055
-579,021	508,685	-0,100	-0,172
-578,006	800,000	-0,011	0,024
-576,992	220,039	-0,109	0,129
-575,977	159,859	0,071	-0,073
-574,963	-200,000	-0,002	-0,176
-573,948	205,397	-0,127	0,145
-572,934	-62,168	-0,179	0,055
-571,919	-35,944	-0,087	0,035
-570,904	-162,009	-0,054	-0,002
-569,890	-94,804	0,160	-0,032
-568,875	-158,327	-0,030	0,001
-567,861	-125,153	-0,061	0,007
-566,846	-68,705	-0,055	-0,016
-565,831	800,000	-0,021	0,049
-564,817	-32,832	-0,137	-0,056
-563,802	378,563	-0,085	-0,129
-562,788	583,284	-0,057	0,104
-561,773	-200,000	0,008	-0,101
-560,758	-200,000	-0,011	0,108
-559,744	-200,000	0,006	0,102
-558,729	-106,189	0,133	-0,022
-557,715	-19,228	0,063	0,029
-556,700	800,000	-0,053	0,129
-555,685	-200,000	0,001	-0,081
-554,671	800,000	0,047	0,121
-553,656	-152,844	0,158	-0,008
-552,642	-133,525	0,081	0,007
-551,627	-200,000	0,037	0,161
-550,612	800,000	-0,026	0,061
-549,598	699,653	-0,052	-0,101
-548,583	290,623	-0,099	0,133
-547,569	-200,000	0,018	-0,112
-546,554	-200,000	-0,010	-0,094
-545,539	551,516	0,045	-0,080
-544,525	349,399	0,124	0,180
-543,510	-200,000	-0,006	0,111
-542,496	-107,593	-0,134	-0,021
-541,481	313,740	0,091	-0,126
-540,466	39,860	-0,038	0,025
-539,452	800,000	0,030	0,094
-538,437	116,838	0,090	0,082
-537,423	-200,000	-0,046	0,195
-536,408	48,849	-0,078	0,054
-535,393	-63,160	-0,082	-0,025
-534,379	46,499	0,058	0,040
-533,364	-77,944	-0,039	0,010
-532,350	-200,000	-0,035	-0,123
-531,335	800,000	0,033	0,104
-530,321	126,140	-0,072	0,067
-529,306	615,328	-0,072	0,134
-528,291	41,808	-0,082	-0,055
-527,277	-200,000	0,007	-0,168
-526,262	72,357	0,038	0,029
-525,248	-200,000	-0,010	0,137
-524,233	-200,000	0,015	0,106
-523,218	800,000	0,007	0,021
-522,204	-56,008	0,037	0,012
-521,189	800,000	0,035	0,087
-520,175	800,000	-0,032	0,093
-519,160	458,595	0,017	-0,027
-518,145	30,574	0,105	0,066
-517,131	90,879	0,087	-0,072
-516,116	-158,814	0,040	-0,002
-515,102	161,765	0,058	-0,059
-514,087	326,885	-0,122	0,172
-513,072	233,978	-0,065	-0,079
-512,058	537,145	-0,052	-0,091
-511,043	128,970	0,052	0,049
-510,029	-200,000	-0,002	0,143
-509,014	800,000	0,042	0,128
-507,999	-67,730	-0,094	0,027
-506,985	800,000	0,018	0,047
-505,970	554,107	-0,081	-0,144
-504,956	417,623	-0,036	-0,056
-503,941	50,158	-0,042	0,029
-502,926	-200,000	-0,014	0,059
-501,912	170,507	0,059	0,062
-500,897	199,514	0,069	-0,078
-499,883	-103,146	0,017	0,003
-498,868	-108,000	-0,085	0,013
-497,853	-200,000	0,013	-0,049
-496,839	226,951	0,096	-0,115
-495,824	-200,000	0,005	0,118
-494,810	-53,442	0,090	0,030
-493,795	-147,630	0,075	-0,005
-492,781	-113,781	0,096	0,014
-491,766	363,803	-0,012	-0,018
-490,751	800,000	-0,041	0,093
-489,737	800,000	-0,028	-0,077
-488,722	-200,000	-0,024	-0,141
-487,708	-71,441	0,085	-0,023
-486,693	-73,401	0,067	0,018
-485,678	-124,056	-0,045	0,005
-484,664	112,909	-0,060	0,053
-483,649	92,321	0,027	0,023
-482,635	79,773	-0,037	0,029
-481,620	-8,394	-0,121	-0,060
-480,605	-23,298	-0,073	0,032
-479,591	190,148	-0,057	0,063
-478,576	-200,000	-0,023	-0,126
-477,562	340,508	-0,047	-0,068
-476,547	-9,836	0,054	0,026
-475,532	66,591	-0,086	-0,064
-474,518	-70,129	-0,087	-0,024
-473,503	-200,000	0,006	-0,081
-472,489	-55,016	-0,131	-0,043
-471,474	750,111	-0,052	-0,103
-470,459	-149,125	-0,127	0,007
-469,445	-95,059	0,100	-0,020
-468,430	166,507	-0,087	-0,090
-467,416	-200,000	-0,004	-0,019
-466,401	282,482	0,025	-0,033
-465,386	14,955	-0,148	-0,085
-464,372	336,729	-0,008	-0,012
-463,357	-31,325	-0,036	0,015
-462,343	1,567	-0,186	-0,098
-461,328	-41,940	0,055	0,021
-460,313	232,724	-0,086	0,104
-459,299	-105,736	0,110	0,018
-458,284	34,366	0,046	-0,030
-457,270	111,232	0,044	0,039
-456,255	-116,876	0,094	0,013
-455,241	-88,754	-0,133	-0,029
-454,226	-200,000	-0,021	-0,113
-453,211	800,000	0,052	0,117
-452,197	741,583	-0,065	-0,129
-451,182	-101,210	0,063	0,011
-450,168	-37,258	-0,039	-0,015
-449,153	57,204	0,138	0,099
-448,138	84,524	-0,070	-0,056
-447,124	-11,751	-0,131	0,063
-446,109	800,000	-0,050	0,125
-445,095	-200,000	0,002	0,066
-444,080	800,000	0,013	0,042
-443,065	800,000	-0,059	0,140
-442,051	800,000	0,067	0,145
-441,036	-94,068	0,203	-0,041
-440,022	-113,621	-0,046	0,006
-439,007	-200,000	-0,008	-0,044
-437,992	800,000	-0,038	-0,078
-436,978	-200,000	-0,036	0,125
-435,963	96,378	0,031	0,026
-434,949	-139,195	-0,096	-0,007
-433,934	23,551	0,020	-0,012
-432,919	86,801	-0,119	-0,096
-431,905	-37,940	0,089	0,034
-430,890	104,748	-0,048	-0,041
-429,876	184,436	-0,050	-0,054
-428,861	-76,654	-0,037	-0,009
-427,846	219,243	-0,065	-0,077
-426,832	558,818	0,070	-0,124
-425,817	150,521	-0,055	0,055
-424,803	51,842	0,083	-0,058
-423,788	40,775	-0,068	0,045
-422,773	430,003	0,111	0,176
-421,759	-44,055	0,136	0,050
-420,744	91,842	0,061	-0,050
-419,730	318,430	-0,119	-0,166
-418,715	134,877	-0,070	-0,066
-417,701	800,000	-0,015	-0,039
-416,686	375,655	0,026	0,039
-415,671	232,176	-0,042	-0,051
-414,657	800,000	0,026	-0,075
-413,642	-200,000	-0,032	-0,134
-412,628	800,000	0,045	-0,107
-411,613	-200,000	-0,022	-0,098
-410,598	58,723	-0,154	-0,111
-409,584	-17,916	0,078	-0,036
-408,569	78,599	0,114	-0,089
-407,555	117,463	0,070	0,063
-406,540	-69,457	-0,023	-0,007
-405,525	-99,123	0,073	-0,013
-404,511	-54,254	-0,073	0,024
-403,496	-200,000	-0,002	0,077
-402,482	-14,901	0,076	-0,036
-401,467	-103,792	-0,114	0,019
-400,452	-27,230	0,205	0,087
-399,438	212,807	0,036	-0,041
-398,423	159,148	-0,063	-0,064
-397,409	159,193	-0,099	-0,101
-396,394	-15,434	0,141	-0,066
-395,379	466,001	-0,019	-0,032
-394,365	215,572	0,056	0,065
-393,350	-200,000	0,012	-0,079
-392,336	138,890	0,168	-0,161
-391,321	-162,924	0,062	-0,002
-390,306	-169,459	0,011	0,000
-389,292	800,000	-0,021	0,063
-388,277	-42,192	-0,019	0,007
-387,263	800,000	0,049	0,112
-386,248	-200,000	-0,017	0,132
-385,233	87,876	-0,044	0,036
-384,219	17,538	-0,070	0,041
-383,204	-132,607	-0,058	0,005
-382,190	-0,724	0,082	-0,042
-381,175	-200,000	0,005	0,079
-380,160	450,445	0,052	-0,084
-379,146	-153,990	0,104	-0,005
-378,131	-98,288	0,082	0,015
-377,117	800,000	0,025	-0,058
-376,102	-200,000	0,019	-0,097
-375,088	-83,651	-0,024	0,006
-374,073	-46,962	-0,117	-0,042
-373,058	18,008	0,070	-0,041
-372,044	-73,708	0,090	-0,024
-371,029	166,198	-0,015	-0,016
-370,015	-200,000	0,002	0,030
-369,000	800,000	-0,030	-0,076
-367,985	-200,000	-0,013	-0,113
-366,971	-200,000	-0,000	0,128
-365,956	19,004	0,106	-0,062
-364,942	622,958	0,044	-0,080
-363,927	-200,000	0,005	0,043
-362,912	5,899	-0,078	-0,042
-361,898	-138,515	-0,089	0,007
-360,883	-165,828	-0,056	-0,002
-359,869	243,672	0,075	-0,092
-358,854	484,552	-0,025	-0,042
-357,839	-200,000	0,009	-0,056
-356,825	560,426	0,086	0,153
-355,810	-140,216	-0,066	-0,005
-354,796	-200,000	0,001	0,049
-353,781	-125,737	-0,068	-0,007
-352,766	800,000	0,024	-0,073
-351,752	24,769	-0,118	-0,071
-350,737	-200,000	0,008	0,123
-349,723	-132,807	0,142	-0,013
-348,708	-179,837	-0,119	0,002
-347,693	-98,825	0,078	-0,014
-346,679	643,968	-0,066	-0,124
-345,664	-56,588	0,056	-0,018
-344,650	-121,270	-0,120	0,014
-343,635	325,864	0,053	-0,074
-342,620	-200,000	0,006	0,192
-341,606	800,000	0,053	0,124
-340,591	167,063	0,130	0,134
-339,577	-0,573	-0,133	0,069
-338,562	52,225	0,038	0,026
-337,548	-200,000	-0,009	-0,032
-336,533	-44,504	0,075	-0,027
-335,518	22,294	0,079	0,047
-334,504	-91,263	0,160	-0,033
-333,489	411,377	-0,070	-0,109
-332,475	339,968	-0,017	-0,025
-331,460	-200,000	-0,008	-0,144
-330,445	226,106	-0,074	0,088
-329,431	800,000	-0,019	-0,045
-328,416	51,798	-0,085	0,059
-327,402	-89,538	0,115	-0,024
-326,387	-18,027	-0,043	0,019
-325,372	800,000	-0,043	-0,096
-324,358	727,802	-0,008	0,015
-323,343	-62,659	0,115	0,035
-322,329	65,508	-0,039	0,029
-321,314	-162,383	-0,090	0,003
-320,299	765,332	0,054	-0,107
-319,285	-158,677	0,075	0,003
-318,270	-200,000	-0,000	0,041
-317,256	-51,008	0,095	-0,032
-316,241	-200,000	0,037	-0,131
-315,226	651,150	0,058	0,109
-314,212	-180,179	0,101	-0,002
-313,197	800,000	0,065	-0,168
-312,183	-20,726	0,162	-0,072
-311,168	800,000	-0,049	-0,120
-310,153	-200,000	0,040	-0,206
-309,139	727,138	0,087	-0,171
-308,124	24,791	-0,085	0,052
-307,110	-200,000	0,057	0,199
-306,095	-200,000	0,008	0,054
-305,080	-182,449	0,161	0,002
-304,066	-4,729	0,047	-0,024
-303,051	-120,541	0,060	-0,007
-302,037	-44,371	0,043	0,016
-301,022	-16,349	-0,169	0,078
-300,008	-111,817	0,187	-0,027
-298,993	-166,452	0,045	0,001
-297,978	-74,074	0,065	0,017
-296,964	-54,823	-0,096	-0,031
-295,949	463,694	0,041	-0,068
-294,935	79,881	-0,120	-0,094
-293,920	-200,000	0,011	0,077
-292,905	-200,000	0,009	-0,055
-291,891	384,878	-0,066	0,099
-290,876	800,000	0,031	0,063
-289,862	271,618	0,094	0,121
-288,847	-200,000	-0,023	-0,088
-287,832	-200,000	0,034	0,125
-286,818	107,956	0,064	0,055
-285,803	-146,678	-0,118	0,007
-284,789	173,574	0,044	0,046
-283,774	-200,000	0,025	0,128
-282,759	-200,000	0,021	0,133
-281,745	-168,710	0,044	0,001
-280,730	-57,592	-0,050	0,016
-279,716	308,233	0,060	0,082
-278,701	-200,000	-0,006	-0,085
-277,686	41,821	0,089	0,059
-276,672	-200,000	0,003	-0,085
-275,657	-200,000	-0,005	0,068
-274,643	138,875	0,020	0,019
-273,628	648,523	0,044	-0,083
-272,613	691,288	0,011	-0,021
-271,599	800,000	-0,013	-0,039
-270,584	-149,309	0,122	0,007
-269,570	-174,278	-0,100	-0,002
-268,555	-99,472	0,115	-0,021
-267,540	56,214	-0,113	0,080
-266,526	800,000	-0,015	0,047
-265,511	108,305	-0,123	0,106
-264,497	-132,114	0,090	-0,008
-263,482	-45,448	0,027	-0,010
-262,467	-200,000	-0,029	0,141
-261,453	800,000	-0,021	-0,052
-260,438	-200,000	0,012	0,063
-259,424	28,435	-0,071	0,044
-258,409	-200,000	-0,008	0,039
-257,395	-200,000	0,025	-0,116
-256,380	-77,986	-0,113	0,028
-255,365	-31,661	0,095	-0,039
-254,351	673,173	-0,073	0,138
-253,336	790,144	0,059	-0,118
-252,322	127,466	-0,045	-0,041
-251,307	-38,316	0,080	0,031
-250,292	720,459	0,037	-0,073
-249,278	232,203	0,008	0,009
-248,263	123,798	0,045	0,041
-247,249	330,525	-0,022	0,031
-246,234	51,243	0,081	0,056
-245,219	-200,000	0,004	0,102
-244,205	340,926	-0,018	0,025
-243,190	-200,000	0,021	0,112
-242,176	-68,412	0,032	-0,009
-241,161	800,000	-0,043	0,128
-240,146	-19,636	0,224	0,100
-239,132	593,532	0,047	-0,084
-238,117	267,756	-0,067	0,086
-237,103	800,000	0,032	-0,072
-236,088	-30,022	-0,055	0,023
-235,073	-200,000	-0,004	-0,070
-234,059	-89,795	-0,048	0,010
-233,044	66,345	0,030	-0,022
-232,030	-200,000	-0,013	-0,057
-231,015	800,000	-0,036	-0,076
-230,000	284,201	-0,063	-0,083
-228,986	230,241	0,041	-0,049
-227,971	-200,000	0,021	0,097
-226,957	-8,826	0,129	0,062
-225,942	136,207	-0,067	0,063
-224,927	800,000	-0,020	0,054
-223,913	-42,246	-0,071	0,026
-222,898	566,233	0,025	-0,045
-221,884	76,708	-0,104	-0,080
-220,869	4,765	0,133	0,071
-219,855	800,000	-0,011	0,028
-218,840	800,000	0,021	0,056
-217,825	-200,000	0,003	-0,015
-216,811	-200,000	0,009	0,164
-215,796	69,121	-0,164	-0,122
-214,782	16,848	-0,061	0,035
-213,767	-200,000	0,014	0,082
-212,752	717,241	0,073	0,142
-211,738	800,000	0,041	-0,125
-210,723	-57,822	-0,149	-0,047
-209,709	-132,257	0,101	0,009
-208,694	205,121	-0,004	-0,005
-207,679	800,000	0,040	0,097
-206,665	17,945	0,018	-0,010
-205,650	198,886	-0,033	0,037
-204,636	7,289	0,191	0,104
-203,621	800,000	-0,005	0,011
-202,606	359,280	-0,049	0,071
-201,592	416,438	0,060	-0,093
-200,577	683,024	-0,031	-0,059
-199,563	-9,983	0,065	-0,031
-198,548	-200,000	0,000	0,012
-197,533	72,258	-0,064	-0,049
-196,519	800,000	0,034	-0,071
-195,504	188,696	0,027	0,030
-194,490	-200,000	-0,002	-0,175
-193,475	-200,000	0,018	-0,102
-192,460	-200,000	0,009	0,054
-191,446	-200,000	-0,023	0,081
-190,431	543,672	-0,046	0,080
-189,417	61,241	-0,041	0,029
-188,402	-136,165	-0,077	-0,006
-187,387	135,925	-0,098	-0,093
-186,373	-68,637	-0,097	-0,027
-185,358	49,647	0,134	-0,092
-184,344	800,000	0,078	0,169
-183,329	-126,015	-0,231	0,025
-182,315	-200,000	-0,023	0,164
-181,300	-27,934	-0,106	0,044
-180,285	-200,000	0,034	-0,145
-179,271	-126,475	-0,053	-0,006
-178,256	69,066	-0,146	-0,109
-177,242	-31,264	0,118	0,048
-176,227	-200,000	-0,012	0,070
-175,212	313,080	-0,052	0,072
-174,198	607,872	0,038	-0,070
-173,183	38,921	-0,147	-0,095
-172,169	10,461	-0,016	0,009
-171,154	9,293	-0,049	0,027
-170,139	-162,465	0,108	-0,004
-169,125	458,291	0,028	-0,046
-168,110	429,105	0,023	0,036
-167,096	24,539	0,035	-0,021
-166,081	-200,000	-0,014	-0,152
-165,066	-200,000	-0,004	-0,046
-164,052	-200,000	-0,025	-0,124
-163,037	-200,000	0,006	-0,153
-162,023	800,000	-0,027	0,066
-161,008	-33,644	0,060	0,024
-159,993	-141,349	0,055	0,004
-158,979	-35,558	-0,125	0,049
-157,964	-200,000	0,022	-0,105
-156,950	327,289	-0,045	0,063
-155,935	92,693	0,071	-0,058
-154,920	-93,312	0,050	0,010
-153,906	-149,107	0,129	-0,007
-152,891	244,863	0,140	0,171
-151,877	-200,000	-0,031	0,167
-150,862	450,466	0,028	0,045
-149,847	-200,000	-0,002	-0,190
-148,833	309,259	0,030	-0,041
-147,818	332,415	-0,040	-0,056
-146,804	-44,892	0,106	0,038
-145,789	15,905	0,041	0,024
-144,775	-200,000	-0,017	-0,143
-143,760	-123,868	-0,103	-0,012
-142,745	-81,738	-0,178	-0,042
-141,731	800,000	0,018	0,056
-140,716	71,407	-0,032	-0,024
-139,702	-46,559	0,206	0,073
-138,687	-200,000	0,003	0,022
-137,672	-200,000	0,028	-0,091
-136,658	57,232	-0,068	-0,048
-135,643	68,351	-0,081	0,060
-134,629	-16,841	-0,082	0,037
-133,614	-169,723	0,109	0,003
-132,599	-200,000	-0,010	0,059
-131,585	-89,258	0,029	0,006
-130,570	29,879	0,143	-0,088
-129,556	213,979	0,080	-0,092
-128,541	-200,000	-0,005	0,069
-127,526	-200,000	-0,017	0,158
-126,512	-42,766	-0,100	-0,037
-125,497	800,000	0,052	0,153
-124,483	-73,039	0,117	-0,031
-123,468	-60,819	-0,126	-0,038
-122,453	-200,000	0,005	0,029
-121,439	113,306	-0,044	-0,039
-120,424	800,000	0,052	-0,109
-119,410	60,634	0,054	0,039
-118,395	163,814	-0,092	0,094
-117,380	-200,000	0,025	0,170
-116,366	-55,756	0,134	0,043
-115,351	616,053	-0,051	-0,092
-114,337	-200,000	-0,032	-0,213
-113,322	-46,173	-0,136	0,048
-112,307	113,183	0,088	0,077
-111,293	-200,000	0,001	0,122
-110,278	800,000	0,003	0,009
-109,264	54,633	-0,031	0,021
-108,249	-64,640	0,103	-0,030
-107,234	-46,016	-0,124	0,044
-106,220	800,000	0,059	-0,178
-105,205	-124,540	-0,086	-0,010
-104,191	455,307	0,022	0,036
-103,176	-87,169	-0,106	-0,023
-102,162	25,014	0,074	-0,044
-101,147	397,200	-0,035	-0,054
-100,132	-200,000	-0,010	-0,046
-99,118	638,724	0,021	0,039
-98,103	42,383	-0,125	-0,082
-97,089	-200,000	-0,006	0,131
-96,074	-10,951	0,083	0,039
-95,059	20,768	0,082	0,048
-94,045	29,093	-0,074	0,045
-93,030	-62,114	0,005	-0,002
-92,016	170,613	-0,084	-0,088
-91,001	-200,000	-0,005	-0,022
-89,986	-200,000	0,004	0,060
-88,972	390,837	-0,050	-0,076
-87,957	114,557	-0,153	0,135
-86,943	405,137	-0,034	0,053
-85,928	-133,632	-0,036	-0,003
-84,913	66,971	0,031	0,023
-83,899	441,937	0,038	0,060
-82,884	-200,000	-0,022	0,088
-81,870	-200,000	0,036	0,204
-80,855	212,020	-0,021	0,024
-79,840	-200,000	0,005	-0,106
-78,826	-44,398	-0,054	0,019
-77,811	-200,000	0,010	-0,069
-76,797	-88,633	0,093	-0,020
-75,782	241,564	-0,059	-0,071
-74,767	-105,860	0,108	0,017
-73,753	508,313	-0,009	0,015
-72,738	-200,000	-0,006	-0,084
-71,724	800,000	0,046	0,112
-70,709	-151,616	-0,132	-0,007
-69,694	41,276	-0,124	-0,081
-68,680	-36,752	-0,124	0,048
-67,665	-200,000	0,010	0,087
-66,651	355,772	0,072	0,104
-65,636	43,010	-0,083	0,054
-64,622	296,944	0,009	0,012
-63,607	55,115	0,216	-0,150
-62,592	31,098	0,041	0,025
-61,578	79,748	0,050	0,039
-60,563	-31,830	-0,176	0,071
-59,549	-174,595	0,120	-0,002
-58,534	76,389	-2,175	-1,663
-57,519	572,688	-1,093	-1,931
-56,505	-200,000	-0,213	-4,415
-55,490	712,113	0,930	1,787
-54,476	800,000	5,029	11,373
-53,461	-200,000	22,423	347,114
-52,446	800,000	755,042	2287,115
-51,432	502,530	1636,928	2742,022
-50,417	66,020	1569,413	1148,307
-49,403	18,333	1162,171	668,342
-48,388	10,895	894,929	492,067
-47,373	26,168	863,767	519,470
-46,359	16,622	849,299	483,443
-45,344	7,925	845,296	456,170
-44,330	7,786	843,437	454,750
-43,315	7,704	842,394	453,934
-42,300	7,709	840,873	453,111
-41,286	7,717	839,963	452,626
-40,271	7,639	839,089	451,913
-39,257	7,802	838,108	451,832
-38,242	7,805	837,080	451,268
-37,227	7,787	836,239	450,746
-36,213	7,806	835,548	450,410
-35,198	7,753	834,593	449,726
-34,184	7,809	833,927	449,509
-33,169	7,641	833,091	448,565
-32,154	7,812	832,551	448,740
-31,140	7,860	831,250	448,157
-30,125	7,903	830,480	447,848
-29,111	7,768	829,957	447,164
-28,096	7,802	829,605	447,053
-27,082	7,810	828,838	446,645
-26,067	7,828	827,791	446,115
-25,052	7,729	827,137	445,466
-24,038	7,723	826,637	445,162
-23,023	7,790	825,804	444,882
-22,009	7,799	825,364	444,652
-20,994	7,853	824,809	444,488
-19,979	7,828	824,124	444,032
-18,965	7,770	823,632	443,587
-17,950	7,874	822,885	443,458
-16,936	7,816	822,194	442,907
-15,921	7,787	821,598	442,485
-14,906	7,671	821,001	441,823
-13,892	7,692	820,563	441,628
-12,877	7,719	819,777	441,263
-11,863	7,669	819,435	440,923
-10,848	7,648	818,876	440,545
-9,833	7,753	818,494	440,613
-8,819	7,771	817,584	440,158
-7,804	7,868	816,832	440,003
-6,790	7,796	816,639	439,683
-5,775	7,757	816,232	439,339
-4,760	7,684	815,937	438,960
-3,746	7,758	815,226	438,764
-2,731	7,564	814,798	437,978
-1,717	7,425	814,316	437,318
-0,702	7,484	813,662	437,110
0,313	7,663	810,849	436,754
1,327	11,084	794,610	437,223
2,342	19,310	647,333	374,191
3,356	13,272	356,992	199,048
4,371	-15,752	240,774	110,286
5,386	-18,779	226,845	101,526
6,400	-18,995	222,473	99,395
7,415	-17,885	220,609	99,398
8,429	-18,909	219,091	97,931
9,444	-19,218	218,588	97,465
10,459	-18,948	217,943	97,372
11,473	-19,314	217,515	96,897
12,488	-18,994	216,996	96,897
13,502	-18,972	216,348	96,615
14,517	-19,227	216,163	96,334
15,531	-19,292	215,552	96,004
16,546	-19,067	215,412	96,101
17,561	-19,179	215,041	95,844
18,575	-19,040	214,773	95,819
19,590	-19,193	214,294	95,483
20,604	-19,075	214,272	95,552
21,619	-18,896	213,748	95,442
22,634	-19,161	213,547	95,148
23,648	-19,261	213,384	94,994
24,663	-19,056	213,014	94,971
25,677	-19,190	212,916	94,821
26,692	-18,998	212,551	94,790
27,707	-19,060	212,375	94,658
28,721	-19,019	212,206	94,604
29,736	-19,074	211,909	94,423
30,750	-19,289	211,690	94,160
31,765	-19,107	211,525	94,211
32,780	-19,218	211,267	94,008
33,794	-19,080	210,980	93,971
34,809	-19,102	210,869	93,898
35,823	-19,095	210,723	93,829
36,838	-19,165	210,315	93,589
37,853	-18,930	210,180	93,691
38,867	-18,996	209,876	93,498
39,882	-19,144	209,769	93,336
40,896	-19,084	209,584	93,289
41,911	-19,130	209,363	93,149
42,926	-18,988	209,050	93,103
43,940	-19,113	209,023	92,993
44,955	-19,159	208,839	92,870
45,969	-18,866	208,479	92,912
46,984	-18,914	208,325	92,800
47,999	-18,992	208,288	92,719
49,013	-18,991	208,065	92,613
50,028	-18,917	207,836	92,556
51,042	-18,792	207,479	92,478
52,057	-19,124	207,332	92,167
53,071	-19,057	207,291	92,188
54,086	-18,975	207,180	92,189
55,101	-19,224	207,050	91,946
56,115	-18,982	206,570	91,896
57,130	-19,032	206,553	91,845
58,144	-19,095	206,412	91,729
59,159	-19,073	205,985	91,547
60,174	-18,879	205,896	91,636
61,188	-18,908	205,781	91,557
62,203	-19,074	205,595	91,349
63,217	-19,139	205,331	91,178
64,232	-18,847	205,243	91,336
65,247	-18,982	205,028	91,137
66,261	-18,919	204,752	91,050
67,276	-18,932	204,541	90,940
68,290	-18,925	204,394	90,871
69,305	-18,883	204,180	90,797
70,320	-18,906	204,021	90,702
71,334	-19,048	203,832	90,511
72,349	-19,052	203,657	90,422
73,363	-19,162	203,465	90,252
74,378	-18,939	203,242	90,301
75,393	-19,065	203,080	90,133
76,407	-19,078	202,988	90,075
77,422	-19,200	202,939	89,960
78,436	-18,835	202,567	90,041
79,451	-19,310	202,441	89,647
80,466	-18,799	202,167	89,873
81,480	-18,787	201,951	89,777
82,495	-19,170	201,934	89,496
83,509	-18,901	201,628	89,538
84,524	-18,973	201,710	89,517
85,539	-18,917	201,419	89,418
86,553	-19,069	201,502	89,342
87,568	-19,111	201,054	89,106
88,582	-19,069	200,789	89,010
89,597	-19,056	200,792	89,013
90,611	-19,142	200,605	88,862
91,626	-18,885	200,387	88,934
92,641	-18,717	200,132	88,928
93,655	-19,027	200,181	88,730
94,670	-18,972	199,804	88,592
95,684	-18,951	199,767	88,582
96,699	-19,088	199,674	88,440
97,714	-19,058	199,466	88,360
98,728	-18,825	199,199	88,393
99,743	-18,932	199,040	88,242
100,757	-18,755	198,953	88,315
101,772	-18,880	198,672	88,098
102,787	-19,045	198,724	88,001
103,801	-19,075	198,384	87,823
104,816	-19,002	198,287	87,821
105,830	-18,828	198,200	87,892
106,845	-19,144	198,119	87,635
107,860	-18,901	197,847	87,671
108,874	-18,712	197,614	87,688
109,889	-18,658	197,334	87,592
110,903	-19,016	197,310	87,332
111,918	-18,702	197,061	87,425
112,933	-18,807	196,877	87,265
113,947	-18,788	196,734	87,207
114,962	-18,759	196,611	87,164
115,976	-18,967	196,549	86,989
116,991	-18,945	196,256	86,866
118,006	-18,908	196,191	86,854
119,020	-18,760	196,073	86,894
120,035	-18,799	195,921	86,793
121,049	-18,741	195,863	86,798
122,064	-18,948	195,611	86,541
123,079	-19,134	195,582	86,396
124,093	-18,941	195,331	86,406
125,108	-18,890	195,186	86,368
126,122	-19,034	195,077	86,216
127,137	-18,831	194,807	86,224
128,151	-18,849	194,630	86,126
129,166	-18,971	194,555	86,004
130,181	-18,876	194,442	86,010
131,195	-18,877	194,184	85,887
132,210	-18,959	193,963	85,728
133,224	-19,026	193,929	85,660
134,239	-18,825	193,648	85,662
135,254	-18,694	193,628	85,732
136,268	-18,822	193,453	85,562
137,283	-18,740	193,169	85,483
138,297	-18,528	192,986	85,534
139,312	-18,915	192,983	85,270
140,327	-19,021	192,736	85,083
141,341	-19,127	192,341	84,832
142,356	-19,141	192,397	84,840
143,370	-18,004	192,663	85,697
144,385	-10,986	194,543	91,178
145,400	-4,450	196,208	96,309
146,414	-2,917	196,436	97,434
147,429	-2,813	196,417	97,485
148,443	-2,565	196,355	97,611
149,458	-2,510	196,268	97,595
150,473	-1,929	196,134	97,906
151,487	-2,124	196,022	97,712
152,502	-1,954	195,859	97,735
153,516	-1,906	195,816	97,737
154,531	-1,777	195,512	97,662
155,546	-1,828	195,409	97,567
156,560	-1,880	195,379	97,510
157,575	-1,615	195,133	97,553
158,589	-1,694	194,841	97,346
159,604	-1,785	194,864	97,289
160,619	-1,776	194,719	97,214
161,633	-1,569	194,506	97,235
162,648	-1,387	194,378	97,282
163,662	-1,667	194,385	97,093
164,677	-1,679	194,274	97,021
165,692	-1,418	193,971	97,032
166,706	-1,431	194,055	97,057
167,721	-1,389	193,946	97,021
168,735	-1,240	193,717	96,996
169,750	-1,813	193,813	96,660
170,764	-1,334	193,481	96,799
171,779	-1,309	193,454	96,793
172,794	-1,515	193,260	96,553
173,808	-1,417	193,238	96,597
174,823	-1,509	193,023	96,421
175,837	-1,486	192,938	96,385
176,852	-1,376	192,770	96,364
177,867	-1,333	192,653	96,325
178,881	-1,272	192,461	96,260
179,896	-1,346	192,258	96,102
180,910	-1,458	192,247	96,015
181,925	-1,237	191,999	96,026
182,940	-1,388	191,882	95,861
183,954	-1,358	191,759	95,811
184,969	-1,370	191,690	95,760
185,983	-1,203	191,681	95,855
186,998	-1,318	191,523	95,693
188,013	-1,316	191,212	95,530
189,027	-1,070	191,071	95,610
190,042	-1,243	191,009	95,459
191,056	-1,215	190,790	95,359
192,071	-1,223	190,686	95,293
193,086	-1,084	190,602	95,332
194,100	-1,297	190,581	95,176
195,115	-1,356	190,236	94,958
196,129	-1,172	190,085	94,992
197,144	-1,093	189,965	94,974
198,159	-1,177	189,867	94,862
199,173	-1,039	189,725	94,871
200,188	-1,107	189,652	94,783
201,202	-1,036	189,419	94,703
202,217	-1,001	189,449	94,732
203,232	-0,927	189,137	94,615
204,246	-1,069	189,058	94,477
205,261	-1,310	188,982	94,277
206,275	-0,971	188,784	94,385
207,290	-1,114	188,686	94,237
208,304	-0,894	188,560	94,305
209,319	-0,972	188,234	94,084
210,334	-1,156	188,322	94,004
211,348	-1,294	188,173	93,833
212,363	-1,322	187,981	93,711
213,377	-0,895	187,928	93,947
214,392	-1,038	187,940	93,854
215,407	-0,984	187,699	93,759
216,421	-1,037	187,543	93,639
217,436	-0,966	187,393	93,601
218,450	-0,991	187,265	93,513
219,465	-1,211	187,221	93,344
220,480	-1,027	187,094	93,388
221,494	-1,090	187,010	93,298
222,509	-0,833	186,758	93,326
223,523	-0,872	186,555	93,191
224,538	-0,875	186,574	93,191
225,553	-1,056	186,425	92,994
226,567	-0,963	186,289	92,977
227,582	-1,023	186,161	92,867
228,596	-1,033	186,126	92,835
229,611	-0,706	185,864	92,900
230,626	-1,060	185,946	92,712
231,640	-0,958	185,603	92,596
232,655	-0,868	185,614	92,650
233,669	-1,060	185,377	92,403
234,684	-0,949	185,267	92,409
235,699	-0,892	185,166	92,386
236,713	-0,928	185,117	92,331
237,728	-0,632	184,919	92,408
238,742	-0,880	184,897	92,235
239,757	-0,791	184,573	92,120
240,772	-0,936	184,779	92,125
241,786	-0,920	184,460	91,967
242,801	-0,882	184,445	91,975
243,815	-0,608	184,325	92,077
244,830	-0,547	184,017	91,952
245,844	-0,934	183,994	91,694
246,859	-0,769	183,728	91,655
247,874	-0,848	183,796	91,632
248,888	-0,633	183,604	91,660
249,903	-0,852	183,454	91,442
250,917	-0,631	183,383	91,535
251,932	-0,595	183,334	91,525
252,947	-0,741	183,118	91,319
253,961	-0,493	182,994	91,401
254,976	-0,526	182,872	91,311
255,990	-0,694	182,730	91,130
257,005	-0,496	182,671	91,213
258,020	-0,670	182,563	91,044
259,034	-0,654	182,492	91,011
260,049	-0,664	182,227	90,865
261,063	-0,590	182,313	90,944
262,078	-0,439	182,056	90,900
263,093	-0,664	181,939	90,697
264,107	-0,609	181,919	90,712
265,122	-0,544	181,753	90,661
266,136	-0,632	181,604	90,525
267,151	-0,659	181,503	90,450
268,166	-0,374	181,173	90,450
269,180	-0,547	181,218	90,360
270,195	-0,110	181,039	90,528
271,209	-0,482	181,044	90,296
272,224	-0,651	180,913	90,121
273,239	-0,439	180,796	90,183
274,253	-0,362	180,643	90,145
275,268	-0,386	180,486	90,044
276,282	-0,620	180,436	89,870
277,297	-0,273	180,232	89,969
278,312	-0,284	180,053	89,865
279,326	-0,352	180,126	89,853
280,341	-0,438	180,001	89,731
281,355	-0,305	179,820	89,713
282,370	-0,355	179,689	89,609
283,384	0,029	179,429	89,702
284,399	-0,336	179,490	89,506
285,414	-0,410	179,368	89,392
286,428	-0,194	179,176	89,418
287,443	-0,230	179,193	89,397
288,457	-0,408	178,890	89,131
289,472	-0,414	178,924	89,136
290,487	-0,041	178,574	89,177
291,501	-0,298	178,584	89,021
292,516	-0,245	178,441	88,973
293,530	-0,275	178,453	88,953
294,545	-0,189	178,362	88,951
295,560	-0,109	178,285	88,952
296,574	-0,119	178,065	88,829
297,589	-0,014	178,006	88,854
298,603	-0,198	177,784	88,626
299,618	-0,046	177,587	88,610
300,633	-0,106	177,577	88,562
301,647	-0,280	177,578	88,451
302,662	-0,330	177,479	88,364
303,676	-0,173	177,231	88,325
304,691	0,043	177,102	88,381
305,706	-0,061	176,959	88,241
306,720	-0,190	176,921	88,138
307,735	-0,110	176,788	88,110
308,749	-0,389	176,722	87,905
309,764	-0,092	176,558	87,990
310,779	-0,130	176,466	87,915
311,793	-0,180	176,321	87,805
312,808	-0,044	176,120	87,777
313,822	0,104	176,125	87,859
314,837	0,065	176,038	87,785
315,852	-0,007	175,929	87,681
316,866	-0,010	175,795	87,604
317,881	0,179	175,666	87,642
318,895	-0,437	175,619	87,251
319,910	0,012	175,458	87,425
320,925	-0,140	175,340	87,270
321,939	0,027	175,093	87,237
322,954	0,001	175,107	87,221
323,968	0,121	174,950	87,204
324,983	-0,130	174,952	87,051
325,997	0,147	174,774	87,116
327,012	-0,102	174,595	86,875
328,027	-0,127	174,538	86,824
329,041	-0,194	174,406	86,711
330,056	-0,185	174,331	86,672
331,070	0,143	174,110	86,744
332,085	0,254	174,064	86,778
333,100	-0,139	174,047	86,534
334,114	0,033	173,893	86,549
335,129	0,152	173,632	86,481
336,143	0,112	173,460	86,364
337,158	0,082	173,639	86,429
338,173	0,287	173,418	86,429
339,187	0,213	173,344	86,342
340,202	0,346	173,233	86,356
341,216	0,211	173,037	86,172
342,231	0,186	173,017	86,140
343,246	0,186	172,810	86,029
344,260	0,318	172,707	86,046
345,275	0,374	172,741	86,088
346,289	0,116	172,498	85,811
347,304	-0,023	172,465	85,707
348,319	0,171	172,237	85,697
349,333	0,226	172,064	85,635
350,348	-0,116	172,023	85,411
351,362	0,328	171,864	85,579
352,377	0,381	171,814	85,576
353,392	0,310	171,846	85,544
354,406	0,107	171,690	85,343
355,421	189,799	1325,271	1392,426
356,435	150,268	1466,257	1392,896
