DTS Sentinel unit serial number:	SN410029Multiplexer serial number:	ORYXHardware model number:	OX2-SRSoftware version number:	ORYX F/W v4,00 Oryx Data Collector v3.7.2.0data status	okinstallation	B3 Nyhavnadifferential loss correction	single-endedforward channel	channel 1reverse channel	N/Adate	2023/11/28time	11:57:30forward acquisition time	300,00reverse acquisition time	0,00gamma	499,1914k internal	0,3145k external	0,3145temperature offset calibration	1,0000default loss term (dB/km)	0,3820temperature slope calibration	1,0000multiplexer offset coefficient	1,0000multiplexer slope coefficient	1,0000fibre end	0,00T internal ref (°C)	8,84T ext. ref 1 (°C)	-7,65T ext. ref 2 (°C)	-7,85length (m)	temperature (°C)	Stokes	anti-Stokes-744,400	96,375	-0,287	-0,243
-743,385	-200,000	-0,073	0,254
-742,371	65,730	-0,150	-0,112
-741,356	-200,000	-0,010	0,442
-740,342	64,265	-0,175	-0,130
-739,327	-200,000	0,054	0,388
-738,312	800,000	-0,122	-0,271
-737,298	-200,000	-0,029	0,217
-736,283	-33,458	-0,297	-0,121
-735,269	-200,000	0,053	0,296
-734,254	597,412	-0,141	-0,260
-733,239	119,638	-0,177	0,162
-732,225	117,995	-0,163	-0,149
-731,210	464,445	0,073	0,122
-730,196	-200,000	0,013	-0,079
-729,181	-80,102	0,014	-0,003
-728,167	-200,000	-0,006	0,081
-727,152	-0,944	-0,083	-0,043
-726,137	295,786	-0,071	-0,097
-725,123	-164,836	-0,046	-0,002
-724,108	-200,000	-0,033	-0,140
-723,094	60,330	-0,142	-0,104
-722,079	236,086	-0,057	-0,070
-721,064	-29,609	0,173	-0,073
-720,050	-96,336	0,109	0,021
-719,035	458,661	-0,047	-0,078
-718,021	167,620	-0,107	-0,113
-717,006	21,906	-0,113	-0,068
-715,991	800,000	-0,058	-0,122
-714,977	-200,000	-0,001	-0,128
-713,962	800,000	-0,019	-0,058
-712,948	-166,909	-0,098	0,003
-711,933	30,956	0,115	0,073
-710,918	800,000	-0,014	0,037
-709,904	-200,000	-0,028	-0,128
-708,889	-200,000	0,029	-0,205
-707,875	35,275	0,120	-0,078
-706,860	396,107	-0,069	-0,107
-705,845	19,907	0,085	-0,051
-704,831	178,778	0,084	-0,090
-703,816	82,530	-0,080	0,064
-702,802	-200,000	0,005	0,055
-701,787	317,059	-0,093	0,130
-700,772	-135,227	0,097	-0,009
-699,758	506,518	-0,068	-0,118
-698,743	56,370	0,034	0,025
-697,729	89,820	0,119	-0,098
-696,714	192,012	0,076	-0,084
-695,699	-200,000	0,022	0,093
-694,685	51,659	-0,124	-0,087
-693,670	-147,094	0,120	0,007
-692,656	-200,000	0,038	0,126
-691,641	117,301	0,056	-0,051
-690,627	-200,000	0,002	-0,082
-689,612	122,224	-0,010	0,009
-688,597	800,000	-0,030	-0,092
-687,583	29,824	-0,056	-0,035
-686,568	222,114	-0,042	-0,051
-685,554	44,196	-0,110	-0,074
-684,539	800,000	0,066	-0,167
-683,524	-200,000	0,013	-0,067
-682,510	-200,000	-0,025	0,083
-681,495	751,917	-0,054	-0,109
-680,481	-200,000	-0,007	-0,090
-679,466	-200,000	0,015	-0,101
-678,451	156,607	-0,041	-0,042
-677,437	159,592	0,072	-0,074
-676,422	-200,000	0,001	-0,110
-675,408	154,403	-0,068	-0,069
-674,393	-107,837	0,144	-0,023
-673,378	6,376	-0,126	-0,069
-672,364	-200,000	-0,021	-0,104
-671,349	508,347	0,049	-0,084
-670,335	-18,688	-0,081	-0,037
-669,320	222,806	0,053	-0,063
-668,305	-147,427	0,188	-0,012
-667,291	-200,000	-0,006	-0,240
-666,276	800,000	0,039	-0,101
-665,262	-200,000	-0,014	-0,082
-664,247	-130,493	-0,048	0,005
-663,232	277,378	-0,061	0,080
-662,218	-200,000	0,016	0,130
-661,203	171,325	-0,076	0,080
-660,189	-200,000	0,005	0,024
-659,174	470,572	0,039	-0,065
-658,159	-200,000	-0,027	0,121
-657,145	13,654	0,085	-0,049
-656,130	698,165	0,073	-0,142
-655,116	-14,732	0,146	-0,069
-654,101	28,774	0,150	-0,094
-653,086	222,216	-0,128	0,152
-652,072	193,430	-0,087	-0,098
-651,057	81,339	0,004	-0,003
-650,043	-200,000	0,044	-0,147
-649,028	-133,819	0,119	-0,011
-648,014	-57,251	-0,047	0,015
-646,999	482,610	-0,016	-0,026
-645,984	-200,000	0,072	0,000
-644,970	-200,000	-0,002	-0,027
-643,955	-101,372	0,019	-0,003
-642,941	728,891	-0,010	-0,021
-641,926	-200,000	-0,015	-0,056
-640,911	-124,545	0,051	0,006
-639,897	-200,000	0,060	0,220
-638,882	268,168	-0,014	0,018
-637,868	86,334	-0,111	-0,090
-636,853	127,129	-0,045	-0,042
-635,838	-72,443	-0,269	0,073
-634,824	10,955	0,151	-0,085
-633,809	112,939	0,014	0,013
-632,795	-200,000	-0,002	0,031
-631,780	733,985	0,061	0,120
-630,765	-200,000	-0,026	0,086
-629,751	-53,803	-0,038	0,013
-628,736	-200,000	-0,050	-0,187
-627,722	-200,000	-0,003	0,151
-626,707	279,711	-0,034	0,045
-625,692	173,214	-0,143	0,152
-624,678	379,341	-0,068	0,104
-623,663	-134,212	-0,160	-0,014
-622,649	-143,623	-0,124	0,009
-621,634	-103,567	0,023	-0,004
-620,619	274,374	-0,084	-0,110
-619,605	800,000	0,051	-0,121
-618,590	-83,866	0,152	0,035
-617,576	106,412	-0,062	0,054
-616,561	722,901	0,065	-0,129
-615,546	153,663	-0,075	-0,075
-614,532	-200,000	0,003	-0,145
-613,517	161,463	-0,069	-0,071
-612,503	-200,000	-0,037	-0,123
-611,488	-74,062	0,068	-0,018
-610,474	-66,652	0,097	-0,028
-609,459	-96,194	0,109	-0,021
-608,444	303,367	-0,033	-0,045
-607,430	-200,000	0,011	-0,049
-606,415	-200,000	-0,003	-0,029
-605,401	-123,254	0,113	0,013
-604,386	-133,363	-0,084	0,008
-603,371	-200,000	-0,013	0,166
-602,357	234,407	-0,119	-0,144
-601,342	-200,000	-0,010	-0,177
-600,328	-40,654	-0,071	-0,027
-599,313	-200,000	0,001	-0,073
-598,298	269,296	0,043	-0,056
-597,284	-75,501	-0,113	0,029
-596,269	163,365	-0,051	-0,053
-595,255	-200,000	-0,000	-0,011
-594,240	15,738	0,062	-0,036
-593,225	-60,027	-0,159	0,050
-592,211	-44,814	0,142	-0,052
-591,196	297,565	0,092	-0,125
-590,182	-106,312	-0,094	-0,015
-589,167	-200,000	0,013	0,091
-588,152	800,000	-0,025	-0,057
-587,138	-200,000	-0,005	-0,023
-586,123	336,477	0,079	0,113
-585,109	-200,000	-0,009	-0,047
-584,094	301,880	-0,071	-0,097
-583,079	500,512	-0,078	0,133
-582,065	185,889	0,013	-0,014
-581,050	-200,000	0,032	0,113
-580,036	141,448	0,080	0,078
-579,021	406,796	-0,031	-0,048
-578,006	-200,000	-0,010	0,053
-576,992	800,000	-0,026	0,082
-575,977	-74,694	0,052	-0,014
-574,963	-200,000	-0,014	-0,110
-573,948	127,593	0,023	-0,021
-572,934	-175,723	-0,134	0,003
-571,919	-17,617	-0,117	-0,054
-570,904	800,000	-0,042	0,089
-569,890	-200,000	-0,052	0,172
-568,875	-14,326	0,107	0,051
-567,861	293,053	-0,087	0,117
-566,846	49,931	0,033	0,023
-565,831	800,000	-0,049	0,102
-564,817	-136,101	-0,072	-0,006
-563,802	55,914	-0,101	0,072
-562,788	-200,000	0,005	0,033
-561,773	-155,478	0,097	-0,005
-560,758	-35,503	0,090	0,036
-559,744	-43,037	0,069	-0,026
-558,729	-196,860	-0,092	-0,000
-557,715	800,000	-0,017	0,053
-556,700	-200,000	-0,014	0,144
-555,685	35,542	-0,066	0,042
-554,671	800,000	0,053	-0,114
-553,656	559,950	0,046	0,081
-552,642	-126,174	-0,107	0,012
-551,627	-200,000	-0,011	-0,056
-550,612	-31,742	-0,069	0,028
-549,598	194,135	-0,077	0,086
-548,583	-200,000	-0,021	-0,125
-547,569	90,613	-0,077	0,063
-546,554	294,208	0,042	-0,056
-545,539	96,525	0,104	0,088
-544,525	-200,000	0,019	0,064
-543,510	-88,513	-0,139	0,030
-542,496	597,880	-0,071	0,129
-541,481	-114,635	-0,124	0,017
-540,466	-76,616	0,070	-0,018
-539,452	-74,446	-0,141	0,037
-538,437	348,214	0,110	0,160
-537,423	-165,423	0,055	-0,002
-536,408	663,170	-0,073	-0,140
-535,393	-200,000	0,026	0,130
-534,379	31,493	0,068	-0,043
-533,364	800,000	0,021	-0,055
-532,350	36,328	0,125	0,081
-531,335	404,581	-0,045	0,070
-530,321	746,425	0,071	0,142
-529,306	492,682	-0,055	0,093
-528,291	-65,416	-0,027	0,008
-527,277	61,923	-0,162	-0,118
-526,262	131,761	0,127	-0,120
-525,248	-200,000	0,004	0,053
-524,233	198,748	0,061	0,069
-523,218	531,854	-0,054	0,094
-522,204	-14,834	-0,039	0,018
-521,189	338,621	-0,061	-0,088
-520,175	800,000	0,058	-0,123
-519,160	-200,000	-0,005	0,123
-518,145	52,577	-0,096	0,067
-517,131	477,878	0,046	0,077
-516,116	-200,000	-0,002	0,012
-515,102	-161,021	-0,137	-0,005
-514,087	337,791	0,062	-0,089
-513,072	-200,000	-0,007	0,067
-512,058	-200,000	-0,064	-0,000
-511,043	201,158	0,035	-0,039
-510,029	-23,542	0,105	-0,046
-509,014	62,139	-0,053	0,038
-507,999	800,000	0,051	-0,110
-506,985	210,356	-0,093	-0,107
-505,970	-200,000	-0,015	-0,163
-504,956	-200,000	0,005	-0,037
-503,941	800,000	0,041	0,101
-502,926	-200,000	0,017	0,069
-501,912	-24,505	0,121	0,053
-500,897	-200,000	0,012	-0,153
-499,883	-38,179	-0,007	0,003
-498,868	-43,627	0,050	-0,018
-497,853	800,000	-0,050	0,110
-496,839	800,000	0,006	0,020
-495,824	132,731	0,058	0,055
-494,810	611,791	-0,053	0,097
-493,795	-146,037	0,046	-0,003
-492,781	-71,207	-0,022	-0,006
-491,766	-157,578	0,025	0,001
-490,751	-200,000	0,009	-0,142
-489,737	125,086	-0,027	-0,025
-488,722	-200,000	0,010	0,089
-487,708	-200,000	0,006	0,028
-486,693	-139,167	0,060	-0,005
-485,678	-19,764	-0,016	0,007
-484,664	-4,885	-0,097	-0,049
-483,649	61,852	-0,065	-0,048
-482,635	44,705	0,060	-0,040
-481,620	123,705	0,070	-0,064
-480,605	-33,812	0,090	0,036
-479,591	15,833	0,088	0,051
-478,576	-145,846	-0,137	-0,009
-477,562	231,426	0,021	0,026
-476,547	31,148	-0,146	-0,092
-475,532	-132,201	0,167	0,016
-474,518	69,376	-0,048	0,036
-473,503	112,303	0,055	0,048
-472,489	-71,123	0,042	-0,011
-471,474	-33,521	0,190	0,076
-470,459	-200,000	-0,004	-0,075
-469,445	380,437	-0,045	-0,067
-468,430	-38,287	-0,036	-0,014
-467,416	159,047	-0,108	-0,110
-466,401	151,060	-0,106	0,106
-465,386	241,581	-0,083	0,101
-464,372	47,954	0,097	-0,066
-463,357	-188,363	0,036	-0,000
-462,343	173,343	-0,098	-0,104
-461,328	-24,153	-0,122	-0,053
-460,313	-200,000	0,008	-0,040
-459,299	-33,208	-0,058	0,024
-458,284	-136,734	0,131	0,011
-457,270	-71,437	-0,044	-0,012
-456,255	195,727	0,065	0,072
-455,241	-200,000	0,004	-0,118
-454,226	-157,555	-0,113	-0,005
-453,211	-200,000	-0,009	0,036
-452,197	-200,000	0,013	0,059
-451,182	79,836	0,099	-0,078
-450,168	105,322	-0,052	-0,045
-449,153	-133,521	-0,012	-0,001
-448,138	-200,000	0,021	0,079
-447,124	-200,000	0,003	-0,023
-446,109	-106,670	-0,174	-0,028
-445,095	82,575	-0,076	-0,060
-444,080	-102,492	0,150	0,026
-443,065	-137,391	0,093	0,008
-442,051	800,000	-0,009	0,028
-441,036	-200,000	-0,007	0,032
-440,022	-148,663	-0,037	-0,002
-439,007	-105,394	-0,056	0,009
-437,992	-200,000	0,023	0,080
-436,978	199,758	0,129	0,145
-435,963	751,092	0,019	-0,038
-434,949	-65,216	0,104	0,030
-433,934	204,978	-0,099	-0,112
-432,919	-200,000	-0,013	-0,102
-431,905	-95,773	0,118	0,023
-430,890	32,895	0,056	0,035
-429,876	800,000	0,055	0,118
-428,861	153,122	0,115	0,115
-427,846	-51,515	0,058	0,020
-426,832	800,000	0,009	0,027
-425,817	-10,651	-0,070	0,034
-424,803	59,575	0,043	-0,031
-423,788	-75,631	0,027	0,007
-422,773	-71,883	0,104	-0,028
-421,759	-74,671	0,113	-0,030
-420,744	147,651	0,090	-0,088
-419,730	-200,000	0,000	0,061
-418,715	49,680	-0,089	0,061
-417,701	-152,550	0,069	0,004
-416,686	192,355	0,054	-0,059
-415,671	-16,182	0,032	-0,015
-414,657	706,108	0,050	0,098
-413,642	397,709	0,023	-0,035
-412,628	-176,600	0,029	-0,001
-411,613	-58,500	-0,062	0,020
-410,598	-114,891	-0,108	-0,015
-409,584	-200,000	0,008	0,027
-408,569	-127,242	0,191	0,020
-407,555	-69,418	0,054	-0,015
-406,540	-87,205	-0,081	0,018
-405,525	51,393	0,059	-0,041
-404,511	462,929	0,075	-0,123
-403,496	-200,000	0,001	-0,111
-402,482	131,515	0,046	-0,043
-401,467	253,658	0,010	0,012
-400,452	32,546	-0,074	0,047
-399,438	48,709	0,067	0,046
-398,423	-200,000	-0,023	-0,121
-397,409	-200,000	-0,031	0,121
-396,394	176,035	-0,061	-0,065
-395,379	313,040	0,030	0,041
-394,365	-200,000	0,000	-0,050
-393,350	344,103	0,017	0,024
-392,336	-133,824	0,108	-0,010
-391,321	31,106	-0,012	-0,008
-390,306	105,789	-0,048	-0,042
-389,292	199,242	0,042	0,047
-388,277	234,797	0,035	-0,042
-387,263	-200,000	0,006	0,036
-386,248	-200,000	0,008	0,064
-385,233	122,762	-0,046	0,042
-384,219	800,000	0,037	0,102
-383,204	800,000	0,023	-0,058
-382,190	-151,570	0,106	0,006
-381,175	-200,000	-0,000	-0,051
-380,160	-71,183	0,123	0,034
-379,146	-53,482	0,149	0,049
-378,131	-200,000	0,001	0,034
-377,117	-75,088	0,115	0,030
-376,102	-71,932	-0,135	-0,036
-375,088	233,512	0,162	0,195
-374,073	-89,354	-0,128	-0,027
-373,058	-200,000	0,013	0,105
-372,044	-200,000	0,016	0,094
-371,029	166,807	-0,081	0,084
-370,015	800,000	0,058	0,133
-369,000	800,000	0,034	0,069
-367,985	800,000	-0,057	-0,121
-366,971	-116,715	0,189	0,025
-365,956	-166,820	0,103	0,003
-364,942	-200,000	-0,002	0,096
-363,927	-200,000	0,005	0,136
-362,912	37,435	0,052	-0,034
-361,898	136,799	0,023	-0,022
-360,883	-125,357	0,095	-0,010
-359,869	800,000	-0,097	-0,207
-358,854	-179,327	0,089	-0,001
-357,839	800,000	0,037	0,115
-356,825	750,492	0,047	0,093
-355,810	-4,423	-0,063	-0,032
-354,796	-200,000	0,011	0,039
-353,781	473,008	-0,017	0,029
-352,766	-53,017	-0,058	-0,019
-351,752	-200,000	-0,025	0,000
-350,737	192,987	0,039	0,043
-349,723	-144,719	0,038	-0,002
-348,708	-102,823	-0,029	-0,005
-347,693	-83,822	-0,154	-0,035
-346,679	800,000	-0,059	-0,145
-345,664	-200,000	0,008	0,117
-344,650	-104,290	-0,043	0,007
-343,635	-200,000	0,030	0,181
-342,620	-98,028	0,062	0,012
-341,606	-50,429	0,062	-0,021
-340,591	-101,180	-0,102	-0,018
-339,577	-200,000	0,018	-0,062
-338,562	800,000	0,067	-0,150
-337,548	-90,002	-0,122	-0,026
-336,533	-33,343	-0,035	-0,014
-335,518	800,000	-0,052	0,112
-334,504	-38,030	0,126	0,049
-333,489	-25,345	0,061	-0,026
-332,475	-1,211	0,058	-0,030
-331,460	158,877	-0,083	0,084
-330,445	-200,000	-0,004	-0,041
-329,431	-200,000	-0,011	-0,109
-328,416	-30,254	0,080	0,033
-327,402	280,155	0,029	0,038
-326,387	581,829	-0,117	-0,210
-325,372	-200,000	0,026	-0,124
-324,358	242,091	-0,122	-0,149
-323,343	-163,326	-0,174	0,006
-322,329	800,000	0,053	-0,109
-321,314	212,911	-0,057	0,066
-320,299	16,047	-0,059	-0,034
-319,285	173,814	-0,072	-0,076
-318,270	-200,000	-0,012	0,062
-317,256	800,000	-0,039	-0,107
-316,241	800,000	0,060	-0,123
-315,226	-76,562	-0,044	0,011
-314,212	-115,781	0,111	-0,015
-313,197	-70,608	-0,084	-0,023
-312,183	86,042	-0,044	0,036
-311,168	302,602	-0,072	-0,097
-310,153	-96,855	-0,070	0,013
-309,139	341,000	0,038	-0,054
-308,124	-89,173	0,068	-0,014
-307,110	-200,000	-0,027	0,172
-306,095	-105,487	0,204	0,033
-305,080	-142,093	0,059	0,004
-304,066	-200,000	-0,003	0,028
-303,051	417,228	0,038	-0,059
-302,037	-200,000	-0,017	0,110
-301,022	69,876	-0,017	0,013
-300,008	-200,000	-0,007	-0,128
-298,993	-155,727	0,123	0,006
-297,978	-115,055	-0,095	0,013
-296,964	177,546	0,028	-0,030
-295,949	629,436	0,082	-0,152
-294,935	75,539	-0,016	-0,013
-293,920	-134,433	-0,031	0,003
-292,905	-98,835	-0,152	0,028
-291,891	405,681	0,075	0,116
-290,876	-200,000	0,014	0,094
-289,862	-77,893	-0,088	-0,022
-288,847	255,608	0,049	0,062
-287,832	135,986	-0,017	-0,016
-286,818	-11,129	0,075	-0,036
-285,803	-6,429	-0,055	-0,027
-284,789	86,139	0,136	-0,109
-283,774	800,000	0,090	0,181
-282,759	-200,000	-0,013	-0,132
-281,745	800,000	-0,014	-0,029
-280,730	-140,460	-0,077	-0,006
-279,716	71,660	0,092	0,069
-278,701	-70,566	-0,228	0,062
-277,686	-200,000	0,002	0,126
-276,672	800,000	-0,044	-0,110
-275,657	-200,000	0,042	0,157
-274,643	800,000	0,093	-0,188
-273,628	36,312	-0,162	0,104
-272,613	-200,000	-0,034	-0,133
-271,599	-177,322	-0,074	0,001
-270,584	115,406	0,059	-0,052
-269,570	403,737	0,072	-0,110
-268,555	-200,000	0,018	0,120
-267,540	-200,000	0,006	-0,184
-266,526	522,469	0,055	-0,093
-265,511	-52,532	-0,068	-0,023
-264,497	-58,009	0,025	0,008
-263,482	-27,919	0,077	0,032
-262,467	324,461	0,065	0,091
-261,453	800,000	-0,022	-0,046
-260,438	72,239	-0,039	-0,029
-259,424	290,961	-0,017	0,022
-258,409	-200,000	0,011	-0,094
-257,395	438,440	-0,034	-0,054
-256,380	211,960	0,032	-0,036
-255,365	588,387	0,049	0,089
-254,351	-200,000	-0,022	-0,093
-253,336	-135,987	-0,045	0,004
-252,322	56,489	-0,152	-0,108
-251,307	-46,583	-0,130	-0,046
-250,292	-200,000	-0,011	0,083
-249,278	71,543	0,087	0,065
-248,263	-200,000	0,011	0,179
-247,249	-200,000	0,001	0,123
-246,234	36,985	-0,124	0,079
-245,219	145,119	0,046	0,045
-244,205	-200,000	-0,023	-0,086
-243,190	800,000	-0,020	0,047
-242,176	-200,000	-0,002	-0,119
-241,161	-31,536	-0,079	-0,032
-240,146	-200,000	-0,010	0,052
-239,132	800,000	-0,023	-0,048
-238,117	-156,258	0,026	-0,001
-237,103	-22,394	-0,086	-0,038
-236,088	800,000	0,064	-0,161
-235,073	77,116	0,094	-0,072
-234,059	-200,000	-0,014	0,119
-233,044	238,957	0,032	0,039
-232,030	-200,000	-0,001	-0,014
-231,015	-200,000	-0,020	-0,065
-230,000	-132,841	-0,103	0,009
-228,986	43,478	-0,024	-0,016
-227,971	205,626	-0,068	-0,076
-226,957	21,949	0,120	-0,071
-225,942	-200,000	0,003	0,094
-224,927	21,049	0,022	0,013
-223,913	41,015	-0,110	0,072
-222,898	-200,000	0,042	-0,214
-221,884	116,732	-0,128	-0,114
-220,869	800,000	-0,004	-0,009
-219,855	800,000	-0,036	-0,096
-218,840	-200,000	0,015	0,154
-217,825	196,826	0,028	0,031
-216,811	-83,805	0,146	0,034
-215,796	-200,000	0,009	-0,041
-214,782	322,972	0,042	-0,058
-213,767	62,853	0,084	0,061
-212,752	-109,483	0,106	-0,016
-211,738	800,000	0,024	-0,054
-210,723	-4,963	-0,094	-0,047
-209,709	-15,490	0,135	0,062
-208,694	120,237	0,013	-0,012
-207,679	-200,000	0,049	0,219
-206,665	695,318	0,044	-0,084
-205,650	-200,000	0,002	0,083
-204,636	-72,584	-0,034	0,009
-203,621	350,817	-0,047	-0,067
-202,606	588,437	-0,092	0,165
-201,592	358,697	0,056	-0,082
-200,577	800,000	-0,040	-0,094
-199,563	344,717	-0,055	-0,079
-198,548	-14,723	0,054	0,025
-197,533	-200,000	0,008	0,026
-196,519	-88,984	-0,147	0,031
-195,504	6,690	0,092	0,050
-194,490	800,000	-0,041	-0,113
-193,475	-106,648	0,091	0,014
-192,460	-200,000	0,012	-0,113
-191,446	-28,669	0,062	0,026
-190,431	117,394	-0,035	0,031
-189,417	-133,333	-0,098	0,009
-188,402	297,016	-0,065	-0,086
-187,387	800,000	0,020	-0,062
-186,373	278,226	0,028	-0,036
-185,358	-97,510	0,027	-0,005
-184,344	800,000	0,023	0,067
-183,329	138,057	0,058	-0,055
-182,315	-200,000	0,019	0,095
-181,300	271,725	0,021	0,027
-180,285	-200,000	-0,002	0,024
-179,271	-54,852	-0,200	-0,065
-178,256	-200,000	0,001	-0,012
-177,242	333,043	0,037	-0,052
-176,227	222,065	0,046	0,054
-175,212	-64,123	-0,050	0,015
-174,198	-200,000	0,020	-0,097
-173,183	-32,742	-0,044	-0,017
-172,169	-8,745	-0,033	-0,016
-171,154	-155,682	-0,081	0,004
-170,139	277,386	-0,137	0,176
-169,125	-99,582	-0,056	-0,010
-168,110	-200,000	-0,008	-0,029
-167,096	-70,942	0,073	0,020
-166,081	-7,374	-0,038	0,019
-165,066	-200,000	0,015	-0,068
-164,052	800,000	0,086	-0,184
-163,037	228,027	-0,019	0,023
-162,023	3,225	-0,154	-0,081
-161,008	-94,040	0,087	0,017
-159,993	-200,000	-0,014	0,150
-158,979	385,567	0,033	0,050
-157,964	-200,000	0,004	-0,035
-156,950	-36,390	0,035	0,014
-155,935	-117,557	0,141	-0,018
-154,920	143,988	-0,044	0,042
-153,906	-114,121	0,106	-0,015
-152,891	160,321	0,090	0,091
-151,877	50,152	-0,065	0,044
-150,862	-200,000	0,010	-0,138
-149,847	-200,000	-0,017	-0,057
-148,833	-200,000	0,013	0,075
-147,818	149,262	0,105	-0,103
-146,804	-184,024	0,074	0,001
-145,789	-49,317	-0,087	-0,030
-144,775	-200,000	-0,017	-0,081
-143,760	76,677	0,140	-0,107
-142,745	359,236	0,086	0,125
-141,731	363,895	0,079	-0,115
-140,716	-200,000	0,010	0,069
-139,702	-200,000	0,006	0,031
-138,687	-200,000	0,004	-0,022
-137,672	800,000	0,008	0,017
-136,658	12,573	-0,065	-0,036
-135,643	-69,105	-0,129	0,036
-134,629	144,802	-0,043	-0,041
-133,614	-200,000	-0,029	-0,111
-132,599	-136,145	-0,087	-0,007
-131,585	-93,203	0,081	0,016
-130,570	-32,323	-0,118	-0,047
-129,556	-62,411	0,128	-0,038
-128,541	8,681	-0,077	-0,042
-127,526	443,684	-0,039	-0,062
-126,512	-150,493	0,065	-0,004
-125,497	800,000	0,019	-0,054
-124,483	237,397	0,065	-0,078
-123,468	19,359	-0,111	0,064
-122,453	241,603	0,097	-0,117
-121,439	800,000	0,051	-0,116
-120,424	800,000	0,013	0,040
-119,410	152,608	0,105	0,103
-118,395	23,252	0,051	-0,030
-117,380	-172,142	-0,123	0,003
-116,366	-200,000	0,008	-0,044
-115,351	-200,000	-0,026	0,094
-114,337	-57,495	0,047	-0,015
-113,322	-15,630	-0,115	0,053
-112,307	-200,000	-0,012	-0,062
-111,293	-119,492	0,093	0,012
-110,278	133,746	0,173	0,161
-109,264	451,918	0,039	0,062
-108,249	160,291	-0,052	-0,053
-107,234	800,000	-0,023	-0,056
-106,220	543,205	-0,044	-0,076
-105,205	-162,875	0,106	0,004
-104,191	72,805	-0,119	0,089
-103,176	52,672	0,046	-0,032
-102,162	800,000	0,097	0,218
-101,147	288,317	-0,018	0,023
-100,132	-200,000	-0,024	-0,127
-99,118	60,333	-0,127	-0,091
-98,103	-71,427	-0,047	0,013
-97,089	-36,405	0,066	0,026
-96,074	-200,000	0,017	0,090
-95,059	-67,245	-0,080	0,022
-94,045	-200,000	0,001	-0,126
-93,030	-200,000	0,033	-0,146
-92,016	800,000	0,020	-0,043
-91,001	-63,887	-0,114	-0,033
-89,986	81,336	-0,167	0,130
-88,972	800,000	0,040	0,116
-87,957	320,681	0,034	-0,047
-86,943	800,000	0,059	-0,168
-85,928	-73,580	-0,009	-0,002
-84,913	677,781	-0,052	0,097
-83,899	-6,031	0,101	0,050
-82,884	800,000	0,012	0,028
-81,870	-200,000	-0,028	0,130
-80,855	-200,000	-0,030	-0,137
-79,840	-73,325	0,059	0,016
-78,826	277,869	-0,098	-0,127
-77,811	-119,869	0,044	0,005
-76,797	171,426	0,096	-0,099
-75,782	76,192	0,060	0,045
-74,767	347,988	-0,057	0,081
-73,753	772,124	0,086	0,170
-72,738	3,654	0,038	-0,020
-71,724	-138,275	-0,055	0,004
-70,709	321,124	0,047	0,065
-69,694	800,000	-0,014	0,036
-68,680	-89,732	0,117	0,025
-67,665	368,822	-0,032	0,047
-66,651	255,692	0,026	0,032
-65,636	57,896	-0,069	-0,048
-64,622	-200,000	0,011	-0,050
-63,607	35,091	-0,137	-0,086
-62,592	-138,932	-0,136	-0,010
-61,578	59,367	-0,023	0,016
-60,563	378,199	0,089	-0,132
-59,549	-20,512	-0,110	-0,049
-58,534	41,742	-2,140	-1,395
-57,519	473,613	-1,209	-1,972
-56,505	-200,000	-0,277	-4,335
-55,490	800,000	0,704	1,622
-54,476	800,000	5,203	11,264
-53,461	-200,000	21,938	341,502
-52,446	800,000	755,906	2312,272
-51,432	515,173	1647,672	2782,907
-50,417	69,343	1575,085	1166,623
-49,403	20,476	1132,183	657,927
-48,388	12,361	838,944	464,507
-47,373	26,426	803,588	482,976
-46,359	18,162	789,242	452,434
-45,344	9,011	784,999	425,658
-44,330	8,810	783,480	424,283
-43,315	8,825	782,030	423,521
-42,300	8,736	780,905	422,658
-41,286	8,747	780,045	422,206
-40,271	8,675	779,153	421,515
-39,257	8,780	778,198	421,260
-38,242	8,827	777,316	420,890
-37,227	8,824	776,300	420,314
-36,213	8,898	775,402	420,008
-35,198	8,829	774,596	419,370
-34,184	8,907	774,163	419,327
-33,169	8,792	773,179	418,473
-32,154	8,892	772,829	418,530
-31,140	8,969	771,158	417,810
-30,125	8,982	770,573	417,513
-29,111	8,854	770,216	416,967
-28,096	8,902	769,847	416,875
-27,082	8,857	769,235	416,411
-26,067	8,877	768,487	416,040
-25,052	8,791	767,818	415,438
-24,038	8,738	767,280	414,993
-23,023	8,756	766,690	414,703
-22,009	8,875	766,175	414,719
-20,994	8,910	765,387	414,366
-19,979	8,938	764,676	414,036
-18,965	8,874	764,157	413,573
-17,950	8,908	763,735	413,417
-16,936	8,850	763,033	412,869
-15,921	8,824	762,510	412,503
-14,906	8,798	761,779	412,025
-13,892	8,810	761,260	411,759
-12,877	8,778	760,833	411,430
-11,863	8,727	760,537	411,121
-10,848	8,655	759,926	410,587
-9,833	8,829	759,426	410,750
-8,819	8,813	758,825	410,369
-7,804	8,856	757,838	409,928
-6,790	8,814	757,647	409,701
-5,775	8,885	757,366	409,715
-4,760	8,783	756,891	409,179
-3,746	8,732	756,577	408,862
-2,731	8,530	756,082	408,060
-1,717	8,541	755,584	407,805
-0,702	8,648	754,802	407,640
0,313	8,660	751,789	406,657
1,327	12,299	731,504	404,687
2,342	20,647	592,995	344,742
3,356	14,439	327,089	183,291
4,371	-15,622	219,530	100,447
5,386	-18,745	206,783	92,381
6,400	-18,553	202,857	90,753
7,415	-17,645	201,030	90,556
8,429	-18,633	199,946	89,380
9,444	-18,847	199,041	88,821
10,459	-18,552	198,759	88,889
11,473	-18,855	198,249	88,446
12,488	-18,665	197,874	88,400
13,502	-18,777	197,438	88,122
14,517	-18,643	197,064	88,037
15,531	-18,574	196,440	87,797
16,546	-18,580	196,330	87,736
17,561	-18,964	195,954	87,302
18,575	-18,502	195,688	87,487
19,590	-18,636	195,495	87,302
20,604	-18,418	195,308	87,358
21,619	-18,717	194,977	87,001
22,634	-18,914	194,789	86,778
23,648	-18,628	194,340	86,761
24,663	-18,556	194,091	86,690
25,677	-18,799	194,113	86,530
26,692	-18,653	193,754	86,460
27,707	-18,608	193,615	86,420
28,721	-18,486	193,268	86,338
29,736	-18,521	193,062	86,215
30,750	-18,878	192,889	85,893
31,765	-18,562	192,642	85,985
32,780	-18,633	192,518	85,876
33,794	-18,304	192,246	85,964
34,809	-18,417	192,140	85,834
35,823	-18,522	191,921	85,660
36,838	-18,827	191,649	85,330
37,853	-18,809	191,588	85,306
38,867	-18,439	191,230	85,383
39,882	-18,303	191,153	85,430
40,896	-18,431	190,968	85,256
41,911	-18,353	190,784	85,216
42,926	-18,453	190,721	85,116
43,940	-18,510	190,317	84,890
44,955	-18,685	190,176	84,706
45,969	-18,535	190,057	84,743
46,984	-18,347	189,856	84,769
47,999	-18,413	189,732	84,663
49,013	-18,168	189,560	84,737
50,028	-18,180	189,245	84,582
51,042	-18,377	189,246	84,447
52,057	-18,356	189,045	84,363
53,071	-18,276	188,935	84,358
54,086	-18,347	188,774	84,233
55,101	-18,303	188,566	84,161
56,115	-18,513	188,379	83,934
57,130	-18,611	188,165	83,768
58,144	-18,564	187,976	83,707
59,159	-18,842	187,685	83,391
60,174	-18,519	187,475	83,498
61,188	-18,611	187,447	83,419
62,203	-18,903	187,470	83,234
63,217	-18,561	187,081	83,273
64,232	-18,827	187,002	83,060
65,247	-18,688	186,788	83,046
66,261	-18,545	186,506	83,005
67,276	-18,458	186,486	83,045
68,290	-18,421	186,255	82,958
69,305	-18,435	185,980	82,819
70,320	-18,520	185,869	82,708
71,334	-18,469	185,827	82,714
72,349	-18,603	185,440	82,450
73,363	-18,635	185,233	82,330
74,378	-18,550	185,093	82,314
75,393	-18,728	185,219	82,250
76,407	-18,597	184,987	82,223
77,422	-18,467	184,788	82,209
78,436	-18,879	184,799	81,946
79,451	-18,728	184,398	81,856
80,466	-18,522	184,185	81,884
81,480	-18,241	183,992	81,968
82,495	-18,429	184,036	81,863
83,509	-18,564	183,929	81,722
84,524	-18,283	183,605	81,748
85,539	-18,361	183,635	81,704
86,553	-18,365	183,407	81,593
87,568	-18,639	183,276	81,356
88,582	-18,647	183,076	81,255
89,597	-18,633	182,901	81,179
90,611	-18,309	182,785	81,323
91,626	-18,697	182,699	81,035
92,641	-18,527	182,510	81,050
93,655	-18,161	182,084	81,081
94,670	-18,400	182,285	81,014
95,684	-18,423	181,910	80,826
96,699	-18,466	181,870	80,774
97,714	-18,352	181,611	80,723
98,728	-18,292	181,552	80,726
99,743	-18,250	181,356	80,659
100,757	-18,463	181,322	80,504
101,772	-18,176	180,982	80,524
102,787	-18,512	180,971	80,304
103,801	-18,442	180,811	80,269
104,816	-18,593	180,729	80,132
105,830	-18,401	180,719	80,239
106,845	-18,447	180,437	80,078
107,860	-18,508	180,273	79,961
108,874	-18,441	180,079	79,909
109,889	-18,238	179,748	79,879
110,903	-18,542	179,868	79,739
111,918	-18,483	179,635	79,664
112,933	-18,378	179,539	79,680
113,947	-18,605	179,450	79,494
114,962	-18,553	179,123	79,374
115,976	-18,362	179,109	79,477
116,991	-18,362	178,826	79,345
118,006	-18,397	178,764	79,289
119,020	-18,465	178,693	79,208
120,035	-18,505	178,557	79,117
121,049	-18,358	178,474	79,162
122,064	-18,493	178,235	78,967
123,079	-18,393	178,145	78,981
124,093	-18,538	177,942	78,796
125,108	-18,169	177,788	78,944
126,122	-18,130	177,633	78,892
127,137	-18,246	177,505	78,758
128,151	-18,199	177,459	78,759
129,166	-18,185	177,252	78,669
130,181	-18,441	177,037	78,412
131,195	-17,918	176,880	78,650
132,210	-18,548	176,773	78,217
133,224	-18,587	176,609	78,114
134,239	-18,526	176,492	78,091
135,254	-18,372	176,412	78,142
136,268	-18,485	176,139	77,946
137,283	-18,063	175,961	78,113
138,297	-18,268	175,905	77,959
139,312	-18,328	175,640	77,798
140,327	-18,615	175,488	77,553
141,341	-18,862	175,304	77,317
142,356	-18,954	175,056	77,146
143,370	-17,689	175,357	78,027
144,385	-10,377	177,338	83,310
145,400	-3,670	178,665	87,989
146,414	-2,520	178,785	88,736
147,429	-2,086	178,930	89,063
148,443	-2,093	178,874	89,023
149,458	-2,002	178,723	88,995
150,473	-1,648	178,651	89,165
151,487	-1,349	178,607	89,316
152,502	-1,366	178,367	89,178
153,516	-1,498	178,362	89,087
154,531	-1,734	178,288	88,900
155,546	-1,406	178,050	88,971
156,560	-1,187	177,921	89,030
157,575	-1,262	177,793	88,913
158,589	-1,505	177,653	88,690
159,604	-1,265	177,536	88,767
160,619	-1,521	177,273	88,474
161,633	-1,442	177,271	88,513
162,648	-1,434	177,259	88,503
163,662	-1,232	177,261	88,618
164,677	-0,926	177,015	88,669
165,692	-0,792	176,776	88,622
166,706	-0,859	176,686	88,529
167,721	-1,015	176,565	88,367
168,735	-0,820	176,443	88,414
169,750	-0,881	176,274	88,285
170,764	-1,071	176,308	88,182
171,779	-0,992	176,232	88,182
172,794	-0,936	176,010	88,097
173,808	-0,921	175,810	87,998
174,823	-0,750	175,702	88,037
175,837	-1,111	175,683	87,806
176,852	-0,928	175,614	87,872
177,867	-1,098	175,498	87,706
178,881	-1,163	175,462	87,641
179,896	-1,032	175,187	87,574
180,910	-0,983	175,045	87,524
181,925	-1,117	175,047	87,438
182,940	-0,756	174,581	87,410
183,954	-1,050	174,742	87,309
184,969	-0,772	174,463	87,326
185,983	-0,862	174,514	87,291
186,998	-0,916	174,450	87,219
188,013	-0,715	174,214	87,211
189,027	-1,088	174,014	86,885
190,042	-1,002	174,004	86,923
191,056	-0,822	173,674	86,855
192,071	-0,801	173,665	86,855
193,086	-0,860	173,710	86,835
194,100	-0,808	173,514	86,760
195,115	-0,622	173,250	86,729
196,129	-0,755	173,120	86,578
197,144	-0,457	173,010	86,689
198,159	-0,623	172,988	86,574
199,173	-0,938	172,819	86,299
200,188	-0,586	172,765	86,468
201,202	-0,546	172,504	86,353
202,217	-0,506	172,475	86,354
203,232	-0,506	172,335	86,277
204,246	-0,846	172,343	86,076
205,261	-0,780	172,056	85,963
206,275	-0,700	171,923	85,935
207,290	-0,677	171,862	85,910
208,304	-0,463	171,755	85,972
209,319	-0,515	171,418	85,766
210,334	-0,605	171,353	85,674
211,348	-0,881	171,244	85,453
212,363	-0,936	171,294	85,439
213,377	-0,621	171,190	85,561
214,392	-0,492	171,144	85,604
215,407	-0,576	170,923	85,437
216,421	-0,731	170,892	85,325
217,436	-0,575	170,668	85,295
218,450	-0,531	170,510	85,234
219,465	-0,668	170,288	85,037
220,480	-0,486	170,327	85,153
221,494	-0,517	170,221	85,075
222,509	-0,544	170,250	85,066
223,523	-0,712	170,166	84,921
224,538	-0,528	169,936	84,903
225,553	-0,545	169,684	84,761
226,567	-0,576	169,683	84,734
227,582	-0,265	169,355	84,740
228,596	-0,673	169,435	84,541
229,611	-0,453	169,429	84,655
230,626	-0,377	169,182	84,567
231,640	-0,576	169,100	84,406
232,655	-0,168	168,918	84,538
233,669	-0,619	168,836	84,235
234,684	-0,384	168,671	84,278
235,699	-0,517	168,625	84,172
236,713	-0,083	168,497	84,346
237,728	-0,216	168,374	84,202
238,742	-0,361	168,378	84,114
239,757	-0,190	168,262	84,145
240,772	-0,533	168,202	83,914
241,786	-0,366	167,931	83,865
242,801	-0,343	167,992	83,901
243,815	-0,323	167,759	83,789
244,830	-0,421	167,688	83,691
245,844	0,007	167,443	83,801
246,859	-0,170	167,396	83,671
247,874	-0,497	167,291	83,428
248,888	-0,135	167,163	83,559
249,903	-0,130	167,181	83,564
250,917	-0,141	166,965	83,442
251,932	-0,270	166,954	83,357
252,947	-0,262	166,907	83,330
253,961	-0,532	166,797	83,117
254,976	-0,100	166,473	83,189
255,990	-0,196	166,394	83,089
257,005	-0,225	166,519	83,128
258,020	-0,194	166,231	82,994
259,034	-0,202	166,086	82,909
260,049	-0,375	166,004	82,766
261,063	-0,088	165,918	82,874
262,078	-0,056	165,729	82,790
263,093	-0,169	165,743	82,727
264,107	-0,095	165,567	82,673
265,122	-0,136	165,456	82,588
266,136	-0,338	165,449	82,465
267,151	-0,107	165,215	82,468
268,166	-0,263	165,123	82,329
269,180	-0,142	165,184	82,419
270,195	0,007	164,917	82,360
271,209	0,191	164,758	82,375
272,224	0,079	164,654	82,254
273,239	-0,052	164,573	82,134
274,253	-0,009	164,508	82,118
275,268	-0,005	164,367	82,042
276,282	-0,157	164,160	81,849
277,297	-0,298	164,166	81,767
278,312	-0,324	164,066	81,695
279,326	0,078	163,908	81,829
280,341	0,058	163,735	81,725
281,355	0,151	163,581	81,692
282,370	-0,050	163,681	81,625
283,384	0,163	163,398	81,592
284,399	0,024	163,356	81,488
285,414	0,304	163,276	81,594
286,428	0,364	163,145	81,553
287,443	-0,048	163,183	81,341
288,457	0,175	162,976	81,352
289,472	0,289	162,959	81,398
290,487	0,146	162,733	81,200
291,501	-0,168	162,559	80,936
292,516	-0,062	162,552	80,982
293,530	-0,147	162,586	80,947
294,545	0,272	162,431	81,089
295,560	0,258	162,254	80,986
296,574	0,184	162,232	80,927
297,589	0,097	161,978	80,747
298,603	0,323	161,883	80,814
299,618	0,054	161,661	80,551
300,633	0,291	161,720	80,701
301,647	0,479	161,499	80,684
302,662	0,062	161,525	80,466
303,676	0,095	161,569	80,499
304,691	0,062	161,417	80,398
305,706	-0,019	161,184	80,231
306,720	0,174	161,065	80,268
307,735	0,311	160,940	80,273
308,749	0,226	160,848	80,174
309,764	0,226	160,837	80,161
310,779	0,214	160,770	80,114
311,793	0,289	160,558	80,042
312,808	-0,170	160,563	79,791
313,822	0,163	160,209	79,786
314,837	0,300	160,206	79,850
315,852	0,220	160,292	79,843
316,866	0,525	159,992	79,850
317,881	0,444	159,900	79,753
318,895	0,309	159,704	79,577
319,910	0,190	159,723	79,515
320,925	0,337	159,566	79,508
321,939	0,209	159,617	79,459
322,954	0,338	159,392	79,408
323,968	0,459	159,270	79,404
324,983	0,320	159,252	79,315
325,997	0,460	159,023	79,267
327,012	0,447	158,942	79,213
328,027	0,213	159,061	79,142
329,041	0,305	158,770	79,039
330,056	0,494	158,662	79,077
331,070	0,188	158,729	78,942
332,085	0,436	158,455	78,929
333,100	0,336	158,348	78,817
334,114	0,562	158,200	78,854
335,129	0,649	157,978	78,783
336,143	0,530	158,001	78,725
337,158	0,589	157,965	78,730
338,173	0,478	157,871	78,618
339,187	0,711	157,742	78,670
340,202	0,539	157,659	78,531
341,216	0,404	157,534	78,391
342,231	0,403	157,574	78,403
343,246	0,621	157,417	78,432
344,260	0,625	157,355	78,396
345,275	0,672	157,285	78,379
346,289	0,772	157,104	78,334
347,304	0,842	156,920	78,271
348,319	0,548	156,825	78,064
349,333	0,733	156,637	78,060
350,348	0,622	156,654	78,003
351,362	0,741	156,586	78,025
352,377	0,762	156,457	77,964
353,392	0,336	156,481	77,749
354,406	0,463	156,357	77,746
355,421	190,535	1323,646	1390,232
356,435	150,431	1466,323	1390,720
