DTS Sentinel unit serial number:	SN410029Multiplexer serial number:	ORYXHardware model number:	OX2-SRSoftware version number:	ORYX F/W v4,00 Oryx Data Collector v3.7.2.0data status	okinstallation	B3 Nyhavnadifferential loss correction	single-endedforward channel	channel 1reverse channel	N/Adate	2023/11/28time	15:07:30forward acquisition time	300,00reverse acquisition time	0,00gamma	499,1914k internal	0,3166k external	0,3166temperature offset calibration	1,0000default loss term (dB/km)	0,3820temperature slope calibration	1,0000multiplexer offset coefficient	1,0000multiplexer slope coefficient	1,0000fibre end	0,00T internal ref (°C)	7,32T ext. ref 1 (°C)	-7,84T ext. ref 2 (°C)	-8,01length (m)	temperature (°C)	Stokes	anti-Stokes-744,400	162,811	-0,255	-0,263
-743,385	800,000	-0,081	0,213
-742,371	286,718	-0,159	-0,212
-741,356	800,000	0,129	0,323
-740,342	36,264	-0,138	-0,089
-739,327	-200,000	-0,023	0,209
-738,312	-200,000	-0,107	-0,394
-737,298	800,000	-0,070	0,182
-736,283	295,821	-0,178	-0,241
-735,269	-200,000	0,064	0,366
-734,254	-200,000	-0,029	-0,225
-733,239	-85,347	-0,250	0,057
-732,225	800,000	-0,117	-0,297
-731,210	-11,186	0,182	0,088
-730,196	-200,000	-0,009	-0,033
-729,181	-76,934	0,032	-0,008
-728,167	125,022	-0,098	0,091
-727,152	-64,044	0,036	-0,011
-726,137	-200,000	0,002	0,087
-725,123	576,888	-0,102	-0,185
-724,108	-200,000	-0,042	-0,193
-723,094	542,193	-0,116	-0,203
-722,079	29,966	-0,072	-0,045
-721,064	-200,000	-0,002	-0,163
-720,050	-200,000	0,016	-0,066
-719,035	-200,000	-0,005	-0,130
-718,021	800,000	-0,050	0,111
-717,006	800,000	0,013	-0,027
-715,991	119,980	-0,103	-0,094
-714,977	431,393	-0,051	0,082
-713,962	800,000	0,044	-0,105
-712,948	20,168	-0,098	0,058
-711,933	-150,648	0,155	0,009
-710,918	-165,752	0,155	-0,005
-709,904	-200,000	0,021	0,101
-708,889	-129,155	-0,174	-0,018
-707,875	578,121	-0,058	-0,105
-706,860	64,731	-0,047	-0,035
-705,845	-200,000	-0,013	-0,050
-704,831	-23,824	0,106	0,046
-703,816	-37,180	-0,096	0,037
-702,802	800,000	-0,020	0,061
-701,787	-200,000	-0,023	-0,131
-700,772	-200,000	-0,001	0,028
-699,758	800,000	-0,016	0,043
-698,743	-165,028	0,227	0,007
-697,729	800,000	0,033	-0,069
-696,714	-200,000	0,022	0,105
-695,699	-87,886	0,145	-0,032
-694,685	97,899	-0,079	-0,067
-693,670	22,019	0,067	-0,040
-692,656	32,778	0,054	0,034
-691,641	23,916	-0,070	0,042
-690,627	-150,291	0,113	0,006
-689,612	-200,000	0,007	0,137
-688,597	53,227	0,080	-0,056
-687,583	214,537	-0,015	-0,017
-686,568	-200,000	0,010	-0,084
-685,554	64,691	-0,060	-0,044
-684,539	-159,490	-0,083	-0,003
-683,524	16,754	0,158	0,091
-682,510	624,466	-0,086	0,160
-681,495	-4,931	-0,095	-0,048
-680,481	209,573	0,001	0,001
-679,466	48,108	-0,157	-0,107
-678,451	675,220	0,041	-0,079
-677,437	-81,545	-0,044	0,010
-676,422	-200,000	0,003	0,120
-675,408	800,000	0,022	0,050
-674,393	800,000	-0,007	0,019
-673,378	-200,000	-0,040	-0,165
-672,364	545,083	0,034	0,060
-671,349	219,674	-0,095	-0,111
-670,335	283,815	0,032	-0,043
-669,320	441,263	0,015	-0,024
-668,305	104,408	0,082	0,070
-667,291	168,538	-0,050	0,052
-666,276	-92,910	-0,131	0,026
-665,262	-21,279	0,088	-0,039
-664,247	69,253	0,095	0,071
-663,232	-200,000	-0,058	-0,222
-662,218	800,000	-0,012	0,036
-661,203	8,624	0,039	0,022
-660,189	-96,653	0,038	0,007
-659,174	-73,193	-0,175	0,047
-658,159	-138,834	-0,074	-0,006
-657,145	17,030	0,093	-0,054
-656,130	-110,503	-0,075	0,011
-655,116	-71,459	0,044	-0,012
-654,101	310,666	-0,051	0,070
-653,086	416,671	0,029	0,046
-652,072	800,000	-0,031	-0,069
-651,057	4,687	-0,073	-0,039
-650,043	-16,532	0,042	0,019
-649,028	28,118	-0,075	-0,047
-648,014	-76,327	0,163	-0,042
-646,999	-173,418	0,105	-0,002
-645,984	-200,000	-0,001	0,044
-644,970	25,965	0,105	-0,064
-643,955	-53,904	-0,049	-0,016
-642,941	65,753	0,025	-0,018
-641,926	3,906	-0,125	0,067
-640,911	-106,053	0,041	-0,007
-639,897	235,145	0,031	0,037
-638,882	220,514	0,073	0,086
-637,868	800,000	-0,017	-0,038
-636,853	167,320	0,119	-0,123
-635,838	-78,343	-0,092	-0,023
-634,824	92,766	0,103	0,085
-633,809	2,294	0,078	-0,041
-632,795	43,582	0,046	0,031
-631,780	471,842	-0,032	0,053
-630,765	-200,000	-0,005	0,022
-629,751	-33,893	-0,028	0,011
-628,736	457,327	-0,122	-0,199
-627,722	800,000	0,076	-0,162
-626,707	800,000	-0,018	-0,038
-625,692	70,608	0,056	0,042
-624,678	393,829	-0,047	0,072
-623,663	-69,175	-0,088	0,025
-622,649	-22,383	-0,094	0,042
-621,634	240,197	-0,149	-0,182
-620,619	-152,193	-0,091	-0,005
-619,605	-27,715	0,100	-0,042
-618,590	-200,000	0,008	0,062
-617,576	-118,471	0,087	-0,011
-616,561	581,035	-0,024	-0,044
-615,546	800,000	-0,037	0,118
-614,532	240,109	-0,106	-0,130
-613,517	-15,699	0,115	0,053
-612,503	-118,367	0,110	0,014
-611,488	205,886	0,045	0,052
-610,474	-200,000	0,007	-0,096
-609,459	772,927	0,019	-0,038
-608,444	-200,000	-0,026	-0,085
-607,430	-69,102	-0,126	-0,035
-606,415	800,000	-0,035	0,113
-605,401	-25,136	-0,157	-0,068
-604,386	-3,413	0,067	-0,034
-603,371	-120,228	0,082	-0,010
-602,357	417,617	0,033	-0,053
-601,342	-200,000	-0,021	-0,101
-600,328	64,068	-0,050	0,036
-599,313	-200,000	-0,024	-0,162
-598,298	-85,999	-0,105	0,024
-597,284	614,953	0,067	-0,123
-596,269	-5,246	0,100	0,050
-595,255	73,674	-0,182	0,139
-594,240	163,009	-0,152	0,156
-593,225	800,000	-0,015	0,039
-592,211	-200,000	0,010	-0,033
-591,196	475,417	0,046	0,077
-590,182	-24,178	-0,042	0,018
-589,167	-139,752	0,111	0,008
-588,152	-103,490	-0,132	-0,022
-587,138	-151,703	-0,110	-0,006
-586,123	-200,000	0,003	-0,076
-585,109	110,201	-0,068	0,060
-584,094	33,469	-0,091	-0,058
-583,079	800,000	0,052	0,131
-582,065	50,410	0,011	-0,008
-581,050	800,000	0,035	0,104
-580,036	-110,305	-0,143	0,021
-579,021	-200,000	0,012	-0,050
-578,006	-200,000	0,007	-0,073
-576,992	29,953	-0,054	0,034
-575,977	301,381	0,075	-0,102
-574,963	-122,875	0,134	-0,016
-573,948	-200,000	-0,009	0,050
-572,934	-196,165	-0,124	-0,001
-571,919	-200,000	0,002	-0,207
-570,904	303,542	-0,065	-0,089
-569,890	-83,923	-0,058	0,013
-568,875	-200,000	0,003	-0,159
-567,861	3,274	-0,064	-0,034
-566,846	-200,000	-0,003	0,041
-565,831	-46,640	-0,113	-0,040
-564,817	800,000	-0,050	-0,140
-563,802	177,602	-0,047	-0,050
-562,788	52,269	0,052	0,036
-561,773	-200,000	0,023	0,084
-560,758	-98,812	0,097	-0,018
-559,744	-100,329	-0,136	0,024
-558,729	-76,261	0,199	-0,051
-557,715	145,267	-0,111	0,108
-556,700	528,927	-0,043	-0,075
-555,685	-200,000	0,002	-0,111
-554,671	100,707	0,103	0,087
-553,656	-61,339	0,006	-0,002
-552,642	-200,000	-0,007	-0,117
-551,627	54,307	0,069	0,049
-550,612	-12,983	-0,093	0,044
-549,598	721,803	-0,070	0,137
-548,583	-7,557	-0,044	-0,022
-547,569	-200,000	-0,001	-0,031
-546,554	19,844	-0,095	-0,055
-545,539	126,563	0,060	-0,055
-544,525	-110,246	0,169	-0,025
-543,510	102,638	-0,066	-0,056
-542,496	-49,940	-0,050	-0,017
-541,481	-101,645	-0,131	0,023
-540,466	-200,000	-0,001	-0,061
-539,452	-200,000	0,023	0,080
-538,437	-57,492	-0,069	0,022
-537,423	-200,000	-0,015	-0,081
-536,408	15,820	-0,084	0,048
-535,393	-61,607	-0,179	-0,055
-534,379	-50,131	-0,207	-0,071
-533,364	58,543	0,124	-0,089
-532,350	-152,290	0,051	0,003
-531,335	-200,000	0,037	0,173
-530,321	-200,000	0,011	0,043
-529,306	-200,000	-0,088	0,000
-528,291	-126,094	0,062	0,007
-527,277	-116,599	-0,150	0,020
-526,262	-78,042	0,010	-0,003
-525,248	194,942	0,061	-0,068
-524,233	72,990	-0,060	-0,046
-523,218	51,717	0,154	0,107
-522,204	-101,289	0,088	-0,016
-521,189	61,184	0,082	-0,060
-520,175	-200,000	-0,012	-0,086
-519,160	-200,000	-0,002	-0,081
-518,145	800,000	0,074	-0,174
-517,131	240,639	0,022	0,027
-516,116	-200,000	0,012	0,044
-515,102	74,681	0,122	0,094
-514,087	-107,811	-0,072	-0,011
-513,072	-200,000	-0,001	0,024
-512,058	-48,366	-0,091	-0,032
-511,043	-200,000	-0,018	-0,155
-510,029	-114,364	-0,040	0,006
-509,014	-67,433	0,093	0,027
-507,999	-200,000	-0,015	0,059
-506,985	-111,730	-0,192	-0,028
-505,970	503,670	0,029	0,049
-504,956	-200,000	0,000	0,039
-503,941	-82,868	0,035	-0,008
-502,926	168,570	-0,044	0,046
-501,912	139,782	0,075	0,072
-500,897	92,579	0,031	-0,026
-499,883	-70,949	-0,096	-0,026
-498,868	-200,000	0,004	-0,159
-497,853	46,000	0,075	0,050
-496,839	-200,000	0,003	-0,141
-495,824	103,686	0,059	0,051
-494,810	130,363	-0,078	0,072
-493,795	-14,094	0,061	0,029
-492,781	-137,031	-0,069	-0,006
-491,766	-118,360	-0,078	-0,010
-490,751	-17,553	-0,015	0,007
-489,737	222,625	0,010	-0,011
-488,722	6,221	0,099	0,053
-487,708	-91,798	-0,116	0,024
-486,693	-158,953	0,151	0,006
-485,678	91,678	0,067	-0,055
-484,664	-151,819	-0,103	-0,005
-483,649	71,966	0,127	-0,096
-482,635	58,221	-0,113	0,081
-481,620	-168,495	-0,041	0,001
-480,605	45,430	0,102	-0,068
-479,591	-7,880	0,037	0,018
-478,576	-158,004	-0,105	0,004
-477,562	-88,951	0,084	-0,018
-476,547	800,000	-0,026	-0,057
-475,532	-48,583	-0,062	0,021
-474,518	-200,000	0,036	0,117
-473,503	41,907	0,036	0,024
-472,489	136,216	-0,089	0,084
-471,474	454,149	-0,092	-0,149
-470,459	-149,846	-0,081	0,005
-469,445	-200,000	0,018	-0,060
-468,430	453,583	-0,098	-0,158
-467,416	800,000	0,028	0,082
-466,401	-108,471	0,154	0,024
-465,386	20,529	0,127	0,074
-464,372	-200,000	0,002	-0,010
-463,357	-200,000	0,003	-0,142
-462,343	18,014	0,076	-0,044
-461,328	-90,171	-0,027	-0,006
-460,313	209,367	0,054	0,062
-459,299	800,000	-0,027	-0,064
-458,284	-138,947	-0,076	0,006
-457,270	110,837	0,052	0,046
-456,255	106,794	-0,029	0,025
-455,241	-100,073	-0,007	-0,001
-454,226	-200,000	0,022	-0,114
-453,211	130,566	-0,110	-0,103
-452,197	37,863	0,110	0,071
-451,182	46,416	0,073	0,049
-450,168	257,716	0,054	0,068
-449,153	251,459	0,061	-0,076
-448,138	332,560	0,085	0,120
-447,124	714,127	0,041	-0,079
-446,109	-114,670	-0,089	0,012
-445,095	-200,000	-0,016	0,073
-444,080	348,645	-0,096	0,138
-443,065	800,000	-0,062	0,150
-442,051	-114,869	0,165	0,023
-441,036	524,487	-0,046	0,079
-440,022	360,412	-0,042	0,061
-439,007	151,818	-0,021	0,020
-437,992	-105,570	0,194	0,032
-436,978	570,676	0,086	0,153
-435,963	-129,030	0,084	0,008
-434,949	493,539	-0,094	-0,157
-433,934	489,749	0,041	-0,068
-432,919	2,650	-0,136	0,071
-431,905	-137,502	-0,043	0,003
-430,890	-94,048	0,146	-0,029
-429,876	46,777	0,032	0,022
-428,861	-64,903	0,215	0,063
-427,846	314,925	-0,026	-0,036
-426,832	289,708	-0,061	-0,081
-425,817	-180,258	-0,086	0,001
-424,803	-200,000	0,004	-0,063
-423,788	-40,176	-0,059	0,022
-422,773	173,649	0,096	0,100
-421,759	800,000	0,065	0,162
-420,744	43,647	-0,083	0,055
-419,730	583,566	0,041	-0,073
-418,715	-4,343	-0,033	-0,016
-417,701	-112,283	0,124	-0,018
-416,686	-200,000	0,011	-0,054
-415,671	-44,552	-0,081	-0,029
-414,657	-200,000	0,026	0,169
-413,642	-131,085	-0,103	0,010
-412,628	-198,540	-0,009	0,000
-411,613	-10,538	0,009	0,004
-410,598	800,000	0,042	0,100
-409,584	3,955	-0,046	-0,024
-408,569	10,222	-0,017	0,009
-407,555	-11,861	-0,036	0,017
-406,540	354,695	-0,079	-0,114
-405,525	-74,547	-0,125	-0,032
-404,511	166,291	0,058	0,059
-403,496	-49,829	-0,110	-0,038
-402,482	-200,000	-0,021	0,211
-401,467	344,248	0,084	0,119
-400,452	800,000	0,026	0,083
-399,438	-200,000	0,000	-0,019
-398,423	-153,006	-0,078	0,004
-397,409	-98,947	-0,160	0,029
-396,394	-200,000	-0,015	-0,126
-395,379	-12,987	0,118	0,056
-394,365	289,033	-0,026	0,034
-393,350	-200,000	-0,009	0,091
-392,336	-200,000	-0,015	-0,111
-391,321	305,335	-0,126	0,170
-390,306	508,502	-0,027	-0,045
-389,292	168,120	0,042	-0,044
-388,277	271,226	0,040	-0,051
-387,263	-35,854	-0,070	0,027
-386,248	800,000	0,041	0,093
-385,233	185,763	0,023	0,025
-384,219	-17,002	0,057	-0,026
-383,204	-147,893	-0,184	-0,011
-382,190	-166,328	0,034	0,001
-381,175	-16,069	0,067	-0,031
-380,160	26,236	0,093	0,056
-379,146	110,488	0,054	-0,047
-378,131	-200,000	-0,004	0,154
-377,117	215,474	0,147	0,169
-376,102	-53,240	-0,081	0,027
-375,088	12,845	-0,066	-0,037
-374,073	54,355	0,050	-0,035
-373,058	316,758	-0,060	-0,082
-372,044	353,682	0,039	0,056
-371,029	-154,779	0,080	0,004
-370,015	256,852	0,028	0,034
-369,000	-163,900	-0,036	-0,001
-367,985	-200,000	-0,009	0,095
-366,971	260,973	0,062	-0,078
-365,956	130,361	-0,043	0,040
-364,942	800,000	0,013	0,031
-363,927	-45,577	-0,034	-0,012
-362,912	356,219	0,020	-0,028
-361,898	-200,000	0,015	0,064
-360,883	-46,291	0,037	-0,013
-359,869	-200,000	0,015	-0,049
-358,854	-111,567	0,027	0,004
-357,839	-200,000	-0,014	-0,149
-356,825	-20,099	-0,101	-0,045
-355,810	57,440	0,112	-0,079
-354,796	404,138	-0,075	-0,114
-353,781	-200,000	-0,016	-0,147
-352,766	41,098	-0,098	-0,064
-351,752	167,244	-0,054	-0,056
-350,737	-67,518	0,057	0,016
-349,723	800,000	-0,089	0,280
-348,708	156,848	0,061	0,061
-347,693	-86,638	-0,106	-0,023
-346,679	262,592	0,053	-0,067
-345,664	-52,573	-0,135	0,045
-344,650	114,642	0,189	-0,167
-343,635	-200,000	-0,025	0,090
-342,620	800,000	-0,012	0,030
-341,606	1,563	0,086	0,045
-340,591	-200,000	-0,021	0,141
-339,577	109,124	0,051	-0,044
-338,562	566,302	0,101	-0,179
-337,548	800,000	0,063	-0,175
-336,533	99,445	0,058	0,048
-335,518	300,660	-0,013	0,017
-334,504	-144,294	0,106	0,007
-333,489	-55,509	-0,135	0,043
-332,475	-200,000	0,064	-0,207
-331,460	-200,000	-0,002	-0,008
-330,445	480,408	-0,033	-0,054
-329,431	-41,705	-0,096	-0,036
-328,416	42,652	0,031	-0,020
-327,402	-119,702	0,085	-0,010
-326,387	82,324	-0,100	-0,078
-325,372	44,387	-0,112	-0,074
-324,358	800,000	0,022	-0,043
-323,343	474,299	0,055	-0,089
-322,329	800,000	0,051	-0,118
-321,314	214,135	0,079	0,091
-320,299	800,000	-0,013	0,033
-319,285	-200,000	0,028	0,120
-318,270	-200,000	-0,013	0,137
-317,256	132,661	-0,018	-0,017
-316,241	37,185	-0,111	0,071
-315,226	-138,597	-0,113	-0,009
-314,212	800,000	0,065	0,133
-313,197	-200,000	0,012	0,185
-312,183	-200,000	-0,027	-0,200
-311,168	-29,455	0,007	0,003
-310,153	-122,554	0,099	0,012
-309,139	-72,493	-0,096	0,026
-308,124	-91,619	0,049	0,010
-307,110	11,062	0,054	0,030
-306,095	-125,309	-0,143	-0,016
-305,080	-117,369	-0,094	0,012
-304,066	800,000	-0,033	-0,083
-303,051	157,926	-0,119	-0,119
-302,037	31,421	-0,114	0,071
-301,022	695,143	0,044	0,084
-300,008	632,350	0,025	-0,046
-298,993	800,000	0,039	0,116
-297,978	-200,000	0,013	0,188
-296,964	146,254	-0,078	-0,076
-295,949	-173,667	-0,091	0,002
-294,935	38,540	-0,137	-0,088
-293,920	277,572	0,087	0,112
-292,905	-200,000	-0,030	0,120
-291,891	47,899	0,149	0,100
-290,876	65,878	-0,102	0,075
-289,862	800,000	-0,059	-0,171
-288,847	-1,667	0,088	0,045
-287,832	-200,000	-0,000	0,093
-286,818	800,000	0,014	0,042
-285,803	201,182	0,101	0,112
-284,789	-124,708	-0,074	0,008
-283,774	37,896	0,129	-0,082
-282,759	28,879	-0,087	-0,053
-281,745	-200,000	-0,018	0,128
-280,730	120,172	0,035	0,031
-279,716	-94,195	-0,181	-0,036
-278,701	800,000	-0,017	0,048
-277,686	36,565	-0,063	0,040
-276,672	-57,769	-0,043	-0,013
-275,657	-159,517	-0,047	-0,002
-274,643	800,000	0,035	0,106
-273,628	800,000	0,027	-0,061
-272,613	-28,228	0,068	0,028
-271,599	88,307	-0,027	-0,022
-270,584	800,000	0,070	-0,155
-269,570	116,592	0,060	0,053
-268,555	205,255	0,078	0,087
-267,540	35,663	-0,044	0,028
-266,526	216,359	-0,027	-0,031
-265,511	-10,647	-0,020	0,010
-264,497	800,000	0,017	-0,036
-263,482	115,258	0,075	0,066
-262,467	180,283	0,106	0,112
-261,453	-200,000	-0,007	0,023
-260,438	76,010	0,038	-0,029
-259,424	-8,508	-0,036	0,017
-258,409	89,685	-0,092	0,074
-257,395	300,248	0,077	0,103
-256,380	71,867	0,036	0,027
-255,365	56,115	0,137	-0,095
-254,351	800,000	-0,020	0,040
-253,336	-119,360	-0,078	-0,010
-252,322	366,630	-0,064	-0,093
-251,307	800,000	0,015	0,035
-250,292	401,264	0,027	-0,040
-249,278	-106,587	0,146	0,023
-248,263	-47,976	0,042	0,015
-247,249	800,000	0,043	0,117
-246,234	-72,247	-0,170	-0,045
-245,219	-27,872	-0,053	0,022
-244,205	83,135	-0,053	-0,042
-243,190	-11,163	-0,007	-0,003
-242,176	380,130	0,045	0,066
-241,161	-116,782	0,079	0,010
-240,146	530,885	-0,033	0,057
-239,132	-54,335	-0,107	0,035
-238,117	83,020	-0,117	-0,091
-237,103	-200,000	-0,005	0,064
-236,088	73,406	0,055	-0,042
-235,073	632,169	0,028	0,051
-234,059	-163,868	0,145	0,005
-233,044	-96,930	0,085	0,016
-232,030	218,104	0,030	-0,035
-231,015	-200,000	0,000	-0,076
-230,000	800,000	-0,033	0,097
-228,986	-80,383	0,016	-0,004
-227,971	9,065	0,135	0,073
-226,957	800,000	-0,005	0,013
-225,942	121,767	0,106	0,096
-224,927	138,351	0,032	-0,030
-223,913	332,752	-0,045	-0,063
-222,898	-49,592	-0,096	-0,033
-221,884	165,038	0,067	0,069
-220,869	-200,000	-0,005	0,055
-219,855	-200,000	-0,011	-0,048
-218,840	-200,000	0,000	-0,011
-217,825	-81,434	-0,039	-0,009
-216,811	35,266	0,113	-0,071
-215,796	800,000	0,025	-0,072
-214,782	-200,000	-0,003	0,061
-213,767	22,792	0,110	-0,065
-212,752	-70,593	0,091	0,025
-211,738	800,000	0,039	-0,117
-210,723	32,210	-0,077	0,048
-209,709	59,837	0,042	0,030
-208,694	-200,000	0,024	-0,088
-207,679	-200,000	-0,008	-0,067
-206,665	7,383	0,069	0,037
-205,650	132,024	0,113	-0,105
-204,636	50,481	0,072	0,049
-203,621	-40,824	0,072	-0,027
-202,606	800,000	0,035	-0,111
-201,592	800,000	0,036	-0,084
-200,577	296,830	-0,034	-0,046
-199,563	-200,000	0,011	-0,067
-198,548	-106,484	0,078	-0,012
-197,533	-50,181	-0,087	-0,029
-196,519	169,172	-0,036	-0,037
-195,504	14,804	-0,039	-0,022
-194,490	22,098	-0,142	-0,083
-193,475	8,897	-0,105	0,057
-192,460	-200,000	0,001	0,103
-191,446	-125,179	0,107	0,012
-190,431	53,373	0,082	-0,056
-189,417	260,909	0,120	0,150
-188,402	-192,911	0,117	0,001
-187,387	796,029	-0,044	-0,088
-186,373	-200,000	-0,020	-0,124
-185,358	-200,000	0,007	-0,136
-184,344	-200,000	0,023	0,153
-183,329	-200,000	-0,000	-0,025
-182,315	298,031	0,073	-0,097
-181,300	-28,543	-0,110	0,046
-180,285	-54,965	-0,092	0,030
-179,271	-200,000	-0,004	-0,146
-178,256	229,520	0,015	0,018
-177,242	-200,000	0,004	0,014
-176,227	248,026	0,083	0,102
-175,212	84,891	0,113	0,089
-174,198	12,286	0,038	0,021
-173,183	175,617	-0,033	0,034
-172,169	-49,663	-0,119	-0,041
-171,154	-200,000	0,002	0,034
-170,139	-200,000	0,002	0,050
-169,125	109,139	-0,069	-0,059
-168,110	299,523	-0,019	-0,026
-167,096	-200,000	0,015	0,067
-166,081	-200,000	-0,008	-0,055
-165,066	37,345	-0,012	0,007
-164,052	-200,000	0,046	-0,000
-163,037	-108,279	0,137	0,021
-162,023	-28,263	-0,048	0,020
-161,008	62,678	-0,125	0,089
-159,993	-44,219	-0,048	-0,017
-158,979	-200,000	-0,005	-0,031
-157,964	-200,000	0,007	-0,102
-156,950	285,903	0,074	0,096
-155,935	398,519	0,023	-0,035
-154,920	800,000	0,040	0,128
-153,906	304,947	0,112	0,150
-152,891	311,644	-0,063	-0,085
-151,877	198,841	0,076	0,084
-150,862	-183,545	-0,167	-0,002
-149,847	-142,111	0,069	-0,005
-148,833	436,376	0,025	-0,039
-147,818	298,494	0,049	0,065
-146,804	-200,000	0,007	-0,056
-145,789	-200,000	-0,020	0,189
-144,775	-200,000	-0,010	0,038
-143,760	-82,139	0,075	0,017
-142,745	-140,339	0,030	0,002
-141,731	93,695	0,064	-0,052
-140,716	-20,412	0,040	0,018
-139,702	576,898	0,046	0,081
-138,687	90,288	0,101	-0,081
-137,672	-67,724	0,057	-0,016
-136,658	800,000	0,035	-0,072
-135,643	517,255	-0,041	-0,070
-134,629	-48,915	-0,102	-0,035
-133,614	800,000	0,036	-0,079
-132,599	158,121	0,018	0,018
-131,585	-200,000	-0,007	0,102
-130,570	-81,444	-0,150	-0,035
-129,556	182,161	0,005	0,005
-128,541	-124,669	-0,098	0,011
-127,526	800,000	0,027	-0,087
-126,512	-200,000	-0,032	-0,104
-125,497	437,142	0,049	0,076
-124,483	33,326	0,129	0,080
-123,468	85,927	-0,252	0,199
-122,453	-108,238	0,036	-0,005
-121,439	521,364	0,046	-0,079
-120,424	800,000	-0,021	0,061
-119,410	22,211	0,078	-0,046
-118,395	490,034	0,007	-0,012
-117,380	800,000	0,018	-0,046
-116,366	-200,000	-0,006	-0,047
-115,351	446,762	-0,049	0,078
-114,337	-200,000	-0,005	-0,079
-113,322	146,720	-0,082	-0,079
-112,307	800,000	-0,015	-0,034
-111,293	-200,000	-0,027	0,099
-110,278	107,475	0,062	0,053
-109,264	-200,000	0,016	-0,147
-108,249	-152,889	-0,121	-0,006
-107,234	543,782	0,038	0,065
-106,220	-137,853	-0,128	-0,010
-105,205	800,000	-0,035	-0,092
-104,191	84,491	0,098	0,077
-103,176	-200,000	0,008	0,097
-102,162	800,000	0,054	0,109
-101,147	37,462	-0,026	-0,017
-100,132	-118,999	0,006	0,001
-99,118	-28,814	0,119	-0,049
-98,103	800,000	-0,063	0,168
-97,089	-200,000	0,002	-0,046
-96,074	-200,000	0,004	0,101
-95,059	-200,000	-0,006	0,343
-94,045	-6,764	-0,029	-0,014
-93,030	-200,000	-0,001	-0,025
-92,016	800,000	-0,038	-0,113
-91,001	-200,000	-0,013	-0,071
-89,986	-73,740	0,066	-0,017
-88,972	-109,618	-0,035	0,005
-87,957	-0,588	0,105	-0,053
-86,943	-200,000	-0,000	-0,023
-85,928	-200,000	0,001	-0,067
-84,913	179,463	0,024	-0,025
-83,899	-143,287	0,162	0,011
-82,884	-141,792	0,118	-0,008
-81,870	136,859	0,034	-0,032
-80,855	-62,357	0,203	0,060
-79,840	411,690	-0,040	-0,061
-78,826	-200,000	0,010	-0,065
-77,811	-200,000	-0,004	-0,101
-76,797	800,000	0,044	-0,134
-75,782	0,343	0,156	-0,080
-74,767	394,874	-0,024	0,036
-73,753	-130,849	-0,052	-0,005
-72,738	202,716	0,120	-0,133
-71,724	-147,951	-0,110	-0,006
-70,709	800,000	-0,045	-0,092
-69,694	-24,747	-0,075	0,032
-68,680	399,616	-0,021	0,031
-67,665	-200,000	-0,040	0,238
-66,651	-82,515	0,120	-0,028
-65,636	319,709	-0,012	0,017
-64,622	-69,477	-0,187	-0,051
-63,607	-200,000	-0,026	0,162
-62,592	800,000	-0,048	-0,096
-61,578	131,242	-0,021	0,019
-60,563	-200,000	0,014	0,053
-59,549	-200,000	-0,018	0,177
-58,534	72,058	-2,271	-1,690
-57,519	745,753	-1,002	-1,940
-56,505	-200,000	-0,272	-4,319
-55,490	731,618	0,928	1,785
-54,476	800,000	5,276	11,471
-53,461	-200,000	22,865	349,577
-52,446	800,000	757,977	2279,536
-51,432	506,795	1636,947	2727,421
-50,417	68,041	1548,060	1132,507
-49,403	20,489	1064,782	614,608
-48,388	11,436	746,598	408,247
-47,373	31,103	709,253	434,371
-46,359	18,417	694,152	395,816
-45,344	7,418	690,209	368,004
-44,330	7,185	688,572	366,576
-43,315	7,212	687,070	365,824
-42,300	7,184	686,140	365,249
-41,286	7,169	685,177	364,688
-40,271	7,215	684,262	364,292
-39,257	7,179	683,770	363,933
-38,242	7,409	682,506	363,777
-37,227	7,378	681,663	363,242
-36,213	7,226	681,377	362,724
-35,198	7,259	680,416	362,273
-34,184	7,355	680,011	362,265
-33,169	7,245	679,162	361,544
-32,154	7,304	678,713	361,428
-31,140	7,410	677,447	360,982
-30,125	7,447	676,780	360,695
-29,111	7,352	676,287	360,203
-28,096	7,335	676,082	360,040
-27,082	7,352	675,164	359,576
-26,067	7,407	674,689	359,434
-25,052	7,225	674,332	358,814
-24,038	7,318	673,921	358,794
-23,023	7,312	673,125	358,342
-22,009	7,442	672,607	358,347
-20,994	7,423	671,914	357,921
-19,979	7,405	671,546	357,670
-18,965	7,379	671,100	357,358
-17,950	7,433	670,955	357,389
-16,936	7,344	670,169	356,756
-15,921	7,335	669,771	356,508
-14,906	7,254	669,006	355,905
-13,892	7,276	668,447	355,644
-12,877	7,228	668,046	355,308
-11,863	7,244	667,851	355,225
-10,848	7,162	667,475	354,827
-9,833	7,283	667,043	354,856
-8,819	7,374	666,063	354,525
-7,804	7,423	665,651	354,401
-6,790	7,283	665,344	353,909
-5,775	7,390	664,920	353,911
-4,760	7,324	664,548	353,550
-3,746	7,247	664,311	353,237
-2,731	7,092	663,725	352,565
-1,717	7,020	663,604	352,325
-0,702	6,995	663,042	351,956
0,313	7,337	658,109	350,628
1,327	11,311	626,896	342,375
2,342	19,530	498,165	285,787
3,356	13,342	273,637	151,288
4,371	-15,470	185,344	84,325
5,386	-18,579	174,556	77,554
6,400	-18,443	171,182	76,127
7,415	-17,606	169,571	75,890
8,429	-18,538	168,665	74,940
9,444	-18,342	167,807	74,665
10,459	-18,527	167,520	74,424
11,473	-18,811	167,253	74,136
12,488	-18,238	166,763	74,239
13,502	-18,701	166,395	73,805
14,517	-18,589	166,189	73,771
15,531	-18,704	165,869	73,557
16,546	-18,691	165,556	73,419
17,561	-18,814	165,342	73,248
18,575	-18,506	165,106	73,311
19,590	-18,882	164,754	72,937
20,604	-18,701	164,710	73,013
21,619	-18,655	164,339	72,867
22,634	-18,672	164,079	72,736
23,648	-18,441	163,961	72,807
24,663	-18,672	163,723	72,566
25,677	-18,633	163,558	72,507
26,692	-18,587	163,317	72,420
27,707	-18,837	163,323	72,277
28,721	-18,968	162,993	72,051
29,736	-18,682	162,914	72,169
30,750	-18,605	162,623	72,076
31,765	-18,539	162,538	72,069
32,780	-18,460	162,257	71,982
33,794	-18,585	162,270	71,912
34,809	-18,581	162,110	71,837
35,823	-18,492	161,704	71,699
36,838	-18,719	161,771	71,597
37,853	-18,637	161,425	71,483
38,867	-18,677	161,369	71,430
39,882	-18,727	161,243	71,340
40,896	-18,593	161,140	71,362
41,911	-18,687	161,005	71,245
42,926	-18,651	160,605	71,081
43,940	-18,746	160,593	71,017
44,955	-18,888	160,373	70,836
45,969	-18,681	160,253	70,890
46,984	-18,776	160,176	70,798
47,999	-18,582	159,986	70,813
49,013	-18,385	159,721	70,796
50,028	-18,443	159,783	70,786
51,042	-18,750	159,570	70,518
52,057	-18,761	159,437	70,447
53,071	-18,322	159,082	70,522
54,086	-18,333	159,149	70,540
55,101	-18,752	159,019	70,248
56,115	-18,583	158,872	70,269
57,130	-18,436	158,597	70,221
58,144	-18,412	158,417	70,148
59,159	-18,549	158,230	69,985
60,174	-18,632	158,178	69,911
61,188	-18,594	158,091	69,887
62,203	-18,560	157,974	69,847
63,217	-18,694	157,854	69,715
64,232	-18,471	157,549	69,694
65,247	-18,504	157,375	69,594
66,261	-18,651	157,289	69,471
67,276	-18,556	157,128	69,444
68,290	-18,563	157,100	69,422
69,305	-18,495	156,916	69,370
70,320	-18,620	156,821	69,255
71,334	-18,503	156,671	69,246
72,349	-18,506	156,510	69,166
73,363	-18,341	156,234	69,126
74,378	-18,880	156,273	68,850
75,393	-18,468	156,021	68,952
76,407	-18,603	155,923	68,831
77,422	-18,480	155,766	68,821
78,436	-18,680	155,783	68,716
79,451	-18,888	155,560	68,502
80,466	-18,526	155,282	68,564
81,480	-18,631	155,090	68,418
82,495	-18,534	155,173	68,500
83,509	-18,570	155,016	68,405
84,524	-18,452	154,950	68,432
85,539	-18,241	154,584	68,375
86,553	-18,717	154,676	68,160
87,568	-18,680	154,566	68,125
88,582	-18,618	154,380	68,069
89,597	-18,499	154,194	68,044
90,611	-18,450	154,249	68,087
91,626	-18,499	153,983	67,938
92,641	-18,543	153,861	67,855
93,655	-18,471	153,746	67,836
94,670	-18,354	153,583	67,819
95,684	-18,369	153,517	67,776
96,699	-18,553	153,417	67,630
97,714	-18,513	153,243	67,568
98,728	-18,659	153,026	67,391
99,743	-18,555	153,101	67,472
100,757	-18,631	152,959	67,363
101,772	-18,585	152,733	67,282
102,787	-18,262	152,493	67,337
103,801	-18,270	152,277	67,232
104,816	-18,576	152,415	67,128
105,830	-18,607	152,331	67,069
106,845	-18,557	152,075	66,976
107,860	-18,512	151,854	66,896
108,874	-18,322	151,829	66,977
109,889	-18,589	151,726	66,788
110,903	-18,629	151,749	66,772
111,918	-18,702	151,457	66,600
112,933	-18,238	151,336	66,779
113,947	-18,470	151,268	66,624
114,962	-18,157	151,096	66,703
115,976	-18,426	151,030	66,530
116,991	-18,703	150,879	66,316
118,006	-18,180	150,480	66,401
119,020	-18,582	150,773	66,320
120,035	-18,530	150,570	66,251
121,049	-18,289	150,369	66,279
122,064	-18,577	150,343	66,115
123,079	-18,362	150,213	66,161
124,093	-18,714	150,199	65,970
125,108	-18,302	149,952	66,065
126,122	-18,381	149,805	65,954
127,137	-18,714	149,821	65,786
128,151	-18,299	149,530	65,863
129,166	-18,489	149,621	65,801
130,181	-18,530	149,278	65,624
131,195	-18,354	149,143	65,648
132,210	-18,041	148,950	65,714
133,224	-18,069	148,969	65,703
134,239	-18,180	148,823	65,577
135,254	-18,491	148,625	65,327
136,268	-18,250	148,436	65,359
137,283	-18,371	148,426	65,288
138,297	-18,126	148,266	65,335
139,312	-18,461	148,086	65,082
140,327	-18,998	148,149	64,835
141,341	-18,865	147,996	64,828
142,356	-18,388	147,749	64,953
143,370	-17,324	148,007	65,593
144,385	-11,207	149,285	69,238
145,400	-4,751	150,516	73,076
146,414	-2,318	150,875	74,478
147,429	-2,248	150,951	74,545
148,443	-1,840	150,761	74,650
149,458	-1,723	150,577	74,612
150,473	-1,551	150,747	74,777
151,487	-1,362	150,538	74,762
152,502	-1,467	150,377	74,622
153,516	-1,331	150,247	74,619
154,531	-1,106	150,100	74,653
155,546	-1,073	150,031	74,629
156,560	-1,222	150,047	74,555
157,575	-1,276	149,939	74,468
158,589	-1,261	149,894	74,446
159,604	-0,953	149,547	74,422
160,619	-1,514	149,740	74,230
161,633	-1,329	149,556	74,224
162,648	-1,141	149,469	74,269
163,662	-1,023	149,361	74,268
164,677	-1,081	149,263	74,183
165,692	-1,242	149,259	74,094
166,706	-1,057	149,061	74,081
167,721	-1,017	149,051	74,090
168,735	-0,782	148,739	74,045
169,750	-0,781	148,802	74,070
170,764	-0,812	148,673	73,984
171,779	-0,736	148,531	73,945
172,794	-0,891	148,404	73,798
173,808	-0,858	148,330	73,771
174,823	-0,774	148,076	73,680
175,837	-1,025	148,221	73,621
176,852	-0,867	147,923	73,545
177,867	-0,826	147,927	73,561
178,881	-0,751	147,843	73,549
179,896	-0,969	147,807	73,417
180,910	-1,061	147,608	73,266
181,925	-0,486	147,452	73,465
182,940	-0,973	147,396	73,191
183,954	-1,010	147,307	73,122
184,969	-0,861	147,203	73,137
185,983	-0,663	147,103	73,178
186,998	-0,705	146,933	73,067
188,013	-0,978	146,893	72,906
189,027	-0,875	146,797	72,903
190,042	-0,690	146,667	72,922
191,056	-0,683	146,644	72,908
192,071	-0,652	146,560	72,875
193,086	-0,507	146,455	72,887
194,100	-0,872	146,411	72,680
195,115	-0,428	146,161	72,767
196,129	-0,836	146,126	72,543
197,144	-0,906	146,041	72,460
198,159	-0,687	145,718	72,400
199,173	-1,047	145,802	72,260
200,188	-0,955	145,898	72,346
201,202	-0,730	145,526	72,265
202,217	-0,404	145,403	72,356
203,232	-0,340	145,298	72,328
204,246	-0,441	145,099	72,173
205,261	-0,733	145,154	72,053
206,275	-0,820	145,035	71,945
207,290	-0,595	144,926	71,993
208,304	-0,299	144,811	72,073
209,319	-0,615	144,691	71,854
210,334	-0,880	144,656	71,703
211,348	-0,755	144,427	71,643
212,363	-0,323	144,406	71,834
213,377	-0,486	144,380	71,736
214,392	-0,473	144,299	71,696
215,407	-0,590	144,086	71,528
216,421	-0,224	144,121	71,714
217,436	-0,448	143,959	71,520
218,450	-0,650	143,854	71,364
219,465	-0,280	143,614	71,417
220,480	-0,509	143,742	71,363
221,494	-0,568	143,503	71,210
222,509	-0,353	143,442	71,277
223,523	-0,750	143,441	71,080
224,538	-0,046	143,168	71,274
225,553	-0,437	143,021	71,008
226,567	-0,455	143,015	70,990
227,582	-0,409	143,020	71,009
228,596	-0,311	142,787	70,933
229,611	-0,682	142,838	70,776
230,626	-0,535	142,822	70,832
231,640	-0,468	142,526	70,710
232,655	-0,378	142,431	70,699
233,669	-0,323	142,350	70,679
234,684	-0,418	142,336	70,621
235,699	-0,827	142,168	70,338
236,713	0,029	142,002	70,654
237,728	-0,178	142,040	70,568
238,742	-0,072	141,821	70,503
239,757	-0,547	141,891	70,308
240,772	-0,125	141,724	70,417
241,786	-0,124	141,734	70,417
242,801	-0,470	141,555	70,158
243,815	-0,264	141,523	70,234
244,830	-0,370	141,517	70,174
245,844	-0,065	141,191	70,150
246,859	0,078	141,121	70,176
247,874	-0,199	140,904	69,932
248,888	-0,036	140,968	70,034
249,903	-0,248	140,950	69,919
250,917	-0,280	140,968	69,907
251,932	-0,108	140,745	69,871
252,947	0,073	140,651	69,902
253,961	-0,013	140,448	69,755
254,976	-0,415	140,537	69,605
255,990	-0,503	140,335	69,458
257,005	0,199	140,209	69,716
258,020	0,379	140,200	69,789
259,034	-0,286	140,159	69,453
260,049	-0,323	140,068	69,385
261,063	0,272	139,851	69,547
262,078	-0,082	139,799	69,351
263,093	-0,142	139,746	69,291
264,107	-0,114	139,646	69,248
265,122	0,033	139,660	69,317
266,136	0,342	139,381	69,315
267,151	0,303	139,296	69,248
268,166	-0,039	139,285	69,079
269,180	0,370	139,056	69,148
270,195	-0,066	139,052	68,939
271,209	0,044	138,954	68,934
272,224	-0,021	138,930	68,886
273,239	0,352	138,798	68,986
274,253	0,046	138,663	68,773
275,268	-0,168	138,598	68,636
276,282	0,188	138,418	68,704
277,297	-0,071	138,473	68,606
278,312	-0,218	138,313	68,453
279,326	-0,007	138,303	68,539
280,341	-0,075	138,170	68,436
281,355	0,206	138,190	68,568
282,370	0,062	137,963	68,384
283,384	0,236	137,912	68,432
284,399	0,317	137,793	68,403
285,414	0,232	137,670	68,298
286,428	0,206	137,563	68,227
287,443	0,103	137,618	68,201
288,457	0,376	137,386	68,205
289,472	0,210	137,314	68,087
290,487	0,156	137,246	68,023
291,501	0,440	137,194	68,120
292,516	-0,195	137,148	67,803
293,530	0,301	136,994	67,946
294,545	0,498	136,854	67,959
295,560	0,314	136,884	67,885
296,574	0,521	136,634	67,848
297,589	0,019	136,733	67,664
298,603	-0,156	136,555	67,491
299,618	0,295	136,334	67,579
300,633	0,197	136,342	67,533
301,647	0,126	136,443	67,545
302,662	0,635	136,114	67,605
303,676	0,243	136,276	67,503
304,691	0,393	136,017	67,436
305,706	0,371	135,889	67,357
306,720	0,387	135,825	67,326
307,735	0,355	135,663	67,225
308,749	0,625	135,710	67,364
309,764	0,387	135,552	67,173
310,779	0,425	135,464	67,140
311,793	0,539	135,335	67,122
312,808	0,406	135,274	67,025
313,822	0,268	135,400	67,020
314,837	0,635	135,122	67,041
315,852	0,594	135,074	66,993
316,866	0,507	134,961	66,892
317,881	0,384	135,065	66,883
318,895	0,215	134,889	66,714
319,910	0,548	134,677	66,751
320,925	0,263	134,525	66,544
321,939	0,093	134,576	66,487
322,954	0,485	134,546	66,641
323,968	0,399	134,502	66,575
324,983	0,439	134,214	66,444
325,997	0,550	134,110	66,435
327,012	0,072	134,127	66,226
328,027	0,323	133,919	66,228
329,041	0,404	133,891	66,245
330,056	0,548	133,794	66,254
331,070	0,602	133,636	66,194
332,085	0,531	133,713	66,195
333,100	0,854	133,451	66,202
334,114	0,941	133,361	66,189
335,129	0,623	133,331	66,029
336,143	0,592	133,266	65,977
337,158	0,557	133,218	65,932
338,173	0,532	133,154	65,883
339,187	0,657	133,002	65,857
340,202	0,811	132,992	65,914
341,216	0,654	132,850	65,769
342,231	0,668	132,736	65,713
343,246	0,702	132,676	65,692
344,260	0,579	132,638	65,613
345,275	0,363	132,615	65,502
346,289	0,656	132,513	65,574
347,304	0,424	132,340	65,381
348,319	0,761	132,266	65,486
349,333	0,622	132,148	65,361
350,348	0,493	132,143	65,296
351,362	0,798	132,108	65,406
352,377	0,983	131,921	65,388
353,392	0,939	131,947	65,376
354,406	0,678	131,802	65,185
355,421	195,729	1319,279	1392,756
356,435	154,027	1464,399	1393,225
