DTS Sentinel unit serial number:	SN410029Multiplexer serial number:	ORYXHardware model number:	OX2-SRSoftware version number:	ORYX F/W v4,00 Oryx Data Collector v3.7.2.0data status	okinstallation	B3 Nyhavnadifferential loss correction	single-endedforward channel	channel 1reverse channel	N/Adate	2023/11/28time	13:47:30forward acquisition time	300,00reverse acquisition time	0,00gamma	499,1914k internal	0,3138k external	0,3138temperature offset calibration	1,0000default loss term (dB/km)	0,3820temperature slope calibration	1,0000multiplexer offset coefficient	1,0000multiplexer slope coefficient	1,0000fibre end	0,00T internal ref (°C)	7,70T ext. ref 1 (°C)	-7,59T ext. ref 2 (°C)	-7,76length (m)	temperature (°C)	Stokes	anti-Stokes-744,400	272,268	-0,272	-0,356
-743,385	482,488	-0,129	0,218
-742,371	541,079	-0,138	-0,245
-741,356	-200,000	0,055	0,296
-740,342	323,777	-0,193	-0,274
-739,327	800,000	0,073	0,210
-738,312	261,744	-0,347	-0,447
-737,298	-200,000	-0,029	0,214
-736,283	244,017	-0,221	-0,275
-735,269	-200,000	0,044	0,314
-734,254	230,683	-0,227	-0,276
-733,239	-115,017	-0,159	-0,022
-732,225	313,423	-0,152	-0,212
-731,210	188,611	0,100	0,112
-730,196	724,330	-0,035	-0,070
-729,181	-155,645	-0,040	-0,002
-728,167	298,365	-0,063	-0,087
-727,152	-25,003	-0,085	0,037
-726,137	-200,000	-0,016	-0,087
-725,123	-0,544	-0,144	-0,076
-724,108	-200,000	-0,013	-0,080
-723,094	323,432	-0,079	-0,112
-722,079	98,962	-0,082	-0,070
-721,064	44,685	0,067	0,046
-720,050	110,376	-0,061	-0,054
-719,035	-24,925	-0,044	-0,019
-718,021	-200,000	0,014	0,091
-717,006	44,259	-0,128	-0,087
-715,991	57,924	-0,135	-0,098
-714,977	772,198	0,029	-0,060
-713,962	23,053	-0,030	0,018
-712,948	-35,296	0,029	-0,012
-711,933	232,261	-0,101	0,123
-710,918	234,059	-0,085	-0,104
-709,904	-93,336	-0,005	0,001
-708,889	-200,000	-0,040	-0,199
-707,875	-200,000	0,089	0,000
-706,860	800,000	0,032	-0,068
-705,845	800,000	-0,099	0,207
-704,831	-121,518	0,098	0,012
-703,816	-200,000	-0,008	-0,045
-702,802	800,000	-0,051	-0,119
-701,787	-106,436	-0,060	0,010
-700,772	607,699	-0,014	-0,026
-699,758	-45,214	0,114	-0,042
-698,743	-200,000	-0,011	-0,043
-697,729	-75,351	0,101	0,027
-696,714	800,000	-0,048	0,100
-695,699	-45,291	-0,084	-0,031
-694,685	-200,000	-0,013	0,135
-693,670	66,903	-0,120	0,090
-692,656	319,298	-0,048	-0,068
-691,641	244,839	0,028	-0,035
-690,627	-86,122	-0,036	-0,008
-689,612	-32,408	0,032	0,013
-688,597	111,726	-0,145	0,129
-687,583	-200,000	0,008	-0,098
-686,568	-200,000	-0,015	-0,119
-685,554	-45,872	-0,015	-0,006
-684,539	-200,000	0,005	0,033
-683,524	210,585	0,083	0,096
-682,510	-200,000	-0,019	-0,074
-681,495	119,151	-0,089	-0,081
-680,481	188,039	-0,070	-0,077
-679,466	210,269	0,075	-0,088
-678,451	-30,135	-0,052	-0,022
-677,437	89,434	-0,046	-0,038
-676,422	47,831	-0,010	0,007
-675,408	-53,048	-0,088	-0,030
-674,393	-116,688	0,186	0,025
-673,378	-48,991	-0,067	0,024
-672,364	-200,000	-0,000	-0,113
-671,349	800,000	-0,065	-0,147
-670,335	596,072	0,059	0,109
-669,320	442,090	-0,028	0,045
-668,305	-200,000	0,015	-0,148
-667,291	-165,269	-0,058	0,002
-666,276	-200,000	-0,019	-0,072
-665,262	-179,258	-0,056	0,001
-664,247	216,023	0,104	0,123
-663,232	21,770	-0,151	0,091
-662,218	528,942	0,027	-0,047
-661,203	18,489	0,077	-0,045
-660,189	800,000	-0,034	0,080
-659,174	-22,933	-0,059	0,026
-658,159	-151,274	-0,127	0,007
-657,145	0,869	0,054	-0,028
-656,130	-16,566	0,081	0,038
-655,116	300,110	0,077	0,105
-654,101	498,069	-0,033	0,057
-653,086	114,119	-0,126	-0,113
-652,072	-200,000	0,002	0,030
-651,057	298,214	-0,087	-0,118
-650,043	-139,539	-0,089	-0,007
-649,028	441,528	0,054	-0,088
-648,014	-17,214	0,100	-0,047
-646,999	26,623	0,090	-0,056
-645,984	-174,256	0,047	-0,001
-644,970	-200,000	-0,027	-0,146
-643,955	52,283	-0,103	-0,073
-642,941	-16,806	-0,061	0,028
-641,926	-126,682	-0,054	0,006
-640,911	-41,363	0,045	-0,017
-639,897	800,000	0,049	0,104
-638,882	800,000	0,022	-0,047
-637,868	-150,621	-0,142	-0,008
-636,853	-200,000	0,020	-0,071
-635,838	71,608	-0,087	-0,067
-634,824	259,797	-0,034	-0,043
-633,809	-82,315	-0,073	0,017
-632,795	-200,000	-0,025	0,088
-631,780	579,447	0,042	0,077
-630,765	143,444	-0,065	-0,063
-629,751	98,912	0,052	0,044
-628,736	-24,532	-0,128	-0,056
-627,722	149,358	-0,042	-0,042
-626,707	-114,809	0,094	-0,013
-625,692	800,000	0,044	0,107
-624,678	-200,000	0,000	0,187
-623,663	-54,982	-0,060	0,020
-622,649	800,000	0,026	0,059
-621,634	800,000	-0,041	-0,097
-620,619	263,835	-0,103	-0,132
-619,605	81,238	0,110	0,087
-618,590	-65,005	-0,039	-0,012
-617,576	-101,012	0,051	-0,009
-616,561	-200,000	-0,015	-0,142
-615,546	-200,000	-0,008	-0,092
-614,532	509,434	-0,025	0,042
-613,517	-200,000	-0,003	-0,042
-612,503	752,782	0,051	-0,102
-611,488	298,027	0,021	-0,028
-610,474	-200,000	-0,016	-0,132
-609,459	100,165	0,140	-0,120
-608,444	475,357	-0,053	-0,089
-607,430	800,000	0,031	-0,082
-606,415	-200,000	0,003	-0,078
-605,401	-177,590	-0,147	0,003
-604,386	-36,321	0,111	-0,044
-603,371	-56,237	-0,038	-0,012
-602,357	-200,000	-0,013	-0,061
-601,342	-200,000	-0,005	0,044
-600,328	800,000	0,049	-0,141
-599,313	-200,000	0,015	0,069
-598,298	33,861	-0,035	-0,023
-597,284	-23,034	-0,090	0,040
-596,269	251,863	-0,045	-0,057
-595,255	21,197	-0,173	0,103
-594,240	437,892	0,037	-0,060
-593,225	303,461	-0,058	-0,080
-592,211	800,000	0,030	-0,088
-591,196	-56,038	0,083	0,027
-590,182	-200,000	-0,015	0,057
-589,167	-200,000	-0,014	0,084
-588,152	-200,000	0,058	0,214
-587,138	-138,549	0,042	0,003
-586,123	-54,797	-0,047	-0,016
-585,109	-38,737	0,043	0,017
-584,094	47,605	0,201	-0,138
-583,079	272,965	-0,057	-0,075
-582,065	-100,688	0,068	-0,012
-581,050	-49,490	0,098	-0,034
-580,036	102,159	0,032	-0,028
-579,021	89,035	-0,023	-0,019
-578,006	381,467	-0,046	-0,070
-576,992	-200,000	-0,003	-0,229
-575,977	76,962	-0,034	-0,027
-574,963	800,000	0,025	-0,065
-573,948	800,000	-0,043	-0,106
-572,934	28,237	0,063	-0,039
-571,919	-61,680	-0,133	-0,041
-570,904	800,000	-0,021	0,055
-569,890	-53,982	-0,078	0,026
-568,875	310,915	0,095	0,132
-567,861	-16,132	0,097	0,045
-566,846	-21,981	0,080	0,036
-565,831	800,000	0,019	0,052
-564,817	385,801	-0,105	-0,160
-563,802	-21,132	-0,076	0,034
-562,788	-89,220	-0,140	0,030
-561,773	800,000	-0,048	-0,156
-560,758	-200,000	0,023	0,080
-559,744	-200,000	0,010	0,205
-558,729	36,676	-0,108	0,070
-557,715	-22,827	-0,104	-0,046
-556,700	64,005	-0,075	-0,055
-555,685	-38,027	-0,061	-0,024
-554,671	105,481	0,099	-0,086
-553,656	-148,508	0,057	0,003
-552,642	259,131	-0,033	-0,042
-551,627	64,935	-0,040	0,030
-550,612	-88,439	0,014	-0,003
-549,598	109,059	-0,101	0,089
-548,583	24,094	-0,146	-0,089
-547,569	33,614	-0,065	-0,041
-546,554	217,727	-0,038	-0,045
-545,539	800,000	-0,030	-0,069
-544,525	537,151	-0,071	-0,125
-543,510	-200,000	0,017	0,135
-542,496	800,000	-0,044	-0,136
-541,481	-200,000	-0,068	-0,230
-540,466	800,000	0,036	-0,084
-539,452	384,799	-0,074	0,112
-538,437	-72,626	0,103	0,028
-537,423	149,076	-0,031	0,030
-536,408	-200,000	-0,008	-0,131
-535,393	-61,687	0,023	0,007
-534,379	-200,000	-0,003	-0,043
-533,364	-49,614	-0,025	0,009
-532,350	265,629	0,143	0,184
-531,335	-126,551	-0,058	-0,006
-530,321	46,628	-0,079	-0,054
-529,306	-200,000	-0,007	-0,095
-528,291	-64,719	0,056	0,017
-527,277	425,680	0,033	0,053
-526,262	86,598	0,039	-0,031
-525,248	-118,843	0,073	-0,009
-524,233	-200,000	0,003	-0,033
-523,218	-40,100	-0,084	0,032
-522,204	701,222	-0,048	0,092
-521,189	229,900	-0,038	-0,046
-520,175	27,193	0,086	0,053
-519,160	432,929	0,047	0,076
-518,145	-200,000	0,034	0,139
-517,131	81,858	0,076	0,060
-516,116	-112,393	0,095	0,014
-515,102	57,039	0,041	-0,029
-514,087	-200,000	-0,002	-0,039
-513,072	71,905	-0,019	0,015
-512,058	23,174	0,043	0,026
-511,043	54,561	-0,061	-0,043
-510,029	148,317	-0,013	-0,013
-509,014	-200,000	-0,037	0,131
-507,999	-200,000	-0,012	-0,044
-506,985	417,562	-0,100	-0,157
-505,970	-135,251	-0,069	0,006
-504,956	-46,998	-0,112	0,040
-503,941	-135,527	0,071	-0,006
-502,926	684,449	0,050	0,096
-501,912	800,000	0,067	0,140
-500,897	530,709	0,077	0,134
-499,883	-4,484	-0,097	0,049
-498,868	-52,904	0,055	-0,019
-497,853	51,753	-0,104	0,073
-496,839	111,357	0,061	0,054
-495,824	174,388	-0,053	0,056
-494,810	-200,000	0,003	0,105
-493,795	-200,000	0,019	0,196
-492,781	645,033	-0,021	0,039
-491,766	-200,000	0,006	0,094
-490,751	89,209	-0,064	-0,053
-489,737	-73,517	0,046	0,012
-488,722	113,059	0,074	0,066
-487,708	-200,000	0,010	0,112
-486,693	-114,163	0,090	-0,013
-485,678	278,896	-0,032	0,042
-484,664	55,368	-0,073	-0,052
-483,649	-164,318	-0,040	-0,001
-482,635	4,009	-0,019	-0,010
-481,620	118,649	-0,111	0,101
-480,605	-200,000	0,017	-0,070
-479,591	38,158	0,119	-0,077
-478,576	63,775	0,126	0,093
-477,562	100,475	0,023	-0,019
-476,547	575,225	0,107	-0,192
-475,532	35,002	-0,094	-0,060
-474,518	163,316	-0,033	0,034
-473,503	-200,000	0,004	0,110
-472,489	-200,000	0,001	0,019
-471,474	-61,985	-0,123	-0,037
-470,459	-200,000	-0,007	-0,028
-469,445	293,339	0,080	-0,107
-468,430	-200,000	-0,005	-0,037
-467,416	23,224	0,178	-0,107
-466,401	-200,000	-0,030	0,139
-465,386	-41,792	0,200	-0,075
-464,372	-81,701	0,140	-0,033
-463,357	-32,826	-0,080	-0,032
-462,343	-54,796	-0,073	-0,024
-461,328	-45,520	-0,111	-0,040
-460,313	-200,000	-0,010	0,064
-459,299	114,909	0,049	0,044
-458,284	60,787	0,177	0,129
-457,270	-63,223	-0,094	-0,028
-456,255	294,091	-0,122	-0,163
-455,241	-31,148	0,112	0,046
-454,226	-200,000	-0,008	-0,069
-453,211	-59,943	-0,136	0,042
-452,197	-200,000	-0,008	-0,026
-451,182	800,000	0,007	-0,017
-450,168	800,000	0,045	0,130
-449,153	299,081	-0,015	-0,021
-448,138	191,564	0,068	-0,076
-447,124	-5,168	-0,068	-0,034
-446,109	800,000	0,039	0,120
-445,095	-200,000	-0,018	-0,071
-444,080	-55,416	0,168	0,055
-443,065	-200,000	0,026	0,131
-442,051	-200,000	0,008	0,060
-441,036	657,722	-0,031	0,059
-440,022	-200,000	0,000	-0,161
-439,007	100,739	0,050	0,043
-437,992	-125,481	0,040	0,004
-436,978	728,980	0,030	0,058
-435,963	800,000	-0,023	0,053
-434,949	-83,160	0,101	-0,024
-433,934	127,634	-0,059	-0,055
-432,919	530,507	0,042	0,073
-431,905	800,000	-0,040	-0,095
-430,890	681,965	-0,012	0,023
-429,876	-200,000	-0,018	0,063
-428,861	-200,000	-0,012	0,056
-427,846	-200,000	-0,029	0,225
-426,832	-120,754	0,059	0,007
-425,817	800,000	0,062	-0,127
-424,803	-200,000	0,006	-0,026
-423,788	-59,524	0,119	-0,037
-422,773	-9,374	0,055	-0,027
-421,759	245,079	0,068	0,083
-420,744	-126,502	-0,190	0,020
-419,730	388,703	-0,037	0,056
-418,715	-200,000	0,014	-0,048
-417,701	-200,000	0,010	-0,108
-416,686	726,438	-0,054	-0,106
-415,671	-200,000	0,020	0,119
-414,657	800,000	0,018	0,045
-413,642	-167,052	-0,053	0,002
-412,628	94,223	0,042	0,035
-411,613	65,433	-0,083	-0,061
-410,598	800,000	0,023	-0,062
-409,584	192,611	0,065	-0,072
-408,569	214,884	-0,059	-0,068
-407,555	354,585	0,068	-0,100
-406,540	-180,413	0,086	0,001
-405,525	-101,405	-0,103	-0,018
-404,511	-200,000	0,012	-0,125
-403,496	-200,000	0,005	-0,133
-402,482	-52,471	0,138	-0,046
-401,467	60,456	-0,078	0,057
-400,452	98,314	-0,050	0,042
-399,438	225,821	-0,007	-0,008
-398,423	-200,000	0,002	0,112
-397,409	-200,000	-0,020	0,069
-396,394	-84,912	-0,092	-0,021
-395,379	-200,000	-0,010	0,037
-394,365	-7,751	0,071	-0,035
-393,350	73,018	0,123	0,094
-392,336	-2,010	-0,111	0,057
-391,321	109,208	-0,114	0,100
-390,306	800,000	0,016	-0,051
-389,292	-123,548	0,035	-0,004
-388,277	-60,912	0,116	0,036
-387,263	42,624	0,009	0,006
-386,248	97,591	-0,059	-0,050
-385,233	306,104	0,026	-0,036
-384,219	-200,000	-0,012	-0,041
-383,204	105,932	-0,152	0,131
-382,190	123,315	0,106	-0,098
-381,175	-151,048	0,076	0,004
-380,160	154,380	0,067	0,067
-379,146	-200,000	-0,010	0,133
-378,131	758,431	0,010	-0,021
-377,117	-200,000	0,018	0,120
-376,102	-200,000	-0,004	0,047
-375,088	-57,472	-0,204	-0,065
-374,073	-49,236	-0,112	0,039
-373,058	-200,000	-0,019	0,116
-372,044	-85,506	0,130	0,029
-371,029	-37,371	-0,170	0,066
-370,015	116,282	0,017	0,015
-369,000	-200,000	-0,017	-0,129
-367,985	800,000	0,027	-0,082
-366,971	-87,270	-0,183	-0,040
-365,956	512,757	-0,070	-0,120
-364,942	-200,000	-0,014	0,077
-363,927	-179,754	-0,034	0,001
-362,912	-200,000	0,025	0,135
-361,898	-20,825	0,046	-0,021
-360,883	800,000	-0,051	-0,125
-359,869	-176,888	0,101	0,002
-358,854	36,841	-0,085	0,055
-357,839	107,251	-0,068	0,059
-356,825	-35,364	0,114	-0,045
-355,810	800,000	-0,023	0,066
-354,796	800,000	0,020	-0,047
-353,781	800,000	0,035	-0,103
-352,766	132,449	0,070	0,066
-351,752	109,452	-0,101	0,088
-350,737	-91,871	0,155	-0,032
-349,723	800,000	-0,058	0,125
-348,708	230,848	-0,118	0,142
-347,693	-200,000	-0,006	-0,083
-346,679	-200,000	-0,009	0,097
-345,664	-37,869	-0,104	0,040
-344,650	800,000	-0,025	0,067
-343,635	800,000	0,048	0,150
-342,620	-200,000	0,016	0,074
-341,606	-200,000	-0,045	0,174
-340,591	691,115	0,036	-0,070
-339,577	800,000	0,034	-0,072
-338,562	193,138	-0,057	0,063
-337,548	535,393	0,057	0,099
-336,533	-200,000	0,002	-0,009
-335,518	22,125	0,185	0,110
-334,504	800,000	-0,022	-0,057
-333,489	-200,000	0,010	-0,056
-332,475	800,000	-0,037	-0,076
-331,460	-200,000	0,021	-0,078
-330,445	45,116	-0,119	0,080
-329,431	129,010	0,115	-0,107
-328,416	257,820	0,040	0,051
-327,402	127,956	0,194	-0,180
-326,387	-71,687	-0,120	-0,032
-325,372	102,981	0,027	-0,023
-324,358	482,580	-0,138	-0,230
-323,343	-159,621	-0,185	0,007
-322,329	-59,679	0,077	0,024
-321,314	800,000	0,049	-0,101
-320,299	-50,581	0,048	-0,016
-319,285	-28,350	-0,108	0,045
-318,270	537,227	-0,062	0,109
-317,256	64,501	0,083	-0,061
-316,241	-200,000	-0,019	0,095
-315,226	562,897	0,048	0,084
-314,212	226,071	-0,013	0,015
-313,197	2,239	0,045	-0,023
-312,183	-117,501	-0,054	-0,007
-311,168	-114,472	0,050	0,007
-310,153	174,494	0,065	0,069
-309,139	393,652	-0,026	-0,040
-308,124	800,000	-0,100	0,208
-307,110	-200,000	-0,003	0,009
-306,095	-141,259	0,149	-0,011
-305,080	-200,000	0,002	-0,015
-304,066	-148,057	-0,128	-0,008
-303,051	73,032	-0,069	0,052
-302,037	-200,000	0,004	0,083
-301,022	-147,654	-0,039	0,002
-300,008	-200,000	-0,000	0,007
-298,993	410,048	-0,061	0,095
-297,978	800,000	0,021	-0,050
-296,964	-166,483	-0,104	0,003
-295,949	-129,848	-0,217	-0,021
-294,935	682,027	-0,040	-0,076
-293,920	800,000	0,020	-0,055
-292,905	-65,198	0,243	-0,071
-291,891	387,269	0,051	0,078
-290,876	-112,299	-0,008	-0,001
-289,862	424,359	-0,085	0,134
-288,847	186,628	-0,044	0,047
-287,832	127,148	0,074	-0,069
-286,818	-200,000	0,004	-0,019
-285,803	275,290	0,100	-0,130
-284,789	-46,801	0,059	0,021
-283,774	-132,639	0,075	-0,007
-282,759	-200,000	0,014	-0,062
-281,745	22,591	0,042	-0,025
-280,730	153,661	-0,072	-0,071
-279,716	142,994	-0,060	0,058
-278,701	800,000	-0,027	0,083
-277,686	-200,000	0,053	0,215
-276,672	-200,000	0,004	0,056
-275,657	-153,376	0,106	-0,005
-274,643	564,932	0,061	-0,109
-273,628	-36,011	0,023	-0,009
-272,613	-200,000	0,020	-0,115
-271,599	23,321	0,167	-0,100
-270,584	-153,235	-0,093	0,005
-269,570	-61,814	0,065	0,020
-268,555	-90,338	-0,053	0,011
-267,540	-141,436	0,051	0,004
-266,526	-80,976	-0,097	0,023
-265,511	-200,000	0,025	-0,092
-264,497	127,810	-0,023	-0,021
-263,482	574,087	0,053	0,095
-262,467	800,000	0,075	0,201
-261,453	549,117	0,012	0,021
-260,438	-13,666	0,029	0,013
-259,424	-76,018	-0,118	0,030
-258,409	-200,000	-0,005	-0,029
-257,395	164,423	0,081	-0,083
-256,380	84,913	-0,106	-0,084
-255,365	-129,400	0,089	-0,009
-254,351	90,274	0,016	0,013
-253,336	2,298	-0,040	0,021
-252,322	221,267	0,075	-0,087
-251,307	-65,091	-0,099	-0,029
-250,292	752,861	0,035	0,070
-249,278	-50,598	-0,037	-0,013
-248,263	419,957	-0,015	-0,023
-247,249	448,848	0,030	0,048
-246,234	510,132	0,057	0,097
-245,219	-48,543	0,087	-0,030
-244,205	-24,593	0,146	-0,063
-243,190	-86,660	0,110	0,024
-242,176	-200,000	0,030	-0,148
-241,161	31,963	0,024	-0,015
-240,146	147,990	-0,065	0,064
-239,132	426,788	-0,033	-0,052
-238,117	-79,980	0,114	0,028
-237,103	581,623	0,031	0,055
-236,088	-200,000	-0,021	-0,071
-235,073	-200,000	0,011	-0,081
-234,059	328,713	0,055	0,077
-233,044	800,000	0,032	0,081
-232,030	335,211	-0,093	0,131
-231,015	364,937	-0,061	-0,089
-230,000	-10,484	-0,029	-0,014
-228,986	800,000	0,064	0,133
-227,971	321,022	-0,054	0,075
-226,957	27,970	0,117	0,072
-225,942	-95,496	-0,084	-0,016
-224,927	122,402	-0,072	0,066
-223,913	397,939	-0,022	-0,034
-222,898	330,625	-0,072	-0,101
-221,884	198,320	0,092	-0,102
-220,869	800,000	0,014	-0,041
-219,855	-77,285	0,136	0,034
-218,840	800,000	-0,030	-0,067
-217,825	-135,089	-0,084	0,007
-216,811	210,834	0,097	-0,111
-215,796	-41,605	0,078	0,029
-214,782	455,259	-0,016	0,026
-213,767	-40,428	-0,073	-0,027
-212,752	181,546	0,083	0,088
-211,738	66,074	-0,036	0,027
-210,723	-141,930	-0,076	0,005
-209,709	0,299	-0,140	0,073
-208,694	-200,000	-0,012	-0,113
-207,679	368,094	0,043	-0,063
-206,665	1,057	-0,017	-0,009
-205,650	800,000	-0,033	0,095
-204,636	145,627	0,174	0,169
-203,621	-200,000	0,016	-0,052
-202,606	800,000	-0,050	-0,153
-201,592	126,724	-0,061	0,056
-200,577	31,065	-0,121	-0,075
-199,563	-49,512	0,075	-0,026
-198,548	-200,000	0,017	0,085
-197,533	13,762	0,105	0,059
-196,519	146,266	-0,109	0,106
-195,504	-200,000	-0,020	0,097
-194,490	-200,000	0,008	-0,083
-193,475	-46,831	-0,145	0,051
-192,460	276,749	0,067	0,087
-191,446	-28,337	-0,067	0,028
-190,431	677,780	0,066	-0,125
-189,417	122,477	-0,021	-0,019
-188,402	-55,839	0,107	0,034
-187,387	800,000	-0,058	-0,177
-186,373	800,000	-0,043	-0,119
-185,358	-67,528	-0,046	0,013
-184,344	800,000	0,024	0,052
-183,329	800,000	0,041	-0,102
-182,315	-200,000	0,049	-0,189
-181,300	-148,372	-0,070	-0,004
-180,285	800,000	0,100	-0,209
-179,271	124,680	0,054	0,049
-178,256	24,336	-0,042	-0,025
-177,242	-77,399	0,111	-0,028
-176,227	-200,000	-0,017	0,194
-175,212	-200,000	-0,001	0,071
-174,198	800,000	0,010	-0,022
-173,183	-3,376	-0,075	0,038
-172,169	-200,000	0,024	-0,185
-171,154	-200,000	-0,000	0,062
-170,139	655,197	-0,014	0,026
-169,125	800,000	-0,042	0,097
-168,110	62,224	-0,133	0,096
-167,096	194,250	-0,022	0,025
-166,081	-109,793	0,126	-0,019
-165,066	212,806	-0,117	-0,134
-164,052	427,110	0,054	0,085
-163,037	-8,909	0,086	0,042
-162,023	767,109	0,041	0,080
-161,008	-78,203	0,137	0,034
-159,993	-97,974	-0,078	0,014
-158,979	-200,000	-0,009	-0,145
-157,964	-200,000	-0,003	-0,018
-156,950	4,394	-0,033	-0,018
-155,935	190,932	0,087	0,095
-154,920	101,838	0,087	0,074
-153,906	-120,806	-0,075	0,009
-152,891	-125,583	-0,088	0,010
-151,877	-70,665	0,062	-0,017
-150,862	-200,000	0,024	-0,087
-149,847	-163,983	-0,068	-0,002
-148,833	43,796	0,074	-0,049
-147,818	-200,000	-0,030	0,169
-146,804	-200,000	-0,017	-0,108
-145,789	274,669	0,063	-0,081
-144,775	-200,000	0,009	-0,110
-143,760	162,220	0,073	-0,074
-142,745	61,708	0,040	0,029
-141,731	53,284	-0,072	-0,050
-140,716	-200,000	0,046	-0,167
-139,702	-7,692	0,196	0,096
-138,687	-200,000	0,001	-0,005
-137,672	-61,605	-0,209	0,063
-136,658	117,446	-0,046	-0,041
-135,643	484,299	-0,074	-0,122
-134,629	113,921	-0,024	-0,021
-133,614	-118,942	0,143	0,018
-132,599	-200,000	-0,001	0,189
-131,585	261,037	-0,067	-0,084
-130,570	-200,000	0,018	0,061
-129,556	311,801	-0,104	0,142
-128,541	800,000	-0,029	-0,076
-127,526	-200,000	0,013	0,063
-126,512	-139,762	-0,082	0,006
-125,497	-33,022	0,092	-0,037
-124,483	133,966	0,058	0,054
-123,468	-145,115	-0,044	0,003
-122,453	-200,000	0,014	-0,113
-121,439	164,145	-0,044	-0,044
-120,424	-165,032	-0,059	-0,002
-119,410	-12,998	0,051	0,024
-118,395	197,297	0,073	0,081
-117,380	129,567	0,030	-0,028
-116,366	129,567	0,072	0,067
-115,351	-200,000	0,012	-0,066
-114,337	438,888	-0,067	-0,107
-113,322	106,054	-0,178	-0,152
-112,307	-24,425	-0,041	0,017
-111,293	-200,000	-0,012	-0,076
-110,278	269,644	0,046	-0,058
-109,264	800,000	-0,037	-0,083
-108,249	800,000	-0,013	0,028
-107,234	399,726	-0,044	-0,067
-106,220	182,361	0,053	-0,056
-105,205	-130,184	-0,047	-0,005
-104,191	18,558	0,138	0,080
-103,176	-17,078	0,039	0,018
-102,162	800,000	-0,034	-0,082
-101,147	-200,000	-0,017	-0,133
-100,132	-154,662	-0,007	-0,000
-99,118	-23,351	-0,078	-0,034
-98,103	-200,000	0,004	-0,069
-97,089	42,338	-0,085	-0,056
-96,074	140,590	0,022	0,021
-95,059	-73,806	-0,053	0,014
-94,045	-146,378	-0,238	-0,015
-93,030	-200,000	0,008	-0,093
-92,016	-38,585	0,068	-0,026
-91,001	-200,000	-0,041	0,149
-89,986	5,888	0,054	0,029
-88,972	-183,737	0,043	-0,001
-87,957	-93,186	-0,071	-0,014
-86,943	-200,000	-0,001	-0,082
-85,928	208,034	-0,149	-0,169
-84,913	392,470	0,059	0,090
-83,899	40,879	0,104	-0,067
-82,884	157,897	-0,082	0,083
-81,870	167,726	0,102	-0,105
-80,855	381,601	-0,052	-0,077
-79,840	-200,000	-0,019	-0,124
-78,826	800,000	0,025	-0,070
-77,811	-82,663	-0,057	-0,013
-76,797	-18,033	-0,101	0,046
-75,782	-200,000	0,009	0,101
-74,767	800,000	-0,053	0,153
-73,753	177,521	0,052	0,055
-72,738	246,003	0,055	0,068
-71,724	-200,000	-0,003	-0,088
-70,709	481,368	-0,029	-0,048
-69,694	800,000	0,036	-0,088
-68,680	-200,000	-0,002	0,079
-67,665	-200,000	-0,005	-0,051
-66,651	-200,000	0,024	-0,079
-65,636	-151,600	0,140	0,007
-64,622	800,000	0,044	-0,135
-63,607	453,973	-0,078	-0,125
-62,592	-123,987	-0,013	-0,001
-61,578	800,000	0,021	0,062
-60,563	145,544	-0,048	0,046
-59,549	625,991	-0,031	0,057
-58,534	74,536	-2,198	-1,668
-57,519	522,886	-1,081	-1,841
-56,505	-200,000	-0,357	-4,172
-55,490	800,000	0,753	1,676
-54,476	800,000	5,283	11,208
-53,461	-200,000	22,662	348,462
-52,446	800,000	755,672	2287,223
-51,432	501,494	1637,023	2739,566
-50,417	65,916	1568,673	1147,140
-49,403	18,234	1161,597	667,563
-48,388	10,790	894,898	491,685
-47,373	26,316	863,835	519,890
-46,359	16,524	849,658	483,321
-45,344	7,778	845,535	455,835
-44,330	7,681	843,775	454,587
-43,315	7,648	842,401	453,733
-42,300	7,653	841,015	452,986
-41,286	7,664	840,194	452,557
-40,271	7,593	839,112	451,753
-39,257	7,655	838,129	451,381
-38,242	7,778	837,299	451,269
-37,227	7,738	836,348	450,623
-36,213	7,682	835,599	450,042
-35,198	7,659	834,880	449,571
-34,184	7,744	834,172	449,416
-33,169	7,693	833,019	448,633
-32,154	7,717	832,533	448,420
-31,140	7,787	831,238	447,904
-30,125	7,826	830,406	447,546
-29,111	7,697	829,830	446,855
-28,096	7,629	829,755	446,602
-27,082	7,720	828,799	446,328
-26,067	7,770	827,873	445,954
-25,052	7,668	827,214	445,292
-24,038	7,684	826,598	444,989
-23,023	7,719	826,032	444,765
-22,009	7,821	825,288	444,633
-20,994	7,772	824,613	444,113
-19,979	7,821	823,873	443,835
-18,965	7,745	823,498	443,402
-17,950	7,792	823,057	443,279
-16,936	7,742	822,246	442,685
-15,921	7,701	821,727	442,272
-14,906	7,673	821,039	441,806
-13,892	7,662	820,716	441,585
-12,877	7,598	820,067	441,039
-11,863	7,567	819,673	440,724
-10,848	7,614	818,926	440,435
-9,833	7,672	818,508	440,355
-8,819	7,662	817,840	439,951
-7,804	7,700	817,018	439,595
-6,790	7,686	816,628	439,330
-5,775	7,656	816,481	439,151
-4,760	7,677	815,709	438,776
-3,746	7,614	815,256	438,340
-2,731	7,528	814,722	437,798
-1,717	7,423	814,352	437,291
-0,702	7,455	813,695	437,009
0,313	7,519	810,819	436,300
1,327	10,933	794,703	436,826
2,342	19,141	646,983	373,583
3,356	13,150	356,286	198,488
4,371	-15,850	240,321	109,987
5,386	-18,926	226,370	101,190
6,400	-18,898	222,125	99,305
7,415	-18,224	220,031	98,871
8,429	-19,301	218,804	97,498
9,444	-19,211	217,937	97,171
10,459	-19,142	217,539	97,037
11,473	-19,195	217,042	96,767
12,488	-18,991	216,544	96,688
13,502	-19,111	216,039	96,365
14,517	-19,009	215,682	96,272
15,531	-19,255	215,182	95,858
16,546	-19,087	214,923	95,859
17,561	-19,263	214,502	95,532
18,575	-18,928	214,266	95,666
19,590	-19,321	214,044	95,269
20,604	-19,055	213,809	95,352
21,619	-19,168	213,418	95,086
22,634	-19,180	213,118	94,935
23,648	-19,115	212,849	94,854
24,663	-19,010	212,530	94,781
25,677	-19,143	212,409	94,621
26,692	-19,217	212,150	94,443
27,707	-19,118	211,920	94,405
28,721	-19,178	211,765	94,283
29,736	-19,201	211,346	94,071
30,750	-19,147	211,194	94,035
31,765	-19,163	211,011	93,933
32,780	-19,297	210,911	93,783
33,794	-19,015	210,626	93,852
34,809	-19,139	210,391	93,649
35,823	-19,087	210,224	93,604
36,838	-19,179	209,829	93,354
37,853	-19,186	209,771	93,314
38,867	-18,883	209,457	93,385
39,882	-18,992	209,227	93,195
40,896	-19,160	209,075	92,998
41,911	-19,182	209,054	92,965
42,926	-19,164	208,757	92,838
43,940	-19,118	208,533	92,763
44,955	-18,871	208,146	92,760
45,969	-19,039	208,263	92,683
46,984	-19,067	207,908	92,496
47,999	-19,026	207,875	92,503
49,013	-18,753	207,523	92,533
50,028	-19,141	207,544	92,257
51,042	-18,779	207,183	92,346
52,057	-19,150	207,102	92,038
53,071	-18,975	207,088	92,148
54,086	-19,298	206,785	91,776
55,101	-19,053	206,367	91,756
56,115	-19,025	206,391	91,777
57,130	-19,072	205,949	91,540
58,144	-19,254	205,993	91,422
59,159	-19,239	205,660	91,277
60,174	-18,999	205,448	91,344
61,188	-19,264	205,310	91,088
62,203	-19,230	205,356	91,124
63,217	-19,060	204,973	91,066
64,232	-18,938	204,740	91,040
65,247	-19,121	204,630	90,854
66,261	-19,030	204,297	90,762
67,276	-19,161	204,182	90,611
68,290	-18,954	203,957	90,648
69,305	-18,897	203,853	90,634
70,320	-18,980	203,824	90,555
71,334	-19,261	203,560	90,233
72,349	-19,001	203,284	90,284
73,363	-19,201	203,066	90,040
74,378	-19,163	202,918	89,992
75,393	-19,058	202,743	89,980
76,407	-19,191	202,654	89,840
77,422	-18,913	202,409	89,917
78,436	-18,970	202,209	89,780
79,451	-19,068	201,990	89,606
80,466	-19,033	201,719	89,503
81,480	-18,817	201,754	89,660
82,495	-18,879	201,340	89,425
83,509	-19,157	201,508	89,300
84,524	-19,003	201,182	89,254
85,539	-19,014	200,959	89,139
86,553	-19,009	200,998	89,151
87,568	-19,111	200,861	89,013
88,582	-19,152	200,543	88,836
89,597	-19,020	200,336	88,827
90,611	-18,942	200,153	88,791
91,626	-19,119	199,999	88,594
92,641	-19,170	199,936	88,523
93,655	-18,954	199,748	88,580
94,670	-18,883	199,384	88,459
95,684	-19,250	199,386	88,201
96,699	-18,751	199,273	88,484
97,714	-19,052	199,089	88,189
98,728	-18,888	198,866	88,194
99,743	-19,047	198,866	88,077
100,757	-18,949	198,622	88,029
101,772	-19,049	198,275	87,799
102,787	-19,090	198,273	87,763
103,801	-19,260	198,184	87,600
104,816	-19,037	198,035	87,678
105,830	-19,019	197,840	87,595
106,845	-18,986	197,601	87,504
107,860	-18,972	197,364	87,401
108,874	-19,036	197,336	87,338
109,889	-18,963	197,000	87,230
110,903	-19,053	196,979	87,152
111,918	-18,924	196,829	87,165
112,933	-18,737	196,624	87,192
113,947	-19,077	196,487	86,895
114,962	-18,755	196,252	87,000
115,976	-18,904	196,055	86,805
116,991	-18,976	195,958	86,706
118,006	-18,963	195,729	86,606
119,020	-18,839	195,776	86,702
120,035	-18,966	195,661	86,558
121,049	-18,801	195,528	86,601
122,064	-19,021	195,311	86,351
123,079	-18,969	195,146	86,305
124,093	-18,846	194,936	86,286
125,108	-19,082	194,891	86,102
126,122	-18,996	194,666	86,052
127,137	-18,787	194,411	86,070
128,151	-18,845	194,214	85,937
129,166	-18,883	194,131	85,867
130,181	-18,872	193,841	85,738
131,195	-18,915	193,890	85,724
132,210	-19,091	193,580	85,463
133,224	-18,736	193,387	85,604
134,239	-19,047	193,446	85,417
135,254	-19,072	193,323	85,340
136,268	-19,167	193,149	85,192
137,283	-18,896	192,803	85,210
138,297	-18,810	192,660	85,196
139,312	-19,093	192,482	84,924
140,327	-19,211	192,279	84,750
141,341	-19,197	192,261	84,743
142,356	-19,081	192,077	84,731
143,370	-17,999	192,335	85,546
144,385	-11,148	194,148	90,878
145,400	-4,565	195,814	96,031
146,414	-3,117	196,119	97,134
147,429	-2,903	195,967	97,193
148,443	-2,784	196,113	97,336
149,458	-2,689	196,042	97,355
150,473	-2,162	195,804	97,578
151,487	-1,897	195,644	97,665
152,502	-2,051	195,472	97,469
153,516	-1,844	195,284	97,502
154,531	-2,051	195,284	97,357
155,546	-1,923	195,197	97,390
156,560	-2,021	194,947	97,191
157,575	-1,827	194,830	97,253
158,589	-1,637	194,637	97,273
159,604	-1,758	194,528	97,130
160,619	-1,808	194,350	97,000
161,633	-1,644	194,262	97,055
162,648	-1,752	194,197	96,943
163,662	-1,388	193,949	97,049
164,677	-1,411	193,959	97,030
165,692	-1,549	193,855	96,879
166,706	-1,471	193,724	96,856
167,721	-1,481	193,416	96,687
168,735	-1,460	193,356	96,662
169,750	-1,636	193,461	96,591
170,764	-1,800	193,272	96,381
171,779	-1,633	193,008	96,350
172,794	-1,372	192,973	96,494
173,808	-1,553	192,838	96,300
174,823	-1,501	192,654	96,233
175,837	-1,465	192,449	96,146
176,852	-1,470	192,392	96,105
177,867	-1,266	192,260	96,163
178,881	-1,530	192,142	95,924
179,896	-1,568	192,026	95,833
180,910	-1,518	191,977	95,833
181,925	-1,519	191,730	95,700
182,940	-1,758	191,473	95,409
183,954	-1,319	191,475	95,685
184,969	-1,532	191,388	95,496
185,983	-1,276	191,191	95,554
186,998	-1,259	191,066	95,493
188,013	-1,134	190,895	95,480
189,027	-1,179	190,710	95,350
190,042	-1,297	190,610	95,216
191,056	-1,334	190,593	95,175
192,071	-1,400	190,424	95,040
193,086	-1,280	190,215	95,004
194,100	-1,197	190,118	95,000
195,115	-1,157	189,913	94,915
196,129	-1,330	189,809	94,744
197,144	-1,421	189,616	94,581
198,159	-1,097	189,500	94,722
199,173	-1,316	189,472	94,559
200,188	-1,250	189,290	94,502
201,202	-1,200	189,101	94,431
202,217	-1,187	189,120	94,440
203,232	-1,172	188,938	94,350
204,246	-1,380	188,802	94,142
205,261	-1,246	188,505	94,071
206,275	-1,111	188,430	94,111
207,290	-1,032	188,285	94,080
208,304	-1,054	188,199	94,015
209,319	-1,077	188,185	93,985
210,334	-1,195	187,891	93,755
211,348	-1,200	187,653	93,625
212,363	-1,278	187,722	93,601
213,377	-1,142	187,643	93,639
214,392	-0,900	187,432	93,679
215,407	-0,980	187,425	93,616
216,421	-1,139	187,297	93,444
217,436	-0,997	186,970	93,362
218,450	-1,038	186,957	93,321
219,465	-1,082	186,865	93,239
220,480	-1,065	186,698	93,158
221,494	-0,992	186,699	93,196
222,509	-0,996	186,499	93,085
223,523	-1,039	186,408	93,004
224,538	-0,833	186,167	93,005
225,553	-0,899	186,011	92,878
226,567	-1,150	186,013	92,713
227,582	-1,280	185,794	92,515
228,596	-0,823	185,658	92,724
229,611	-0,915	185,559	92,609
230,626	-1,097	185,540	92,478
231,640	-0,910	185,289	92,460
232,655	-0,917	184,989	92,299
233,669	-0,997	184,994	92,243
234,684	-0,771	184,860	92,308
235,699	-0,795	184,888	92,300
236,713	-0,957	184,739	92,116
237,728	-0,920	184,621	92,072
238,742	-0,638	184,400	92,128
239,757	-0,906	184,270	91,889
240,772	-1,054	184,371	91,840
241,786	-0,466	184,186	92,103
242,801	-0,731	184,042	91,859
243,815	-0,622	183,776	91,785
244,830	-0,634	183,759	91,761
245,844	-0,571	183,647	91,736
246,859	-0,596	183,520	91,649
247,874	-0,471	183,381	91,648
248,888	-0,799	183,264	91,380
249,903	-0,552	183,215	91,499
250,917	-0,515	182,973	91,393
251,932	-0,244	182,803	91,466
252,947	-0,503	182,783	91,289
253,961	-0,882	182,742	91,028
254,976	-0,727	182,569	91,029
255,990	-0,723	182,375	90,927
257,005	-0,759	182,437	90,927
258,020	-0,675	182,270	90,887
259,034	-0,644	182,133	90,830
260,049	-0,779	181,972	90,659
261,063	-0,447	181,906	90,820
262,078	-0,671	181,937	90,691
263,093	-0,688	181,635	90,523
264,107	-0,610	181,406	90,447
265,122	-0,651	181,351	90,387
266,136	-0,497	181,292	90,443
267,151	-0,777	181,218	90,228
268,166	-0,496	181,013	90,288
269,180	-0,373	180,795	90,246
270,195	-0,651	180,810	90,077
271,209	-0,498	180,716	90,114
272,224	-0,413	180,639	90,120
273,239	-0,530	180,638	90,040
274,253	-0,393	180,234	89,914
275,268	-0,369	180,091	89,849
276,282	-0,622	180,034	89,660
277,297	-0,429	179,820	89,662
278,312	-0,614	179,827	89,546
279,326	-0,536	179,718	89,530
280,341	-0,289	179,595	89,610
281,355	-0,435	179,444	89,438
282,370	-0,249	179,341	89,491
283,384	-0,228	179,386	89,518
284,399	-0,266	179,147	89,368
285,414	-0,238	179,015	89,311
286,428	-0,406	178,968	89,179
287,443	-0,133	178,773	89,237
288,457	-0,356	178,717	89,068
289,472	-0,335	178,669	89,048
290,487	-0,323	178,393	88,910
291,501	-0,420	178,343	88,820
292,516	-0,610	178,184	88,619
293,530	-0,159	178,171	88,873
294,545	-0,002	177,911	88,829
295,560	0,046	177,901	88,845
296,574	-0,281	177,776	88,581
297,589	-0,638	177,701	88,323
298,603	-0,278	177,575	88,466
299,618	-0,360	177,492	88,368
300,633	-0,267	177,343	88,341
301,647	-0,054	177,224	88,400
302,662	-0,271	177,128	88,216
303,676	-0,426	176,909	88,008
304,691	-0,138	176,808	88,119
305,706	-0,047	176,642	88,082
306,720	-0,270	176,541	87,893
307,735	-0,041	176,541	88,020
308,749	-0,180	176,500	87,910
309,764	-0,134	176,209	87,784
310,779	-0,125	176,107	87,731
311,793	-0,058	176,095	87,756
312,808	-0,297	175,802	87,462
313,822	-0,130	175,746	87,524
314,837	-0,071	175,706	87,531
315,852	0,003	175,550	87,489
316,866	-0,052	175,437	87,393
317,881	0,039	175,307	87,373
318,895	-0,464	175,282	87,059
319,910	-0,271	175,126	87,087
320,925	-0,261	175,140	87,092
321,939	-0,151	174,873	87,015
322,954	-0,187	174,827	86,963
323,968	0,296	174,637	87,142
324,983	-0,097	174,652	86,913
325,997	-0,186	174,547	86,802
327,012	-0,021	174,250	86,742
328,027	-0,046	174,164	86,677
329,041	-0,073	174,119	86,631
330,056	-0,052	174,083	86,618
331,070	-0,303	173,850	86,348
332,085	0,120	173,597	86,460
333,100	0,031	173,614	86,409
334,114	-0,092	173,477	86,262
335,129	-0,166	173,346	86,147
336,143	0,137	173,349	86,315
337,158	-0,002	173,108	86,107
338,173	0,071	173,074	86,125
339,187	-0,259	173,138	85,959
340,202	0,149	172,872	86,054
341,216	-0,192	172,819	85,824
342,231	-0,006	172,672	85,850
343,246	-0,031	172,581	85,782
344,260	0,237	172,543	85,910
345,275	0,240	172,262	85,764
346,289	-0,103	172,211	85,535
347,304	0,282	172,096	85,690
348,319	0,274	171,883	85,572
349,333	0,165	171,756	85,439
350,348	0,118	171,747	85,400
351,362	0,305	171,700	85,475
352,377	0,380	171,579	85,451
353,392	0,321	171,505	85,372
354,406	0,457	171,294	85,337
355,421	189,814	1326,019	1393,133
356,435	150,266	1467,148	1393,606
