DTS Sentinel unit serial number:	SN410029Multiplexer serial number:	ORYXHardware model number:	OX2-SRSoftware version number:	ORYX F/W v4,00 Oryx Data Collector v3.7.2.0data status	okinstallation	B3 Nyhavnadifferential loss correction	single-endedforward channel	channel 1reverse channel	N/Adate	2023/11/28time	16:02:30forward acquisition time	300,00reverse acquisition time	0,00gamma	499,1914k internal	0,3208k external	0,3208temperature offset calibration	1,0000default loss term (dB/km)	0,3820temperature slope calibration	1,0000multiplexer offset coefficient	1,0000multiplexer slope coefficient	1,0000fibre end	0,00T internal ref (°C)	7,26T ext. ref 1 (°C)	-7,56T ext. ref 2 (°C)	-7,73length (m)	temperature (°C)	Stokes	anti-Stokes-744,400	136,455	-0,319	-0,302
-743,385	-200,000	-0,040	0,146
-742,371	-200,000	-0,033	-0,249
-741,356	-200,000	-0,025	0,184
-740,342	242,165	-0,048	-0,059
-739,327	-200,000	-0,063	0,329
-738,312	509,633	-0,144	-0,244
-737,298	-200,000	-0,001	0,167
-736,283	800,000	-0,090	-0,214
-735,269	-200,000	0,071	0,239
-734,254	90,996	-0,300	-0,244
-733,239	-103,877	-0,156	-0,026
-732,225	800,000	-0,062	-0,157
-731,210	695,499	0,107	0,204
-730,196	146,003	0,063	0,061
-729,181	87,921	-0,080	0,064
-728,167	-173,641	-0,177	0,004
-727,152	665,686	-0,052	-0,097
-726,137	-200,000	-0,024	0,078
-725,123	-84,852	-0,035	0,008
-724,108	372,147	-0,099	-0,146
-723,094	-6,220	-0,213	-0,105
-722,079	-200,000	-0,039	-0,141
-721,064	-67,906	0,150	0,042
-720,050	-200,000	-0,010	-0,136
-719,035	322,889	0,020	0,028
-718,021	-45,049	-0,067	-0,024
-717,006	-200,000	0,022	-0,270
-715,991	-200,000	-0,016	-0,090
-714,977	-100,489	-0,122	-0,022
-713,962	341,515	-0,060	-0,085
-712,948	217,906	0,051	-0,059
-711,933	-82,046	-0,169	0,040
-710,918	202,701	-0,077	-0,087
-709,904	43,475	0,056	0,037
-708,889	64,818	-0,136	-0,100
-707,875	-94,401	-0,062	-0,012
-706,860	-10,602	-0,189	-0,090
-705,845	-69,138	0,123	0,034
-704,831	-65,318	0,184	0,053
-703,816	-22,014	-0,199	-0,087
-702,802	-200,000	-0,000	-0,133
-701,787	-200,000	-0,020	-0,231
-700,772	452,204	-0,064	0,103
-699,758	25,482	0,129	-0,078
-698,743	310,685	0,063	0,086
-697,729	153,464	-0,148	-0,147
-696,714	-200,000	0,006	0,035
-695,699	-200,000	-0,011	0,041
-694,685	101,901	0,039	0,033
-693,670	800,000	0,039	-0,111
-692,656	160,219	0,105	-0,106
-691,641	-121,414	-0,069	-0,008
-690,627	-200,000	0,018	-0,144
-689,612	26,529	-0,091	0,055
-688,597	683,762	0,029	0,055
-687,583	145,491	0,117	-0,113
-686,568	241,553	-0,110	-0,133
-685,554	-18,076	0,044	-0,020
-684,539	-29,745	0,080	-0,033
-683,524	53,303	0,034	0,024
-682,510	237,241	-0,031	-0,038
-681,495	-107,554	-0,112	-0,018
-680,481	-122,041	-0,145	0,017
-679,466	-200,000	-0,027	0,178
-678,451	371,600	-0,019	0,028
-677,437	651,418	0,026	-0,048
-676,422	-2,949	-0,023	-0,012
-675,408	-1,814	0,087	0,044
-674,393	4,820	-0,042	0,022
-673,378	670,660	0,049	-0,093
-672,364	800,000	-0,026	0,076
-671,349	138,603	-0,008	0,008
-670,335	-65,641	0,098	-0,028
-669,320	440,521	0,040	-0,063
-668,305	104,556	-0,087	0,074
-667,291	-61,139	0,088	-0,027
-666,276	273,418	-0,056	-0,072
-665,262	66,394	-0,077	-0,057
-664,247	269,068	0,076	0,096
-663,232	30,288	-0,181	0,112
-662,218	62,571	0,118	-0,085
-661,203	-62,852	0,080	0,024
-660,189	-6,092	-0,105	0,052
-659,174	-55,041	-0,132	-0,043
-658,159	270,596	0,070	-0,089
-657,145	62,367	-0,049	0,035
-656,130	800,000	-0,072	0,193
-655,116	-200,000	-0,001	0,089
-654,101	-68,894	-0,122	0,034
-653,086	157,432	-0,019	0,019
-652,072	-45,576	0,143	0,051
-651,057	800,000	-0,059	-0,158
-650,043	-130,873	-0,103	-0,010
-649,028	24,438	0,116	-0,069
-648,014	754,719	0,067	0,132
-646,999	800,000	-0,048	0,126
-645,984	-130,181	0,099	0,010
-644,970	-200,000	-0,031	-0,145
-643,955	-139,413	-0,128	-0,010
-642,941	-200,000	-0,001	0,027
-641,926	-66,027	0,073	0,021
-640,911	495,644	0,048	-0,080
-639,897	800,000	0,060	-0,150
-638,882	43,960	-0,030	0,020
-637,868	-90,185	-0,051	0,011
-636,853	-121,622	0,142	-0,017
-635,838	326,685	0,045	0,062
-634,824	162,997	0,047	-0,047
-633,809	-0,983	0,048	-0,024
-632,795	-36,567	-0,018	-0,007
-631,780	-200,000	0,028	0,216
-630,765	-29,842	0,048	-0,020
-629,751	143,033	-0,109	0,105
-628,736	-200,000	-0,005	-0,046
-627,722	-0,063	-0,088	-0,045
-626,707	800,000	0,021	0,051
-625,692	800,000	0,049	-0,151
-624,678	195,110	-0,071	-0,078
-623,663	-98,969	-0,035	-0,006
-622,649	-9,991	-0,153	-0,073
-621,634	-26,750	0,064	-0,027
-620,619	800,000	0,051	-0,123
-619,605	-71,485	-0,047	0,013
-618,590	652,875	0,056	0,105
-617,576	380,708	-0,028	-0,041
-616,561	-200,000	-0,004	-0,117
-615,546	-200,000	-0,000	-0,137
-614,532	491,341	0,075	0,125
-613,517	-200,000	-0,002	-0,255
-612,503	-127,818	0,098	0,010
-611,488	-28,138	-0,053	0,022
-610,474	-200,000	0,010	0,175
-609,459	-42,018	-0,111	-0,041
-608,444	110,846	-0,099	-0,086
-607,430	800,000	-0,011	-0,035
-606,415	-200,000	0,001	0,110
-605,401	44,865	0,075	-0,049
-604,386	-200,000	-0,010	-0,047
-603,371	-159,076	-0,034	0,001
-602,357	44,154	0,135	-0,089
-601,342	-200,000	0,002	0,020
-600,328	800,000	0,031	-0,069
-599,313	-105,059	0,076	-0,012
-598,298	99,806	-0,003	-0,002
-597,284	-45,023	0,085	0,030
-596,269	272,394	0,081	0,103
-595,255	659,513	-0,019	-0,035
-594,240	600,040	0,024	-0,044
-593,225	472,046	0,025	0,040
-592,211	-21,306	-0,037	-0,016
-591,196	-200,000	0,048	-0,182
-590,182	-82,736	-0,034	0,008
-589,167	107,067	0,083	0,071
-588,152	126,235	-0,060	0,055
-587,138	517,952	-0,039	-0,067
-586,123	-200,000	-0,006	-0,107
-585,109	800,000	-0,038	-0,116
-584,094	-200,000	0,009	0,050
-583,079	800,000	-0,019	-0,041
-582,065	800,000	-0,029	0,074
-581,050	740,787	-0,047	-0,091
-580,036	124,490	0,092	-0,084
-579,021	800,000	-0,029	-0,081
-578,006	74,513	0,090	-0,068
-576,992	14,522	0,025	-0,014
-575,977	-22,653	-0,037	-0,016
-574,963	320,216	-0,012	0,016
-573,948	-43,425	0,107	-0,039
-572,934	-200,000	0,033	-0,133
-571,919	-129,563	-0,131	-0,013
-570,904	-163,548	0,028	0,001
-569,890	294,932	-0,130	-0,172
-568,875	-69,870	-0,110	0,030
-567,861	800,000	0,033	0,071
-566,846	-22,246	-0,125	-0,054
-565,831	56,959	0,034	0,024
-564,817	-200,000	0,037	-0,167
-563,802	132,301	0,038	-0,036
-562,788	645,409	-0,021	0,038
-561,773	-128,533	-0,048	0,005
-560,758	37,982	0,024	-0,015
-559,744	83,062	-0,037	-0,029
-558,729	-29,460	-0,152	0,062
-557,715	-87,667	-0,017	-0,004
-556,700	-39,126	-0,168	-0,063
-555,685	-200,000	-0,008	-0,116
-554,671	-53,919	0,086	0,028
-553,656	111,268	-0,064	0,055
-552,642	800,000	0,019	-0,046
-551,627	142,007	0,060	0,057
-550,612	539,351	-0,015	-0,026
-549,598	153,917	-0,137	-0,136
-548,583	800,000	0,023	0,048
-547,569	58,601	0,095	0,067
-546,554	-200,000	0,015	-0,060
-545,539	800,000	0,046	0,094
-544,525	210,611	-0,022	0,025
-543,510	-200,000	-0,031	0,122
-542,496	45,701	-0,016	-0,011
-541,481	8,204	-0,111	0,060
-540,466	208,982	0,095	0,107
-539,452	780,617	0,052	0,103
-538,437	200,052	-0,073	-0,081
-537,423	800,000	0,041	0,112
-536,408	383,365	-0,076	0,114
-535,393	174,041	-0,081	-0,085
-534,379	-200,000	-0,016	0,057
-533,364	800,000	0,052	0,123
-532,350	54,484	0,062	-0,043
-531,335	187,173	0,035	0,038
-530,321	-181,782	-0,070	0,001
-529,306	800,000	0,029	-0,073
-528,291	-161,190	-0,139	-0,005
-527,277	391,433	-0,015	-0,022
-526,262	-54,271	0,085	-0,027
-525,248	-200,000	-0,022	-0,082
-524,233	395,603	0,106	0,160
-523,218	-12,073	-0,014	0,007
-522,204	800,000	0,040	0,124
-521,189	56,669	-0,050	-0,035
-520,175	84,927	0,044	-0,035
-519,160	800,000	-0,043	0,093
-518,145	303,895	-0,084	0,112
-517,131	240,060	0,056	0,067
-516,116	42,359	0,157	-0,103
-515,102	-172,661	-0,097	0,002
-514,087	115,892	0,116	0,102
-513,072	43,533	-0,083	0,054
-512,058	-77,396	-0,037	-0,009
-511,043	368,371	0,014	0,020
-510,029	354,715	-0,120	-0,173
-509,014	522,092	0,092	0,156
-507,999	68,030	0,038	-0,028
-506,985	-32,257	0,049	0,020
-505,970	800,000	-0,060	-0,155
-504,956	300,080	0,025	0,034
-503,941	-60,091	-0,064	0,020
-502,926	-42,527	0,154	-0,056
-501,912	32,483	0,034	-0,021
-500,897	-60,312	-0,102	-0,031
-499,883	-179,413	0,142	-0,002
-498,868	107,748	-0,119	-0,102
-497,853	17,405	-0,036	-0,020
-496,839	336,971	-0,046	-0,064
-495,824	800,000	0,055	0,168
-494,810	-200,000	0,003	0,089
-493,795	-200,000	0,003	0,043
-492,781	-200,000	-0,038	0,134
-491,766	800,000	-0,077	-0,173
-490,751	-200,000	0,027	-0,087
-489,737	67,520	0,058	0,043
-488,722	431,181	-0,038	0,059
-487,708	-112,006	-0,085	-0,012
-486,693	-200,000	0,019	0,107
-485,678	-110,555	0,082	0,012
-484,664	293,039	-0,037	0,049
-483,649	-179,204	-0,123	0,002
-482,635	471,133	0,048	-0,079
-481,620	151,325	0,086	0,084
-480,605	-105,322	0,039	-0,006
-479,591	273,710	0,076	-0,096
-478,576	-67,364	-0,127	0,036
-477,562	-200,000	-0,018	-0,059
-476,547	44,114	0,117	-0,077
-475,532	800,000	0,042	-0,107
-474,518	23,517	0,109	-0,064
-473,503	-112,126	0,214	0,031
-472,489	-200,000	-0,029	-0,142
-471,474	-163,821	-0,030	-0,001
-470,459	183,097	-0,151	-0,160
-469,445	-87,208	-0,029	0,006
-468,430	322,717	0,023	-0,032
-467,416	615,033	0,056	0,100
-466,401	672,075	0,009	0,017
-465,386	84,681	0,073	0,057
-464,372	800,000	0,027	-0,073
-463,357	537,834	-0,064	-0,110
-462,343	64,624	-0,098	-0,071
-461,328	800,000	-0,012	-0,030
-460,313	800,000	-0,051	0,107
-459,299	-118,843	-0,046	0,006
-458,284	-77,585	0,122	-0,030
-457,270	-200,000	0,012	-0,039
-456,255	58,469	0,096	-0,068
-455,241	551,225	0,063	-0,109
-454,226	660,342	0,015	-0,027
-453,211	-117,453	0,020	-0,003
-452,197	-200,000	0,001	0,065
-451,182	-200,000	-0,011	-0,113
-450,168	42,139	-0,122	0,079
-449,153	-19,524	-0,085	0,038
-448,138	-133,056	-0,090	-0,008
-447,124	-181,786	0,042	-0,001
-446,109	-172,259	0,215	0,005
-445,095	264,623	0,047	-0,059
-444,080	108,254	0,133	-0,114
-443,065	86,832	-0,090	-0,071
-442,051	-63,036	0,027	0,008
-441,036	140,997	-0,101	0,096
-440,022	-132,690	-0,104	-0,009
-439,007	734,035	0,053	-0,102
-437,992	-25,369	-0,104	0,044
-436,978	-200,000	-0,022	0,096
-435,963	612,458	0,029	-0,052
-434,949	573,651	0,042	-0,074
-433,934	-200,000	-0,003	0,053
-432,919	-200,000	-0,009	-0,089
-431,905	69,297	0,063	0,046
-430,890	800,000	0,015	-0,040
-429,876	198,175	0,036	0,039
-428,861	800,000	-0,015	-0,044
-427,846	33,199	0,065	-0,041
-426,832	-18,496	-0,142	-0,063
-425,817	-140,916	-0,120	0,009
-424,803	248,876	-0,042	0,051
-423,788	800,000	0,043	0,088
-422,773	800,000	0,020	-0,041
-421,759	256,690	-0,065	0,080
-420,744	-124,512	-0,052	-0,006
-419,730	-31,194	-0,078	0,031
-418,715	800,000	-0,026	0,053
-417,701	-114,594	-0,139	0,019
-416,686	130,937	0,053	0,049
-415,671	-39,863	0,071	-0,027
-414,657	800,000	-0,040	0,092
-413,642	131,198	-0,029	0,027
-412,628	800,000	-0,038	0,084
-411,613	800,000	-0,016	-0,048
-410,598	97,560	-0,017	0,014
-409,584	-200,000	0,025	0,111
-408,569	-200,000	0,076	0,277
-407,555	-51,867	-0,071	-0,023
-406,540	800,000	0,059	0,149
-405,525	-43,805	-0,055	0,020
-404,511	-200,000	-0,020	-0,149
-403,496	-67,472	0,130	0,036
-402,482	-116,783	0,128	0,017
-401,467	56,155	0,024	0,017
-400,452	226,251	0,048	-0,056
-399,438	-131,351	-0,216	-0,020
-398,423	143,541	-0,070	-0,066
-397,409	-200,000	0,011	0,068
-396,394	183,377	0,013	-0,014
-395,379	417,176	0,076	0,117
-394,365	-180,281	-0,046	-0,001
-393,350	253,387	0,096	0,118
-392,336	-200,000	-0,005	0,123
-391,321	-49,808	-0,069	-0,023
-390,306	36,986	0,045	-0,028
-389,292	128,106	-0,118	-0,107
-388,277	-200,000	-0,019	0,093
-387,263	-78,901	-0,069	-0,017
-386,248	143,855	0,059	-0,056
-385,233	152,623	-0,117	0,115
-384,219	197,083	0,061	0,067
-383,204	-200,000	0,009	-0,171
-382,190	800,000	-0,027	-0,084
-381,175	120,171	-0,045	0,040
-380,160	201,309	0,018	-0,020
-379,146	800,000	-0,020	-0,058
-378,131	98,812	0,042	0,035
-377,117	359,646	0,058	-0,083
-376,102	685,337	-0,098	-0,184
-375,088	-200,000	-0,021	-0,108
-374,073	269,648	0,011	-0,014
-373,058	-34,941	-0,050	0,020
-372,044	38,951	0,051	0,033
-371,029	116,232	-0,093	-0,081
-370,015	-200,000	0,001	0,025
-369,000	58,724	-0,113	-0,079
-367,985	-200,000	-0,003	-0,053
-366,971	-79,930	-0,082	0,020
-365,956	-200,000	0,011	0,062
-364,942	150,154	0,083	0,081
-363,927	-13,282	0,065	0,030
-362,912	266,526	0,034	0,043
-361,898	136,595	-0,082	-0,077
-360,883	-200,000	-0,006	0,102
-359,869	119,197	-0,132	-0,117
-358,854	22,522	0,081	0,047
-357,839	-200,000	-0,020	0,124
-356,825	481,333	0,019	-0,032
-355,810	-200,000	-0,039	0,147
-354,796	668,730	-0,005	-0,010
-353,781	297,179	-0,057	-0,075
-352,766	-200,000	0,042	-0,196
-351,752	147,841	0,031	0,030
-350,737	-43,939	-0,018	0,006
-349,723	-200,000	-0,010	0,073
-348,708	-200,000	0,001	0,090
-347,693	-158,824	-0,130	-0,005
-346,679	465,124	0,003	0,004
-345,664	-200,000	0,009	0,092
-344,650	-124,532	-0,061	0,007
-343,635	-200,000	0,004	-0,030
-342,620	219,889	0,081	-0,093
-341,606	7,360	-0,053	0,028
-340,591	89,892	-0,074	0,059
-339,577	106,667	0,061	0,052
-338,562	-157,921	-0,154	-0,006
-337,548	800,000	0,034	0,100
-336,533	54,490	0,170	0,117
-335,518	8,863	-0,074	0,040
-334,504	800,000	-0,051	0,133
-333,489	-200,000	-0,017	0,146
-332,475	89,942	-0,002	-0,002
-331,460	-96,413	-0,077	0,014
-330,445	-200,000	-0,002	0,056
-329,431	38,904	0,093	-0,059
-328,416	-36,036	0,136	0,052
-327,402	-100,315	-0,079	0,014
-326,387	-200,000	0,006	-0,038
-325,372	800,000	-0,014	-0,030
-324,358	800,000	-0,014	0,040
-323,343	-84,724	0,045	-0,010
-322,329	270,248	0,071	0,090
-321,314	349,856	-0,022	0,031
-320,299	-200,000	0,019	0,086
-319,285	-12,121	0,131	-0,061
-318,270	649,743	-0,057	0,105
-317,256	41,848	-0,087	-0,056
-316,241	-200,000	0,005	-0,059
-315,226	304,362	-0,105	0,140
-314,212	-200,000	-0,028	-0,103
-313,197	-3,662	0,070	-0,034
-312,183	-200,000	-0,007	0,173
-311,168	17,124	-0,108	0,061
-310,153	-17,455	0,094	-0,042
-309,139	33,999	-0,097	-0,060
-308,124	322,444	0,011	-0,015
-307,110	490,755	0,003	-0,005
-306,095	132,201	-0,064	0,059
-305,080	-75,521	-0,071	0,018
-304,066	-200,000	0,005	-0,073
-303,051	-200,000	-0,006	-0,061
-302,037	598,766	0,075	-0,133
-301,022	93,265	0,111	-0,089
-300,008	115,135	0,044	0,038
-298,993	-200,000	-0,009	0,140
-297,978	49,685	-0,047	0,032
-296,964	46,281	0,142	-0,094
-295,949	-135,212	-0,010	0,001
-294,935	800,000	0,047	-0,105
-293,920	101,912	0,151	0,125
-292,905	-57,268	-0,068	0,021
-291,891	-164,425	0,135	0,004
-290,876	800,000	-0,037	0,091
-289,862	141,315	-0,053	0,050
-288,847	47,089	0,050	-0,033
-287,832	-200,000	0,005	-0,128
-286,818	-130,418	-0,081	-0,008
-285,803	-53,182	-0,045	0,015
-284,789	-124,509	0,226	-0,025
-283,774	163,323	0,031	-0,031
-282,759	-200,000	0,030	-0,118
-281,745	4,635	-0,059	-0,031
-280,730	-200,000	-0,004	0,029
-279,716	664,348	0,061	0,112
-278,701	77,465	-0,065	0,049
-277,686	-200,000	-0,006	0,044
-276,672	-60,475	-0,084	0,025
-275,657	98,684	-0,043	0,035
-274,643	-47,985	-0,108	-0,037
-273,628	800,000	-0,095	-0,216
-272,613	222,183	0,066	-0,076
-271,599	-111,890	0,107	0,015
-270,584	57,721	0,082	-0,057
-269,570	190,798	0,044	-0,048
-268,555	-113,699	0,128	-0,018
-267,540	3,840	-0,121	-0,063
-266,526	-200,000	-0,002	0,035
-265,511	-90,190	-0,102	-0,021
-264,497	12,045	0,089	0,049
-263,482	-17,214	0,085	-0,038
-262,467	223,822	0,112	0,129
-261,453	12,514	0,024	-0,013
-260,438	-200,000	0,011	-0,110
-259,424	800,000	0,044	0,133
-258,409	-142,837	-0,133	0,009
-257,395	249,370	0,020	0,024
-256,380	445,180	0,062	0,098
-255,365	36,237	0,066	0,041
-254,351	800,000	0,034	0,103
-253,336	-200,000	0,012	-0,061
-252,322	800,000	-0,037	-0,089
-251,307	800,000	0,019	0,052
-250,292	278,691	-0,041	0,052
-249,278	800,000	-0,067	-0,145
-248,263	544,972	0,052	0,090
-247,249	80,343	0,121	-0,093
-246,234	241,178	-0,057	-0,068
-245,219	-159,690	-0,053	0,002
-244,205	-47,901	-0,133	-0,045
-243,190	227,164	-0,120	-0,140
-242,176	-200,000	-0,006	0,103
-241,161	-200,000	0,035	0,174
-240,146	-200,000	0,010	0,078
-239,132	449,678	-0,070	-0,110
-238,117	-117,811	0,102	0,013
-237,103	-154,310	-0,062	-0,003
-236,088	21,750	0,061	-0,035
-235,073	-148,305	0,064	-0,004
-234,059	-200,000	-0,004	0,118
-233,044	27,002	0,160	0,095
-232,030	-82,690	-0,046	0,011
-231,015	-200,000	0,005	-0,116
-230,000	-200,000	0,022	0,100
-228,986	127,869	-0,058	0,053
-227,971	-84,669	0,095	0,021
-226,957	-69,833	0,133	0,036
-225,942	356,319	0,051	0,072
-224,927	-117,030	-0,082	-0,010
-223,913	-84,124	0,076	-0,017
-222,898	-160,566	-0,081	0,003
-221,884	-12,314	0,077	-0,036
-220,869	-27,657	0,118	0,048
-219,855	-200,000	0,007	0,076
-218,840	-80,077	-0,081	0,019
-217,825	800,000	-0,030	-0,073
-216,811	-109,838	-0,112	-0,017
-215,796	169,718	-0,093	-0,095
-214,782	56,198	-0,093	-0,064
-213,767	-57,898	0,113	-0,035
-212,752	-129,182	0,070	-0,007
-211,738	188,430	-0,059	0,062
-210,723	15,938	0,044	0,024
-209,709	800,000	-0,024	0,053
-208,694	565,757	-0,055	-0,096
-207,679	-47,426	-0,141	0,048
-206,665	210,323	0,042	-0,047
-205,650	-69,917	0,186	-0,050
-204,636	-200,000	0,002	0,076
-203,621	133,516	0,045	0,041
-202,606	-200,000	-0,008	-0,056
-201,592	88,341	-0,035	0,028
-200,577	-65,543	-0,005	-0,001
-199,563	-193,186	0,048	0,000
-198,548	800,000	-0,019	-0,046
-197,533	-200,000	-0,008	0,027
-196,519	-68,266	0,066	0,018
-195,504	107,645	0,023	-0,019
-194,490	-127,183	-0,057	0,006
-193,475	88,901	0,055	-0,043
-192,460	-87,148	0,042	-0,009
-191,446	118,269	-0,006	0,005
-190,431	-97,594	0,071	-0,013
-189,417	-200,000	0,002	0,134
-188,402	-78,878	-0,104	0,025
-187,387	108,362	-0,052	-0,044
-186,373	-200,000	0,049	-0,199
-185,358	380,231	-0,045	0,066
-184,344	3,338	-0,032	0,017
-183,329	25,456	0,049	-0,029
-182,315	-24,826	0,075	0,032
-181,300	-200,000	-0,001	-0,026
-180,285	467,381	0,033	0,053
-179,271	-65,163	-0,092	0,026
-178,256	-82,341	0,070	0,016
-177,242	-31,447	0,093	-0,037
-176,227	101,673	0,030	0,025
-175,212	60,331	-0,074	0,052
-174,198	-44,776	-0,103	0,036
-173,183	119,362	0,073	-0,064
-172,169	800,000	0,064	-0,200
-171,154	-150,071	0,059	0,003
-170,139	-2,642	0,053	-0,026
-169,125	59,929	-0,086	0,060
-168,110	800,000	-0,043	0,095
-167,096	667,165	-0,075	0,137
-166,081	106,604	0,033	0,028
-165,066	-200,000	0,035	0,128
-164,052	-136,157	-0,190	-0,016
-163,037	682,351	0,091	0,169
-162,023	800,000	-0,016	0,042
-161,008	-110,943	-0,035	0,005
-159,993	800,000	0,036	0,113
-158,979	41,040	-0,021	-0,014
-157,964	341,397	0,074	-0,103
-156,950	800,000	-0,084	-0,170
-155,935	134,152	-0,024	0,022
-154,920	557,108	-0,023	-0,039
-153,906	273,540	0,065	0,082
-152,891	-30,243	-0,085	0,034
-151,877	95,617	-0,098	-0,079
-150,862	-61,182	-0,111	0,033
-149,847	151,787	-0,110	0,106
-148,833	800,000	0,041	-0,086
-147,818	-200,000	0,035	0,174
-146,804	-200,000	0,030	0,177
-145,789	16,943	-0,075	0,042
-144,775	-107,681	-0,121	0,019
-143,760	-19,390	0,041	-0,018
-142,745	576,994	-0,076	-0,132
-141,731	-200,000	-0,012	-0,079
-140,716	-6,905	0,010	-0,005
-139,702	800,000	-0,014	-0,030
-138,687	800,000	0,064	0,129
-137,672	-73,107	-0,082	-0,021
-136,658	-160,378	-0,066	0,002
-135,643	-33,422	-0,060	-0,024
-134,629	-34,703	-0,060	0,023
-133,614	170,867	0,091	-0,092
-132,599	-200,000	0,020	-0,109
-131,585	16,161	0,020	-0,011
-130,570	800,000	0,038	-0,078
-129,556	-21,451	-0,139	-0,060
-128,541	-135,933	-0,043	0,004
-127,526	-200,000	-0,005	-0,031
-126,512	-26,023	-0,137	-0,057
-125,497	114,925	0,133	0,115
-124,483	-200,000	0,016	0,127
-123,468	-200,000	0,002	0,020
-122,453	259,283	0,048	-0,058
-121,439	-70,887	-0,105	-0,028
-120,424	-200,000	0,004	0,109
-119,410	762,360	-0,055	0,106
-118,395	35,787	0,015	-0,010
-117,380	-200,000	-0,004	0,020
-116,366	233,818	-0,097	-0,113
-115,351	-23,745	-0,118	-0,050
-114,337	511,699	-0,021	-0,034
-113,322	-0,648	0,228	-0,114
-112,307	172,588	0,085	0,087
-111,293	87,939	-0,096	0,075
-110,278	5,875	-0,074	0,039
-109,264	-54,742	-0,077	-0,024
-108,249	-200,000	0,024	0,093
-107,234	354,838	-0,057	-0,081
-106,220	-129,234	0,076	-0,007
-105,205	37,570	-0,013	0,008
-104,191	800,000	0,060	-0,142
-103,176	3,696	-0,036	-0,018
-102,162	-15,502	-0,095	-0,043
-101,147	800,000	0,056	-0,148
-100,132	800,000	-0,023	-0,052
-99,118	659,761	-0,028	-0,051
-98,103	800,000	0,026	0,056
-97,089	800,000	0,022	-0,062
-96,074	582,825	0,059	0,102
-95,059	-200,000	0,007	0,021
-94,045	-200,000	0,001	0,068
-93,030	-0,436	-0,074	0,037
-92,016	225,155	-0,078	-0,090
-91,001	427,859	0,042	0,065
-89,986	-148,640	-0,104	0,006
-88,972	-37,639	-0,081	-0,030
-87,957	-113,384	0,055	0,008
-86,943	-21,768	0,103	0,044
-85,928	-200,000	-0,044	-0,158
-84,913	-115,468	0,091	0,012
-83,899	126,749	0,057	-0,051
-82,884	-200,000	-0,037	0,146
-81,870	-49,978	-0,130	0,043
-80,855	339,529	0,094	0,130
-79,840	29,892	-0,055	0,033
-78,826	-86,775	-0,104	-0,022
-77,811	800,000	0,017	0,047
-76,797	191,704	0,082	-0,088
-75,782	-200,000	-0,017	0,159
-74,767	463,173	0,046	0,073
-73,753	148,286	0,037	0,035
-72,738	483,289	-0,059	-0,095
-71,724	167,719	0,004	-0,004
-70,709	-200,000	-0,003	-0,025
-69,694	-109,527	0,107	0,016
-68,680	-31,690	-0,100	-0,039
-67,665	-200,000	-0,004	0,026
-66,651	800,000	0,094	0,242
-65,636	800,000	-0,022	0,066
-64,622	800,000	-0,018	-0,039
-63,607	45,187	-0,036	0,024
-62,592	423,610	-0,022	-0,033
-61,578	175,821	-0,088	-0,091
-60,563	124,884	0,134	-0,119
-59,549	-117,053	-0,168	0,021
-58,534	57,980	-2,281	-1,575
-57,519	623,608	-1,077	-1,924
-56,505	-200,000	-0,316	-4,460
-55,490	800,000	0,891	1,882
-54,476	800,000	5,233	11,318
-53,461	-200,000	22,857	349,352
-52,446	800,000	758,504	2277,141
-51,432	521,472	1637,259	2723,837
-50,417	71,822	1532,613	1124,248
-49,403	23,963	981,964	570,528
-48,388	12,876	618,452	336,657
-47,373	36,990	575,677	358,902
-46,359	20,926	559,759	319,593
-45,344	7,487	555,647	292,465
-44,330	7,320	553,713	291,127
-43,315	7,151	552,606	290,222
-42,300	7,223	551,544	289,784
-41,286	7,195	550,765	289,312
-40,271	7,068	550,243	288,794
-39,257	7,204	549,597	288,693
-38,242	7,330	548,655	288,418
-37,227	7,274	548,374	288,156
-36,213	7,192	547,747	287,664
-35,198	7,153	547,026	287,203
-34,184	7,331	546,617	287,303
-33,169	7,202	545,723	286,587
-32,154	7,305	545,418	286,602
-31,140	7,310	544,377	286,053
-30,125	7,403	543,767	285,889
-29,111	7,314	543,299	285,471
-28,096	7,244	543,203	285,282
-27,082	7,260	542,583	284,974
-26,067	7,368	541,969	284,835
-25,052	7,264	541,595	284,440
-24,038	7,305	541,260	284,326
-23,023	7,272	540,675	283,948
-22,009	7,303	540,606	283,957
-20,994	7,283	540,069	283,628
-19,979	7,339	539,435	283,384
-18,965	7,216	539,131	282,992
-17,950	7,360	538,701	283,013
-16,936	7,318	538,184	282,655
-15,921	7,315	537,855	282,465
-14,906	7,269	537,378	282,121
-13,892	7,197	537,021	281,795
-12,877	7,188	536,440	281,463
-11,863	7,175	536,246	281,326
-10,848	7,047	536,076	280,997
-9,833	7,193	535,762	281,083
-8,819	7,280	535,118	280,889
-7,804	7,264	534,649	280,602
-6,790	7,231	534,154	280,273
-5,775	7,262	533,940	280,204
-4,760	7,317	533,422	280,019
-3,746	7,254	533,281	279,822
-2,731	7,071	532,978	279,327
-1,717	7,073	532,667	279,156
-0,702	6,999	532,120	278,728
0,313	8,116	521,767	275,663
1,327	13,073	455,584	248,187
2,342	20,384	331,116	188,372
3,356	13,952	179,378	98,224
4,371	-14,146	121,954	55,295
5,386	-17,860	114,980	50,688
6,400	-17,951	112,738	49,660
7,415	-16,911	111,523	49,512
8,429	-17,714	110,788	48,881
9,444	-18,248	110,396	48,504
10,459	-17,881	110,182	48,543
11,473	-17,939	109,845	48,369
12,488	-17,795	109,597	48,308
13,502	-17,688	109,209	48,172
14,517	-18,106	109,234	48,025
15,531	-17,985	108,962	47,945
16,546	-17,590	108,583	47,920
17,561	-17,738	108,430	47,793
18,575	-17,784	108,470	47,790
19,590	-18,225	108,270	47,536
20,604	-17,754	108,012	47,590
21,619	-18,091	107,904	47,416
22,634	-18,014	107,639	47,323
23,648	-18,070	107,526	47,249
24,663	-17,820	107,511	47,329
25,677	-17,829	107,379	47,264
26,692	-17,884	107,231	47,174
27,707	-17,816	107,163	47,164
28,721	-17,797	106,907	47,055
29,736	-17,905	106,799	46,964
30,750	-18,196	106,746	46,832
31,765	-18,192	106,675	46,798
32,780	-17,720	106,462	46,870
33,794	-17,880	106,502	46,826
34,809	-18,241	106,119	46,524
35,823	-18,095	106,113	46,569
36,838	-18,353	106,041	46,441
37,853	-18,088	105,974	46,503
38,867	-17,903	105,786	46,482
39,882	-18,203	105,721	46,342
40,896	-17,909	105,443	46,321
41,911	-17,711	105,427	46,380
42,926	-18,302	105,451	46,177
43,940	-18,221	105,394	46,176
44,955	-17,851	105,234	46,233
45,969	-17,942	105,077	46,128
46,984	-17,854	105,099	46,164
47,999	-17,846	104,854	46,056
49,013	-17,963	104,792	45,983
50,028	-17,981	104,865	46,005
51,042	-17,641	104,553	45,983
52,057	-17,679	104,436	45,914
53,071	-17,743	104,495	45,914
54,086	-17,542	104,332	45,908
55,101	-17,757	104,123	45,737
56,115	-17,838	104,198	45,738
57,130	-17,502	103,973	45,752
58,144	-17,861	103,866	45,575
59,159	-18,114	103,879	45,489
60,174	-18,373	103,624	45,283
61,188	-17,891	103,640	45,454
62,203	-17,818	103,489	45,409
63,217	-17,545	103,335	45,432
64,232	-17,699	103,398	45,402
65,247	-17,889	103,127	45,213
66,261	-18,036	103,047	45,124
67,276	-17,861	102,970	45,146
68,290	-18,019	103,034	45,116
69,305	-18,063	102,939	45,055
70,320	-17,716	102,801	45,110
71,334	-17,813	102,663	45,012
72,349	-18,029	102,666	44,935
73,363	-18,047	102,450	44,830
74,378	-18,012	102,279	44,763
75,393	-18,069	102,308	44,752
76,407	-17,886	102,267	44,793
77,422	-18,126	102,212	44,683
78,436	-18,085	102,091	44,640
79,451	-17,644	101,812	44,665
80,466	-17,628	101,724	44,628
81,480	-17,655	101,796	44,646
82,495	-17,763	101,700	44,563
83,509	-18,073	101,627	44,421
84,524	-18,025	101,549	44,400
85,539	-17,539	101,406	44,499
86,553	-17,757	101,342	44,392
87,568	-17,770	101,334	44,380
88,582	-17,921	101,187	44,261
89,597	-17,993	101,178	44,229
90,611	-18,221	101,004	44,071
91,626	-17,635	100,931	44,234
92,641	-17,543	100,912	44,253
93,655	-17,947	100,669	44,006
94,670	-18,127	100,735	43,970
95,684	-17,766	100,523	43,995
96,699	-17,612	100,417	43,997
97,714	-17,693	100,403	43,960
98,728	-17,705	100,196	43,861
99,743	-18,285	100,217	43,671
100,757	-18,222	100,294	43,722
101,772	-17,809	100,001	43,729
102,787	-18,156	100,042	43,627
103,801	-17,648	99,923	43,741
104,816	-17,851	99,822	43,625
105,830	-17,639	99,690	43,634
106,845	-17,513	99,583	43,625
107,860	-17,785	99,654	43,562
108,874	-17,984	99,394	43,378
109,889	-18,018	99,339	43,339
110,903	-17,919	99,253	43,331
111,918	-18,159	99,264	43,252
112,933	-17,755	99,098	43,310
113,947	-17,878	99,149	43,287
114,962	-17,714	99,117	43,324
115,976	-17,662	98,805	43,201
116,991	-17,861	98,774	43,118
118,006	-18,252	98,758	42,978
119,020	-17,904	98,722	43,073
120,035	-17,313	98,612	43,216
121,049	-17,944	98,636	43,015
122,064	-17,420	98,428	43,092
123,079	-17,853	98,437	42,950
124,093	-17,968	98,176	42,795
125,108	-17,620	98,246	42,936
126,122	-17,814	98,136	42,820
127,137	-17,964	98,149	42,773
128,151	-17,812	97,868	42,696
129,166	-18,070	97,863	42,606
130,181	-17,703	97,712	42,656
131,195	-17,310	97,668	42,761
132,210	-17,775	97,581	42,568
133,224	-17,708	97,493	42,547
134,239	-17,572	97,533	42,605
135,254	-17,726	97,386	42,487
136,268	-17,579	97,320	42,502
137,283	-17,722	97,194	42,397
138,297	-17,534	97,070	42,400
139,312	-18,507	97,163	42,121
140,327	-18,013	97,007	42,210
141,341	-17,052	96,863	42,454
142,356	-17,829	96,801	42,172
143,370	-16,773	97,020	42,606
144,385	-10,465	97,841	45,019
145,400	-4,162	98,627	47,443
146,414	-1,727	98,731	48,286
147,429	-1,259	98,697	48,418
148,443	-1,508	98,565	48,268
149,458	-1,042	98,653	48,458
150,473	-0,421	98,607	48,634
151,487	-0,698	98,600	48,536
152,502	-0,472	98,501	48,557
153,516	-0,880	98,372	48,356
154,531	-0,718	98,250	48,344
155,546	-0,449	98,142	48,375
156,560	-0,919	98,229	48,260
157,575	-0,684	98,136	48,287
158,589	-0,191	98,058	48,404
159,604	-0,202	97,922	48,329
160,619	-0,429	97,855	48,218
161,633	-0,783	97,956	48,149
162,648	-0,150	97,776	48,261
163,662	-0,445	97,785	48,166
164,677	-0,373	97,708	48,146
165,692	-0,309	97,643	48,131
166,706	-0,383	97,600	48,082
167,721	-0,328	97,492	48,042
168,735	0,142	97,308	48,098
169,750	-0,127	97,402	48,053
170,764	-0,341	97,293	47,927
171,779	-0,084	97,304	48,010
172,794	-0,266	97,207	47,900
173,808	0,005	97,013	47,887
174,823	-0,243	96,971	47,782
175,837	-0,788	96,893	47,565
176,852	-0,563	96,848	47,611
177,867	0,109	96,707	47,752
178,881	-0,363	96,882	47,683
179,896	-0,118	96,687	47,661
180,910	0,395	96,578	47,766
181,925	-0,472	96,649	47,521
182,940	-0,812	96,455	47,313
183,954	-0,176	96,490	47,528
184,969	0,042	96,402	47,550
185,983	0,099	96,222	47,475
186,998	0,187	96,217	47,496
188,013	0,079	96,161	47,430
189,027	-0,523	96,036	47,174
190,042	-0,277	96,127	47,292
191,056	0,233	95,815	47,296
192,071	0,319	95,907	47,364
193,086	0,487	95,835	47,377
194,100	0,067	95,841	47,244
195,115	0,579	95,370	47,168
196,129	0,029	95,661	47,134
197,144	-0,050	95,412	46,983
198,159	-0,013	95,457	47,012
199,173	-0,035	95,543	47,043
200,188	0,389	95,277	47,041
201,202	-0,310	95,297	46,827
202,217	0,668	95,277	47,121
203,232	0,006	95,102	46,823
204,246	0,482	94,965	46,899
205,261	-0,252	94,998	46,682
206,275	0,319	94,759	46,739
207,290	-0,217	94,991	46,681
208,304	0,736	94,749	46,855
209,319	0,271	94,615	46,640
210,334	0,298	94,613	46,644
211,348	-0,160	94,506	46,444
212,363	0,202	94,512	46,556
213,377	0,276	94,452	46,545
214,392	0,348	94,460	46,567
215,407	0,546	94,271	46,531
216,421	0,242	94,205	46,400
217,436	-0,022	94,088	46,257
218,450	-0,152	94,195	46,265
219,465	0,328	94,095	46,360
220,480	0,474	93,902	46,306
221,494	-0,266	94,011	46,127
222,509	0,132	93,853	46,168
223,523	0,496	93,786	46,243
224,538	0,131	93,743	46,105
225,553	0,104	93,650	46,047
226,567	0,483	93,557	46,114
227,582	-0,088	93,466	45,890
228,596	0,047	93,603	45,994
229,611	0,198	93,426	45,949
230,626	0,253	93,344	45,922
231,640	0,456	93,254	45,936
232,655	0,495	93,176	45,905
233,669	0,414	93,033	45,806
234,684	0,510	93,041	45,835
235,699	0,080	93,169	45,763
236,713	1,080	93,066	46,013
237,728	1,030	92,830	45,877
238,742	0,611	92,750	45,706
239,757	0,584	92,834	45,735
240,772	0,786	92,727	45,740
241,786	0,060	92,698	45,501
242,801	0,628	92,632	45,637
243,815	0,798	92,514	45,626
244,830	0,762	92,451	45,580
245,844	0,019	92,523	45,386
246,859	0,756	92,262	45,477
247,874	0,642	92,283	45,449
248,888	0,717	92,103	45,379
249,903	0,331	92,212	45,312
250,917	0,151	92,193	45,244
251,932	0,902	91,997	45,370
252,947	0,377	92,159	45,287
253,961	0,764	91,921	45,283
254,976	0,665	91,844	45,212
255,990	0,638	91,739	45,147
257,005	0,808	91,746	45,198
258,020	0,925	91,648	45,181
259,034	0,808	91,602	45,119
260,049	0,893	91,541	45,110
261,063	0,651	91,467	44,998
262,078	0,615	91,351	44,926
263,093	0,431	91,358	44,870
264,107	0,910	91,319	44,990
265,122	0,605	91,224	44,848
266,136	0,679	91,250	44,879
267,151	0,061	91,324	44,727
268,166	1,060	91,015	44,869
269,180	0,661	91,007	44,743
270,195	0,934	90,758	44,697
271,209	1,426	90,792	44,856
272,224	0,726	90,835	44,665
273,239	0,404	90,853	44,574
274,253	0,825	90,696	44,618
275,268	1,061	90,425	44,551
276,282	0,628	90,549	44,479
277,297	0,369	90,570	44,409
278,312	0,926	90,395	44,484
279,326	0,522	90,334	44,331
280,341	0,752	90,269	44,363
281,355	1,150	90,296	44,490
282,370	0,817	90,199	44,339
283,384	0,793	90,186	44,322
284,399	1,228	90,038	44,374
285,414	1,470	89,996	44,420
286,428	1,084	90,081	44,344
287,443	0,953	89,918	44,222
288,457	0,790	89,895	44,159
289,472	0,756	89,928	44,161
290,487	0,896	89,772	44,121
291,501	1,255	89,752	44,213
292,516	0,954	89,542	44,018
293,530	1,118	89,590	44,085
294,545	1,330	89,540	44,119
295,560	1,335	89,504	44,098
296,574	1,398	89,444	44,083
297,589	1,080	89,289	43,910
298,603	1,371	89,275	43,984
299,618	1,291	89,229	43,934
300,633	1,203	89,244	43,912
301,647	1,358	89,172	43,918
302,662	0,769	89,054	43,685
303,676	1,950	88,923	43,959
304,691	1,097	88,989	43,740
305,706	1,080	88,963	43,719
306,720	1,235	88,699	43,630
307,735	1,516	88,715	43,715
308,749	0,937	88,856	43,613
309,764	1,655	88,622	43,701
310,779	1,220	88,600	43,561
311,793	1,255	88,415	43,476
312,808	1,192	88,547	43,519
313,822	1,610	88,311	43,520
314,837	1,094	88,307	43,365
315,852	1,447	88,227	43,424
316,866	1,219	88,294	43,388
317,881	1,037	88,180	43,275
318,895	1,337	88,073	43,305
319,910	0,977	88,056	43,189
320,925	1,568	87,937	43,296
321,939	1,144	88,009	43,207
322,954	1,534	87,826	43,224
323,968	0,940	87,937	43,105
324,983	1,602	87,762	43,204
325,997	1,043	87,669	42,996
327,012	1,638	87,538	43,097
328,027	1,257	87,585	43,008
329,041	1,450	87,509	43,021
330,056	1,616	87,545	43,082
331,070	1,572	87,497	43,043
332,085	1,428	87,460	42,980
333,100	1,556	87,322	42,944
334,114	0,966	87,339	42,781
335,129	0,970	87,173	42,697
336,143	0,588	87,220	42,608
337,158	1,295	87,126	42,759
338,173	2,144	86,973	42,920
339,187	2,057	86,994	42,902
340,202	1,639	86,874	42,721
341,216	1,521	86,860	42,677
342,231	1,133	86,837	42,552
343,246	1,324	86,734	42,552
344,260	1,361	86,623	42,504
345,275	2,196	86,644	42,745
346,289	1,370	86,692	42,533
347,304	1,275	86,618	42,466
348,319	1,632	86,451	42,481
349,333	1,149	86,462	42,346
350,348	1,987	86,261	42,479
351,362	1,376	86,372	42,359
352,377	1,370	86,220	42,278
353,392	1,639	86,159	42,320
354,406	1,417	86,126	42,238
355,421	201,805	1315,906	1389,603
356,435	157,650	1466,189	1390,056
