DTS Sentinel unit serial number:	SN410029Multiplexer serial number:	ORYXHardware model number:	OX2-SRSoftware version number:	ORYX F/W v4,00 Oryx Data Collector v3.7.2.0data status	okinstallation	B3 Nyhavnadifferential loss correction	single-endedforward channel	channel 1reverse channel	N/Adate	2023/11/28time	13:57:30forward acquisition time	300,00reverse acquisition time	0,00gamma	499,1914k internal	0,3139k external	0,3139temperature offset calibration	1,0000default loss term (dB/km)	0,3820temperature slope calibration	1,0000multiplexer offset coefficient	1,0000multiplexer slope coefficient	1,0000fibre end	0,00T internal ref (°C)	7,63T ext. ref 1 (°C)	-7,75T ext. ref 2 (°C)	-7,89length (m)	temperature (°C)	Stokes	anti-Stokes-744,400	158,025	-0,217	-0,223
-743,385	800,000	-0,104	0,241
-742,371	281,152	-0,132	-0,175
-741,356	285,331	0,135	0,180
-740,342	322,682	-0,083	-0,118
-739,327	800,000	-0,082	0,184
-738,312	91,717	-0,205	-0,171
-737,298	-200,000	0,032	0,254
-736,283	685,893	-0,133	-0,259
-735,269	-200,000	0,051	0,372
-734,254	-44,631	-0,150	-0,055
-733,239	-55,598	-0,304	0,100
-732,225	412,049	-0,095	-0,151
-731,210	79,537	0,189	0,150
-730,196	328,728	0,075	0,107
-729,181	61,129	-0,091	0,067
-728,167	-200,000	-0,027	-0,123
-727,152	-98,408	-0,141	-0,027
-726,137	12,954	-0,119	0,068
-725,123	-82,422	0,116	0,028
-724,108	792,853	-0,051	-0,104
-723,094	711,982	-0,123	-0,242
-722,079	107,618	-0,099	-0,087
-721,064	548,324	-0,081	-0,144
-720,050	-37,882	0,088	0,034
-719,035	74,392	-0,124	-0,097
-718,021	800,000	-0,015	-0,036
-717,006	-104,810	-0,161	0,027
-715,991	192,731	-0,076	-0,085
-714,977	799,351	0,057	-0,118
-713,962	-87,018	-0,048	0,011
-712,948	84,000	0,040	-0,032
-711,933	75,986	0,058	0,045
-710,918	691,607	0,020	-0,039
-709,904	800,000	-0,044	-0,130
-708,889	-85,672	-0,136	-0,031
-707,875	-200,000	0,030	-0,100
-706,860	-126,913	-0,065	-0,007
-705,845	-200,000	-0,016	0,094
-704,831	-0,449	0,075	0,039
-703,816	-200,000	0,038	-0,188
-702,802	67,793	-0,066	-0,050
-701,787	-118,909	-0,114	0,015
-700,772	-200,000	-0,023	-0,122
-699,758	-12,692	-0,121	0,058
-698,743	800,000	0,004	-0,010
-697,729	290,797	-0,024	0,033
-696,714	800,000	0,046	0,114
-695,699	-149,012	-0,213	0,012
-694,685	800,000	-0,079	-0,185
-693,670	103,403	-0,077	-0,067
-692,656	-89,796	-0,163	0,035
-691,641	51,828	-0,060	0,042
-690,627	-16,088	0,098	0,046
-689,612	78,449	0,038	-0,030
-688,597	-200,000	-0,029	-0,101
-687,583	-93,286	0,068	-0,014
-686,568	81,287	-0,150	-0,120
-685,554	800,000	-0,012	-0,040
-684,539	184,295	0,041	-0,045
-683,524	-65,919	-0,168	0,049
-682,510	-32,843	0,007	-0,003
-681,495	800,000	-0,027	0,080
-680,481	299,404	-0,101	-0,138
-679,466	-200,000	0,015	-0,110
-678,451	800,000	0,023	-0,057
-677,437	557,175	0,043	-0,076
-676,422	-200,000	0,005	0,030
-675,408	-20,980	0,050	-0,023
-674,393	-88,218	-0,054	-0,012
-673,378	289,875	-0,027	-0,037
-672,364	-200,000	-0,032	-0,152
-671,349	-68,261	-0,143	-0,041
-670,335	306,331	-0,096	0,132
-669,320	800,000	0,028	0,070
-668,305	-200,000	0,004	-0,019
-667,291	596,122	-0,044	0,080
-666,276	-46,504	-0,074	-0,027
-665,262	-109,633	-0,083	-0,013
-664,247	-2,491	0,012	0,006
-663,232	787,838	-0,037	0,076
-662,218	43,980	0,111	0,075
-661,203	344,297	-0,096	0,140
-660,189	-200,000	0,003	-0,026
-659,174	7,014	-0,145	-0,080
-658,159	-31,598	0,010	0,004
-657,145	124,627	0,073	-0,068
-656,130	800,000	-0,027	-0,068
-655,116	800,000	-0,024	0,063
-654,101	800,000	-0,022	-0,061
-653,086	-54,572	0,068	0,023
-652,072	-151,848	-0,073	0,004
-651,057	69,006	-0,070	-0,053
-650,043	-200,000	0,003	0,077
-649,028	-48,956	0,058	-0,020
-648,014	179,159	0,065	0,071
-646,999	-77,700	-0,030	-0,008
-645,984	37,401	0,036	0,024
-644,970	-53,040	-0,029	-0,010
-643,955	-44,392	-0,166	-0,061
-642,941	800,000	-0,016	-0,042
-641,926	-25,888	-0,036	0,016
-640,911	-200,000	0,002	0,046
-639,897	-48,820	0,076	0,027
-638,882	-200,000	-0,009	0,036
-637,868	-200,000	0,002	0,104
-636,853	-54,991	-0,047	0,016
-635,838	-18,255	-0,174	-0,080
-634,824	-18,411	0,037	0,017
-633,809	800,000	0,039	0,085
-632,795	-97,542	-0,059	-0,011
-631,780	-50,756	-0,085	0,029
-630,765	-200,000	0,031	0,125
-629,751	-200,000	0,006	-0,094
-628,736	462,401	-0,051	-0,084
-627,722	-49,804	0,056	-0,020
-626,707	800,000	0,054	-0,144
-625,692	766,660	0,040	0,082
-624,678	-200,000	0,008	0,043
-623,663	217,897	-0,113	0,133
-622,649	170,490	-0,023	-0,024
-621,634	110,472	-0,014	-0,012
-620,619	800,000	0,034	-0,094
-619,605	147,450	0,083	-0,083
-618,590	344,886	0,092	0,134
-617,576	-135,243	-0,056	-0,005
-616,561	-127,298	0,068	-0,007
-615,546	13,938	0,053	0,030
-614,532	41,547	-0,042	0,028
-613,517	266,672	-0,051	-0,066
-612,503	6,503	-0,085	0,046
-611,488	168,712	0,008	-0,008
-610,474	-200,000	-0,008	0,064
-609,459	223,492	-0,040	0,048
-608,444	800,000	-0,032	-0,072
-607,430	800,000	0,034	-0,080
-606,415	678,820	0,070	-0,135
-605,401	-111,580	-0,034	-0,005
-604,386	-121,838	0,101	-0,012
-603,371	459,390	-0,048	0,079
-602,357	-75,904	0,093	0,024
-601,342	23,471	-0,046	0,028
-600,328	545,967	-0,097	-0,172
-599,313	-96,198	-0,086	0,017
-598,298	150,801	-0,034	0,034
-597,284	671,034	0,032	0,061
-596,269	57,828	0,059	-0,043
-595,255	800,000	-0,036	0,082
-594,240	-200,000	-0,009	0,039
-593,225	-170,309	-0,188	-0,005
-592,211	800,000	-0,045	-0,118
-591,196	29,524	0,130	-0,081
-590,182	800,000	0,007	-0,019
-589,167	38,823	0,035	-0,023
-588,152	42,864	0,096	0,064
-587,138	800,000	-0,011	-0,029
-586,123	-116,264	-0,247	-0,033
-585,109	-200,000	0,027	-0,175
-584,094	-200,000	-0,003	-0,045
-583,079	373,458	-0,049	0,074
-582,065	-44,836	0,018	0,007
-581,050	-84,899	-0,071	0,016
-580,036	18,715	-0,182	0,107
-579,021	-200,000	-0,016	0,136
-578,006	-70,691	-0,019	0,005
-576,992	-47,742	-0,077	0,027
-575,977	354,534	0,012	-0,017
-574,963	-51,024	0,063	0,022
-573,948	89,819	0,038	-0,031
-572,934	136,796	0,047	-0,045
-571,919	-94,295	0,042	0,008
-570,904	-200,000	0,012	-0,097
-569,890	596,552	-0,073	-0,133
-568,875	-55,612	0,058	-0,019
-567,861	-124,448	0,082	-0,009
-566,846	-200,000	0,003	-0,029
-565,831	-76,340	-0,128	-0,033
-564,817	472,877	-0,084	-0,141
-563,802	237,840	-0,112	-0,137
-562,788	-200,000	-0,015	-0,097
-561,773	-91,031	0,079	-0,016
-560,758	800,000	-0,016	-0,047
-559,744	-34,214	0,118	0,047
-558,729	581,566	0,017	-0,031
-557,715	29,156	-0,116	0,072
-556,700	735,807	-0,057	-0,114
-555,685	87,254	-0,120	-0,098
-554,671	800,000	-0,037	0,102
-553,656	800,000	0,009	-0,024
-552,642	-200,000	-0,018	0,098
-551,627	800,000	-0,041	0,128
-550,612	-68,187	-0,146	-0,041
-549,598	329,066	0,041	-0,058
-548,583	-200,000	-0,004	0,025
-547,569	800,000	-0,037	0,081
-546,554	343,304	0,035	0,051
-545,539	169,737	0,043	-0,045
-544,525	800,000	-0,017	0,047
-543,510	-50,546	0,059	-0,020
-542,496	-200,000	0,013	-0,060
-541,481	-116,913	-0,009	-0,001
-540,466	800,000	-0,020	-0,061
-539,452	-200,000	-0,012	0,084
-538,437	384,595	0,046	0,070
-537,423	55,319	0,167	0,118
-536,408	404,463	-0,014	0,022
-535,393	35,890	0,018	-0,012
-534,379	289,441	0,063	-0,084
-533,364	84,864	-0,045	-0,037
-532,350	52,452	0,068	0,048
-531,335	589,593	-0,067	0,122
-530,321	157,780	-0,088	0,090
-529,306	129,767	-0,084	0,079
-528,291	-11,401	-0,116	0,056
-527,277	-200,000	0,014	0,097
-526,262	800,000	-0,009	0,021
-525,248	-121,281	0,072	0,009
-524,233	-200,000	0,005	-0,037
-523,218	-65,416	0,119	-0,035
-522,204	448,565	-0,053	-0,086
-521,189	-200,000	-0,013	-0,068
-520,175	-200,000	0,035	-0,181
-519,160	-200,000	-0,026	0,122
-518,145	-20,856	-0,158	0,071
-517,131	-77,003	0,068	-0,017
-516,116	800,000	0,058	0,131
-515,102	103,481	0,064	0,055
-514,087	683,251	-0,084	-0,161
-513,072	-73,729	0,106	-0,028
-512,058	-200,000	-0,019	0,081
-511,043	-200,000	0,013	-0,061
-510,029	330,310	0,016	-0,022
-509,014	29,841	0,067	0,042
-507,999	-200,000	-0,020	0,101
-506,985	-200,000	-0,006	-0,091
-505,970	-200,000	0,004	-0,095
-504,956	-115,175	-0,101	-0,014
-503,941	107,720	0,074	-0,065
-502,926	800,000	0,041	-0,127
-501,912	31,798	0,067	0,042
-500,897	-131,216	0,070	0,007
-499,883	98,521	0,036	0,031
-498,868	-138,088	-0,108	-0,009
-497,853	-32,097	-0,044	-0,018
-496,839	-54,280	0,109	0,036
-495,824	-136,519	0,113	0,009
-494,810	-200,000	-0,046	0,163
-493,795	114,601	-0,050	0,045
-492,781	800,000	-0,026	-0,083
-491,766	144,906	-0,122	-0,119
-490,751	0,352	-0,010	0,005
-489,737	441,768	-0,055	-0,089
-488,722	-200,000	-0,013	-0,095
-487,708	198,218	0,078	0,087
-486,693	-200,000	0,002	-0,009
-485,678	800,000	0,048	-0,134
-484,664	-60,173	0,140	0,044
-483,649	198,895	0,037	-0,041
-482,635	-200,000	-0,049	-0,174
-481,620	-24,297	-0,121	0,053
-480,605	-200,000	0,027	-0,096
-479,591	758,822	0,024	-0,048
-478,576	800,000	-0,035	-0,093
-477,562	-88,029	-0,087	-0,019
-476,547	29,712	-0,154	-0,096
-475,532	-200,000	-0,023	-0,125
-474,518	-80,051	-0,047	-0,011
-473,503	800,000	0,031	-0,074
-472,489	362,658	0,048	-0,071
-471,474	800,000	0,069	0,173
-470,459	800,000	0,013	-0,035
-469,445	159,275	0,050	-0,051
-468,430	800,000	-0,034	-0,070
-467,416	762,775	0,042	0,083
-466,401	1,386	0,025	0,013
-465,386	-138,411	0,064	0,005
-464,372	800,000	0,039	-0,083
-463,357	-157,628	-0,033	-0,001
-462,343	-200,000	-0,016	0,113
-461,328	291,240	0,055	-0,073
-460,313	569,869	-0,042	-0,074
-459,299	35,306	0,099	0,064
-458,284	-200,000	0,000	-0,006
-457,270	-200,000	0,003	0,028
-456,255	356,748	-0,083	-0,121
-455,241	48,517	0,099	0,068
-454,226	-200,000	0,012	-0,075
-453,211	-200,000	-0,025	-0,102
-452,197	307,387	-0,061	0,084
-451,182	-200,000	-0,024	0,126
-450,168	-109,210	-0,099	0,015
-449,153	800,000	-0,038	0,090
-448,138	-146,937	0,092	-0,006
-447,124	768,063	-0,040	-0,081
-446,109	237,010	0,047	-0,057
-445,095	0,742	0,131	-0,068
-444,080	-200,000	0,008	0,100
-443,065	-200,000	0,015	0,051
-442,051	-200,000	-0,004	-0,034
-441,036	16,671	0,068	-0,040
-440,022	800,000	-0,030	-0,064
-439,007	66,890	-0,066	-0,049
-437,992	-200,000	-0,000	0,038
-436,978	-70,764	-0,071	-0,019
-435,963	-22,820	0,067	-0,029
-434,949	703,485	-0,035	-0,069
-433,934	740,573	-0,045	0,088
-432,919	-200,000	-0,018	0,170
-431,905	-200,000	-0,002	0,008
-430,890	-88,196	-0,035	-0,008
-429,876	-200,000	-0,014	0,118
-428,861	800,000	-0,046	0,144
-427,846	-200,000	-0,026	0,122
-426,832	-200,000	-0,010	0,052
-425,817	-51,612	-0,104	0,035
-424,803	-126,462	0,069	-0,007
-423,788	39,914	0,008	-0,006
-422,773	82,981	-0,026	0,021
-421,759	662,308	-0,043	0,082
-420,744	800,000	0,065	0,189
-419,730	35,461	-0,109	-0,070
-418,715	525,993	0,053	-0,091
-417,701	116,267	-0,043	0,039
-416,686	288,349	0,071	0,094
-415,671	207,829	0,067	0,077
-414,657	-13,864	-0,020	-0,009
-413,642	-9,141	-0,041	-0,020
-412,628	-101,505	-0,039	-0,007
-411,613	83,857	0,051	-0,041
-410,598	-200,000	-0,010	-0,087
-409,584	284,811	0,020	-0,026
-408,569	-183,159	0,078	-0,001
-407,555	-200,000	-0,062	0,000
-406,540	-169,091	0,161	0,004
-405,525	800,000	0,031	0,080
-404,511	-161,498	-0,088	-0,003
-403,496	-67,671	0,085	0,024
-402,482	-200,000	-0,003	0,050
-401,467	-200,000	0,019	0,070
-400,452	-200,000	-0,014	0,179
-399,438	-64,894	0,028	-0,008
-398,423	-200,000	-0,003	-0,105
-397,409	429,497	-0,037	0,059
-396,394	-106,857	0,079	0,013
-395,379	-200,000	0,003	0,062
-394,365	-45,627	0,105	-0,038
-393,350	-117,772	0,060	-0,008
-392,336	576,550	-0,037	0,067
-391,321	800,000	-0,060	0,150
-390,306	-200,000	0,026	-0,093
-389,292	84,422	-0,020	-0,016
-388,277	83,524	0,010	-0,008
-387,263	190,629	-0,071	-0,078
-386,248	-132,783	0,108	-0,010
-385,233	435,340	-0,018	0,029
-384,219	-28,594	-0,071	-0,030
-383,204	706,359	-0,040	-0,077
-382,190	-200,000	0,021	-0,139
-381,175	-200,000	-0,034	-0,152
-380,160	-28,271	-0,069	0,029
-379,146	-200,000	-0,017	-0,071
-378,131	101,870	0,056	0,048
-377,117	661,308	-0,040	-0,076
-376,102	-8,089	-0,057	-0,028
-375,088	800,000	0,064	-0,157
-374,073	-200,000	-0,009	-0,052
-373,058	-52,582	0,081	0,027
-372,044	378,870	-0,049	-0,073
-371,029	466,148	-0,086	0,142
-370,015	800,000	0,033	0,086
-369,000	39,981	0,029	0,019
-367,985	-85,215	-0,141	-0,032
-366,971	800,000	-0,045	-0,125
-365,956	77,082	0,018	0,014
-364,942	192,604	-0,053	0,058
-363,927	359,338	0,014	0,021
-362,912	-200,000	0,017	-0,117
-361,898	133,030	-0,113	-0,107
-360,883	643,998	0,054	-0,101
-359,869	711,904	0,057	0,110
-358,854	800,000	-0,052	0,159
-357,839	261,333	-0,148	0,188
-356,825	-49,304	0,123	-0,043
-355,810	-124,025	-0,149	0,017
-354,796	-200,000	-0,001	0,017
-353,781	-127,957	0,064	0,007
-352,766	-43,179	-0,093	-0,034
-351,752	287,529	0,037	-0,049
-350,737	800,000	-0,038	-0,092
-349,723	358,023	-0,077	0,112
-348,708	-158,506	0,035	0,001
-347,693	-60,758	-0,081	-0,025
-346,679	800,000	0,022	-0,049
-345,664	561,459	0,102	0,181
-344,650	451,080	-0,080	0,129
-343,635	-54,847	0,100	-0,033
-342,620	-1,209	-0,085	0,044
-341,606	800,000	0,019	0,054
-340,591	-200,000	-0,007	0,045
-339,577	-130,653	0,037	-0,004
-338,562	-31,181	-0,027	0,011
-337,548	231,243	-0,047	0,056
-336,533	-200,000	0,026	0,119
-335,518	-200,000	-0,009	-0,030
-334,504	-78,224	0,078	-0,020
-333,489	94,044	0,063	0,052
-332,475	800,000	0,036	-0,101
-331,460	800,000	0,024	0,054
-330,445	-103,963	0,081	0,014
-329,431	-194,445	0,074	0,000
-328,416	23,124	0,109	0,065
-327,402	-200,000	0,001	0,041
-326,387	-47,941	-0,175	-0,061
-325,372	-200,000	0,010	-0,107
-324,358	359,077	-0,111	0,162
-323,343	-88,024	0,190	0,041
-322,329	-169,344	0,039	0,001
-321,314	314,599	0,069	0,096
-320,299	-19,400	0,067	0,030
-319,285	767,723	-0,043	-0,086
-318,270	75,553	-0,100	-0,077
-317,256	81,929	-0,076	-0,060
-316,241	-200,000	-0,019	-0,070
-315,226	680,424	0,051	0,098
-314,212	-42,858	-0,055	0,020
-313,197	363,325	0,021	-0,030
-312,183	-114,364	0,066	0,009
-311,168	419,024	0,010	-0,016
-310,153	-200,000	-0,008	-0,117
-309,139	163,449	0,031	0,032
-308,124	730,405	0,058	-0,114
-307,110	193,736	0,089	0,098
-306,095	-65,805	0,086	-0,025
-305,080	713,893	-0,031	0,059
-304,066	12,776	-0,108	0,061
-303,051	25,357	-0,020	0,012
-302,037	360,830	-0,039	0,057
-301,022	105,817	0,046	-0,040
-300,008	51,788	0,151	-0,104
-298,993	518,727	-0,064	-0,110
-297,978	52,896	0,065	-0,046
-296,964	-200,000	0,004	0,025
-295,949	800,000	0,070	-0,144
-294,935	39,485	-0,095	-0,062
-293,920	-133,824	0,057	0,005
-292,905	-200,000	0,000	0,074
-291,891	-3,114	0,054	-0,027
-290,876	13,328	0,054	-0,030
-289,862	-200,000	-0,006	0,061
-288,847	800,000	-0,064	-0,171
-287,832	176,621	-0,058	-0,061
-286,818	-200,000	-0,022	-0,131
-285,803	-200,000	-0,007	-0,059
-284,789	-8,349	-0,139	0,068
-283,774	660,068	-0,062	0,116
-282,759	-200,000	-0,011	-0,038
-281,745	-102,425	0,046	0,008
-280,730	800,000	-0,041	-0,117
-279,716	800,000	-0,009	-0,023
-278,701	-72,954	0,073	0,019
-277,686	-143,368	0,014	-0,001
-276,672	-200,000	0,016	-0,067
-275,657	-200,000	-0,037	-0,129
-274,643	544,045	-0,017	0,029
-273,628	-187,861	-0,171	-0,002
-272,613	-4,940	0,015	-0,008
-271,599	-200,000	-0,013	0,179
-270,584	213,262	0,131	0,151
-269,570	-200,000	-0,013	0,091
-268,555	800,000	0,040	0,086
-267,540	-50,332	0,088	0,030
-266,526	800,000	-0,032	-0,083
-265,511	91,484	0,110	0,090
-264,497	332,179	0,035	-0,050
-263,482	294,701	0,055	0,074
-262,467	-61,843	0,108	-0,033
-261,453	462,144	0,094	0,154
-260,438	-174,671	-0,113	-0,002
-259,424	-70,005	-0,122	-0,034
-258,409	72,445	-0,112	-0,085
-257,395	222,469	0,074	0,087
-256,380	110,258	0,035	0,030
-255,365	567,646	0,043	0,076
-254,351	600,115	-0,044	-0,080
-253,336	344,725	-0,003	-0,004
-252,322	169,344	0,040	0,041
-251,307	800,000	-0,067	-0,171
-250,292	19,433	0,133	0,078
-249,278	95,899	0,032	0,027
-248,263	0,379	0,142	-0,074
-247,249	32,653	-0,063	0,039
-246,234	-200,000	0,008	0,044
-245,219	123,942	0,061	-0,056
-244,205	-200,000	0,003	0,059
-243,190	-111,880	0,105	0,015
-242,176	-200,000	0,021	0,159
-241,161	-200,000	-0,001	0,127
-240,146	84,268	0,017	-0,014
-239,132	-23,145	-0,038	-0,017
-238,117	-67,939	0,036	-0,010
-237,103	116,403	0,116	-0,104
-236,088	560,429	-0,016	-0,028
-235,073	-112,715	0,097	-0,014
-234,059	39,519	0,020	0,013
-233,044	32,357	0,089	0,056
-232,030	-78,504	0,016	-0,004
-231,015	-200,000	-0,006	-0,091
-230,000	-200,000	0,001	-0,193
-228,986	58,392	0,105	0,075
-227,971	0,003	0,085	0,044
-226,957	-175,111	0,129	-0,003
-225,942	-200,000	0,003	-0,049
-224,927	-3,738	-0,084	-0,042
-223,913	800,000	0,047	-0,141
-222,898	201,128	-0,133	-0,149
-221,884	57,139	-0,139	0,098
-220,869	800,000	0,011	0,026
-219,855	662,208	0,035	0,066
-218,840	117,343	0,094	0,084
-217,825	499,833	-0,059	0,099
-216,811	-104,999	-0,069	0,011
-215,796	-200,000	-0,001	-0,055
-214,782	800,000	-0,030	-0,074
-213,767	-90,817	0,109	0,023
-212,752	-83,108	0,132	0,031
-211,738	800,000	0,019	-0,048
-210,723	-200,000	-0,011	0,043
-209,709	800,000	-0,011	0,030
-208,694	748,269	0,026	0,051
-207,679	-200,000	0,004	-0,053
-206,665	-200,000	-0,009	0,069
-205,650	378,764	-0,009	0,013
-204,636	365,620	0,016	-0,024
-203,621	-98,456	0,033	-0,006
-202,606	-3,143	-0,049	0,025
-201,592	736,355	-0,028	-0,054
-200,577	474,289	0,020	-0,032
-199,563	308,507	0,030	0,041
-198,548	28,646	0,064	-0,039
-197,533	9,945	-0,065	0,036
-196,519	152,551	0,046	0,045
-195,504	-144,073	-0,108	0,007
-194,490	251,482	-0,153	0,190
-193,475	800,000	0,020	-0,043
-192,460	545,348	-0,039	0,069
-191,446	800,000	0,035	-0,099
-190,431	54,460	-0,132	-0,092
-189,417	-142,357	-0,020	0,001
-188,402	-136,158	-0,003	-0,000
-187,387	-200,000	0,023	-0,080
-186,373	6,711	-0,078	0,042
-185,358	-131,209	0,048	0,005
-184,344	173,636	0,069	0,072
-183,329	-8,546	0,085	0,041
-182,315	-200,000	0,019	0,197
-181,300	-200,000	0,022	-0,109
-180,285	-200,000	-0,002	-0,014
-179,271	473,959	-0,102	-0,168
-178,256	300,255	0,110	-0,148
-177,242	-200,000	-0,010	-0,126
-176,227	189,529	-0,067	0,073
-175,212	-163,992	-0,046	-0,002
-174,198	278,245	0,024	0,031
-173,183	6,458	-0,080	0,043
-172,169	-200,000	-0,029	-0,150
-171,154	2,303	-0,085	0,044
-170,139	107,114	0,040	0,034
-169,125	-200,000	0,107	0,000
-168,110	145,709	0,083	0,081
-167,096	-200,000	-0,003	0,138
-166,081	178,395	-0,114	-0,121
-165,066	-200,000	-0,002	-0,125
-164,052	-151,337	0,046	-0,002
-163,037	-200,000	0,024	0,102
-162,023	-200,000	-0,045	0,173
-161,008	71,314	0,067	0,050
-159,993	106,717	0,131	0,113
-158,979	7,385	0,029	0,016
-157,964	94,806	-0,131	-0,108
-156,950	-2,064	0,110	0,056
-155,935	16,821	-0,055	-0,032
-154,920	790,897	-0,021	0,041
-153,906	-200,000	-0,001	0,144
-152,891	-200,000	-0,114	-0,000
-151,877	-200,000	-0,007	-0,096
-150,862	150,962	0,040	-0,040
-149,847	-68,588	0,076	-0,021
-148,833	462,591	-0,033	0,053
-147,818	-62,239	-0,042	-0,012
-146,804	109,263	0,071	0,062
-145,789	130,150	0,097	-0,090
-144,775	-200,000	-0,004	-0,080
-143,760	-3,857	-0,065	0,032
-142,745	-124,736	-0,023	-0,002
-141,731	223,854	-0,050	0,058
-140,716	800,000	0,055	0,123
-139,702	-200,000	0,026	-0,095
-138,687	-200,000	-0,002	-0,053
-137,672	696,206	-0,046	-0,088
-136,658	-64,512	-0,055	-0,016
-135,643	800,000	0,019	0,048
-134,629	-76,814	0,074	0,019
-133,614	-71,092	0,102	0,028
-132,599	193,836	-0,064	-0,071
-131,585	-200,000	0,021	0,079
-130,570	-112,463	-0,134	-0,019
-129,556	508,936	0,052	-0,087
-128,541	347,945	0,066	-0,094
-127,526	310,828	-0,009	0,012
-126,512	-200,000	0,003	0,082
-125,497	-125,727	0,237	-0,026
-124,483	125,956	-0,075	0,069
-123,468	-53,338	0,050	-0,016
-122,453	-200,000	-0,059	-0,201
-121,439	-103,336	-0,075	0,013
-120,424	-200,000	0,008	-0,065
-119,410	360,836	-0,038	-0,055
-118,395	-200,000	0,011	0,124
-117,380	-112,375	0,144	-0,021
-116,366	-62,935	-0,107	0,032
-115,351	800,000	0,021	-0,056
-114,337	15,399	0,016	-0,009
-113,322	-184,028	0,067	0,001
-112,307	-109,334	-0,098	0,015
-111,293	-15,376	0,102	0,047
-110,278	263,405	-0,093	0,117
-109,264	-200,000	0,008	-0,030
-108,249	-200,000	-0,029	-0,160
-107,234	-195,634	-0,056	-0,000
-106,220	-36,580	-0,117	-0,045
-105,205	393,432	-0,037	-0,055
-104,191	-200,000	-0,004	0,020
-103,176	-120,354	0,032	-0,004
-102,162	-200,000	0,003	0,027
-101,147	70,744	0,085	-0,063
-100,132	-200,000	-0,014	-0,055
-99,118	114,297	0,031	0,027
-98,103	-195,474	-0,065	-0,000
-97,089	-200,000	-0,037	0,000
-96,074	-200,000	0,054	0,177
-95,059	-105,418	0,072	0,012
-94,045	-200,000	-0,032	-0,133
-93,030	800,000	0,026	0,057
-92,016	-46,054	-0,159	0,056
-91,001	-200,000	-0,010	0,098
-89,986	800,000	-0,028	0,087
-88,972	-188,580	0,169	-0,001
-87,957	-64,096	0,020	0,006
-86,943	214,535	-0,029	0,034
-85,928	132,312	0,102	-0,095
-84,913	118,952	-0,063	0,056
-83,899	64,043	-0,039	0,029
-82,884	229,632	0,086	0,102
-81,870	78,210	-0,042	0,032
-80,855	-200,000	-0,019	0,130
-79,840	239,862	0,051	-0,061
-78,826	800,000	-0,064	-0,163
-77,811	800,000	-0,027	-0,077
-76,797	800,000	-0,004	0,011
-75,782	-178,160	0,181	0,003
-74,767	138,275	0,044	0,042
-73,753	800,000	0,034	0,079
-72,738	120,190	-0,054	0,049
-71,724	-200,000	0,014	-0,112
-70,709	127,092	-0,074	0,068
-69,694	702,361	0,061	-0,116
-68,680	-9,282	-0,023	-0,011
-67,665	-200,000	-0,015	-0,057
-66,651	-28,183	0,032	-0,013
-65,636	52,038	0,065	-0,045
-64,622	385,158	0,046	0,069
-63,607	-109,180	-0,131	0,020
-62,592	-200,000	0,013	-0,145
-61,578	800,000	0,042	-0,122
-60,563	-67,235	0,063	-0,018
-59,549	40,182	0,053	-0,034
-58,534	51,266	-2,262	-1,548
-57,519	489,847	-1,140	-1,889
-56,505	-200,000	-0,171	-4,257
-55,490	800,000	0,742	1,620
-54,476	800,000	5,221	11,270
-53,461	-200,000	22,756	349,454
-52,446	800,000	756,497	2286,222
-51,432	500,093	1637,436	2736,817
-50,417	65,711	1568,250	1145,707
-49,403	18,128	1160,645	666,539
-48,388	10,733	893,873	490,904
-47,373	26,535	862,624	519,749
-46,359	16,551	848,440	482,664
-45,344	7,702	844,355	454,940
-44,330	7,546	842,773	453,620
-43,315	7,462	841,478	452,664
-42,300	7,507	840,143	452,055
-41,286	7,538	839,015	451,521
-40,271	7,562	838,163	451,113
-39,257	7,533	837,210	450,498
-38,242	7,671	836,196	450,329
-37,227	7,684	835,386	449,911
-36,213	7,636	834,596	449,330
-35,198	7,570	833,994	448,802
-34,184	7,744	833,031	448,760
-33,169	7,579	832,235	447,847
-32,154	7,623	831,516	447,566
-31,140	7,708	830,196	447,077
-30,125	7,615	829,873	446,624
-29,111	7,596	829,001	446,083
-28,096	7,607	828,708	445,939
-27,082	7,568	827,890	445,372
-26,067	7,694	826,849	445,148
-25,052	7,586	826,199	444,476
-24,038	7,578	825,767	444,203
-23,023	7,618	824,985	443,877
-22,009	7,716	824,409	443,824
-20,994	7,714	823,795	443,471
-19,979	7,756	823,017	443,152
-18,965	7,746	822,471	442,813
-17,950	7,745	822,242	442,671
-16,936	7,678	821,478	442,055
-15,921	7,578	820,901	441,445
-14,906	7,548	820,268	441,005
-13,892	7,597	819,643	440,787
-12,877	7,575	819,251	440,497
-11,863	7,571	818,704	440,175
-10,848	7,529	818,024	439,675
-9,833	7,654	817,515	439,732
-8,819	7,635	816,766	439,259
-7,804	7,692	816,151	439,068
-6,790	7,600	815,760	438,584
-5,775	7,673	815,339	438,545
-4,760	7,630	814,816	438,127
-3,746	7,553	814,439	437,694
-2,731	7,374	813,691	436,778
-1,717	7,305	813,437	436,431
-0,702	7,364	812,785	436,229
0,313	7,450	809,895	435,573
1,327	10,948	793,739	436,297
2,342	19,371	646,101	373,543
3,356	13,250	355,719	198,275
4,371	-15,930	240,115	109,817
5,386	-18,648	225,913	101,193
6,400	-19,202	221,882	98,954
7,415	-18,075	219,723	98,838
8,429	-19,166	218,415	97,418
9,444	-19,413	217,738	96,922
10,459	-19,124	217,199	96,890
11,473	-19,500	216,786	96,416
12,488	-19,086	216,209	96,459
13,502	-19,233	215,836	96,174
14,517	-19,082	215,321	96,049
15,531	-19,196	214,902	95,769
16,546	-19,052	214,570	95,719
17,561	-19,480	214,328	95,287
18,575	-19,249	214,202	95,392
19,590	-19,246	213,561	95,100
20,604	-19,143	213,626	95,197
21,619	-19,468	213,162	94,742
22,634	-19,519	212,843	94,555
23,648	-19,541	212,565	94,407
24,663	-19,552	212,331	94,286
25,677	-19,287	212,155	94,394
26,692	-19,207	211,822	94,296
27,707	-19,063	211,621	94,303
28,721	-19,112	211,301	94,116
29,736	-19,402	211,235	93,868
30,750	-19,287	210,782	93,741
31,765	-19,261	210,627	93,683
32,780	-19,182	210,425	93,642
33,794	-19,124	210,266	93,605
34,809	-19,156	210,042	93,474
35,823	-19,049	209,864	93,464
36,838	-19,242	209,583	93,190
37,853	-19,222	209,439	93,132
38,867	-19,090	209,135	93,084
39,882	-19,259	209,035	92,910
40,896	-19,264	208,853	92,817
41,911	-19,259	208,686	92,738
42,926	-19,029	208,362	92,751
43,940	-19,168	208,089	92,521
44,955	-19,181	207,862	92,403
45,969	-19,221	207,842	92,357
46,984	-19,114	207,623	92,328
47,999	-18,831	207,431	92,436
49,013	-18,922	207,257	92,286
50,028	-18,839	206,985	92,215
51,042	-19,182	206,932	91,940
52,057	-19,247	206,654	91,762
53,071	-19,330	206,611	91,675
54,086	-19,256	206,487	91,665
55,101	-19,226	206,083	91,498
56,115	-18,932	205,788	91,568
57,130	-19,009	205,750	91,488
58,144	-19,158	205,505	91,265
59,159	-19,217	205,213	91,086
60,174	-18,972	205,105	91,203
61,188	-19,115	204,945	91,022
62,203	-19,080	204,901	91,019
63,217	-19,064	204,744	90,952
64,232	-18,863	204,272	90,876
65,247	-18,871	204,088	90,781
66,261	-19,187	204,061	90,539
67,276	-19,208	203,935	90,460
68,290	-19,420	203,745	90,220
69,305	-19,149	203,522	90,302
70,320	-19,136	203,368	90,235
71,334	-18,864	203,031	90,267
72,349	-19,274	202,954	89,940
73,363	-19,100	202,769	89,970
74,378	-19,199	202,622	89,829
75,393	-19,138	202,411	89,769
76,407	-19,300	202,219	89,563
77,422	-19,124	202,233	89,684
78,436	-19,114	201,971	89,567
79,451	-19,030	201,544	89,427
80,466	-19,022	201,357	89,342
81,480	-19,022	201,359	89,335
82,495	-19,132	201,230	89,194
83,509	-19,105	200,926	89,070
84,524	-18,818	200,761	89,186
85,539	-18,970	200,581	88,993
86,553	-19,037	200,546	88,924
87,568	-19,045	200,444	88,865
88,582	-18,868	200,201	88,871
89,597	-19,074	200,085	88,670
90,611	-18,858	199,885	88,722
91,626	-18,906	199,768	88,629
92,641	-18,899	199,505	88,509
93,655	-19,033	199,410	88,368
94,670	-19,222	199,169	88,124
95,684	-19,102	198,864	88,063
96,699	-19,081	198,946	88,106
97,714	-19,164	198,743	87,952
98,728	-19,247	198,742	87,887
99,743	-19,034	198,439	87,890
100,757	-18,768	198,215	87,963
101,772	-19,121	198,118	87,673
102,787	-19,226	197,925	87,509
103,801	-19,022	197,863	87,611
104,816	-19,105	197,651	87,454
105,830	-19,173	197,623	87,387
106,845	-18,923	197,346	87,426
107,860	-19,298	197,130	87,069
108,874	-19,054	197,055	87,193
109,889	-19,103	196,826	87,051
110,903	-19,019	196,651	87,022
111,918	-19,157	196,562	86,883
112,933	-19,084	196,451	86,875
113,947	-18,889	196,063	86,826
114,962	-18,981	196,036	86,745
115,976	-18,708	195,806	86,818
116,991	-18,892	195,652	86,619
118,006	-19,215	195,570	86,359
119,020	-18,939	195,405	86,463
120,035	-18,899	195,357	86,461
121,049	-18,948	195,183	86,343
122,064	-19,096	195,051	86,179
123,079	-19,027	194,789	86,101
124,093	-19,069	194,622	85,991
125,108	-18,870	194,592	86,102
126,122	-18,896	194,292	85,945
127,137	-18,831	194,209	85,944
128,151	-18,879	194,003	85,813
129,166	-18,825	193,767	85,737
130,181	-18,887	193,742	85,677
131,195	-19,278	193,580	85,340
132,210	-18,868	193,306	85,481
133,224	-18,734	193,133	85,486
134,239	-18,708	193,075	85,470
135,254	-18,903	192,796	85,210
136,268	-18,765	192,771	85,282
137,283	-18,999	192,764	85,118
138,297	-18,900	192,354	84,994
139,312	-19,164	192,320	84,798
140,327	-19,073	192,088	84,748
141,341	-19,171	191,976	84,627
142,356	-19,089	191,820	84,605
143,370	-17,870	192,103	85,520
144,385	-11,232	193,869	90,683
145,400	-4,419	195,281	95,857
146,414	-3,093	195,757	96,963
147,429	-2,828	195,716	97,110
148,443	-2,799	195,696	97,110
149,458	-2,231	195,374	97,317
150,473	-1,986	195,521	97,544
151,487	-1,978	195,386	97,474
152,502	-2,127	195,226	97,286
153,516	-1,908	195,060	97,340
154,531	-1,955	194,942	97,241
155,546	-2,043	194,826	97,117
156,560	-1,865	194,623	97,125
157,575	-1,712	194,496	97,153
158,589	-2,015	194,365	96,879
159,604	-1,964	194,398	96,921
160,619	-2,050	193,998	96,656
161,633	-1,707	193,944	96,846
162,648	-1,780	193,911	96,773
163,662	-1,520	193,626	96,792
164,677	-1,589	193,646	96,749
165,692	-1,500	193,591	96,770
166,706	-1,572	193,618	96,728
167,721	-1,547	193,216	96,535
168,735	-1,384	193,124	96,588
169,750	-1,676	193,089	96,371
170,764	-1,441	192,868	96,405
171,779	-1,685	192,745	96,176
172,794	-1,410	192,564	96,256
173,808	-1,719	192,722	96,125
174,823	-1,688	192,303	95,928
175,837	-1,529	192,104	95,923
176,852	-1,330	192,117	96,050
177,867	-1,622	191,905	95,746
178,881	-1,641	191,874	95,710
179,896	-1,529	191,682	95,678
180,910	-1,477	191,414	95,569
181,925	-1,419	191,390	95,586
182,940	-1,446	191,267	95,498
183,954	-1,657	191,288	95,365
184,969	-1,356	190,948	95,381
185,983	-1,195	190,894	95,449
186,998	-1,055	190,832	95,499
188,013	-1,254	190,689	95,291
189,027	-1,343	190,520	95,141
190,042	-1,092	190,329	95,199
191,056	-1,439	190,264	94,935
192,071	-1,274	189,996	94,899
193,086	-1,280	190,040	94,908
194,100	-1,146	189,819	94,875
195,115	-1,325	189,905	94,795
196,129	-1,253	189,536	94,648
197,144	-1,356	189,513	94,562
198,159	-1,206	189,192	94,489
199,173	-1,140	189,047	94,451
200,188	-1,493	188,988	94,188
201,202	-1,319	188,962	94,277
202,217	-0,997	188,729	94,358
203,232	-1,071	188,621	94,249
204,246	-1,373	188,478	93,977
205,261	-1,217	188,266	93,962
206,275	-1,025	188,132	94,008
207,290	-1,114	188,042	93,898
208,304	-1,290	188,030	93,772
209,319	-1,162	187,809	93,735
210,334	-1,287	187,587	93,536
211,348	-1,092	187,483	93,600
212,363	-1,067	187,420	93,575
213,377	-1,111	187,252	93,455
214,392	-0,923	187,256	93,568
215,407	-0,941	187,073	93,457
216,421	-1,009	186,919	93,329
217,436	-0,921	186,726	93,279
218,450	-1,098	186,710	93,152
219,465	-0,969	186,482	93,110
220,480	-0,938	186,545	93,153
221,494	-1,109	186,420	92,975
222,509	-0,971	186,329	93,008
223,523	-1,129	185,966	92,720
224,538	-0,972	186,024	92,839
225,553	-1,113	185,837	92,649
226,567	-0,801	185,715	92,774
227,582	-1,088	185,636	92,548
228,596	-1,156	185,530	92,444
229,611	-0,889	185,274	92,475
230,626	-0,984	185,206	92,373
231,640	-0,873	185,133	92,398
232,655	-1,187	184,930	92,093
233,669	-0,959	184,757	92,140
234,684	-0,902	184,704	92,141
235,699	-0,856	184,664	92,142
236,713	-0,902	184,553	92,049
237,728	-0,360	184,216	92,208
238,742	-0,938	184,418	91,943
239,757	-0,670	184,041	91,912
240,772	-0,830	183,866	91,718
241,786	-0,849	183,998	91,764
242,801	-0,599	183,722	91,773
243,815	-0,807	183,633	91,592
244,830	-0,654	183,581	91,652
245,844	-0,759	183,343	91,460
246,859	-0,809	183,263	91,381
247,874	-0,784	183,182	91,348
248,888	-0,848	182,933	91,177
249,903	-0,959	182,813	91,041
250,917	-0,598	182,794	91,245
251,932	-0,660	182,744	91,173
252,947	-0,882	182,665	90,990
253,961	-0,661	182,298	90,934
254,976	-0,787	182,335	90,867
255,990	-0,866	182,295	90,791
257,005	-0,622	181,994	90,782
258,020	-0,661	181,875	90,691
259,034	-0,413	181,810	90,801
260,049	-0,592	181,687	90,623
261,063	-0,753	181,611	90,479
262,078	-0,636	181,517	90,495
263,093	-0,764	181,387	90,345
264,107	-0,622	181,319	90,389
265,122	-0,700	181,121	90,234
266,136	-0,438	180,862	90,256
267,151	-0,306	180,942	90,368
268,166	-0,730	180,879	90,072
269,180	-0,734	180,747	89,996
270,195	-0,568	180,430	89,930
271,209	-0,435	180,430	90,002
272,224	-0,593	180,291	89,830
273,239	-0,587	180,299	89,829
274,253	-0,373	180,090	89,846
275,268	-0,269	179,888	89,800
276,282	-0,501	179,788	89,602
277,297	-0,478	179,596	89,512
278,312	-0,531	179,558	89,454
279,326	-0,540	179,507	89,414
280,341	-0,452	179,288	89,351
281,355	-0,711	179,292	89,189
282,370	-0,458	179,115	89,245
283,384	-0,401	178,998	89,213
284,399	-0,397	178,812	89,115
285,414	-0,290	178,690	89,110
286,428	-0,631	178,699	88,902
287,443	-0,276	178,623	89,069
288,457	-0,286	178,452	88,969
289,472	-0,390	178,259	88,803
290,487	-0,463	178,180	88,713
291,501	-0,482	178,009	88,608
292,516	-0,144	177,865	88,730
293,530	-0,163	177,802	88,679
294,545	-0,437	177,842	88,528
295,560	-0,310	177,716	88,533
296,574	-0,445	177,477	88,326
297,589	-0,316	177,420	88,366
298,603	-0,363	177,244	88,243
299,618	-0,218	177,025	88,212
300,633	-0,405	177,049	88,105
301,647	-0,243	176,907	88,122
302,662	-0,391	176,869	88,008
303,676	-0,166	176,630	88,014
304,691	-0,275	176,591	87,923
305,706	-0,336	176,348	87,758
306,720	-0,211	176,258	87,779
307,735	-0,002	176,165	87,847
308,749	-0,276	176,107	87,650
309,764	-0,384	176,132	87,591
310,779	-0,265	175,974	87,574
311,793	-0,196	175,711	87,476
312,808	-0,209	175,626	87,418
313,822	-0,408	175,482	87,222
314,837	-0,175	175,338	87,279
315,852	-0,202	175,343	87,258
316,866	-0,268	175,269	87,175
317,881	-0,159	175,033	87,113
318,895	-0,198	174,959	87,046
319,910	-0,179	174,840	86,990
320,925	-0,304	174,704	86,842
321,939	-0,069	174,641	86,940
322,954	-0,157	174,596	86,858
323,968	-0,000	174,363	86,826
324,983	0,059	174,302	86,822
325,997	-0,013	174,211	86,727
327,012	-0,186	174,078	86,553
328,027	0,038	173,888	86,581
329,041	-0,217	173,908	86,435
330,056	-0,218	173,727	86,337
331,070	-0,352	173,744	86,260
332,085	0,232	173,442	86,440
333,100	0,105	173,269	86,272
334,114	-0,072	173,226	86,142
335,129	0,013	173,233	86,186
336,143	-0,079	173,060	86,039
337,158	-0,092	172,993	85,991
338,173	0,173	172,755	86,017
339,187	-0,164	172,813	85,844
340,202	0,165	172,621	85,930
341,216	0,304	172,522	85,953
342,231	0,195	172,339	85,793
343,246	0,222	172,208	85,735
344,260	0,163	172,256	85,717
345,275	0,125	172,167	85,644
346,289	0,031	172,023	85,511
347,304	0,175	171,890	85,519
348,319	0,183	171,820	85,481
349,333	0,167	171,577	85,344
350,348	0,211	171,542	85,343
351,362	0,289	171,320	85,270
352,377	0,214	171,311	85,216
353,392	0,248	171,159	85,151
354,406	0,121	171,237	85,110
355,421	189,787	1325,577	1392,458
356,435	150,245	1466,648	1392,924
