DTS Sentinel unit serial number:	SN410029Multiplexer serial number:	ORYXHardware model number:	OX2-SRSoftware version number:	ORYX F/W v4,00 Oryx Data Collector v3.7.2.0data status	okinstallation	B3 Nyhavnadifferential loss correction	single-endedforward channel	channel 1reverse channel	N/Adate	2023/11/28time	11:12:30forward acquisition time	300,00reverse acquisition time	0,00gamma	499,1914k internal	0,3153k external	0,3153temperature offset calibration	1,0000default loss term (dB/km)	0,3820temperature slope calibration	1,0000multiplexer offset coefficient	1,0000multiplexer slope coefficient	1,0000fibre end	0,00T internal ref (°C)	9,38T ext. ref 1 (°C)	-7,33T ext. ref 2 (°C)	-7,55length (m)	temperature (°C)	Stokes	anti-Stokes-744,400	488,925	-0,199	-0,337
-743,385	-200,000	-0,039	0,288
-742,371	-200,000	-0,028	-0,201
-741,356	-200,000	0,043	0,299
-740,342	616,212	-0,077	-0,142
-739,327	-200,000	-0,033	0,342
-738,312	495,604	-0,158	-0,269
-737,298	356,994	-0,108	0,159
-736,283	800,000	-0,138	-0,289
-735,269	800,000	-0,114	0,269
-734,254	179,454	-0,251	-0,272
-733,239	-13,789	-0,273	0,130
-732,225	-200,000	0,022	-0,210
-731,210	673,769	0,093	0,180
-730,196	-39,520	-0,070	0,027
-729,181	493,107	-0,047	-0,080
-728,167	-200,000	0,004	-0,177
-727,152	342,399	-0,029	0,042
-726,137	-0,620	-0,029	0,015
-725,123	-33,622	-0,159	-0,065
-724,108	-200,000	-0,017	-0,102
-723,094	800,000	-0,036	-0,081
-722,079	-41,168	-0,036	0,014
-721,064	43,148	-0,037	0,025
-720,050	-59,224	0,084	0,027
-719,035	-106,177	-0,014	0,002
-718,021	412,470	-0,077	-0,121
-717,006	-135,498	0,138	0,012
-715,991	123,493	-0,158	-0,147
-714,977	-54,487	-0,154	-0,051
-713,962	-200,000	0,005	0,068
-712,948	-90,594	-0,095	-0,020
-711,933	-40,032	0,043	-0,016
-710,918	-29,530	-0,035	0,015
-709,904	-200,000	-0,009	-0,094
-708,889	212,761	-0,132	-0,154
-707,875	629,026	0,039	-0,072
-706,860	-10,882	-0,047	0,023
-705,845	36,494	0,081	-0,053
-704,831	298,384	0,065	-0,088
-703,816	-94,500	-0,126	-0,025
-702,802	106,489	-0,101	-0,088
-701,787	-200,000	0,014	-0,161
-700,772	-58,101	0,065	-0,021
-699,758	695,544	0,053	0,103
-698,743	22,182	0,055	0,033
-697,729	621,526	-0,113	0,211
-696,714	75,274	-0,049	-0,038
-695,699	-82,506	-0,130	0,031
-694,685	-55,586	0,015	-0,005
-693,670	800,000	-0,056	-0,130
-692,656	800,000	0,016	-0,036
-691,641	800,000	0,068	0,164
-690,627	-200,000	-0,045	0,176
-689,612	-157,305	0,047	0,002
-688,597	-200,000	-0,006	0,039
-687,583	41,097	-0,077	0,051
-686,568	290,036	-0,067	0,089
-685,554	196,710	-0,088	0,099
-684,539	-163,299	0,140	0,005
-683,524	-200,000	0,024	0,134
-682,510	-200,000	-0,013	0,061
-681,495	800,000	-0,052	-0,110
-680,481	800,000	0,023	-0,048
-679,466	-77,619	-0,177	-0,045
-678,451	104,353	0,043	-0,037
-677,437	69,361	-0,021	-0,016
-676,422	-200,000	-0,007	-0,081
-675,408	205,902	-0,010	0,011
-674,393	-95,650	0,083	0,016
-673,378	275,188	-0,081	0,106
-672,364	-200,000	0,032	-0,143
-671,349	800,000	0,024	0,073
-670,335	482,539	-0,063	0,106
-669,320	-68,662	0,033	0,009
-668,305	800,000	-0,025	0,077
-667,291	127,715	-0,109	-0,102
-666,276	36,304	0,125	-0,081
-665,262	27,342	0,043	-0,027
-664,247	60,286	-0,075	-0,055
-663,232	-50,838	0,097	0,033
-662,218	-44,723	0,109	0,040
-661,203	103,259	0,060	0,052
-660,189	236,760	-0,031	0,037
-659,174	800,000	0,025	-0,063
-658,159	-200,000	-0,008	-0,043
-657,145	800,000	-0,050	-0,106
-656,130	162,217	-0,065	0,067
-655,116	-200,000	-0,010	0,124
-654,101	-200,000	-0,019	-0,110
-653,086	184,022	0,050	0,055
-652,072	-44,557	0,096	0,035
-651,057	-200,000	0,017	-0,099
-650,043	-200,000	0,016	-0,091
-649,028	240,511	0,023	0,029
-648,014	571,918	0,059	0,107
-646,999	-200,000	0,021	0,138
-645,984	-78,650	-0,051	-0,013
-644,970	-153,239	-0,090	0,005
-643,955	-200,000	0,015	-0,180
-642,941	800,000	-0,049	-0,157
-641,926	-27,224	0,071	0,030
-640,911	-95,235	0,129	-0,025
-639,897	-55,581	-0,140	-0,046
-638,882	-200,000	-0,004	0,020
-637,868	99,137	-0,150	-0,128
-636,853	76,558	-0,105	-0,082
-635,838	163,129	-0,104	-0,107
-634,824	-109,162	-0,085	0,013
-633,809	232,437	0,024	-0,029
-632,795	800,000	-0,058	-0,130
-631,780	323,256	0,011	0,016
-630,765	-117,445	0,030	-0,004
-629,751	240,129	-0,046	-0,057
-628,736	800,000	0,049	-0,101
-627,722	-130,289	0,027	0,003
-626,707	-13,991	0,080	0,038
-625,692	63,454	-0,122	0,090
-624,678	172,830	-0,104	-0,110
-623,663	41,843	-0,057	0,038
-622,649	541,227	-0,047	-0,083
-621,634	565,776	0,027	0,049
-620,619	-124,115	-0,057	-0,006
-619,605	-75,268	-0,122	-0,032
-618,590	-89,094	0,070	-0,015
-617,576	-81,651	0,083	0,020
-616,561	800,000	0,063	-0,150
-615,546	-96,950	-0,019	-0,004
-614,532	800,000	0,045	-0,111
-613,517	-44,231	0,036	-0,013
-612,503	-32,727	0,060	-0,024
-611,488	800,000	0,065	0,134
-610,474	-200,000	0,001	0,040
-609,459	103,248	0,093	0,080
-608,444	123,717	0,067	0,061
-607,430	-3,756	0,069	-0,035
-606,415	-99,349	-0,037	0,007
-605,401	124,861	-0,022	-0,021
-604,386	-124,572	0,030	0,003
-603,371	-56,560	0,115	-0,037
-602,357	91,128	0,099	-0,081
-601,342	56,798	0,172	-0,123
-600,328	129,182	-0,072	-0,068
-599,313	202,084	-0,100	-0,113
-598,298	-200,000	0,024	0,113
-597,284	-200,000	0,026	0,144
-596,269	161,750	0,026	0,026
-595,255	286,965	-0,062	-0,082
-594,240	-200,000	-0,018	-0,088
-593,225	800,000	-0,065	-0,204
-592,211	75,997	-0,102	-0,079
-591,196	59,395	-0,092	0,066
-590,182	379,838	-0,051	0,076
-589,167	-159,420	0,075	0,003
-588,152	-200,000	-0,002	0,192
-587,138	-200,000	-0,008	-0,086
-586,123	159,514	0,037	-0,038
-585,109	548,433	-0,007	-0,013
-584,094	-106,402	-0,072	-0,012
-583,079	-77,360	0,141	0,036
-582,065	235,135	-0,077	0,094
-581,050	115,154	0,031	-0,028
-580,036	-176,109	0,051	-0,001
-579,021	93,354	-0,085	0,071
-578,006	173,237	0,065	-0,069
-576,992	-200,000	0,017	-0,089
-575,977	-67,586	0,082	-0,023
-574,963	800,000	-0,023	0,074
-573,948	-200,000	0,001	0,093
-572,934	458,341	-0,035	-0,057
-571,919	-200,000	0,019	-0,068
-570,904	123,839	-0,082	-0,076
-569,890	-200,000	-0,025	0,093
-568,875	-84,517	-0,050	-0,012
-567,861	-200,000	0,014	-0,112
-566,846	-44,261	0,057	0,021
-565,831	101,639	0,080	-0,068
-564,817	-94,447	0,082	-0,016
-563,802	800,000	0,033	-0,105
-562,788	137,116	-0,046	-0,044
-561,773	-197,754	0,072	-0,000
-560,758	395,351	0,056	0,086
-559,744	-200,000	-0,010	0,240
-558,729	199,800	0,060	0,068
-557,715	253,569	0,087	-0,109
-556,700	127,777	0,052	0,048
-555,685	800,000	-0,019	0,051
-554,671	-200,000	0,031	0,141
-553,656	-70,367	0,079	0,022
-552,642	76,645	0,027	-0,021
-551,627	-200,000	0,022	-0,111
-550,612	39,212	0,076	-0,050
-549,598	225,289	0,016	-0,019
-548,583	-58,392	-0,163	0,051
-547,569	-200,000	-0,035	0,135
-546,554	-1,313	-0,137	-0,071
-545,539	-117,028	0,101	0,013
-544,525	203,401	-0,072	-0,081
-543,510	29,004	-0,113	-0,070
-542,496	-138,206	-0,099	-0,008
-541,481	140,313	-0,104	-0,101
-540,466	157,203	0,042	0,042
-539,452	800,000	-0,083	-0,171
-538,437	119,530	-0,031	0,028
-537,423	-200,000	-0,009	0,059
-536,408	349,467	-0,064	0,093
-535,393	28,952	-0,070	0,044
-534,379	39,112	0,038	-0,025
-533,364	517,165	0,012	-0,021
-532,350	-141,470	-0,059	0,004
-531,335	-176,522	-0,081	-0,001
-530,321	-73,763	0,073	0,019
-529,306	-26,393	-0,127	0,054
-528,291	-200,000	-0,042	0,140
-527,277	32,182	-0,020	0,012
-526,262	417,363	-0,047	-0,073
-525,248	800,000	-0,044	-0,107
-524,233	-40,523	0,060	0,023
-523,218	-200,000	-0,020	0,169
-522,204	-200,000	-0,004	0,028
-521,189	184,051	-0,148	-0,161
-520,175	37,799	0,096	0,063
-519,160	-82,438	0,038	-0,009
-518,145	-200,000	-0,021	0,081
-517,131	-95,487	0,163	0,032
-516,116	48,094	-0,187	0,128
-515,102	-123,869	-0,029	-0,003
-514,087	-200,000	0,020	-0,148
-513,072	236,007	0,071	0,086
-512,058	-200,000	-0,029	0,180
-511,043	262,562	0,036	0,046
-510,029	-143,380	0,116	-0,008
-509,014	-50,826	-0,196	0,067
-507,999	-141,267	-0,044	0,003
-506,985	58,071	0,073	-0,052
-505,970	-22,669	-0,137	0,060
-504,956	-60,064	0,112	0,035
-503,941	-183,317	0,103	0,001
-502,926	-200,000	-0,013	0,046
-501,912	-143,522	-0,075	0,005
-500,897	-49,506	-0,092	0,032
-499,883	-57,067	-0,042	-0,014
-498,868	-200,000	0,029	0,108
-497,853	643,955	-0,035	-0,065
-496,839	-122,858	0,044	0,005
-495,824	19,398	-0,126	-0,074
-494,810	598,804	0,030	0,055
-493,795	-200,000	0,019	0,085
-492,781	-119,473	-0,079	-0,010
-491,766	-200,000	0,001	0,128
-490,751	-42,307	0,104	-0,039
-489,737	-200,000	-0,006	-0,141
-488,722	800,000	0,048	-0,140
-487,708	-200,000	0,004	0,264
-486,693	800,000	0,022	0,063
-485,678	86,992	-0,118	-0,095
-484,664	-2,732	0,088	-0,045
-483,649	440,139	-0,049	0,078
-482,635	800,000	-0,044	-0,107
-481,620	-200,000	0,014	-0,061
-480,605	-11,868	0,149	0,071
-479,591	800,000	0,044	-0,121
-478,576	-0,306	-0,100	-0,052
-477,562	-53,387	-0,060	0,020
-476,547	-200,000	0,019	-0,135
-475,532	335,846	-0,010	0,014
-474,518	769,434	-0,037	-0,073
-473,503	-125,168	0,078	-0,009
-472,489	-200,000	-0,003	0,068
-471,474	0,377	0,082	0,042
-470,459	3,097	-0,051	0,027
-469,445	-200,000	0,035	-0,139
-468,430	125,605	0,016	0,014
-467,416	303,708	-0,004	-0,005
-466,401	-110,896	0,036	0,005
-465,386	-200,000	-0,019	0,170
-464,372	400,644	0,008	0,012
-463,357	455,298	0,046	-0,075
-462,343	96,557	-0,081	-0,068
-461,328	67,826	0,052	-0,039
-460,313	-162,150	-0,051	-0,002
-459,299	318,155	-0,113	0,157
-458,284	-200,000	0,013	0,062
-457,270	-146,535	0,045	-0,003
-456,255	-200,000	0,009	-0,125
-455,241	-102,133	-0,159	-0,028
-454,226	800,000	0,024	-0,050
-453,211	-200,000	-0,011	0,103
-452,197	-75,782	0,144	0,037
-451,182	63,919	0,113	0,083
-450,168	-200,000	-0,004	-0,074
-449,153	109,531	-0,056	0,049
-448,138	293,027	0,032	0,043
-447,124	124,874	-0,033	0,030
-446,109	-200,000	-0,006	-0,046
-445,095	800,000	-0,003	-0,007
-444,080	596,534	-0,002	0,004
-443,065	-200,000	0,007	-0,122
-442,051	-66,284	-0,076	0,022
-441,036	800,000	-0,035	-0,079
-440,022	19,401	-0,047	-0,027
-439,007	-60,547	0,119	-0,037
-437,992	-111,811	0,013	0,002
-436,978	800,000	0,019	0,046
-435,963	-59,461	-0,098	0,030
-434,949	636,736	-0,023	0,044
-433,934	-46,052	-0,034	-0,012
-432,919	800,000	-0,022	-0,047
-431,905	-200,000	-0,007	0,039
-430,890	-101,293	0,098	0,017
-429,876	496,151	0,033	-0,055
-428,861	59,278	-0,049	0,035
-427,846	122,845	0,091	-0,083
-426,832	-16,697	-0,071	-0,033
-425,817	460,740	0,046	-0,076
-424,803	175,358	-0,094	-0,100
-423,788	210,367	0,049	0,056
-422,773	-118,872	0,194	0,025
-421,759	-200,000	-0,004	0,098
-420,744	-92,873	-0,056	0,011
-419,730	-200,000	-0,011	-0,045
-418,715	-200,000	0,015	-0,049
-417,701	67,192	0,082	-0,061
-416,686	-200,000	-0,000	-0,055
-415,671	-32,777	-0,038	-0,015
-414,657	433,198	0,045	0,071
-413,642	611,387	0,046	-0,085
-412,628	453,923	0,032	0,052
-411,613	800,000	-0,047	0,095
-410,598	800,000	0,044	0,090
-409,584	96,547	0,097	-0,081
-408,569	164,869	0,089	0,092
-407,555	800,000	0,014	0,040
-406,540	292,397	0,052	0,070
-405,525	195,008	-0,097	0,107
-404,511	70,992	-0,050	-0,038
-403,496	-89,616	0,060	0,013
-402,482	-200,000	0,001	-0,103
-401,467	269,600	0,092	0,118
-400,452	-200,000	0,014	0,079
-399,438	37,299	0,082	-0,053
-398,423	107,893	0,050	-0,044
-397,409	-59,261	-0,232	-0,072
-396,394	-200,000	0,040	-0,135
-395,379	578,682	-0,027	-0,048
-394,365	-200,000	0,000	0,009
-393,350	800,000	-0,036	0,080
-392,336	-200,000	-0,001	-0,020
-391,321	70,612	-0,016	0,012
-390,306	800,000	-0,028	0,069
-389,292	-200,000	0,004	0,111
-388,277	-59,402	-0,100	0,031
-387,263	-200,000	-0,004	0,109
-386,248	128,329	-0,097	0,090
-385,233	588,871	0,074	0,134
-384,219	419,918	0,015	-0,023
-383,204	-56,020	-0,054	-0,017
-382,190	-200,000	-0,007	-0,127
-381,175	-95,011	0,056	-0,011
-380,160	-6,011	0,092	0,046
-379,146	800,000	-0,039	0,086
-378,131	-13,955	0,177	0,083
-377,117	-200,000	-0,007	-0,028
-376,102	550,295	-0,040	0,070
-375,088	800,000	-0,026	0,083
-374,073	800,000	-0,054	-0,111
-373,058	742,956	0,024	0,047
-372,044	-200,000	-0,023	0,100
-371,029	800,000	0,050	0,137
-370,015	-129,328	0,135	-0,014
-369,000	-200,000	0,018	-0,155
-367,985	5,480	-0,051	-0,027
-366,971	29,469	-0,049	-0,030
-365,956	-64,101	0,070	-0,021
-364,942	-200,000	0,028	0,112
-363,927	322,598	0,094	0,130
-362,912	159,545	0,061	-0,062
-361,898	49,889	-0,068	-0,046
-360,883	18,623	-0,107	0,062
-359,869	4,704	-0,075	0,040
-358,854	-200,000	0,000	-0,047
-357,839	427,079	-0,034	-0,053
-356,825	-11,231	0,089	0,042
-355,810	222,478	-0,070	-0,083
-354,796	-20,263	0,044	0,020
-353,781	765,167	0,008	0,016
-352,766	-200,000	-0,009	-0,238
-351,752	-128,969	0,120	-0,012
-350,737	9,580	0,089	0,049
-349,723	800,000	-0,013	-0,029
-348,708	310,024	-0,056	-0,077
-347,693	226,554	0,064	0,075
-346,679	255,989	-0,066	-0,083
-345,664	-200,000	0,053	-0,175
-344,650	-157,646	-0,074	0,003
-343,635	66,755	0,071	-0,053
-342,620	800,000	0,017	0,039
-341,606	-73,659	0,166	0,044
-340,591	752,291	-0,029	-0,057
-339,577	-200,000	-0,009	0,033
-338,562	-200,000	-0,029	0,174
-337,548	-137,494	-0,099	-0,008
-336,533	2,352	0,043	-0,023
-335,518	56,336	0,061	-0,043
-334,504	-100,371	0,141	0,025
-333,489	-94,786	0,051	0,010
-332,475	-200,000	-0,023	-0,147
-331,460	-200,000	-0,007	-0,104
-330,445	143,282	0,060	0,058
-329,431	331,776	0,019	0,027
-328,416	800,000	-0,043	0,111
-327,402	28,770	0,026	-0,016
-326,387	761,949	0,054	-0,106
-325,372	-106,604	-0,030	-0,005
-324,358	-200,000	-0,019	0,071
-323,343	-200,000	-0,014	-0,099
-322,329	-200,000	0,000	-0,053
-321,314	-109,802	0,172	-0,026
-320,299	554,404	-0,044	-0,077
-319,285	96,020	0,078	-0,065
-318,270	531,907	0,054	-0,094
-317,256	49,597	0,050	-0,034
-316,241	139,099	-0,031	-0,029
-315,226	-200,000	-0,021	-0,136
-314,212	-200,000	-0,044	0,143
-313,197	-200,000	0,003	-0,052
-312,183	546,569	0,105	0,183
-311,168	168,424	0,026	0,027
-310,153	-192,097	0,066	0,000
-309,139	155,930	-0,047	-0,047
-308,124	75,857	0,102	-0,078
-307,110	-200,000	-0,004	0,110
-306,095	-6,027	-0,024	0,012
-305,080	-26,755	0,110	-0,047
-304,066	-25,463	-0,134	0,057
-303,051	562,854	0,027	0,048
-302,037	-17,428	-0,099	0,045
-301,022	-200,000	0,001	-0,083
-300,008	77,395	0,075	0,058
-298,993	340,763	0,053	-0,075
-297,978	-33,837	0,034	-0,014
-296,964	31,812	0,073	-0,045
-295,949	-28,197	-0,141	-0,059
-294,935	193,596	0,097	0,107
-293,920	-200,000	0,004	0,098
-292,905	68,138	0,073	0,055
-291,891	-46,274	-0,038	0,014
-290,876	-9,506	-0,019	-0,009
-289,862	98,471	-0,080	0,067
-288,847	-200,000	0,005	-0,039
-287,832	-153,093	0,064	-0,003
-286,818	-113,221	-0,125	0,018
-285,803	-32,184	0,086	-0,035
-284,789	-165,711	-0,052	0,002
-283,774	4,885	0,080	0,042
-282,759	17,826	0,085	-0,049
-281,745	-67,996	-0,121	-0,034
-280,730	698,923	-0,122	-0,233
-279,716	-104,899	-0,074	0,012
-278,701	-200,000	-0,001	-0,060
-277,686	800,000	0,033	0,086
-276,672	113,761	-0,035	0,031
-275,657	-200,000	-0,003	-0,044
-274,643	521,741	-0,026	-0,044
-273,628	250,147	0,054	-0,067
-272,613	-200,000	-0,032	0,136
-271,599	-44,562	0,057	-0,021
-270,584	800,000	0,055	0,163
-269,570	-74,114	0,069	0,018
-268,555	-56,852	-0,099	-0,031
-267,540	146,946	-0,038	-0,037
-266,526	-200,000	0,009	-0,139
-265,511	-36,060	0,047	-0,018
-264,497	258,291	0,109	0,136
-263,482	443,456	-0,055	0,088
-262,467	64,963	0,085	0,062
-261,453	-35,629	-0,050	0,020
-260,438	800,000	0,023	0,058
-259,424	114,799	-0,050	-0,044
-258,409	279,308	-0,049	-0,063
-257,395	109,354	0,036	0,031
-256,380	-26,082	0,013	-0,006
-255,365	-92,127	0,179	0,036
-254,351	-200,000	-0,028	-0,096
-253,336	-67,848	-0,059	0,017
-252,322	166,139	-0,063	0,064
-251,307	-41,779	-0,026	-0,009
-250,292	-15,379	0,112	0,052
-249,278	-200,000	-0,010	0,132
-248,263	-97,916	-0,110	0,020
-247,249	800,000	0,046	0,094
-246,234	15,917	-0,078	-0,044
-245,219	-83,530	-0,140	0,032
-244,205	-48,583	0,016	-0,006
-243,190	-200,000	0,009	0,087
-242,176	-98,524	0,085	-0,016
-241,161	202,859	0,075	-0,084
-240,146	35,999	-0,152	-0,097
-239,132	95,106	-0,046	0,038
-238,117	-19,977	-0,178	0,079
-237,103	220,634	0,055	-0,064
-236,088	-84,673	0,009	-0,002
-235,073	-200,000	0,005	0,052
-234,059	-103,665	0,067	-0,011
-233,044	-12,411	0,038	-0,018
-232,030	-133,626	-0,124	0,011
-231,015	-68,341	0,112	0,031
-230,000	-110,873	-0,077	0,011
-228,986	-38,276	0,088	0,033
-227,971	-200,000	-0,042	0,135
-226,957	-79,109	-0,098	0,024
-225,942	-22,670	0,152	0,066
-224,927	479,862	-0,012	0,020
-223,913	-126,127	-0,056	-0,006
-222,898	2,878	-0,163	-0,085
-221,884	241,486	0,060	-0,073
-220,869	23,433	0,014	0,009
-219,855	-200,000	0,002	0,047
-218,840	-91,712	-0,136	-0,028
-217,825	-200,000	0,028	0,091
-216,811	-68,425	-0,035	0,010
-215,796	800,000	-0,042	-0,112
-214,782	-110,748	-0,113	-0,017
-213,767	-200,000	0,020	0,213
-212,752	-77,556	0,108	-0,027
-211,738	800,000	-0,022	0,060
-210,723	-200,000	0,009	-0,075
-209,709	395,066	-0,040	0,060
-208,694	191,944	-0,059	-0,065
-207,679	800,000	0,034	-0,095
-206,665	800,000	-0,037	0,093
-205,650	-46,098	0,182	-0,065
-204,636	-200,000	-0,001	0,058
-203,621	138,522	-0,056	-0,053
-202,606	-72,881	-0,065	-0,017
-201,592	100,284	-0,144	-0,121
-200,577	-143,139	-0,089	-0,006
-199,563	87,041	0,102	-0,081
-198,548	-138,989	0,102	0,008
-197,533	-200,000	-0,015	0,076
-196,519	636,804	-0,042	0,078
-195,504	-169,422	0,092	-0,002
-194,490	151,938	-0,099	-0,098
-193,475	-139,576	-0,099	0,008
-192,460	-113,078	0,099	-0,014
-191,446	-74,054	0,046	0,012
-190,431	-2,269	-0,068	0,034
-189,417	800,000	0,009	0,027
-188,402	-200,000	-0,003	-0,099
-187,387	-171,337	-0,160	-0,004
-186,373	159,791	-0,096	-0,096
-185,358	-200,000	-0,001	0,052
-184,344	-97,546	0,082	-0,015
-183,329	354,612	0,035	-0,050
-182,315	-81,603	-0,128	-0,030
-181,300	-89,775	0,025	-0,005
-180,285	371,608	0,042	0,061
-179,271	-200,000	0,049	-0,182
-178,256	22,581	0,092	0,054
-177,242	800,000	-0,022	-0,063
-176,227	800,000	0,049	0,147
-175,212	-200,000	-0,004	-0,039
-174,198	-99,066	-0,064	0,012
-173,183	248,780	0,076	0,093
-172,169	-107,685	-0,114	0,018
-171,154	-200,000	-0,002	-0,090
-170,139	121,927	0,053	0,047
-169,125	-200,000	0,007	0,027
-168,110	-200,000	0,000	0,090
-167,096	109,457	-0,071	0,061
-166,081	800,000	0,034	-0,084
-165,066	52,593	-0,052	-0,036
-164,052	-66,623	-0,025	0,007
-163,037	304,261	-0,085	0,114
-162,023	-77,119	0,081	-0,020
-161,008	-55,923	0,085	-0,027
-159,993	138,230	-0,091	-0,086
-158,979	-200,000	-0,010	0,065
-157,964	279,423	0,100	-0,130
-156,950	23,447	-0,049	-0,029
-155,935	-200,000	0,009	0,093
-154,920	537,369	0,084	0,144
-153,906	60,337	0,074	0,053
-152,891	89,199	-0,074	0,059
-151,877	276,398	-0,057	-0,073
-150,862	800,000	-0,027	-0,059
-149,847	-200,000	0,009	0,067
-148,833	-200,000	-0,034	0,254
-147,818	-200,000	0,044	0,212
-146,804	800,000	0,017	-0,038
-145,789	-70,947	0,103	-0,028
-144,775	656,635	0,099	-0,184
-143,760	-115,247	-0,085	-0,011
-142,745	41,198	-0,082	0,053
-141,731	-200,000	-0,023	-0,072
-140,716	-135,582	0,073	-0,006
-139,702	-200,000	0,048	0,181
-138,687	800,000	-0,013	-0,030
-137,672	116,897	-0,066	0,058
-136,658	389,764	-0,058	0,087
-135,643	592,177	-0,012	-0,021
-134,629	-200,000	-0,006	-0,151
-133,614	-56,506	0,130	0,041
-132,599	-37,837	0,087	-0,033
-131,585	213,248	0,026	0,030
-130,570	-77,436	-0,117	-0,029
-129,556	-158,816	-0,072	-0,003
-128,541	-46,352	-0,030	-0,011
-127,526	132,408	0,007	-0,006
-126,512	129,430	-0,017	0,016
-125,497	794,493	0,062	0,124
-124,483	-200,000	0,030	0,153
-123,468	110,537	0,030	0,026
-122,453	-200,000	0,004	0,032
-121,439	70,952	-0,055	-0,041
-120,424	-150,739	0,056	-0,003
-119,410	265,840	0,050	-0,063
-118,395	128,620	-0,054	0,049
-117,380	800,000	0,041	0,086
-116,366	-200,000	0,019	-0,105
-115,351	-200,000	0,001	-0,083
-114,337	254,977	0,027	0,034
-113,322	-158,580	-0,074	-0,003
-112,307	-200,000	0,031	-0,109
-111,293	-200,000	0,032	0,115
-110,278	184,179	0,068	-0,073
-109,264	62,968	0,144	-0,104
-108,249	-67,232	-0,127	0,036
-107,234	-66,015	0,102	-0,029
-106,220	-172,411	0,033	0,001
-105,205	-200,000	-0,005	0,079
-104,191	-89,672	-0,079	-0,017
-103,176	800,000	-0,018	0,042
-102,162	800,000	-0,087	0,219
-101,147	-69,613	0,187	-0,051
-100,132	-136,627	-0,125	-0,010
-99,118	113,970	-0,108	-0,095
-98,103	-47,328	-0,135	0,047
-97,089	800,000	0,057	0,122
-96,074	288,291	-0,041	-0,054
-95,059	-11,165	-0,050	0,024
-94,045	800,000	-0,041	-0,086
-93,030	259,020	0,046	-0,057
-92,016	-102,719	-0,246	0,042
-91,001	51,439	-0,012	-0,008
-89,986	-164,950	-0,052	-0,002
-88,972	-19,584	-0,043	0,019
-87,957	800,000	0,015	0,030
-86,943	104,636	0,052	-0,044
-85,928	-150,801	-0,096	0,005
-84,913	-106,900	-0,021	-0,003
-83,899	16,743	-0,035	-0,020
-82,884	-98,238	0,094	0,017
-81,870	800,000	-0,066	0,209
-80,855	-130,285	0,086	0,008
-79,840	3,513	-0,106	-0,055
-78,826	143,716	0,033	-0,032
-77,811	410,631	-0,051	-0,077
-76,797	37,779	0,105	0,067
-75,782	149,284	-0,077	-0,075
-74,767	-18,138	0,133	0,060
-73,753	-45,656	0,117	-0,041
-72,738	-101,000	0,052	0,009
-71,724	-200,000	0,008	0,040
-70,709	21,112	0,166	-0,097
-69,694	185,334	-0,009	-0,009
-68,680	50,798	0,099	0,067
-67,665	800,000	-0,030	-0,061
-66,651	800,000	-0,043	0,087
-65,636	-200,000	0,005	-0,028
-64,622	17,972	0,112	0,064
-63,607	-132,040	-0,071	0,007
-62,592	-200,000	-0,022	-0,202
-61,578	-200,000	0,011	0,164
-60,563	31,942	-0,133	0,082
-59,549	-200,000	0,041	0,145
-58,534	45,406	-2,096	-1,388
-57,519	481,350	-1,220	-1,998
-56,505	-200,000	-0,121	-4,192
-55,490	800,000	0,637	1,371
-54,476	800,000	5,388	11,432
-53,461	-200,000	21,531	342,290
-52,446	800,000	760,627	2341,329
-51,432	524,788	1658,438	2815,088
-50,417	72,104	1576,376	1178,145
-49,403	22,338	1095,729	641,900
-48,388	13,389	776,261	431,362
-47,373	27,313	737,329	444,160
-46,359	19,540	722,607	416,487
-45,344	9,540	718,254	389,726
-44,330	9,325	716,712	388,351
-43,315	9,253	715,538	387,525
-42,300	9,292	714,269	386,916
-41,286	9,297	713,616	386,560
-40,271	9,184	713,185	386,037
-39,257	9,283	712,025	385,633
-38,242	9,346	710,982	385,204
-37,227	9,370	710,211	384,829
-36,213	9,380	709,309	384,351
-35,198	9,421	708,403	383,942
-34,184	9,446	708,016	383,778
-33,169	9,309	707,345	383,069
-32,154	9,535	706,562	383,172
-31,140	9,542	705,298	382,488
-30,125	9,539	704,601	382,088
-29,111	9,434	704,188	381,597
-28,096	9,340	704,273	381,405
-27,082	9,339	703,599	381,021
-26,067	9,319	703,117	380,699
-25,052	9,282	702,374	380,192
-24,038	9,340	702,020	380,125
-23,023	9,356	701,079	379,638
-22,009	9,466	700,514	379,578
-20,994	9,396	699,695	378,953
-19,979	9,503	699,137	378,888
-18,965	9,455	698,795	378,574
-17,950	9,401	698,540	378,294
-16,936	9,410	697,819	377,909
-15,921	9,380	697,482	377,641
-14,906	9,362	696,476	377,039
-13,892	9,346	696,127	376,796
-12,877	9,301	695,792	376,494
-11,863	9,314	695,456	376,329
-10,848	9,252	694,985	375,913
-9,833	9,316	694,960	376,036
-8,819	9,400	693,623	375,493
-7,804	9,394	693,131	375,198
-6,790	9,324	692,861	374,875
-5,775	9,409	692,726	374,985
-4,760	9,346	692,084	374,474
-3,746	9,263	691,656	374,034
-2,731	9,146	691,323	373,566
-1,717	9,196	690,798	373,385
-0,702	9,185	690,096	372,963
0,313	9,240	686,450	371,683
1,327	13,580	659,998	367,018
2,342	22,473	530,239	310,686
3,356	16,270	293,231	165,694
4,371	-14,531	196,840	90,564
5,386	-18,074	185,493	83,078
6,400	-18,322	182,150	81,419
7,415	-17,336	180,465	81,269
8,429	-18,460	179,609	80,183
9,444	-18,547	178,793	79,759
10,459	-18,078	178,318	79,827
11,473	-18,341	177,762	79,410
12,488	-18,014	177,593	79,527
13,502	-18,266	177,128	79,159
14,517	-18,248	176,942	79,079
15,531	-18,613	176,625	78,709
16,546	-18,050	176,228	78,866
17,561	-18,091	175,831	78,657
18,575	-18,242	175,829	78,558
19,590	-18,185	175,315	78,355
20,604	-17,864	175,360	78,561
21,619	-17,924	174,821	78,277
22,634	-18,040	174,694	78,144
23,648	-18,171	174,444	77,946
24,663	-18,251	174,404	77,874
25,677	-18,363	174,150	77,686
26,692	-18,107	173,823	77,687
27,707	-18,214	173,970	77,681
28,721	-18,215	173,537	77,480
29,736	-18,328	173,358	77,327
30,750	-18,354	173,187	77,227
31,765	-18,334	172,987	77,143
32,780	-18,132	172,884	77,210
33,794	-18,303	172,699	77,020
34,809	-18,091	172,292	76,956
35,823	-18,247	172,204	76,818
36,838	-18,005	172,082	76,900
37,853	-18,274	171,935	76,669
38,867	-17,997	171,747	76,741
39,882	-18,173	171,615	76,572
40,896	-18,281	171,475	76,439
41,911	-18,081	171,150	76,405
42,926	-18,051	171,019	76,357
43,940	-18,232	170,905	76,193
44,955	-18,361	170,839	76,082
45,969	-17,879	170,658	76,276
46,984	-17,878	170,450	76,176
47,999	-18,084	170,434	76,042
49,013	-17,995	170,260	76,010
50,028	-17,912	169,987	75,929
51,042	-18,032	169,782	75,762
52,057	-18,039	169,652	75,693
53,071	-17,930	169,504	75,683
54,086	-17,775	169,472	75,752
55,101	-17,931	169,287	75,572
56,115	-18,088	169,102	75,392
57,130	-18,074	168,789	75,254
58,144	-18,393	168,688	75,018
59,159	-18,424	168,554	74,934
60,174	-18,202	168,475	75,020
61,188	-18,088	168,133	74,926
62,203	-18,123	168,180	74,920
63,217	-18,216	168,029	74,793
64,232	-18,196	167,799	74,696
65,247	-18,254	167,754	74,635
66,261	-18,205	167,430	74,513
67,276	-18,244	167,326	74,438
68,290	-18,039	167,223	74,503
69,305	-18,064	167,130	74,440
70,320	-17,973	166,902	74,384
71,334	-17,783	166,753	74,419
72,349	-18,045	166,651	74,218
73,363	-18,436	166,419	73,885
74,378	-18,109	166,121	73,932
75,393	-18,073	166,127	73,949
76,407	-18,175	166,014	73,834
77,422	-18,234	165,879	73,734
78,436	-18,129	165,571	73,650
79,451	-17,941	165,540	73,736
80,466	-17,995	165,373	73,624
81,480	-17,832	165,251	73,655
82,495	-17,740	165,021	73,598
83,509	-18,083	165,022	73,399
84,524	-17,773	164,826	73,479
85,539	-17,862	164,796	73,409
86,553	-18,187	164,755	73,201
87,568	-17,802	164,448	73,275
88,582	-18,197	164,411	73,030
89,597	-17,700	164,197	73,207
90,611	-17,975	164,054	72,983
91,626	-17,929	163,891	72,930
92,641	-18,013	163,844	72,855
93,655	-18,112	163,719	72,738
94,670	-17,953	163,523	72,733
95,684	-18,378	163,427	72,447
96,699	-18,053	163,233	72,535
97,714	-18,101	163,141	72,461
98,728	-17,671	162,890	72,582
99,743	-18,032	162,863	72,363
100,757	-17,680	162,648	72,457
101,772	-18,085	162,417	72,123
102,787	-18,027	162,440	72,159
103,801	-18,075	162,349	72,086
104,816	-18,149	162,241	71,990
105,830	-17,804	161,949	72,044
106,845	-18,001	161,916	71,915
107,860	-17,984	161,832	71,880
108,874	-18,372	161,693	71,598
109,889	-17,927	161,440	71,725
110,903	-18,114	161,401	71,598
111,918	-18,010	161,263	71,588
112,933	-18,343	161,271	71,402
113,947	-17,849	160,956	71,527
114,962	-18,188	160,750	71,244
115,976	-17,830	160,616	71,374
116,991	-18,036	160,603	71,249
118,006	-17,875	160,554	71,309
119,020	-18,007	160,477	71,196
120,035	-17,983	160,281	71,116
121,049	-17,962	160,175	71,074
122,064	-17,956	160,108	71,041
123,079	-18,405	159,936	70,714
124,093	-18,153	159,837	70,801
125,108	-17,726	159,595	70,919
126,122	-17,731	159,532	70,882
127,137	-17,773	159,414	70,801
128,151	-17,874	159,289	70,684
129,166	-17,648	159,006	70,675
130,181	-17,801	158,977	70,573
131,195	-17,736	158,685	70,472
132,210	-18,146	158,759	70,277
133,224	-18,076	158,578	70,229
134,239	-17,970	158,402	70,201
135,254	-17,846	158,225	70,183
136,268	-17,773	158,171	70,192
137,283	-17,984	157,992	69,993
138,297	-17,855	157,882	70,007
139,312	-18,028	157,649	69,805
140,327	-18,592	157,565	69,460
141,341	-18,762	157,202	69,203
142,356	-19,211	157,102	68,914
143,370	-18,066	157,483	69,687
144,385	-10,581	159,065	74,418
145,400	-3,914	160,507	78,706
146,414	-2,027	160,545	79,740
147,429	-2,006	160,607	79,775
148,443	-1,496	160,507	79,994
149,458	-1,796	160,591	79,866
150,473	-1,303	160,375	80,019
151,487	-0,922	160,289	80,174
152,502	-1,175	160,239	80,006
153,516	-1,014	159,894	79,912
154,531	-1,025	159,933	79,919
155,546	-0,863	159,836	79,951
156,560	-0,993	159,683	79,797
157,575	-0,961	159,573	79,752
158,589	-1,071	159,485	79,642
159,604	-0,856	159,344	79,680
160,619	-1,178	159,197	79,427
161,633	-0,712	159,111	79,626
162,648	-0,844	158,998	79,492
163,662	-1,020	159,030	79,406
164,677	-0,851	158,800	79,375
165,692	-0,757	158,777	79,407
166,706	-0,622	158,734	79,450
167,721	-0,816	158,601	79,273
168,735	-0,770	158,360	79,170
169,750	-0,692	158,270	79,159
170,764	-0,830	158,319	79,104
171,779	-0,352	158,142	79,262
172,794	-0,574	157,973	79,053
173,808	-0,586	157,846	78,976
174,823	-0,797	157,823	78,845
175,837	-0,721	157,628	78,781
176,852	-0,724	157,602	78,760
177,867	-0,788	157,568	78,701
178,881	-0,528	157,345	78,720
179,896	-0,575	157,243	78,638
180,910	-0,790	157,177	78,484
181,925	-0,545	156,981	78,509
182,940	-0,418	156,846	78,501
183,954	-0,655	156,689	78,291
184,969	-0,598	156,677	78,308
185,983	-0,456	156,558	78,316
186,998	-0,355	156,431	78,299
188,013	-0,559	156,310	78,124
189,027	-0,677	156,244	78,022
190,042	-0,486	156,131	78,059
191,056	-0,326	155,894	78,016
192,071	-0,629	156,064	77,936
193,086	-0,526	155,925	77,914
194,100	-0,409	155,582	77,796
195,115	-0,640	155,391	77,574
196,129	-0,553	155,479	77,656
197,144	-0,350	155,282	77,656
198,159	-0,259	155,250	77,681
199,173	-0,249	154,949	77,529
200,188	-0,448	155,060	77,474
201,202	-0,194	154,811	77,474
202,217	-0,172	154,725	77,436
203,232	-0,270	154,672	77,351
204,246	-0,741	154,689	77,109
205,261	-0,158	154,451	77,285
206,275	-0,453	154,483	77,141
207,290	-0,021	154,325	77,279
208,304	-0,158	154,088	77,083
209,319	-0,458	154,146	76,950
210,334	-0,077	153,841	76,987
211,348	-0,277	153,780	76,847
212,363	-0,473	153,761	76,729
213,377	-0,163	153,553	76,778
214,392	-0,380	153,473	76,620
215,407	0,126	153,444	76,859
216,421	-0,138	153,387	76,688
217,436	-0,230	153,123	76,502
218,450	-0,266	153,098	76,464
219,465	-0,205	152,902	76,391
220,480	-0,138	152,888	76,411
221,494	-0,172	152,819	76,352
222,509	-0,205	152,676	76,257
223,523	-0,234	152,628	76,212
224,538	0,055	152,218	76,147
225,553	0,074	152,330	76,206
226,567	-0,023	152,243	76,106
227,582	-0,062	152,258	76,087
228,596	-0,231	152,138	75,934
229,611	-0,124	152,042	75,934
230,626	-0,261	151,872	75,773
231,640	-0,441	151,707	75,593
232,655	-0,049	151,635	75,749
233,669	0,020	151,478	75,699
234,684	-0,165	151,525	75,621
235,699	-0,104	151,352	75,559
236,713	0,055	151,271	75,592
237,728	-0,098	151,059	75,403
238,742	-0,093	151,076	75,407
239,757	-0,011	151,051	75,429
240,772	0,195	150,830	75,416
241,786	0,143	150,661	75,298
242,801	0,100	150,546	75,212
243,815	0,249	150,480	75,248
244,830	0,355	150,323	75,216
245,844	-0,052	150,417	75,052
246,859	0,194	150,188	75,054
247,874	-0,447	150,318	74,790
248,888	0,031	150,042	74,886
249,903	0,166	150,070	74,961
250,917	0,148	149,958	74,889
251,932	0,051	149,800	74,755
252,947	0,139	149,703	74,744
253,961	-0,054	149,666	74,622
254,976	-0,070	149,426	74,488
255,990	0,287	149,398	74,646
257,005	0,418	149,377	74,694
258,020	0,492	149,262	74,666
259,034	0,306	149,074	74,473
260,049	0,224	149,029	74,403
261,063	0,252	148,761	74,277
262,078	0,242	148,777	74,273
263,093	0,026	148,630	74,086
264,107	0,356	148,552	74,204
265,122	0,438	148,579	74,251
266,136	0,231	148,442	74,074
267,151	0,361	148,214	74,018
268,166	0,346	148,170	73,982
269,180	0,278	147,994	73,854
270,195	-0,135	148,043	73,668
271,209	0,438	147,858	73,852
272,224	0,381	147,734	73,755
273,239	0,388	147,673	73,722
274,253	0,188	147,623	73,591
275,268	0,264	147,546	73,584
276,282	0,243	147,375	73,482
277,297	0,014	147,319	73,335
278,312	0,441	147,146	73,452
279,326	0,532	147,155	73,494
280,341	0,449	147,097	73,418
281,355	0,637	146,977	73,444
282,370	0,523	146,884	73,334
283,384	0,323	146,791	73,184
284,399	0,589	146,582	73,203
285,414	0,456	146,515	73,099
286,428	0,532	146,500	73,121
287,443	0,623	146,336	73,077
288,457	0,289	146,355	72,917
289,472	0,678	146,246	73,046
290,487	0,440	146,189	72,895
291,501	0,576	145,975	72,848
292,516	0,271	145,858	72,635
293,530	0,568	145,716	72,702
294,545	0,590	145,743	72,719
295,560	0,584	145,700	72,689
296,574	0,471	145,474	72,515
297,589	0,610	145,389	72,533
298,603	0,666	145,257	72,488
299,618	0,589	145,237	72,434
300,633	0,219	145,195	72,228
301,647	0,600	145,020	72,319
302,662	0,553	144,899	72,229
303,676	0,661	144,890	72,270
304,691	0,466	144,746	72,098
305,706	0,650	144,700	72,157
306,720	0,331	144,624	71,960
307,735	0,766	144,490	72,095
308,749	0,534	144,333	71,899
309,764	0,505	144,237	71,831
310,779	0,549	144,258	71,856
311,793	0,731	144,118	71,867
312,808	0,738	143,990	71,800
313,822	0,859	143,813	71,763
314,837	0,594	143,821	71,635
315,852	0,650	143,744	71,617
316,866	0,888	143,597	71,650
317,881	0,792	143,642	71,621
318,895	0,687	143,412	71,450
319,910	0,672	143,391	71,425
320,925	0,348	143,351	71,245
321,939	0,812	143,256	71,412
322,954	0,329	143,073	71,085
323,968	0,701	143,051	71,245
324,983	0,843	142,821	71,191
325,997	0,545	142,777	71,022
327,012	0,771	142,683	71,076
328,027	0,668	142,515	70,937
329,041	0,775	142,439	70,943
330,056	0,616	142,447	70,866
331,070	0,750	142,292	70,845
332,085	0,683	142,208	70,766
333,100	0,595	142,150	70,689
334,114	0,896	141,890	70,695
335,129	0,727	141,932	70,630
336,143	0,913	141,850	70,670
337,158	1,053	141,697	70,654
338,173	0,771	141,760	70,546
339,187	0,775	141,599	70,462
340,202	0,667	141,455	70,333
341,216	0,859	141,335	70,357
342,231	0,885	141,358	70,374
343,246	0,868	141,196	70,280
344,260	0,979	141,086	70,271
345,275	1,091	141,162	70,354
346,289	0,954	141,108	70,257
347,304	1,045	140,968	70,224
348,319	1,110	140,723	70,126
349,333	0,869	140,625	69,958
350,348	1,453	140,373	70,098
351,362	1,301	140,432	70,051
352,377	1,328	140,486	70,084
353,392	1,052	140,315	69,864
354,406	1,176	140,267	69,892
355,421	193,182	1321,534	1392,832
356,435	152,161	1465,911	1393,319
