DTS Sentinel unit serial number:	SN410029Multiplexer serial number:	ORYXHardware model number:	OX2-SRSoftware version number:	ORYX F/W v4,00 Oryx Data Collector v3.7.2.0data status	okinstallation	B3 Nyhavnadifferential loss correction	single-endedforward channel	channel 1reverse channel	N/Adate	2023/11/28time	12:12:30forward acquisition time	300,00reverse acquisition time	0,00gamma	499,1914k internal	0,3142k external	0,3142temperature offset calibration	1,0000default loss term (dB/km)	0,3820temperature slope calibration	1,0000multiplexer offset coefficient	1,0000multiplexer slope coefficient	1,0000fibre end	0,00T internal ref (°C)	8,65T ext. ref 1 (°C)	-7,60T ext. ref 2 (°C)	-7,79length (m)	temperature (°C)	Stokes	anti-Stokes-744,400	249,830	-0,251	-0,316
-743,385	-200,000	-0,011	0,287
-742,371	-200,000	-0,069	-0,269
-741,356	-200,000	-0,043	0,279
-740,342	599,385	-0,181	-0,333
-739,327	97,121	-0,140	0,119
-738,312	800,000	-0,200	-0,413
-737,298	669,960	-0,045	0,087
-736,283	330,725	-0,143	-0,205
-735,269	-200,000	0,073	0,408
-734,254	800,000	-0,142	-0,322
-733,239	764,425	-0,118	0,238
-732,225	144,636	-0,189	-0,187
-731,210	-200,000	-0,015	0,139
-730,196	593,333	0,066	-0,122
-729,181	-154,104	0,096	-0,005
-728,167	649,348	-0,072	-0,137
-727,152	384,914	-0,018	0,028
-726,137	-160,465	-0,110	-0,004
-725,123	-200,000	-0,011	-0,046
-724,108	336,319	-0,104	-0,150
-723,094	-103,600	-0,062	0,011
-722,079	800,000	-0,020	0,062
-721,064	312,400	-0,089	-0,123
-720,050	-146,031	-0,088	-0,006
-719,035	56,633	0,102	-0,074
-718,021	182,158	-0,061	-0,066
-717,006	310,903	-0,045	-0,063
-715,991	-92,210	-0,183	-0,038
-714,977	61,679	-0,032	-0,024
-713,962	399,318	-0,060	0,094
-712,948	390,124	0,050	0,076
-711,933	-200,000	0,035	0,115
-710,918	800,000	-0,052	-0,144
-709,904	-87,975	-0,101	-0,022
-708,889	-109,028	-0,052	-0,008
-707,875	354,822	-0,081	-0,119
-706,860	48,562	-0,052	0,036
-705,845	177,590	0,049	0,053
-704,831	175,623	0,102	0,110
-703,816	-88,351	-0,030	0,007
-702,802	-200,000	-0,011	0,075
-701,787	-102,540	0,112	-0,020
-700,772	34,246	-0,078	0,050
-699,758	-53,775	-0,191	-0,064
-698,743	800,000	0,073	0,151
-697,729	225,849	0,037	0,044
-696,714	330,161	0,045	0,065
-695,699	-200,000	-0,006	-0,074
-694,685	588,696	-0,046	-0,085
-693,670	388,947	-0,048	-0,074
-692,656	-2,325	-0,133	-0,069
-691,641	458,226	0,003	-0,005
-690,627	-200,000	0,010	0,037
-689,612	-159,336	0,004	0,000
-688,597	-200,000	-0,017	-0,105
-687,583	6,269	-0,095	0,052
-686,568	-34,219	0,017	0,007
-685,554	37,748	-0,035	-0,023
-684,539	-92,982	-0,102	-0,021
-683,524	-200,000	-0,012	0,054
-682,510	67,153	0,105	-0,079
-681,495	800,000	-0,105	-0,224
-680,481	217,565	-0,087	-0,102
-679,466	481,597	-0,089	-0,151
-678,451	-95,890	-0,090	0,018
-677,437	-200,000	-0,007	0,108
-676,422	-200,000	0,034	0,207
-675,408	-200,000	0,018	0,191
-674,393	17,456	0,114	-0,067
-673,378	61,966	-0,125	-0,092
-672,364	-76,532	0,085	-0,022
-671,349	800,000	-0,024	-0,075
-670,335	43,815	0,038	-0,025
-669,320	16,275	0,078	-0,045
-668,305	800,000	0,024	0,063
-667,291	-188,483	-0,197	0,002
-666,276	123,975	-0,121	0,112
-665,262	577,189	-0,015	-0,028
-664,247	-38,879	-0,084	-0,032
-663,232	14,053	0,126	-0,072
-662,218	-75,680	-0,068	-0,018
-661,203	-200,000	0,040	0,168
-660,189	-119,458	-0,055	-0,007
-659,174	614,763	0,062	-0,116
-658,159	43,555	-0,106	-0,072
-657,145	419,832	-0,017	-0,027
-656,130	389,862	-0,024	0,036
-655,116	133,019	0,010	-0,010
-654,101	-142,191	0,098	-0,007
-653,086	-200,000	0,016	0,062
-652,072	-200,000	0,006	-0,045
-651,057	-200,000	-0,013	-0,050
-650,043	66,054	-0,013	0,010
-649,028	121,961	0,028	-0,026
-648,014	-82,880	0,140	-0,033
-646,999	800,000	-0,041	-0,121
-645,984	663,281	-0,030	0,058
-644,970	775,262	-0,065	-0,131
-643,955	-200,000	0,005	-0,176
-642,941	-200,000	0,018	-0,176
-641,926	454,906	0,047	-0,078
-640,911	-64,487	-0,070	-0,021
-639,897	76,069	-0,034	-0,027
-638,882	-200,000	-0,007	0,095
-637,868	-110,827	-0,016	0,002
-636,853	139,138	-0,020	-0,019
-635,838	31,022	-0,132	-0,083
-634,824	-200,000	0,013	-0,146
-633,809	-200,000	-0,046	0,217
-632,795	-200,000	0,011	0,053
-631,780	104,700	0,072	0,063
-630,765	595,409	-0,040	-0,074
-629,751	-16,867	-0,137	-0,064
-628,736	800,000	-0,014	0,031
-627,722	142,179	0,035	0,034
-626,707	170,730	0,072	-0,076
-625,692	-21,644	0,195	-0,087
-624,678	476,553	-0,045	0,076
-623,663	-76,491	-0,160	-0,041
-622,649	-13,906	-0,105	0,050
-621,634	-47,652	-0,123	0,044
-620,619	379,689	-0,017	0,026
-619,605	-136,598	0,112	0,009
-618,590	-123,755	-0,045	0,005
-617,576	175,339	-0,047	0,050
-616,561	800,000	0,044	0,110
-615,546	800,000	0,026	-0,076
-614,532	800,000	-0,071	-0,146
-613,517	800,000	0,016	-0,045
-612,503	91,561	0,051	-0,042
-611,488	29,915	0,078	0,049
-610,474	-107,557	0,023	0,004
-609,459	213,932	-0,039	-0,046
-608,444	-46,089	-0,055	-0,020
-607,430	-145,823	-0,213	0,014
-606,415	384,499	-0,040	-0,061
-605,401	638,348	0,058	-0,109
-604,386	800,000	0,009	0,030
-603,371	-200,000	-0,022	0,084
-602,357	-65,805	-0,198	0,058
-601,342	66,250	0,086	0,064
-600,328	173,992	-0,023	-0,024
-599,313	264,329	0,064	-0,083
-598,298	-200,000	0,004	-0,066
-597,284	111,613	-0,040	-0,036
-596,269	-82,348	-0,076	0,018
-595,255	-200,000	-0,011	0,060
-594,240	800,000	-0,036	0,090
-593,225	295,162	-0,091	-0,123
-592,211	-18,733	0,114	-0,052
-591,196	-87,488	-0,116	-0,026
-590,182	-167,922	0,029	-0,001
-589,167	167,367	0,049	0,051
-588,152	-200,000	0,036	0,171
-587,138	736,215	0,043	0,086
-586,123	58,566	-0,039	-0,028
-585,109	-16,960	0,030	-0,014
-584,094	-200,000	-0,013	-0,079
-583,079	-82,810	0,117	-0,028
-582,065	-200,000	0,003	0,011
-581,050	-84,031	0,121	0,028
-580,036	642,625	0,047	-0,089
-579,021	-151,232	-0,018	0,001
-578,006	21,615	-0,026	-0,016
-576,992	120,264	-0,027	0,025
-575,977	-135,055	0,152	0,013
-574,963	188,448	0,031	0,034
-573,948	152,225	-0,097	-0,098
-572,934	-181,182	-0,036	-0,001
-571,919	-31,474	-0,116	-0,048
-570,904	109,149	-0,095	-0,084
-569,890	294,012	0,068	0,091
-568,875	-200,000	-0,012	0,049
-567,861	-200,000	0,041	0,140
-566,846	220,497	-0,042	-0,050
-565,831	-200,000	-0,000	0,065
-564,817	-75,462	-0,080	-0,021
-563,802	33,344	-0,070	-0,045
-562,788	109,779	0,035	-0,031
-561,773	231,709	0,040	0,048
-560,758	-153,309	0,149	-0,008
-559,744	420,181	-0,072	0,114
-558,729	-200,000	0,023	0,124
-557,715	216,818	-0,045	-0,053
-556,700	-45,000	0,117	-0,043
-555,685	443,132	0,074	0,119
-554,671	141,655	0,102	0,099
-553,656	576,733	0,012	-0,021
-552,642	-15,953	0,140	-0,065
-551,627	768,279	0,033	0,067
-550,612	-101,255	-0,145	0,026
-549,598	-29,939	-0,112	-0,047
-548,583	-200,000	-0,028	-0,101
-547,569	-133,456	0,061	0,006
-546,554	33,374	0,028	-0,018
-545,539	269,433	-0,027	0,035
-544,525	800,000	0,010	0,025
-543,510	800,000	0,014	-0,040
-542,496	-66,990	0,031	-0,009
-541,481	-108,199	-0,084	-0,013
-540,466	-32,179	-0,059	0,024
-539,452	-167,608	0,163	0,005
-538,437	-23,958	-0,093	0,041
-537,423	-67,967	0,120	0,034
-536,408	83,974	-0,079	0,063
-535,393	-94,945	-0,164	0,032
-534,379	49,412	0,106	0,073
-533,364	-200,000	0,006	-0,102
-532,350	-62,823	-0,059	-0,018
-531,335	9,054	0,125	0,069
-530,321	-200,000	-0,002	-0,010
-529,306	-200,000	-0,024	-0,112
-528,291	420,106	0,101	-0,159
-527,277	-41,029	-0,086	-0,032
-526,262	-200,000	-0,030	-0,117
-525,248	654,578	-0,010	0,018
-524,233	98,291	0,124	-0,105
-523,218	-10,045	0,145	0,070
-522,204	-200,000	-0,007	-0,117
-521,189	800,000	0,094	-0,223
-520,175	800,000	-0,006	-0,015
-519,160	-55,271	-0,162	0,053
-518,145	-200,000	0,014	0,112
-517,131	65,298	0,076	-0,056
-516,116	-200,000	0,014	-0,097
-515,102	-34,364	0,101	-0,041
-514,087	-200,000	0,001	0,133
-513,072	-200,000	0,017	-0,212
-512,058	800,000	-0,044	-0,119
-511,043	-105,090	0,080	0,013
-510,029	259,857	-0,078	0,099
-509,014	800,000	0,060	0,158
-507,999	645,756	-0,067	0,126
-506,985	-144,469	-0,051	-0,003
-505,970	356,648	-0,047	-0,069
-504,956	17,815	-0,072	0,042
-503,941	26,547	0,028	-0,017
-502,926	-200,000	-0,012	0,156
-501,912	380,051	0,025	-0,038
-500,897	591,449	-0,058	-0,105
-499,883	697,493	0,025	-0,048
-498,868	526,290	-0,019	0,033
-497,853	319,562	-0,031	-0,044
-496,839	-158,741	0,032	0,001
-495,824	-59,273	0,080	-0,025
-494,810	264,243	0,067	0,085
-493,795	-48,737	-0,083	-0,029
-492,781	192,032	-0,026	-0,028
-491,766	211,848	-0,063	-0,073
-490,751	-200,000	-0,004	-0,020
-489,737	-2,283	-0,173	0,089
-488,722	800,000	0,005	0,015
-487,708	719,021	0,015	0,030
-486,693	132,154	0,166	-0,157
-485,678	139,764	-0,066	-0,064
-484,664	-200,000	-0,041	-0,142
-483,649	115,467	0,101	-0,091
-482,635	335,197	-0,062	-0,088
-481,620	800,000	0,005	0,013
-480,605	800,000	0,035	0,078
-479,591	-200,000	0,006	0,102
-478,576	109,000	0,088	-0,077
-477,562	5,812	0,073	-0,040
-476,547	800,000	-0,006	-0,016
-475,532	91,685	-0,010	0,008
-474,518	-103,236	-0,102	0,017
-473,503	800,000	0,020	0,047
-472,489	-114,178	0,086	0,012
-471,474	114,241	-0,017	-0,015
-470,459	-95,202	-0,047	0,009
-469,445	13,177	0,071	-0,040
-468,430	419,632	0,078	-0,122
-467,416	-200,000	0,004	-0,050
-466,401	-68,353	0,113	0,032
-465,386	-62,082	-0,025	-0,008
-464,372	203,028	0,036	0,040
-463,357	-69,242	-0,044	-0,012
-462,343	800,000	-0,016	0,039
-461,328	32,203	0,113	0,071
-460,313	-200,000	0,013	-0,041
-459,299	100,251	0,016	0,013
-458,284	-19,123	0,073	-0,033
-457,270	-62,548	0,099	0,030
-456,255	190,269	-0,064	0,071
-455,241	64,364	-0,029	0,021
-454,226	61,756	0,088	-0,064
-453,211	-200,000	-0,037	0,150
-452,197	-173,804	0,161	-0,003
-451,182	800,000	0,056	0,146
-450,168	-200,000	0,003	0,079
-449,153	-200,000	-0,022	-0,149
-448,138	147,645	-0,083	0,082
-447,124	477,983	0,076	-0,127
-446,109	-45,824	0,056	0,020
-445,095	52,757	0,108	0,075
-444,080	-59,682	0,013	0,004
-443,065	46,362	-0,022	0,015
-442,051	-130,094	-0,096	-0,009
-441,036	-34,728	0,065	0,026
-440,022	-200,000	0,002	-0,045
-439,007	-48,773	0,040	0,014
-437,992	800,000	-0,019	-0,058
-436,978	-184,073	-0,116	-0,001
-435,963	-29,860	0,074	0,031
-434,949	-200,000	0,033	-0,139
-433,934	-200,000	0,006	0,021
-432,919	462,041	0,030	-0,049
-431,905	284,954	0,069	0,092
-430,890	-131,803	0,177	0,017
-429,876	8,474	-0,088	0,048
-428,861	237,452	0,043	0,052
-427,846	-22,357	-0,084	-0,037
-426,832	50,392	0,073	-0,051
-425,817	-200,000	0,004	-0,020
-424,803	62,866	0,106	-0,078
-423,788	56,679	-0,062	0,044
-422,773	800,000	-0,084	0,173
-421,759	-200,000	-0,019	0,077
-420,744	800,000	0,019	-0,055
-419,730	276,737	-0,041	0,054
-418,715	-200,000	0,005	0,075
-417,701	50,875	-0,105	0,073
-416,686	222,413	-0,047	-0,055
-415,671	191,413	0,042	0,047
-414,657	120,383	0,126	0,114
-413,642	800,000	0,032	0,086
-412,628	-73,796	-0,046	0,012
-411,613	331,499	0,030	-0,042
-410,598	132,905	0,055	-0,052
-409,584	-36,406	0,052	0,020
-408,569	154,825	-0,033	-0,033
-407,555	-123,846	0,141	0,016
-406,540	-200,000	0,002	-0,030
-405,525	-56,236	-0,083	-0,027
-404,511	231,425	0,021	-0,026
-403,496	-74,769	0,094	-0,025
-402,482	-42,540	-0,085	0,031
-401,467	560,683	0,026	-0,046
-400,452	-154,965	0,022	-0,001
-399,438	-49,387	-0,166	0,058
-398,423	800,000	-0,056	-0,150
-397,409	49,340	-0,009	0,007
-396,394	800,000	0,042	0,095
-395,379	100,427	0,089	-0,075
-394,365	73,717	0,194	-0,148
-393,350	800,000	0,064	0,140
-392,336	377,687	0,064	0,096
-391,321	-40,903	-0,136	0,051
-390,306	-200,000	0,036	-0,141
-389,292	-12,374	0,092	0,044
-388,277	-200,000	0,004	0,076
-387,263	669,304	0,073	0,138
-386,248	24,226	-0,059	-0,036
-385,233	281,592	-0,051	0,067
-384,219	-110,389	-0,035	0,005
-383,204	-200,000	0,018	-0,104
-382,190	190,879	-0,087	-0,096
-381,175	17,844	0,072	-0,042
-380,160	-200,000	0,005	0,074
-379,146	70,127	-0,116	0,087
-378,131	304,742	0,043	-0,058
-377,117	800,000	0,008	-0,020
-376,102	-122,267	-0,074	0,009
-375,088	151,527	-0,032	-0,032
-374,073	-70,872	0,090	0,025
-373,058	-138,993	-0,073	-0,006
-372,044	-112,081	0,140	0,020
-371,029	246,130	0,069	-0,085
-370,015	226,691	-0,058	-0,069
-369,000	-99,218	-0,009	-0,002
-367,985	-200,000	0,025	0,086
-366,971	250,620	-0,032	0,039
-365,956	-125,086	0,247	-0,027
-364,942	-200,000	-0,011	0,046
-363,927	-17,292	0,038	-0,017
-362,912	225,628	0,007	-0,009
-361,898	-131,926	-0,140	-0,013
-360,883	800,000	0,006	0,014
-359,869	48,482	0,027	-0,019
-358,854	335,566	-0,058	0,083
-357,839	383,327	-0,005	-0,007
-356,825	122,970	-0,052	0,048
-355,810	-18,109	-0,072	-0,033
-354,796	32,065	0,032	-0,020
-353,781	691,790	-0,056	-0,108
-352,766	-17,353	-0,128	0,059
-351,752	-200,000	-0,029	-0,095
-350,737	-200,000	-0,003	0,059
-349,723	48,239	-0,123	0,084
-348,708	-200,000	0,006	0,053
-347,693	-200,000	0,003	0,075
-346,679	-200,000	0,001	-0,046
-345,664	785,621	-0,051	-0,102
-344,650	475,357	-0,050	0,083
-343,635	-131,245	0,139	0,013
-342,620	65,679	0,090	-0,066
-341,606	171,175	-0,056	0,058
-340,591	150,704	0,085	-0,084
-339,577	442,015	0,049	-0,078
-338,562	800,000	0,019	-0,059
-337,548	257,465	0,023	-0,028
-336,533	-200,000	-0,004	0,076
-335,518	-200,000	-0,029	-0,110
-334,504	-118,761	0,138	-0,018
-333,489	-11,262	-0,085	-0,040
-332,475	190,139	-0,042	-0,046
-331,460	-186,483	-0,125	-0,001
-330,445	-200,000	0,015	-0,092
-329,431	188,119	-0,034	-0,037
-328,416	-121,728	0,135	0,016
-327,402	98,824	-0,087	0,073
-326,387	-200,000	0,023	0,192
-325,372	-91,028	-0,086	0,018
-324,358	188,665	0,077	-0,084
-323,343	-200,000	0,016	-0,174
-322,329	494,556	0,028	0,046
-321,314	147,470	-0,062	-0,061
-320,299	800,000	-0,059	-0,135
-319,285	10,712	-0,099	0,055
-318,270	800,000	-0,053	-0,123
-317,256	-177,849	-0,194	-0,003
-316,241	493,905	0,003	0,005
-315,226	-200,000	0,013	0,103
-314,212	108,498	0,019	0,016
-313,197	800,000	0,013	-0,035
-312,183	-52,548	-0,151	-0,051
-311,168	-130,885	-0,062	0,006
-310,153	417,057	-0,059	-0,092
-309,139	800,000	0,078	0,166
-308,124	800,000	-0,033	-0,077
-307,110	800,000	-0,057	-0,124
-306,095	217,245	0,063	0,074
-305,080	302,739	-0,048	-0,065
-304,066	-200,000	0,009	0,105
-303,051	160,564	-0,039	0,040
-302,037	-200,000	-0,009	0,057
-301,022	0,990	-0,075	-0,039
-300,008	303,048	-0,087	0,118
-298,993	112,759	0,095	0,084
-297,978	-200,000	-0,026	-0,091
-296,964	-17,964	-0,062	-0,028
-295,949	-200,000	-0,004	0,024
-294,935	800,000	0,046	-0,099
-293,920	-200,000	-0,015	-0,082
-292,905	800,000	0,061	0,125
-291,891	-200,000	0,048	0,200
-290,876	800,000	-0,044	-0,124
-289,862	426,498	0,046	-0,073
-288,847	-200,000	0,012	0,044
-287,832	377,876	-0,008	0,013
-286,818	193,947	-0,009	0,010
-285,803	306,083	-0,066	-0,089
-284,789	-200,000	-0,016	0,109
-283,774	334,167	0,091	0,128
-282,759	199,712	0,088	-0,099
-281,745	-200,000	-0,018	-0,066
-280,730	173,237	-0,023	-0,024
-279,716	-124,411	-0,072	0,008
-278,701	-154,198	0,167	-0,008
-277,686	-89,664	0,030	0,006
-276,672	-113,600	-0,095	-0,013
-275,657	-200,000	-0,005	0,038
-274,643	-2,702	-0,116	-0,059
-273,628	63,417	-0,099	-0,072
-272,613	800,000	-0,008	-0,019
-271,599	-200,000	-0,010	0,055
-270,584	171,136	0,129	-0,135
-269,570	-200,000	-0,019	-0,106
-268,555	-200,000	0,007	0,129
-267,540	-118,476	-0,092	0,012
-266,526	-40,871	0,111	0,042
-265,511	24,612	0,074	-0,044
-264,497	149,680	-0,060	0,059
-263,482	-200,000	0,014	0,129
-262,467	-25,763	0,056	0,024
-261,453	113,651	-0,028	-0,025
-260,438	800,000	-0,027	-0,063
-259,424	180,278	-0,111	-0,119
-258,409	-200,000	-0,007	0,094
-257,395	-200,000	0,007	0,099
-256,380	212,017	-0,064	0,073
-255,365	55,916	0,153	0,108
-254,351	350,000	0,048	0,069
-253,336	-79,150	-0,197	-0,048
-252,322	-200,000	-0,043	0,143
-251,307	-200,000	0,014	-0,064
-250,292	352,091	-0,089	0,128
-249,278	283,829	0,188	0,246
-248,263	800,000	-0,018	0,058
-247,249	39,982	0,040	0,026
-246,234	-200,000	-0,000	-0,091
-245,219	193,374	-0,053	-0,059
-244,205	-5,945	-0,087	0,043
-243,190	-200,000	-0,027	0,152
-242,176	-200,000	0,004	0,139
-241,161	-200,000	-0,000	0,032
-240,146	-200,000	0,006	0,152
-239,132	-22,354	-0,018	-0,008
-238,117	-72,286	0,036	0,010
-237,103	-86,860	-0,224	0,049
-236,088	31,751	-0,021	0,013
-235,073	29,928	-0,082	0,050
-234,059	-200,000	-0,024	-0,123
-233,044	-66,061	0,082	0,024
-232,030	-177,307	-0,088	0,002
-231,015	61,041	-0,028	-0,020
-230,000	112,481	-0,044	-0,039
-228,986	29,100	0,125	-0,077
-227,971	69,587	0,060	0,045
-226,957	501,308	0,044	0,074
-225,942	31,152	-0,063	0,039
-224,927	-60,766	0,061	0,019
-223,913	-200,000	0,012	0,144
-222,898	41,280	0,032	-0,021
-221,884	-200,000	-0,003	-0,015
-220,869	-200,000	-0,002	0,020
-219,855	80,413	-0,057	0,044
-218,840	-200,000	0,001	0,080
-217,825	-140,877	0,101	-0,007
-216,811	-197,243	-0,058	0,000
-215,796	-60,097	0,024	0,007
-214,782	800,000	0,003	0,007
-213,767	-167,343	0,044	-0,001
-212,752	144,868	0,058	0,056
-211,738	354,988	-0,005	-0,007
-210,723	800,000	-0,024	-0,067
-209,709	-200,000	-0,041	-0,137
-208,694	-66,967	-0,117	-0,033
-207,679	-97,657	0,093	0,017
-206,665	110,419	0,074	0,064
-205,650	44,437	0,099	-0,066
-204,636	-200,000	-0,017	-0,062
-203,621	-79,608	-0,065	-0,016
-202,606	-105,166	-0,011	0,002
-201,592	425,565	-0,037	0,058
-200,577	365,483	-0,033	-0,048
-199,563	550,566	0,060	-0,105
-198,548	800,000	-0,039	0,089
-197,533	196,679	0,057	-0,063
-196,519	-106,615	-0,038	-0,006
-195,504	556,567	-0,055	0,096
-194,490	-10,712	-0,075	-0,036
-193,475	219,378	-0,084	0,098
-192,460	-200,000	0,007	-0,115
-191,446	-200,000	0,027	0,133
-190,431	-200,000	-0,031	-0,105
-189,417	-54,431	-0,167	-0,054
-188,402	800,000	-0,047	-0,108
-187,387	-130,395	0,031	-0,003
-186,373	800,000	-0,022	0,061
-185,358	548,714	0,067	0,116
-184,344	-200,000	0,002	-0,119
-183,329	53,348	-0,065	-0,045
-182,315	67,789	0,117	0,087
-181,300	1,837	0,091	0,048
-180,285	-200,000	-0,017	-0,057
-179,271	152,931	0,062	0,061
-178,256	349,724	-0,046	-0,066
-177,242	179,327	0,084	0,090
-176,227	80,503	0,187	-0,146
-175,212	-200,000	-0,005	0,103
-174,198	800,000	0,034	0,069
-173,183	-200,000	0,000	-0,060
-172,169	218,110	0,067	-0,077
-171,154	-107,641	-0,186	-0,029
-170,139	-200,000	-0,008	0,048
-169,125	-200,000	0,008	0,060
-168,110	589,803	0,071	0,127
-167,096	-148,085	0,010	0,001
-166,081	418,276	-0,020	-0,032
-165,066	58,917	-0,073	0,052
-164,052	800,000	-0,042	-0,113
-163,037	-200,000	-0,006	0,028
-162,023	800,000	0,013	-0,037
-161,008	800,000	0,023	-0,067
-159,993	-200,000	-0,002	0,094
-158,979	151,597	-0,027	-0,027
-157,964	-200,000	-0,020	-0,068
-156,950	123,394	0,087	0,079
-155,935	-43,268	0,052	-0,019
-154,920	444,054	-0,041	0,066
-153,906	350,528	0,026	0,037
-152,891	-200,000	-0,001	0,006
-151,877	-200,000	0,038	-0,165
-150,862	-175,928	-0,142	-0,003
-149,847	328,307	0,057	-0,080
-148,833	800,000	-0,054	0,144
-147,818	-200,000	0,032	-0,126
-146,804	-42,361	-0,173	0,063
-145,789	-86,034	0,108	0,024
-144,775	800,000	-0,062	-0,149
-143,760	-200,000	0,005	-0,089
-142,745	-0,704	-0,073	-0,037
-141,731	680,702	0,083	0,157
-140,716	-200,000	0,026	-0,106
-139,702	-200,000	-0,005	-0,036
-138,687	14,130	0,040	0,023
-137,672	-126,035	-0,034	0,004
-136,658	40,451	-0,164	0,106
-135,643	-200,000	0,013	-0,069
-134,629	754,002	-0,045	0,089
-133,614	800,000	-0,007	-0,018
-132,599	-133,593	0,087	0,008
-131,585	-164,151	0,054	0,002
-130,570	-23,756	0,055	0,024
-129,556	-92,726	-0,112	-0,023
-128,541	127,531	-0,144	-0,132
-127,526	800,000	-0,055	-0,121
-126,512	800,000	-0,026	-0,067
-125,497	118,314	0,102	0,091
-124,483	-1,115	0,053	0,027
-123,468	222,624	0,044	0,051
-122,453	-200,000	-0,013	0,076
-121,439	-48,288	-0,048	-0,017
-120,424	800,000	-0,018	0,048
-119,410	581,742	-0,098	-0,174
-118,395	-58,443	-0,022	-0,007
-117,380	139,905	0,113	0,107
-116,366	132,176	0,083	-0,077
-115,351	137,045	0,118	0,111
-114,337	-200,000	0,007	-0,091
-113,322	-200,000	0,001	-0,010
-112,307	167,811	-0,040	-0,041
-111,293	136,067	-0,087	0,082
-110,278	14,322	0,072	-0,040
-109,264	-200,000	-0,010	-0,123
-108,249	214,618	0,038	-0,044
-107,234	791,035	-0,068	-0,137
-106,220	-102,064	-0,029	-0,005
-105,205	-72,726	0,044	-0,012
-104,191	406,345	0,057	0,088
-103,176	-200,000	0,016	0,177
-102,162	-200,000	0,012	-0,070
-101,147	-72,475	0,060	0,016
-100,132	-84,031	-0,103	-0,024
-99,118	330,817	0,071	0,099
-98,103	-14,280	-0,007	-0,003
-97,089	109,824	0,152	-0,132
-96,074	-190,520	0,032	0,000
-95,059	86,726	0,027	-0,022
-94,045	-200,000	-0,026	-0,133
-93,030	-200,000	0,017	-0,122
-92,016	-159,312	-0,059	-0,002
-91,001	15,581	0,045	-0,026
-89,986	20,788	0,056	-0,033
-88,972	-200,000	-0,024	0,119
-87,957	102,692	0,052	-0,044
-86,943	33,182	-0,062	-0,039
-85,928	0,889	-0,046	0,024
-84,913	596,449	-0,060	-0,109
-83,899	-200,000	-0,011	0,116
-82,884	-200,000	0,015	-0,070
-81,870	-200,000	-0,006	0,047
-80,855	-200,000	0,010	0,033
-79,840	38,097	-0,087	-0,056
-78,826	60,700	0,046	-0,033
-77,811	173,981	-0,065	0,068
-76,797	179,842	0,061	0,065
-75,782	100,739	0,059	0,049
-74,767	199,080	-0,079	0,087
-73,753	66,752	0,133	0,098
-72,738	-101,160	0,023	-0,004
-71,724	135,529	-0,077	-0,072
-70,709	-75,752	-0,108	0,027
-69,694	800,000	-0,020	-0,041
-68,680	-119,002	-0,090	-0,011
-67,665	-200,000	0,011	0,186
-66,651	800,000	0,044	-0,104
-65,636	-1,481	-0,019	-0,009
-64,622	-172,294	-0,079	-0,002
-63,607	800,000	-0,068	-0,138
-62,592	-4,253	0,123	0,061
-61,578	396,810	0,064	0,097
-60,563	-200,000	0,004	0,046
-59,549	-100,922	-0,024	0,004
-58,534	69,972	-2,067	-1,537
-57,519	558,645	-1,101	-1,925
-56,505	-200,000	-0,318	-4,271
-55,490	622,873	0,853	1,556
-54,476	800,000	5,176	11,252
-53,461	-200,000	21,920	343,564
-52,446	800,000	756,004	2314,559
-51,432	514,707	1646,030	2781,495
-50,417	68,810	1574,870	1164,820
-49,403	19,997	1142,618	662,720
-48,388	12,052	857,319	474,192
-47,373	26,063	822,842	493,977
-46,359	17,744	808,566	462,772
-45,344	8,838	804,360	436,060
-44,330	8,636	802,749	434,619
-43,315	8,554	801,452	433,675
-42,300	8,531	800,247	432,944
-41,286	8,605	799,324	432,626
-40,271	8,513	798,625	431,982
-39,257	8,599	797,325	431,496
-38,242	8,625	796,565	431,138
-37,227	8,685	795,662	430,793
-36,213	8,708	794,757	430,349
-35,198	8,615	793,973	429,655
-34,184	8,745	793,124	429,531
-33,169	8,589	792,559	428,785
-32,154	8,714	791,787	428,688
-31,140	8,739	790,521	428,053
-30,125	8,769	789,763	427,707
-29,111	8,625	789,337	427,072
-28,096	8,639	789,149	426,991
-27,082	8,674	788,275	426,596
-26,067	8,697	787,642	426,297
-25,052	8,589	786,886	425,582
-24,038	8,542	786,509	425,234
-23,023	8,619	785,524	424,892
-22,009	8,679	784,984	424,743
-20,994	8,739	784,327	424,530
-19,979	8,816	783,299	424,161
-18,965	8,771	782,996	423,862
-17,950	8,735	782,398	423,425
-16,936	8,678	782,076	423,082
-15,921	8,639	781,485	422,642
-14,906	8,572	780,786	422,070
-13,892	8,642	780,100	421,868
-12,877	8,561	779,525	421,326
-11,863	8,529	779,214	421,055
-10,848	8,485	778,728	420,661
-9,833	8,728	778,374	421,095
-8,819	8,705	777,551	420,573
-7,804	8,712	776,946	420,247
-6,790	8,556	776,791	419,736
-5,775	8,635	776,332	419,679
-4,760	8,584	775,738	419,208
-3,746	8,588	775,334	418,982
-2,731	8,344	774,739	418,003
-1,717	8,378	774,408	417,896
-0,702	8,408	773,800	417,629
0,313	8,479	770,783	416,818
1,327	12,229	751,953	416,179
2,342	20,493	611,088	355,250
3,356	14,240	337,591	189,112
4,371	-15,754	227,184	103,935
5,386	-18,522	213,909	95,812
6,400	-18,895	209,871	93,725
7,415	-17,915	208,024	93,594
8,429	-18,873	206,815	92,359
9,444	-19,039	206,076	91,903
10,459	-18,916	205,725	91,825
11,473	-18,943	205,004	91,476
12,488	-18,725	204,769	91,517
13,502	-18,954	204,182	91,086
14,517	-18,819	203,749	90,979
15,531	-18,940	203,373	90,719
16,546	-18,797	203,200	90,733
17,561	-18,878	202,846	90,511
18,575	-18,905	202,667	90,403
19,590	-18,827	202,360	90,313
20,604	-18,672	202,087	90,291
21,619	-18,937	201,748	89,948
22,634	-18,841	201,335	89,822
23,648	-18,891	201,123	89,685
24,663	-18,656	200,919	89,748
25,677	-18,814	200,713	89,539
26,692	-18,850	200,763	89,529
27,707	-18,858	200,423	89,363
28,721	-18,518	199,922	89,366
29,736	-18,756	199,839	89,157
30,750	-18,925	199,744	88,991
31,765	-18,876	199,453	88,887
32,780	-18,964	199,307	88,753
33,794	-18,517	199,110	88,964
34,809	-18,638	198,763	88,718
35,823	-18,723	198,758	88,650
36,838	-19,003	198,409	88,295
37,853	-18,900	198,224	88,276
38,867	-18,804	197,992	88,229
39,882	-18,863	197,851	88,119
40,896	-18,858	197,779	88,082
41,911	-18,721	197,519	88,051
42,926	-18,723	197,371	87,977
43,940	-18,613	197,014	87,884
44,955	-18,743	196,881	87,729
45,969	-18,841	196,795	87,616
46,984	-18,613	196,547	87,652
47,999	-18,483	196,509	87,715
49,013	-18,669	196,391	87,529
50,028	-18,662	196,007	87,355
51,042	-18,699	195,970	87,306
52,057	-18,691	195,716	87,190
53,071	-18,699	195,515	87,087
54,086	-18,425	195,393	87,209
55,101	-19,015	195,381	86,800
56,115	-18,666	195,120	86,910
57,130	-18,567	194,763	86,810
58,144	-18,829	194,548	86,531
59,159	-18,963	194,418	86,376
60,174	-18,697	194,226	86,461
61,188	-18,798	194,043	86,304
62,203	-18,799	194,053	86,301
63,217	-18,745	193,690	86,167
64,232	-18,787	193,648	86,113
65,247	-18,743	193,373	86,012
66,261	-18,976	193,337	85,834
67,276	-18,793	193,013	85,804
68,290	-18,871	192,873	85,682
69,305	-18,772	192,821	85,716
70,320	-18,535	192,400	85,678
71,334	-18,694	192,361	85,548
72,349	-18,577	192,026	85,468
73,363	-18,700	191,957	85,349
74,378	-18,812	191,722	85,164
75,393	-18,633	191,507	85,178
76,407	-18,719	191,436	85,083
77,422	-18,581	191,193	85,058
78,436	-18,811	191,100	84,858
79,451	-18,696	191,022	84,891
80,466	-18,781	190,797	84,728
81,480	-18,500	190,573	84,804
82,495	-18,785	190,547	84,599
83,509	-18,490	190,353	84,698
84,524	-18,912	190,304	84,394
85,539	-18,643	190,093	84,467
86,553	-18,650	189,871	84,357
87,568	-18,638	189,528	84,204
88,582	-18,589	189,542	84,235
89,597	-18,721	189,290	84,030
90,611	-18,903	189,171	83,852
91,626	-18,747	189,039	83,886
92,641	-18,815	188,928	83,786
93,655	-18,758	188,735	83,730
94,670	-18,768	188,561	83,639
95,684	-18,703	188,502	83,647
96,699	-18,783	188,322	83,508
97,714	-18,683	188,173	83,499
98,728	-18,579	188,110	83,531
99,743	-18,426	187,708	83,443
100,757	-18,648	187,784	83,327
101,772	-18,776	187,496	83,109
102,787	-18,840	187,513	83,069
103,801	-18,706	187,164	82,992
104,816	-18,713	187,003	82,909
105,830	-18,748	186,979	82,868
106,845	-18,684	186,880	82,858
107,860	-18,520	186,577	82,821
108,874	-18,461	186,404	82,774
109,889	-18,847	186,374	82,507
110,903	-18,490	186,167	82,636
111,918	-18,541	185,910	82,482
112,933	-18,580	185,997	82,489
113,947	-18,406	185,678	82,450
114,962	-18,513	185,692	82,381
115,976	-18,849	185,502	82,076
116,991	-18,799	185,132	81,937
118,006	-18,825	185,148	81,920
119,020	-18,715	185,008	81,920
120,035	-18,731	184,861	81,838
121,049	-18,754	184,748	81,767
122,064	-18,720	184,525	81,682
123,079	-18,733	184,420	81,620
124,093	-18,637	184,249	81,597
125,108	-18,644	184,079	81,510
126,122	-18,645	184,034	81,483
127,137	-18,400	183,820	81,534
128,151	-18,396	183,727	81,488
129,166	-18,549	183,478	81,274
130,181	-18,738	183,305	81,073
131,195	-18,556	183,230	81,146
132,210	-18,524	183,027	81,069
133,224	-18,337	182,993	81,163
134,239	-18,828	182,910	80,813
135,254	-18,630	182,563	80,775
136,268	-18,542	182,502	80,796
137,283	-18,511	182,309	80,723
138,297	-18,683	182,196	80,559
139,312	-18,451	182,033	80,624
140,327	-18,737	181,713	80,297
141,341	-19,244	181,495	79,881
142,356	-19,402	181,365	79,718
143,370	-18,012	181,679	80,710
144,385	-10,723	183,638	86,128
145,400	-3,923	185,159	91,107
146,414	-2,894	185,252	91,791
147,429	-2,512	185,222	92,008
148,443	-2,384	185,184	92,061
149,458	-2,197	185,049	92,102
150,473	-1,864	184,961	92,259
151,487	-1,814	184,866	92,235
152,502	-1,699	184,671	92,201
153,516	-1,826	184,666	92,111
154,531	-1,791	184,442	92,013
155,546	-1,695	184,494	92,091
156,560	-1,541	184,195	92,029
157,575	-1,517	184,194	92,035
158,589	-1,659	184,011	91,847
159,604	-1,652	183,788	91,732
160,619	-1,559	183,625	91,700
161,633	-1,494	183,606	91,723
162,648	-1,382	183,451	91,706
163,662	-1,346	183,254	91,622
164,677	-1,419	183,314	91,599
165,692	-1,177	183,223	91,695
166,706	-1,097	182,920	91,584
167,721	-1,466	183,001	91,389
168,735	-1,172	182,828	91,476
169,750	-1,461	182,732	91,241
170,764	-1,503	182,691	91,187
171,779	-1,170	182,341	91,209
172,794	-1,208	182,398	91,206
173,808	-1,078	182,152	91,155
174,823	-1,251	182,029	90,979
175,837	-1,381	181,978	90,865
176,852	-1,164	181,798	90,900
177,867	-0,957	181,727	90,983
178,881	-0,933	181,485	90,869
179,896	-1,374	181,477	90,587
180,910	-1,546	181,331	90,401
181,925	-1,077	181,149	90,589
182,940	-1,302	180,973	90,355
183,954	-1,343	181,041	90,356
184,969	-1,288	180,935	90,329
185,983	-1,296	180,853	90,275
186,998	-0,974	180,512	90,292
188,013	-0,773	180,434	90,368
189,027	-1,172	180,312	90,056
190,042	-1,044	180,080	90,010
191,056	-1,241	180,048	89,867
192,071	-0,887	179,897	89,997
193,086	-1,058	179,793	89,834
194,100	-0,815	179,595	89,874
195,115	-1,016	179,468	89,681
196,129	-0,994	179,423	89,664
197,144	-0,963	179,211	89,568
198,159	-0,876	179,029	89,522
199,173	-1,046	178,983	89,388
200,188	-0,872	178,740	89,364
201,202	-0,996	178,723	89,273
202,217	-0,880	178,527	89,237
203,232	-1,097	178,565	89,118
204,246	-0,639	178,279	89,242
205,261	-0,822	178,064	89,016
206,275	-1,072	178,103	88,878
207,290	-1,138	178,048	88,803
208,304	-0,882	177,864	88,857
209,319	-1,105	177,716	88,641
210,334	-0,996	177,616	88,649
211,348	-1,103	177,347	88,443
212,363	-0,874	177,290	88,543
213,377	-0,724	177,187	88,573
214,392	-0,687	177,137	88,562
215,407	-0,752	177,054	88,474
216,421	-0,705	176,825	88,379
217,436	-1,111	176,846	88,141
218,450	-0,925	176,626	88,134
219,465	-1,059	176,616	88,042
220,480	-0,927	176,492	88,050
221,494	-0,726	176,235	88,033
222,509	-0,578	176,189	88,089
223,523	-1,033	176,047	87,742
224,538	-0,743	176,042	87,903
225,553	-0,813	175,800	87,733
226,567	-0,745	175,663	87,697
227,582	-0,678	175,549	87,672
228,596	-0,514	175,398	87,685
229,611	-0,494	175,294	87,637
230,626	-0,792	175,198	87,406
231,640	-0,477	175,079	87,524
232,655	-0,497	175,035	87,482
233,669	-0,918	174,930	87,175
234,684	-0,448	174,736	87,346
235,699	-0,800	174,679	87,104
236,713	-0,673	174,593	87,127
237,728	-0,250	174,528	87,335
238,742	-0,481	174,382	87,119
239,757	-0,482	174,150	86,994
240,772	-0,419	173,962	86,930
241,786	-0,366	173,928	86,936
242,801	-0,620	173,850	86,741
243,815	-0,450	173,782	86,799
244,830	-0,496	173,713	86,730
245,844	-0,415	173,510	86,667
246,859	-0,800	173,498	86,430
247,874	-0,670	173,330	86,414
248,888	-0,549	173,122	86,373
249,903	-0,247	173,050	86,504
250,917	-0,379	172,985	86,387
251,932	-0,496	172,898	86,268
252,947	-0,151	172,770	86,396
253,961	-0,358	172,616	86,192
254,976	-0,440	172,404	86,031
255,990	-0,556	172,414	85,962
257,005	-0,503	172,201	85,878
258,020	-0,459	172,152	85,871
259,034	-0,275	171,974	85,881
260,049	-0,361	171,908	85,791
261,063	-0,628	171,916	85,634
262,078	-0,444	171,646	85,598
263,093	-0,119	171,414	85,660
264,107	-0,317	171,461	85,563
265,122	-0,321	171,411	85,528
266,136	-0,302	171,219	85,435
267,151	-0,312	171,187	85,406
268,166	-0,323	170,934	85,266
269,180	-0,233	170,813	85,250
270,195	-0,256	170,855	85,249
271,209	-0,552	170,877	85,084
272,224	-0,181	170,623	85,161
273,239	-0,151	170,432	85,075
274,253	-0,229	170,340	84,977
275,268	-0,279	170,245	84,894
276,282	-0,314	170,180	84,834
277,297	-0,172	170,007	84,821
278,312	-0,000	169,919	84,867
279,326	-0,225	169,851	84,698
280,341	-0,388	169,775	84,560
281,355	0,138	169,556	84,742
282,370	-0,126	169,494	84,554
283,384	-0,273	169,336	84,384
284,399	-0,400	169,247	84,260
285,414	-0,101	169,128	84,362
286,428	-0,194	168,991	84,234
287,443	-0,165	168,933	84,214
288,457	-0,187	168,843	84,149
289,472	-0,118	168,714	84,116
290,487	-0,043	168,554	84,071
291,501	-0,055	168,514	84,037
292,516	0,002	168,295	83,952
293,530	0,099	168,222	83,963
294,545	-0,051	168,133	83,827
295,560	-0,050	168,093	83,800
296,574	-0,115	167,874	83,647
297,589	-0,150	167,806	83,586
298,603	-0,065	167,645	83,545
299,618	0,087	167,504	83,553
300,633	-0,213	167,567	83,409
301,647	-0,028	167,547	83,495
302,662	-0,059	167,314	83,354
303,676	0,067	167,211	83,366
304,691	0,142	167,026	83,308
305,706	0,141	166,940	83,257
306,720	0,049	166,848	83,153
307,735	0,085	166,773	83,128
308,749	0,158	166,622	83,086
309,764	-0,098	166,482	82,867
310,779	0,026	166,369	82,872
311,793	0,250	166,365	82,986
312,808	0,338	166,065	82,878
313,822	0,420	165,854	82,810
314,837	0,345	165,893	82,781
315,852	0,141	165,883	82,656
316,866	0,315	165,736	82,672
317,881	0,138	165,615	82,506
318,895	-0,091	165,556	82,343
319,910	0,052	165,455	82,364
320,925	-0,305	165,372	82,119
321,939	0,129	165,210	82,270
322,954	0,161	165,075	82,213
323,968	0,334	164,935	82,231
324,983	-0,098	164,980	82,009
325,997	0,231	164,778	82,082
327,012	-0,031	164,669	81,877
328,027	-0,159	164,601	81,765
329,041	0,055	164,587	81,869
330,056	0,143	164,350	81,791
331,070	0,155	164,208	81,720
332,085	0,141	164,245	81,723
333,100	-0,013	164,103	81,561
334,114	0,158	163,972	81,582
335,129	0,025	163,890	81,462
336,143	0,390	163,782	81,599
337,158	0,292	163,724	81,510
338,173	0,507	163,472	81,494
339,187	0,243	163,440	81,327
340,202	0,453	163,333	81,381
341,216	0,368	163,133	81,228
342,231	0,478	162,935	81,181
343,246	0,439	163,007	81,189
344,260	0,629	162,916	81,239
345,275	0,584	162,787	81,143
346,289	0,481	162,708	81,041
347,304	0,411	162,594	80,939
348,319	0,507	162,383	80,879
349,333	0,515	162,220	80,795
350,348	0,359	162,287	80,737
351,362	0,688	162,077	80,802
352,377	0,569	162,040	80,712
353,392	0,660	162,124	80,796
354,406	0,552	161,821	80,580
355,421	190,196	1325,363	1392,142
356,435	150,308	1467,573	1392,631
