DTS Sentinel unit serial number:	SN410029Multiplexer serial number:	ORYXHardware model number:	OX2-SRSoftware version number:	ORYX F/W v4,00 Oryx Data Collector v3.7.2.0data status	okinstallation	B3 Nyhavnadifferential loss correction	single-endedforward channel	channel 1reverse channel	N/Adate	2023/11/28time	13:17:31forward acquisition time	300,00reverse acquisition time	0,00gamma	499,1914k internal	0,3138k external	0,3138temperature offset calibration	1,0000default loss term (dB/km)	0,3820temperature slope calibration	1,0000multiplexer offset coefficient	1,0000multiplexer slope coefficient	1,0000fibre end	0,00T internal ref (°C)	7,97T ext. ref 1 (°C)	-7,65T ext. ref 2 (°C)	-7,82length (m)	temperature (°C)	Stokes	anti-Stokes-744,400	106,533	-0,115	-0,101
-743,385	-200,000	-0,072	0,383
-742,371	-200,000	0,018	-0,204
-741,356	-200,000	0,062	0,293
-740,342	21,885	-0,168	-0,101
-739,327	-200,000	0,050	0,308
-738,312	184,253	-0,182	-0,200
-737,298	230,481	-0,060	0,073
-736,283	123,063	-0,157	-0,146
-735,269	130,588	0,239	0,228
-734,254	-200,000	-0,063	-0,259
-733,239	63,608	-0,216	0,161
-732,225	-200,000	-0,027	-0,308
-731,210	800,000	0,034	0,100
-730,196	800,000	-0,046	-0,096
-729,181	428,695	-0,039	-0,063
-728,167	-73,882	-0,102	0,027
-727,152	19,091	0,110	0,065
-726,137	-58,995	-0,131	-0,042
-725,123	800,000	0,039	-0,094
-724,108	-79,861	-0,229	-0,057
-723,094	-20,401	-0,025	-0,011
-722,079	473,352	0,026	-0,043
-721,064	-200,000	-0,017	-0,124
-720,050	800,000	-0,046	-0,131
-719,035	-158,270	0,091	0,004
-718,021	-56,441	-0,174	-0,057
-717,006	-180,058	-0,099	-0,002
-715,991	116,407	-0,142	-0,129
-714,977	257,905	-0,067	-0,085
-713,962	68,959	0,124	-0,094
-712,948	-200,000	-0,016	0,205
-711,933	188,159	0,059	0,065
-710,918	29,739	0,067	0,042
-709,904	-68,709	-0,133	-0,038
-708,889	-200,000	0,009	-0,147
-707,875	44,427	-0,112	-0,076
-706,860	338,837	0,053	0,077
-705,845	-13,362	0,156	0,075
-704,831	-200,000	-0,054	-0,000
-703,816	-51,630	-0,074	-0,026
-702,802	-200,000	-0,031	-0,103
-701,787	36,233	-0,158	-0,103
-700,772	-10,002	0,055	0,027
-699,758	-200,000	0,008	0,148
-698,743	-200,000	-0,016	-0,061
-697,729	800,000	0,042	0,103
-696,714	-200,000	0,009	0,042
-695,699	-200,000	-0,027	-0,102
-694,685	-200,000	-0,025	-0,155
-693,670	-200,000	0,002	-0,024
-692,656	207,627	0,050	-0,058
-691,641	577,527	0,044	0,081
-690,627	-142,252	-0,046	0,003
-689,612	-139,435	-0,177	0,014
-688,597	-105,488	0,082	-0,014
-687,583	-94,966	-0,155	0,031
-686,568	366,630	-0,040	-0,060
-685,554	-174,748	0,176	0,004
-684,539	277,078	-0,020	-0,027
-683,524	6,487	0,127	-0,069
-682,510	-54,915	-0,101	-0,033
-681,495	79,699	0,031	0,025
-680,481	-38,112	-0,104	-0,041
-679,466	800,000	-0,044	-0,121
-678,451	-200,000	0,004	-0,090
-677,437	426,551	-0,043	0,069
-676,422	18,602	0,035	0,021
-675,408	800,000	0,044	-0,092
-674,393	800,000	0,011	0,026
-673,378	298,365	-0,070	-0,095
-672,364	-200,000	0,014	0,104
-671,349	24,658	-0,044	-0,027
-670,335	-81,816	-0,025	0,006
-669,320	-200,000	-0,013	0,069
-668,305	-115,750	0,155	-0,021
-667,291	-200,000	-0,009	-0,135
-666,276	-200,000	-0,028	0,130
-665,262	177,552	-0,083	0,089
-664,247	42,477	0,084	-0,056
-663,232	-200,000	0,035	-0,195
-662,218	-200,000	0,035	0,142
-661,203	162,957	-0,125	-0,130
-660,189	-11,059	-0,118	-0,057
-659,174	663,098	-0,050	-0,096
-658,159	-200,000	0,010	0,050
-657,145	-139,396	-0,205	-0,016
-656,130	248,510	-0,017	-0,022
-655,116	459,163	-0,049	0,081
-654,101	-126,738	0,156	-0,017
-653,086	-166,350	-0,093	0,003
-652,072	800,000	0,019	-0,043
-651,057	76,760	-0,191	-0,150
-650,043	-68,312	-0,062	-0,018
-649,028	-58,736	-0,076	-0,024
-648,014	372,688	0,103	0,155
-646,999	572,380	0,014	-0,025
-645,984	381,974	0,079	0,120
-644,970	-12,171	-0,155	0,075
-643,955	548,573	0,030	-0,053
-642,941	800,000	-0,045	-0,137
-641,926	-6,663	-0,025	-0,013
-640,911	800,000	-0,073	-0,180
-639,897	-13,188	0,086	0,041
-638,882	-4,308	-0,071	-0,036
-637,868	294,005	0,025	-0,034
-636,853	-90,555	0,086	0,018
-635,838	605,911	0,036	0,067
-634,824	-200,000	-0,012	-0,176
-633,809	800,000	0,053	-0,115
-632,795	277,897	-0,063	0,083
-631,780	53,521	-0,022	0,015
-630,765	472,681	-0,016	-0,027
-629,751	98,792	0,049	0,042
-628,736	185,861	-0,089	-0,098
-627,722	-87,560	-0,095	-0,021
-626,707	800,000	0,056	-0,163
-625,692	-200,000	-0,003	0,075
-624,678	82,399	0,062	0,049
-623,663	800,000	-0,022	0,051
-622,649	15,481	-0,155	-0,090
-621,634	112,063	-0,045	-0,040
-620,619	-76,230	0,024	-0,006
-619,605	-45,555	-0,115	0,042
-618,590	-200,000	0,041	0,134
-617,576	-200,000	0,017	-0,078
-616,561	-78,602	-0,028	0,007
-615,546	-31,600	0,129	-0,053
-614,532	59,341	-0,059	0,043
-613,517	125,406	-0,037	-0,034
-612,503	684,558	0,061	0,119
-611,488	9,480	0,064	-0,036
-610,474	-58,639	0,094	0,030
-609,459	726,107	0,008	-0,017
-608,444	157,890	-0,077	-0,079
-607,430	-200,000	-0,001	-0,044
-606,415	800,000	-0,017	-0,050
-605,401	174,924	-0,036	0,039
-604,386	-5,218	0,093	0,047
-603,371	-200,000	-0,025	0,143
-602,357	-138,341	0,057	-0,005
-601,342	-31,432	0,127	-0,052
-600,328	53,320	-0,168	0,118
-599,313	290,546	0,046	0,062
-598,298	56,622	-0,097	-0,070
-597,284	665,487	0,031	0,060
-596,269	800,000	-0,047	-0,133
-595,255	419,527	-0,086	-0,137
-594,240	-200,000	0,002	-0,032
-593,225	230,667	-0,083	-0,101
-592,211	230,731	-0,026	-0,031
-591,196	54,060	0,039	-0,028
-590,182	-200,000	-0,022	-0,074
-589,167	44,774	0,108	0,073
-588,152	227,939	0,020	0,024
-587,138	-43,277	-0,018	-0,007
-586,123	-40,226	-0,089	0,034
-585,109	101,262	0,105	-0,090
-584,094	162,399	-0,080	-0,083
-583,079	-147,111	0,177	0,011
-582,065	-200,000	0,003	-0,104
-581,050	-92,753	0,110	0,023
-580,036	800,000	-0,039	0,099
-579,021	171,730	-0,021	-0,022
-578,006	-24,093	-0,059	-0,026
-576,992	-111,175	0,120	0,018
-575,977	427,750	0,016	-0,025
-574,963	-82,735	-0,160	0,038
-573,948	-48,606	0,057	-0,020
-572,934	74,033	-0,027	0,021
-571,919	-200,000	-0,017	-0,089
-570,904	-70,701	-0,207	-0,057
-569,890	119,491	0,041	-0,038
-568,875	-200,000	0,002	0,103
-567,861	34,411	0,060	-0,038
-566,846	-40,730	0,046	-0,018
-565,831	124,185	-0,095	-0,088
-564,817	342,027	-0,065	0,093
-563,802	-200,000	0,055	-0,181
-562,788	391,708	-0,039	-0,060
-561,773	152,463	0,025	-0,026
-560,758	-149,364	-0,131	-0,008
-559,744	800,000	0,024	0,064
-558,729	113,208	0,024	0,021
-557,715	658,569	-0,078	0,149
-556,700	72,338	-0,029	0,022
-555,685	178,821	-0,103	-0,111
-554,671	40,743	0,053	-0,035
-553,656	29,622	0,195	0,122
-552,642	800,000	-0,012	-0,034
-551,627	-200,000	0,023	0,092
-550,612	-200,000	0,001	-0,009
-549,598	509,459	-0,076	0,131
-548,583	705,976	0,072	-0,141
-547,569	-200,000	-0,002	0,079
-546,554	-200,000	0,027	0,213
-545,539	800,000	0,056	0,132
-544,525	78,194	0,128	0,101
-543,510	-157,968	-0,143	0,006
-542,496	-200,000	0,003	-0,166
-541,481	37,690	-0,039	0,026
-540,466	-103,034	0,142	-0,025
-539,452	-93,385	0,127	-0,026
-538,437	-132,978	-0,089	0,008
-537,423	-74,600	0,126	-0,033
-536,408	800,000	-0,015	-0,042
-535,393	-200,000	0,027	-0,167
-534,379	78,942	-0,050	-0,039
-533,364	-115,102	0,079	-0,011
-532,350	800,000	-0,034	0,097
-531,335	-109,958	0,084	-0,013
-530,321	-200,000	0,047	0,000
-529,306	296,586	-0,053	0,072
-528,291	-77,143	0,044	0,011
-527,277	800,000	-0,037	0,094
-526,262	-79,824	0,099	-0,024
-525,248	800,000	-0,074	0,153
-524,233	514,260	0,062	0,107
-523,218	-146,661	-0,020	0,001
-522,204	193,200	0,026	0,029
-521,189	-200,000	0,007	0,056
-520,175	800,000	0,045	-0,117
-519,160	-44,402	-0,130	0,048
-518,145	40,257	-0,081	0,054
-517,131	-200,000	0,004	0,129
-516,116	-162,932	0,040	-0,001
-515,102	440,982	-0,037	0,060
-514,087	46,142	-0,114	0,077
-513,072	-64,478	-0,011	0,003
-512,058	301,357	0,061	-0,083
-511,043	-3,857	-0,028	-0,014
-510,029	689,102	0,038	0,074
-509,014	-200,000	0,016	0,096
-507,999	-116,131	0,173	0,023
-506,985	-200,000	0,013	-0,054
-505,970	86,337	0,034	-0,027
-504,956	-200,000	-0,010	-0,047
-503,941	143,722	0,088	-0,086
-502,926	282,760	-0,069	-0,091
-501,912	162,230	0,103	-0,107
-500,897	-200,000	-0,038	0,146
-499,883	-78,894	-0,082	0,020
-498,868	142,537	-0,088	-0,086
-497,853	-200,000	0,016	-0,092
-496,839	-14,510	-0,090	-0,042
-495,824	-56,987	0,027	-0,009
-494,810	-200,000	-0,053	0,206
-493,795	800,000	0,009	0,023
-492,781	-133,772	0,051	0,005
-491,766	-71,319	0,049	-0,014
-490,751	-200,000	-0,055	-0,201
-489,737	-108,576	0,156	-0,024
-488,722	800,000	0,032	0,090
-487,708	-172,523	0,014	0,000
-486,693	-86,595	0,236	-0,053
-485,678	308,674	0,034	-0,047
-484,664	800,000	0,009	-0,027
-483,649	101,039	-0,065	-0,056
-482,635	-70,228	-0,077	-0,021
-481,620	-21,601	-0,068	0,030
-480,605	-32,775	0,076	0,031
-479,591	-25,325	0,036	-0,016
-478,576	682,740	-0,054	-0,103
-477,562	120,115	-0,115	-0,104
-476,547	-49,599	-0,094	0,033
-475,532	-200,000	-0,004	0,114
-474,518	800,000	-0,040	0,117
-473,503	-200,000	-0,018	0,104
-472,489	222,561	0,061	0,072
-471,474	16,074	0,034	-0,019
-470,459	-96,445	-0,113	-0,022
-469,445	27,712	-0,072	0,045
-468,430	-116,348	-0,125	0,017
-467,416	-200,000	-0,004	-0,033
-466,401	626,460	0,053	-0,099
-465,386	800,000	0,011	0,022
-464,372	800,000	-0,056	-0,123
-463,357	-200,000	-0,003	0,060
-462,343	219,080	0,019	-0,023
-461,328	-200,000	-0,006	0,035
-460,313	57,277	0,036	0,025
-459,299	73,359	-0,090	-0,069
-458,284	-28,439	-0,047	0,020
-457,270	-200,000	-0,027	0,102
-456,255	800,000	-0,021	-0,048
-455,241	5,861	-0,006	-0,003
-454,226	-8,719	-0,009	-0,004
-453,211	-97,457	0,111	0,021
-452,197	86,802	-0,124	-0,100
-451,182	423,692	-0,141	0,223
-450,168	632,839	0,028	0,053
-449,153	239,876	-0,078	-0,095
-448,138	-167,520	-0,058	0,002
-447,124	800,000	0,021	0,056
-446,109	52,339	0,075	-0,053
-445,095	77,823	0,073	0,057
-444,080	-200,000	0,001	-0,005
-443,065	-39,087	-0,061	-0,023
-442,051	800,000	0,048	0,139
-441,036	312,290	-0,091	0,125
-440,022	-168,278	0,087	0,002
-439,007	-40,417	0,109	0,041
-437,992	174,388	0,087	0,093
-436,978	-200,000	0,018	-0,107
-435,963	690,889	-0,049	0,094
-434,949	3,396	-0,046	0,024
-433,934	350,182	-0,045	0,065
-432,919	231,054	-0,064	0,077
-431,905	20,259	-0,030	-0,018
-430,890	102,943	-0,110	0,094
-429,876	800,000	0,026	0,058
-428,861	-200,000	-0,022	-0,256
-427,846	-1,749	-0,030	0,015
-426,832	-92,648	0,084	0,017
-425,817	11,556	-0,051	-0,029
-424,803	-200,000	-0,007	-0,192
-423,788	51,501	-0,071	-0,049
-422,773	-165,560	0,079	0,002
-421,759	-42,706	-0,028	0,010
-420,744	800,000	0,035	-0,095
-419,730	-75,412	-0,079	-0,021
-418,715	387,100	-0,065	-0,099
-417,701	-142,427	-0,074	0,005
-416,686	-200,000	0,018	0,164
-415,671	548,860	0,063	0,110
-414,657	58,763	0,061	-0,044
-413,642	311,602	0,093	-0,128
-412,628	-200,000	-0,014	0,046
-411,613	800,000	-0,008	-0,021
-410,598	40,468	-0,085	-0,056
-409,584	-62,464	0,201	-0,061
-408,569	-200,000	0,004	0,023
-407,555	-200,000	0,012	-0,111
-406,540	191,348	-0,049	0,054
-405,525	182,384	0,039	0,042
-404,511	-115,677	0,059	0,008
-403,496	800,000	0,019	-0,054
-402,482	28,843	-0,136	-0,084
-401,467	438,651	0,069	-0,111
-400,452	782,497	0,039	0,078
-399,438	-200,000	-0,019	0,095
-398,423	-11,959	-0,137	0,065
-397,409	564,573	0,028	-0,050
-396,394	-158,786	-0,184	0,008
-395,379	-10,646	-0,096	0,046
-394,365	22,928	0,073	0,043
-393,350	44,637	0,092	-0,062
-392,336	104,801	-0,070	-0,061
-391,321	-200,000	0,027	0,090
-390,306	-37,472	-0,092	-0,036
-389,292	-138,238	0,156	-0,012
-388,277	542,345	0,066	0,115
-387,263	312,538	-0,048	0,067
-386,248	448,734	0,099	0,160
-385,233	72,410	-0,043	0,033
-384,219	204,403	-0,074	-0,085
-383,204	250,269	0,064	0,080
-382,190	-11,594	0,049	-0,024
-381,175	800,000	0,042	0,117
-380,160	780,636	-0,067	0,134
-379,146	206,343	-0,067	0,077
-378,131	129,877	-0,031	0,029
-377,117	-76,603	-0,107	-0,027
-376,102	149,669	0,068	-0,068
-375,088	-78,608	-0,119	-0,029
-374,073	-200,000	-0,015	0,050
-373,058	-200,000	0,006	0,041
-372,044	-50,373	0,076	0,026
-371,029	800,000	-0,014	-0,033
-370,015	-200,000	-0,014	0,045
-369,000	-200,000	0,008	-0,079
-367,985	-2,205	0,032	-0,016
-366,971	153,908	0,095	-0,095
-365,956	-65,413	0,019	0,005
-364,942	82,834	0,072	0,057
-363,927	82,018	-0,154	0,122
-362,912	512,965	0,014	0,025
-361,898	-60,348	0,044	0,014
-360,883	-200,000	-0,036	-0,124
-359,869	-118,847	-0,046	0,006
-358,854	-41,752	-0,062	-0,023
-357,839	-61,760	0,137	-0,042
-356,825	-113,107	0,034	-0,005
-355,810	763,735	0,032	0,064
-354,796	-117,298	0,026	0,003
-353,781	-200,000	-0,004	0,067
-352,766	-200,000	-0,014	0,110
-351,752	-153,598	0,089	0,004
-350,737	231,819	0,040	-0,048
-349,723	107,401	0,107	-0,093
-348,708	-178,211	0,189	0,003
-347,693	157,858	0,046	0,047
-346,679	378,471	-0,065	0,097
-345,664	88,919	0,052	0,042
-344,650	-200,000	0,050	0,189
-343,635	800,000	0,076	-0,154
-342,620	34,883	-0,075	-0,048
-341,606	-142,413	0,145	-0,010
-340,591	-200,000	0,054	-0,226
-339,577	-200,000	0,001	-0,187
-338,562	-153,950	-0,096	-0,005
-337,548	-200,000	0,001	-0,076
-336,533	76,829	0,062	-0,048
-335,518	800,000	-0,055	0,161
-334,504	-200,000	0,043	0,146
-333,489	-50,323	0,097	0,033
-332,475	191,442	0,095	0,104
-331,460	53,761	-0,142	-0,100
-330,445	131,446	0,090	-0,085
-329,431	-73,119	-0,074	0,020
-328,416	231,567	-0,010	0,012
-327,402	800,000	0,023	0,073
-326,387	-130,717	0,067	0,007
-325,372	-100,744	0,055	0,010
-324,358	451,718	0,033	-0,054
-323,343	800,000	-0,042	-0,094
-322,329	-110,542	0,031	-0,005
-321,314	-200,000	0,012	0,144
-320,299	-83,942	0,016	-0,004
-319,285	-200,000	-0,054	-0,194
-318,270	524,259	0,074	-0,128
-317,256	800,000	0,046	-0,095
-316,241	404,167	-0,020	-0,031
-315,226	150,265	0,100	0,099
-314,212	-72,290	0,017	0,004
-313,197	-82,723	0,163	0,038
-312,183	14,788	0,073	0,042
-311,168	-101,756	-0,093	-0,016
-310,153	-25,925	-0,065	-0,028
-309,139	-200,000	0,004	0,101
-308,124	378,918	-0,023	0,035
-307,110	800,000	-0,054	0,146
-306,095	-200,000	0,007	0,124
-305,080	208,751	-0,067	0,076
-304,066	113,546	-0,053	0,047
-303,051	-67,382	-0,148	0,042
-302,037	51,142	-0,023	0,016
-301,022	-200,000	0,010	0,167
-300,008	-200,000	0,003	0,165
-298,993	-200,000	0,000	-0,011
-297,978	800,000	-0,066	0,155
-296,964	3,199	-0,175	0,093
-295,949	800,000	0,039	-0,082
-294,935	434,424	-0,102	-0,162
-293,920	36,663	-0,119	-0,077
-292,905	-20,736	0,088	-0,039
-291,891	-200,000	-0,007	0,068
-290,876	800,000	0,037	-0,077
-289,862	-145,001	-0,068	0,004
-288,847	-57,507	-0,088	0,028
-287,832	-25,916	0,068	0,029
-286,818	231,362	0,064	-0,077
-285,803	544,742	0,038	0,067
-284,789	148,856	-0,058	0,057
-283,774	412,007	0,034	0,053
-282,759	507,119	-0,019	0,032
-281,745	336,417	0,068	-0,096
-280,730	-24,363	0,091	-0,039
-279,716	800,000	0,041	-0,114
-278,701	128,971	-0,050	0,047
-277,686	119,749	0,075	-0,068
-276,672	27,516	-0,047	0,029
-275,657	-30,846	-0,034	-0,014
-274,643	54,888	-0,050	0,035
-273,628	-200,000	-0,005	-0,060
-272,613	53,679	-0,070	0,049
-271,599	525,700	0,015	0,027
-270,584	800,000	-0,009	0,022
-269,570	-162,251	0,122	0,004
-268,555	-200,000	-0,012	-0,070
-267,540	-200,000	-0,003	-0,057
-266,526	69,527	-0,122	0,091
-265,511	-70,064	-0,103	0,028
-264,497	-69,617	0,064	0,018
-263,482	-200,000	0,010	0,096
-262,467	207,678	-0,101	-0,115
-261,453	50,655	0,086	-0,059
-260,438	346,611	-0,048	0,069
-259,424	-51,568	0,088	0,030
-258,409	609,974	-0,012	-0,023
-257,395	800,000	-0,020	0,058
-256,380	800,000	0,019	-0,050
-255,365	800,000	0,038	0,106
-254,351	-200,000	0,047	0,169
-253,336	62,825	-0,068	-0,049
-252,322	773,469	-0,040	-0,080
-251,307	415,250	-0,063	-0,098
-250,292	-85,514	0,059	-0,013
-249,278	38,162	0,109	-0,070
-248,263	-129,898	0,157	-0,015
-247,249	-200,000	-0,032	0,104
-246,234	-44,872	-0,122	-0,044
-245,219	384,507	-0,023	-0,035
-244,205	800,000	0,060	-0,161
-243,190	56,008	0,043	0,030
-242,176	-53,357	0,108	0,036
-241,161	-200,000	-0,021	0,086
-240,146	100,283	-0,114	-0,096
-239,132	-200,000	-0,013	0,054
-238,117	211,617	-0,078	-0,089
-237,103	46,511	-0,103	-0,069
-236,088	-200,000	-0,018	-0,167
-235,073	-68,798	0,046	-0,013
-234,059	-126,655	0,076	0,008
-233,044	110,963	0,066	0,057
-232,030	-200,000	-0,006	-0,053
-231,015	-200,000	0,022	-0,121
-230,000	-178,683	-0,040	-0,001
-228,986	104,200	0,101	0,087
-227,971	800,000	-0,022	-0,056
-226,957	-107,885	0,102	0,016
-225,942	81,267	0,026	0,020
-224,927	-123,213	-0,078	-0,009
-223,913	-200,000	-0,036	-0,164
-222,898	230,736	-0,054	0,065
-221,884	300,845	-0,046	-0,062
-220,869	280,705	-0,038	0,049
-219,855	-154,826	0,140	-0,007
-218,840	-99,193	-0,149	0,027
-217,825	-200,000	0,007	0,083
-216,811	626,330	0,071	-0,131
-215,796	62,607	-0,115	-0,083
-214,782	157,568	-0,075	-0,075
-213,767	225,040	-0,034	0,040
-212,752	-106,127	0,214	0,035
-211,738	47,127	-0,077	-0,052
-210,723	800,000	0,052	-0,156
-209,709	-9,287	-0,054	-0,026
-208,694	800,000	-0,026	-0,067
-207,679	800,000	0,027	0,057
-206,665	-76,237	0,079	0,020
-205,650	95,324	0,198	0,164
-204,636	84,655	-0,102	0,081
-203,621	256,567	-0,040	0,050
-202,606	-73,907	0,159	-0,042
-201,592	37,826	-0,111	0,071
-200,577	-111,203	-0,036	-0,005
-199,563	-14,685	0,113	0,052
-198,548	-107,057	0,125	0,020
-197,533	-200,000	0,003	0,039
-196,519	401,116	-0,085	0,130
-195,504	-200,000	0,012	0,053
-194,490	-200,000	0,000	0,063
-193,475	40,663	0,062	0,041
-192,460	800,000	0,013	-0,039
-191,446	800,000	-0,051	-0,127
-190,431	49,595	0,081	0,055
-189,417	469,065	-0,068	0,112
-188,402	-67,849	-0,068	0,019
-187,387	-200,000	-0,032	-0,115
-186,373	293,867	0,077	-0,102
-185,358	206,598	-0,117	-0,133
-184,344	-200,000	-0,001	0,074
-183,329	-30,838	0,127	-0,052
-182,315	452,095	0,025	-0,039
-181,300	589,730	-0,053	-0,095
-180,285	196,216	-0,039	-0,044
-179,271	197,366	-0,082	-0,091
-178,256	210,241	-0,034	-0,039
-177,242	-96,757	-0,075	-0,014
-176,227	744,698	0,036	0,071
-175,212	800,000	0,031	0,075
-174,198	508,321	-0,134	-0,227
-173,183	120,264	-0,085	0,077
-172,169	-185,312	0,083	0,001
-171,154	200,936	-0,042	0,047
-170,139	472,110	0,077	0,126
-169,125	-200,000	-0,006	0,063
-168,110	167,105	0,100	0,103
-167,096	-200,000	-0,011	-0,037
-166,081	290,830	0,102	-0,135
-165,066	-200,000	-0,008	-0,159
-164,052	-152,055	-0,159	-0,008
-163,037	294,434	0,084	-0,111
-162,023	-200,000	0,011	0,087
-161,008	-64,043	0,045	0,013
-159,993	-200,000	-0,004	-0,037
-158,979	93,028	-0,130	-0,107
-157,964	124,680	-0,068	0,062
-156,950	109,408	0,068	-0,059
-155,935	-200,000	0,023	-0,098
-154,920	-175,605	0,046	-0,001
-153,906	-99,677	-0,067	-0,012
-152,891	236,249	-0,066	0,079
-151,877	-31,478	0,048	0,019
-150,862	-77,826	-0,105	0,026
-149,847	-116,250	0,040	-0,005
-148,833	-200,000	-0,001	0,298
-147,818	11,136	-0,133	0,073
-146,804	-200,000	-0,015	0,130
-145,789	800,000	-0,036	0,104
-144,775	-46,864	0,051	-0,018
-143,760	428,292	0,060	-0,094
-142,745	-61,986	-0,137	0,041
-141,731	164,722	0,071	0,073
-140,716	-200,000	0,030	0,200
-139,702	329,807	0,073	0,102
-138,687	-55,196	0,067	0,022
-137,672	-100,516	-0,088	0,016
-136,658	800,000	-0,019	-0,055
-135,643	2,409	-0,184	-0,096
-134,629	32,454	-0,073	0,046
-133,614	34,154	0,123	0,078
-132,599	186,792	-0,104	0,112
-131,585	-200,000	-0,044	0,165
-130,570	-143,561	0,089	0,006
-129,556	-124,414	-0,039	0,004
-128,541	-200,000	0,012	-0,111
-127,526	100,205	-0,038	0,032
-126,512	-34,896	0,034	0,013
-125,497	46,060	0,106	0,071
-124,483	393,078	0,107	0,162
-123,468	-13,457	0,061	0,028
-122,453	28,392	0,092	-0,056
-121,439	172,076	-0,036	-0,037
-120,424	-95,998	0,162	-0,031
-119,410	404,971	0,035	0,054
-118,395	-200,000	0,000	-0,026
-117,380	-4,966	-0,063	-0,031
-116,366	-200,000	0,014	0,066
-115,351	196,635	0,020	-0,022
-114,337	-110,016	-0,123	0,018
-113,322	-77,847	-0,073	-0,018
-112,307	-24,113	0,017	0,007
-111,293	800,000	-0,064	0,180
-110,278	85,346	0,086	0,068
-109,264	354,418	0,087	0,125
-108,249	-200,000	0,015	-0,138
-107,234	-132,931	0,047	0,004
-106,220	174,166	-0,038	-0,040
-105,205	-200,000	-0,007	-0,062
-104,191	-4,795	0,109	0,054
-103,176	301,243	0,101	0,135
-102,162	-200,000	-0,029	0,130
-101,147	181,309	0,010	0,011
-100,132	720,888	-0,070	-0,135
-99,118	187,458	-0,063	-0,068
-98,103	337,261	0,067	0,095
-97,089	-200,000	-0,005	-0,027
-96,074	-200,000	0,017	0,129
-95,059	650,428	0,011	0,020
-94,045	26,098	-0,094	0,056
-93,030	517,334	-0,028	0,048
-92,016	-200,000	-0,013	-0,064
-91,001	800,000	-0,013	-0,041
-89,986	445,095	-0,057	0,090
-88,972	-200,000	0,036	0,152
-87,957	-200,000	-0,007	-0,107
-86,943	65,581	-0,103	0,075
-85,928	-200,000	-0,011	-0,065
-84,913	190,514	-0,062	0,068
-83,899	113,377	0,052	0,046
-82,884	-200,000	0,031	0,193
-81,870	148,579	0,073	0,072
-80,855	-45,559	0,121	0,043
-79,840	-200,000	0,026	-0,094
-78,826	486,739	-0,019	0,032
-77,811	30,620	-0,058	-0,036
-76,797	116,084	0,047	-0,042
-75,782	254,214	0,041	0,050
-74,767	-10,756	0,179	0,085
-73,753	208,427	0,037	0,042
-72,738	-124,750	0,039	-0,004
-71,724	-22,957	-0,072	-0,031
-70,709	616,659	-0,028	0,051
-69,694	-123,390	0,057	0,006
-68,680	-97,227	0,103	-0,019
-67,665	-200,000	0,000	-0,085
-66,651	800,000	0,031	0,087
-65,636	-172,407	0,120	0,003
-64,622	376,303	-0,026	0,038
-63,607	360,934	-0,067	0,097
-62,592	475,448	0,045	-0,073
-61,578	271,013	-0,010	-0,013
-60,563	-200,000	0,047	0,157
-59,549	11,055	-0,111	0,061
-58,534	54,763	-2,183	-1,519
-57,519	556,090	-1,065	-1,860
-56,505	-200,000	-0,355	-4,261
-55,490	558,055	0,991	1,733
-54,476	800,000	5,129	11,358
-53,461	-200,000	22,386	346,012
-52,446	800,000	754,095	2290,369
-51,432	504,886	1637,672	2748,654
-50,417	66,446	1570,654	1151,351
-49,403	18,607	1161,678	669,143
-48,388	11,125	893,365	491,912
-47,373	26,118	861,916	518,220
-46,359	16,784	847,517	482,901
-45,344	8,026	843,411	455,449
-44,330	8,010	841,763	454,495
-43,315	7,907	840,567	453,539
-42,300	7,908	839,142	452,752
-41,286	7,874	838,300	452,183
-40,271	7,953	837,069	451,728
-39,257	7,994	836,182	451,347
-38,242	8,089	835,062	450,996
-37,227	8,007	834,367	450,370
-36,213	7,946	833,612	449,771
-35,198	7,971	832,534	449,242
-34,184	8,046	832,125	449,216
-33,169	7,908	831,007	448,203
-32,154	8,040	830,354	448,206
-31,140	8,007	829,365	447,561
-30,125	8,038	828,482	447,155
-29,111	7,976	828,065	446,739
-28,096	7,936	827,652	446,383
-27,082	7,974	826,849	446,042
-26,067	8,072	825,799	445,733
-25,052	7,910	825,205	444,938
-24,038	7,944	824,728	444,759
-23,023	7,951	824,080	444,411
-22,009	8,091	823,446	444,445
-20,994	8,069	822,530	443,871
-19,979	8,075	821,972	443,569
-18,965	7,995	821,458	443,051
-17,950	8,012	821,102	442,890
-16,936	8,011	820,370	442,474
-15,921	8,017	819,674	442,097
-14,906	7,912	818,968	441,406
-13,892	7,889	818,571	441,110
-12,877	7,856	818,039	440,714
-11,863	7,815	817,385	440,232
-10,848	7,879	816,825	440,088
-9,833	7,980	816,537	440,198
-8,819	8,009	815,555	439,730
-7,804	7,979	815,061	439,366
-6,790	7,896	814,657	438,898
-5,775	7,896	814,422	438,756
-4,760	7,860	813,999	438,410
-3,746	7,934	813,331	438,238
-2,731	7,704	812,663	437,225
-1,717	7,703	812,386	437,054
-0,702	7,736	811,586	436,697
0,313	7,796	808,962	436,110
1,327	11,233	792,797	436,633
2,342	19,502	645,792	373,722
3,356	13,463	356,194	198,835
4,371	-15,720	240,274	110,085
5,386	-18,770	226,264	101,275
6,400	-18,860	221,863	99,227
7,415	-18,255	220,042	98,864
8,429	-19,092	218,647	97,596
9,444	-19,098	217,735	97,175
10,459	-19,121	217,393	96,997
11,473	-19,328	216,872	96,601
12,488	-19,054	216,518	96,640
13,502	-18,913	215,922	96,470
14,517	-19,223	215,711	96,137
15,531	-19,234	215,195	95,890
16,546	-19,142	214,888	95,813
17,561	-19,077	214,444	95,654
18,575	-18,958	214,207	95,628
19,590	-18,976	214,043	95,533
20,604	-18,827	213,701	95,482
21,619	-18,946	213,272	95,194
22,634	-19,114	213,018	94,948
23,648	-19,084	212,752	94,843
24,663	-19,128	212,501	94,691
25,677	-18,972	212,273	94,695
26,692	-18,918	212,078	94,639
27,707	-18,997	211,834	94,464
28,721	-18,916	211,595	94,408
29,736	-19,090	211,270	94,128
30,750	-19,130	211,121	94,024
31,765	-19,003	210,923	94,020
32,780	-19,104	210,819	93,892
33,794	-18,866	210,482	93,906
34,809	-19,125	210,310	93,633
35,823	-18,940	210,042	93,640
36,838	-19,225	209,979	93,397
37,853	-18,926	209,572	93,423
38,867	-19,279	209,434	93,099
39,882	-19,072	209,288	93,175
40,896	-19,162	209,142	93,037
41,911	-19,049	208,739	92,930
42,926	-18,913	208,604	92,960
43,940	-18,881	208,331	92,853
44,955	-19,025	208,233	92,697
45,969	-19,046	208,073	92,603
46,984	-19,054	207,865	92,496
47,999	-18,966	207,896	92,565
49,013	-18,895	207,531	92,445
50,028	-18,945	207,278	92,289
51,042	-18,919	207,057	92,200
52,057	-18,995	207,051	92,135
53,071	-18,999	206,681	91,959
54,086	-18,985	206,512	91,886
55,101	-18,928	206,385	91,862
56,115	-19,234	206,275	91,588
57,130	-18,867	205,898	91,672
58,144	-18,823	205,618	91,570
59,159	-19,121	205,480	91,290
60,174	-18,980	205,444	91,365
61,188	-18,978	205,090	91,202
62,203	-19,092	205,083	91,110
63,217	-18,699	204,787	91,247
64,232	-19,066	204,720	90,950
65,247	-19,086	204,399	90,786
66,261	-19,287	204,508	90,685
67,276	-19,116	204,120	90,625
68,290	-19,134	203,840	90,479
69,305	-18,939	203,831	90,604
70,320	-18,976	203,615	90,474
71,334	-18,955	203,363	90,369
72,349	-18,778	203,135	90,383
73,363	-18,841	203,005	90,273
74,378	-19,157	202,886	89,992
75,393	-18,916	202,655	90,049
76,407	-18,867	202,472	89,994
77,422	-18,789	202,333	89,978
78,436	-19,054	202,169	89,713
79,451	-18,963	201,988	89,688
80,466	-18,984	201,728	89,550
81,480	-18,962	201,678	89,535
82,495	-18,974	201,435	89,411
83,509	-18,716	201,212	89,482
84,524	-18,878	201,260	89,384
85,539	-18,802	200,937	89,284
86,553	-18,836	200,783	89,185
87,568	-19,077	200,603	88,931
88,582	-18,785	200,545	89,098
89,597	-18,834	200,100	88,859
90,611	-18,911	200,123	88,809
91,626	-19,020	200,104	88,717
92,641	-18,813	199,780	88,708
93,655	-18,894	199,699	88,608
94,670	-19,058	199,467	88,385
95,684	-19,093	199,250	88,257
96,699	-18,865	199,205	88,385
97,714	-18,992	199,072	88,231
98,728	-18,896	198,840	88,186
99,743	-18,815	198,649	88,148
100,757	-18,786	198,621	88,148
101,772	-18,713	198,228	88,015
102,787	-18,968	198,302	87,867
103,801	-18,941	197,990	87,740
104,816	-19,188	197,909	87,529
105,830	-18,914	197,749	87,636
106,845	-18,932	197,498	87,505
107,860	-18,792	197,416	87,555
108,874	-19,081	197,359	87,326
109,889	-18,895	197,010	87,290
110,903	-18,854	196,894	87,258
111,918	-18,886	196,868	87,217
112,933	-18,877	196,527	87,064
113,947	-18,898	196,457	87,012
114,962	-18,794	196,311	87,009
115,976	-18,872	196,014	86,817
116,991	-18,853	195,916	86,779
118,006	-18,824	195,759	86,721
119,020	-18,875	195,697	86,652
120,035	-18,622	195,677	86,804
121,049	-18,637	195,414	86,670
122,064	-18,995	195,220	86,338
123,079	-18,828	195,030	86,357
124,093	-19,056	194,885	86,133
125,108	-18,692	194,678	86,276
126,122	-18,806	194,592	86,154
127,137	-18,836	194,523	86,096
128,151	-18,836	194,350	86,012
129,166	-18,886	194,201	85,905
130,181	-18,793	194,043	85,889
131,195	-18,888	193,755	85,692
132,210	-18,661	193,481	85,713
133,224	-18,758	193,454	85,629
134,239	-18,990	193,418	85,452
135,254	-18,608	193,073	85,544
136,268	-18,960	192,936	85,243
137,283	-18,800	192,921	85,335
138,297	-18,916	192,635	85,124
139,312	-19,009	192,555	85,021
140,327	-18,994	192,202	84,867
141,341	-19,032	192,081	84,781
142,356	-19,398	191,976	84,487
143,370	-17,595	192,226	85,772
144,385	-10,942	194,218	91,056
145,400	-4,383	195,639	96,076
146,414	-2,871	195,997	97,248
147,429	-2,805	196,005	97,288
148,443	-2,490	195,765	97,369
149,458	-2,245	195,620	97,450
150,473	-1,941	195,640	97,653
151,487	-1,950	195,530	97,583
152,502	-1,908	195,476	97,576
153,516	-1,629	195,457	97,742
154,531	-1,851	195,147	97,431
155,546	-1,662	194,889	97,418
156,560	-1,565	194,804	97,431
157,575	-1,657	194,775	97,348
158,589	-1,704	194,520	97,180
159,604	-1,871	194,537	97,071
160,619	-1,738	194,275	97,018
161,633	-1,527	194,138	97,080
162,648	-1,409	194,071	97,115
163,662	-1,437	193,975	97,040
164,677	-1,361	193,927	97,058
165,692	-1,299	193,680	96,966
166,706	-1,417	193,676	96,878
167,721	-1,630	193,508	96,646
168,735	-1,518	193,481	96,697
169,750	-1,450	193,355	96,669
170,764	-1,294	193,046	96,609
171,779	-1,447	192,830	96,392
172,794	-1,393	192,934	96,470
173,808	-1,207	192,637	96,435
174,823	-1,511	192,643	96,231
175,837	-1,336	192,525	96,277
176,852	-1,385	192,297	96,123
177,867	-1,306	192,176	96,106
178,881	-1,269	192,085	96,075
179,896	-1,222	192,018	96,064
180,910	-1,267	191,797	95,915
181,925	-1,326	191,723	95,831
182,940	-1,282	191,566	95,773
183,954	-1,203	191,363	95,714
184,969	-1,380	191,289	95,554
185,983	-1,121	191,253	95,694
186,998	-1,058	191,096	95,648
188,013	-1,055	190,835	95,511
189,027	-1,035	190,624	95,409
190,042	-1,153	190,611	95,319
191,056	-1,309	190,479	95,144
192,071	-1,311	190,456	95,122
193,086	-1,230	190,241	95,059
194,100	-1,210	190,056	94,970
195,115	-1,053	189,903	94,987
196,129	-1,246	189,785	94,795
197,144	-1,329	189,641	94,662
198,159	-0,987	189,424	94,764
199,173	-1,167	189,375	94,616
200,188	-0,828	189,297	94,785
201,202	-1,108	189,040	94,469
202,217	-1,180	188,980	94,385
203,232	-0,920	188,692	94,398
204,246	-0,952	188,685	94,366
205,261	-0,945	188,553	94,296
206,275	-1,280	188,475	94,035
207,290	-0,815	188,164	94,167
208,304	-0,879	188,286	94,179
209,319	-1,096	188,107	93,943
210,334	-0,974	187,671	93,794
211,348	-0,921	187,564	93,766
212,363	-1,040	187,688	93,745
213,377	-1,000	187,464	93,650
214,392	-0,929	187,457	93,683
215,407	-0,887	187,298	93,621
216,421	-0,729	187,212	93,670
217,436	-1,118	186,993	93,307
218,450	-0,866	186,794	93,358
219,465	-0,796	186,698	93,345
220,480	-0,850	186,606	93,257
221,494	-0,889	186,543	93,193
222,509	-0,919	186,317	93,053
223,523	-0,724	186,121	93,068
224,538	-0,897	186,074	92,928
225,553	-0,786	185,861	92,883
226,567	-0,990	185,974	92,804
227,582	-0,925	185,866	92,783
228,596	-0,944	185,684	92,671
229,611	-0,591	185,462	92,773
230,626	-0,484	185,230	92,715
231,640	-0,914	185,260	92,454
232,655	-0,628	185,025	92,506
233,669	-0,900	184,921	92,277
234,684	-0,879	184,743	92,192
235,699	-0,730	184,747	92,279
236,713	-0,722	184,711	92,258
237,728	-0,502	184,427	92,244
238,742	-0,535	184,492	92,248
239,757	-0,671	184,289	92,053
240,772	-0,668	184,145	91,975
241,786	-0,825	184,142	91,869
242,801	-0,685	183,930	91,841
243,815	-0,550	183,891	91,897
244,830	-0,566	183,751	91,809
245,844	-0,213	183,468	91,876
246,859	-0,600	183,454	91,623
247,874	-0,748	183,312	91,453
248,888	-0,635	183,140	91,429
249,903	-0,710	183,163	91,386
250,917	-0,434	182,938	91,435
251,932	-0,379	182,871	91,427
252,947	-0,283	182,689	91,386
253,961	-0,562	182,574	91,150
254,976	-0,669	182,581	91,080
255,990	-0,691	182,452	90,994
257,005	-0,538	182,279	90,993
258,020	-0,589	182,284	90,956
259,034	-0,742	182,174	90,800
260,049	-0,470	181,853	90,798
261,063	-0,571	181,807	90,705
262,078	-0,640	181,572	90,538
263,093	-0,396	181,488	90,636
264,107	-0,718	181,453	90,414
265,122	-0,400	181,367	90,557
266,136	-0,361	181,076	90,427
267,151	-0,360	181,054	90,409
268,166	-0,467	180,982	90,300
269,180	-0,457	180,850	90,232
270,195	-0,518	180,736	90,130
271,209	-0,671	180,646	89,985
272,224	-0,216	180,486	90,172
273,239	-0,317	180,410	90,065
274,253	-0,378	180,176	89,903
275,268	-0,139	180,009	89,956
276,282	-0,706	179,965	89,585
277,297	-0,242	179,910	89,829
278,312	-0,076	179,858	89,895
279,326	-0,325	179,659	89,637
280,341	-0,302	179,557	89,592
281,355	-0,418	179,556	89,514
282,370	-0,258	179,293	89,471
283,384	-0,429	179,203	89,315
284,399	-0,477	179,157	89,256
285,414	-0,544	178,925	89,093
286,428	-0,400	178,917	89,166
287,443	-0,010	178,670	89,269
288,457	0,140	178,527	89,278
289,472	-0,186	178,571	89,098
290,487	-0,186	178,375	88,992
291,501	-0,080	178,126	88,923
292,516	-0,146	178,171	88,898
293,530	-0,126	178,085	88,860
294,545	-0,240	178,028	88,755
295,560	-0,118	177,751	88,681
296,574	-0,309	177,669	88,519
297,589	-0,167	177,555	88,539
298,603	0,001	177,362	88,534
299,618	-0,134	177,303	88,417
300,633	-0,291	177,191	88,260
301,647	-0,102	177,112	88,325
302,662	-0,020	176,911	88,265
303,676	0,052	176,879	88,284
304,691	0,022	176,729	88,183
305,706	0,071	176,668	88,174
306,720	0,061	176,449	88,051
307,735	-0,129	176,476	87,945
308,749	0,106	176,270	87,973
309,764	-0,166	176,237	87,788
310,779	-0,055	175,960	87,708
311,793	0,042	175,848	87,701
312,808	0,005	175,770	87,632
313,822	-0,141	175,735	87,521
314,837	0,032	175,562	87,529
315,852	0,122	175,557	87,572
316,866	-0,046	175,455	87,414
317,881	-0,278	175,361	87,224
318,895	0,080	175,149	87,320
319,910	0,216	174,977	87,306
320,925	-0,274	174,845	86,947
321,939	-0,086	174,684	86,968
322,954	0,251	174,683	87,156
323,968	-0,023	174,713	87,004
324,983	0,222	174,462	87,013
325,997	0,055	174,407	86,882
327,012	0,299	174,228	86,926
328,027	0,145	174,051	86,740
329,041	0,208	173,954	86,721
330,056	-0,202	173,954	86,476
331,070	-0,150	173,861	86,452
332,085	0,166	173,698	86,546
333,100	0,122	173,503	86,416
334,114	0,081	173,468	86,367
335,129	0,196	173,238	86,311
336,143	0,369	173,103	86,336
337,158	0,202	173,058	86,209
338,173	0,195	173,121	86,229
339,187	0,326	172,994	86,234
340,202	0,138	172,827	86,035
341,216	0,084	172,745	85,955
342,231	0,220	172,548	85,927
343,246	-0,058	172,518	85,745
344,260	0,395	172,388	85,933
345,275	0,161	172,312	85,753
346,289	0,345	172,039	85,715
347,304	0,112	172,115	85,611
348,319	0,242	171,897	85,570
349,333	0,260	171,785	85,517
350,348	0,146	171,672	85,388
351,362	0,245	171,588	85,395
352,377	0,210	171,564	85,356
353,392	0,453	171,364	85,386
354,406	0,540	171,189	85,341
355,421	189,707	1326,000	1392,911
356,435	150,174	1467,139	1393,387
