DTS Sentinel unit serial number:	SN410029Multiplexer serial number:	ORYXHardware model number:	OX2-SRSoftware version number:	ORYX F/W v4,00 Oryx Data Collector v3.7.2.0data status	okinstallation	B3 Nyhavnadifferential loss correction	single-endedforward channel	channel 1reverse channel	N/Adate	2023/11/28time	18:02:30forward acquisition time	300,00reverse acquisition time	0,00gamma	499,1914k internal	0,3149k external	0,3149temperature offset calibration	1,0000default loss term (dB/km)	0,3820temperature slope calibration	1,0000multiplexer offset coefficient	1,0000multiplexer slope coefficient	1,0000fibre end	0,00T internal ref (°C)	7,37T ext. ref 1 (°C)	-7,51T ext. ref 2 (°C)	-7,66length (m)	temperature (°C)	Stokes	anti-Stokes-744,400	169,937	-0,173	-0,183
-743,385	-200,000	-0,101	0,356
-742,371	1,641	-0,184	-0,098
-741,356	82,218	-0,084	0,067
-740,342	-200,000	0,044	-0,299
-739,327	173,617	-0,140	0,150
-738,312	-200,000	0,021	-0,160
-737,298	-200,000	-0,043	0,261
-736,283	800,000	-0,070	-0,177
-735,269	800,000	0,096	0,313
-734,254	23,593	-0,247	-0,150
-733,239	-145,992	-0,357	0,023
-732,225	100,379	-0,121	-0,104
-731,210	623,199	0,084	0,156
-730,196	-146,058	-0,214	0,014
-729,181	56,759	-0,147	0,106
-728,167	-72,727	-0,022	-0,006
-727,152	61,813	0,091	-0,067
-726,137	80,172	-0,083	0,066
-725,123	57,187	0,087	0,063
-724,108	66,508	-0,114	-0,086
-723,094	-41,067	-0,026	-0,010
-722,079	-200,000	-0,017	-0,092
-721,064	75,529	-0,051	-0,040
-720,050	-146,069	0,110	0,007
-719,035	258,952	-0,032	-0,041
-718,021	800,000	-0,072	0,170
-717,006	-200,000	0,004	-0,235
-715,991	-69,125	-0,040	0,011
-714,977	232,955	0,066	-0,081
-713,962	637,322	-0,035	-0,065
-712,948	94,602	0,060	-0,050
-711,933	-64,046	0,069	-0,021
-710,918	-200,000	-0,001	0,022
-709,904	-200,000	0,011	-0,104
-708,889	-146,690	-0,222	-0,014
-707,875	800,000	-0,054	-0,115
-706,860	-189,518	-0,050	0,000
-705,845	510,320	0,026	0,045
-704,831	800,000	0,022	0,045
-703,816	-200,000	-0,023	0,088
-702,802	-200,000	0,001	0,014
-701,787	800,000	0,067	-0,210
-700,772	-128,485	-0,100	-0,010
-699,758	571,793	0,027	0,049
-698,743	-200,000	0,004	0,078
-697,729	-200,000	-0,007	0,079
-696,714	-52,811	-0,087	-0,029
-695,699	-27,898	-0,068	0,029
-694,685	-200,000	-0,014	-0,130
-693,670	-29,478	0,058	-0,024
-692,656	-155,929	-0,040	-0,002
-691,641	241,832	0,088	0,108
-690,627	-13,538	0,115	0,055
-689,612	750,962	-0,013	0,025
-688,597	-0,875	-0,060	0,031
-687,583	-200,000	-0,033	-0,140
-686,568	183,909	-0,074	-0,081
-685,554	658,758	0,016	-0,031
-684,539	-200,000	-0,004	-0,046
-683,524	-97,313	-0,060	0,012
-682,510	343,653	-0,070	-0,101
-681,495	21,480	-0,066	0,039
-680,481	216,968	0,092	0,108
-679,466	339,613	-0,089	-0,128
-678,451	800,000	0,034	-0,105
-677,437	270,065	0,123	0,160
-676,422	800,000	-0,017	0,051
-675,408	15,282	0,096	0,055
-674,393	136,793	-0,075	-0,073
-673,378	-200,000	0,038	-0,154
-672,364	77,662	-0,129	-0,101
-671,349	800,000	-0,016	-0,041
-670,335	-6,965	-0,053	0,026
-669,320	79,309	0,130	0,102
-668,305	-20,750	0,057	0,026
-667,291	-101,226	-0,011	0,002
-666,276	-200,000	-0,005	0,051
-665,262	86,368	-0,134	0,109
-664,247	41,131	0,039	0,026
-663,232	800,000	0,025	-0,075
-662,218	-200,000	0,004	0,038
-661,203	-48,183	-0,101	0,036
-660,189	800,000	0,030	0,062
-659,174	100,861	-0,025	-0,021
-658,159	83,337	0,024	-0,019
-657,145	-116,463	0,095	-0,013
-656,130	-60,926	-0,047	-0,015
-655,116	427,431	-0,081	0,129
-654,101	800,000	0,042	-0,089
-653,086	-77,806	0,093	-0,024
-652,072	800,000	-0,028	0,084
-651,057	-200,000	-0,015	-0,167
-650,043	-200,000	0,011	-0,102
-649,028	387,992	0,050	-0,076
-648,014	-60,173	0,094	0,029
-646,999	2,936	0,181	0,096
-645,984	-169,599	0,032	0,001
-644,970	-176,016	-0,133	-0,003
-643,955	-13,802	-0,109	-0,052
-642,941	800,000	-0,031	0,082
-641,926	-105,982	0,115	0,019
-640,911	237,925	-0,054	0,066
-639,897	149,620	0,144	-0,143
-638,882	-200,000	0,013	0,145
-637,868	-37,348	0,038	-0,015
-636,853	10,655	-0,072	-0,040
-635,838	800,000	-0,074	0,157
-634,824	-33,287	-0,096	0,039
-633,809	50,302	0,075	0,052
-632,795	-112,466	-0,074	0,011
-631,780	46,441	0,065	0,044
-630,765	342,066	-0,097	-0,140
-629,751	-200,000	0,032	-0,267
-628,736	-200,000	-0,008	-0,181
-627,722	183,879	-0,078	0,085
-626,707	800,000	-0,028	0,058
-625,692	133,972	0,013	0,012
-624,678	-3,249	-0,062	0,032
-623,663	604,633	0,027	-0,050
-622,649	-134,128	-0,158	-0,014
-621,634	800,000	0,040	-0,121
-620,619	-200,000	-0,038	0,262
-619,605	-66,162	-0,085	0,025
-618,590	-154,339	0,057	0,003
-617,576	-46,419	0,180	0,065
-616,561	12,919	0,077	0,044
-615,546	48,692	-0,090	0,062
-614,532	800,000	-0,050	-0,115
-613,517	93,924	0,096	-0,080
-612,503	437,067	0,084	-0,134
-611,488	-14,372	0,052	-0,025
-610,474	641,093	-0,114	0,215
-609,459	56,405	-0,090	-0,065
-608,444	76,518	0,066	-0,051
-607,430	-124,265	-0,137	-0,016
-606,415	23,772	-0,105	-0,064
-605,401	800,000	0,039	-0,086
-604,386	-200,000	-0,029	0,110
-603,371	-200,000	-0,018	0,160
-602,357	800,000	0,039	-0,087
-601,342	40,502	-0,024	0,016
-600,328	2,405	-0,044	-0,023
-599,313	-170,670	-0,017	0,000
-598,298	150,708	0,114	0,114
-597,284	-200,000	0,008	0,061
-596,269	800,000	-0,023	0,075
-595,255	-124,027	0,046	-0,005
-594,240	-109,835	0,070	0,011
-593,225	103,832	-0,136	-0,117
-592,211	-135,228	-0,120	-0,010
-591,196	-45,813	0,288	0,104
-590,182	-0,220	-0,082	0,042
-589,167	-200,000	0,004	0,071
-588,152	800,000	0,058	0,130
-587,138	554,941	-0,033	-0,059
-586,123	-200,000	0,001	-0,023
-585,109	-166,092	-0,166	-0,005
-584,094	324,687	0,065	0,092
-583,079	411,250	-0,065	-0,101
-582,065	778,583	0,006	0,011
-581,050	-200,000	0,032	0,141
-580,036	530,914	0,031	0,054
-579,021	519,434	-0,058	-0,100
-578,006	-32,511	0,109	-0,044
-576,992	-200,000	-0,003	-0,063
-575,977	-44,702	0,005	0,002
-574,963	305,633	-0,059	0,081
-573,948	3,164	-0,033	-0,017
-572,934	32,430	-0,094	0,060
-571,919	412,733	-0,012	-0,018
-570,904	-60,839	0,078	0,024
-569,890	-33,271	-0,055	-0,022
-568,875	-61,338	0,060	0,018
-567,861	-200,000	-0,004	0,084
-566,846	406,933	0,121	0,188
-565,831	121,231	-0,093	0,085
-564,817	800,000	-0,028	0,067
-563,802	86,168	0,085	0,068
-562,788	53,026	0,059	-0,042
-561,773	-147,963	-0,039	-0,002
-560,758	-200,000	-0,000	0,019
-559,744	211,775	-0,056	-0,065
-558,729	800,000	-0,047	0,118
-557,715	106,276	0,066	-0,058
-556,700	-35,254	0,061	-0,024
-555,685	-37,734	-0,077	-0,030
-554,671	-200,000	0,024	-0,081
-553,656	3,430	0,134	-0,072
-552,642	800,000	-0,043	-0,133
-551,627	228,732	0,047	-0,056
-550,612	176,824	-0,073	0,078
-549,598	-147,588	0,148	-0,009
-548,583	179,707	-0,059	-0,063
-547,569	800,000	-0,026	0,075
-546,554	710,380	-0,008	0,015
-545,539	-128,714	0,185	-0,019
-544,525	-71,653	0,110	0,030
-543,510	362,195	0,028	-0,042
-542,496	643,121	-0,007	-0,014
-541,481	384,182	-0,015	-0,023
-540,466	138,784	0,055	-0,053
-539,452	-200,000	0,019	-0,151
-538,437	122,428	0,040	0,036
-537,423	-14,758	-0,083	-0,039
-536,408	-200,000	0,008	-0,066
-535,393	151,188	0,103	-0,103
-534,379	-48,955	-0,165	-0,058
-533,364	-24,868	0,067	-0,029
-532,350	-200,000	0,034	0,133
-531,335	17,098	-0,017	-0,010
-530,321	-55,643	0,080	-0,026
-529,306	-200,000	-0,003	-0,032
-528,291	756,827	0,031	0,063
-527,277	-67,875	-0,084	0,024
-526,262	-194,619	-0,079	-0,000
-525,248	64,221	-0,068	0,050
-524,233	-193,673	0,051	0,000
-523,218	-79,053	0,115	0,028
-522,204	783,748	-0,057	0,114
-521,189	-38,132	-0,084	-0,033
-520,175	226,352	0,041	-0,048
-519,160	-200,000	0,014	-0,148
-518,145	185,404	0,046	-0,050
-517,131	-200,000	0,023	0,133
-516,116	-200,000	-0,006	0,136
-515,102	-200,000	0,009	0,073
-514,087	-200,000	-0,027	0,111
-513,072	155,807	0,039	0,039
-512,058	-200,000	0,010	0,060
-511,043	800,000	0,032	0,076
-510,029	31,990	-0,127	0,080
-509,014	800,000	-0,032	-0,079
-507,999	444,034	-0,107	0,173
-506,985	-200,000	0,027	0,100
-505,970	55,031	-0,180	0,127
-504,956	-94,506	-0,192	0,038
-503,941	-200,000	0,017	0,101
-502,926	800,000	0,047	0,107
-501,912	21,927	0,053	0,032
-500,897	361,816	0,017	0,025
-499,883	-200,000	-0,004	-0,135
-498,868	-9,841	-0,061	0,030
-497,853	128,872	-0,052	0,049
-496,839	678,782	0,066	0,127
-495,824	-200,000	-0,009	0,112
-494,810	795,067	0,041	-0,083
-493,795	-200,000	-0,003	0,052
-492,781	-200,000	0,002	-0,018
-491,766	-9,877	-0,127	-0,062
-490,751	110,569	-0,064	-0,056
-489,737	94,413	0,054	0,045
-488,722	-200,000	-0,000	0,157
-487,708	-62,821	-0,022	-0,006
-486,693	275,692	-0,041	-0,054
-485,678	-124,829	0,128	0,014
-484,664	-25,599	-0,101	-0,043
-483,649	800,000	-0,031	-0,097
-482,635	800,000	0,015	-0,046
-481,620	13,882	0,059	-0,033
-480,605	144,753	0,082	0,080
-479,591	768,737	0,045	-0,091
-478,576	-200,000	0,015	-0,058
-477,562	-58,725	-0,169	0,053
-476,547	-46,658	-0,083	-0,029
-475,532	95,420	-0,087	-0,072
-474,518	-35,778	0,069	0,027
-473,503	-111,306	-0,147	-0,022
-472,489	-76,617	-0,028	0,007
-471,474	14,189	0,139	-0,079
-470,459	191,994	0,036	0,040
-469,445	72,597	0,049	0,038
-468,430	-200,000	-0,015	-0,054
-467,416	800,000	0,027	0,083
-466,401	83,711	0,100	0,080
-465,386	-200,000	-0,056	0,000
-464,372	338,960	-0,066	-0,094
-463,357	-92,141	-0,175	-0,036
-462,343	135,632	0,096	-0,091
-461,328	-200,000	-0,003	0,063
-460,313	800,000	0,034	0,083
-459,299	800,000	-0,012	0,024
-458,284	-120,301	-0,041	-0,005
-457,270	33,460	0,115	-0,073
-456,255	-200,000	-0,009	-0,117
-455,241	800,000	0,080	-0,179
-454,226	159,587	0,051	-0,052
-453,211	-113,018	0,178	-0,025
-452,197	-54,282	-0,050	-0,016
-451,182	800,000	0,022	-0,063
-450,168	800,000	0,014	-0,039
-449,153	-200,000	-0,044	0,158
-448,138	-200,000	0,016	-0,081
-447,124	316,177	0,048	-0,066
-446,109	800,000	0,032	-0,065
-445,095	586,406	0,056	-0,101
-444,080	-37,025	0,025	-0,010
-443,065	-135,705	-0,052	0,004
-442,051	-94,670	-0,119	0,023
-441,036	-200,000	0,028	-0,109
-440,022	-200,000	-0,005	-0,083
-439,007	237,785	-0,028	-0,034
-437,992	6,064	0,169	0,091
-436,978	800,000	0,035	0,100
-435,963	369,227	0,014	-0,021
-434,949	-200,000	0,034	0,126
-433,934	800,000	0,075	0,191
-432,919	-151,526	-0,114	-0,006
-431,905	222,411	0,054	-0,063
-430,890	466,178	0,042	0,069
-429,876	-27,357	0,108	-0,046
-428,861	-200,000	-0,005	-0,105
-427,846	276,265	0,091	-0,118
-426,832	-200,000	0,018	0,059
-425,817	-200,000	0,001	-0,152
-424,803	374,035	-0,067	0,099
-423,788	35,958	0,007	-0,005
-422,773	358,669	0,046	-0,068
-421,759	-103,358	-0,119	0,020
-420,744	800,000	0,068	-0,177
-419,730	-200,000	-0,027	0,142
-418,715	-143,556	-0,154	0,011
-417,701	-200,000	-0,003	-0,222
-416,686	800,000	0,016	0,039
-415,671	212,341	0,034	-0,040
-414,657	456,947	0,022	-0,036
-413,642	-200,000	0,003	-0,018
-412,628	-41,188	0,035	-0,013
-411,613	264,243	-0,101	-0,129
-410,598	285,741	0,009	0,012
-409,584	-134,607	0,159	0,014
-408,569	800,000	0,023	0,068
-407,555	-40,972	-0,052	-0,019
-406,540	-6,705	-0,057	-0,028
-405,525	689,163	-0,030	-0,058
-404,511	26,353	-0,068	-0,041
-403,496	-200,000	0,035	-0,157
-402,482	-31,490	0,136	-0,056
-401,467	159,478	0,005	0,005
-400,452	-100,402	0,169	-0,030
-399,438	-200,000	0,007	-0,159
-398,423	-200,000	0,006	-0,097
-397,409	266,540	-0,073	-0,094
-396,394	158,250	0,067	-0,068
-395,379	-200,000	0,004	0,123
-394,365	187,276	-0,056	-0,061
-393,350	60,010	-0,029	-0,021
-392,336	10,567	0,024	-0,013
-391,321	800,000	-0,037	0,111
-390,306	200,053	0,032	-0,036
-389,292	-200,000	0,005	-0,048
-388,277	-42,052	-0,065	-0,024
-387,263	-200,000	0,031	0,107
-386,248	250,354	-0,043	-0,053
-385,233	219,585	-0,136	0,159
-384,219	-30,625	0,155	-0,064
-383,204	-94,562	-0,160	0,031
-382,190	-41,805	-0,205	-0,076
-381,175	446,060	-0,021	-0,034
-380,160	771,263	-0,030	-0,061
-379,146	800,000	0,029	0,081
-378,131	136,217	-0,168	0,160
-377,117	-120,097	0,082	-0,010
-376,102	-113,841	0,048	0,007
-375,088	-200,000	-0,003	0,050
-374,073	800,000	-0,042	0,110
-373,058	308,166	0,055	-0,076
-372,044	64,006	0,089	0,065
-371,029	294,062	0,008	-0,011
-370,015	286,084	-0,058	0,076
-369,000	302,718	-0,118	-0,160
-367,985	-129,499	0,043	0,004
-366,971	698,974	-0,022	-0,041
-365,956	-200,000	-0,003	0,055
-364,942	-200,000	0,001	0,025
-363,927	-113,728	0,084	0,012
-362,912	800,000	0,017	-0,035
-361,898	-200,000	-0,004	0,077
-360,883	99,283	-0,050	-0,042
-359,869	800,000	0,037	-0,109
-358,854	208,728	0,046	0,053
-357,839	37,281	0,067	0,043
-356,825	-19,451	-0,037	-0,016
-355,810	800,000	0,012	0,027
-354,796	-104,499	-0,191	-0,032
-353,781	393,481	0,082	-0,125
-352,766	-79,707	-0,079	0,019
-351,752	-200,000	0,011	0,063
-350,737	-200,000	-0,004	0,049
-349,723	189,247	-0,027	0,030
-348,708	800,000	-0,011	0,023
-347,693	800,000	0,022	-0,047
-346,679	-200,000	-0,016	-0,116
-345,664	800,000	0,028	-0,070
-344,650	-159,893	0,029	0,001
-343,635	327,089	-0,009	0,012
-342,620	-95,112	-0,157	0,031
-341,606	-166,949	0,207	0,006
-340,591	582,819	0,065	0,117
-339,577	-50,544	-0,203	-0,069
-338,562	-58,594	-0,104	-0,033
-337,548	-67,045	0,075	-0,022
-336,533	70,685	-0,064	0,048
-335,518	289,836	0,019	-0,025
-334,504	-110,630	-0,149	0,022
-333,489	800,000	0,005	-0,016
-332,475	127,216	-0,043	0,040
-331,460	-200,000	-0,027	-0,176
-330,445	800,000	-0,034	0,109
-329,431	-200,000	0,003	-0,014
-328,416	-200,000	0,006	0,104
-327,402	62,399	-0,108	0,078
-326,387	-200,000	-0,019	-0,132
-325,372	605,494	0,014	0,025
-324,358	-200,000	0,031	-0,110
-323,343	-45,023	0,070	0,025
-322,329	-74,862	0,081	-0,021
-321,314	541,358	0,042	-0,073
-320,299	46,399	-0,088	0,059
-319,285	-100,546	0,071	0,013
-318,270	151,630	-0,122	-0,121
-317,256	73,017	-0,040	0,030
-316,241	231,749	0,036	0,043
-315,226	39,791	-0,060	0,039
-314,212	173,353	0,084	0,089
-313,197	-115,112	0,119	0,016
-312,183	238,095	0,028	0,034
-311,168	800,000	-0,028	0,076
-310,153	-115,900	-0,110	0,015
-309,139	-42,616	-0,071	0,026
-308,124	687,323	-0,077	0,146
-307,110	-84,672	-0,105	0,024
-306,095	119,628	0,028	0,026
-305,080	0,741	0,082	0,043
-304,066	443,676	-0,072	-0,115
-303,051	-200,000	0,006	-0,073
-302,037	-200,000	0,059	-0,196
-301,022	-200,000	-0,010	-0,108
-300,008	548,422	0,048	0,085
-298,993	-154,924	-0,057	0,003
-297,978	153,912	-0,023	0,023
-296,964	214,341	0,032	-0,037
-295,949	800,000	0,081	-0,223
-294,935	-200,000	-0,013	-0,074
-293,920	-39,097	0,027	-0,010
-292,905	-67,433	0,180	0,051
-291,891	-134,728	0,081	-0,007
-290,876	-59,829	-0,065	0,020
-289,862	263,870	-0,032	0,041
-288,847	358,893	0,042	0,061
-287,832	-129,866	-0,058	-0,006
-286,818	800,000	0,019	0,053
-285,803	1,367	-0,058	-0,030
-284,789	40,074	-0,101	0,066
-283,774	-169,293	0,225	0,006
-282,759	800,000	0,023	0,049
-281,745	234,000	-0,069	-0,082
-280,730	3,834	-0,059	-0,031
-279,716	-0,665	0,107	0,055
-278,701	-127,594	0,152	0,016
-277,686	-200,000	0,036	0,146
-276,672	648,759	0,005	0,010
-275,657	82,913	0,057	0,045
-274,643	-48,356	-0,114	0,040
-273,628	-52,317	0,067	0,022
-272,613	-169,144	-0,061	0,002
-271,599	-200,000	0,039	-0,136
-270,584	14,054	-0,093	0,053
-269,570	90,980	-0,073	0,059
-268,555	-47,028	-0,081	0,029
-267,540	800,000	-0,018	-0,049
-266,526	-200,000	-0,036	-0,160
-265,511	-23,932	-0,050	0,021
-264,497	-145,964	0,077	-0,005
-263,482	-53,105	0,085	-0,028
-262,467	129,273	-0,056	0,052
-261,453	-26,201	0,058	0,024
-260,438	800,000	-0,024	-0,062
-259,424	222,143	-0,080	-0,093
-258,409	800,000	0,024	0,051
-257,395	-128,757	0,044	-0,004
-256,380	800,000	-0,016	0,038
-255,365	422,661	0,083	0,129
-254,351	85,309	0,038	-0,030
-253,336	-151,245	-0,070	0,004
-252,322	-200,000	-0,006	-0,113
-251,307	800,000	0,045	-0,093
-250,292	42,149	0,126	-0,083
-249,278	800,000	-0,014	0,043
-248,263	157,247	-0,005	0,005
-247,249	234,916	0,050	0,060
-246,234	-48,148	0,121	-0,042
-245,219	-200,000	0,017	-0,169
-244,205	137,443	-0,061	-0,058
-243,190	-200,000	0,011	0,055
-242,176	-40,887	-0,155	0,058
-241,161	-131,487	0,076	0,007
-240,146	-58,943	0,032	0,010
-239,132	248,809	-0,025	-0,030
-238,117	193,799	-0,152	-0,167
-237,103	-5,838	-0,072	-0,036
-236,088	-200,000	-0,002	-0,094
-235,073	800,000	-0,014	-0,031
-234,059	159,851	-0,046	-0,047
-233,044	-164,348	-0,065	-0,002
-232,030	310,036	0,040	-0,054
-231,015	-142,725	0,119	0,008
-230,000	44,820	-0,066	0,044
-228,986	45,509	-0,060	0,040
-227,971	-200,000	0,027	-0,108
-226,957	-200,000	0,028	0,112
-225,942	800,000	-0,033	0,073
-224,927	-166,605	0,089	-0,003
-223,913	-105,792	-0,107	0,017
-222,898	800,000	-0,008	-0,021
-221,884	800,000	0,036	0,079
-220,869	11,299	-0,060	0,033
-219,855	133,736	0,168	0,157
-218,840	800,000	0,045	0,135
-217,825	209,318	-0,045	-0,051
-216,811	27,529	0,114	-0,069
-215,796	-91,571	-0,140	-0,029
-214,782	109,107	-0,094	0,082
-213,767	146,570	-0,056	0,055
-212,752	-200,000	0,032	0,106
-211,738	-200,000	0,017	-0,078
-210,723	-66,760	0,013	0,004
-209,709	160,830	-0,040	-0,040
-208,694	93,932	0,104	-0,085
-207,679	123,340	0,127	-0,115
-206,665	800,000	0,060	0,160
-205,650	800,000	-0,073	0,217
-204,636	800,000	0,037	0,076
-203,621	-129,092	-0,167	0,017
-202,606	386,347	-0,051	0,077
-201,592	167,320	-0,034	0,035
-200,577	600,059	0,035	-0,064
-199,563	-200,000	-0,008	-0,123
-198,548	225,284	0,036	0,043
-197,533	-200,000	-0,017	0,063
-196,519	-200,000	-0,020	0,159
-195,504	217,924	-0,032	0,037
-194,490	-200,000	0,005	-0,217
-193,475	179,819	-0,138	-0,146
-192,460	10,042	0,188	-0,103
-191,446	22,988	-0,048	0,028
-190,431	-167,514	0,067	0,002
-189,417	-96,699	0,141	-0,027
-188,402	-200,000	0,017	-0,154
-187,387	-71,236	0,113	0,031
-186,373	38,469	-0,055	-0,035
-185,358	-200,000	-0,026	0,141
-184,344	-200,000	0,009	0,040
-183,329	-188,648	0,073	0,001
-182,315	-24,312	0,059	-0,025
-181,300	-200,000	0,023	-0,140
-180,285	-155,377	-0,114	0,005
-179,271	-200,000	0,016	0,116
-178,256	-200,000	0,010	-0,083
-177,242	10,344	0,078	-0,043
-176,227	800,000	0,054	0,124
-175,212	753,422	0,055	0,109
-174,198	-200,000	-0,035	0,119
-173,183	188,851	0,034	0,037
-172,169	490,090	-0,057	-0,094
-171,154	800,000	0,046	-0,102
-170,139	-101,753	0,024	-0,004
-169,125	800,000	0,023	0,066
-168,110	97,781	-0,068	0,057
-167,096	800,000	-0,032	-0,084
-166,081	97,634	-0,083	-0,069
-165,066	129,918	-0,018	0,017
-164,052	800,000	0,054	0,142
-163,037	-60,849	0,144	0,044
-162,023	329,346	0,027	0,037
-161,008	-34,224	0,053	0,021
-159,993	-200,000	0,050	-0,171
-158,979	-84,041	-0,107	0,024
-157,964	-119,331	0,088	0,011
-156,950	80,177	-0,092	0,072
-155,935	-117,126	-0,131	-0,017
-154,920	356,135	0,042	0,061
-153,906	-200,000	-0,034	0,145
-152,891	800,000	-0,048	-0,123
-151,877	679,044	0,019	0,037
-150,862	-200,000	-0,000	-0,002
-149,847	-166,473	-0,140	-0,004
-148,833	129,184	0,036	-0,034
-147,818	150,244	0,070	0,068
-146,804	-77,975	-0,020	0,005
-145,789	646,097	-0,007	0,013
-144,775	432,816	0,008	0,013
-143,760	-56,395	-0,078	0,025
-142,745	5,660	-0,108	-0,058
-141,731	127,941	0,034	-0,031
-140,716	-55,739	-0,091	-0,029
-139,702	-200,000	-0,006	-0,032
-138,687	-14,454	-0,156	0,072
-137,672	-200,000	-0,004	-0,022
-136,658	800,000	0,001	-0,002
-135,643	-200,000	0,017	-0,079
-134,629	93,513	-0,180	-0,147
-133,614	50,497	0,093	-0,063
-132,599	-140,670	0,080	0,006
-131,585	-76,233	0,032	-0,008
-130,570	-27,386	-0,094	0,039
-129,556	629,215	-0,021	-0,039
-128,541	31,351	-0,028	0,017
-127,526	257,098	-0,071	-0,088
-126,512	292,013	0,064	-0,084
-125,497	141,972	-0,106	0,101
-124,483	-200,000	-0,018	0,069
-123,468	195,249	-0,046	0,050
-122,453	-13,333	-0,077	0,036
-121,439	54,580	-0,043	0,030
-120,424	-200,000	-0,017	0,078
-119,410	-191,436	0,039	0,000
-118,395	-194,933	0,103	-0,001
-117,380	144,204	0,110	-0,106
-116,366	171,788	0,091	0,095
-115,351	322,927	-0,009	-0,013
-114,337	-73,530	-0,138	0,036
-113,322	40,986	0,144	0,093
-112,307	-200,000	-0,008	0,059
-111,293	-131,014	-0,009	0,001
-110,278	-100,158	0,141	0,025
-109,264	-200,000	0,013	0,183
-108,249	429,710	-0,044	-0,069
-107,234	-15,661	0,109	0,050
-106,220	656,484	-0,057	-0,106
-105,205	-26,151	-0,103	0,043
-104,191	800,000	0,041	0,130
-103,176	197,567	-0,034	0,038
-102,162	800,000	-0,036	0,106
-101,147	307,693	-0,117	-0,158
-100,132	-200,000	-0,003	-0,079
-99,118	334,077	-0,046	0,064
-98,103	256,379	0,074	0,092
-97,089	800,000	-0,041	0,094
-96,074	-200,000	-0,026	-0,098
-95,059	-107,830	0,110	-0,017
-94,045	72,931	-0,077	-0,058
-93,030	123,248	-0,111	-0,101
-92,016	2,994	-0,152	0,079
-91,001	-200,000	0,006	-0,143
-89,986	800,000	-0,031	0,091
-88,972	119,752	-0,118	0,105
-87,957	56,762	0,050	0,035
-86,943	-200,000	0,002	0,024
-85,928	187,254	-0,065	-0,070
-84,913	316,502	-0,046	-0,062
-83,899	-200,000	-0,009	-0,074
-82,884	-200,000	-0,017	-0,105
-81,870	154,188	0,015	0,014
-80,855	-200,000	0,005	0,042
-79,840	56,719	-0,208	-0,146
-78,826	-97,243	0,102	0,019
-77,811	-112,020	-0,026	-0,004
-76,797	5,663	-0,059	0,031
-75,782	-200,000	0,007	0,136
-74,767	59,552	0,113	0,080
-73,753	800,000	-0,050	-0,122
-72,738	-200,000	0,010	0,110
-71,724	88,263	0,110	0,088
-70,709	-200,000	-0,003	-0,046
-69,694	100,058	-0,132	-0,110
-68,680	-109,472	-0,168	0,025
-67,665	-200,000	-0,001	0,047
-66,651	461,283	-0,033	0,053
-65,636	440,071	0,109	0,172
-64,622	-200,000	-0,007	0,090
-63,607	106,209	-0,143	-0,122
-62,592	-5,002	0,117	-0,058
-61,578	-200,000	-0,015	-0,089
-60,563	-139,866	-0,116	0,009
-59,549	-200,000	0,042	0,138
-58,534	72,212	-2,162	-1,619
-57,519	631,644	-0,973	-1,781
-56,505	-200,000	-0,219	-4,406
-55,490	786,083	0,833	1,652
-54,476	800,000	5,213	11,429
-53,461	-200,000	22,816	349,820
-52,446	800,000	758,399	2279,781
-51,432	499,108	1638,625	2727,887
-50,417	66,342	1557,373	1137,268
-49,403	19,222	1102,037	634,937
-48,388	10,940	803,133	440,239
-47,373	28,988	768,730	467,996
-46,359	17,457	753,694	429,708
-45,344	7,744	748,991	402,386
-44,330	7,489	747,114	400,713
-43,315	7,384	746,068	399,871
-42,300	7,409	745,039	399,365
-41,286	7,524	744,106	399,142
-40,271	7,395	743,305	398,369
-39,257	7,417	742,949	398,219
-38,242	7,416	742,232	397,816
-37,227	7,383	741,297	397,216
-36,213	7,367	740,758	396,871
-35,198	7,378	739,954	396,453
-34,184	7,465	739,576	396,454
-33,169	7,430	738,452	395,747
-32,154	7,623	737,780	395,855
-31,140	7,473	737,027	395,060
-30,125	7,545	736,355	394,865
-29,111	7,376	735,846	394,153
-28,096	7,388	735,379	393,917
-27,082	7,474	734,189	393,478
-26,067	7,444	733,948	393,260
-25,052	7,389	733,284	392,749
-24,038	7,417	732,989	392,647
-23,023	7,464	732,282	392,368
-22,009	7,485	731,644	392,063
-20,994	7,433	731,082	391,617
-19,979	7,354	730,903	391,310
-18,965	7,335	730,302	390,926
-17,950	7,329	730,061	390,767
-16,936	7,242	729,571	390,273
-15,921	7,318	728,911	390,092
-14,906	7,294	728,219	389,649
-13,892	7,361	727,708	389,524
-12,877	7,313	727,173	389,103
-11,863	7,337	726,920	389,012
-10,848	7,298	726,435	388,640
-9,833	7,286	725,939	388,330
-8,819	7,175	725,519	387,818
-7,804	7,306	724,787	387,732
-6,790	7,253	724,385	387,373
-5,775	7,328	723,634	387,139
-4,760	7,273	723,090	386,698
-3,746	7,302	722,650	386,518
-2,731	7,333	721,966	386,213
-1,717	7,206	721,945	385,875
-0,702	7,183	720,980	385,288
0,313	10,830	676,569	370,479
1,327	23,298	378,967	223,420
2,342	26,176	98,351	58,924
3,356	0,146	31,922	16,315
4,371	-23,673	18,804	8,072
5,386	-27,391	16,571	6,900
6,400	-23,123	15,878	6,844
7,415	-28,652	15,287	6,298
8,429	-29,540	15,132	6,188
9,444	-29,072	14,969	6,144
10,459	-28,526	15,017	6,192
11,473	-31,946	14,958	5,991
12,488	-27,757	14,930	6,194
13,502	-29,536	14,911	6,095
14,517	-28,020	14,833	6,140
15,531	-30,235	14,684	5,966
16,546	-29,664	14,840	6,058
17,561	-32,119	14,691	5,872
18,575	-28,784	14,851	6,106
19,590	-26,871	14,608	6,101
20,604	-30,507	14,628	5,926
21,619	-29,455	14,485	5,920
22,634	-32,786	14,626	5,810
23,648	-31,574	14,579	5,852
24,663	-30,793	14,440	5,834
25,677	-30,437	14,406	5,837
26,692	-29,480	14,491	5,919
27,707	-28,891	14,508	5,955
28,721	-32,000	14,447	5,775
29,736	-29,254	14,386	5,886
30,750	-30,723	14,328	5,789
31,765	-27,898	14,356	5,939
32,780	-30,557	14,397	5,824
33,794	-27,331	14,317	5,950
34,809	-31,622	14,320	5,740
35,823	-31,745	14,318	5,732
36,838	-28,298	14,378	5,926
37,853	-28,828	14,202	5,827
38,867	-30,623	14,063	5,683
39,882	-29,751	14,223	5,790
40,896	-30,693	14,267	5,761
41,911	-29,067	14,227	5,823
42,926	-30,867	14,260	5,749
43,940	-28,312	14,204	5,850
44,955	-29,163	14,161	5,790
45,969	-28,043	14,130	5,832
46,984	-29,235	14,124	5,771
47,999	-31,906	14,239	5,687
49,013	-29,639	14,114	5,746
50,028	-33,173	14,108	5,572
51,042	-30,119	14,072	5,705
52,057	-26,458	14,048	5,871
53,071	-28,237	14,012	5,770
54,086	-29,126	13,994	5,719
55,101	-28,409	14,011	5,760
56,115	-31,276	14,052	5,638
57,130	-25,587	13,922	5,857
58,144	-29,665	13,940	5,669
59,159	-30,388	13,954	5,640
60,174	-30,466	13,810	5,578
61,188	-30,944	13,933	5,604
62,203	-28,857	13,930	5,702
63,217	-29,845	13,840	5,618
64,232	-28,723	13,909	5,698
65,247	-29,814	13,831	5,614
66,261	-26,968	13,721	5,703
67,276	-32,733	13,870	5,491
68,290	-28,518	13,688	5,616
69,305	-27,516	13,803	5,710
70,320	-28,892	13,711	5,607
71,334	-28,004	13,818	5,692
72,349	-28,455	13,725	5,632
73,363	-29,277	13,592	5,539
74,378	-32,198	13,793	5,482
75,393	-30,570	13,750	5,541
76,407	-29,177	13,703	5,587
77,422	-29,559	13,701	5,568
78,436	-29,568	13,744	5,584
79,451	-28,383	13,539	5,555
80,466	-29,082	13,603	5,548
81,480	-31,306	13,568	5,431
82,495	-28,354	13,534	5,553
83,509	-25,284	13,636	5,738
84,524	-31,094	13,642	5,469
85,539	-26,988	13,536	5,616
86,553	-27,984	13,585	5,589
87,568	-30,979	13,572	5,445
88,582	-26,779	13,363	5,552
89,597	-31,978	13,524	5,378
90,611	-29,260	13,550	5,514
91,626	-27,741	13,473	5,552
92,641	-29,416	13,516	5,492
93,655	-29,957	13,579	5,492
94,670	-26,216	13,453	5,612
95,684	-30,292	13,389	5,399
96,699	-26,077	13,338	5,569
97,714	-27,927	13,453	5,532
98,728	-31,030	13,464	5,393
99,743	-29,112	13,386	5,449
100,757	-24,946	13,430	5,658
101,772	-27,495	13,248	5,465
102,787	-29,058	13,344	5,434
103,801	-27,778	13,215	5,438
104,816	-28,067	13,263	5,444
105,830	-29,077	13,296	5,412
106,845	-26,111	13,325	5,558
107,860	-28,207	13,332	5,465
108,874	-30,890	13,277	5,320
109,889	-26,723	13,245	5,495
110,903	-28,962	13,321	5,424
111,918	-29,381	13,188	5,351
112,933	-27,995	13,146	5,396
113,947	-28,679	13,297	5,426
114,962	-25,792	13,235	5,530
115,976	-28,983	13,171	5,360
116,991	-29,715	13,151	5,318
118,006	-30,330	13,255	5,332
119,020	-27,630	13,172	5,420
120,035	-28,420	13,094	5,352
121,049	-30,475	13,209	5,306
122,064	-30,260	13,229	5,323
123,079	-27,712	13,102	5,386
124,093	-30,759	13,012	5,213
125,108	-33,354	13,220	5,179
126,122	-28,896	13,182	5,364
127,137	-27,021	13,183	5,448
128,151	-31,027	13,168	5,261
129,166	-28,033	13,099	5,367
130,181	-28,899	12,921	5,256
131,195	-27,189	12,982	5,355
132,210	-28,645	12,942	5,274
133,224	-29,331	12,993	5,264
134,239	-30,972	13,183	5,267
135,254	-28,969	12,993	5,279
136,268	-28,576	12,964	5,284
137,283	-29,681	13,044	5,267
138,297	-30,763	12,943	5,179
139,312	-30,155	12,962	5,212
140,327	-28,881	12,782	5,195
141,341	-28,976	12,883	5,231
142,356	-29,589	12,912	5,216
143,370	-25,921	12,987	5,407
144,385	-26,107	13,120	5,454
145,400	-14,326	13,095	5,968
146,414	-14,143	13,089	5,973
147,429	-14,651	13,196	5,998
148,443	-14,090	13,139	5,997
149,458	-11,777	13,118	6,090
150,473	-16,034	13,183	5,929
151,487	-14,014	13,191	6,022
152,502	-16,534	13,118	5,876
153,516	-14,786	12,989	5,895
154,531	-11,371	13,100	6,097
155,546	-12,283	13,086	6,049
156,560	-9,761	13,088	6,161
157,575	-13,712	12,973	5,933
158,589	-10,425	12,996	6,088
159,604	-14,665	13,097	5,946
160,619	-14,052	13,084	5,967
161,633	-11,369	13,006	6,049
162,648	-11,734	12,955	6,009
163,662	-12,582	12,994	5,989
164,677	-14,274	13,121	5,972
165,692	-12,198	12,958	5,988
166,706	-11,898	13,004	6,022
167,721	-13,062	12,947	5,944
168,735	-15,299	12,895	5,822
169,750	-12,417	12,944	5,970
170,764	-11,493	12,888	5,984
171,779	-13,161	12,967	5,947
172,794	-10,858	12,912	6,022
173,808	-9,084	12,859	6,074
174,823	-11,622	12,906	5,985
175,837	-13,976	12,893	5,875
176,852	-15,085	12,976	5,864
177,867	-11,150	12,799	5,954
178,881	-14,004	12,969	5,907
179,896	-11,237	12,727	5,915
180,910	-13,235	12,806	5,865
181,925	-10,128	12,784	5,989
182,940	-11,955	12,686	5,864
183,954	-12,319	12,770	5,887
184,969	-13,582	12,927	5,903
185,983	-10,195	12,838	6,009
186,998	-9,805	12,769	5,993
188,013	-8,190	12,788	6,071
189,027	-9,472	12,707	5,977
190,042	-11,149	12,657	5,882
191,056	-15,127	12,879	5,811
192,071	-10,643	12,801	5,969
193,086	-13,745	12,869	5,866
194,100	-11,406	12,711	5,893
195,115	-10,367	12,670	5,918
196,129	-14,051	12,700	5,774
197,144	-13,344	12,639	5,776
198,159	-12,832	12,714	5,832
199,173	-14,468	12,763	5,783
200,188	-12,523	12,677	5,827
201,202	-13,447	12,643	5,771
202,217	-11,917	12,651	5,840
203,232	-8,576	12,610	5,962
204,246	-13,537	12,572	5,733
205,261	-14,897	12,540	5,661
206,275	-10,258	12,520	5,847
207,290	-10,901	12,579	5,847
208,304	-12,373	12,613	5,800
209,319	-10,071	12,527	5,857
210,334	-12,419	12,506	5,747
211,348	-14,621	12,589	5,692
212,363	-12,934	12,460	5,704
213,377	-13,657	12,556	5,717
214,392	-13,791	12,458	5,666
215,407	-9,425	12,537	5,886
216,421	-13,923	12,651	5,747
217,436	-10,646	12,534	5,832
218,450	-11,708	12,396	5,723
219,465	-12,357	12,398	5,696
220,480	-14,109	12,493	5,665
221,494	-15,945	12,469	5,577
222,509	-12,558	12,500	5,733
223,523	-13,272	12,365	5,641
224,538	-13,652	12,366	5,625
225,553	-14,675	12,435	5,612
226,567	-12,361	12,428	5,706
227,582	-9,573	12,303	5,764
228,596	-13,775	12,463	5,661
229,611	-12,693	12,430	5,692
230,626	-15,070	12,452	5,601
231,640	-9,749	12,262	5,735
232,655	-12,208	12,442	5,716
233,669	-13,021	12,285	5,609
234,684	-13,068	12,253	5,592
235,699	-13,697	12,506	5,681
236,713	-10,327	12,352	5,751
237,728	-9,906	12,333	5,759
238,742	-8,539	12,296	5,797
239,757	-11,812	12,391	5,705
240,772	-14,108	12,352	5,591
241,786	-15,925	12,268	5,478
242,801	-13,237	12,383	5,641
243,815	-10,958	12,270	5,683
244,830	-11,519	12,305	5,675
245,844	-11,844	12,162	5,595
246,859	-9,769	12,161	5,679
247,874	-13,843	12,247	5,551
248,888	-10,571	12,216	5,671
249,903	-12,281	12,329	5,652
250,917	-8,492	12,273	5,782
251,932	-11,751	12,216	5,621
252,947	-11,001	12,183	5,636
253,961	-11,331	12,135	5,600
254,976	-14,285	12,130	5,476
255,990	-13,311	12,157	5,528
257,005	-11,921	12,187	5,598
258,020	-11,589	12,203	5,619
259,034	-12,724	12,186	5,564
260,049	-14,222	12,177	5,498
261,063	-11,204	12,148	5,607
262,078	-10,220	12,085	5,618
263,093	-11,666	12,174	5,600
264,107	-14,010	12,143	5,489
265,122	-12,865	12,041	5,489
266,136	-10,919	12,128	5,607
267,151	-7,250	12,129	5,757
268,166	-10,465	12,146	5,633
269,180	-14,499	12,170	5,479
270,195	-12,406	12,043	5,506
271,209	-14,260	12,180	5,492
272,224	-13,825	12,043	5,448
273,239	-11,914	12,042	5,524
274,253	-9,426	11,965	5,588
275,268	-10,519	11,951	5,537
276,282	-8,215	11,919	5,614
277,297	-11,090	11,912	5,496
278,312	-12,737	12,035	5,485
279,326	-6,622	11,976	5,703
280,341	-11,646	11,985	5,505
281,355	-11,570	12,056	5,540
282,370	-11,290	11,867	5,464
283,384	-10,615	11,915	5,513
284,399	-12,274	11,979	5,475
285,414	-11,995	12,086	5,535
286,428	-12,165	12,052	5,512
287,443	-11,599	12,044	5,531
288,457	-9,232	11,877	5,548
289,472	-8,660	11,885	5,574
290,487	-10,449	11,878	5,499
291,501	-14,823	11,939	5,352
292,516	-13,161	11,889	5,395
293,530	-10,372	11,929	5,524
294,545	-11,890	11,889	5,445
295,560	-11,353	11,881	5,462
296,574	-11,656	11,893	5,455
297,589	-9,136	11,816	5,519
298,603	-11,778	11,875	5,440
299,618	-11,159	11,816	5,438
300,633	-11,442	11,836	5,435
301,647	-13,145	11,835	5,367
302,662	-13,175	11,763	5,332
303,676	-13,035	11,897	5,398
304,691	-13,590	11,969	5,408
305,706	-9,797	11,720	5,444
306,720	-11,794	11,815	5,409
307,735	-14,655	11,817	5,296
308,749	-11,516	11,807	5,415
309,764	-10,110	11,786	5,460
310,779	-12,516	11,798	5,371
311,793	-11,889	11,845	5,416
312,808	-15,707	11,737	5,216
313,822	-12,326	11,581	5,278
314,837	-12,712	11,725	5,328
315,852	-11,172	11,770	5,408
316,866	-9,568	11,702	5,439
317,881	-12,374	11,754	5,353
318,895	-10,324	11,794	5,451
319,910	-9,475	11,541	5,366
320,925	-11,156	11,595	5,326
321,939	-13,384	11,708	5,290
322,954	-9,564	11,634	5,405
323,968	-13,373	11,675	5,275
324,983	-8,932	11,694	5,457
325,997	-10,853	11,612	5,343
327,012	-10,141	11,575	5,353
328,027	-8,588	11,673	5,458
329,041	-9,914	11,616	5,380
330,056	-10,434	11,583	5,344
331,070	-6,148	11,576	5,506
332,085	-9,848	11,682	5,412
333,100	-17,226	11,624	5,098
334,114	-10,602	11,530	5,311
335,129	-9,329	11,480	5,337
336,143	-9,628	11,543	5,354
337,158	-9,683	11,564	5,361
338,173	-14,583	11,563	5,171
339,187	-13,258	11,542	5,212
340,202	-10,949	11,472	5,269
341,216	-10,552	11,576	5,331
342,231	-11,606	11,512	5,261
343,246	-10,566	11,433	5,264
344,260	-9,639	11,530	5,344
345,275	-9,874	11,467	5,305
346,289	-10,758	11,499	5,285
347,304	-9,431	11,376	5,279
348,319	-10,069	11,441	5,284
349,333	-13,519	11,416	5,141
350,348	-12,177	11,415	5,191
351,362	-7,771	11,403	5,352
352,377	-7,589	11,460	5,386
353,392	-10,361	11,429	5,265
354,406	-11,218	11,449	5,241
355,421	197,743	1305,702	1392,373
356,435	152,053	1463,851	1392,832
