DTS Sentinel unit serial number:	SN410029Multiplexer serial number:	ORYXHardware model number:	OX2-SRSoftware version number:	ORYX F/W v4,00 Oryx Data Collector v3.7.2.0data status	okinstallation	B5 Nyhavnadifferential loss correction	single-endedforward channel	channel 2reverse channel	N/Adate	2023/12/12time	18:57:13forward acquisition time	300,00reverse acquisition time	0,00gamma	499,1914k internal	0,3157k external	0,3157temperature offset calibration	1,0000default loss term (dB/km)	0,3820temperature slope calibration	1,0000multiplexer offset coefficient	1,0000multiplexer slope coefficient	1,0000fibre end	0,00T internal ref (°C)	15,55T ext. ref 1 (°C)	-1,09T ext. ref 2 (°C)	-1,41length (m)	temperature (°C)	Stokes	anti-Stokes-744,400	-9,468	-0,114	-0,056
-743,385	-102,913	-0,171	-0,030
-742,371	-98,622	0,123	0,023
-741,356	-42,251	-0,166	0,062
-740,342	225,936	0,011	0,013
-739,327	-165,140	-0,332	-0,011
-738,312	-200,000	-0,005	-0,029
-737,298	-98,725	-0,262	-0,049
-736,283	3,271	0,178	0,095
-735,269	-173,584	-0,377	0,008
-734,254	-200,000	0,124	0,000
-733,239	-87,413	-0,405	-0,090
-732,225	-200,000	0,032	-0,165
-731,210	800,000	0,034	-0,089
-730,196	-200,000	-0,027	-0,133
-729,181	-39,709	-0,032	0,012
-728,167	-200,000	-0,001	-0,043
-727,152	-121,377	0,075	-0,009
-726,137	53,188	-0,204	0,144
-725,123	214,762	0,114	-0,134
-724,108	-73,090	-0,159	-0,043
-723,094	240,540	-0,032	0,039
-722,079	-72,582	-0,076	-0,021
-721,064	-119,730	-0,069	-0,009
-720,050	800,000	0,066	-0,139
-719,035	-200,000	0,003	-0,042
-718,021	12,841	-0,007	-0,004
-717,006	800,000	0,068	-0,168
-715,991	505,011	-0,117	-0,201
-714,977	97,680	-0,057	0,049
-713,962	-200,000	-0,017	-0,080
-712,948	414,602	-0,032	-0,050
-711,933	109,855	0,109	-0,096
-710,918	800,000	-0,046	0,097
-709,904	543,068	-0,087	-0,153
-708,889	-53,287	-0,018	-0,006
-707,875	335,465	-0,026	0,037
-706,860	-127,132	0,062	-0,007
-705,845	-200,000	0,000	-0,031
-704,831	-72,941	0,118	0,032
-703,816	-52,095	0,049	0,017
-702,802	-200,000	-0,013	-0,103
-701,787	-35,608	-0,108	0,043
-700,772	-13,198	-0,076	0,036
-699,758	70,343	-0,070	0,053
-698,743	133,064	-0,019	-0,018
-697,729	428,770	0,049	-0,078
-696,714	800,000	0,030	0,071
-695,699	-156,923	-0,098	-0,004
-694,685	800,000	0,047	-0,136
-693,670	661,923	-0,025	0,047
-692,656	-46,283	-0,071	-0,025
-691,641	486,273	0,052	-0,087
-690,627	306,331	-0,004	0,005
-689,612	-46,341	0,035	0,013
-688,597	-200,000	-0,013	-0,126
-687,583	-180,416	-0,243	0,004
-686,568	153,652	0,082	0,082
-685,554	248,488	-0,030	0,037
-684,539	73,581	0,059	0,045
-683,524	283,938	0,030	-0,040
-682,510	-93,087	0,107	-0,022
-681,495	137,551	-0,052	0,050
-680,481	242,168	-0,026	0,032
-679,466	302,991	-0,055	-0,076
-678,451	-145,848	0,080	0,005
-677,437	13,106	-0,029	0,016
-676,422	113,640	0,117	0,104
-675,408	-59,449	0,024	-0,007
-674,393	-200,000	-0,006	-0,119
-673,378	485,992	-0,094	-0,159
-672,364	-155,349	-0,091	-0,004
-671,349	119,002	-0,068	0,062
-670,335	70,616	-0,063	-0,048
-669,320	-184,187	0,114	0,001
-668,305	-200,000	-0,021	0,117
-667,291	-200,000	-0,023	-0,112
-666,276	641,230	-0,088	-0,166
-665,262	151,778	-0,016	0,016
-664,247	239,848	-0,047	-0,058
-663,232	-200,000	-0,027	-0,145
-662,218	-200,000	0,016	-0,176
-661,203	-106,629	-0,156	0,025
-660,189	-80,397	-0,125	0,030
-659,174	283,275	-0,019	-0,025
-658,159	-58,284	-0,032	-0,010
-657,145	204,184	-0,052	-0,060
-656,130	406,191	-0,055	0,086
-655,116	162,253	-0,106	0,109
-654,101	337,344	0,019	0,027
-653,086	800,000	-0,059	-0,140
-652,072	24,072	-0,011	0,007
-651,057	-6,540	-0,062	-0,031
-650,043	-200,000	0,132	0,000
-649,028	-200,000	-0,022	0,112
-648,014	-68,550	0,078	-0,022
-646,999	329,692	-0,080	-0,113
-645,984	-109,645	-0,036	0,005
-644,970	-25,166	0,079	-0,034
-643,955	-57,327	0,072	-0,023
-642,941	-10,225	-0,049	0,024
-641,926	664,733	-0,047	0,090
-640,911	-82,746	0,082	0,019
-639,897	332,362	0,021	-0,030
-638,882	-69,237	-0,146	0,041
-637,868	139,188	-0,066	0,064
-636,853	-200,000	-0,003	-0,042
-635,838	-23,876	-0,081	-0,035
-634,824	251,738	-0,045	0,057
-633,809	192,279	-0,148	0,164
-632,795	111,183	0,182	0,161
-631,780	-141,439	-0,079	0,006
-630,765	338,240	-0,070	-0,100
-629,751	355,462	-0,044	0,064
-628,736	42,122	-0,137	0,091
-627,722	800,000	-0,031	0,083
-626,707	-49,412	0,089	-0,031
-625,692	800,000	0,028	0,059
-624,678	800,000	-0,037	-0,108
-623,663	800,000	-0,035	0,074
-622,649	453,501	-0,092	-0,150
-621,634	-105,694	-0,117	-0,019
-620,619	-168,910	-0,114	-0,003
-619,605	-40,758	0,070	0,027
-618,590	103,589	0,022	0,019
-617,576	-20,747	-0,057	-0,025
-616,561	53,715	0,077	-0,054
-615,546	194,732	-0,160	-0,179
-614,532	320,712	0,018	-0,026
-613,517	800,000	0,033	-0,080
-612,503	800,000	0,045	-0,103
-611,488	-200,000	-0,007	-0,164
-610,474	313,787	-0,036	0,050
-609,459	384,810	-0,040	-0,061
-608,444	499,462	-0,079	0,134
-607,430	-200,000	0,010	-0,114
-606,415	800,000	-0,034	-0,099
-605,401	-200,000	0,031	-0,118
-604,386	146,709	0,049	0,049
-603,371	56,636	-0,078	0,055
-602,357	313,563	0,059	-0,082
-601,342	1,895	-0,092	-0,049
-600,328	448,279	0,045	0,073
-599,313	-200,000	0,009	0,084
-598,298	-131,994	-0,124	-0,012
-597,284	33,296	0,155	0,098
-596,269	63,684	0,060	0,044
-595,255	60,696	-0,090	0,066
-594,240	-128,072	-0,111	-0,011
-593,225	-107,319	-0,112	-0,018
-592,211	249,507	-0,051	0,064
-591,196	-200,000	0,033	-0,178
-590,182	-200,000	0,004	0,056
-589,167	292,855	0,037	-0,049
-588,152	492,688	0,022	-0,037
-587,138	293,538	-0,129	0,173
-586,123	101,473	0,042	-0,036
-585,109	74,592	0,094	-0,072
-584,094	-65,814	-0,131	-0,038
-583,079	174,650	-0,138	-0,146
-582,065	196,621	-0,025	0,028
-581,050	-200,000	-0,007	-0,041
-580,036	309,072	-0,018	0,025
-579,021	-75,765	-0,061	0,016
-578,006	-200,000	0,004	-0,026
-576,992	360,932	-0,077	-0,113
-575,977	-44,013	-0,149	-0,055
-574,963	-200,000	0,002	-0,027
-573,948	-200,000	0,010	-0,108
-572,934	-46,277	0,082	0,029
-571,919	-10,577	-0,107	-0,052
-570,904	-200,000	0,010	-0,194
-569,890	93,945	0,132	0,110
-568,875	-157,977	0,119	0,005
-567,861	52,083	0,013	-0,009
-566,846	323,957	-0,054	0,076
-565,831	12,656	-0,083	-0,047
-564,817	-200,000	0,002	-0,036
-563,802	44,154	-0,083	-0,056
-562,788	-13,272	0,066	-0,031
-561,773	307,766	-0,035	-0,048
-560,758	-113,916	0,028	0,004
-559,744	737,957	-0,031	0,062
-558,729	-160,769	0,055	-0,002
-557,715	-81,898	-0,097	-0,023
-556,700	-77,265	-0,064	-0,016
-555,685	451,551	0,065	-0,106
-554,671	62,199	-0,080	0,059
-553,656	153,300	0,024	-0,024
-552,642	16,148	0,117	0,067
-551,627	294,607	0,041	0,055
-550,612	-132,837	-0,112	-0,010
-549,598	-36,350	0,094	-0,037
-548,583	220,074	-0,076	-0,089
-547,569	-200,000	0,013	0,077
-546,554	-200,000	0,004	0,076
-545,539	291,555	-0,062	-0,082
-544,525	-65,594	-0,140	0,041
-543,510	277,681	-0,033	-0,043
-542,496	800,000	-0,032	-0,076
-541,481	605,932	0,058	-0,107
-540,466	800,000	0,025	-0,069
-539,452	-104,769	0,154	0,026
-538,437	463,285	-0,028	0,046
-537,423	-103,786	-0,084	0,014
-536,408	-94,413	0,076	-0,015
-535,393	800,000	-0,076	0,175
-534,379	402,059	-0,056	-0,086
-533,364	-200,000	-0,004	-0,123
-532,350	102,557	0,120	0,102
-531,335	-15,574	-0,011	-0,005
-530,321	800,000	-0,041	0,093
-529,306	-59,533	-0,042	-0,013
-528,291	-200,000	0,008	0,049
-527,277	-146,675	-0,096	0,006
-526,262	-129,017	-0,081	0,008
-525,248	-200,000	-0,003	-0,156
-524,233	-200,000	-0,014	0,120
-523,218	289,690	-0,102	0,135
-522,204	15,511	0,089	0,051
-521,189	-200,000	0,009	-0,087
-520,175	-200,000	-0,000	-0,039
-519,160	45,880	0,037	-0,025
-518,145	30,393	0,070	-0,044
-517,131	-200,000	0,011	0,135
-516,116	79,584	-0,105	0,082
-515,102	492,769	0,002	-0,004
-514,087	354,344	-0,027	-0,039
-513,072	800,000	0,027	0,080
-512,058	-134,845	-0,155	-0,014
-511,043	77,060	-0,100	0,078
-510,029	800,000	-0,031	0,072
-509,014	123,013	0,031	-0,028
-507,999	-44,356	0,030	-0,011
-506,985	-110,615	-0,153	0,023
-505,970	-200,000	0,004	0,015
-504,956	-200,000	-0,015	-0,069
-503,941	46,481	-0,135	0,091
-502,926	-166,136	0,073	0,002
-501,912	65,450	0,137	0,101
-500,897	8,804	-0,046	0,025
-499,883	128,456	0,080	0,074
-498,868	-54,082	-0,094	-0,031
-497,853	193,682	-0,093	-0,103
-496,839	-50,296	-0,137	-0,047
-495,824	654,098	0,071	0,134
-494,810	-200,000	0,006	0,033
-493,795	65,318	-0,053	0,039
-492,781	-200,000	-0,011	0,148
-491,766	800,000	0,076	-0,159
-490,751	-200,000	0,000	0,077
-489,737	-62,033	0,127	-0,038
-488,722	-200,000	0,012	0,060
-487,708	-200,000	0,019	0,204
-486,693	56,463	-0,054	-0,039
-485,678	-200,000	0,007	-0,070
-484,664	-200,000	0,011	-0,047
-483,649	292,046	0,055	0,073
-482,635	800,000	0,043	-0,097
-481,620	441,606	-0,021	0,034
-480,605	-141,091	0,062	-0,005
-479,591	800,000	-0,039	0,093
-478,576	-90,027	0,108	0,023
-477,562	-2,023	-0,105	-0,054
-476,547	800,000	-0,022	-0,048
-475,532	160,157	-0,026	-0,026
-474,518	-200,000	0,023	0,124
-473,503	800,000	-0,009	0,024
-472,489	366,912	0,079	0,116
-471,474	764,552	-0,021	0,041
-470,459	-82,720	0,125	-0,029
-469,445	-28,635	-0,081	0,034
-468,430	365,530	-0,067	-0,098
-467,416	-200,000	-0,002	-0,072
-466,401	-169,321	0,121	-0,003
-465,386	-161,890	0,103	-0,004
-464,372	251,373	0,048	-0,060
-463,357	-200,000	0,010	0,061
-462,343	161,847	-0,103	-0,106
-461,328	290,369	0,034	0,045
-460,313	-200,000	-0,012	0,168
-459,299	-200,000	0,021	0,118
-458,284	47,926	-0,021	-0,014
-457,270	-200,000	0,029	0,176
-456,255	-200,000	0,012	0,077
-455,241	-200,000	-0,006	-0,182
-454,226	-200,000	-0,008	-0,066
-453,211	-105,899	0,141	0,023
-452,197	-104,195	0,094	0,016
-451,182	-200,000	-0,019	0,066
-450,168	54,945	-0,037	-0,026
-449,153	-80,327	0,073	-0,018
-448,138	506,818	-0,088	-0,149
-447,124	208,372	0,045	-0,052
-446,109	-200,000	0,015	-0,094
-445,095	150,517	0,085	0,084
-444,080	-77,213	-0,132	0,033
-443,065	-41,023	0,097	0,036
-442,051	-200,000	-0,029	-0,114
-441,036	23,882	-0,017	0,010
-440,022	800,000	0,023	0,070
-439,007	800,000	0,008	-0,018
-437,992	16,423	0,059	0,034
-436,978	-92,114	0,160	0,033
-435,963	109,030	0,066	0,057
-434,949	-69,333	-0,051	-0,014
-433,934	800,000	0,014	0,041
-432,919	-178,793	0,137	0,002
-431,905	800,000	0,022	-0,051
-430,890	-176,716	0,051	0,001
-429,876	-35,307	0,022	0,009
-428,861	800,000	0,063	0,135
-427,846	-200,000	0,030	0,145
-426,832	188,508	-0,074	0,081
-425,817	351,199	0,008	-0,011
-424,803	-35,654	0,028	0,011
-423,788	-143,711	0,091	0,006
-422,773	139,523	0,147	0,141
-421,759	323,182	-0,005	-0,007
-420,744	-94,516	-0,063	-0,012
-419,730	248,759	0,094	-0,116
-418,715	368,741	-0,046	-0,068
-417,701	-24,413	-0,103	0,044
-416,686	-30,268	-0,006	-0,002
-415,671	154,735	0,056	-0,057
-414,657	800,000	0,025	0,069
-413,642	255,479	-0,052	0,065
-412,628	48,157	-0,124	-0,084
-411,613	-200,000	-0,010	0,109
-410,598	-110,346	0,161	-0,024
-409,584	353,427	-0,030	0,043
-408,569	-23,751	0,044	-0,019
-407,555	155,242	0,086	0,086
-406,540	-200,000	0,002	0,040
-405,525	-128,136	-0,109	-0,011
-404,511	-200,000	0,003	0,055
-403,496	-25,322	0,052	0,022
-402,482	800,000	-0,021	-0,046
-401,467	27,321	0,027	-0,016
-400,452	-93,308	0,039	-0,008
-399,438	85,375	-0,097	-0,077
-398,423	127,959	0,043	0,039
-397,409	-92,821	-0,140	0,028
-396,394	265,027	0,040	-0,050
-395,379	-95,420	0,132	0,026
-394,365	160,796	-0,054	-0,055
-393,350	44,578	0,134	0,089
-392,336	300,501	-0,003	-0,004
-391,321	-15,862	-0,028	-0,013
-390,306	-200,000	0,009	0,120
-389,292	-150,807	-0,134	-0,007
-388,277	-164,863	-0,022	0,001
-387,263	54,472	-0,015	0,010
-386,248	387,942	0,008	0,012
-385,233	-200,000	0,031	0,143
-384,219	86,669	-0,022	-0,017
-383,204	-194,328	-0,068	0,000
-382,190	138,352	-0,165	-0,157
-381,175	800,000	-0,035	-0,110
-380,160	17,215	-0,125	0,072
-379,146	-139,524	0,104	-0,008
-378,131	-200,000	0,001	0,020
-377,117	618,225	0,121	0,221
-376,102	-91,469	-0,103	-0,021
-375,088	-65,878	0,022	0,006
-374,073	800,000	0,027	0,067
-373,058	242,457	0,087	0,106
-372,044	226,155	0,072	0,085
-371,029	220,328	0,136	0,159
-370,015	-76,538	0,156	0,039
-369,000	547,226	0,058	-0,102
-367,985	285,185	0,045	-0,059
-366,971	207,569	-0,067	-0,076
-365,956	-97,403	-0,081	0,015
-364,942	-24,614	0,098	0,042
-363,927	-159,820	-0,142	0,006
-362,912	800,000	0,007	0,018
-361,898	210,115	-0,042	-0,048
-360,883	43,245	-0,163	-0,108
-359,869	-200,000	-0,001	0,069
-358,854	-116,517	0,092	0,012
-357,839	-200,000	-0,004	-0,115
-356,825	-200,000	0,014	-0,060
-355,810	-200,000	-0,013	0,069
-354,796	420,312	-0,054	0,085
-353,781	-200,000	0,012	-0,155
-352,766	800,000	0,055	0,115
-351,752	440,081	0,042	0,067
-350,737	-107,177	0,088	0,014
-349,723	-38,539	0,050	0,019
-348,708	-127,209	0,051	0,005
-347,693	25,370	-0,073	0,044
-346,679	-10,987	-0,066	-0,031
-345,664	-200,000	-0,002	-0,035
-344,650	800,000	-0,022	0,051
-343,635	54,995	0,088	-0,062
-342,620	145,745	-0,056	-0,055
-341,606	37,421	-0,029	-0,019
-340,591	-200,000	0,031	-0,118
-339,577	-39,026	-0,059	0,022
-338,562	-116,736	-0,146	-0,019
-337,548	142,394	0,070	0,068
-336,533	-200,000	-0,007	0,063
-335,518	65,904	-0,066	-0,049
-334,504	-200,000	0,003	-0,099
-333,489	-200,000	0,026	0,130
-332,475	-42,683	0,032	0,012
-331,460	157,186	-0,035	0,036
-330,445	153,315	0,040	0,040
-329,431	-97,807	0,126	0,023
-328,416	800,000	0,050	0,128
-327,402	800,000	-0,042	0,112
-326,387	366,670	0,036	0,053
-325,372	800,000	-0,051	-0,105
-324,358	-200,000	0,014	-0,151
-323,343	252,298	-0,062	-0,076
-322,329	-88,304	0,067	-0,015
-321,314	-136,046	0,145	0,012
-320,299	204,096	-0,010	0,011
-319,285	559,523	-0,029	-0,051
-318,270	-118,148	-0,123	-0,016
-317,256	-44,903	-0,093	-0,033
-316,241	-123,508	-0,033	-0,004
-315,226	7,876	0,107	-0,058
-314,212	800,000	0,038	0,083
-313,197	622,364	-0,019	0,035
-312,183	-117,586	0,042	-0,005
-311,168	-200,000	-0,004	0,047
-310,153	-200,000	-0,008	0,035
-309,139	55,777	0,065	-0,046
-308,124	-200,000	-0,010	-0,049
-307,110	800,000	-0,050	0,112
-306,095	-126,523	-0,041	-0,004
-305,080	800,000	0,031	0,073
-304,066	800,000	-0,031	0,090
-303,051	-104,357	-0,035	0,006
-302,037	-33,711	0,047	-0,019
-301,022	-91,340	0,201	0,041
-300,008	800,000	0,044	0,089
-298,993	227,265	0,016	0,019
-297,978	32,504	-0,114	0,072
-296,964	-86,986	0,056	0,012
-295,949	13,540	0,071	0,040
-294,935	-94,996	-0,063	-0,012
-293,920	-200,000	-0,023	-0,158
-292,905	49,066	0,024	-0,016
-291,891	175,544	0,018	0,019
-290,876	506,760	0,050	-0,084
-289,862	-111,157	-0,086	-0,013
-288,847	-200,000	-0,005	-0,077
-287,832	721,469	0,021	0,040
-286,818	-200,000	-0,007	0,089
-285,803	-200,000	-0,025	0,097
-284,789	344,756	0,068	-0,096
-283,774	665,193	0,035	-0,066
-282,759	800,000	0,025	0,055
-281,745	800,000	0,040	-0,092
-280,730	113,891	0,062	0,054
-279,716	-44,726	-0,072	-0,026
-278,701	-197,771	0,087	-0,000
-277,686	800,000	-0,007	0,016
-276,672	-200,000	-0,007	0,031
-275,657	539,678	-0,044	0,077
-274,643	358,886	0,059	-0,085
-273,628	85,815	-0,074	-0,059
-272,613	214,891	0,083	-0,096
-271,599	-68,780	0,116	-0,032
-270,584	-200,000	0,019	0,182
-269,570	-71,894	0,088	0,024
-268,555	48,175	0,040	-0,027
-267,540	343,620	-0,070	-0,100
-266,526	-142,329	-0,098	0,007
-265,511	151,036	-0,064	-0,063
-264,497	301,762	0,054	-0,072
-263,482	800,000	-0,016	-0,033
-262,467	-200,000	-0,024	-0,117
-261,453	-200,000	0,002	0,021
-260,438	-200,000	-0,018	-0,059
-259,424	-200,000	-0,027	-0,131
-258,409	-200,000	0,039	-0,178
-257,395	-164,162	0,104	0,003
-256,380	-200,000	0,035	0,147
-255,365	27,181	0,051	-0,031
-254,351	-90,928	0,060	0,012
-253,336	38,129	0,125	0,081
-252,322	-18,184	-0,152	0,068
-251,307	112,717	0,074	0,065
-250,292	-17,029	0,166	-0,076
-249,278	-144,963	0,059	-0,004
-248,263	164,114	0,064	0,065
-247,249	163,096	-0,059	-0,060
-246,234	-35,452	0,066	-0,026
-245,219	-200,000	0,033	-0,131
-244,205	-153,222	-0,038	0,002
-243,190	98,115	0,116	-0,097
-242,176	311,918	0,014	-0,019
-241,161	-82,681	0,017	-0,004
-240,146	66,481	-0,058	0,043
-239,132	800,000	-0,041	0,085
-238,117	-141,843	0,040	-0,003
-237,103	62,834	-0,053	-0,038
-236,088	-43,835	0,052	-0,019
-235,073	-9,898	0,095	0,046
-234,059	-200,000	-0,033	-0,141
-233,044	-113,108	0,171	-0,024
-232,030	800,000	0,019	-0,057
-231,015	-200,000	-0,000	-0,050
-230,000	-200,000	-0,011	-0,040
-228,986	-97,195	0,088	0,016
-227,971	-146,209	0,042	-0,003
-226,957	475,434	-0,057	-0,094
-225,942	-200,000	0,006	-0,021
-224,927	-200,000	-0,004	-0,118
-223,913	183,199	-0,075	-0,080
-222,898	193,854	-0,052	-0,057
-221,884	800,000	0,006	-0,013
-220,869	-200,000	0,013	-0,047
-219,855	800,000	-0,021	0,056
-218,840	436,014	-0,050	0,079
-217,825	-44,743	-0,136	-0,049
-216,811	800,000	0,014	-0,028
-215,796	-200,000	0,004	-0,033
-214,782	-200,000	0,016	0,093
-213,767	-54,096	-0,068	-0,022
-212,752	50,694	0,047	0,032
-211,738	-51,613	-0,090	-0,030
-210,723	-200,000	0,007	-0,256
-209,709	301,080	-0,080	-0,107
-208,694	15,456	0,048	0,027
-207,679	-69,638	-0,040	-0,011
-206,665	162,047	0,075	0,076
-205,650	8,630	-0,032	0,017
-204,636	800,000	0,053	-0,159
-203,621	83,213	-0,098	-0,077
-202,606	-200,000	0,001	-0,025
-201,592	-200,000	-0,002	0,036
-200,577	-50,147	-0,094	-0,032
-199,563	193,559	0,083	-0,091
-198,548	722,749	-0,039	0,075
-197,533	36,577	0,068	0,043
-196,519	233,021	0,044	-0,053
-195,504	-200,000	-0,019	-0,082
-194,490	122,835	-0,078	-0,070
-193,475	2,453	0,059	-0,031
-192,460	58,610	0,029	0,020
-191,446	800,000	0,016	-0,033
-190,431	-200,000	0,010	0,049
-189,417	2,039	-0,109	0,056
-188,402	43,969	-0,105	-0,069
-187,387	224,887	0,061	-0,071
-186,373	-200,000	-0,030	0,177
-185,358	183,251	-0,049	-0,052
-184,344	189,952	-0,056	0,060
-183,329	196,641	0,096	0,106
-182,315	-200,000	-0,013	0,142
-181,300	-139,566	-0,048	0,004
-180,285	243,761	-0,065	0,078
-179,271	27,001	-0,104	-0,063
-178,256	191,978	0,065	0,071
-177,242	-200,000	0,024	-0,093
-176,227	-80,107	0,150	-0,036
-175,212	-200,000	-0,007	0,162
-174,198	438,340	-0,036	0,057
-173,183	800,000	-0,014	-0,042
-172,169	-106,162	-0,021	-0,003
-171,154	-73,185	-0,061	-0,016
-170,139	-142,703	0,048	0,003
-169,125	-22,242	0,034	0,015
-168,110	-200,000	-0,006	0,079
-167,096	228,583	0,096	0,113
-166,081	701,964	-0,022	-0,042
-165,066	-6,572	-0,015	0,007
-164,052	-110,278	0,077	-0,011
-163,037	-105,752	0,014	-0,002
-162,023	332,301	0,024	-0,033
-161,008	-126,828	0,049	0,005
-159,993	709,547	0,031	-0,059
-158,979	28,376	-0,176	-0,107
-157,964	-15,906	-0,027	-0,012
-156,950	-99,142	-0,028	-0,005
-155,935	-200,000	-0,006	0,047
-154,920	-107,403	0,049	-0,008
-153,906	-200,000	-0,004	0,052
-152,891	-23,738	0,124	-0,053
-151,877	800,000	-0,013	-0,040
-150,862	220,383	-0,055	-0,063
-149,847	800,000	0,026	-0,061
-148,833	25,396	0,064	0,038
-147,818	-73,829	0,121	-0,032
-146,804	800,000	0,026	0,075
-145,789	17,372	-0,105	0,060
-144,775	22,137	-0,111	-0,065
-143,760	122,334	-0,045	-0,041
-142,745	-26,523	0,120	0,050
-141,731	483,971	-0,087	-0,143
-140,716	800,000	0,009	-0,018
-139,702	-128,609	0,044	-0,004
-138,687	-200,000	0,007	-0,042
-137,672	-69,999	0,028	-0,007
-136,658	344,940	-0,020	-0,028
-135,643	800,000	0,016	-0,036
-134,629	-200,000	-0,009	-0,040
-133,614	304,030	0,071	-0,095
-132,599	-157,018	0,149	-0,006
-131,585	-200,000	-0,018	0,088
-130,570	-200,000	0,008	0,100
-129,556	328,730	-0,071	-0,099
-128,541	276,602	-0,093	0,119
-127,526	-200,000	-0,001	0,049
-126,512	548,085	0,080	-0,138
-125,497	-200,000	-0,030	0,115
-124,483	-164,334	-0,042	0,001
-123,468	-200,000	0,019	0,119
-122,453	317,593	0,021	-0,029
-121,439	-141,384	-0,029	-0,002
-120,424	584,012	0,011	-0,020
-119,410	-109,860	0,047	-0,007
-118,395	50,869	-0,029	0,020
-117,380	720,126	-0,075	-0,144
-116,366	-32,270	0,081	0,032
-115,351	-200,000	-0,000	0,015
-114,337	-113,364	-0,093	-0,013
-113,322	118,711	0,045	0,040
-112,307	-41,509	0,046	0,017
-111,293	-67,271	-0,096	-0,027
-110,278	119,205	0,070	0,062
-109,264	204,970	-0,059	0,066
-108,249	544,964	-0,044	0,075
-107,234	800,000	-0,016	-0,038
-106,220	-200,000	-0,023	-0,090
-105,205	-127,007	-0,227	-0,024
-104,191	455,527	0,095	0,152
-103,176	-200,000	-0,008	0,198
-102,162	-148,720	0,025	-0,001
-101,147	-200,000	-0,009	0,049
-100,132	8,444	0,148	-0,080
-99,118	-139,351	-0,159	-0,012
-98,103	-162,291	0,060	-0,002
-97,089	-139,224	-0,054	-0,004
-96,074	507,152	0,088	0,147
-95,059	-200,000	-0,024	-0,078
-94,045	668,578	-0,069	0,130
-93,030	-149,875	-0,040	-0,002
-92,016	156,435	0,054	-0,054
-91,001	57,073	-0,077	-0,054
-89,986	-200,000	0,001	0,016
-88,972	-57,550	0,122	-0,038
-87,957	-61,977	0,016	0,005
-86,943	39,542	-0,190	-0,122
-85,928	800,000	-0,010	0,024
-84,913	451,994	0,060	0,096
-83,899	-200,000	-0,021	-0,078
-82,884	-150,447	0,083	0,004
-81,870	-181,996	0,110	0,001
-80,855	90,481	-0,023	0,018
-79,840	-200,000	-0,005	-0,018
-78,826	1,297	-0,003	-0,001
-77,811	-200,000	-0,007	-0,026
-76,797	-149,537	-0,059	-0,003
-75,782	283,041	0,019	-0,025
-74,767	-142,151	0,113	0,008
-73,753	-134,054	-0,028	-0,002
-72,738	455,975	-0,046	-0,073
-71,724	636,263	0,048	0,087
-70,709	-200,000	-0,005	-0,053
-69,694	-71,811	0,048	-0,013
-68,680	-200,000	0,011	0,062
-67,665	-200,000	-0,045	0,144
-66,651	-200,000	0,014	0,082
-65,636	127,621	-0,034	-0,031
-64,622	-200,000	-0,013	0,048
-63,607	-200,000	-0,012	-0,096
-62,592	-65,918	-0,033	-0,009
-61,578	-200,000	0,016	-0,088
-60,563	-84,480	0,054	-0,012
-59,549	-200,000	0,001	0,038
-58,534	-2,357	-1,939	-0,973
-57,519	-200,000	-0,286	-0,942
-56,505	-200,000	-1,123	-4,869
-55,490	170,670	0,662	0,681
-54,476	800,000	5,260	12,181
-53,461	-200,000	17,453	284,000
-52,446	800,000	725,879	2219,752
-51,432	537,873	1641,494	2811,164
-50,417	110,355	1632,397	1407,553
-49,403	74,922	1285,872	971,122
-48,388	32,153	1027,792	634,909
-47,373	20,124	989,685	571,688
-46,359	18,569	977,729	559,659
-45,344	15,908	973,573	548,549
-44,330	16,069	972,200	548,281
-43,315	15,576	970,585	545,737
-42,300	15,580	969,315	545,013
-41,286	15,576	968,216	544,362
-40,271	15,486	967,351	543,560
-39,257	15,582	966,331	543,276
-38,242	15,622	965,420	542,874
-37,227	15,595	964,666	542,341
-36,213	15,602	963,762	541,834
-35,198	15,546	962,963	541,182
-34,184	15,627	962,232	541,011
-33,169	15,563	961,391	540,310
-32,154	15,613	960,310	539,843
-31,140	15,621	959,467	539,372
-30,125	15,571	958,752	538,790
-29,111	15,605	957,818	538,350
-28,096	15,540	957,467	537,924
-27,082	15,581	956,567	537,530
-26,067	15,620	955,795	537,200
-25,052	15,579	955,298	536,766
-24,038	15,557	954,345	536,138
-23,023	15,551	953,675	535,722
-22,009	15,585	953,166	535,525
-20,994	15,634	952,358	535,207
-19,979	15,633	951,923	534,936
-18,965	15,608	951,153	534,404
-17,950	15,579	950,697	534,034
-16,936	15,507	950,200	533,504
-15,921	15,531	949,353	533,081
-14,906	15,475	948,593	532,456
-13,892	15,461	948,000	532,057
-12,877	15,452	947,521	531,737
-11,863	15,398	946,802	531,141
-10,848	15,483	946,301	531,109
-9,833	15,561	945,768	531,039
-8,819	15,572	945,062	530,656
-7,804	15,479	944,463	530,002
-6,790	15,493	943,803	529,656
-5,775	15,526	943,139	529,366
-4,760	15,464	942,604	528,850
-3,746	15,536	941,992	528,711
-2,731	15,306	941,408	527,635
-1,717	15,331	940,671	527,282
-0,702	15,331	940,006	526,888
0,313	15,095	939,502	526,655
1,327	18,271	937,255	535,358
2,342	26,948	794,847	477,023
3,356	23,727	459,067	270,556
4,371	-3,291	314,293	156,519
5,386	-7,382	296,011	143,262
6,400	-9,519	290,095	138,265
7,415	-9,935	287,682	136,694
8,429	-9,965	286,178	135,937
9,444	-9,959	285,235	135,483
10,459	-9,816	284,500	135,261
11,473	-9,951	284,044	134,901
12,488	-9,793	283,560	134,813
13,502	-9,864	282,858	134,398
14,517	-9,894	282,592	134,231
15,531	-9,884	282,196	134,040
16,546	-9,942	281,985	133,872
17,561	-9,917	281,279	133,550
18,575	-9,809	280,986	133,502
19,590	-9,935	280,606	133,189
20,604	-9,873	280,561	133,215
21,619	-9,768	279,912	132,995
22,634	-9,713	279,571	132,874
23,648	-9,989	279,528	132,578
24,663	-9,859	279,206	132,537
25,677	-9,924	278,806	132,274
26,692	-9,812	278,583	132,263
27,707	-9,812	278,331	132,131
28,721	-9,873	278,103	131,953
29,736	-9,783	277,787	131,877
30,750	-9,983	277,660	131,616
31,765	-9,801	277,226	131,570
32,780	-9,984	277,139	131,344
33,794	-9,797	276,733	131,316
34,809	-9,996	276,579	131,044
35,823	-9,935	276,317	130,966
36,838	-9,917	275,965	130,804
37,853	-9,958	275,764	130,659
38,867	-9,890	275,604	130,636
39,882	-9,902	275,371	130,501
40,896	-9,814	275,046	130,419
41,911	-9,925	274,852	130,211
42,926	-9,928	274,597	130,076
43,940	-9,934	274,333	129,933
44,955	-9,914	274,154	129,856
45,969	-10,056	273,832	129,558
46,984	-10,160	273,646	129,362
47,999	-10,231	273,330	129,136
49,013	-10,286	273,132	128,979
50,028	-10,406	272,747	128,674
51,042	-10,650	272,584	128,358
52,057	-10,600	272,306	128,262
53,071	-10,562	272,078	128,179
54,086	-10,408	271,847	128,202
55,101	-10,231	271,651	128,262
56,115	-10,283	271,621	128,188
57,130	-9,865	271,554	128,532
58,144	-9,790	271,184	128,415
59,159	-9,784	271,069	128,354
60,174	-9,836	270,820	128,177
61,188	-9,900	270,595	128,000
62,203	-9,819	270,444	127,992
63,217	-9,790	270,064	127,828
64,232	-9,705	269,676	127,710
65,247	-9,808	269,611	127,573
66,261	-9,746	269,343	127,492
67,276	-10,006	269,284	127,215
68,290	-10,206	269,021	126,896
69,305	-10,147	268,694	126,784
70,320	-10,080	268,599	126,789
71,334	-9,838	268,340	126,877
72,349	-9,745	268,075	126,825
73,363	-9,626	267,905	126,842
74,378	-9,946	267,768	126,474
75,393	-9,578	267,405	126,626
76,407	-9,782	267,216	126,340
77,422	-9,760	267,019	126,256
78,436	-9,919	266,879	126,034
79,451	-9,908	266,751	125,972
80,466	-9,820	266,356	125,854
81,480	-9,894	266,125	125,667
82,495	-9,965	266,019	125,541
83,509	-9,957	265,809	125,437
84,524	-10,089	265,538	125,180
85,539	-10,217	265,429	125,002
86,553	-10,121	265,088	124,916
87,568	-10,072	264,890	124,856
88,582	-9,945	264,664	124,853
89,597	-10,020	264,596	124,742
90,611	-9,679	264,313	124,904
91,626	-9,849	264,268	124,719
92,641	-9,873	263,960	124,540
93,655	-9,904	263,770	124,412
94,670	-9,900	263,589	124,320
95,684	-9,881	263,340	124,208
96,699	-9,730	263,101	124,219
97,714	-10,002	263,033	123,933
98,728	-10,058	262,665	123,698
99,743	-10,113	262,292	123,463
100,757	-10,140	262,333	123,447
101,772	-10,194	262,209	123,330
102,787	-9,972	261,963	123,400
103,801	-9,902	261,861	123,403
104,816	-9,969	261,624	123,221
105,830	-9,844	261,462	123,245
106,845	-9,867	261,130	123,057
107,860	-9,977	261,059	122,914
108,874	-9,824	260,837	122,935
109,889	-9,877	260,614	122,772
110,903	-9,970	260,499	122,625
111,918	-9,765	260,192	122,650
112,933	-9,817	260,161	122,579
113,947	-9,786	259,793	122,421
114,962	-9,841	259,741	122,338
115,976	-9,942	259,511	122,130
116,991	-9,774	259,197	122,119
118,006	-9,896	259,067	121,940
119,020	-9,944	259,107	121,905
120,035	-9,983	258,754	121,694
121,049	-9,809	258,524	121,727
122,064	-9,788	258,302	121,630
123,079	-9,939	258,369	121,519
124,093	-9,845	258,066	121,447
125,108	-10,044	257,661	121,073
126,122	-10,004	257,446	120,996
127,137	-10,276	257,108	120,589
128,151	-10,217	257,235	120,689
129,166	-10,158	257,073	120,654
130,181	-10,049	256,701	120,564
131,195	-10,062	256,566	120,478
132,210	-9,903	256,337	120,498
133,224	-9,714	256,238	120,604
134,239	-9,784	256,065	120,451
135,254	-10,014	255,897	120,163
136,268	-9,879	255,568	120,114
137,283	-10,184	255,499	119,807
138,297	-10,158	255,028	119,598
139,312	-10,279	254,892	119,419
140,327	-9,997	254,891	119,652
141,341	-9,667	254,782	119,874
142,356	-9,873	254,552	119,578
143,370	-9,807	254,458	119,580
144,385	-9,781	254,351	119,541
145,400	-9,547	253,993	119,563
146,414	-9,641	253,971	119,462
147,429	-9,715	253,761	119,289
148,443	-9,759	253,577	119,153
149,458	-9,572	253,391	119,215
150,473	-9,597	253,140	119,066
151,487	-9,915	252,977	118,707
152,502	-9,741	252,766	118,746
153,516	-9,657	252,738	118,794
154,531	-9,524	252,284	118,683
155,546	-9,566	252,152	118,575
156,560	-9,871	252,006	118,235
157,575	-9,782	251,755	118,183
158,589	-9,700	251,596	118,167
159,604	-9,766	251,526	118,068
160,619	-9,838	251,499	117,984
161,633	-9,758	251,180	117,891
162,648	-9,590	250,910	117,897
163,662	-9,889	250,918	117,637
164,677	-9,702	250,644	117,655
165,692	-9,569	250,474	117,677
166,706	-9,725	250,410	117,506
167,721	-9,662	250,065	117,387
168,735	-9,552	249,868	117,376
169,750	-9,592	249,844	117,320
170,764	-9,511	249,670	117,297
171,779	-9,593	249,604	117,186
172,794	-9,578	249,255	117,024
173,808	-9,724	249,285	116,906
174,823	-10,042	248,875	116,436
175,837	-10,209	248,644	116,177
176,852	-10,008	248,634	116,330
177,867	-9,435	248,511	116,743
178,881	-9,374	248,288	116,679
179,896	-9,507	248,294	116,560
180,910	-9,555	247,914	116,331
181,925	-9,728	248,039	116,235
182,940	-9,610	247,757	116,191
183,954	-9,571	247,410	116,050
184,969	-9,615	247,430	116,013
185,983	-9,687	247,170	115,820
186,998	-9,588	246,921	115,775
188,013	-9,591	246,833	115,721
189,027	-9,590	246,554	115,581
190,042	-9,690	246,522	115,473
191,056	-9,680	246,212	115,326
192,071	-9,680	246,151	115,287
193,086	-9,700	246,064	115,219
194,100	-9,814	245,756	114,970
195,115	-9,478	245,583	115,157
196,129	-9,632	245,434	114,950
197,144	-9,639	245,082	114,769
198,159	-9,856	244,947	114,516
199,173	-9,674	244,704	114,543
200,188	-9,745	244,621	114,435
201,202	-9,894	244,320	114,161
202,217	-10,228	244,146	113,796
203,232	-10,113	243,880	113,756
204,246	-9,771	243,899	114,035
205,261	-9,382	243,755	114,276
206,275	-10,621	243,323	113,050
207,290	-7,413	244,419	116,186
208,304	0,148	247,018	123,673
209,319	4,123	248,119	127,509
210,334	4,443	248,008	127,705
211,348	4,650	247,928	127,824
212,363	4,651	247,866	127,781
213,377	5,011	247,655	127,958
214,392	4,886	247,541	127,785
215,407	4,706	247,413	127,560
216,421	4,742	246,997	127,363
217,436	4,835	247,196	127,531
218,450	4,985	247,038	127,561
219,465	4,733	246,660	127,148
220,480	4,437	246,539	126,831
221,494	4,318	246,305	126,601
222,509	4,282	246,220	126,517
223,523	4,338	246,019	126,449
224,538	4,104	245,699	126,081
225,553	4,406	245,479	126,204
226,567	4,310	245,294	126,019
227,582	4,351	245,252	126,020
228,596	4,202	245,084	125,800
229,611	4,148	244,790	125,595
230,626	3,878	244,770	125,353
231,640	4,229	244,543	125,511
232,655	4,150	244,383	125,354
233,669	4,083	244,191	125,189
234,684	4,200	244,013	125,182
235,699	4,376	244,014	125,314
236,713	4,487	243,938	125,355
237,728	4,183	243,565	124,906
238,742	4,025	243,511	124,738
239,757	3,935	243,257	124,524
240,772	4,034	243,117	124,521
241,786	4,116	243,028	124,531
242,801	3,856	242,858	124,223
243,815	4,203	242,672	124,397
244,830	4,339	242,676	124,497
245,844	4,159	242,546	124,275
246,859	4,220	242,237	124,154
247,874	4,278	241,948	124,042
248,888	4,300	241,829	123,988
249,903	4,200	241,785	123,873
250,917	4,361	241,755	123,976
251,932	4,293	241,501	123,780
252,947	4,384	241,462	123,822
253,961	4,330	241,067	123,565
254,976	4,334	241,035	123,541
255,990	4,323	240,932	123,469
257,005	4,295	240,554	123,241
258,020	4,181	240,413	123,067
259,034	4,160	240,270	122,966
260,049	4,203	240,193	122,950
261,063	4,232	239,960	122,843
262,078	3,961	239,851	122,561
263,093	4,255	239,675	122,693
264,107	4,539	239,680	122,911
265,122	4,249	239,391	122,521
266,136	4,226	239,234	122,413
267,151	4,677	239,147	122,715
268,166	4,285	238,878	122,255
269,180	4,003	238,867	122,015
270,195	4,701	238,822	122,534
271,209	4,984	238,656	122,662
272,224	4,514	238,293	122,093
273,239	3,882	238,177	121,524
274,253	3,689	238,072	121,306
275,268	4,267	237,907	121,668
276,282	4,322	237,682	121,585
277,297	3,843	237,560	121,135
278,312	4,053	237,458	121,237
279,326	4,231	237,321	121,296
280,341	4,245	237,148	121,208
281,355	4,157	237,053	121,080
282,370	4,294	236,927	121,112
283,384	4,295	236,656	120,963
284,399	4,031	236,591	120,712
285,414	3,912	236,310	120,465
286,428	4,000	236,175	120,454
287,443	4,085	236,054	120,449
288,457	4,300	235,993	120,575
289,472	4,448	235,808	120,585
290,487	4,110	235,692	120,251
291,501	4,245	235,435	120,214
292,516	3,881	235,267	119,835
293,530	3,846	235,091	119,707
294,545	4,172	235,122	119,965
295,560	4,254	234,883	119,897
296,574	3,994	234,673	119,577
297,589	4,177	234,504	119,623
298,603	4,463	234,461	119,811
299,618	4,250	234,530	119,671
300,633	4,287	234,221	119,531
301,647	4,500	234,161	119,655
302,662	4,607	234,012	119,651
303,676	4,519	233,803	119,466
304,691	4,390	233,726	119,316
305,706	4,706	233,517	119,442
306,720	4,683	233,473	119,392
307,735	4,330	233,187	118,963
308,749	4,264	233,033	118,822
309,764	4,129	232,755	118,566
310,779	4,111	232,629	118,478
311,793	3,970	232,351	118,217
312,808	3,877	232,161	118,039
313,822	3,976	231,998	118,021
314,837	3,905	231,982	117,947
315,852	3,687	231,757	117,656
316,866	4,226	231,577	117,966
317,881	4,017	231,607	117,812
318,895	4,570	231,648	118,245
319,910	4,804	231,381	118,277
320,925	4,262	231,211	117,766
321,939	4,085	231,009	117,517
322,954	4,171	231,033	117,584
323,968	4,046	230,749	117,334
324,983	4,068	230,744	117,338
325,997	4,885	230,419	117,783
327,012	4,306	230,395	117,320
328,027	4,155	230,195	117,094
329,041	4,544	230,173	117,368
330,056	5,317	230,104	117,908
331,070	4,878	230,011	117,518
332,085	4,358	229,814	117,012
333,100	4,374	229,455	116,831
334,114	4,452	229,204	116,752
335,129	4,734	229,273	116,990
336,143	4,644	229,246	116,897
337,158	4,649	228,897	116,713
338,173	4,650	228,756	116,632
339,187	4,342	228,626	116,322
340,202	4,380	228,547	116,300
341,216	4,397	228,350	116,202
342,231	4,006	228,368	115,907
343,246	4,184	228,042	115,865
344,260	4,561	227,964	116,099
345,275	4,590	227,870	116,062
346,289	4,593	227,780	116,008
347,304	4,706	227,580	115,980
348,319	4,499	227,423	115,735
349,333	4,422	227,181	115,544
350,348	4,410	226,897	115,381
351,362	4,468	226,829	115,379
352,377	4,333	226,737	115,221
353,392	4,057	226,491	114,880
354,406	4,159	226,224	114,810
355,421	197,026	1320,955	1402,748
356,435	157,996	1454,346	1402,747
