DTS Sentinel unit serial number:	SN410029Multiplexer serial number:	ORYXHardware model number:	OX2-SRSoftware version number:	ORYX F/W v4,00 Oryx Data Collector v3.7.2.0data status	okinstallation	B5 Nyhavnadifferential loss correction	single-endedforward channel	channel 2reverse channel	N/Adate	2023/12/14time	02:57:13forward acquisition time	300,00reverse acquisition time	0,00gamma	499,1914k internal	0,3155k external	0,3155temperature offset calibration	1,0000default loss term (dB/km)	0,3820temperature slope calibration	1,0000multiplexer offset coefficient	1,0000multiplexer slope coefficient	1,0000fibre end	0,00T internal ref (°C)	8,37T ext. ref 1 (°C)	-7,98T ext. ref 2 (°C)	-8,04length (m)	temperature (°C)	Stokes	anti-Stokes-744,400	46,757	0,149	0,102
-743,385	-75,846	-0,518	-0,134
-742,371	133,031	0,108	0,103
-741,356	-104,190	-0,326	-0,055
-740,342	157,086	0,088	0,090
-739,327	-98,910	-0,358	-0,066
-738,312	385,130	0,062	0,095
-737,298	79,954	-0,279	-0,221
-736,283	-60,754	0,217	0,067
-735,269	-112,791	-0,314	-0,046
-734,254	-73,833	0,095	-0,025
-733,239	-0,181	-0,567	-0,296
-732,225	-127,609	0,118	-0,012
-731,210	-200,000	0,017	0,087
-730,196	800,000	-0,007	0,019
-729,181	-160,369	-0,023	0,001
-728,167	-113,048	-0,125	-0,018
-727,152	-200,000	0,014	0,107
-726,137	-114,626	-0,073	-0,010
-725,123	800,000	-0,065	-0,134
-724,108	681,774	0,020	-0,038
-723,094	-22,771	-0,105	-0,047
-722,079	-88,063	0,037	0,008
-721,064	-197,640	-0,115	-0,001
-720,050	316,208	-0,037	0,052
-719,035	-1,434	-0,095	0,049
-718,021	-133,724	-0,140	-0,013
-717,006	105,379	0,065	0,057
-715,991	-200,000	-0,009	-0,143
-714,977	-111,485	-0,092	0,014
-713,962	252,249	-0,011	-0,014
-712,948	176,847	-0,015	0,016
-711,933	-200,000	-0,019	-0,105
-710,918	350,636	0,050	0,074
-709,904	-200,000	-0,017	-0,081
-708,889	99,950	0,038	-0,033
-707,875	459,504	-0,046	-0,075
-706,860	-200,000	-0,002	-0,115
-705,845	-200,000	-0,005	-0,073
-704,831	268,815	-0,016	0,020
-703,816	800,000	-0,036	-0,080
-702,802	41,370	0,124	-0,083
-701,787	-200,000	0,012	-0,228
-700,772	353,654	0,052	-0,077
-699,758	348,338	-0,133	-0,193
-698,743	800,000	-0,026	0,079
-697,729	160,115	0,045	-0,047
-696,714	658,622	-0,042	0,080
-695,699	-200,000	-0,014	0,049
-694,685	-200,000	0,003	-0,047
-693,670	96,534	-0,186	-0,157
-692,656	-200,000	0,008	0,033
-691,641	190,440	0,037	-0,041
-690,627	390,289	-0,051	-0,077
-689,612	61,405	-0,091	0,066
-688,597	800,000	0,040	-0,100
-687,583	-200,000	-0,010	-0,137
-686,568	800,000	0,023	-0,064
-685,554	-147,183	-0,115	-0,007
-684,539	-45,715	0,050	0,018
-683,524	-136,010	0,050	-0,004
-682,510	4,452	-0,047	0,025
-681,495	5,999	-0,168	-0,092
-680,481	-60,567	-0,076	-0,024
-679,466	-57,044	-0,092	-0,030
-678,451	-127,700	-0,125	0,013
-677,437	-200,000	0,000	-0,010
-676,422	193,444	0,016	0,018
-675,408	13,327	-0,122	-0,070
-674,393	-68,449	-0,139	-0,039
-673,378	10,771	-0,074	0,042
-672,364	-200,000	0,017	-0,071
-671,349	-130,128	-0,109	0,011
-670,335	-200,000	0,008	-0,088
-669,320	188,976	0,059	-0,065
-668,305	32,160	-0,070	0,044
-667,291	-77,598	-0,094	0,024
-666,276	-200,000	-0,016	0,056
-665,262	6,126	-0,199	-0,108
-664,247	129,467	0,061	-0,057
-663,232	75,284	-0,076	-0,059
-662,218	204,658	0,029	0,034
-661,203	800,000	0,017	-0,047
-660,189	70,516	-0,111	-0,085
-659,174	-197,585	0,044	-0,000
-658,159	242,273	0,077	-0,094
-657,145	74,053	-0,064	0,049
-656,130	272,894	-0,036	-0,047
-655,116	-200,000	0,008	0,072
-654,101	-200,000	0,024	0,089
-653,086	-200,000	0,014	-0,082
-652,072	14,852	0,080	0,046
-651,057	468,649	-0,124	-0,205
-650,043	30,751	0,068	0,043
-649,028	-42,670	-0,089	-0,033
-648,014	-166,028	0,178	-0,005
-646,999	-28,675	-0,119	0,050
-645,984	-200,000	0,006	0,024
-644,970	800,000	-0,047	-0,120
-643,955	328,955	-0,052	-0,073
-642,941	381,748	0,044	0,067
-641,926	111,376	0,065	0,058
-640,911	-79,796	0,079	0,019
-639,897	800,000	0,030	0,062
-638,882	800,000	-0,023	0,073
-637,868	-148,445	-0,114	-0,007
-636,853	-200,000	0,011	-0,227
-635,838	800,000	-0,028	-0,089
-634,824	-15,890	-0,040	0,019
-633,809	-200,000	0,023	0,145
-632,795	-133,134	0,139	0,013
-631,780	346,086	-0,029	-0,043
-630,765	168,110	-0,073	0,077
-629,751	-200,000	-0,029	-0,106
-628,736	-6,604	0,029	0,014
-627,722	273,859	0,039	0,051
-626,707	18,348	-0,126	-0,074
-625,692	-200,000	-0,003	-0,093
-624,678	-71,773	-0,175	-0,047
-623,663	-200,000	-0,013	-0,139
-622,649	120,977	-0,005	-0,005
-621,634	-121,896	-0,067	-0,008
-620,619	171,004	-0,055	0,058
-619,605	800,000	-0,052	-0,114
-618,590	249,769	-0,061	-0,076
-617,576	84,617	0,058	0,047
-616,561	800,000	-0,017	0,044
-615,546	800,000	0,021	0,047
-614,532	42,868	0,024	-0,016
-613,517	305,406	0,084	0,114
-612,503	-200,000	-0,023	-0,139
-611,488	-200,000	-0,020	0,087
-610,474	117,418	0,077	0,069
-609,459	-200,000	-0,000	-0,038
-608,444	-129,589	0,085	0,009
-607,430	450,440	-0,058	-0,094
-606,415	800,000	-0,044	-0,115
-605,401	136,469	0,031	0,030
-604,386	800,000	0,005	0,015
-603,371	-200,000	0,018	0,112
-602,357	131,117	-0,064	-0,060
-601,342	-50,538	0,035	0,012
-600,328	41,782	-0,131	-0,087
-599,313	-17,108	-0,090	-0,042
-598,298	-200,000	0,029	-0,181
-597,284	800,000	-0,075	-0,165
-596,269	-200,000	0,044	0,145
-595,255	-200,000	0,002	0,008
-594,240	-131,024	-0,060	-0,006
-593,225	-70,276	-0,157	-0,043
-592,211	366,715	-0,064	-0,095
-591,196	-17,838	-0,182	0,084
-590,182	-124,866	0,161	0,018
-589,167	12,402	0,026	0,014
-588,152	-99,177	0,134	0,025
-587,138	640,346	-0,030	-0,055
-586,123	363,547	0,028	-0,041
-585,109	-200,000	-0,002	-0,029
-584,094	200,600	0,080	0,091
-583,079	-200,000	-0,003	-0,035
-582,065	36,588	0,162	-0,105
-581,050	5,770	0,041	-0,022
-580,036	-200,000	0,009	-0,104
-579,021	378,670	0,083	-0,126
-578,006	576,997	-0,074	0,134
-576,992	-200,000	-0,011	-0,077
-575,977	-200,000	-0,008	-0,043
-574,963	78,763	0,160	0,125
-573,948	178,619	-0,081	-0,087
-572,934	-200,000	0,012	-0,077
-571,919	223,715	-0,060	0,072
-570,904	-76,535	0,073	0,019
-569,890	-92,080	-0,125	0,026
-568,875	92,385	-0,053	0,044
-567,861	-22,017	0,112	-0,050
-566,846	-200,000	-0,008	-0,033
-565,831	70,112	-0,057	-0,043
-564,817	-154,149	-0,041	-0,002
-563,802	-25,661	-0,095	0,041
-562,788	-175,109	-0,096	-0,002
-561,773	7,332	-0,059	0,032
-560,758	-15,350	-0,021	-0,010
-559,744	38,456	0,062	0,041
-558,729	518,109	0,059	0,102
-557,715	800,000	0,040	0,086
-556,700	-200,000	0,023	-0,089
-555,685	177,172	-0,043	-0,046
-554,671	-200,000	0,008	-0,072
-553,656	384,851	0,108	-0,164
-552,642	62,760	0,053	0,039
-551,627	-181,960	0,181	-0,002
-550,612	341,416	-0,076	-0,109
-549,598	49,336	0,077	-0,053
-548,583	510,680	-0,025	-0,043
-547,569	130,938	0,055	-0,051
-546,554	-200,000	-0,018	-0,062
-545,539	-200,000	0,038	0,221
-544,525	71,310	-0,082	0,063
-543,510	-200,000	0,034	0,147
-542,496	800,000	0,024	0,051
-541,481	663,940	0,049	-0,093
-540,466	800,000	-0,034	-0,076
-539,452	-44,374	0,023	0,009
-538,437	-200,000	-0,020	0,119
-537,423	-133,112	0,089	0,008
-536,408	-200,000	-0,001	0,070
-535,393	-126,082	-0,184	-0,020
-534,379	-200,000	-0,014	0,085
-533,364	800,000	-0,017	0,055
-532,350	-200,000	0,005	0,086
-531,335	-200,000	0,021	-0,079
-530,321	61,174	0,147	0,106
-529,306	-137,642	0,103	0,008
-528,291	-51,498	-0,154	-0,052
-527,277	-82,249	0,092	0,022
-526,262	800,000	0,021	0,046
-525,248	-36,528	-0,069	0,027
-524,233	-200,000	0,020	0,145
-523,218	522,305	0,043	0,075
-522,204	693,052	-0,032	0,061
-521,189	800,000	0,041	0,114
-520,175	-200,000	-0,010	-0,159
-519,160	-79,041	-0,090	0,022
-518,145	11,124	-0,117	-0,065
-517,131	156,053	-0,060	-0,060
-516,116	800,000	0,047	0,097
-515,102	-200,000	0,026	0,105
-514,087	-200,000	-0,028	-0,107
-513,072	62,800	0,143	-0,104
-512,058	-29,369	-0,091	0,038
-511,043	-200,000	0,001	-0,021
-510,029	-35,942	0,149	0,058
-509,014	-164,741	0,096	-0,003
-507,999	-148,219	-0,237	0,014
-506,985	800,000	-0,048	-0,109
-505,970	548,534	-0,034	0,060
-504,956	-92,938	0,132	-0,027
-503,941	800,000	0,008	0,020
-502,926	800,000	0,016	0,042
-501,912	800,000	0,015	0,041
-500,897	-120,467	-0,136	0,017
-499,883	-67,862	-0,106	0,030
-498,868	-114,545	-0,034	0,005
-497,853	-31,912	-0,058	0,023
-496,839	199,807	0,027	-0,030
-495,824	315,808	-0,024	-0,034
-494,810	99,271	0,170	0,144
-493,795	68,932	-0,086	-0,064
-492,781	-119,042	-0,315	-0,040
-491,766	-200,000	0,045	-0,205
-490,751	-7,998	-0,161	-0,079
-489,737	583,971	0,050	0,090
-488,722	166,885	-0,106	0,110
-487,708	-13,649	0,136	0,064
-486,693	-120,556	-0,055	-0,007
-485,678	-71,153	0,155	-0,042
-484,664	-200,000	0,004	0,028
-483,649	800,000	0,045	-0,118
-482,635	-65,690	-0,191	0,056
-481,620	-125,063	-0,048	0,005
-480,605	223,882	0,092	0,108
-479,591	-11,577	0,102	-0,049
-478,576	-18,349	-0,083	-0,038
-477,562	24,513	-0,121	-0,073
-476,547	306,175	0,027	0,037
-475,532	-29,689	0,062	0,026
-474,518	800,000	-0,039	-0,089
-473,503	64,299	0,098	0,072
-472,489	283,810	-0,049	0,064
-471,474	-73,783	0,113	0,030
-470,459	661,199	-0,040	-0,075
-469,445	283,166	0,063	0,083
-468,430	800,000	0,070	-0,174
-467,416	-20,878	0,034	0,015
-466,401	-83,319	0,101	-0,024
-465,386	-200,000	-0,026	0,095
-464,372	-12,899	0,066	0,031
-463,357	-152,234	0,069	0,004
-462,343	-171,581	-0,104	-0,002
-461,328	737,417	0,028	0,055
-460,313	98,994	0,045	0,038
-459,299	-200,000	-0,011	0,078
-458,284	-200,000	0,001	0,090
-457,270	-110,060	-0,021	-0,003
-456,255	710,841	-0,032	-0,061
-455,241	741,313	0,061	-0,121
-454,226	174,363	-0,098	0,103
-453,211	171,308	0,102	0,106
-452,197	-200,000	-0,017	-0,179
-451,182	-179,005	0,159	-0,003
-450,168	-200,000	-0,014	-0,244
-449,153	140,568	-0,080	-0,077
-448,138	-200,000	-0,010	0,038
-447,124	-200,000	-0,155	0,000
-446,109	331,055	-0,047	-0,067
-445,095	18,514	0,066	0,039
-444,080	566,276	-0,054	0,095
-443,065	103,268	-0,074	0,064
-442,051	117,387	-0,106	-0,095
-441,036	17,849	0,053	0,030
-440,022	800,000	-0,066	-0,135
-439,007	-200,000	0,015	0,106
-437,992	-200,000	0,002	0,077
-436,978	4,530	-0,075	0,040
-435,963	800,000	0,027	0,082
-434,949	-17,539	-0,056	0,025
-433,934	538,088	-0,079	-0,138
-432,919	-47,410	0,040	-0,014
-431,905	800,000	-0,011	-0,030
-430,890	183,805	-0,027	-0,030
-429,876	389,946	-0,083	0,126
-428,861	-102,032	0,192	0,033
-427,846	-19,190	0,025	-0,011
-426,832	591,977	0,032	-0,058
-425,817	-200,000	0,010	-0,118
-424,803	-200,000	-0,010	-0,106
-423,788	-200,000	0,010	-0,033
-422,773	231,888	0,088	-0,106
-421,759	18,872	0,018	0,010
-420,744	131,989	0,065	-0,061
-419,730	-200,000	-0,036	0,137
-418,715	665,466	-0,039	-0,075
-417,701	-97,636	-0,107	-0,020
-416,686	-99,003	0,017	-0,003
-415,671	611,952	0,042	-0,078
-414,657	237,436	0,082	0,099
-413,642	167,623	-0,043	0,045
-412,628	34,570	0,072	0,045
-411,613	1,715	-0,051	-0,027
-410,598	447,625	-0,034	-0,054
-409,584	-181,770	-0,038	-0,001
-408,569	800,000	0,037	0,090
-407,555	-63,317	-0,086	0,026
-406,540	573,420	0,084	0,150
-405,525	-129,092	-0,133	0,013
-404,511	-30,612	-0,124	-0,051
-403,496	20,833	0,097	0,057
-402,482	8,175	-0,116	0,063
-401,467	14,010	0,070	-0,039
-400,452	91,233	-0,109	0,089
-399,438	135,400	-0,035	-0,033
-398,423	-42,682	-0,096	0,035
-397,409	-5,049	0,058	-0,029
-396,394	800,000	0,039	-0,092
-395,379	21,046	0,092	-0,054
-394,365	637,537	-0,025	0,046
-393,350	-200,000	0,012	-0,054
-392,336	-200,000	-0,023	0,131
-391,321	-171,203	0,111	-0,003
-390,306	-33,401	-0,092	-0,037
-389,292	308,216	0,020	-0,027
-388,277	205,396	0,014	-0,016
-387,263	155,713	-0,036	-0,037
-386,248	-1,549	-0,014	-0,007
-385,233	-108,440	0,022	0,003
-384,219	41,352	-0,047	0,031
-383,204	49,208	0,056	0,038
-382,190	-127,881	0,022	0,002
-381,175	525,249	0,021	-0,037
-380,160	85,275	-0,054	-0,043
-379,146	-18,243	0,033	-0,015
-378,131	-22,794	-0,085	-0,037
-377,117	800,000	-0,019	0,051
-376,102	317,203	-0,023	-0,032
-375,088	39,923	0,069	-0,045
-374,073	-200,000	0,040	-0,157
-373,058	29,503	0,114	0,071
-372,044	312,166	-0,039	0,054
-371,029	-200,000	0,009	-0,051
-370,015	-200,000	-0,005	0,128
-369,000	-200,000	-0,002	0,167
-367,985	-200,000	0,006	-0,024
-366,971	-200,000	-0,001	0,024
-365,956	-200,000	-0,003	-0,087
-364,942	-72,932	0,174	0,046
-363,927	50,622	-0,153	0,105
-362,912	-153,437	0,107	0,005
-361,898	-189,530	0,084	0,001
-360,883	166,196	-0,136	-0,140
-359,869	-200,000	-0,002	0,034
-358,854	-200,000	-0,007	-0,036
-357,839	249,076	0,080	-0,099
-356,825	800,000	0,041	-0,104
-355,810	51,052	-0,077	-0,053
-354,796	-200,000	-0,001	-0,027
-353,781	-0,513	-0,156	-0,080
-352,766	43,109	-0,121	-0,080
-351,752	-200,000	0,038	-0,123
-350,737	-90,576	0,095	-0,020
-349,723	-200,000	0,050	0,249
-348,708	136,322	-0,052	-0,049
-347,693	53,763	0,102	-0,071
-346,679	800,000	0,041	-0,127
-345,664	-200,000	0,005	0,015
-344,650	74,765	0,106	-0,081
-343,635	134,642	0,055	-0,052
-342,620	-200,000	-0,002	0,021
-341,606	-160,533	0,052	0,002
-340,591	-96,271	-0,011	-0,002
-339,577	268,575	-0,071	-0,090
-338,562	-33,881	0,106	0,042
-337,548	-200,000	-0,021	0,091
-336,533	4,839	-0,058	0,031
-335,518	-200,000	0,005	0,124
-334,504	206,626	0,078	0,088
-333,489	209,910	-0,085	0,097
-332,475	800,000	-0,071	0,156
-331,460	-200,000	0,000	0,014
-330,445	800,000	-0,020	-0,058
-329,431	-200,000	-0,016	-0,221
-328,416	290,656	0,119	0,158
-327,402	-200,000	0,006	0,055
-326,387	-69,112	-0,066	0,018
-325,372	-200,000	0,010	0,084
-324,358	279,930	0,019	-0,025
-323,343	1,449	0,048	0,025
-322,329	-104,642	0,099	-0,016
-321,314	-65,949	0,170	-0,049
-320,299	-170,466	0,062	0,002
-319,285	-200,000	0,014	0,155
-318,270	150,949	-0,039	0,038
-317,256	193,961	0,040	0,044
-316,241	-198,598	-0,060	0,000
-315,226	800,000	0,014	0,041
-314,212	-142,438	0,126	0,009
-313,197	30,366	-0,140	0,086
-312,183	566,406	-0,029	0,051
-311,168	63,213	-0,103	-0,075
-310,153	-200,000	-0,001	-0,134
-309,139	71,251	-0,067	-0,050
-308,124	-102,638	0,076	0,013
-307,110	-48,347	0,079	0,028
-306,095	-200,000	-0,023	-0,075
-305,080	-132,732	0,037	0,003
-304,066	-200,000	0,045	0,242
-303,051	92,034	-0,049	0,040
-302,037	193,902	-0,005	-0,006
-301,022	800,000	-0,028	-0,079
-300,008	-102,086	-0,087	0,015
-298,993	73,996	0,051	-0,039
-297,978	268,461	0,067	0,085
-296,964	-108,483	-0,037	0,006
-295,949	-200,000	0,001	0,118
-294,935	130,819	-0,054	-0,050
-293,920	520,185	-0,042	0,072
-292,905	-84,116	-0,078	0,018
-291,891	270,184	-0,052	-0,067
-290,876	-64,356	0,092	0,027
-289,862	-138,627	-0,107	-0,008
-288,847	622,099	0,063	-0,115
-287,832	91,417	0,011	-0,009
-286,818	106,312	-0,008	-0,007
-285,803	-110,668	-0,017	-0,002
-284,789	800,000	0,021	0,051
-283,774	376,444	-0,096	0,142
-282,759	251,163	0,047	0,058
-281,745	392,745	0,067	-0,102
-280,730	-200,000	0,027	-0,096
-279,716	114,896	0,120	-0,106
-278,701	69,683	0,104	-0,078
-277,686	-16,003	0,030	0,014
-276,672	599,131	-0,043	0,077
-275,657	38,837	-0,038	-0,025
-274,643	-200,000	0,005	-0,100
-273,628	389,261	0,026	0,040
-272,613	-60,089	-0,086	-0,026
-271,599	-125,789	-0,070	0,008
-270,584	-162,642	0,113	-0,004
-269,570	-200,000	0,002	0,083
-268,555	800,000	0,050	0,150
-267,540	-149,325	0,103	0,006
-266,526	-200,000	0,003	-0,069
-265,511	-140,905	0,015	0,001
-264,497	-70,867	-0,135	-0,037
-263,482	-200,000	0,039	0,133
-262,467	136,236	0,020	0,019
-261,453	39,234	0,101	0,065
-260,438	706,237	-0,069	-0,133
-259,424	101,164	-0,066	-0,055
-258,409	-200,000	-0,016	-0,169
-257,395	-46,122	-0,038	-0,014
-256,380	-162,290	0,179	-0,006
-255,365	-200,000	-0,016	-0,058
-254,351	770,084	0,053	-0,104
-253,336	-39,585	-0,096	0,036
-252,322	285,752	-0,077	-0,101
-251,307	-200,000	0,002	0,045
-250,292	-135,716	0,113	-0,010
-249,278	32,483	-0,073	-0,045
-248,263	-107,922	-0,099	0,015
-247,249	-27,521	0,117	-0,049
-246,234	-30,351	0,065	0,027
-245,219	-200,000	-0,137	0,000
-244,205	-61,036	0,086	-0,026
-243,190	-200,000	0,003	0,047
-242,176	191,648	0,034	-0,038
-241,161	-41,515	-0,060	0,022
-240,146	-36,580	0,070	0,027
-239,132	-83,090	-0,082	0,019
-238,117	-79,993	-0,083	-0,020
-237,103	213,805	0,076	0,087
-236,088	-150,071	-0,195	-0,011
-235,073	-46,593	0,228	0,080
-234,059	-200,000	-0,005	0,077
-233,044	800,000	0,012	-0,024
-232,030	-31,901	0,027	-0,011
-231,015	790,607	0,028	-0,057
-230,000	51,895	-0,128	-0,088
-228,986	800,000	-0,020	0,060
-227,971	-67,929	0,100	0,028
-226,957	-94,089	-0,104	-0,020
-225,942	254,185	0,023	0,028
-224,927	-200,000	0,007	0,078
-223,913	-200,000	-0,001	0,037
-222,898	333,387	0,042	0,059
-221,884	-50,426	-0,147	0,050
-220,869	-127,327	0,164	0,017
-219,855	558,103	-0,009	0,016
-218,840	138,267	-0,039	0,037
-217,825	104,796	-0,047	-0,040
-216,811	-200,000	-0,032	-0,112
-215,796	394,688	0,082	0,124
-214,782	-34,523	-0,105	0,041
-213,767	-81,942	0,040	-0,009
-212,752	800,000	0,079	0,167
-211,738	648,213	0,063	-0,116
-210,723	27,623	-0,066	0,040
-209,709	800,000	-0,033	0,084
-208,694	134,248	0,016	-0,015
-207,679	776,590	0,059	-0,118
-206,665	-200,000	0,038	-0,174
-205,650	-159,137	0,153	-0,006
-204,636	21,750	-0,113	0,066
-203,621	-138,669	0,134	0,010
-202,606	-5,147	-0,150	0,074
-201,592	800,000	-0,023	-0,054
-200,577	76,015	0,109	-0,083
-199,563	350,334	0,023	-0,032
-198,548	63,154	0,109	0,079
-197,533	72,259	-0,088	-0,066
-196,519	-200,000	-0,027	0,199
-195,504	486,717	-0,075	-0,124
-194,490	800,000	0,011	0,030
-193,475	48,354	-0,040	0,027
-192,460	122,151	0,068	-0,061
-191,446	13,187	-0,027	0,015
-190,431	456,556	0,023	0,037
-189,417	-200,000	-0,024	0,125
-188,402	-100,392	-0,124	-0,022
-187,387	321,588	0,034	-0,047
-186,373	431,564	-0,067	-0,105
-185,358	39,470	-0,155	0,100
-184,344	-200,000	0,017	0,113
-183,329	-8,315	0,048	-0,023
-182,315	413,669	-0,050	-0,076
-181,300	-107,096	0,053	0,008
-180,285	-20,126	0,010	0,005
-179,271	-113,885	0,123	-0,017
-178,256	800,000	-0,006	-0,012
-177,242	-43,346	0,096	0,035
-176,227	31,446	-0,038	-0,023
-175,212	629,074	0,077	0,141
-174,198	800,000	-0,042	0,089
-173,183	37,779	-0,085	-0,055
-172,169	-127,639	-0,144	0,015
-171,154	553,411	-0,036	-0,063
-170,139	88,121	-0,005	-0,004
-169,125	119,024	-0,114	-0,101
-168,110	-145,101	0,069	0,004
-167,096	134,428	-0,091	0,085
-166,081	52,900	0,072	-0,050
-165,066	-89,007	0,020	-0,004
-164,052	339,604	-0,019	0,027
-163,037	349,254	-0,030	0,042
-162,023	-153,842	0,075	-0,004
-161,008	-200,000	0,023	0,095
-159,993	53,358	0,108	0,075
-158,979	-200,000	-0,010	0,061
-157,964	-200,000	0,012	-0,048
-156,950	-73,894	0,117	-0,030
-155,935	47,550	0,086	0,058
-154,920	800,000	0,044	0,092
-153,906	-200,000	0,029	-0,171
-152,891	-52,329	-0,037	0,012
-151,877	-200,000	-0,020	0,080
-150,862	-200,000	-0,007	-0,124
-149,847	-1,441	0,151	-0,076
-148,833	-200,000	-0,014	0,071
-147,818	-200,000	0,003	0,024
-146,804	-86,183	-0,144	0,032
-145,789	800,000	0,060	0,153
-144,775	47,490	-0,078	-0,053
-143,760	124,125	-0,064	-0,058
-142,745	800,000	-0,036	-0,104
-141,731	-124,714	-0,113	-0,013
-140,716	-200,000	0,009	0,094
-139,702	162,258	0,054	-0,055
-138,687	315,404	-0,045	0,061
-137,672	-200,000	-0,007	-0,092
-136,658	-25,837	-0,143	-0,061
-135,643	-7,655	-0,030	-0,015
-134,629	439,929	0,029	0,046
-133,614	-146,271	0,183	0,011
-132,599	313,548	-0,085	-0,116
-131,585	160,904	0,100	-0,101
-130,570	-14,528	0,107	0,049
-129,556	800,000	0,027	-0,058
-128,541	-95,570	0,075	-0,014
-127,526	32,118	0,026	-0,016
-126,512	269,039	-0,040	0,050
-125,497	-97,142	0,137	-0,025
-124,483	800,000	-0,025	-0,057
-123,468	-110,679	-0,066	0,010
-122,453	493,523	0,044	0,074
-121,439	185,035	0,016	-0,017
-120,424	-66,296	0,079	0,023
-119,410	-37,401	-0,072	0,028
-118,395	77,062	-0,072	-0,055
-117,380	-90,518	-0,030	0,006
-116,366	182,317	0,045	-0,048
-115,351	800,000	-0,056	-0,117
-114,337	362,125	0,079	-0,115
-113,322	800,000	0,035	0,079
-112,307	800,000	-0,052	0,121
-111,293	-200,000	0,008	-0,109
-110,278	-101,426	0,096	-0,017
-109,264	800,000	0,067	-0,135
-108,249	-200,000	0,024	-0,126
-107,234	7,846	-0,161	-0,087
-106,220	-7,249	0,007	0,003
-105,205	577,559	0,015	-0,026
-104,191	128,693	-0,130	0,119
-103,176	-69,431	0,154	-0,042
-102,162	-162,734	-0,258	-0,009
-101,147	-200,000	0,004	0,021
-100,132	-66,579	-0,091	-0,026
-99,118	92,513	-0,049	0,040
-98,103	-104,953	-0,164	-0,027
-97,089	-17,701	0,139	0,063
-96,074	-200,000	-0,014	0,202
-95,059	723,014	0,056	0,108
-94,045	-124,472	-0,060	-0,007
-93,030	-23,653	-0,040	0,017
-92,016	91,633	0,042	-0,034
-91,001	-149,551	0,085	0,005
-89,986	187,709	-0,033	0,035
-88,972	-80,826	0,046	0,011
-87,957	-200,000	-0,007	0,080
-86,943	800,000	0,020	0,048
-85,928	800,000	0,057	-0,138
-84,913	697,514	-0,053	-0,100
-83,899	92,380	0,037	0,030
-82,884	267,064	0,032	-0,040
-81,870	-200,000	-0,013	0,132
-80,855	300,323	0,057	0,076
-79,840	-200,000	-0,004	-0,096
-78,826	800,000	-0,044	-0,113
-77,811	-125,103	-0,070	-0,008
-76,797	234,165	-0,060	-0,071
-75,782	800,000	0,020	-0,062
-74,767	157,729	-0,057	-0,057
-73,753	-200,000	0,008	0,138
-72,738	63,475	0,029	-0,021
-71,724	-195,787	0,057	-0,000
-70,709	-14,965	-0,124	-0,057
-69,694	-18,457	0,113	-0,051
-68,680	61,094	-0,028	0,020
-67,665	-152,988	0,097	-0,005
-66,651	195,731	-0,037	-0,040
-65,636	-200,000	-0,021	0,087
-64,622	194,957	0,123	-0,134
-63,607	800,000	-0,042	-0,106
-62,592	633,960	0,032	0,058
-61,578	-200,000	0,019	0,097
-60,563	800,000	-0,032	0,080
-59,549	-137,429	0,075	0,006
-58,534	64,330	-2,690	-1,944
-57,519	-28,928	0,423	-0,174
-56,505	800,000	-1,837	-5,368
-55,490	453,405	1,201	1,916
-54,476	800,000	5,299	11,392
-53,461	-200,000	21,975	347,608
-52,446	800,000	760,041	2312,565
-51,432	520,485	1648,401	2786,445
-50,417	101,337	1612,785	1348,345
-49,403	69,919	1269,267	939,167
-48,388	24,414	1019,443	603,805
-47,373	19,306	986,081	567,158
-46,359	13,215	973,537	539,958
-45,344	9,028	970,134	524,311
-44,330	9,488	968,272	524,793
-43,315	8,445	966,383	520,332
-42,300	8,437	965,066	519,577
-41,286	8,429	964,124	519,024
-40,271	8,419	963,030	518,381
-39,257	8,387	962,226	517,822
-38,242	8,364	961,504	517,339
-37,227	8,359	960,586	516,808
-36,213	8,399	959,672	516,426
-35,198	8,385	958,958	515,975
-34,184	8,445	958,037	515,653
-33,169	8,428	957,225	515,142
-32,154	8,454	956,476	514,803
-31,140	8,473	955,436	514,284
-30,125	8,459	954,648	513,795
-29,111	8,433	953,682	513,171
-28,096	8,461	953,184	512,973
-27,082	8,441	952,488	512,514
-26,067	8,428	951,572	511,956
-25,052	8,384	950,894	511,432
-24,038	8,339	950,401	511,000
-23,023	8,329	949,764	510,604
-22,009	8,395	949,130	510,456
-20,994	8,386	948,548	510,094
-19,979	8,428	947,876	509,848
-18,965	8,447	947,084	509,463
-17,950	8,377	946,626	508,971
-16,936	8,380	945,777	508,503
-15,921	8,398	945,369	508,323
-14,906	8,320	944,347	507,504
-13,892	8,369	943,604	507,241
-12,877	8,320	943,234	506,865
-11,863	8,227	942,806	506,316
-10,848	8,268	942,149	506,076
-9,833	8,408	941,557	506,184
-8,819	8,404	940,878	505,784
-7,804	8,254	940,312	504,983
-6,790	8,219	939,858	504,609
-5,775	8,335	939,188	504,598
-4,760	8,365	938,493	504,300
-3,746	8,244	937,914	503,583
-2,731	8,196	937,152	503,005
-1,717	8,170	936,467	502,534
-0,702	8,144	936,037	502,200
0,313	7,992	935,077	501,962
1,327	11,170	933,085	510,888
2,342	19,594	781,136	449,816
3,356	14,593	448,095	250,476
4,371	-11,464	311,864	146,657
5,386	-15,143	294,310	134,676
6,400	-17,353	288,336	129,743
7,415	-17,433	285,666	128,452
8,429	-17,750	283,689	127,243
9,444	-18,129	283,027	126,567
10,459	-17,890	282,241	126,435
11,473	-17,929	281,877	126,223
12,488	-17,973	281,240	125,884
13,502	-17,791	280,773	125,839
14,517	-17,753	280,286	125,646
15,531	-17,909	280,041	125,376
16,546	-17,609	279,710	125,504
17,561	-17,646	279,161	125,211
18,575	-17,347	278,776	125,313
19,590	-17,593	278,444	124,917
20,604	-17,482	278,187	124,897
21,619	-17,651	277,819	124,560
22,634	-17,424	277,350	124,555
23,648	-17,736	277,093	124,131
24,663	-17,801	276,970	124,003
25,677	-17,555	276,720	124,113
26,692	-17,468	276,334	124,012
27,707	-17,614	276,164	123,787
28,721	-17,414	275,798	123,800
29,736	-17,612	275,524	123,479
30,750	-17,624	275,338	123,373
31,765	-17,502	274,877	123,271
32,780	-17,611	274,757	123,104
33,794	-17,523	274,479	123,051
34,809	-17,362	274,147	123,042
35,823	-17,507	274,020	122,838
36,838	-17,724	273,842	122,544
37,853	-17,433	273,396	122,606
38,867	-17,610	273,374	122,420
39,882	-17,566	273,267	122,402
40,896	-17,562	272,818	122,194
41,911	-17,516	272,615	122,134
42,926	-17,429	272,210	122,024
43,940	-17,528	271,935	121,797
44,955	-17,519	271,752	121,712
45,969	-17,666	271,648	121,518
46,984	-17,415	271,392	121,626
47,999	-17,495	271,130	121,424
49,013	-17,380	271,005	121,464
50,028	-17,334	270,705	121,361
51,042	-17,378	270,647	121,283
52,057	-17,491	270,180	120,959
53,071	-17,591	270,215	120,871
54,086	-17,310	269,825	120,945
55,101	-17,316	269,734	120,888
56,115	-17,276	269,315	120,726
57,130	-17,461	269,327	120,551
58,144	-17,586	268,809	120,193
59,159	-17,770	268,696	119,963
60,174	-17,573	268,353	119,980
61,188	-17,693	268,160	119,773
62,203	-17,581	267,766	119,688
63,217	-17,313	267,716	119,901
64,232	-17,357	267,494	119,750
65,247	-17,430	267,120	119,505
66,261	-17,402	267,013	119,473
67,276	-17,413	266,720	119,321
68,290	-17,350	266,455	119,249
69,305	-17,569	266,417	119,022
70,320	-17,412	266,057	118,993
71,334	-17,483	265,971	118,880
72,349	-17,441	265,521	118,706
73,363	-17,545	265,536	118,608
74,378	-17,604	265,142	118,368
75,393	-17,593	265,009	118,308
76,407	-17,431	264,770	118,338
77,422	-17,469	264,508	118,176
78,436	-17,629	264,469	118,003
79,451	-17,394	263,930	117,963
80,466	-17,452	263,728	117,811
81,480	-17,478	263,591	117,715
82,495	-17,414	263,395	117,675
83,509	-17,355	263,098	117,585
84,524	-17,475	263,074	117,456
85,539	-17,324	262,861	117,485
86,553	-17,183	262,481	117,432
87,568	-17,410	262,533	117,241
88,582	-17,333	262,144	117,125
89,597	-17,564	262,167	116,920
90,611	-17,399	261,767	116,877
91,626	-17,546	261,750	116,729
92,641	-17,401	261,441	116,710
93,655	-17,616	261,335	116,460
94,670	-17,506	260,838	116,326
95,684	-17,513	260,622	116,213
96,699	-17,415	260,478	116,226
97,714	-17,437	260,286	116,110
98,728	-17,540	260,303	116,016
99,743	-17,410	259,902	115,942
100,757	-17,189	259,782	116,074
101,772	-17,433	259,546	115,742
102,787	-17,382	259,226	115,635
103,801	-17,560	259,106	115,413
104,816	-17,557	258,941	115,332
105,830	-17,481	258,740	115,300
106,845	-17,480	258,560	115,209
107,860	-17,495	258,282	115,062
108,874	-17,459	258,033	114,973
109,889	-17,560	257,901	114,815
110,903	-17,547	257,714	114,733
111,918	-17,402	257,340	114,683
112,933	-17,423	257,295	114,635
113,947	-17,380	257,073	114,563
114,962	-17,548	256,897	114,327
115,976	-17,504	256,701	114,269
116,991	-17,545	256,515	114,139
118,006	-17,353	256,264	114,185
119,020	-17,446	256,110	114,025
120,035	-17,544	256,112	113,931
121,049	-17,418	255,749	113,869
122,064	-17,385	255,553	113,801
123,079	-17,551	255,402	113,579
124,093	-17,394	255,095	113,568
125,108	-17,523	255,064	113,432
126,122	-17,471	255,010	113,444
127,137	-17,316	254,666	113,414
128,151	-17,335	254,423	113,280
129,166	-17,285	254,101	113,169
130,181	-17,459	254,047	112,985
131,195	-17,248	253,671	112,989
132,210	-17,221	253,547	112,947
133,224	-17,391	253,352	112,704
134,239	-17,417	253,197	112,603
135,254	-17,451	252,950	112,453
136,268	-17,637	252,762	112,200
137,283	-17,225	252,532	112,441
138,297	-17,336	252,507	112,325
139,312	-17,410	252,176	112,105
140,327	-17,342	251,894	112,027
141,341	-17,306	251,527	111,885
142,356	-17,427	251,489	111,754
143,370	-17,408	251,337	111,694
144,385	-17,343	251,164	111,662
145,400	-17,359	251,042	111,584
146,414	-17,477	250,915	111,417
147,429	-17,457	250,566	111,270
148,443	-17,402	250,380	111,223
149,458	-17,488	250,463	111,177
150,473	-17,511	250,197	111,030
151,487	-17,602	249,765	110,752
152,502	-17,147	249,648	111,075
153,516	-17,291	249,533	110,892
154,531	-17,382	249,289	110,696
155,546	-17,328	248,945	110,579
156,560	-17,535	249,031	110,433
157,575	-17,389	248,804	110,446
158,589	-17,242	248,567	110,454
159,604	-17,476	248,457	110,199
160,619	-17,498	248,150	110,034
161,633	-17,270	247,914	110,111
162,648	-17,354	247,701	109,936
163,662	-17,264	247,668	109,987
164,677	-17,314	247,585	109,899
165,692	-17,583	247,350	109,560
166,706	-17,281	247,163	109,719
167,721	-17,421	246,971	109,508
168,735	-17,454	246,677	109,340
169,750	-17,289	246,627	109,446
170,764	-17,412	246,424	109,243
171,779	-17,301	246,401	109,315
172,794	-17,367	246,286	109,200
173,808	-17,446	246,083	109,034
174,823	-17,222	245,807	109,089
175,837	-17,353	245,762	108,951
176,852	-17,401	245,579	108,820
177,867	-17,363	245,394	108,759
178,881	-17,345	245,128	108,647
179,896	-17,253	244,810	108,572
180,910	-17,481	244,802	108,370
181,925	-17,307	244,651	108,437
182,940	-17,445	244,411	108,208
183,954	-17,366	244,101	108,126
184,969	-17,328	244,080	108,138
185,983	-17,353	243,922	108,038
186,998	-17,086	243,593	108,103
188,013	-17,223	243,497	107,937
189,027	-17,232	243,217	107,796
190,042	-17,499	243,222	107,569
191,056	-17,380	242,966	107,545
192,071	-17,476	242,849	107,404
193,086	-17,403	242,695	107,386
194,100	-17,442	242,417	107,222
195,115	-17,314	242,247	107,242
196,129	-17,371	242,170	107,152
197,144	-17,347	241,759	106,980
198,159	-17,482	241,632	106,804
199,173	-17,445	241,612	106,815
200,188	-17,343	241,300	106,751
201,202	-17,295	241,157	106,718
202,217	-17,222	240,962	106,681
203,232	-17,357	240,931	106,548
204,246	-17,379	240,516	106,337
205,261	-17,584	240,351	106,088
206,275	-16,540	240,674	107,069
207,290	-11,339	242,484	112,115
208,304	-4,869	244,526	118,369
209,319	-2,212	245,327	120,932
210,334	-1,181	245,487	121,849
211,348	-0,083	245,816	122,905
212,363	0,478	245,644	123,269
213,377	0,941	245,694	123,664
214,392	1,074	245,771	123,800
215,407	1,327	245,551	123,886
216,421	1,424	245,461	123,909
217,436	1,512	245,323	123,901
218,450	1,532	245,122	123,805
219,465	1,710	244,881	123,817
220,480	1,544	244,813	123,637
221,494	1,450	244,551	123,416
222,509	1,085	244,151	122,906
223,523	1,053	244,057	122,822
224,538	0,622	243,919	122,390
225,553	0,737	243,705	122,365
226,567	0,670	243,468	122,180
227,582	0,596	243,443	122,097
228,596	0,919	243,138	122,195
229,611	0,773	243,170	122,082
230,626	0,757	242,845	121,895
231,640	0,499	242,842	121,673
232,655	0,771	242,570	121,747
233,669	0,748	242,348	121,606
234,684	0,717	242,142	121,467
235,699	0,645	242,095	121,374
236,713	0,764	241,996	121,409
237,728	0,581	241,801	121,153
238,742	0,758	241,517	121,143
239,757	0,572	241,600	121,024
240,772	0,570	241,354	120,888
241,786	0,704	241,109	120,863
242,801	0,850	240,817	120,822
243,815	0,544	240,867	120,591
244,830	0,596	240,605	120,491
245,844	0,644	240,497	120,464
246,859	0,756	240,384	120,486
247,874	0,804	240,140	120,392
248,888	0,452	240,061	120,060
249,903	0,694	239,973	120,199
250,917	1,027	239,711	120,322
251,932	0,874	239,686	120,177
252,947	0,899	239,352	120,019
253,961	0,745	239,287	119,853
254,976	0,937	239,142	119,923
255,990	0,729	239,009	119,680
257,005	0,713	238,922	119,613
258,020	0,695	238,842	119,548
259,034	0,721	238,511	119,392
260,049	0,790	238,285	119,323
261,063	0,800	238,164	119,260
262,078	0,895	237,900	119,193
263,093	0,673	237,899	119,005
264,107	0,671	237,850	118,969
265,122	0,740	237,500	118,837
266,136	0,832	237,398	118,848
267,151	0,630	237,403	118,680
268,166	0,654	237,218	118,597
269,180	0,523	236,853	118,300
270,195	0,759	236,841	118,470
271,209	0,736	236,593	118,317
272,224	0,775	236,515	118,299
273,239	0,681	236,268	118,091
274,253	0,507	236,285	117,952
275,268	0,583	236,062	117,889
276,282	0,639	235,856	117,820
277,297	0,590	235,765	117,725
278,312	0,642	235,589	117,668
279,326	0,640	235,275	117,499
280,341	0,696	235,306	117,547
281,355	0,789	235,197	117,555
282,370	0,718	235,115	117,448
283,384	0,759	234,840	117,333
284,399	0,614	234,745	117,161
285,414	0,707	234,570	117,136
286,428	0,869	234,428	117,181
287,443	0,807	234,306	117,061
288,457	0,717	234,073	116,865
289,472	0,800	233,996	116,880
290,487	0,728	233,657	116,645
291,501	0,691	233,498	116,526
292,516	0,750	233,429	116,527
293,530	0,882	233,414	116,611
294,545	0,906	233,312	116,569
295,560	0,925	233,002	116,418
296,574	0,768	232,845	116,208
297,589	0,945	232,768	116,296
298,603	0,754	232,707	116,107
299,618	0,752	232,479	115,982
300,633	0,953	232,246	116,011
301,647	0,676	232,323	115,825
302,662	1,119	232,015	116,002
303,676	0,930	231,978	115,827
304,691	0,839	231,688	115,602
305,706	0,971	231,679	115,690
306,720	1,012	231,385	115,563
307,735	0,892	231,288	115,413
308,749	1,204	231,130	115,563
309,764	1,042	230,971	115,349
310,779	1,219	230,787	115,382
311,793	1,149	230,591	115,221
312,808	0,903	230,564	115,008
313,822	0,829	230,461	114,891
314,837	0,920	230,232	114,835
315,852	1,055	230,082	114,853
316,866	0,996	229,987	114,751
317,881	1,221	229,651	114,744
318,895	0,965	229,608	114,518
319,910	0,992	229,532	114,490
320,925	1,095	229,405	114,495
321,939	0,897	229,342	114,302
322,954	0,873	229,047	114,127
323,968	1,062	228,862	114,168
324,983	0,957	228,841	114,068
325,997	1,183	228,625	114,122
327,012	0,908	228,518	113,850
328,027	1,058	228,382	113,885
329,041	0,777	228,298	113,620
330,056	1,259	228,020	113,836
331,070	1,107	228,076	113,739
332,085	1,187	227,553	113,529
333,100	1,021	227,726	113,479
334,114	0,845	227,458	113,203
335,129	0,977	227,285	113,206
336,143	0,998	227,137	113,138
337,158	1,240	226,937	113,210
338,173	1,185	226,906	113,143
339,187	1,019	226,892	113,002
340,202	1,182	226,553	112,945
341,216	1,103	226,483	112,841
342,231	1,172	226,234	112,758
343,246	1,033	226,194	112,625
344,260	1,062	226,047	112,563
345,275	1,034	226,114	112,565
346,289	1,136	225,765	112,457
347,304	1,129	225,728	112,424
348,319	1,114	225,462	112,270
349,333	1,143	225,349	112,226
350,348	1,262	225,168	112,214
351,362	1,066	225,099	112,024
352,377	1,178	224,948	112,022
353,392	1,235	224,749	111,955
354,406	1,097	224,584	111,761
355,421	192,585	1313,032	1380,918
356,435	154,251	1445,506	1380,777
