DTS Sentinel unit serial number:	SN410029Multiplexer serial number:	ORYXHardware model number:	OX2-SRSoftware version number:	ORYX F/W v4,00 Oryx Data Collector v3.7.2.0data status	okinstallation	B5 Nyhavnadifferential loss correction	single-endedforward channel	channel 2reverse channel	N/Adate	2023/12/13time	10:07:13forward acquisition time	300,00reverse acquisition time	0,00gamma	499,1914k internal	0,3160k external	0,3160temperature offset calibration	1,0000default loss term (dB/km)	0,3820temperature slope calibration	1,0000multiplexer offset coefficient	1,0000multiplexer slope coefficient	1,0000fibre end	0,00T internal ref (°C)	13,65T ext. ref 1 (°C)	-2,71T ext. ref 2 (°C)	-3,02length (m)	temperature (°C)	Stokes	anti-Stokes-744,400	-61,699	-0,053	0,016
-743,385	-104,268	-0,320	0,054
-742,371	-60,906	0,213	0,066
-741,356	-37,605	-0,251	0,098
-740,342	27,255	0,125	0,077
-739,327	-90,754	-0,264	0,056
-738,312	62,544	0,110	0,081
-737,298	-189,752	-0,439	-0,004
-736,283	73,311	0,171	0,131
-735,269	-155,752	-0,348	-0,016
-734,254	61,528	0,147	0,107
-733,239	-34,972	-0,524	-0,210
-732,225	-16,174	0,244	0,114
-731,210	-200,000	0,002	0,074
-730,196	21,060	-0,040	0,024
-729,181	-200,000	0,018	-0,105
-728,167	800,000	-0,011	0,033
-727,152	-52,225	0,050	-0,017
-726,137	-134,131	-0,167	0,015
-725,123	20,476	-0,023	-0,014
-724,108	374,830	-0,080	-0,120
-723,094	218,240	0,035	-0,042
-722,079	-100,506	-0,097	-0,017
-721,064	145,358	0,055	-0,054
-720,050	238,036	0,059	-0,072
-719,035	539,338	0,039	-0,069
-718,021	-200,000	-0,009	0,078
-717,006	-68,329	-0,140	-0,040
-715,991	276,999	-0,039	-0,051
-714,977	398,404	-0,086	-0,133
-713,962	-34,230	-0,113	0,045
-712,948	800,000	0,053	-0,115
-711,933	12,645	0,065	-0,037
-710,918	581,718	-0,035	0,064
-709,904	800,000	-0,062	0,140
-708,889	-76,688	-0,106	-0,027
-707,875	719,672	-0,060	-0,118
-706,860	-200,000	-0,012	0,040
-705,845	35,191	0,097	0,063
-704,831	-117,131	0,036	0,005
-703,816	99,860	-0,076	0,065
-702,802	103,137	-0,105	0,090
-701,787	-59,376	-0,107	-0,034
-700,772	-143,145	-0,034	0,002
-699,758	140,222	0,081	0,079
-698,743	108,877	-0,009	0,008
-697,729	9,043	0,087	0,048
-696,714	319,162	-0,073	0,102
-695,699	-200,000	0,002	-0,033
-694,685	-141,890	-0,109	-0,008
-693,670	59,727	-0,013	0,009
-692,656	109,744	-0,075	-0,066
-691,641	544,703	-0,019	0,034
-690,627	735,066	-0,043	0,084
-689,612	-174,236	-0,038	0,001
-688,597	-200,000	0,003	0,062
-687,583	472,899	-0,021	0,035
-686,568	257,351	-0,060	-0,076
-685,554	800,000	-0,035	0,082
-684,539	95,482	-0,160	0,134
-683,524	-200,000	-0,010	0,072
-682,510	66,702	0,063	0,047
-681,495	-130,227	-0,157	0,015
-680,481	-200,000	0,023	-0,123
-679,466	800,000	-0,043	-0,093
-678,451	-127,219	-0,123	0,013
-677,437	-200,000	0,038	-0,183
-676,422	-132,187	0,077	-0,007
-675,408	332,648	0,031	0,044
-674,393	203,216	0,065	0,074
-673,378	-104,827	-0,076	0,013
-672,364	-200,000	-0,003	-0,018
-671,349	-200,000	0,036	-0,145
-670,335	-200,000	-0,002	-0,039
-669,320	118,745	0,091	0,083
-668,305	-132,845	-0,117	-0,011
-667,291	-200,000	-0,003	0,019
-666,276	-74,782	0,065	-0,017
-665,262	552,150	-0,031	-0,055
-664,247	-1,117	-0,070	-0,036
-663,232	800,000	-0,026	-0,054
-662,218	800,000	0,038	0,078
-661,203	-200,000	-0,037	-0,214
-660,189	-62,224	0,070	-0,021
-659,174	-200,000	-0,022	-0,100
-658,159	65,179	0,112	0,083
-657,145	-110,731	-0,068	0,010
-656,130	800,000	-0,048	0,110
-655,116	-123,264	0,084	-0,010
-654,101	40,888	-0,053	0,035
-653,086	-200,000	0,008	0,113
-652,072	-135,307	-0,066	0,006
-651,057	-200,000	0,041	-0,213
-650,043	-134,995	-0,114	-0,010
-649,028	-9,461	-0,128	-0,062
-648,014	-101,293	0,062	0,011
-646,999	202,189	-0,063	0,072
-645,984	-53,420	-0,138	-0,046
-644,970	59,263	-0,096	0,070
-643,955	800,000	0,028	0,082
-642,941	-200,000	-0,016	-0,118
-641,926	-200,000	0,012	0,079
-640,911	-57,844	0,057	-0,018
-639,897	93,853	-0,112	-0,093
-638,882	-77,420	0,084	0,021
-637,868	-200,000	0,018	-0,134
-636,853	185,558	-0,213	-0,232
-635,838	-200,000	-0,027	-0,112
-634,824	164,602	-0,110	-0,114
-633,809	800,000	0,017	0,039
-632,795	-200,000	0,000	-0,140
-631,780	686,990	0,016	0,031
-630,765	564,843	-0,038	-0,068
-629,751	800,000	0,040	0,091
-628,736	148,926	-0,112	-0,111
-627,722	547,226	0,015	0,026
-626,707	-100,491	0,045	-0,008
-625,692	1,784	-0,076	-0,040
-624,678	-42,251	-0,105	-0,039
-623,663	54,776	-0,050	-0,035
-622,649	122,990	0,007	-0,007
-621,634	800,000	-0,019	-0,057
-620,619	-200,000	-0,012	-0,095
-619,605	56,129	0,042	0,030
-618,590	135,806	0,108	0,103
-617,576	-52,182	0,137	0,046
-616,561	-200,000	-0,037	-0,162
-615,546	-37,907	-0,159	0,062
-614,532	-16,801	-0,030	0,014
-613,517	-14,370	-0,093	-0,044
-612,503	-73,196	0,151	-0,040
-611,488	800,000	-0,051	-0,160
-610,474	123,129	0,076	-0,070
-609,459	-136,490	-0,124	-0,010
-608,444	-109,623	-0,146	-0,022
-607,430	396,471	-0,053	0,081
-606,415	-200,000	-0,001	-0,109
-605,401	-200,000	-0,003	-0,030
-604,386	40,679	0,096	0,064
-603,371	-200,000	-0,026	0,134
-602,357	54,148	-0,127	0,090
-601,342	-166,036	0,029	-0,001
-600,328	800,000	-0,012	0,028
-599,313	540,565	-0,075	0,131
-598,298	-94,448	-0,056	0,011
-597,284	63,419	-0,050	-0,037
-596,269	505,970	0,049	0,084
-595,255	-65,262	0,063	0,018
-594,240	800,000	-0,058	-0,138
-593,225	258,957	0,068	-0,086
-592,211	-200,000	0,030	-0,147
-591,196	662,014	-0,028	-0,053
-590,182	-6,254	-0,062	0,031
-589,167	91,558	-0,058	-0,048
-588,152	416,900	-0,012	-0,019
-587,138	352,948	-0,033	-0,048
-586,123	-172,143	0,076	0,002
-585,109	800,000	0,021	0,065
-584,094	62,686	0,093	-0,068
-583,079	36,222	-0,138	0,089
-582,065	-200,000	0,001	-0,087
-581,050	-200,000	0,016	-0,088
-580,036	-200,000	0,016	-0,203
-579,021	48,500	-0,111	-0,076
-578,006	-200,000	0,044	-0,157
-576,992	-42,180	0,063	0,023
-575,977	270,276	0,057	-0,073
-574,963	130,170	0,064	-0,060
-573,948	37,173	0,079	0,051
-572,934	-160,525	-0,075	0,003
-571,919	800,000	-0,059	-0,126
-570,904	627,253	-0,028	-0,053
-569,890	-20,765	-0,046	0,021
-568,875	800,000	0,027	0,073
-567,861	-63,824	-0,076	0,023
-566,846	-200,000	0,006	-0,116
-565,831	-4,428	0,055	-0,028
-564,817	-200,000	-0,014	-0,060
-563,802	0,613	-0,035	-0,018
-562,788	52,082	-0,056	-0,039
-561,773	10,340	0,061	0,034
-560,758	-145,417	-0,067	-0,004
-559,744	422,448	-0,017	-0,026
-558,729	-200,000	0,016	-0,065
-557,715	497,856	-0,094	-0,158
-556,700	-122,404	-0,064	-0,008
-555,685	-92,915	-0,108	-0,022
-554,671	-200,000	0,017	0,121
-553,656	800,000	-0,065	0,149
-552,642	-71,412	0,198	-0,054
-551,627	-110,269	0,112	-0,017
-550,612	48,397	-0,091	-0,062
-549,598	322,023	0,041	0,057
-548,583	-187,845	-0,142	-0,001
-547,569	30,511	-0,130	-0,081
-546,554	125,124	0,053	-0,048
-545,539	-116,555	-0,071	-0,009
-544,525	800,000	0,040	0,097
-543,510	-200,000	-0,002	-0,165
-542,496	800,000	-0,030	-0,083
-541,481	-200,000	-0,014	0,097
-540,466	-99,062	-0,033	-0,006
-539,452	291,955	0,117	-0,156
-538,437	115,919	0,061	-0,055
-537,423	36,763	-0,095	0,061
-536,408	-64,412	-0,023	-0,007
-535,393	-200,000	-0,005	-0,194
-534,379	-85,728	-0,011	0,003
-533,364	-200,000	0,013	0,053
-532,350	8,367	-0,063	0,035
-531,335	800,000	0,025	-0,052
-530,321	-122,321	0,085	-0,010
-529,306	144,560	-0,050	-0,049
-528,291	72,608	-0,043	-0,033
-527,277	-200,000	-0,002	0,055
-526,262	-121,841	-0,072	-0,009
-525,248	-128,988	-0,080	0,008
-524,233	-200,000	0,001	0,125
-523,218	-138,557	-0,094	-0,007
-522,204	144,547	0,050	-0,049
-521,189	-52,174	0,078	0,026
-520,175	800,000	-0,052	0,129
-519,160	-163,728	0,070	-0,002
-518,145	-172,507	-0,113	0,003
-517,131	-48,738	-0,055	-0,019
-516,116	275,099	0,044	-0,057
-515,102	-117,746	-0,125	0,016
-514,087	277,726	-0,061	-0,079
-513,072	128,999	0,023	-0,021
-512,058	260,333	0,036	0,045
-511,043	-200,000	0,000	0,140
-510,029	-200,000	0,034	0,121
-509,014	-98,430	0,162	-0,030
-507,999	-200,000	-0,023	0,124
-506,985	800,000	0,008	-0,017
-505,970	160,019	-0,088	-0,090
-504,956	-200,000	-0,010	-0,139
-503,941	-86,985	-0,149	-0,033
-502,926	-62,509	0,171	0,052
-501,912	20,456	-0,119	-0,070
-500,897	-60,683	-0,128	0,039
-499,883	-200,000	-0,004	0,078
-498,868	41,754	0,047	-0,031
-497,853	-154,402	-0,094	0,005
-496,839	800,000	0,035	-0,096
-495,824	-200,000	-0,006	-0,082
-494,810	240,408	0,076	-0,093
-493,795	-200,000	-0,010	0,075
-492,781	27,539	-0,146	0,089
-491,766	583,113	0,073	-0,132
-490,751	800,000	-0,056	0,136
-489,737	80,569	0,011	-0,008
-488,722	800,000	0,057	0,162
-487,708	597,655	0,073	0,133
-486,693	-42,217	0,118	-0,044
-485,678	-200,000	0,009	0,032
-484,664	131,764	-0,105	-0,099
-483,649	-120,574	0,092	0,011
-482,635	385,348	0,066	-0,099
-481,620	-45,636	-0,147	-0,053
-480,605	20,200	0,071	0,042
-479,591	174,707	0,109	0,115
-478,576	-200,000	-0,016	0,060
-477,562	558,539	-0,067	-0,119
-476,547	470,855	-0,104	-0,172
-475,532	-102,719	0,128	-0,022
-474,518	211,349	0,073	0,083
-473,503	-26,251	0,140	0,059
-472,489	-200,000	-0,036	-0,134
-471,474	-41,436	0,032	-0,012
-470,459	-17,297	0,078	-0,036
-469,445	596,076	0,011	-0,019
-468,430	12,074	-0,082	-0,046
-467,416	-154,715	0,014	-0,001
-466,401	800,000	-0,016	-0,039
-465,386	-100,888	-0,040	0,007
-464,372	18,800	-0,021	-0,012
-463,357	313,629	0,072	0,099
-462,343	800,000	-0,027	-0,071
-461,328	120,491	0,075	0,068
-460,313	-91,049	-0,054	0,011
-459,299	800,000	-0,015	-0,036
-458,284	-45,305	-0,076	-0,027
-457,270	414,845	-0,030	-0,047
-456,255	-200,000	-0,007	-0,210
-455,241	-200,000	-0,017	-0,122
-454,226	96,539	-0,030	0,025
-453,211	-167,983	0,183	-0,005
-452,197	-200,000	-0,018	0,135
-451,182	736,066	0,058	0,114
-450,168	-123,447	0,080	0,009
-449,153	510,339	-0,024	-0,041
-448,138	241,261	-0,016	0,019
-447,124	800,000	-0,027	0,057
-446,109	169,536	0,076	0,079
-445,095	125,763	0,149	0,137
-444,080	54,133	0,148	-0,103
-443,065	800,000	0,023	-0,056
-442,051	-66,294	0,077	0,022
-441,036	318,477	-0,043	-0,060
-440,022	-97,507	0,097	-0,018
-439,007	180,411	0,078	-0,083
-437,992	162,770	0,091	0,093
-436,978	96,128	0,079	0,065
-435,963	-200,000	0,000	-0,046
-434,949	800,000	0,008	0,025
-433,934	60,900	-0,031	-0,022
-432,919	219,700	-0,054	-0,063
-431,905	-85,469	0,041	-0,009
-430,890	-200,000	0,002	-0,036
-429,876	-200,000	-0,006	-0,023
-428,861	126,479	-0,055	0,050
-427,846	69,567	0,058	0,043
-426,832	78,061	0,086	-0,066
-425,817	396,411	-0,028	-0,042
-424,803	-200,000	-0,038	-0,129
-423,788	9,491	0,029	-0,016
-422,773	-11,263	0,108	0,051
-421,759	191,153	-0,043	0,048
-420,744	-35,533	0,065	0,025
-419,730	120,105	-0,052	-0,047
-418,715	-99,356	-0,105	-0,019
-417,701	166,934	-0,008	0,009
-416,686	-45,414	-0,061	-0,022
-415,671	-200,000	-0,001	0,057
-414,657	-200,000	0,002	-0,011
-413,642	104,188	-0,034	0,029
-412,628	780,859	-0,005	-0,009
-411,613	178,951	0,045	0,048
-410,598	800,000	0,043	-0,124
-409,584	77,139	0,083	0,064
-408,569	50,401	0,088	-0,060
-407,555	-49,246	0,076	0,026
-406,540	-139,107	-0,139	0,011
-405,525	-30,795	-0,075	0,031
-404,511	-35,434	0,101	-0,040
-403,496	638,855	-0,031	-0,057
-402,482	229,263	0,084	0,100
-401,467	619,107	0,059	-0,109
-400,452	800,000	0,082	-0,172
-399,438	152,431	-0,084	0,084
-398,423	-149,342	-0,083	0,005
-397,409	38,446	-0,040	-0,026
-396,394	-200,000	-0,002	0,106
-395,379	-200,000	-0,009	0,100
-394,365	-200,000	0,023	0,158
-393,350	-42,840	0,075	-0,028
-392,336	-200,000	-0,015	0,087
-391,321	-200,000	-0,014	0,102
-390,306	549,669	0,014	-0,024
-389,292	800,000	-0,013	-0,034
-388,277	33,905	0,029	0,018
-387,263	-159,637	0,068	-0,003
-386,248	-200,000	-0,023	0,085
-385,233	800,000	-0,016	0,033
-384,219	-197,659	0,044	0,000
-383,204	-200,000	-0,016	0,133
-382,190	-147,371	-0,106	-0,006
-381,175	44,104	0,016	0,011
-380,160	489,609	0,070	-0,117
-379,146	379,882	0,049	0,074
-378,131	733,239	-0,079	0,153
-377,117	-77,607	-0,060	-0,015
-376,102	-16,889	-0,035	0,016
-375,088	197,539	0,021	0,023
-374,073	-73,885	0,086	0,023
-373,058	638,170	-0,009	0,017
-372,044	607,028	-0,035	0,063
-371,029	-53,335	0,167	0,055
-370,015	552,599	0,053	-0,092
-369,000	-156,245	0,064	-0,003
-367,985	404,652	0,027	0,042
-366,971	56,604	-0,125	-0,088
-365,956	668,272	-0,045	0,085
-364,942	219,160	0,056	0,065
-363,927	192,602	0,014	0,015
-362,912	166,671	0,054	0,055
-361,898	-113,701	-0,037	-0,005
-360,883	400,769	-0,028	-0,043
-359,869	-200,000	-0,013	-0,050
-358,854	800,000	0,057	0,127
-357,839	-60,231	0,096	-0,030
-356,825	-42,507	-0,047	0,017
-355,810	505,424	-0,041	-0,069
-354,796	-48,399	-0,089	0,031
-353,781	800,000	0,024	-0,075
-352,766	54,770	-0,102	-0,071
-351,752	241,092	-0,028	-0,034
-350,737	175,263	0,099	0,104
-349,723	-200,000	0,011	0,139
-348,708	800,000	0,029	-0,064
-347,693	171,615	-0,116	-0,121
-346,679	246,289	-0,048	0,059
-345,664	-200,000	0,011	0,035
-344,650	-85,069	-0,171	-0,039
-343,635	-1,375	0,043	-0,022
-342,620	-13,597	0,099	0,046
-341,606	-190,556	-0,124	0,001
-340,591	800,000	0,001	-0,002
-339,577	114,395	0,072	0,063
-338,562	16,922	-0,085	-0,049
-337,548	-163,152	0,152	-0,005
-336,533	-88,083	-0,134	0,029
-335,518	239,445	0,114	0,138
-334,504	51,301	0,165	0,113
-333,489	-0,441	0,086	-0,044
-332,475	-88,616	-0,032	0,007
-331,460	34,915	0,080	0,051
-330,445	800,000	-0,039	0,079
-329,431	800,000	-0,038	0,079
-328,416	800,000	0,027	0,079
-327,402	266,480	-0,130	-0,165
-326,387	637,874	-0,017	-0,031
-325,372	-164,070	-0,057	-0,002
-324,358	244,837	-0,090	-0,109
-323,343	-2,912	-0,191	0,096
-322,329	-14,085	0,061	0,029
-321,314	-200,000	0,004	0,013
-320,299	199,243	-0,061	0,068
-319,285	-106,451	0,074	0,012
-318,270	567,650	-0,031	-0,054
-317,256	-200,000	-0,004	-0,013
-316,241	-200,000	-0,030	0,120
-315,226	-82,247	0,068	-0,016
-314,212	-49,186	0,179	0,062
-313,197	-200,000	0,011	0,068
-312,183	800,000	0,041	0,098
-311,168	-87,955	0,054	-0,012
-310,153	-200,000	-0,006	0,025
-309,139	88,609	-0,053	0,043
-308,124	354,186	0,069	0,100
-307,110	79,996	-0,182	-0,142
-306,095	273,658	0,088	-0,113
-305,080	-94,639	0,058	-0,011
-304,066	-141,225	-0,046	-0,003
-303,051	253,870	-0,067	-0,083
-302,037	-134,703	-0,048	0,004
-301,022	-200,000	0,024	0,081
-300,008	-72,020	0,041	0,011
-298,993	-200,000	0,016	0,051
-297,978	-200,000	0,015	0,100
-296,964	546,953	-0,092	0,159
-295,949	800,000	0,042	-0,088
-294,935	-93,802	-0,130	-0,026
-293,920	-166,245	-0,028	-0,001
-292,905	-94,707	0,169	0,033
-291,891	-165,451	-0,051	-0,002
-290,876	800,000	-0,033	-0,082
-289,862	61,426	0,029	0,021
-288,847	-200,000	0,047	-0,178
-287,832	800,000	0,023	-0,068
-286,818	800,000	0,034	-0,084
-285,803	-200,000	-0,003	0,093
-284,789	800,000	-0,031	0,079
-283,774	218,768	0,134	0,155
-282,759	21,854	0,066	-0,039
-281,745	-66,965	0,037	0,010
-280,730	-74,802	-0,043	0,011
-279,716	-200,000	-0,020	0,074
-278,701	-200,000	0,020	0,095
-277,686	-200,000	-0,001	0,049
-276,672	28,731	0,075	0,046
-275,657	-200,000	0,008	0,102
-274,643	-200,000	-0,020	-0,107
-273,628	-27,578	0,033	0,014
-272,613	89,346	-0,033	-0,027
-271,599	800,000	-0,059	0,137
-270,584	603,319	-0,040	0,072
-269,570	440,106	0,065	0,103
-268,555	-19,925	0,076	0,034
-267,540	75,783	0,084	0,064
-266,526	456,384	-0,036	0,059
-265,511	71,814	0,078	-0,058
-264,497	-116,768	0,100	0,013
-263,482	800,000	-0,041	0,129
-262,467	-200,000	0,002	0,130
-261,453	-142,650	-0,071	-0,005
-260,438	-158,975	-0,081	-0,003
-259,424	102,928	-0,049	0,041
-258,409	97,173	-0,103	0,085
-257,395	441,405	-0,050	0,079
-256,380	800,000	0,052	-0,124
-255,365	-200,000	-0,009	0,060
-254,351	-120,698	-0,151	0,018
-253,336	800,000	0,015	-0,033
-252,322	-200,000	0,031	-0,216
-251,307	299,818	0,040	-0,054
-250,292	-200,000	-0,020	0,136
-249,278	-200,000	0,006	-0,106
-248,263	800,000	0,025	-0,062
-247,249	-200,000	-0,002	0,060
-246,234	-66,023	0,080	-0,023
-245,219	-200,000	0,001	0,038
-244,205	188,970	-0,081	-0,088
-243,190	800,000	-0,007	0,021
-242,176	-200,000	0,006	0,077
-241,161	366,632	-0,050	0,073
-240,146	167,892	-0,161	0,165
-239,132	143,527	0,124	0,119
-238,117	-200,000	0,024	-0,081
-237,103	-125,682	-0,102	-0,011
-236,088	-129,779	-0,040	-0,004
-235,073	174,629	0,045	0,047
-234,059	-200,000	0,010	0,135
-233,044	-28,860	0,062	0,026
-232,030	29,357	0,099	0,060
-231,015	-200,000	0,012	-0,111
-230,000	-89,562	-0,084	-0,018
-228,986	-161,506	-0,022	0,001
-227,971	800,000	0,008	0,016
-226,957	370,382	0,082	0,120
-225,942	755,592	-0,030	0,059
-224,927	-200,000	-0,003	-0,010
-223,913	800,000	-0,041	-0,118
-222,898	800,000	-0,051	-0,141
-221,884	-200,000	-0,003	-0,102
-220,869	-200,000	-0,009	0,035
-219,855	114,699	0,095	0,083
-218,840	-200,000	0,022	0,090
-217,825	132,068	0,020	-0,019
-216,811	-200,000	0,000	-0,172
-215,796	-10,010	-0,128	-0,061
-214,782	-138,540	-0,019	-0,001
-213,767	154,344	0,019	0,019
-212,752	229,943	0,028	0,033
-211,738	467,828	0,088	0,142
-210,723	36,800	-0,050	-0,032
-209,709	-200,000	0,017	0,081
-208,694	-139,233	-0,112	-0,009
-207,679	-118,264	0,097	-0,012
-206,665	18,311	-0,037	-0,021
-205,650	-131,280	-0,100	0,009
-204,636	111,569	0,122	-0,106
-203,621	167,124	0,034	-0,035
-202,606	-97,631	0,069	-0,013
-201,592	-128,134	0,140	0,014
-200,577	-200,000	0,003	-0,053
-199,563	-200,000	-0,003	0,071
-198,548	800,000	0,051	0,159
-197,533	-110,520	0,089	0,013
-196,519	-200,000	-0,005	0,025
-195,504	-7,770	0,077	-0,037
-194,490	107,656	-0,129	-0,110
-193,475	-120,316	0,020	0,002
-192,460	-24,517	0,055	-0,024
-191,446	-56,133	0,078	0,025
-190,431	-159,460	0,157	0,006
-189,417	-200,000	-0,033	0,112
-188,402	-200,000	0,019	-0,183
-187,387	99,905	0,086	-0,072
-186,373	648,892	-0,033	0,061
-185,358	-60,029	0,125	0,038
-184,344	583,119	-0,048	0,086
-183,329	-41,270	0,055	0,020
-182,315	-200,000	0,028	0,107
-181,300	-36,434	0,067	0,026
-180,285	515,087	-0,091	0,154
-179,271	-200,000	0,015	0,094
-178,256	-200,000	0,020	0,077
-177,242	-62,533	0,047	0,014
-176,227	-200,000	0,005	0,050
-175,212	52,884	0,024	0,017
-174,198	-29,343	-0,129	0,053
-173,183	-35,334	-0,074	0,029
-172,169	461,059	-0,015	0,024
-171,154	110,622	-0,065	-0,056
-170,139	236,295	0,036	-0,043
-169,125	-72,684	0,100	0,026
-168,110	231,443	-0,070	-0,083
-167,096	800,000	0,032	-0,071
-166,081	433,137	-0,008	0,013
-165,066	57,916	0,081	-0,057
-164,052	163,111	0,077	0,078
-163,037	-89,652	0,009	-0,002
-162,023	46,027	-0,135	0,090
-161,008	-200,000	-0,017	-0,088
-159,993	-98,245	0,018	0,003
-158,979	-177,702	-0,024	0,000
-157,964	-200,000	0,007	-0,055
-156,950	193,497	-0,146	-0,159
-155,935	12,268	0,064	0,036
-154,920	800,000	0,032	-0,089
-153,906	34,398	0,077	0,048
-152,891	15,158	-0,010	-0,006
-151,877	-64,786	0,130	0,038
-150,862	-47,289	-0,154	-0,054
-149,847	187,109	-0,072	0,077
-148,833	800,000	-0,007	-0,019
-147,818	61,466	0,119	0,085
-146,804	800,000	0,034	0,093
-145,789	96,029	-0,083	0,068
-144,775	15,532	0,042	-0,023
-143,760	800,000	0,018	0,037
-142,745	124,362	0,117	-0,106
-141,731	60,936	-0,006	0,004
-140,716	667,506	-0,037	-0,069
-139,702	-100,395	0,099	-0,018
-138,687	-41,031	0,094	0,035
-137,672	-200,000	-0,016	0,052
-136,658	800,000	-0,041	0,120
-135,643	-200,000	-0,022	0,103
-134,629	-22,230	0,064	0,028
-133,614	-200,000	-0,002	-0,078
-132,599	764,952	-0,035	-0,070
-131,585	-118,084	0,027	0,003
-130,570	111,648	0,029	0,025
-129,556	-200,000	0,006	0,028
-128,541	191,223	0,069	-0,075
-127,526	-16,154	-0,130	-0,059
-126,512	-200,000	-0,015	0,052
-125,497	173,851	0,091	0,094
-124,483	-184,776	0,128	-0,001
-123,468	-200,000	0,019	-0,098
-122,453	-140,772	-0,123	-0,009
-121,439	-147,784	0,090	0,005
-120,424	11,123	-0,050	0,028
-119,410	-200,000	-0,022	0,075
-118,395	98,007	-0,002	0,001
-117,380	402,832	0,054	0,082
-116,366	677,933	-0,037	-0,070
-115,351	21,815	-0,050	-0,029
-114,337	800,000	-0,046	0,142
-113,322	570,632	-0,065	-0,114
-112,307	-59,762	0,065	-0,020
-111,293	-59,381	0,117	-0,036
-110,278	-120,369	-0,061	0,007
-109,264	3,118	0,104	0,054
-108,249	-129,469	-0,115	0,011
-107,234	37,366	-0,128	-0,081
-106,220	-105,520	-0,122	-0,020
-105,205	86,438	0,071	-0,056
-104,191	-100,816	0,085	-0,015
-103,176	0,981	0,065	-0,033
-102,162	64,254	-0,129	0,093
-101,147	502,257	-0,020	-0,034
-100,132	189,234	-0,120	0,129
-99,118	-200,000	-0,018	-0,110
-98,103	49,904	0,067	-0,045
-97,089	336,330	0,041	-0,057
-96,074	167,514	0,042	0,043
-95,059	-81,628	-0,050	0,012
-94,045	-133,672	0,080	-0,007
-93,030	-200,000	0,003	0,033
-92,016	-111,997	0,064	-0,009
-91,001	13,747	0,122	0,068
-89,986	382,449	0,071	0,106
-88,972	145,331	-0,043	0,042
-87,957	-12,353	0,131	0,061
-86,943	148,196	-0,018	-0,017
-85,928	800,000	-0,027	0,061
-84,913	800,000	-0,013	-0,034
-83,899	-200,000	-0,009	-0,043
-82,884	-200,000	-0,022	0,106
-81,870	-19,866	-0,099	-0,044
-80,855	800,000	0,059	-0,136
-79,840	-200,000	-0,041	0,133
-78,826	78,376	-0,074	0,057
-77,811	-22,683	0,057	0,025
-76,797	11,684	-0,108	0,060
-75,782	-42,942	0,202	0,073
-74,767	800,000	0,038	0,100
-73,753	-200,000	0,026	0,157
-72,738	729,857	0,094	0,181
-71,724	214,298	0,057	0,065
-70,709	-200,000	0,009	0,110
-69,694	738,859	-0,015	-0,029
-68,680	-164,070	0,112	-0,004
-67,665	-62,978	0,057	-0,017
-66,651	328,803	0,056	0,077
-65,636	800,000	-0,051	-0,120
-64,622	-200,000	0,012	-0,054
-63,607	800,000	-0,083	-0,176
-62,592	-200,000	0,003	0,064
-61,578	-200,000	-0,005	-0,059
-60,563	-77,540	0,163	-0,040
-59,549	-17,847	-0,078	0,035
-58,534	5,782	-2,110	-1,116
-57,519	-200,000	-0,175	-0,813
-56,505	-200,000	-1,380	-5,066
-55,490	136,914	0,837	0,785
-54,476	800,000	5,266	12,014
-53,461	-200,000	18,694	318,901
-52,446	800,000	741,729	2335,830
-51,432	558,296	1657,533	2878,653
-50,417	111,149	1641,591	1417,710
-49,403	75,422	1291,208	976,065
-48,388	30,271	1031,901	630,310
-47,373	19,957	994,665	573,365
-46,359	17,391	982,371	557,803
-45,344	14,020	978,358	544,411
-44,330	14,348	976,766	544,582
-43,315	13,699	974,933	541,410
-42,300	13,643	973,892	540,625
-41,286	13,634	972,865	540,003
-40,271	13,746	971,808	539,761
-39,257	13,667	971,148	539,116
-38,242	13,661	970,206	538,554
-37,227	13,754	969,463	538,420
-36,213	13,639	968,512	537,497
-35,198	13,625	967,715	536,989
-34,184	13,730	966,793	536,796
-33,169	13,609	966,014	535,948
-32,154	13,672	964,823	535,471
-31,140	13,660	963,929	534,917
-30,125	13,676	963,344	534,620
-29,111	13,692	962,297	534,072
-28,096	13,666	961,812	533,696
-27,082	13,715	961,150	533,468
-26,067	13,702	960,325	532,945
-25,052	13,670	959,636	532,441
-24,038	13,700	958,955	532,137
-23,023	13,669	958,186	531,587
-22,009	13,676	957,663	531,301
-20,994	13,741	956,976	531,109
-19,979	13,671	956,450	530,570
-18,965	13,680	955,714	530,170
-17,950	13,706	955,140	529,913
-16,936	13,620	954,652	529,344
-15,921	13,618	953,696	528,787
-14,906	13,600	953,025	528,337
-13,892	13,621	952,439	528,057
-12,877	13,524	951,985	527,474
-11,863	13,561	951,281	527,181
-10,848	13,583	950,606	526,859
-9,833	13,695	950,032	526,878
-8,819	13,629	949,425	526,306
-7,804	13,533	948,985	525,736
-6,790	13,563	948,307	525,436
-5,775	13,619	947,644	525,225
-4,760	13,657	946,855	524,889
-3,746	13,615	946,454	524,511
-2,731	13,485	945,848	523,741
-1,717	13,438	945,138	523,179
-0,702	13,446	944,428	522,792
0,313	13,243	943,519	522,431
1,327	16,514	941,488	531,621
2,342	25,616	795,899	473,596
3,356	22,008	460,397	268,395
4,371	-4,735	317,218	156,236
5,386	-8,750	299,287	143,287
6,400	-10,784	293,120	138,282
7,415	-11,018	290,657	136,876
8,429	-11,476	289,128	135,691
9,444	-11,523	287,992	135,100
10,459	-11,445	287,516	134,940
11,473	-11,295	286,856	134,765
12,488	-11,321	286,544	134,582
13,502	-11,439	285,878	134,142
14,517	-11,366	285,509	134,027
15,531	-11,440	284,970	133,691
16,546	-11,473	284,534	133,443
17,561	-11,552	284,300	133,244
18,575	-11,522	283,915	133,081
19,590	-11,641	283,561	132,788
20,604	-11,325	283,056	132,845
21,619	-11,516	282,789	132,524
22,634	-11,428	282,482	132,452
23,648	-11,490	281,911	132,113
24,663	-11,482	281,902	132,105
25,677	-11,321	281,460	132,041
26,692	-11,511	281,433	131,833
27,707	-11,419	280,997	131,706
28,721	-11,404	280,709	131,573
29,736	-11,452	280,299	131,324
30,750	-11,584	280,299	131,186
31,765	-11,429	280,125	131,241
32,780	-11,286	279,712	131,172
33,794	-11,520	279,371	130,778
34,809	-11,335	279,186	130,856
35,823	-11,615	278,939	130,461
36,838	-11,522	278,640	130,398
37,853	-11,629	278,475	130,208
38,867	-11,506	278,281	130,222
39,882	-11,520	277,954	130,045
40,896	-11,556	277,786	129,920
41,911	-11,605	277,613	129,781
42,926	-11,581	277,229	129,613
43,940	-11,540	276,948	129,509
44,955	-11,481	276,797	129,482
45,969	-11,700	276,494	129,122
46,984	-11,696	276,229	128,991
47,999	-11,908	276,040	128,692
49,013	-12,020	275,660	128,398
50,028	-11,935	275,561	128,420
51,042	-12,081	275,092	128,054
52,057	-12,162	274,809	127,834
53,071	-12,184	274,640	127,723
54,086	-12,191	274,680	127,724
55,101	-11,990	274,493	127,813
56,115	-11,683	274,189	127,948
57,130	-11,394	274,045	128,139
58,144	-11,518	274,071	128,024
59,159	-11,168	273,451	128,048
60,174	-11,357	273,388	127,832
61,188	-11,225	273,187	127,849
62,203	-11,304	272,915	127,637
63,217	-11,335	272,835	127,560
64,232	-11,239	272,480	127,471
65,247	-11,236	272,339	127,397
66,261	-11,346	271,970	127,111
67,276	-11,465	271,695	126,862
68,290	-11,676	271,534	126,580
69,305	-11,755	271,246	126,361
70,320	-11,786	271,103	126,255
71,334	-11,450	270,860	126,440
72,349	-11,295	270,705	126,499
73,363	-11,238	270,402	126,399
74,378	-11,545	270,345	126,078
75,393	-11,418	270,023	126,034
76,407	-11,426	269,774	125,899
77,422	-11,383	269,666	125,876
78,436	-11,354	269,324	125,732
79,451	-11,377	269,069	125,581
80,466	-11,508	268,784	125,317
81,480	-11,740	268,773	125,089
82,495	-11,613	268,569	125,099
83,509	-11,439	268,343	125,141
84,524	-11,674	268,146	124,823
85,539	-11,722	267,713	124,567
86,553	-11,810	267,618	124,432
87,568	-11,608	267,386	124,496
88,582	-11,557	267,134	124,415
89,597	-11,491	266,806	124,310
90,611	-11,396	266,807	124,386
91,626	-11,313	266,720	124,410
92,641	-11,312	266,448	124,272
93,655	-11,231	266,076	124,161
94,670	-11,646	266,144	123,806
95,684	-11,298	265,700	123,903
96,699	-11,398	265,534	123,725
97,714	-11,498	265,363	123,543
98,728	-11,493	265,064	123,398
99,743	-11,717	264,982	123,147
100,757	-11,880	264,772	122,892
101,772	-11,634	264,542	122,996
102,787	-11,573	264,287	122,921
103,801	-11,644	264,092	122,755
104,816	-11,461	263,988	122,860
105,830	-11,364	263,879	122,885
106,845	-11,364	263,563	122,727
107,860	-11,461	263,465	122,584
108,874	-11,548	263,247	122,394
109,889	-11,507	262,905	122,260
110,903	-11,447	262,732	122,222
111,918	-11,586	262,665	122,057
112,933	-11,482	262,362	121,997
113,947	-11,439	262,262	121,978
114,962	-11,359	261,893	121,867
115,976	-11,506	261,894	121,725
116,991	-11,460	261,587	121,612
118,006	-11,195	261,567	121,827
119,020	-11,294	261,405	121,653
120,035	-11,402	261,178	121,442
121,049	-11,452	261,060	121,331
122,064	-11,311	260,721	121,288
123,079	-11,321	260,477	121,155
124,093	-11,333	260,357	121,078
125,108	-11,537	260,109	120,771
126,122	-11,697	259,758	120,457
127,137	-11,962	259,745	120,207
128,151	-11,610	259,482	120,384
129,166	-11,521	259,253	120,345
130,181	-11,650	259,092	120,146
131,195	-11,610	258,890	120,077
132,210	-11,478	258,772	120,127
133,224	-11,393	258,532	120,080
134,239	-11,403	258,392	119,995
135,254	-11,352	258,107	119,897
136,268	-11,443	257,947	119,732
137,283	-11,684	257,568	119,336
138,297	-11,768	257,489	119,215
139,312	-11,869	257,366	119,059
140,327	-11,512	257,158	119,263
141,341	-11,394	257,057	119,309
142,356	-11,137	256,756	119,381
143,370	-11,194	256,557	119,229
144,385	-11,230	256,492	119,157
145,400	-11,269	256,246	118,998
146,414	-11,160	256,095	119,011
147,429	-11,195	255,801	118,835
148,443	-11,093	255,611	118,823
149,458	-11,167	255,696	118,788
150,473	-11,117	255,466	118,713
151,487	-11,333	255,195	118,391
152,502	-11,147	254,924	118,415
153,516	-11,356	254,746	118,142
154,531	-11,411	254,720	118,073
155,546	-11,176	254,396	118,113
156,560	-11,242	254,254	117,980
157,575	-11,390	254,010	117,730
158,589	-11,333	253,857	117,697
159,604	-11,084	253,727	117,840
160,619	-11,189	253,503	117,635
161,633	-11,069	253,252	117,611
162,648	-11,213	253,278	117,489
163,662	-11,353	253,007	117,234
164,677	-11,244	252,959	117,294
165,692	-11,328	252,710	117,096
166,706	-11,167	252,513	117,132
167,721	-11,406	252,431	116,880
168,735	-11,291	252,146	116,835
169,750	-11,188	251,982	116,836
170,764	-11,227	251,905	116,757
171,779	-11,195	251,794	116,722
172,794	-11,079	251,638	116,738
173,808	-11,218	251,331	116,467
174,823	-11,740	251,070	115,894
175,837	-11,562	250,911	115,962
176,852	-11,273	250,747	116,119
177,867	-11,203	250,654	116,125
178,881	-11,035	250,582	116,223
179,896	-11,082	250,312	116,047
180,910	-11,306	250,221	115,806
181,925	-11,160	249,929	115,784
182,940	-11,229	249,870	115,688
183,954	-11,278	249,799	115,604
184,969	-11,202	249,534	115,535
185,983	-10,959	249,186	115,567
186,998	-10,997	249,186	115,525
188,013	-11,291	249,047	115,204
189,027	-11,183	248,674	115,112
190,042	-11,085	248,700	115,195
191,056	-11,019	248,442	115,120
192,071	-11,036	248,145	114,958
193,086	-11,238	248,058	114,739
194,100	-11,153	247,827	114,693
195,115	-11,267	247,750	114,552
196,129	-11,007	247,485	114,636
197,144	-11,000	247,225	114,511
198,159	-11,362	247,191	114,184
199,173	-10,997	246,863	114,326
200,188	-11,097	246,697	114,155
201,202	-11,452	246,461	113,742
202,217	-11,572	246,244	113,532
203,232	-11,755	245,905	113,214
204,246	-11,301	246,002	113,625
205,261	-10,933	245,893	113,868
206,275	-11,563	245,675	113,237
207,290	-6,684	247,742	118,239
208,304	1,284	250,118	126,035
209,319	4,273	250,782	128,859
210,334	4,745	250,846	129,275
211,348	4,988	250,763	129,424
212,363	5,135	250,637	129,469
213,377	5,318	250,506	129,543
214,392	5,188	250,307	129,321
215,407	5,180	250,171	129,232
216,421	5,070	249,925	129,002
217,436	5,180	249,978	129,109
218,450	5,340	249,843	129,161
219,465	5,050	249,508	128,736
220,480	4,743	249,360	128,393
221,494	4,701	249,253	128,292
222,509	4,876	248,959	128,273
223,523	4,790	248,781	128,099
224,538	4,480	248,375	127,623
225,553	4,627	248,430	127,761
226,567	4,873	248,189	127,829
227,582	4,762	248,075	127,667
228,596	4,827	247,924	127,632
229,611	4,418	247,681	127,158
230,626	4,173	247,479	126,841
231,640	4,403	247,274	126,914
232,655	4,494	247,281	126,981
233,669	4,458	247,074	126,834
234,684	4,379	246,794	126,614
235,699	4,756	246,845	126,938
236,713	4,934	246,689	126,993
237,728	4,673	246,326	126,581
238,742	4,433	246,175	126,296
239,757	4,074	245,971	125,886
240,772	4,287	245,879	126,002
241,786	4,388	245,721	125,992
242,801	4,420	245,550	125,919
243,815	4,503	245,295	125,846
244,830	4,577	245,296	125,895
245,844	4,549	245,190	125,807
246,859	4,671	244,963	125,778
247,874	4,295	244,784	125,369
248,888	4,482	244,553	125,391
249,903	4,339	244,659	125,318
250,917	4,616	244,520	125,461
251,932	4,604	244,434	125,396
252,947	4,622	244,207	125,283
253,961	4,569	243,954	125,099
254,976	4,586	243,727	124,985
255,990	4,745	243,573	125,024
257,005	4,389	243,395	124,634
258,020	4,145	243,246	124,350
259,034	4,406	243,073	124,460
260,049	4,649	242,865	124,538
261,063	4,299	242,861	124,243
262,078	4,276	242,659	124,111
263,093	4,625	242,581	124,340
264,107	4,603	242,370	124,204
265,122	4,281	242,150	123,821
266,136	4,608	241,959	123,974
267,151	4,852	241,988	124,174
268,166	4,459	241,629	123,664
269,180	4,488	241,379	123,548
270,195	4,881	241,484	123,905
271,209	5,017	241,458	123,990
272,224	4,532	241,054	123,384
273,239	4,128	240,739	122,889
274,253	4,195	240,760	122,942
275,268	4,434	240,711	123,098
276,282	4,463	240,526	123,015
277,297	4,222	240,287	122,690
278,312	4,286	240,233	122,702
279,326	4,420	239,992	122,675
280,341	4,539	239,949	122,736
281,355	4,519	239,723	122,594
282,370	4,575	239,640	122,585
283,384	4,344	239,528	122,333
284,399	4,462	239,188	122,242
285,414	4,102	238,980	121,840
286,428	4,365	238,898	121,995
287,443	4,265	238,921	121,917
288,457	4,598	238,682	122,047
289,472	4,737	238,512	122,060
290,487	4,438	238,319	121,714
291,501	4,321	238,146	121,523
292,516	4,299	237,942	121,390
293,530	4,329	237,656	121,257
294,545	4,397	237,789	121,368
295,560	4,609	237,471	121,361
296,574	4,372	237,348	121,101
297,589	4,395	237,173	121,020
298,603	4,607	237,231	121,205
299,618	4,596	237,088	121,112
300,633	4,807	236,881	121,160
301,647	4,613	236,806	120,960
302,662	4,934	236,772	121,183
303,676	4,867	236,529	120,995
304,691	4,831	236,300	120,839
305,706	4,908	236,281	120,879
306,720	4,969	235,982	120,763
307,735	4,516	236,021	120,418
308,749	4,700	235,629	120,351
309,764	4,495	235,443	120,086
310,779	4,332	235,190	119,820
311,793	4,030	235,131	119,545
312,808	4,263	234,870	119,582
313,822	4,197	234,633	119,399
314,837	4,108	234,547	119,276
315,852	4,147	234,533	119,288
316,866	4,740	234,572	119,756
317,881	5,002	234,385	119,853
318,895	4,830	234,310	119,671
319,910	4,931	234,105	119,633
320,925	4,453	233,646	119,020
321,939	3,969	233,688	118,658
322,954	4,434	233,469	118,894
323,968	4,665	233,370	119,011
324,983	4,546	233,476	118,962
325,997	4,880	233,100	119,017
327,012	4,598	233,096	118,788
328,027	4,582	232,821	118,625
329,041	4,775	232,687	118,694
330,056	5,284	232,795	119,129
331,070	5,288	232,712	119,079
332,085	5,058	232,297	118,680
333,100	4,560	232,148	118,212
334,114	4,638	232,072	118,223
335,129	5,000	231,928	118,415
336,143	5,327	231,642	118,508
337,158	4,948	231,520	118,146
338,173	4,573	231,313	117,744
339,187	4,390	231,289	117,582
340,202	4,749	231,163	117,781
341,216	4,647	230,985	117,602
342,231	4,536	230,712	117,368
343,246	4,405	230,702	117,253
344,260	4,827	230,451	117,436
345,275	4,968	230,423	117,518
346,289	4,637	230,401	117,245
347,304	4,920	230,209	117,351
348,319	4,961	230,126	117,329
349,333	4,687	229,756	116,923
350,348	4,465	229,601	116,666
351,362	4,514	229,524	116,653
352,377	4,407	229,381	116,490
353,392	4,400	229,200	116,382
354,406	4,106	229,132	116,116
355,421	195,378	1317,023	1391,801
356,435	156,728	1449,515	1391,763
