DTS Sentinel unit serial number:	SN410029Multiplexer serial number:	ORYXHardware model number:	OX2-SRSoftware version number:	ORYX F/W v4,00 Oryx Data Collector v3.7.2.0data status	okinstallation	B5 Nyhavnadifferential loss correction	single-endedforward channel	channel 2reverse channel	N/Adate	2023/12/13time	12:42:13forward acquisition time	300,00reverse acquisition time	0,00gamma	499,1914k internal	0,3161k external	0,3161temperature offset calibration	1,0000default loss term (dB/km)	0,3820temperature slope calibration	1,0000multiplexer offset coefficient	1,0000multiplexer slope coefficient	1,0000fibre end	0,00T internal ref (°C)	14,21T ext. ref 1 (°C)	-1,59T ext. ref 2 (°C)	-1,87length (m)	temperature (°C)	Stokes	anti-Stokes-744,400	343,686	0,114	0,166
-743,385	-174,136	-0,270	0,006
-742,371	145,557	0,036	-0,036
-741,356	-107,614	-0,238	0,038
-740,342	380,997	0,082	0,125
-739,327	-140,135	-0,245	0,019
-738,312	-24,409	0,096	-0,042
-737,298	-86,840	-0,251	0,056
-736,283	-116,295	0,192	-0,026
-735,269	-135,863	-0,340	0,029
-734,254	800,000	0,040	0,097
-733,239	-5,804	-0,467	-0,235
-732,225	-28,332	0,139	0,059
-731,210	-200,000	0,003	-0,022
-730,196	146,574	-0,077	0,076
-729,181	368,291	-0,053	-0,079
-728,167	43,596	0,076	0,051
-727,152	103,451	0,073	0,063
-726,137	800,000	-0,043	-0,104
-725,123	52,388	-0,090	-0,063
-724,108	520,283	0,022	-0,039
-723,094	59,698	-0,097	-0,071
-722,079	-200,000	-0,020	-0,071
-721,064	510,173	-0,043	-0,074
-720,050	-25,137	-0,112	-0,048
-719,035	118,858	0,028	-0,025
-718,021	-70,047	-0,096	-0,027
-717,006	-46,059	-0,072	-0,026
-715,991	160,765	-0,054	-0,055
-714,977	800,000	0,020	-0,047
-713,962	230,579	-0,045	-0,054
-712,948	758,958	-0,025	-0,050
-711,933	9,908	0,054	0,030
-710,918	800,000	0,029	0,075
-709,904	-26,637	0,043	0,018
-708,889	604,443	0,041	-0,075
-707,875	114,528	-0,033	0,029
-706,860	-200,000	-0,012	-0,060
-705,845	-200,000	0,012	-0,051
-704,831	786,275	-0,056	0,113
-703,816	-11,435	-0,031	0,015
-702,802	-200,000	-0,012	-0,181
-701,787	19,009	0,036	0,021
-700,772	-61,977	-0,120	0,037
-699,758	107,380	-0,014	-0,012
-698,743	23,725	0,114	0,069
-697,729	-200,000	-0,010	-0,083
-696,714	88,497	-0,066	0,054
-695,699	-200,000	0,001	0,020
-694,685	272,986	-0,069	0,090
-693,670	-0,356	0,161	-0,084
-692,656	568,513	0,043	-0,078
-691,641	61,396	-0,113	0,082
-690,627	99,445	0,059	-0,050
-689,612	-54,977	-0,124	0,041
-688,597	-82,537	-0,094	-0,022
-687,583	213,558	-0,056	-0,065
-686,568	30,753	-0,169	-0,106
-685,554	89,534	0,022	0,018
-684,539	317,725	0,032	-0,045
-683,524	-144,518	-0,098	-0,007
-682,510	302,380	0,084	0,115
-681,495	512,290	0,044	-0,075
-680,481	237,995	0,035	-0,042
-679,466	92,294	-0,034	0,028
-678,451	-85,738	0,076	-0,017
-677,437	-200,000	-0,004	0,042
-676,422	1,858	-0,081	0,043
-675,408	-200,000	-0,016	-0,111
-674,393	-200,000	0,004	-0,066
-673,378	239,957	0,025	0,031
-672,364	-200,000	0,005	0,023
-671,349	-140,208	0,057	-0,004
-670,335	61,656	0,102	0,074
-669,320	800,000	0,018	-0,052
-668,305	83,242	-0,057	-0,046
-667,291	-200,000	-0,030	-0,150
-666,276	-200,000	0,023	-0,098
-665,262	34,990	-0,022	-0,014
-664,247	112,850	-0,114	-0,102
-663,232	-27,430	-0,035	0,015
-662,218	-147,876	0,060	-0,004
-661,203	800,000	-0,026	-0,065
-660,189	800,000	0,031	0,100
-659,174	-200,000	-0,030	-0,120
-658,159	340,482	-0,035	0,050
-657,145	37,015	-0,100	-0,065
-656,130	-200,000	-0,007	0,032
-655,116	229,529	-0,062	0,074
-654,101	142,200	0,104	0,101
-653,086	320,496	-0,045	-0,063
-652,072	92,872	-0,094	-0,078
-651,057	379,192	0,030	-0,046
-650,043	-200,000	-0,029	0,127
-649,028	250,552	0,093	0,117
-648,014	-172,104	0,053	-0,001
-646,999	-66,619	-0,038	0,011
-645,984	-200,000	-0,001	-0,097
-644,970	69,561	0,020	-0,015
-643,955	554,602	0,055	-0,098
-642,941	111,899	-0,042	0,037
-641,926	98,599	-0,073	0,061
-640,911	800,000	0,019	0,061
-639,897	202,017	0,095	0,108
-638,882	800,000	0,078	0,206
-637,868	-200,000	0,008	-0,041
-636,853	800,000	-0,014	-0,040
-635,838	-200,000	0,001	-0,034
-634,824	800,000	-0,030	-0,071
-633,809	675,074	-0,059	-0,112
-632,795	745,344	-0,038	-0,075
-631,780	542,956	-0,016	-0,028
-630,765	-200,000	-0,026	-0,173
-629,751	-149,190	-0,104	-0,006
-628,736	42,266	-0,086	0,057
-627,722	-200,000	0,012	0,119
-626,707	-200,000	-0,001	-0,009
-625,692	39,507	0,033	-0,022
-624,678	800,000	-0,015	0,034
-623,663	33,214	-0,010	-0,006
-622,649	800,000	-0,014	-0,032
-621,634	-28,538	0,105	-0,044
-620,619	167,583	-0,051	-0,053
-619,605	-13,346	0,088	-0,042
-618,590	-48,834	-0,040	0,014
-617,576	-35,778	0,180	-0,071
-616,561	-1,615	-0,157	-0,081
-615,546	-125,494	-0,094	-0,010
-614,532	-100,847	-0,120	-0,021
-613,517	-43,239	0,102	-0,038
-612,503	-200,000	0,005	0,121
-611,488	-92,103	0,063	0,013
-610,474	-125,812	-0,031	0,003
-609,459	800,000	0,024	-0,068
-608,444	128,613	0,050	0,047
-607,430	-36,428	-0,122	0,048
-606,415	-200,000	0,019	0,111
-605,401	-57,473	0,088	0,028
-604,386	164,376	0,070	-0,072
-603,371	311,299	-0,075	-0,104
-602,357	-37,186	0,073	0,028
-601,342	-75,033	-0,137	0,036
-600,328	800,000	0,034	-0,077
-599,313	800,000	-0,024	-0,053
-598,298	-200,000	0,002	0,047
-597,284	480,216	0,032	0,053
-596,269	57,150	0,091	0,065
-595,255	707,353	0,033	0,065
-594,240	-200,000	0,010	-0,156
-593,225	-200,000	0,028	-0,116
-592,211	10,241	-0,104	-0,058
-591,196	-141,020	-0,074	-0,005
-590,182	71,588	-0,049	-0,037
-589,167	-200,000	-0,013	-0,117
-588,152	25,475	-0,104	0,063
-587,138	119,846	-0,099	0,090
-586,123	-200,000	0,004	0,097
-585,109	-117,553	-0,097	0,013
-584,094	759,592	-0,014	-0,028
-583,079	800,000	-0,021	-0,060
-582,065	-23,919	-0,114	0,050
-581,050	800,000	0,019	0,052
-580,036	-43,253	-0,052	-0,019
-579,021	-200,000	0,006	-0,038
-578,006	-200,000	0,005	0,019
-576,992	-200,000	0,013	-0,043
-575,977	-200,000	0,023	0,096
-574,963	26,391	-0,039	-0,024
-573,948	-67,269	0,113	0,032
-572,934	201,287	-0,049	0,055
-571,919	-200,000	0,001	0,193
-570,904	-200,000	0,004	-0,035
-569,890	-114,270	-0,167	0,023
-568,875	182,692	0,094	0,102
-567,861	-113,910	0,036	0,005
-566,846	104,988	0,023	0,020
-565,831	-200,000	0,013	-0,051
-564,817	-40,275	-0,014	-0,005
-563,802	502,421	-0,052	-0,089
-562,788	-200,000	0,008	-0,113
-561,773	-66,730	0,036	0,010
-560,758	-200,000	-0,012	0,129
-559,744	-48,127	0,166	0,058
-558,729	-200,000	-0,021	0,169
-557,715	84,244	-0,082	0,065
-556,700	284,226	-0,023	0,031
-555,685	-58,537	0,086	-0,027
-554,671	-64,128	-0,049	0,015
-553,656	-200,000	0,010	0,201
-552,642	380,088	0,053	-0,079
-551,627	268,991	0,020	0,026
-550,612	637,941	-0,110	0,206
-549,598	6,326	-0,042	0,023
-548,583	513,325	-0,039	0,067
-547,569	-200,000	0,021	-0,074
-546,554	7,397	0,066	0,036
-545,539	-200,000	-0,007	-0,026
-544,525	-200,000	0,042	0,176
-543,510	-200,000	-0,001	0,064
-542,496	-25,868	0,088	0,038
-541,481	-10,677	-0,092	-0,044
-540,466	191,474	-0,086	-0,095
-539,452	800,000	0,047	0,122
-538,437	-50,909	-0,026	-0,009
-537,423	139,275	0,096	-0,093
-536,408	250,425	-0,080	0,100
-535,393	-94,458	0,083	0,016
-534,379	-117,448	-0,085	-0,011
-533,364	176,091	-0,051	-0,054
-532,350	180,301	0,092	0,099
-531,335	-146,357	0,076	0,005
-530,321	800,000	-0,042	0,108
-529,306	640,239	-0,082	-0,153
-528,291	67,717	-0,028	-0,021
-527,277	34,990	-0,125	-0,080
-526,262	-72,207	-0,125	-0,034
-525,248	800,000	0,024	-0,052
-524,233	28,243	0,058	-0,036
-523,218	90,086	0,050	-0,041
-522,204	343,270	-0,031	-0,044
-521,189	-58,435	0,145	-0,046
-520,175	-63,879	-0,112	0,033
-519,160	86,688	-0,046	0,037
-518,145	-200,000	-0,001	0,046
-517,131	-122,878	0,067	-0,008
-516,116	337,889	0,055	-0,079
-515,102	376,875	-0,067	-0,101
-514,087	-11,417	-0,054	-0,026
-513,072	16,370	0,120	-0,069
-512,058	800,000	-0,021	-0,063
-511,043	-6,397	0,089	0,044
-510,029	-97,439	0,100	0,019
-509,014	220,156	0,017	0,020
-507,999	-200,000	-0,011	-0,049
-506,985	29,553	0,053	-0,033
-505,970	-79,355	-0,061	-0,015
-504,956	800,000	-0,028	-0,060
-503,941	800,000	0,065	-0,143
-502,926	43,139	-0,042	-0,028
-501,912	446,461	0,086	-0,138
-500,897	15,290	-0,039	-0,022
-499,883	58,504	-0,011	-0,008
-498,868	795,134	0,038	-0,077
-497,853	800,000	0,050	-0,151
-496,839	800,000	-0,040	-0,117
-495,824	72,661	0,076	0,058
-494,810	89,142	0,105	0,085
-493,795	-44,816	-0,055	0,020
-492,781	140,402	0,065	-0,063
-491,766	135,141	0,029	0,027
-490,751	-200,000	0,003	-0,054
-489,737	-200,000	-0,018	0,107
-488,722	64,679	0,022	0,016
-487,708	39,688	0,143	0,093
-486,693	-200,000	-0,001	0,117
-485,678	-27,154	-0,033	-0,014
-484,664	800,000	0,010	0,023
-483,649	-200,000	-0,019	-0,179
-482,635	23,128	-0,160	-0,096
-481,620	556,904	0,032	-0,056
-480,605	-200,000	-0,036	0,153
-479,591	-200,000	0,034	0,137
-478,576	-200,000	-0,021	0,104
-477,562	79,218	-0,043	-0,033
-476,547	-200,000	0,017	-0,057
-475,532	599,331	0,031	0,057
-474,518	470,720	-0,039	-0,064
-473,503	-76,095	-0,149	-0,038
-472,489	87,735	-0,049	-0,040
-471,474	241,496	-0,033	-0,041
-470,459	346,629	0,110	-0,158
-469,445	800,000	0,019	0,039
-468,430	-57,379	0,044	0,014
-467,416	-200,000	0,042	-0,182
-466,401	319,436	0,053	-0,074
-465,386	-162,625	0,162	0,006
-464,372	35,269	-0,052	0,033
-463,357	554,274	0,042	-0,074
-462,343	-200,000	-0,020	-0,153
-461,328	-200,000	-0,008	-0,101
-460,313	800,000	0,017	-0,056
-459,299	-72,763	0,076	-0,020
-458,284	-52,071	-0,093	-0,031
-457,270	31,255	0,098	0,061
-456,255	329,318	0,011	0,016
-455,241	132,668	0,093	-0,088
-454,226	800,000	0,028	-0,074
-453,211	-200,000	0,029	-0,150
-452,197	-200,000	0,012	0,097
-451,182	-200,000	0,004	0,048
-450,168	-200,000	0,003	0,118
-449,153	137,894	0,040	0,038
-448,138	132,387	0,043	-0,040
-447,124	-165,768	-0,054	-0,002
-446,109	-135,798	0,102	-0,009
-445,095	29,046	-0,085	0,052
-444,080	135,246	0,119	0,113
-443,065	2,924	0,093	-0,049
-442,051	31,872	-0,155	0,097
-441,036	2,242	0,117	-0,061
-440,022	-200,000	-0,012	-0,050
-439,007	390,166	-0,045	-0,068
-437,992	1,868	0,101	-0,053
-436,978	-200,000	-0,033	0,118
-435,963	366,783	-0,077	0,114
-434,949	-63,070	-0,151	-0,045
-433,934	-200,000	-0,004	-0,018
-432,919	-41,223	0,133	0,050
-431,905	800,000	-0,024	0,071
-430,890	-200,000	0,012	0,049
-429,876	800,000	0,038	0,096
-428,861	145,675	0,010	-0,009
-427,846	-200,000	-0,008	-0,053
-426,832	-72,996	-0,109	0,029
-425,817	800,000	0,022	0,066
-424,803	101,630	-0,073	-0,062
-423,788	-9,915	0,071	-0,034
-422,773	-3,391	-0,138	0,070
-421,759	79,337	-0,055	-0,043
-420,744	-66,981	-0,115	-0,033
-419,730	319,063	-0,075	-0,103
-418,715	-41,161	0,102	-0,038
-417,701	145,644	0,072	0,071
-416,686	-122,612	0,062	-0,007
-415,671	48,731	0,015	-0,010
-414,657	-190,140	0,239	-0,002
-413,642	800,000	-0,005	0,013
-412,628	78,233	-0,038	-0,029
-411,613	800,000	0,053	0,123
-410,598	18,199	0,074	-0,043
-409,584	-200,000	-0,047	-0,240
-408,569	344,601	0,048	-0,069
-407,555	138,026	0,031	-0,029
-406,540	799,588	-0,033	-0,066
-405,525	798,104	-0,020	0,040
-404,511	-200,000	0,019	0,113
-403,496	-24,750	0,073	0,031
-402,482	-200,000	0,003	0,055
-401,467	-13,825	0,028	0,013
-400,452	-51,357	0,026	0,009
-399,438	507,755	-0,047	0,080
-398,423	-65,888	0,073	-0,021
-397,409	241,309	0,043	0,052
-396,394	-113,992	0,083	-0,012
-395,379	104,651	0,050	-0,043
-394,365	-200,000	-0,017	0,103
-393,350	143,704	-0,144	-0,139
-392,336	439,018	-0,088	0,140
-391,321	565,884	0,048	-0,086
-390,306	28,546	0,034	0,021
-389,292	-153,766	-0,071	0,003
-388,277	-42,753	0,075	0,028
-387,263	16,410	-0,070	0,040
-386,248	-200,000	0,003	-0,015
-385,233	35,762	-0,129	0,082
-384,219	325,578	0,006	0,008
-383,204	642,866	0,027	-0,051
-382,190	-123,692	0,097	0,011
-381,175	2,750	-0,094	-0,050
-380,160	106,439	0,144	-0,124
-379,146	-74,168	0,030	-0,008
-378,131	150,643	-0,015	0,015
-377,117	-112,261	-0,021	-0,003
-376,102	-88,561	-0,025	0,005
-375,088	-74,098	-0,149	0,039
-374,073	35,048	0,117	-0,074
-373,058	800,000	0,030	-0,083
-372,044	559,348	0,018	-0,032
-371,029	367,463	0,051	0,074
-370,015	-72,844	0,018	0,005
-369,000	64,842	-0,046	-0,034
-367,985	360,111	0,040	-0,058
-366,971	393,000	-0,041	-0,062
-365,956	307,512	-0,038	-0,052
-364,942	800,000	0,027	0,067
-363,927	104,994	0,022	0,019
-362,912	-72,554	0,055	0,015
-361,898	-102,799	-0,185	0,032
-360,883	259,025	0,096	-0,120
-359,869	9,382	-0,140	-0,076
-358,854	-101,418	0,065	0,011
-357,839	497,512	-0,011	0,019
-356,825	63,353	0,064	-0,046
-355,810	293,666	-0,023	0,031
-354,796	196,235	-0,008	0,008
-353,781	188,499	-0,138	0,150
-352,766	-200,000	0,007	0,073
-351,752	38,033	0,111	0,071
-350,737	-200,000	0,037	0,161
-349,723	504,301	0,042	0,070
-348,708	314,760	0,063	0,087
-347,693	800,000	-0,046	-0,113
-346,679	-200,000	-0,010	-0,150
-345,664	112,470	-0,078	0,069
-344,650	537,893	0,040	-0,070
-343,635	422,426	-0,069	0,108
-342,620	183,375	-0,015	-0,016
-341,606	504,891	0,061	0,102
-340,591	188,739	-0,088	-0,095
-339,577	143,097	-0,028	-0,027
-338,562	-200,000	0,000	0,107
-337,548	-126,933	0,093	0,010
-336,533	176,616	0,075	0,079
-335,518	-200,000	0,004	-0,065
-334,504	-200,000	-0,010	0,098
-333,489	-200,000	-0,027	-0,111
-332,475	-98,290	-0,061	0,011
-331,460	-200,000	0,015	0,069
-330,445	-54,316	-0,073	0,024
-329,431	190,394	0,139	0,152
-328,416	-74,123	0,043	0,011
-327,402	534,933	-0,020	0,034
-326,387	-191,575	-0,043	-0,000
-325,372	-200,000	0,011	0,095
-324,358	-51,031	-0,073	-0,025
-323,343	561,477	-0,033	0,058
-322,329	-200,000	0,006	-0,047
-321,314	-200,000	-0,016	-0,113
-320,299	-102,305	0,047	0,008
-319,285	309,981	0,019	0,026
-318,270	10,877	-0,120	0,066
-317,256	328,566	-0,042	0,058
-316,241	-200,000	0,008	0,098
-315,226	45,560	0,032	-0,022
-314,212	800,000	0,074	0,180
-313,197	-94,752	-0,056	-0,011
-312,183	-200,000	0,004	-0,088
-311,168	-177,424	-0,072	0,001
-310,153	432,511	0,031	-0,048
-309,139	-176,037	-0,123	-0,002
-308,124	-172,291	0,147	-0,003
-307,110	800,000	0,074	0,188
-306,095	473,717	-0,016	-0,027
-305,080	289,783	-0,025	-0,033
-304,066	89,054	-0,042	0,034
-303,051	303,063	-0,008	0,010
-302,037	78,453	-0,047	-0,036
-301,022	4,053	0,068	-0,036
-300,008	-200,000	-0,023	0,125
-298,993	311,473	-0,045	0,062
-297,978	52,377	-0,168	-0,116
-296,964	-96,084	-0,084	-0,016
-295,949	-200,000	0,028	-0,095
-294,935	127,307	-0,090	-0,083
-293,920	-200,000	-0,015	-0,050
-292,905	-31,652	0,095	0,038
-291,891	-200,000	0,021	0,130
-290,876	-200,000	0,022	0,164
-289,862	-200,000	-0,009	0,137
-288,847	-63,529	0,132	0,039
-287,832	800,000	-0,045	-0,116
-286,818	-200,000	0,003	-0,067
-285,803	-53,573	0,055	-0,018
-284,789	43,003	-0,030	-0,020
-283,774	-200,000	-0,021	0,097
-282,759	1,069	0,059	0,030
-281,745	336,174	-0,063	-0,089
-280,730	160,125	-0,063	0,064
-279,716	758,782	0,014	0,027
-278,701	-85,688	-0,022	0,005
-277,686	800,000	0,068	0,153
-276,672	31,885	0,046	0,028
-275,657	32,085	0,097	-0,060
-274,643	-102,540	0,066	-0,011
-273,628	433,361	-0,041	0,065
-272,613	-125,303	-0,048	-0,005
-271,599	-200,000	0,015	0,073
-270,584	16,228	-0,147	-0,084
-269,570	208,892	-0,045	0,051
-268,555	41,162	-0,061	0,040
-267,540	800,000	0,050	0,104
-266,526	214,853	-0,105	-0,120
-265,511	168,079	-0,038	0,039
-264,497	-133,514	0,102	0,009
-263,482	247,519	-0,038	-0,046
-262,467	-200,000	0,014	0,126
-261,453	395,530	0,031	-0,046
-260,438	-200,000	-0,064	-0,217
-259,424	374,080	-0,053	-0,078
-258,409	92,016	-0,091	-0,074
-257,395	-7,728	-0,061	0,030
-256,380	-200,000	0,008	0,026
-255,365	800,000	-0,025	0,059
-254,351	105,789	-0,012	0,010
-253,336	-124,140	-0,152	-0,017
-252,322	-124,382	-0,084	0,009
-251,307	124,757	0,049	-0,045
-250,292	1,758	-0,062	0,032
-249,278	7,152	0,038	0,020
-248,263	-54,365	0,031	0,010
-247,249	-200,000	-0,006	-0,103
-246,234	204,818	-0,186	-0,209
-245,219	-200,000	0,006	-0,091
-244,205	187,322	-0,068	0,073
-243,190	-200,000	-0,024	-0,103
-242,176	-200,000	0,049	0,169
-241,161	-52,314	0,113	0,037
-240,146	-23,677	-0,045	0,019
-239,132	-69,355	-0,112	-0,031
-238,117	101,673	0,062	-0,052
-237,103	800,000	-0,030	-0,081
-236,088	-200,000	-0,022	-0,082
-235,073	171,743	0,045	-0,046
-234,059	-200,000	-0,034	0,164
-233,044	-200,000	0,001	0,012
-232,030	-175,454	-0,071	0,001
-231,015	634,249	-0,112	-0,206
-230,000	191,905	0,040	0,043
-228,986	-156,989	0,070	0,003
-227,971	800,000	0,051	0,133
-226,957	-200,000	0,005	0,073
-225,942	-200,000	-0,013	0,055
-224,927	37,043	0,074	0,047
-223,913	701,575	-0,031	-0,060
-222,898	41,119	0,018	-0,012
-221,884	800,000	0,037	0,118
-220,869	800,000	0,022	-0,045
-219,855	100,444	0,044	0,037
-218,840	11,718	0,119	-0,066
-217,825	-36,470	0,004	-0,001
-216,811	578,022	-0,066	0,118
-215,796	34,632	-0,016	0,010
-214,782	-105,698	-0,055	0,009
-213,767	800,000	0,035	-0,074
-212,752	410,520	0,061	0,094
-211,738	247,839	0,081	-0,099
-210,723	-98,553	0,071	-0,013
-209,709	-200,000	0,017	-0,144
-208,694	667,266	-0,069	-0,129
-207,679	43,959	-0,009	-0,006
-206,665	282,296	0,036	0,046
-205,650	501,131	-0,032	0,054
-204,636	415,555	0,055	0,085
-203,621	154,713	-0,063	-0,062
-202,606	166,367	0,142	-0,146
-201,592	-200,000	-0,010	-0,231
-200,577	57,834	0,090	0,063
-199,563	-50,400	0,099	0,034
-198,548	29,804	-0,076	0,047
-197,533	-91,906	0,063	0,013
-196,519	409,653	-0,065	0,100
-195,504	52,366	-0,049	-0,034
-194,490	800,000	-0,018	-0,048
-193,475	800,000	0,034	-0,070
-192,460	-200,000	0,030	0,115
-191,446	-200,000	0,018	0,068
-190,431	90,835	-0,052	0,042
-189,417	-200,000	0,011	0,077
-188,402	426,732	0,049	0,077
-187,387	601,118	-0,034	-0,061
-186,373	-200,000	0,008	0,074
-185,358	-81,732	0,097	-0,023
-184,344	-101,250	0,115	0,020
-183,329	-103,542	-0,082	0,014
-182,315	373,178	-0,037	-0,054
-181,300	67,427	-0,043	0,032
-180,285	-28,994	0,097	-0,040
-179,271	-200,000	-0,017	-0,095
-178,256	127,959	-0,032	0,029
-177,242	368,996	-0,015	0,023
-176,227	3,724	0,050	0,026
-175,212	516,686	0,049	-0,083
-174,198	-111,187	-0,030	0,004
-173,183	445,669	0,031	0,049
-172,169	70,437	-0,054	-0,040
-171,154	371,198	0,047	0,069
-170,139	-152,236	0,055	0,003
-169,125	800,000	0,030	0,074
-168,110	149,548	0,020	-0,019
-167,096	27,409	-0,104	0,063
-166,081	141,458	-0,037	-0,036
-165,066	-106,096	-0,065	0,010
-164,052	-200,000	-0,024	-0,091
-163,037	-20,494	0,099	0,043
-162,023	800,000	0,013	-0,039
-161,008	-79,177	0,079	-0,019
-159,993	-200,000	-0,014	-0,053
-158,979	-55,074	0,011	-0,004
-157,964	-200,000	-0,018	-0,074
-156,950	69,783	-0,098	-0,072
-155,935	-200,000	-0,012	0,043
-154,920	-200,000	-0,017	-0,091
-153,906	-105,205	-0,059	-0,010
-152,891	188,731	-0,043	0,046
-151,877	-200,000	0,005	-0,103
-150,862	255,626	-0,061	0,075
-149,847	800,000	0,047	-0,108
-148,833	800,000	-0,026	0,055
-147,818	800,000	0,043	0,111
-146,804	-200,000	0,002	0,068
-145,789	-173,821	0,071	-0,001
-144,775	-200,000	0,005	0,047
-143,760	-200,000	0,008	-0,027
-142,745	800,000	-0,003	0,009
-141,731	62,229	0,057	-0,041
-140,716	-7,569	-0,036	0,017
-139,702	-200,000	-0,013	0,153
-138,687	51,247	-0,126	0,086
-137,672	-121,610	0,032	-0,004
-136,658	-174,012	0,040	0,001
-135,643	-200,000	0,002	-0,038
-134,629	800,000	0,054	-0,131
-133,614	375,146	0,054	0,079
-132,599	2,204	0,045	-0,023
-131,585	-200,000	-0,012	0,063
-130,570	227,141	-0,016	-0,019
-129,556	-119,035	-0,159	-0,020
-128,541	-51,791	0,052	0,017
-127,526	77,251	-0,062	-0,047
-126,512	-200,000	0,021	-0,083
-125,497	203,696	0,045	0,051
-124,483	-200,000	0,024	0,101
-123,468	-61,662	-0,043	-0,013
-122,453	157,293	-0,062	0,062
-121,439	-185,329	0,088	-0,001
-120,424	152,348	-0,016	0,016
-119,410	-200,000	-0,006	0,027
-118,395	381,738	0,062	0,092
-117,380	-200,000	-0,000	-0,064
-116,366	65,043	-0,065	0,047
-115,351	800,000	0,022	0,055
-114,337	26,210	-0,117	0,070
-113,322	227,582	0,084	-0,098
-112,307	63,463	-0,053	-0,038
-111,293	-4,160	0,088	0,044
-110,278	-20,801	-0,103	0,045
-109,264	582,660	-0,024	-0,043
-108,249	18,778	0,091	-0,052
-107,234	-75,700	-0,044	0,011
-106,220	-200,000	-0,019	-0,140
-105,205	107,785	0,079	0,068
-104,191	-200,000	0,012	0,088
-103,176	800,000	0,015	0,044
-102,162	-200,000	-0,006	-0,157
-101,147	800,000	0,016	0,048
-100,132	-200,000	0,004	-0,101
-99,118	375,025	-0,081	-0,118
-98,103	-19,342	0,096	-0,042
-97,089	-200,000	0,016	0,129
-96,074	214,911	-0,080	0,091
-95,059	101,890	-0,070	-0,059
-94,045	-200,000	0,005	0,045
-93,030	-32,608	0,066	-0,026
-92,016	-200,000	-0,051	-0,198
-91,001	87,764	-0,039	0,031
-89,986	95,690	0,082	0,067
-88,972	290,774	0,046	0,061
-87,957	-106,640	-0,019	-0,003
-86,943	261,586	-0,103	0,128
-85,928	-200,000	0,039	0,151
-84,913	-200,000	0,013	-0,093
-83,899	-200,000	-0,007	0,057
-82,884	98,340	-0,040	0,033
-81,870	66,756	-0,068	0,050
-80,855	-146,345	0,025	0,002
-79,840	577,694	0,066	0,116
-78,826	-200,000	-0,002	0,041
-77,811	-80,686	-0,092	-0,022
-76,797	-0,873	0,036	0,018
-75,782	-200,000	-0,022	0,100
-74,767	-40,199	0,090	0,033
-73,753	800,000	0,034	-0,101
-72,738	217,556	-0,051	0,058
-71,724	310,336	0,050	-0,067
-70,709	216,653	0,022	-0,026
-69,694	-200,000	0,009	0,081
-68,680	-200,000	0,021	0,128
-67,665	-200,000	0,040	0,198
-66,651	800,000	0,035	0,101
-65,636	-45,479	0,040	0,014
-64,622	-15,676	0,124	0,056
-63,607	40,519	-0,062	0,040
-62,592	594,716	0,044	0,078
-61,578	800,000	-0,007	-0,020
-60,563	180,015	-0,101	-0,107
-59,549	125,474	-0,045	0,041
-58,534	27,078	-2,008	-1,205
-57,519	-200,000	-0,199	-0,810
-56,505	-200,000	-1,247	-5,042
-55,490	33,606	0,810	0,504
-54,476	800,000	5,261	11,895
-53,461	-200,000	18,356	303,219
-52,446	800,000	736,309	2281,933
-51,432	547,120	1652,333	2845,328
-50,417	109,861	1638,470	1408,391
-49,403	74,124	1288,953	968,848
-48,388	30,736	1029,139	630,003
-47,373	20,002	991,368	571,432
-46,359	17,830	979,144	557,235
-45,344	14,596	975,339	544,448
-44,330	14,906	973,712	544,535
-43,315	14,258	971,675	541,254
-42,300	14,231	970,673	540,587
-41,286	14,200	969,833	539,997
-40,271	14,259	968,752	539,565
-39,257	14,263	967,874	539,069
-38,242	14,207	967,061	538,413
-37,227	14,323	966,069	538,214
-36,213	14,197	965,317	537,364
-35,198	14,199	964,395	536,838
-34,184	14,312	963,496	536,680
-33,169	14,210	962,730	535,902
-32,154	14,296	961,737	535,609
-31,140	14,246	960,910	534,964
-30,125	14,253	960,182	534,559
-29,111	14,221	959,386	533,994
-28,096	14,182	958,875	533,562
-27,082	14,184	958,106	533,119
-26,067	14,255	957,276	532,863
-25,052	14,263	956,418	532,390
-24,038	14,291	955,853	532,147
-23,023	14,246	955,240	531,639
-22,009	14,314	954,556	531,456
-20,994	14,248	953,987	530,904
-19,979	14,238	953,211	530,420
-18,965	14,230	952,584	530,025
-17,950	14,262	951,973	529,768
-16,936	14,186	951,401	529,183
-15,921	14,210	950,774	528,891
-14,906	14,144	949,858	528,148
-13,892	14,201	949,213	527,951
-12,877	14,100	948,648	527,296
-11,863	14,097	948,053	526,932
-10,848	14,124	947,696	526,801
-9,833	14,140	947,212	526,562
-8,819	14,210	946,422	526,324
-7,804	14,189	945,841	525,911
-6,790	14,162	945,139	525,417
-5,775	14,170	944,725	525,191
-4,760	14,171	943,987	524,764
-3,746	14,126	943,488	524,322
-2,731	14,033	942,776	523,609
-1,717	13,988	942,100	523,070
-0,702	13,933	941,391	522,482
0,313	13,736	940,750	522,294
1,327	17,056	938,368	531,397
2,342	26,133	794,319	473,871
3,356	22,737	460,030	269,214
4,371	-3,699	317,076	157,235
5,386	-7,714	299,073	144,197
6,400	-9,519	292,990	139,444
7,415	-10,069	290,405	137,656
8,429	-10,565	288,813	136,399
9,444	-10,521	287,951	136,023
10,459	-10,437	287,129	135,705
11,473	-10,428	286,567	135,437
12,488	-10,395	286,110	135,241
13,502	-10,483	285,542	134,874
14,517	-10,451	285,332	134,794
15,531	-10,632	284,581	134,251
16,546	-10,429	284,120	134,219
17,561	-10,608	283,836	133,899
18,575	-10,536	283,562	133,827
19,590	-10,750	283,051	133,367
20,604	-10,702	282,821	133,294
21,619	-10,596	282,427	133,198
22,634	-10,626	282,149	133,027
23,648	-10,881	281,795	132,602
24,663	-10,592	281,485	132,723
25,677	-10,539	281,244	132,648
26,692	-10,701	281,017	132,373
27,707	-10,646	280,745	132,286
28,721	-10,746	280,323	131,980
29,736	-10,678	280,293	132,019
30,750	-10,853	279,965	131,686
31,765	-10,795	279,684	131,597
32,780	-10,824	279,620	131,527
33,794	-10,738	279,125	131,366
34,809	-10,817	278,982	131,211
35,823	-10,827	278,631	131,025
36,838	-10,812	278,327	130,884
37,853	-10,887	278,286	130,782
38,867	-10,969	278,018	130,567
39,882	-10,930	277,654	130,421
40,896	-10,913	277,467	130,337
41,911	-10,699	277,045	130,330
42,926	-10,854	276,959	130,131
43,940	-10,962	276,753	129,921
44,955	-10,814	276,491	129,926
45,969	-11,046	276,232	129,575
46,984	-11,115	276,090	129,431
47,999	-11,127	275,679	129,216
49,013	-11,314	275,402	128,899
50,028	-11,385	275,152	128,704
51,042	-11,631	274,848	128,320
52,057	-11,721	274,742	128,174
53,071	-11,567	274,390	128,143
54,086	-11,380	274,121	128,181
55,101	-11,200	274,046	128,302
56,115	-10,952	273,906	128,456
57,130	-10,665	273,810	128,668
58,144	-10,581	273,612	128,641
59,159	-10,598	273,407	128,517
60,174	-10,567	273,103	128,392
61,188	-10,517	272,874	128,320
62,203	-10,699	272,885	128,144
63,217	-10,538	272,410	128,059
64,232	-10,593	272,317	127,952
65,247	-10,612	272,087	127,816
66,261	-10,620	271,779	127,652
67,276	-10,839	271,551	127,331
68,290	-11,040	271,395	127,061
69,305	-11,113	271,038	126,816
70,320	-11,034	270,971	126,846
71,334	-10,939	270,848	126,864
72,349	-10,762	270,423	126,817
73,363	-10,367	270,273	127,098
74,378	-10,511	270,041	126,845
75,393	-10,534	269,854	126,725
76,407	-10,596	269,663	126,567
77,422	-10,673	269,436	126,379
78,436	-10,438	269,138	126,443
79,451	-10,496	269,108	126,364
80,466	-10,722	268,581	125,900
81,480	-10,864	268,426	125,686
82,495	-10,768	268,136	125,627
83,509	-10,743	268,039	125,593
84,524	-10,801	267,665	125,353
85,539	-11,128	267,485	124,961
86,553	-10,992	267,267	124,972
87,568	-10,777	267,116	125,085
88,582	-10,748	267,032	125,061
89,597	-10,829	266,679	124,811
90,611	-10,727	266,712	124,908
91,626	-10,591	266,432	124,888
92,641	-10,666	266,130	124,668
93,655	-10,779	265,945	124,468
94,670	-10,686	265,768	124,458
95,684	-10,587	265,500	124,411
96,699	-10,612	265,372	124,317
97,714	-10,832	265,222	124,038
98,728	-10,781	264,852	123,899
99,743	-10,861	264,661	123,727
100,757	-11,018	264,603	123,548
101,772	-10,734	264,297	123,648
102,787	-10,686	264,139	123,607
103,801	-10,666	263,863	123,484
104,816	-10,787	263,900	123,383
105,830	-10,503	263,740	123,551
106,845	-10,597	263,361	123,278
107,860	-10,522	263,337	123,323
108,874	-10,543	263,115	123,189
109,889	-10,624	262,946	123,027
110,903	-10,715	262,693	122,816
111,918	-10,514	262,418	122,855
112,933	-10,618	262,260	122,678
113,947	-10,563	262,054	122,620
114,962	-10,554	261,916	122,553
115,976	-10,698	261,646	122,287
116,991	-10,756	261,487	122,151
118,006	-10,580	261,279	122,199
119,020	-10,583	261,086	122,095
120,035	-10,566	261,082	122,097
121,049	-10,516	260,930	122,059
122,064	-10,700	260,648	121,754
123,079	-10,691	260,445	121,657
124,093	-10,704	260,244	121,540
125,108	-10,865	259,926	121,239
126,122	-11,013	259,627	120,959
127,137	-11,152	259,498	120,766
128,151	-11,075	259,223	120,695
129,166	-10,869	259,118	120,815
130,181	-10,975	259,002	120,658
131,195	-10,895	258,659	120,558
132,210	-10,764	258,667	120,665
133,224	-10,661	258,327	120,585
134,239	-10,597	258,418	120,673
135,254	-10,549	258,112	120,561
136,268	-10,551	257,734	120,372
137,283	-11,051	257,537	119,834
138,297	-11,101	257,324	119,681
139,312	-10,943	257,196	119,749
140,327	-10,699	257,020	119,867
141,341	-10,411	256,977	120,086
142,356	-10,502	256,802	119,916
143,370	-10,637	256,666	119,724
144,385	-10,301	256,392	119,877
145,400	-10,385	256,309	119,754
146,414	-10,256	255,974	119,699
147,429	-10,443	255,963	119,521
148,443	-10,380	255,641	119,414
149,458	-10,340	255,436	119,343
150,473	-10,269	255,165	119,267
151,487	-10,583	255,099	118,954
152,502	-10,355	254,853	119,026
153,516	-10,280	254,646	118,983
154,531	-10,336	254,451	118,833
155,546	-10,318	254,303	118,769
156,560	-10,414	254,199	118,627
157,575	-10,305	253,957	118,597
158,589	-10,259	253,721	118,516
159,604	-10,262	253,627	118,458
160,619	-10,497	253,486	118,181
161,633	-10,565	253,212	117,985
162,648	-10,387	253,159	118,102
163,662	-10,276	253,036	118,129
164,677	-10,396	252,762	117,887
165,692	-10,136	252,550	117,999
166,706	-10,383	252,454	117,734
167,721	-10,278	252,180	117,685
168,735	-10,365	252,078	117,553
169,750	-10,323	252,100	117,588
170,764	-10,348	251,804	117,419
171,779	-10,023	251,594	117,586
172,794	-10,302	251,549	117,318
173,808	-10,222	251,246	117,234
174,823	-10,951	251,039	116,510
175,837	-11,056	250,682	116,246
176,852	-10,430	250,758	116,799
177,867	-10,368	250,698	116,813
178,881	-10,322	250,485	116,742
179,896	-10,453	250,450	116,605
180,910	-10,231	250,074	116,607
181,925	-10,439	250,003	116,388
182,940	-10,188	249,883	116,533
183,954	-10,261	249,539	116,301
184,969	-10,391	249,341	116,089
185,983	-10,387	249,257	116,043
186,998	-10,116	249,037	116,157
188,013	-10,390	248,989	115,895
189,027	-10,162	248,833	116,003
190,042	-10,222	248,619	115,843
191,056	-10,100	248,466	115,863
192,071	-10,262	248,286	115,633
193,086	-10,068	248,048	115,674
194,100	-10,266	247,924	115,441
195,115	-10,180	247,714	115,404
196,129	-10,030	247,406	115,375
197,144	-10,150	247,255	115,195
198,159	-10,143	247,180	115,156
199,173	-10,126	246,941	115,048
200,188	-10,167	246,706	114,894
201,202	-10,407	246,599	114,636
202,217	-10,785	246,253	114,151
203,232	-11,091	246,146	113,838
204,246	-10,230	246,019	114,482
205,261	-9,682	246,050	114,938
206,275	-10,063	245,845	114,518
207,290	-5,525	247,592	119,092
208,304	1,470	249,979	126,079
209,319	4,391	250,704	128,875
210,334	4,739	250,685	129,145
211,348	5,015	250,546	129,292
212,363	5,302	250,508	129,501
213,377	5,393	250,308	129,461
214,392	5,210	250,036	129,157
215,407	5,063	250,033	129,021
216,421	5,190	249,767	128,979
217,436	5,329	249,701	129,048
218,450	5,327	249,539	128,951
219,465	5,012	249,386	128,600
220,480	4,892	249,094	128,338
221,494	5,057	248,948	128,388
222,509	5,163	248,653	128,312
223,523	5,026	248,589	128,155
224,538	4,690	248,351	127,743
225,553	4,807	248,196	127,748
226,567	4,854	247,941	127,645
227,582	4,885	247,958	127,667
228,596	4,830	247,797	127,527
229,611	4,567	247,341	127,066
230,626	4,400	247,257	126,874
231,640	4,594	247,101	126,942
232,655	4,761	246,955	126,992
233,669	4,598	246,812	126,774
234,684	4,569	246,587	126,623
235,699	4,799	246,564	126,789
236,713	4,927	246,445	126,821
237,728	4,742	246,064	126,462
238,742	4,568	246,011	126,281
239,757	4,389	245,681	125,954
240,772	4,519	245,641	126,029
241,786	4,439	245,598	125,930
242,801	4,542	245,299	125,850
243,815	4,402	245,156	125,651
244,830	4,543	245,228	125,792
245,844	4,763	244,962	125,823
246,859	4,636	244,782	125,617
247,874	4,499	244,581	125,391
248,888	4,667	244,383	125,414
249,903	4,751	244,331	125,445
250,917	4,830	244,168	125,413
251,932	4,906	244,061	125,409
252,947	4,812	243,821	125,198
253,961	4,841	243,572	125,083
254,976	4,807	243,439	124,976
255,990	4,815	243,432	124,967
257,005	4,750	243,097	124,732
258,020	4,327	243,079	124,371
259,034	4,574	242,745	124,388
260,049	4,715	242,683	124,458
261,063	4,505	242,473	124,170
262,078	4,447	242,395	124,072
263,093	4,805	242,206	124,253
264,107	4,834	242,092	124,206
265,122	4,575	242,002	123,941
266,136	4,656	241,827	123,906
267,151	5,071	241,760	124,192
268,166	4,523	241,464	123,591
269,180	4,367	241,188	123,314
270,195	5,001	241,402	123,919
271,209	5,503	241,126	124,168
272,224	4,938	240,765	123,520
273,239	4,074	240,578	122,724
274,253	4,358	240,557	122,929
275,268	4,680	240,370	123,079
276,282	4,687	240,301	123,038
277,297	4,234	240,022	122,525
278,312	4,486	239,837	122,619
279,326	4,608	239,816	122,695
280,341	4,660	239,696	122,663
281,355	4,660	239,448	122,526
282,370	4,689	239,322	122,473
283,384	4,816	239,086	122,443
284,399	4,474	238,956	122,094
285,414	4,594	238,676	122,035
286,428	4,488	238,701	121,953
287,443	4,720	238,411	121,977
288,457	4,769	238,460	122,030
289,472	4,799	238,413	122,018
290,487	4,734	238,227	121,861
291,501	4,523	237,890	121,512
292,516	4,370	237,779	121,324
293,530	4,410	237,608	121,257
294,545	4,811	237,498	121,505
295,560	4,501	237,283	121,142
296,574	4,236	237,017	120,787
297,589	4,565	236,965	121,007
298,603	4,801	237,016	121,208
299,618	4,810	236,841	121,115
300,633	4,975	236,485	121,051
301,647	4,963	236,539	121,058
302,662	5,243	236,421	121,205
303,676	5,099	236,272	121,006
304,691	4,689	236,096	120,586
305,706	5,133	235,993	120,868
306,720	5,304	235,853	120,918
307,735	4,829	235,644	120,431
308,749	4,705	235,368	120,183
309,764	4,611	235,132	119,979
310,779	4,266	235,079	119,673
311,793	4,253	234,776	119,498
312,808	4,206	234,598	119,360
313,822	3,976	234,516	119,130
314,837	4,580	234,420	119,538
315,852	4,711	234,434	119,636
316,866	4,803	234,247	119,601
317,881	4,951	234,150	119,655
318,895	4,776	233,937	119,401
319,910	5,033	233,852	119,545
320,925	4,682	233,469	119,068
321,939	4,350	233,374	118,754
322,954	4,722	233,290	118,986
323,968	4,667	233,189	118,882
324,983	4,623	233,058	118,771
325,997	4,960	233,074	119,027
327,012	4,695	232,847	118,697
328,027	4,864	232,524	118,652
329,041	5,129	232,503	118,833
330,056	5,457	232,492	119,068
331,070	5,322	232,499	118,958
332,085	5,147	231,884	118,499
333,100	4,953	231,909	118,353
334,114	4,637	231,852	118,072
335,129	4,944	231,708	118,222
336,143	5,277	231,486	118,352
337,158	5,005	231,396	118,089
338,173	4,738	231,094	117,721
339,187	4,513	231,024	117,503
340,202	4,771	230,968	117,661
341,216	4,765	230,708	117,513
342,231	4,474	230,602	117,228
343,246	4,667	230,387	117,254
344,260	4,696	230,366	117,256
345,275	5,092	230,198	117,459
346,289	5,242	229,940	117,431
347,304	5,239	229,986	117,441
348,319	4,932	229,703	117,055
349,333	4,774	229,646	116,895
350,348	4,856	229,380	116,811
351,362	4,849	229,261	116,736
352,377	4,372	229,152	116,310
353,392	4,287	228,930	116,123
354,406	4,565	228,779	116,245
355,421	196,555	1319,106	1397,279
356,435	157,694	1451,916	1397,255
