DTS Sentinel unit serial number:	SN410029Multiplexer serial number:	ORYXHardware model number:	OX2-SRSoftware version number:	ORYX F/W v4,00 Oryx Data Collector v3.7.2.0data status	okinstallation	B5 Nyhavnadifferential loss correction	single-endedforward channel	channel 2reverse channel	N/Adate	2023/12/12time	01:17:13forward acquisition time	300,00reverse acquisition time	0,00gamma	499,1914k internal	0,3156k external	0,3156temperature offset calibration	1,0000default loss term (dB/km)	0,3820temperature slope calibration	1,0000multiplexer offset coefficient	1,0000multiplexer slope coefficient	1,0000fibre end	0,00T internal ref (°C)	15,94T ext. ref 1 (°C)	-0,43T ext. ref 2 (°C)	-0,73length (m)	temperature (°C)	Stokes	anti-Stokes-744,400	371,922	0,118	0,177
-743,385	-110,879	-0,231	-0,035
-742,371	358,793	0,051	0,076
-741,356	-120,300	-0,272	0,034
-740,342	-41,785	0,174	0,065
-739,327	-47,255	-0,300	-0,107
-738,312	-116,014	0,190	-0,026
-737,298	-101,803	-0,198	-0,035
-736,283	-198,647	0,117	0,000
-735,269	36,920	-0,209	0,136
-734,254	263,464	0,124	-0,160
-733,239	0,600	-0,431	-0,227
-732,225	-169,893	0,215	-0,006
-731,210	800,000	0,051	0,148
-730,196	-200,000	-0,009	-0,079
-729,181	-24,769	-0,096	-0,042
-728,167	-200,000	0,001	-0,056
-727,152	450,724	-0,018	0,029
-726,137	-200,000	-0,014	-0,078
-725,123	-51,179	0,074	-0,025
-724,108	-200,000	0,004	-0,117
-723,094	800,000	-0,086	-0,185
-722,079	170,767	-0,025	-0,027
-721,064	127,569	-0,019	0,018
-720,050	-200,000	0,001	-0,076
-719,035	791,826	-0,058	0,119
-718,021	-123,524	-0,237	-0,027
-717,006	-200,000	-0,011	-0,109
-715,991	16,560	-0,166	-0,096
-714,977	-53,992	-0,215	-0,072
-713,962	711,059	-0,045	-0,088
-712,948	-66,091	-0,120	0,035
-711,933	32,815	0,065	0,041
-710,918	-40,224	-0,036	0,014
-709,904	-200,000	-0,003	-0,015
-708,889	-200,000	-0,026	-0,083
-707,875	-86,110	0,014	0,003
-706,860	800,000	-0,028	0,077
-705,845	53,395	-0,115	0,081
-704,831	-200,000	0,027	-0,124
-703,816	-200,000	-0,014	0,081
-702,802	220,221	0,024	0,029
-701,787	800,000	0,054	-0,128
-700,772	-200,000	0,009	-0,031
-699,758	-155,061	-0,115	0,005
-698,743	245,223	0,104	0,129
-697,729	-200,000	0,007	-0,081
-696,714	382,619	-0,016	0,025
-695,699	-200,000	-0,027	0,090
-694,685	273,751	-0,095	-0,124
-693,670	-200,000	-0,037	-0,167
-692,656	94,886	0,106	-0,089
-691,641	21,252	0,077	0,046
-690,627	47,430	0,082	-0,056
-689,612	-172,745	-0,137	-0,003
-688,597	-104,685	-0,126	0,021
-687,583	13,386	-0,089	0,051
-686,568	-62,993	-0,004	-0,001
-685,554	800,000	0,034	0,091
-684,539	176,140	0,115	0,123
-683,524	218,260	-0,068	0,081
-682,510	-28,910	0,047	-0,020
-681,495	-104,946	-0,026	-0,004
-680,481	-26,842	-0,025	0,011
-679,466	-65,997	-0,202	-0,059
-678,451	160,006	0,107	-0,110
-677,437	111,434	0,122	0,108
-676,422	800,000	-0,012	-0,031
-675,408	277,621	0,078	0,102
-674,393	89,963	-0,067	-0,055
-673,378	-200,000	-0,008	-0,081
-672,364	109,481	0,051	-0,045
-671,349	132,605	-0,118	-0,112
-670,335	422,996	0,073	0,116
-669,320	143,686	0,069	0,068
-668,305	28,648	-0,026	-0,016
-667,291	-200,000	0,001	-0,038
-666,276	306,939	0,013	0,018
-665,262	150,580	0,059	-0,058
-664,247	668,036	-0,048	-0,091
-663,232	800,000	0,083	-0,176
-662,218	-200,000	0,024	0,098
-661,203	-200,000	0,002	-0,048
-660,189	-126,953	0,195	-0,021
-659,174	800,000	0,069	-0,153
-658,159	373,570	0,051	-0,076
-657,145	800,000	0,022	-0,055
-656,130	800,000	0,042	0,088
-655,116	193,536	0,080	-0,089
-654,101	-200,000	-0,006	-0,074
-653,086	800,000	0,035	0,108
-652,072	420,566	-0,050	0,079
-651,057	135,365	-0,073	-0,070
-650,043	34,842	-0,065	-0,042
-649,028	-200,000	-0,020	-0,105
-648,014	-7,540	0,102	0,050
-646,999	-121,674	-0,174	0,021
-645,984	-200,000	0,007	0,145
-644,970	3,211	-0,098	-0,052
-643,955	-20,131	-0,068	0,031
-642,941	800,000	0,038	-0,100
-641,926	32,822	0,055	-0,035
-640,911	129,929	-0,052	0,049
-639,897	-124,341	0,054	-0,006
-638,882	-200,000	-0,011	-0,073
-637,868	800,000	-0,036	-0,107
-636,853	-200,000	0,001	-0,026
-635,838	-101,088	-0,028	-0,005
-634,824	253,077	-0,014	0,018
-633,809	-200,000	0,044	-0,178
-632,795	142,636	0,120	0,117
-631,780	-200,000	-0,034	0,147
-630,765	-200,000	0,021	-0,104
-629,751	255,579	0,125	0,158
-628,736	-152,827	-0,100	0,005
-627,722	-66,226	-0,056	-0,016
-626,707	130,791	0,113	0,107
-625,692	592,581	0,049	0,089
-624,678	-200,000	0,029	0,102
-623,663	97,358	0,023	-0,020
-622,649	177,332	0,138	-0,147
-621,634	800,000	-0,038	-0,110
-620,619	-189,575	-0,083	0,001
-619,605	16,996	-0,097	0,056
-618,590	-200,000	-0,012	0,065
-617,576	-19,174	0,032	-0,014
-616,561	53,812	0,019	-0,013
-615,546	123,348	-0,106	-0,098
-614,532	126,301	-0,151	-0,140
-613,517	394,795	0,039	-0,060
-612,503	-200,000	0,015	-0,146
-611,488	382,534	-0,010	0,016
-610,474	-200,000	-0,002	-0,085
-609,459	-96,861	0,083	0,016
-608,444	363,192	-0,110	-0,163
-607,430	-83,742	0,104	0,024
-606,415	800,000	0,019	0,056
-605,401	217,208	-0,126	-0,147
-604,386	401,801	0,057	-0,088
-603,371	-51,435	0,055	0,019
-602,357	-124,862	0,163	0,018
-601,342	-0,672	-0,190	-0,099
-600,328	359,730	-0,014	0,020
-599,313	-172,241	-0,037	-0,001
-598,298	-67,118	0,063	0,018
-597,284	355,543	-0,032	0,047
-596,269	66,648	-0,066	0,049
-595,255	-63,396	-0,099	-0,030
-594,240	131,409	-0,022	-0,021
-593,225	-88,693	-0,141	-0,030
-592,211	-200,000	-0,017	-0,110
-591,196	646,113	0,020	0,038
-590,182	800,000	0,029	0,089
-589,167	-14,352	0,048	-0,022
-588,152	-147,980	-0,042	0,003
-587,138	-200,000	-0,004	0,093
-586,123	-36,495	0,084	-0,033
-585,109	-39,327	-0,121	-0,046
-584,094	-200,000	-0,011	0,050
-583,079	-89,057	0,016	-0,004
-582,065	800,000	-0,055	0,145
-581,050	-120,573	0,096	0,012
-580,036	-88,149	-0,099	-0,022
-579,021	352,174	-0,107	0,155
-578,006	-30,960	-0,129	-0,053
-576,992	240,805	-0,114	0,140
-575,977	306,394	-0,038	0,052
-574,963	-128,491	0,138	-0,014
-573,948	-86,625	0,159	-0,035
-572,934	-114,558	-0,096	0,013
-571,919	22,645	-0,106	-0,063
-570,904	-48,957	0,109	-0,038
-569,890	-200,000	-0,002	0,055
-568,875	-200,000	0,009	0,107
-567,861	113,062	-0,055	0,049
-566,846	-200,000	0,008	0,050
-565,831	800,000	-0,017	-0,041
-564,817	800,000	-0,027	0,070
-563,802	800,000	0,050	-0,146
-562,788	800,000	-0,023	-0,050
-561,773	0,739	-0,056	0,029
-560,758	12,378	-0,062	0,035
-559,744	-26,953	0,114	0,049
-558,729	-43,962	0,202	-0,074
-557,715	-200,000	-0,002	-0,074
-556,700	201,497	-0,080	-0,091
-555,685	-3,678	0,037	0,019
-554,671	-77,502	0,085	-0,021
-553,656	-147,603	-0,097	0,006
-552,642	14,036	0,037	0,021
-551,627	-200,000	-0,004	0,022
-550,612	-200,000	0,001	-0,128
-549,598	-200,000	0,000	-0,020
-548,583	800,000	-0,042	-0,106
-547,569	179,825	0,098	-0,105
-546,554	442,017	0,053	0,085
-545,539	610,691	0,020	-0,036
-544,525	530,341	0,034	0,059
-543,510	-200,000	0,001	-0,069
-542,496	-200,000	0,007	0,045
-541,481	181,304	-0,123	-0,133
-540,466	113,014	0,018	-0,016
-539,452	-200,000	-0,008	0,121
-538,437	-200,000	-0,004	-0,023
-537,423	-12,680	0,058	-0,028
-536,408	800,000	-0,056	-0,132
-535,393	-200,000	0,020	-0,163
-534,379	-51,814	-0,083	-0,028
-533,364	-17,942	-0,083	-0,038
-532,350	-200,000	-0,020	-0,100
-531,335	-200,000	0,010	-0,040
-530,321	149,789	0,112	-0,111
-529,306	-151,778	0,169	-0,009
-528,291	-81,114	-0,143	0,034
-527,277	246,326	-0,020	0,025
-526,262	-84,404	-0,047	0,011
-525,248	-200,000	0,004	-0,052
-524,233	142,228	-0,095	-0,092
-523,218	72,561	-0,055	-0,042
-522,204	18,165	0,079	0,046
-521,189	-200,000	-0,000	-0,155
-520,175	-200,000	-0,002	0,028
-519,160	-200,000	0,006	-0,064
-518,145	-77,780	-0,104	-0,026
-517,131	89,729	0,082	-0,067
-516,116	-200,000	0,001	-0,084
-515,102	-134,739	0,095	0,008
-514,087	117,110	0,023	-0,021
-513,072	-138,783	0,135	-0,011
-512,058	26,552	0,111	-0,067
-511,043	271,045	-0,045	0,059
-510,029	-171,155	0,094	0,002
-509,014	107,994	-0,083	-0,072
-507,999	355,600	-0,018	0,026
-506,985	-140,608	-0,061	0,005
-505,970	800,000	0,016	0,037
-504,956	-200,000	-0,011	-0,108
-503,941	-142,002	0,107	0,008
-502,926	-200,000	-0,007	0,107
-501,912	800,000	0,024	0,070
-500,897	38,088	0,098	0,064
-499,883	163,686	0,089	-0,092
-498,868	-99,682	-0,015	-0,003
-497,853	26,204	0,063	-0,039
-496,839	46,094	-0,064	0,043
-495,824	587,684	0,043	0,077
-494,810	219,429	0,038	0,044
-493,795	-200,000	0,019	0,063
-492,781	-33,517	-0,072	-0,029
-491,766	-48,217	-0,099	0,035
-490,751	-200,000	-0,021	0,109
-489,737	-51,080	-0,085	0,029
-488,722	438,014	0,031	0,049
-487,708	-78,877	-0,034	-0,008
-486,693	12,484	-0,021	0,012
-485,678	800,000	0,029	0,059
-484,664	800,000	-0,069	-0,216
-483,649	-200,000	0,015	-0,117
-482,635	4,078	-0,079	0,042
-481,620	-49,754	-0,077	0,027
-480,605	-104,991	0,069	-0,011
-479,591	-104,253	0,065	0,011
-478,576	-115,681	0,087	-0,012
-477,562	124,236	0,055	-0,051
-476,547	800,000	0,074	-0,183
-475,532	-82,535	-0,080	-0,019
-474,518	-69,360	0,069	-0,019
-473,503	-200,000	-0,034	-0,137
-472,489	800,000	0,020	0,056
-471,474	-200,000	0,008	0,049
-470,459	-200,000	-0,010	-0,033
-469,445	322,588	-0,064	-0,089
-468,430	3,225	-0,097	-0,052
-467,416	-95,213	0,106	0,021
-466,401	155,050	0,015	0,015
-465,386	108,120	0,051	-0,044
-464,372	800,000	-0,015	0,044
-463,357	-200,000	0,007	0,044
-462,343	-35,031	0,036	0,014
-461,328	22,555	0,049	-0,029
-460,313	-200,000	0,021	0,153
-459,299	379,884	0,027	0,040
-458,284	-152,309	-0,079	-0,004
-457,270	-136,561	0,051	0,004
-456,255	2,455	0,047	0,025
-455,241	-200,000	-0,007	-0,124
-454,226	-82,693	-0,138	0,032
-453,211	342,763	0,050	0,072
-452,197	-46,087	0,132	0,047
-451,182	-84,935	0,098	-0,022
-450,168	800,000	0,034	0,109
-449,153	66,878	0,065	0,048
-448,138	-142,311	-0,130	-0,009
-447,124	800,000	-0,010	0,022
-446,109	129,572	-0,111	-0,103
-445,095	19,410	0,092	-0,054
-444,080	-134,583	-0,019	-0,002
-443,065	194,463	0,035	-0,039
-442,051	-13,590	-0,137	-0,064
-441,036	-3,212	-0,067	0,034
-440,022	238,868	-0,035	0,043
-439,007	-200,000	0,001	0,029
-437,992	520,606	-0,029	0,050
-436,978	-200,000	-0,017	0,061
-435,963	-66,934	-0,058	0,017
-434,949	-187,116	0,165	-0,002
-433,934	433,790	0,043	0,068
-432,919	800,000	0,023	0,071
-431,905	395,551	0,070	-0,107
-430,890	123,088	0,036	0,032
-429,876	128,457	0,032	-0,030
-428,861	133,142	-0,111	0,105
-427,846	17,653	0,064	0,037
-426,832	64,165	-0,134	0,098
-425,817	800,000	-0,008	0,019
-424,803	366,692	-0,030	-0,044
-423,788	184,931	0,083	0,089
-422,773	-112,504	0,082	0,012
-421,759	-14,036	-0,062	-0,029
-420,744	618,782	-0,018	-0,034
-419,730	-200,000	-0,013	0,125
-418,715	-17,290	-0,111	-0,051
-417,701	98,801	-0,042	-0,036
-416,686	800,000	-0,017	0,049
-415,671	-200,000	-0,017	0,124
-414,657	-82,141	-0,081	-0,019
-413,642	-38,762	-0,026	0,010
-412,628	800,000	0,011	-0,034
-411,613	-200,000	-0,016	-0,146
-410,598	51,908	0,022	0,015
-409,584	602,519	-0,005	0,010
-408,569	-200,000	-0,014	0,053
-407,555	800,000	-0,007	0,019
-406,540	41,145	0,123	0,081
-405,525	-88,640	-0,193	0,041
-404,511	317,205	-0,041	-0,057
-403,496	556,099	0,056	0,099
-402,482	-200,000	0,012	0,067
-401,467	132,909	0,052	-0,049
-400,452	401,810	0,051	0,078
-399,438	-176,672	0,081	-0,001
-398,423	575,141	-0,069	-0,124
-397,409	30,208	-0,084	0,052
-396,394	-96,470	0,134	0,026
-395,379	-200,000	0,011	0,098
-394,365	-136,190	-0,008	0,001
-393,350	113,094	0,053	0,046
-392,336	797,203	0,023	-0,047
-391,321	-200,000	-0,022	0,251
-390,306	800,000	-0,026	-0,072
-389,292	-200,000	-0,000	0,178
-388,277	13,882	-0,034	0,019
-387,263	-126,031	-0,049	0,005
-386,248	-183,289	0,053	0,001
-385,233	-200,000	-0,002	-0,059
-384,219	-115,691	0,127	-0,017
-383,204	800,000	0,022	0,066
-382,190	-200,000	0,022	-0,076
-381,175	-32,595	0,032	-0,013
-380,160	195,263	-0,036	-0,040
-379,146	173,630	0,053	-0,056
-378,131	-62,288	-0,076	-0,023
-377,117	800,000	-0,020	0,046
-376,102	800,000	-0,032	-0,096
-375,088	-9,414	-0,116	-0,056
-374,073	-9,806	0,162	-0,078
-373,058	27,629	0,063	-0,038
-372,044	142,686	0,109	0,105
-371,029	-200,000	-0,018	0,098
-370,015	43,387	-0,062	0,041
-369,000	625,119	0,063	-0,116
-367,985	20,185	-0,096	-0,056
-366,971	123,578	-0,068	-0,062
-365,956	-200,000	0,015	0,092
-364,942	41,287	0,117	0,077
-363,927	-200,000	-0,034	0,184
-362,912	383,189	0,066	-0,099
-361,898	110,387	0,043	-0,038
-360,883	100,931	0,046	0,038
-359,869	-200,000	-0,038	-0,151
-358,854	-200,000	-0,034	-0,111
-357,839	-200,000	-0,004	-0,016
-356,825	26,259	-0,187	0,113
-355,810	-200,000	-0,009	0,062
-354,796	-45,730	-0,048	-0,017
-353,781	217,342	-0,009	-0,010
-352,766	-200,000	0,025	0,105
-351,752	44,925	0,061	0,041
-350,737	-200,000	0,003	0,021
-349,723	15,228	-0,023	-0,013
-348,708	114,383	0,144	0,128
-347,693	-26,970	-0,045	0,019
-346,679	13,590	-0,085	-0,048
-345,664	34,425	-0,064	-0,040
-344,650	7,065	0,048	-0,026
-343,635	-200,000	-0,012	-0,136
-342,620	309,151	-0,035	-0,048
-341,606	-11,026	-0,117	0,056
-340,591	-25,151	-0,114	-0,049
-339,577	28,315	-0,079	-0,048
-338,562	320,917	-0,088	-0,122
-337,548	-122,264	0,051	-0,006
-336,533	490,936	-0,045	0,076
-335,518	-200,000	-0,017	-0,103
-334,504	-62,375	0,076	-0,023
-333,489	-200,000	0,028	-0,102
-332,475	-200,000	0,003	-0,047
-331,460	-51,960	-0,104	-0,035
-330,445	800,000	0,043	0,102
-329,431	-27,735	-0,037	0,016
-328,416	-91,030	0,167	0,034
-327,402	56,537	-0,070	0,050
-326,387	225,672	-0,032	0,038
-325,372	-200,000	-0,011	-0,050
-324,358	800,000	-0,062	-0,175
-323,343	-67,045	-0,039	-0,011
-322,329	102,911	-0,035	-0,030
-321,314	-24,187	0,133	-0,057
-320,299	-16,492	-0,117	0,053
-319,285	-200,000	-0,004	-0,073
-318,270	-200,000	0,013	-0,124
-317,256	213,324	-0,097	-0,112
-316,241	531,938	-0,011	-0,019
-315,226	-4,365	-0,069	0,035
-314,212	-200,000	-0,012	0,078
-313,197	712,148	0,018	0,034
-312,183	-135,623	0,031	0,003
-311,168	-23,255	-0,170	-0,074
-310,153	-95,951	0,050	0,010
-309,139	800,000	-0,028	-0,088
-308,124	43,031	0,152	0,100
-307,110	-200,000	0,013	0,077
-306,095	-133,717	-0,114	0,010
-305,080	-52,114	0,126	0,042
-304,066	-94,631	-0,125	0,024
-303,051	44,620	-0,124	0,082
-302,037	-120,617	-0,131	0,016
-301,022	55,464	0,115	-0,080
-300,008	-102,881	-0,071	-0,012
-298,993	463,197	0,078	0,128
-297,978	345,955	-0,104	0,149
-296,964	0,477	-0,104	-0,054
-295,949	169,578	-0,054	-0,056
-294,935	570,595	0,024	-0,042
-293,920	333,752	0,007	-0,010
-292,905	78,655	-0,017	-0,013
-291,891	-200,000	0,014	0,058
-290,876	90,978	0,078	-0,064
-289,862	85,344	-0,155	0,124
-288,847	-200,000	-0,028	-0,147
-287,832	-64,189	-0,036	-0,010
-286,818	-200,000	-0,009	0,113
-285,803	-49,926	0,181	-0,062
-284,789	16,951	0,173	0,099
-283,774	800,000	-0,013	-0,033
-282,759	251,298	-0,046	0,057
-281,745	93,745	-0,060	-0,049
-280,730	439,492	0,067	-0,107
-279,716	-26,603	0,032	-0,013
-278,701	-200,000	0,005	0,030
-277,686	800,000	-0,034	0,080
-276,672	-200,000	0,011	0,124
-275,657	-138,998	0,081	0,006
-274,643	-200,000	0,017	0,113
-273,628	178,636	0,082	-0,087
-272,613	-26,943	0,034	-0,014
-271,599	36,647	0,063	0,040
-270,584	-123,494	-0,046	-0,005
-269,570	-200,000	0,001	0,089
-268,555	-200,000	-0,015	-0,066
-267,540	595,136	0,048	-0,087
-266,526	213,861	-0,059	0,067
-265,511	-200,000	0,019	-0,168
-264,497	-22,423	0,101	-0,044
-263,482	358,729	0,098	0,143
-262,467	-152,833	0,137	-0,007
-261,453	-200,000	0,004	0,071
-260,438	81,830	0,063	-0,050
-259,424	-130,576	-0,218	0,021
-258,409	8,452	-0,051	-0,028
-257,395	-56,439	0,107	-0,034
-256,380	-200,000	0,013	0,069
-255,365	81,416	0,079	0,062
-254,351	-35,462	0,038	-0,015
-253,336	174,455	-0,012	-0,013
-252,322	800,000	-0,046	0,107
-251,307	63,503	-0,060	-0,044
-250,292	365,783	0,020	0,030
-249,278	800,000	0,042	0,102
-248,263	394,226	0,141	0,214
-247,249	-200,000	0,025	-0,088
-246,234	-103,266	-0,063	0,011
-245,219	289,263	0,029	0,039
-244,205	192,599	-0,110	-0,120
-243,190	166,092	-0,086	0,088
-242,176	-67,034	-0,170	0,048
-241,161	273,560	0,063	0,080
-240,146	-200,000	-0,020	-0,088
-239,132	-118,496	-0,124	-0,016
-238,117	156,891	0,109	0,109
-237,103	-200,000	0,015	-0,084
-236,088	800,000	0,054	0,142
-235,073	-15,713	0,066	0,030
-234,059	68,762	0,050	0,037
-233,044	-139,913	0,065	-0,005
-232,030	-200,000	0,010	0,172
-231,015	-200,000	0,004	-0,109
-230,000	83,918	-0,041	0,032
-228,986	-12,914	0,115	0,054
-227,971	-200,000	0,015	-0,074
-226,957	-9,857	0,029	0,014
-225,942	-200,000	-0,003	0,024
-224,927	-200,000	0,016	-0,056
-223,913	37,698	0,069	0,044
-222,898	-200,000	-0,001	0,085
-221,884	105,900	-0,066	0,056
-220,869	326,938	-0,046	-0,065
-219,855	-200,000	-0,021	0,074
-218,840	-66,949	0,077	0,022
-217,825	-162,967	0,019	0,001
-216,811	42,324	0,116	0,076
-215,796	231,043	-0,054	-0,064
-214,782	-55,200	0,082	0,027
-213,767	-200,000	0,008	-0,041
-212,752	800,000	0,039	0,080
-211,738	-88,628	-0,081	0,017
-210,723	-33,520	-0,045	0,018
-209,709	-45,380	-0,155	-0,055
-208,694	-200,000	-0,025	-0,150
-207,679	-200,000	0,003	0,069
-206,665	-142,706	0,081	0,006
-205,650	-200,000	0,024	0,132
-204,636	213,644	-0,039	-0,045
-203,621	-85,403	0,023	-0,005
-202,606	117,195	-0,086	-0,077
-201,592	172,308	-0,091	-0,095
-200,577	800,000	0,040	-0,104
-199,563	-200,000	0,003	0,178
-198,548	-13,072	0,085	0,040
-197,533	-200,000	0,012	-0,048
-196,519	-86,861	0,143	0,031
-195,504	-110,141	-0,049	0,007
-194,490	87,781	0,046	-0,037
-193,475	4,959	-0,066	-0,035
-192,460	800,000	-0,055	0,124
-191,446	42,322	-0,031	0,020
-190,431	79,257	-0,090	0,070
-189,417	-200,000	-0,012	0,098
-188,402	-200,000	0,016	0,130
-187,387	-200,000	0,006	-0,135
-186,373	-89,662	0,131	-0,027
-185,358	-84,885	-0,167	-0,038
-184,344	-200,000	-0,003	0,121
-183,329	-99,107	0,148	-0,027
-182,315	182,491	0,087	0,092
-181,300	745,817	-0,040	-0,078
-180,285	-58,843	-0,061	0,019
-179,271	-200,000	0,005	0,091
-178,256	800,000	0,067	-0,155
-177,242	-200,000	-0,009	0,048
-176,227	18,729	-0,085	0,049
-175,212	800,000	0,043	0,093
-174,198	-200,000	0,007	0,127
-173,183	-69,000	-0,059	0,016
-172,169	32,175	0,085	0,053
-171,154	34,559	-0,078	-0,049
-170,139	341,779	-0,026	-0,037
-169,125	406,311	0,116	-0,177
-168,110	-153,112	-0,075	0,004
-167,096	100,982	0,120	0,101
-166,081	21,110	-0,135	-0,079
-165,066	-45,302	0,072	-0,026
-164,052	1,125	0,093	-0,048
-163,037	95,409	-0,017	-0,014
-162,023	29,704	0,104	0,064
-161,008	194,479	-0,061	-0,067
-159,993	-200,000	-0,014	-0,207
-158,979	-72,159	-0,047	0,013
-157,964	488,047	0,025	-0,041
-156,950	-19,917	-0,052	0,023
-155,935	800,000	-0,016	0,040
-154,920	-102,280	0,130	-0,022
-153,906	94,607	0,117	0,096
-152,891	-80,727	0,065	-0,015
-151,877	800,000	0,057	-0,130
-150,862	-200,000	0,009	-0,063
-149,847	-200,000	0,002	-0,040
-148,833	-95,830	-0,047	0,009
-147,818	128,862	0,054	0,050
-146,804	1,148	0,076	-0,039
-145,789	85,909	0,085	0,068
-144,775	95,499	0,008	0,006
-143,760	-200,000	-0,000	-0,069
-142,745	-74,830	0,095	-0,024
-141,731	3,063	0,060	-0,031
-140,716	-143,595	0,053	-0,004
-139,702	-149,297	0,055	-0,003
-138,687	-34,696	-0,060	0,023
-137,672	7,496	0,067	0,036
-136,658	531,606	-0,020	-0,034
-135,643	-103,346	0,060	-0,010
-134,629	154,817	-0,094	0,093
-133,614	682,812	-0,017	0,033
-132,599	2,398	-0,056	-0,029
-131,585	-200,000	0,028	0,096
-130,570	-200,000	-0,025	0,107
-129,556	-66,292	-0,076	0,022
-128,541	-200,000	-0,009	0,068
-127,526	-200,000	0,003	0,035
-126,512	318,756	0,083	0,114
-125,497	97,584	0,149	-0,123
-124,483	21,210	-0,088	0,051
-123,468	-200,000	0,017	0,074
-122,453	340,676	0,047	0,067
-121,439	29,893	0,082	0,050
-120,424	-92,230	0,015	0,003
-119,410	132,497	0,100	0,093
-118,395	-102,839	0,082	0,014
-117,380	111,661	0,092	0,080
-116,366	800,000	-0,010	0,021
-115,351	27,941	-0,079	-0,048
-114,337	8,664	-0,041	-0,022
-113,322	-61,614	-0,231	-0,069
-112,307	128,246	0,046	0,042
-111,293	611,786	0,047	0,085
-110,278	78,190	-0,043	-0,033
-109,264	302,766	0,034	0,045
-108,249	-92,463	-0,118	-0,024
-107,234	-200,000	-0,007	-0,116
-106,220	-111,097	-0,078	-0,011
-105,205	-100,356	-0,075	0,013
-104,191	-179,697	0,042	-0,001
-103,176	-200,000	0,029	0,127
-102,162	-63,416	-0,113	-0,033
-101,147	-59,430	0,092	0,028
-100,132	-200,000	0,010	-0,045
-99,118	228,312	0,045	0,053
-98,103	15,533	-0,035	0,020
-97,089	800,000	-0,029	0,083
-96,074	800,000	0,082	0,202
-95,059	-25,677	-0,064	-0,027
-94,045	-99,443	-0,141	-0,025
-93,030	388,158	-0,071	-0,105
-92,016	800,000	-0,051	-0,104
-91,001	-118,481	0,079	-0,010
-89,986	-200,000	0,019	0,066
-88,972	-200,000	-0,011	0,154
-87,957	55,710	-0,057	-0,040
-86,943	800,000	-0,019	-0,046
-85,928	-174,201	0,022	0,000
-84,913	-200,000	0,005	-0,036
-83,899	315,249	-0,012	0,016
-82,884	-120,000	-0,041	0,005
-81,870	0,671	-0,051	0,026
-80,855	-200,000	-0,007	0,038
-79,840	274,961	-0,066	-0,085
-78,826	-16,381	0,021	-0,009
-77,811	-54,844	-0,052	-0,017
-76,797	-200,000	-0,005	-0,034
-75,782	-200,000	0,021	-0,076
-74,767	800,000	-0,056	0,130
-73,753	800,000	-0,094	0,267
-72,738	682,774	-0,006	-0,012
-71,724	167,645	0,092	-0,094
-70,709	-200,000	0,006	-0,073
-69,694	-152,926	-0,191	0,010
-68,680	-200,000	-0,019	-0,069
-67,665	-84,267	0,055	-0,012
-66,651	800,000	-0,011	0,022
-65,636	-107,551	0,130	-0,020
-64,622	34,380	0,082	-0,051
-63,607	248,319	0,076	-0,092
-62,592	-152,519	-0,135	0,007
-61,578	512,743	-0,048	-0,081
-60,563	-200,000	0,009	0,090
-59,549	701,469	-0,100	0,190
-58,534	-0,232	-1,853	-0,943
-57,519	-200,000	-0,260	-0,944
-56,505	-200,000	-1,158	-4,945
-55,490	-0,787	0,631	0,320
-54,476	800,000	5,266	12,054
-53,461	-200,000	17,279	284,070
-52,446	800,000	722,272	2229,790
-51,432	544,690	1638,987	2822,317
-50,417	112,296	1631,838	1416,831
-49,403	76,491	1287,235	978,778
-48,388	32,941	1029,239	638,713
-47,373	20,335	991,042	573,379
-46,359	18,862	979,206	561,668
-45,344	16,267	975,347	550,922
-44,330	16,432	973,854	550,599
-43,315	15,988	971,910	548,024
-42,300	15,926	970,966	547,267
-41,286	16,004	969,790	546,839
-40,271	15,911	968,936	546,031
-39,257	16,051	967,782	545,815
-38,242	16,004	967,137	545,279
-37,227	15,995	966,182	544,688
-36,213	16,032	965,299	544,291
-35,198	15,886	964,654	543,428
-34,184	15,940	963,956	543,190
-33,169	15,926	962,648	542,386
-32,154	15,965	961,969	542,108
-31,140	15,954	960,977	541,493
-30,125	15,956	960,306	541,100
-29,111	16,002	959,295	540,656
-28,096	16,029	958,731	540,404
-27,082	15,974	958,091	539,846
-26,067	15,976	957,432	539,458
-25,052	15,901	956,609	538,733
-24,038	15,929	956,047	538,484
-23,023	15,869	955,606	538,023
-22,009	15,987	954,496	537,754
-20,994	15,985	954,059	537,481
-19,979	15,970	953,522	537,108
-18,965	16,029	952,651	536,785
-17,950	16,022	952,126	536,445
-16,936	15,928	951,623	535,839
-15,921	16,001	950,732	535,550
-14,906	15,862	950,315	534,850
-13,892	15,911	949,498	534,527
-12,877	15,840	948,955	533,971
-11,863	15,831	948,116	533,451
-10,848	15,863	947,644	533,266
-9,833	15,945	947,263	533,292
-8,819	15,947	946,631	532,920
-7,804	15,867	945,984	532,280
-6,790	15,852	945,200	531,770
-5,775	15,898	944,742	531,638
-4,760	15,943	944,083	531,388
-3,746	15,849	943,656	530,831
-2,731	15,700	942,974	529,953
-1,717	15,642	942,264	529,347
-0,702	15,734	941,537	529,211
0,313	15,513	940,935	528,971
1,327	18,705	938,492	537,623
2,342	27,266	796,315	478,920
3,356	23,974	460,098	271,639
4,371	-3,056	314,650	157,005
5,386	-7,043	296,181	143,739
6,400	-9,122	290,195	138,757
7,415	-9,437	287,738	137,260
8,429	-9,476	286,155	136,454
9,444	-9,524	285,348	136,010
10,459	-9,575	284,669	135,625
11,473	-9,602	284,052	135,292
12,488	-9,461	283,468	135,139
13,502	-9,455	282,983	134,902
14,517	-9,441	282,626	134,733
15,531	-9,455	282,237	134,522
16,546	-9,293	281,652	134,387
17,561	-9,603	281,420	133,966
18,575	-9,359	280,963	133,971
19,590	-9,562	280,612	133,597
20,604	-9,541	280,503	133,553
21,619	-9,631	280,154	133,289
22,634	-9,634	279,893	133,150
23,648	-9,658	279,396	132,879
24,663	-9,575	279,111	132,811
25,677	-9,582	278,890	132,687
26,692	-9,457	278,554	132,634
27,707	-9,519	278,311	132,448
28,721	-9,528	278,118	132,336
29,736	-9,626	277,903	132,128
30,750	-9,574	277,496	131,972
31,765	-9,585	277,342	131,877
32,780	-9,443	277,027	131,850
33,794	-9,545	276,858	131,661
34,809	-9,632	276,558	131,425
35,823	-9,535	276,437	131,447
36,838	-9,604	275,948	131,138
37,853	-9,698	275,802	130,968
38,867	-9,436	275,608	131,111
39,882	-9,531	275,396	130,909
40,896	-9,484	275,132	130,816
41,911	-9,707	274,853	130,462
42,926	-9,703	274,744	130,402
43,940	-9,587	274,406	130,339
44,955	-9,633	274,271	130,221
45,969	-9,576	273,845	130,060
46,984	-9,804	273,815	129,821
47,999	-9,892	273,367	129,515
49,013	-9,893	273,165	129,407
50,028	-10,211	272,986	129,015
51,042	-10,087	272,673	128,971
52,057	-10,024	272,258	128,821
53,071	-9,986	272,205	128,820
54,086	-10,027	272,007	128,677
55,101	-9,929	271,921	128,715
56,115	-9,773	271,553	128,674
57,130	-9,598	271,594	128,844
58,144	-9,525	271,302	128,761
59,159	-9,586	271,179	128,635
60,174	-9,433	270,927	128,645
61,188	-9,360	270,659	128,574
62,203	-9,449	270,370	128,344
63,217	-9,411	270,221	128,296
64,232	-9,306	269,891	128,224
65,247	-9,458	269,728	127,996
66,261	-9,371	269,435	127,925
67,276	-9,647	269,268	127,581
68,290	-9,707	269,020	127,398
69,305	-9,659	268,631	127,246
70,320	-9,830	268,617	127,071
71,334	-9,518	268,407	127,247
72,349	-9,576	268,358	127,159
73,363	-9,313	268,033	127,233
74,378	-9,566	267,870	126,914
75,393	-9,481	267,503	126,806
76,407	-9,313	267,345	126,873
77,422	-9,478	267,164	126,626
78,436	-9,482	266,867	126,469
79,451	-9,346	266,702	126,504
80,466	-9,369	266,455	126,355
81,480	-9,327	266,257	126,287
82,495	-9,640	266,006	125,874
83,509	-9,451	265,861	125,965
84,524	-9,721	265,686	125,627
85,539	-9,941	265,463	125,312
86,553	-9,743	265,071	125,294
87,568	-9,725	264,990	125,261
88,582	-9,401	264,701	125,405
89,597	-9,759	264,558	125,003
90,611	-9,499	264,480	125,189
91,626	-9,629	264,395	125,021
92,641	-9,482	264,068	124,987
93,655	-9,439	263,850	124,911
94,670	-9,652	263,717	124,647
95,684	-9,429	263,341	124,657
96,699	-9,427	263,257	124,608
97,714	-9,588	263,050	124,355
98,728	-9,625	262,859	124,220
99,743	-9,594	262,543	124,087
100,757	-9,667	262,335	123,914
101,772	-9,637	262,123	123,829
102,787	-9,649	262,062	123,779
103,801	-9,395	261,835	123,886
104,816	-9,550	261,659	123,654
105,830	-9,336	261,488	123,752
106,845	-9,389	261,336	123,623
107,860	-9,312	261,109	123,572
108,874	-9,480	260,976	123,349
109,889	-9,520	260,693	123,168
110,903	-9,761	260,582	122,892
111,918	-9,590	260,203	122,854
112,933	-9,619	260,095	122,766
113,947	-9,558	259,965	122,747
114,962	-9,499	259,639	122,635
115,976	-9,547	259,563	122,546
116,991	-9,506	259,373	122,481
118,006	-9,551	259,254	122,374
119,020	-9,532	258,995	122,258
120,035	-9,523	259,053	122,283
121,049	-9,593	258,790	122,086
122,064	-9,430	258,475	122,069
123,079	-9,581	258,346	121,865
124,093	-9,616	257,989	121,655
125,108	-9,586	257,622	121,498
126,122	-9,961	257,569	121,135
127,137	-9,962	257,359	121,024
128,151	-9,717	257,125	121,117
129,166	-9,798	257,232	121,085
130,181	-9,676	256,841	120,997
131,195	-9,646	256,506	120,854
132,210	-9,458	256,344	120,931
133,224	-9,602	256,356	120,800
134,239	-9,582	256,246	120,755
135,254	-9,450	255,994	120,740
136,268	-9,528	255,638	120,494
137,283	-9,706	255,288	120,164
138,297	-9,998	255,232	119,875
139,312	-9,993	255,103	119,808
140,327	-9,488	254,870	120,123
141,341	-9,563	254,802	120,016
142,356	-9,320	254,643	120,140
143,370	-9,398	254,479	119,984
144,385	-9,219	254,288	120,038
145,400	-9,362	254,197	119,861
146,414	-9,407	253,865	119,656
147,429	-9,274	253,771	119,714
148,443	-9,274	253,520	119,585
149,458	-9,204	253,268	119,516
150,473	-9,271	253,111	119,374
151,487	-9,485	252,959	119,109
152,502	-9,372	252,817	119,128
153,516	-9,245	252,741	119,190
154,531	-9,293	252,546	119,046
155,546	-9,338	252,262	118,863
156,560	-9,361	252,065	118,740
157,575	-9,456	251,914	118,578
158,589	-9,529	251,798	118,450
159,604	-9,460	251,631	118,420
160,619	-9,299	251,433	118,453
161,633	-9,331	251,238	118,324
162,648	-9,174	251,157	118,408
163,662	-9,284	250,818	118,145
164,677	-9,214	250,638	118,108
165,692	-9,235	250,558	118,042
166,706	-9,299	250,581	117,989
167,721	-9,414	250,287	117,742
168,735	-9,146	249,930	117,790
169,750	-9,375	249,952	117,596
170,764	-9,131	249,782	117,712
171,779	-9,321	249,673	117,489
172,794	-9,135	249,499	117,554
173,808	-9,270	249,172	117,276
174,823	-9,782	248,963	116,737
175,837	-9,946	248,733	116,481
176,852	-9,446	248,695	116,873
177,867	-9,299	248,521	116,904
178,881	-9,220	248,547	116,971
179,896	-9,284	248,146	116,718
180,910	-9,266	248,068	116,687
181,925	-9,319	247,896	116,551
182,940	-9,394	247,807	116,437
183,954	-9,471	247,571	116,251
184,969	-9,362	247,375	116,239
185,983	-9,113	247,324	116,412
186,998	-9,178	247,062	116,224
188,013	-9,180	247,006	116,187
189,027	-9,190	246,635	115,993
190,042	-9,341	246,675	115,876
191,056	-9,209	246,411	115,852
192,071	-9,387	246,234	115,610
193,086	-9,179	245,937	115,632
194,100	-9,415	245,935	115,426
195,115	-9,133	245,588	115,485
196,129	-9,188	245,374	115,329
197,144	-9,213	245,167	115,201
198,159	-9,266	245,188	115,157
199,173	-9,213	244,905	115,057
200,188	-9,439	244,698	114,764
201,202	-9,582	244,488	114,537
202,217	-9,922	244,343	114,179
203,232	-9,858	244,005	114,065
204,246	-9,630	243,965	114,222
205,261	-9,218	243,918	114,528
206,275	-10,084	243,536	113,629
207,290	-7,028	244,712	116,683
208,304	-0,370	246,688	123,125
209,319	2,520	247,415	125,869
210,334	3,044	247,386	126,275
211,348	3,278	247,427	126,478
212,363	3,488	247,279	126,565
213,377	3,601	247,144	126,578
214,392	3,412	246,999	126,336
215,407	3,582	246,807	126,367
216,421	3,410	246,722	126,170
217,436	3,569	246,643	126,250
218,450	3,540	246,468	126,124
219,465	3,332	246,078	125,743
220,480	3,092	246,052	125,522
221,494	3,163	245,830	125,456
222,509	3,451	245,624	125,576
223,523	3,356	245,457	125,401
224,538	2,953	245,224	124,941
225,553	2,768	245,210	124,771
226,567	3,169	245,063	125,013
227,582	3,281	245,004	125,064
228,596	3,317	244,812	124,984
229,611	2,951	244,541	124,536
230,626	2,902	244,293	124,359
231,640	2,923	244,061	124,246
232,655	3,036	244,032	124,312
233,669	3,088	243,739	124,195
234,684	2,820	243,552	123,871
235,699	3,300	243,647	124,297
236,713	3,605	243,443	124,430
237,728	3,116	243,221	123,908
238,742	2,814	243,044	123,563
239,757	2,959	242,802	123,546
240,772	2,813	242,807	123,420
241,786	3,175	242,545	123,568
242,801	2,874	242,472	123,277
243,815	2,720	242,257	123,032
244,830	3,078	242,069	123,215
245,844	3,143	242,032	123,237
246,859	3,065	241,749	123,019
247,874	2,857	241,594	122,762
248,888	3,141	241,439	122,900
249,903	2,984	241,241	122,663
250,917	3,284	241,339	122,943
251,932	3,487	241,052	122,948
252,947	3,106	240,968	122,589
253,961	2,826	240,736	122,236
254,976	3,339	240,444	122,487
255,990	3,146	240,386	122,292
257,005	2,918	240,254	122,032
258,020	2,918	239,946	121,865
259,034	2,801	239,838	121,705
260,049	3,108	239,858	121,950
261,063	2,939	239,626	121,686
262,078	2,658	239,521	121,398
263,093	3,145	239,382	121,704
264,107	3,323	239,313	121,800
265,122	2,960	239,005	121,344
266,136	3,015	238,985	121,367
267,151	3,494	238,759	121,621
268,166	3,180	238,442	121,200
269,180	2,785	238,255	120,782
270,195	3,424	238,304	121,302
271,209	3,634	238,268	121,439
272,224	3,174	237,845	120,849
273,239	2,602	237,762	120,344
274,253	2,846	237,529	120,408
275,268	3,181	237,443	120,618
276,282	3,195	237,353	120,573
277,297	2,944	237,145	120,258
278,312	3,060	236,898	120,214
279,326	3,048	236,905	120,197
280,341	3,071	236,776	120,139
281,355	3,006	236,619	119,998
282,370	3,233	236,471	120,090
283,384	3,328	236,320	120,077
284,399	2,931	236,067	119,626
285,414	2,918	235,918	119,531
286,428	2,889	235,727	119,400
287,443	2,969	235,759	119,469
288,457	3,065	235,521	119,412
289,472	3,289	235,506	119,569
290,487	3,168	235,266	119,342
291,501	3,020	234,955	119,058
292,516	2,769	234,851	118,799
293,530	2,661	234,797	118,677
294,545	2,954	234,610	118,800
295,560	3,298	234,520	119,011
296,574	3,052	234,159	118,627
297,589	2,928	234,170	118,526
298,603	3,234	234,025	118,679
299,618	3,363	233,832	118,670
300,633	3,362	233,672	118,578
301,647	3,441	233,621	118,602
302,662	3,687	233,605	118,774
303,676	3,565	233,551	118,642
304,691	3,458	233,354	118,449
305,706	3,501	233,195	118,390
306,720	3,515	232,995	118,289
307,735	3,457	232,734	118,102
308,749	3,249	232,588	117,856
309,764	2,878	232,474	117,503
310,779	3,112	232,095	117,480
311,793	2,578	232,045	117,034
312,808	2,921	231,766	117,147
313,822	2,886	231,646	117,048
314,837	2,790	231,563	116,922
315,852	2,828	231,460	116,889
316,866	3,184	231,298	117,070
317,881	3,396	231,251	117,198
318,895	3,437	231,042	117,112
319,910	3,455	231,104	117,147
320,925	3,126	230,836	116,750
321,939	3,183	230,562	116,644
322,954	3,447	230,500	116,804
323,968	3,323	230,169	116,531
324,983	2,997	230,120	116,248
325,997	2,764	229,924	115,961
327,012	3,276	229,857	116,306
328,027	3,391	229,744	116,326
329,041	3,456	229,740	116,363
330,056	3,867	229,717	116,653
331,070	3,797	229,399	116,427
332,085	3,010	229,225	115,733
333,100	3,178	229,082	115,777
334,114	3,288	228,902	115,759
335,129	3,263	228,789	115,673
336,143	3,269	228,862	115,705
337,158	3,365	228,629	115,649
338,173	3,742	228,441	115,828
339,187	3,509	228,219	115,529
340,202	3,481	228,094	115,435
341,216	3,613	227,789	115,369
342,231	3,293	227,741	115,094
343,246	3,311	227,636	115,044
344,260	3,358	227,552	115,027
345,275	3,372	227,390	114,945
346,289	3,547	227,295	115,018
347,304	3,537	227,198	114,951
348,319	3,587	226,977	114,867
349,333	3,435	226,918	114,712
350,348	3,280	226,468	114,359
351,362	3,440	226,567	114,519
352,377	3,271	226,315	114,255
353,392	3,187	226,192	114,120
354,406	3,098	225,967	113,930
355,421	195,462	1322,448	1399,867
356,435	156,667	1456,041	1399,866
