DTS Sentinel unit serial number:	SN410029Multiplexer serial number:	ORYXHardware model number:	OX2-SRSoftware version number:	ORYX F/W v4,00 Oryx Data Collector v3.7.2.0data status	okinstallation	B5 Nyhavnadifferential loss correction	single-endedforward channel	channel 2reverse channel	N/Adate	2023/12/11time	14:22:13forward acquisition time	300,00reverse acquisition time	0,00gamma	499,1914k internal	0,3166k external	0,3166temperature offset calibration	1,0000default loss term (dB/km)	0,3820temperature slope calibration	1,0000multiplexer offset coefficient	1,0000multiplexer slope coefficient	1,0000fibre end	0,00T internal ref (°C)	12,31T ext. ref 1 (°C)	-1,80T ext. ref 2 (°C)	-1,83length (m)	temperature (°C)	Stokes	anti-Stokes-744,400	344,292	0,065	0,094
-743,385	-118,786	-0,389	0,050
-742,371	52,713	0,082	0,057
-741,356	-123,137	-0,329	-0,038
-740,342	138,081	0,166	0,160
-739,327	-53,265	-0,342	0,115
-738,312	140,013	0,046	0,045
-737,298	-152,236	-0,359	-0,019
-736,283	301,536	0,078	0,106
-735,269	-74,705	-0,206	-0,054
-734,254	-200,000	-0,026	0,220
-733,239	-12,758	-0,401	-0,191
-732,225	-70,409	0,163	-0,045
-731,210	150,458	0,082	0,081
-730,196	-59,455	-0,061	-0,019
-729,181	341,668	-0,035	0,050
-728,167	-121,319	-0,157	0,019
-727,152	253,201	0,031	0,039
-726,137	24,181	0,138	0,083
-725,123	153,279	-0,047	0,047
-724,108	766,373	-0,056	-0,111
-723,094	-169,861	0,065	-0,002
-722,079	800,000	-0,084	-0,192
-721,064	-200,000	-0,048	-0,164
-720,050	-200,000	-0,029	-0,120
-719,035	800,000	-0,054	-0,113
-718,021	-130,175	0,107	0,011
-717,006	22,985	-0,126	0,076
-715,991	-200,000	-0,034	-0,168
-714,977	-200,000	0,030	0,000
-713,962	-200,000	0,007	-0,114
-712,948	119,486	-0,041	-0,037
-711,933	154,999	-0,022	0,022
-710,918	125,241	-0,067	-0,062
-709,904	800,000	-0,004	-0,008
-708,889	50,172	-0,069	0,047
-707,875	131,498	-0,027	0,025
-706,860	800,000	-0,068	0,141
-705,845	-74,337	-0,034	0,009
-704,831	184,943	-0,064	0,070
-703,816	-200,000	0,013	-0,098
-702,802	-67,235	-0,154	-0,044
-701,787	800,000	-0,052	0,153
-700,772	-200,000	0,024	0,103
-699,758	-20,480	0,110	-0,049
-698,743	-146,335	-0,112	0,007
-697,729	318,746	-0,089	0,124
-696,714	-6,235	0,095	-0,047
-695,699	600,248	-0,076	-0,139
-694,685	-200,000	-0,001	0,082
-693,670	-200,000	-0,017	-0,161
-692,656	-136,479	-0,107	0,009
-691,641	316,001	0,052	0,072
-690,627	-200,000	0,018	-0,101
-689,612	-200,000	0,003	0,111
-688,597	-63,626	-0,048	0,014
-687,583	800,000	-0,043	-0,124
-686,568	-200,000	-0,018	-0,203
-685,554	-160,694	-0,078	0,003
-684,539	763,122	0,080	0,161
-683,524	-10,344	0,150	0,073
-682,510	-200,000	-0,001	0,050
-681,495	657,402	-0,041	-0,078
-680,481	86,299	-0,204	-0,165
-679,466	-69,653	-0,043	-0,012
-678,451	89,091	0,021	0,017
-677,437	-70,408	-0,073	0,020
-676,422	-200,000	-0,005	-0,118
-675,408	-200,000	-0,035	-0,127
-674,393	800,000	-0,045	0,096
-673,378	-200,000	-0,030	-0,228
-672,364	87,598	-0,029	-0,024
-671,349	150,969	-0,048	-0,047
-670,335	800,000	0,051	0,126
-669,320	-97,937	0,086	0,016
-668,305	-34,795	0,075	-0,030
-667,291	-200,000	0,036	0,130
-666,276	-200,000	0,000	-0,002
-665,262	-200,000	0,005	-0,118
-664,247	20,889	0,082	-0,049
-663,232	38,803	-0,071	-0,047
-662,218	196,326	0,030	-0,033
-661,203	-200,000	0,003	-0,061
-660,189	89,510	-0,034	-0,027
-659,174	26,277	0,039	-0,024
-658,159	581,553	-0,041	-0,073
-657,145	-200,000	0,005	-0,115
-656,130	348,730	-0,042	0,061
-655,116	-133,205	-0,075	-0,007
-654,101	49,309	-0,042	0,029
-653,086	-163,298	-0,165	0,006
-652,072	-200,000	-0,028	-0,094
-651,057	-200,000	-0,013	-0,110
-650,043	235,450	-0,046	-0,056
-649,028	800,000	-0,021	-0,047
-648,014	-167,716	0,139	-0,004
-646,999	1,411	-0,038	0,020
-645,984	-200,000	0,007	-0,029
-644,970	447,465	-0,030	0,048
-643,955	-200,000	-0,040	-0,137
-642,941	800,000	-0,042	-0,128
-641,926	48,472	0,024	-0,016
-640,911	71,803	-0,082	-0,062
-639,897	127,157	0,100	-0,093
-638,882	-200,000	-0,004	-0,085
-637,868	606,628	0,051	-0,094
-636,853	-200,000	0,042	-0,137
-635,838	800,000	-0,052	-0,120
-634,824	-178,604	0,088	-0,001
-633,809	124,000	-0,022	0,020
-632,795	78,072	0,107	-0,083
-631,780	-200,000	-0,004	-0,037
-630,765	-10,120	0,047	0,023
-629,751	-65,215	-0,153	0,045
-628,736	800,000	-0,042	0,088
-627,722	399,505	0,025	0,038
-626,707	-69,608	0,031	-0,009
-625,692	90,321	-0,064	0,052
-624,678	-68,076	0,199	-0,056
-623,663	172,512	-0,074	-0,078
-622,649	343,470	-0,025	0,037
-621,634	554,761	-0,057	-0,100
-620,619	-200,000	-0,012	-0,142
-619,605	-58,685	0,054	-0,017
-618,590	517,785	-0,062	0,106
-617,576	445,219	-0,083	-0,133
-616,561	800,000	-0,035	-0,073
-615,546	-162,367	-0,071	0,003
-614,532	-8,714	-0,122	-0,059
-613,517	765,997	-0,036	-0,072
-612,503	-51,481	0,054	-0,019
-611,488	208,003	0,111	0,127
-610,474	800,000	0,025	-0,052
-609,459	32,798	0,065	0,041
-608,444	800,000	-0,027	-0,054
-607,430	-1,420	-0,092	-0,047
-606,415	800,000	0,009	-0,023
-605,401	-200,000	-0,010	-0,109
-604,386	-200,000	0,020	0,110
-603,371	233,857	-0,035	-0,042
-602,357	-200,000	-0,007	-0,116
-601,342	471,521	-0,039	-0,064
-600,328	800,000	0,014	-0,035
-599,313	-31,088	-0,104	0,043
-598,298	-59,242	0,122	0,038
-597,284	75,575	-0,045	0,035
-596,269	-200,000	-0,011	-0,077
-595,255	-103,352	0,051	-0,009
-594,240	2,251	-0,055	-0,029
-593,225	-200,000	0,047	-0,203
-592,211	114,039	-0,043	-0,038
-591,196	409,880	-0,094	-0,147
-590,182	-200,000	0,000	0,007
-589,167	-69,148	0,075	0,021
-588,152	-124,008	-0,018	0,002
-587,138	-200,000	0,009	0,064
-586,123	800,000	-0,040	0,123
-585,109	-5,265	-0,109	0,055
-584,094	53,152	0,083	-0,058
-583,079	800,000	0,023	0,061
-582,065	255,289	0,036	-0,045
-581,050	-88,874	0,097	-0,021
-580,036	800,000	0,022	-0,054
-579,021	182,441	0,044	-0,048
-578,006	336,372	-0,096	0,137
-576,992	433,347	0,066	-0,106
-575,977	-90,514	0,039	-0,008
-574,963	31,955	-0,078	-0,049
-573,948	-200,000	-0,013	0,097
-572,934	128,749	0,075	-0,070
-571,919	124,457	-0,081	0,074
-570,904	101,895	-0,043	0,036
-569,890	-142,945	-0,108	0,008
-568,875	-130,449	0,161	0,016
-567,861	1,539	0,031	0,016
-566,846	20,370	0,086	0,050
-565,831	282,530	-0,094	0,123
-564,817	-200,000	0,004	-0,058
-563,802	-71,787	-0,057	-0,015
-562,788	-200,000	0,013	-0,071
-561,773	72,287	-0,141	-0,107
-560,758	-200,000	0,004	-0,041
-559,744	-105,133	0,125	0,021
-558,729	-200,000	-0,034	-0,112
-557,715	-200,000	0,001	0,008
-556,700	159,756	-0,068	-0,069
-555,685	-200,000	0,004	-0,020
-554,671	34,987	0,125	0,080
-553,656	-72,454	-0,068	0,018
-552,642	223,333	-0,039	0,046
-551,627	800,000	-0,020	-0,054
-550,612	800,000	-0,039	-0,106
-549,598	800,000	-0,068	-0,157
-548,583	227,942	-0,055	-0,065
-547,569	-51,179	0,098	0,033
-546,554	266,528	-0,019	0,024
-545,539	348,044	-0,031	0,045
-544,525	327,046	-0,060	0,085
-543,510	-37,529	0,135	-0,052
-542,496	-200,000	0,013	-0,119
-541,481	-33,577	-0,114	0,046
-540,466	440,377	0,014	0,023
-539,452	122,534	-0,060	-0,055
-538,437	-74,128	0,067	-0,017
-537,423	-27,457	-0,045	0,019
-536,408	-9,752	0,046	0,022
-535,393	-200,000	-0,015	-0,075
-534,379	60,395	-0,058	-0,042
-533,364	-7,915	-0,115	-0,056
-532,350	479,429	-0,018	0,030
-531,335	5,405	0,035	-0,019
-530,321	-80,604	-0,075	0,018
-529,306	-200,000	0,012	0,072
-528,291	332,585	0,104	-0,147
-527,277	370,961	-0,132	-0,196
-526,262	800,000	0,050	-0,133
-525,248	800,000	0,009	-0,021
-524,233	338,906	-0,034	-0,048
-523,218	126,649	-0,066	0,061
-522,204	-200,000	0,022	-0,115
-521,189	-100,337	-0,080	-0,014
-520,175	84,248	-0,055	0,044
-519,160	-200,000	0,009	-0,180
-518,145	-106,714	0,145	0,023
-517,131	-25,028	0,096	0,041
-516,116	-200,000	0,004	-0,044
-515,102	138,347	-0,015	-0,014
-514,087	-39,535	-0,141	-0,054
-513,072	-200,000	0,011	-0,050
-512,058	506,731	0,033	0,056
-511,043	-26,672	-0,074	0,031
-510,029	800,000	0,021	-0,044
-509,014	417,865	0,044	-0,068
-507,999	436,252	0,051	0,081
-506,985	-138,871	-0,135	0,011
-505,970	800,000	-0,061	-0,174
-504,956	-200,000	0,016	0,191
-503,941	-200,000	-0,008	0,037
-502,926	253,135	-0,021	-0,026
-501,912	127,598	-0,029	0,027
-500,897	153,063	-0,030	0,030
-499,883	629,369	-0,021	-0,038
-498,868	14,331	-0,070	0,040
-497,853	-14,786	-0,075	0,035
-496,839	-3,082	0,053	-0,027
-495,824	-200,000	-0,002	-0,106
-494,810	-200,000	0,005	0,029
-493,795	-82,981	-0,024	0,006
-492,781	-200,000	0,027	-0,200
-491,766	2,709	0,012	-0,006
-490,751	800,000	-0,020	-0,043
-489,737	-16,025	0,103	-0,048
-488,722	-200,000	-0,005	-0,074
-487,708	800,000	0,031	-0,074
-486,693	19,785	-0,099	0,058
-485,678	88,555	0,090	0,073
-484,664	800,000	0,037	-0,089
-483,649	288,476	0,098	-0,129
-482,635	113,797	0,063	-0,056
-481,620	99,955	0,115	-0,097
-480,605	50,197	-0,058	0,040
-479,591	-91,248	0,061	0,013
-478,576	11,346	-0,106	0,059
-477,562	-168,915	0,030	0,001
-476,547	-7,145	-0,022	0,011
-475,532	27,992	0,086	0,053
-474,518	10,919	0,080	0,044
-473,503	-33,867	0,053	0,021
-472,489	-200,000	0,014	0,060
-471,474	-200,000	0,028	-0,090
-470,459	344,166	-0,080	-0,114
-469,445	251,659	-0,051	0,064
-468,430	779,004	-0,093	0,187
-467,416	162,815	0,099	-0,101
-466,401	-200,000	-0,002	-0,034
-465,386	-200,000	-0,008	0,127
-464,372	-49,001	0,119	0,041
-463,357	339,997	-0,026	-0,037
-462,343	-200,000	-0,001	-0,053
-461,328	746,828	0,045	0,089
-460,313	-47,396	0,044	-0,016
-459,299	-200,000	-0,027	0,093
-458,284	123,290	-0,050	0,045
-457,270	-29,006	0,071	0,030
-456,255	65,487	-0,076	0,056
-455,241	-200,000	0,001	-0,044
-454,226	81,942	0,153	-0,121
-453,211	-200,000	-0,016	-0,117
-452,197	-200,000	0,006	-0,059
-451,182	800,000	0,058	0,165
-450,168	311,495	-0,090	0,123
-449,153	-200,000	0,005	0,051
-448,138	-200,000	-0,036	-0,137
-447,124	86,912	-0,073	-0,059
-446,109	327,489	0,086	-0,120
-445,095	456,651	0,099	0,160
-444,080	37,077	-0,139	0,089
-443,065	9,932	0,096	0,053
-442,051	-200,000	-0,000	0,153
-441,036	-93,418	0,168	0,034
-440,022	-33,826	-0,108	-0,043
-439,007	-200,000	-0,007	0,037
-437,992	225,765	0,037	-0,044
-436,978	800,000	0,027	0,061
-435,963	31,042	0,141	0,088
-434,949	-48,520	-0,099	-0,034
-433,934	376,907	-0,061	-0,091
-432,919	-28,479	-0,163	-0,068
-431,905	800,000	-0,017	-0,053
-430,890	-200,000	0,006	0,145
-429,876	460,438	-0,063	-0,102
-428,861	12,748	0,014	-0,008
-427,846	123,440	-0,068	-0,062
-426,832	-33,136	-0,150	0,060
-425,817	593,795	0,075	-0,135
-424,803	-15,769	-0,138	-0,063
-423,788	-200,000	-0,009	0,097
-422,773	800,000	0,073	0,195
-421,759	53,652	-0,033	0,023
-420,744	123,356	-0,097	0,088
-419,730	-160,130	-0,035	0,001
-418,715	800,000	-0,011	0,034
-417,701	-200,000	-0,003	-0,047
-416,686	-200,000	-0,024	0,099
-415,671	-14,993	-0,066	0,030
-414,657	21,519	-0,116	-0,068
-413,642	57,956	-0,041	0,029
-412,628	59,965	-0,079	0,057
-411,613	-51,637	0,034	0,012
-410,598	-200,000	-0,014	-0,055
-409,584	-189,909	-0,074	-0,001
-408,569	800,000	0,028	0,070
-407,555	52,366	0,215	0,149
-406,540	-200,000	0,005	-0,029
-405,525	-118,939	-0,096	0,012
-404,511	336,079	-0,035	-0,050
-403,496	20,467	0,011	-0,006
-402,482	-96,144	0,122	-0,023
-401,467	-89,557	0,114	0,024
-400,452	800,000	0,034	0,080
-399,438	191,336	0,082	0,090
-398,423	-69,703	-0,134	0,037
-397,409	-144,692	-0,095	0,006
-396,394	267,820	-0,057	-0,073
-395,379	-89,187	-0,050	0,011
-394,365	113,912	0,060	0,053
-393,350	-31,274	0,087	0,035
-392,336	800,000	0,026	0,067
-391,321	800,000	0,039	0,089
-390,306	-12,787	-0,070	0,033
-389,292	-200,000	0,000	0,005
-388,277	8,907	0,069	0,038
-387,263	122,101	0,083	0,076
-386,248	410,695	0,091	0,141
-385,233	800,000	0,046	0,103
-384,219	-200,000	0,002	0,054
-383,204	-200,000	-0,004	0,077
-382,190	151,279	-0,071	0,070
-381,175	-101,965	0,016	-0,003
-380,160	-200,000	0,029	0,112
-379,146	800,000	0,044	0,104
-378,131	800,000	-0,030	0,088
-377,117	-20,830	0,028	-0,012
-376,102	169,919	0,065	-0,067
-375,088	800,000	-0,010	-0,023
-374,073	800,000	0,017	-0,050
-373,058	-200,000	0,008	0,179
-372,044	-128,647	0,160	0,016
-371,029	344,473	0,057	0,082
-370,015	-4,337	-0,052	-0,026
-369,000	800,000	0,029	-0,071
-367,985	142,314	-0,034	-0,033
-366,971	-200,000	0,021	-0,127
-365,956	-200,000	0,010	-0,047
-364,942	-107,924	0,127	-0,020
-363,927	800,000	-0,043	0,104
-362,912	-0,586	0,042	0,021
-361,898	-79,470	0,065	-0,016
-360,883	800,000	0,028	-0,072
-359,869	618,041	0,034	0,062
-358,854	800,000	0,024	0,053
-357,839	-200,000	-0,008	-0,040
-356,825	385,952	0,064	0,096
-355,810	-200,000	-0,024	-0,124
-354,796	-95,073	0,106	-0,021
-353,781	-124,941	-0,091	0,010
-352,766	781,077	-0,055	-0,109
-351,752	139,656	0,035	-0,033
-350,737	-11,703	-0,079	0,037
-349,723	155,027	-0,097	0,096
-348,708	49,136	-0,037	0,025
-347,693	512,310	-0,049	0,083
-346,679	800,000	-0,036	-0,097
-345,664	-200,000	0,051	-0,205
-344,650	-200,000	0,012	0,073
-343,635	593,339	0,058	0,104
-342,620	41,125	-0,055	0,036
-341,606	1,288	-0,094	0,049
-340,591	-97,357	-0,107	0,020
-339,577	-200,000	0,017	-0,109
-338,562	697,670	-0,044	-0,084
-337,548	392,169	0,019	-0,029
-336,533	141,422	0,130	0,125
-335,518	120,468	0,074	0,066
-334,504	79,823	0,071	0,055
-333,489	321,886	0,038	0,052
-332,475	800,000	0,015	-0,034
-331,460	152,773	-0,186	-0,184
-330,445	91,863	-0,092	0,074
-329,431	800,000	0,048	0,105
-328,416	96,159	0,197	0,163
-327,402	-200,000	0,020	0,073
-326,387	247,077	0,061	0,074
-325,372	-3,559	-0,141	-0,071
-324,358	27,682	0,020	0,012
-323,343	800,000	0,041	-0,095
-322,329	-200,000	-0,022	-0,147
-321,314	800,000	-0,008	0,024
-320,299	391,343	-0,090	0,135
-319,285	-145,451	-0,181	0,012
-318,270	-70,846	0,034	-0,009
-317,256	44,693	-0,119	0,079
-316,241	-200,000	0,007	-0,056
-315,226	533,924	-0,024	0,042
-314,212	-82,758	0,209	0,048
-313,197	72,646	0,055	0,042
-312,183	-200,000	0,004	-0,072
-311,168	-113,001	-0,072	0,010
-310,153	-200,000	0,006	-0,074
-309,139	137,665	-0,122	-0,116
-308,124	-143,543	0,095	-0,006
-307,110	-107,432	0,084	0,013
-306,095	-22,661	-0,021	-0,009
-305,080	5,093	0,148	-0,078
-304,066	-186,030	-0,057	-0,001
-303,051	181,752	-0,031	-0,034
-302,037	800,000	0,040	0,084
-301,022	-147,699	0,084	0,005
-300,008	-23,165	0,175	0,076
-298,993	-111,065	-0,057	0,008
-297,978	-200,000	-0,030	-0,130
-296,964	-200,000	0,014	0,163
-295,949	-200,000	0,017	-0,095
-294,935	800,000	0,049	-0,126
-293,920	-200,000	0,009	0,043
-292,905	-23,791	0,131	0,056
-291,891	-32,422	0,055	0,022
-290,876	500,405	-0,103	0,172
-289,862	473,837	0,086	-0,140
-288,847	7,915	-0,047	-0,025
-287,832	-53,116	-0,106	-0,035
-286,818	-136,577	0,062	-0,005
-285,803	68,409	0,024	0,018
-284,789	140,038	0,068	0,065
-283,774	91,596	0,111	0,090
-282,759	-112,583	0,034	-0,005
-281,745	-200,000	0,035	0,150
-280,730	800,000	-0,019	-0,055
-279,716	800,000	-0,014	-0,031
-278,701	132,860	0,108	0,101
-277,686	-75,013	0,112	0,029
-276,672	19,025	-0,061	-0,035
-275,657	282,599	0,072	-0,093
-274,643	26,616	-0,068	-0,041
-273,628	-119,376	-0,071	0,009
-272,613	-200,000	-0,024	0,102
-271,599	350,952	0,038	-0,055
-270,584	38,147	0,085	0,055
-269,570	-200,000	0,009	0,050
-268,555	56,085	-0,018	0,013
-267,540	-200,000	-0,004	-0,040
-266,526	800,000	-0,045	-0,100
-265,511	87,758	0,101	-0,081
-264,497	-200,000	0,009	-0,040
-263,482	147,148	0,076	-0,074
-262,467	-200,000	-0,007	0,027
-261,453	800,000	0,035	-0,091
-260,438	800,000	-0,046	0,097
-259,424	-200,000	0,003	-0,043
-258,409	178,479	-0,039	-0,042
-257,395	176,860	-0,051	-0,054
-256,380	800,000	-0,012	0,024
-255,365	402,451	-0,080	0,122
-254,351	28,333	-0,124	0,076
-253,336	-200,000	0,009	-0,037
-252,322	-74,520	-0,064	0,016
-251,307	258,239	-0,087	0,108
-250,292	-170,768	0,007	-0,000
-249,278	-200,000	-0,030	0,151
-248,263	34,869	0,043	-0,027
-247,249	-157,895	-0,027	-0,001
-246,234	196,189	-0,025	-0,027
-245,219	129,024	-0,023	0,021
-244,205	-19,011	-0,101	-0,045
-243,190	-102,332	-0,048	-0,008
-242,176	-113,958	0,233	0,032
-241,161	339,233	0,092	0,129
-240,146	290,537	0,047	0,061
-239,132	-129,250	0,078	-0,008
-238,117	-96,263	0,146	-0,028
-237,103	265,892	0,008	0,010
-236,088	325,990	0,075	-0,104
-235,073	-67,553	0,041	-0,011
-234,059	438,841	0,039	-0,062
-233,044	-153,796	-0,032	-0,002
-232,030	13,985	-0,023	0,013
-231,015	678,326	-0,054	-0,102
-230,000	800,000	-0,021	-0,046
-228,986	-25,484	0,113	-0,048
-227,971	54,476	-0,121	-0,084
-226,957	-70,990	-0,026	0,007
-225,942	-94,987	0,095	0,018
-224,927	322,856	-0,036	0,050
-223,913	264,993	-0,031	0,039
-222,898	800,000	0,031	0,089
-221,884	760,767	0,047	-0,092
-220,869	-25,884	0,072	-0,030
-219,855	-200,000	-0,010	0,040
-218,840	148,467	0,058	-0,056
-217,825	-14,435	-0,153	0,071
-216,811	-150,868	-0,096	0,005
-215,796	-181,784	-0,163	0,002
-214,782	97,190	0,071	0,059
-213,767	48,881	-0,055	-0,037
-212,752	764,672	-0,048	0,095
-211,738	576,356	-0,085	0,150
-210,723	433,484	0,061	-0,096
-209,709	-60,991	-0,041	0,012
-208,694	-17,384	-0,119	-0,054
-207,679	36,555	-0,088	0,056
-206,665	-200,000	-0,007	0,059
-205,650	-27,116	0,111	0,046
-204,636	-200,000	0,005	0,066
-203,621	-129,774	-0,134	0,013
-202,606	149,764	-0,023	-0,022
-201,592	-8,827	0,079	-0,038
-200,577	2,862	-0,037	-0,019
-199,563	18,602	-0,091	-0,052
-198,548	796,534	-0,035	0,070
-197,533	77,426	0,068	0,052
-196,519	-46,759	-0,074	-0,026
-195,504	153,551	0,053	-0,053
-194,490	73,959	-0,101	0,076
-193,475	-53,224	0,131	0,043
-192,460	161,861	0,036	-0,036
-191,446	800,000	0,016	0,042
-190,431	308,255	0,028	-0,037
-189,417	800,000	-0,035	0,086
-188,402	-38,406	-0,061	-0,023
-187,387	800,000	0,013	0,038
-186,373	-200,000	-0,010	-0,095
-185,358	-200,000	0,005	-0,063
-184,344	800,000	-0,051	0,120
-183,329	195,413	0,081	0,089
-182,315	800,000	-0,016	0,047
-181,300	-47,911	0,038	-0,013
-180,285	800,000	-0,039	-0,111
-179,271	228,563	0,040	0,047
-178,256	115,288	-0,034	0,030
-177,242	-150,946	0,131	-0,007
-176,227	155,655	-0,060	0,060
-175,212	-200,000	0,017	0,232
-174,198	-200,000	0,015	0,128
-173,183	-200,000	-0,018	0,253
-172,169	-108,946	-0,130	-0,020
-171,154	800,000	-0,053	-0,115
-170,139	-200,000	0,014	0,075
-169,125	36,210	-0,068	-0,043
-168,110	-88,752	-0,017	0,004
-167,096	386,840	0,069	-0,102
-166,081	-77,969	-0,078	-0,019
-165,066	800,000	-0,027	-0,071
-164,052	-200,000	0,023	0,091
-163,037	139,017	-0,056	0,053
-162,023	206,527	0,079	0,089
-161,008	36,047	-0,097	0,061
-159,993	-130,386	0,042	0,004
-158,979	34,101	0,047	-0,030
-157,964	-29,967	0,041	-0,017
-156,950	-200,000	-0,024	0,078
-155,935	-200,000	-0,009	-0,037
-154,920	-160,105	0,083	-0,003
-153,906	800,000	0,039	-0,100
-152,891	-200,000	-0,014	0,055
-151,877	349,513	-0,095	0,135
-150,862	-200,000	-0,004	-0,105
-149,847	-200,000	0,004	-0,091
-148,833	-9,747	0,025	0,012
-147,818	-11,736	0,127	-0,060
-146,804	92,595	0,072	0,058
-145,789	-49,918	-0,096	-0,033
-144,775	51,492	0,086	0,059
-143,760	578,193	-0,054	-0,096
-142,745	34,930	-0,096	0,060
-141,731	342,843	-0,138	0,195
-140,716	197,556	0,044	0,048
-139,702	-54,722	-0,106	0,034
-138,687	547,105	0,041	0,071
-137,672	-9,436	-0,078	-0,037
-136,658	-200,000	-0,030	0,109
-135,643	90,260	-0,013	-0,010
-134,629	95,851	-0,113	0,093
-133,614	-41,436	0,131	0,048
-132,599	-52,859	-0,146	0,048
-131,585	-143,019	-0,025	0,002
-130,570	800,000	-0,023	0,065
-129,556	521,052	0,052	-0,088
-128,541	341,213	-0,100	-0,141
-127,526	-74,625	0,121	0,031
-126,512	-200,000	0,009	-0,071
-125,497	800,000	-0,015	-0,048
-124,483	-36,163	0,106	0,041
-123,468	413,256	-0,053	0,082
-122,453	-54,033	-0,077	0,025
-121,439	499,898	-0,055	0,092
-120,424	-200,000	-0,016	-0,132
-119,410	191,874	0,075	0,082
-118,395	800,000	-0,029	0,073
-117,380	-40,099	-0,066	-0,025
-116,366	234,642	-0,060	-0,071
-115,351	9,909	-0,039	-0,021
-114,337	21,567	-0,110	0,064
-113,322	-13,994	0,069	0,032
-112,307	438,360	0,025	-0,039
-111,293	800,000	-0,037	0,101
-110,278	-200,000	0,025	0,093
-109,264	-200,000	0,010	0,081
-108,249	-200,000	0,007	-0,079
-107,234	8,646	-0,045	-0,024
-106,220	145,192	0,013	-0,012
-105,205	-200,000	0,023	-0,095
-104,191	-200,000	0,030	0,150
-103,176	-110,135	0,068	0,010
-102,162	800,000	0,023	0,050
-101,147	-78,551	0,028	-0,007
-100,132	-200,000	0,009	0,076
-99,118	562,055	0,026	-0,046
-98,103	-64,507	-0,034	-0,010
-97,089	-200,000	0,010	0,101
-96,074	-2,489	0,042	0,021
-95,059	522,289	0,049	-0,082
-94,045	-62,237	-0,033	-0,010
-93,030	10,932	-0,027	0,015
-92,016	-200,000	0,001	-0,034
-91,001	494,551	-0,040	-0,067
-89,986	800,000	-0,047	0,110
-88,972	-182,675	-0,039	0,000
-87,957	-200,000	-0,005	0,031
-86,943	-200,000	0,030	-0,116
-85,928	-5,528	-0,118	0,058
-84,913	-35,464	0,111	-0,043
-83,899	-200,000	0,013	0,125
-82,884	800,000	-0,019	-0,045
-81,870	554,192	0,037	-0,065
-80,855	-13,486	0,017	-0,008
-79,840	-50,804	0,094	-0,031
-78,826	241,823	-0,070	-0,084
-77,811	-3,969	0,073	0,036
-76,797	-137,715	0,033	0,003
-75,782	-200,000	0,003	0,156
-74,767	781,690	0,068	0,134
-73,753	99,935	-0,033	-0,027
-72,738	800,000	0,043	0,130
-71,724	-48,762	-0,153	-0,052
-70,709	-200,000	0,003	-0,056
-69,694	266,881	-0,007	-0,009
-68,680	65,597	0,073	0,053
-67,665	800,000	-0,055	0,137
-66,651	-200,000	-0,020	0,087
-65,636	800,000	0,073	-0,170
-64,622	-200,000	0,002	-0,051
-63,607	-15,297	-0,108	-0,049
-62,592	24,765	0,093	-0,055
-61,578	117,981	0,038	-0,034
-60,563	800,000	0,028	0,090
-59,549	800,000	0,063	0,132
-58,534	54,224	-2,191	-1,508
-57,519	-200,000	0,088	-0,700
-56,505	-200,000	-1,456	-5,139
-55,490	196,070	0,837	0,913
-54,476	800,000	5,441	12,361
-53,461	-200,000	19,369	320,279
-52,446	800,000	751,215	2306,383
-51,432	536,305	1662,779	2835,797
-50,417	115,327	1639,936	1433,553
-49,403	82,946	1287,197	1001,076
-48,388	31,143	1026,923	629,069
-47,373	19,537	989,544	567,972
-46,359	16,184	977,422	550,011
-45,344	12,815	974,075	537,078
-44,330	13,171	972,217	537,199
-43,315	12,364	970,282	533,471
-42,300	12,331	969,311	532,810
-41,286	12,425	968,143	532,451
-40,271	12,340	967,416	531,756
-39,257	12,403	966,321	531,336
-38,242	12,371	965,451	530,733
-37,227	12,308	964,865	530,186
-36,213	12,335	963,799	529,668
-35,198	12,330	962,884	529,126
-34,184	12,338	962,218	528,763
-33,169	12,261	961,399	528,046
-32,154	12,356	960,270	527,712
-31,140	12,337	959,437	527,172
-30,125	12,360	958,859	526,908
-29,111	12,291	958,183	526,291
-28,096	12,289	957,495	525,887
-27,082	12,364	956,472	525,545
-26,067	12,383	955,896	525,267
-25,052	12,348	955,077	524,684
-24,038	12,336	954,374	524,239
-23,023	12,280	953,918	523,789
-22,009	12,366	953,087	523,586
-20,994	12,372	952,611	523,323
-19,979	12,380	952,081	523,037
-18,965	12,341	951,289	522,458
-17,950	12,358	950,782	522,212
-16,936	12,279	950,165	521,599
-15,921	12,308	949,423	521,266
-14,906	12,239	948,636	520,591
-13,892	12,216	948,023	520,162
-12,877	12,214	947,439	519,814
-11,863	12,234	946,730	519,468
-10,848	12,218	946,207	519,109
-9,833	12,323	945,783	519,190
-8,819	12,286	944,927	518,581
-7,804	12,277	944,240	518,157
-6,790	12,174	943,888	517,617
-5,775	12,289	943,136	517,548
-4,760	12,299	942,513	517,217
-3,746	12,229	941,925	516,652
-2,731	12,142	941,343	516,036
-1,717	12,097	940,478	515,399
-0,702	12,102	939,975	515,119
0,313	11,868	939,485	514,890
1,327	15,583	936,977	525,171
2,342	25,251	791,799	469,327
3,356	21,848	458,622	266,622
4,371	-5,311	317,756	155,588
5,386	-9,335	299,864	142,700
6,400	-10,937	293,949	138,264
7,415	-10,698	291,590	137,380
8,429	-10,595	289,904	136,676
9,444	-10,612	288,883	136,165
10,459	-10,829	288,350	135,688
11,473	-11,079	287,668	135,110
12,488	-11,380	286,935	134,459
13,502	-11,543	286,290	133,985
14,517	-11,316	285,894	134,009
15,531	-11,192	285,619	133,990
16,546	-10,993	285,319	134,030
17,561	-10,979	284,812	133,795
18,575	-10,889	284,616	133,777
19,590	-10,977	284,257	133,511
20,604	-10,790	284,003	133,562
21,619	-11,096	283,608	133,068
22,634	-10,830	283,150	133,098
23,648	-10,998	282,864	132,790
24,663	-11,029	282,654	132,649
25,677	-11,055	282,484	132,533
26,692	-11,008	282,120	132,395
27,707	-10,937	281,871	132,335
28,721	-10,840	281,526	132,255
29,736	-11,005	281,380	132,015
30,750	-10,902	281,059	131,952
31,765	-11,043	280,748	131,659
32,780	-11,183	280,596	131,442
33,794	-11,068	280,273	131,389
34,809	-11,006	279,932	131,277
35,823	-11,023	279,670	131,126
36,838	-11,060	279,399	130,952
37,853	-11,156	279,163	130,738
38,867	-11,099	279,005	130,707
39,882	-11,129	278,690	130,519
40,896	-11,529	278,699	130,132
41,911	-11,204	278,280	130,232
42,926	-11,075	277,786	130,112
43,940	-11,076	277,767	130,090
44,955	-11,074	277,401	129,909
45,969	-11,196	277,091	129,638
46,984	-11,353	277,020	129,445
47,999	-11,498	276,886	129,234
49,013	-11,120	276,433	129,366
50,028	-11,429	276,366	129,033
51,042	-11,428	275,973	128,839
52,057	-11,477	275,801	128,702
53,071	-11,487	275,592	128,583
54,086	-11,386	275,247	128,505
55,101	-11,586	275,187	128,278
56,115	-11,238	274,834	128,427
57,130	-11,097	274,763	128,515
58,144	-11,237	274,460	128,231
59,159	-11,038	274,093	128,234
60,174	-11,227	274,100	128,049
61,188	-11,198	273,780	127,915
62,203	-11,168	273,587	127,842
63,217	-11,048	273,402	127,855
64,232	-11,092	273,040	127,634
65,247	-11,058	272,859	127,569
66,261	-11,319	272,735	127,258
67,276	-11,217	272,374	127,172
68,290	-11,180	272,034	127,037
69,305	-11,309	271,860	126,825
70,320	-11,351	271,614	126,660
71,334	-11,275	271,655	126,738
72,349	-11,199	271,301	126,632
73,363	-11,008	270,927	126,622
74,378	-11,286	270,932	126,357
75,393	-11,181	270,533	126,256
76,407	-11,206	270,375	126,148
77,422	-11,182	270,143	126,050
78,436	-11,201	269,963	125,938
79,451	-11,106	269,624	125,855
80,466	-11,339	269,544	125,594
81,480	-11,281	269,186	125,468
82,495	-11,322	269,107	125,384
83,509	-11,246	268,928	125,359
84,524	-11,422	268,711	125,086
85,539	-11,291	268,309	125,006
86,553	-11,175	268,132	125,018
87,568	-11,172	267,907	124,905
88,582	-11,324	267,734	124,675
89,597	-11,462	267,627	124,489
90,611	-11,410	267,393	124,416
91,626	-11,181	267,328	124,582
92,641	-11,394	267,031	124,240
93,655	-11,251	266,745	124,225
94,670	-11,256	266,483	124,088
95,684	-11,210	266,266	124,017
96,699	-11,152	266,043	123,954
97,714	-11,321	265,876	123,713
98,728	-11,328	265,875	123,695
99,743	-11,179	265,504	123,645
100,757	-11,290	265,399	123,486
101,772	-11,175	265,107	123,443
102,787	-11,344	264,906	123,186
103,801	-11,219	264,641	123,164
104,816	-11,205	264,505	123,102
105,830	-11,176	264,355	123,047
106,845	-11,122	264,098	122,965
107,860	-11,151	263,943	122,856
108,874	-11,401	263,727	122,521
109,889	-11,240	263,493	122,546
110,903	-11,542	263,229	122,143
111,918	-11,348	263,069	122,230
112,933	-11,293	262,920	122,199
113,947	-11,492	262,713	121,915
114,962	-11,193	262,499	122,070
115,976	-11,201	262,332	121,974
116,991	-11,337	262,201	121,783
118,006	-11,391	261,993	121,627
119,020	-11,370	261,742	121,518
120,035	-11,295	261,807	121,604
121,049	-11,367	261,573	121,420
122,064	-11,468	261,247	121,169
123,079	-11,176	261,043	121,322
124,093	-11,486	260,773	120,912
125,108	-11,615	260,737	120,771
126,122	-11,618	260,544	120,668
127,137	-11,331	260,166	120,734
128,151	-11,388	260,065	120,627
129,166	-11,373	259,770	120,492
130,181	-11,462	259,769	120,403
131,195	-11,517	259,315	120,134
132,210	-11,420	259,183	120,147
133,224	-11,441	258,990	120,029
134,239	-11,407	258,884	119,998
135,254	-11,316	258,548	119,912
136,268	-11,407	258,447	119,774
137,283	-11,419	258,153	119,617
138,297	-11,397	257,935	119,524
139,312	-11,560	257,839	119,328
140,327	-11,310	257,672	119,456
141,341	-11,168	257,454	119,469
142,356	-11,285	257,467	119,362
143,370	-11,301	257,188	119,209
144,385	-11,072	257,075	119,344
145,400	-11,118	256,869	119,198
146,414	-11,162	256,606	119,027
147,429	-10,948	256,437	119,123
148,443	-11,098	256,311	118,924
149,458	-11,049	255,958	118,792
150,473	-11,081	255,732	118,650
151,487	-11,350	255,574	118,333
152,502	-11,253	255,487	118,367
153,516	-11,106	255,219	118,358
154,531	-11,092	254,994	118,255
155,546	-11,256	254,963	118,090
156,560	-11,247	254,692	117,961
157,575	-11,413	254,484	117,712
158,589	-11,256	254,264	117,734
159,604	-11,137	254,145	117,770
160,619	-10,603	253,999	118,149
161,633	-10,847	253,957	117,910
162,648	-10,777	253,615	117,801
163,662	-11,246	253,592	117,379
164,677	-11,356	253,337	117,157
165,692	-11,395	253,106	117,006
166,706	-11,141	253,043	117,183
167,721	-10,621	252,883	117,541
168,735	-10,808	252,751	117,310
169,750	-10,904	252,488	117,096
170,764	-10,960	252,188	116,899
171,779	-10,851	251,986	116,887
172,794	-11,052	251,939	116,684
173,808	-11,254	251,655	116,371
174,823	-11,206	251,452	116,308
175,837	-11,523	251,294	115,956
176,852	-11,355	251,225	116,056
177,867	-11,359	251,001	115,939
178,881	-11,254	250,790	115,920
179,896	-11,098	250,772	116,033
180,910	-11,020	250,567	115,993
181,925	-11,188	250,470	115,797
182,940	-11,092	250,041	115,669
183,954	-11,022	250,062	115,727
184,969	-10,980	249,951	115,701
185,983	-10,976	249,792	115,620
186,998	-10,844	249,757	115,704
188,013	-10,765	249,437	115,612
189,027	-10,939	249,113	115,306
190,042	-11,225	249,016	115,011
191,056	-11,325	248,783	114,810
192,071	-11,445	248,661	114,643
193,086	-11,382	248,361	114,547
194,100	-11,299	248,293	114,575
195,115	-11,022	248,037	114,677
196,129	-10,767	247,870	114,802
197,144	-11,119	247,762	114,449
198,159	-11,240	247,537	114,234
199,173	-11,268	247,315	114,098
200,188	-11,441	247,076	113,834
201,202	-11,608	246,739	113,530
202,217	-11,656	246,689	113,458
203,232	-11,892	246,408	113,123
204,246	-11,936	246,207	112,984
205,261	-11,898	245,894	112,862
206,275	-12,316	245,708	112,422
207,290	-11,410	245,932	113,262
208,304	-7,047	247,383	117,539
209,319	-3,875	248,218	120,560
210,334	-2,525	248,579	121,846
211,348	-1,634	248,745	122,656
212,363	-0,969	248,812	123,231
213,377	-0,616	248,650	123,433
214,392	-0,427	248,689	123,598
215,407	-0,275	248,627	123,682
216,421	-0,054	248,328	123,705
217,436	-0,082	248,143	123,579
218,450	-0,448	247,982	123,185
219,465	-0,498	247,782	123,033
220,480	-0,414	247,658	123,031
221,494	-0,394	247,573	122,994
222,509	-0,597	247,378	122,718
223,523	-0,276	247,080	122,824
224,538	-0,537	246,993	122,555
225,553	-0,543	246,667	122,377
226,567	-0,580	246,564	122,284
227,582	-0,506	246,412	122,259
228,596	-0,678	246,409	122,106
229,611	-0,545	246,091	122,047
230,626	-0,515	245,948	121,989
231,640	-0,535	245,821	121,898
232,655	-0,484	245,579	121,810
233,669	-0,337	245,410	121,835
234,684	-0,803	245,383	121,430
235,699	-0,407	245,112	121,609
236,713	-0,449	244,900	121,459
237,728	-0,417	244,786	121,416
238,742	-0,566	244,617	121,201
239,757	-0,790	244,343	120,872
240,772	-0,653	244,197	120,900
241,786	-0,907	244,084	120,628
242,801	-0,754	244,071	120,735
243,815	-0,781	243,887	120,611
244,830	-0,371	243,682	120,831
245,844	-0,474	243,397	120,595
246,859	-0,618	243,255	120,398
247,874	-0,633	243,198	120,347
248,888	-0,672	242,976	120,195
249,903	-0,474	242,877	120,295
250,917	-0,687	242,820	120,084
251,932	-0,371	242,570	120,205
252,947	-0,447	242,311	120,004
253,961	-0,769	242,284	119,721
254,976	-0,649	242,081	119,706
255,990	-0,707	241,999	119,608
257,005	-0,957	241,792	119,295
258,020	-0,643	241,523	119,403
259,034	-0,665	241,483	119,355
260,049	-0,596	241,337	119,328
261,063	-0,664	241,112	119,151
262,078	-0,623	241,003	119,120
263,093	-0,589	240,699	118,986
264,107	-0,655	240,789	118,968
265,122	-0,615	240,632	118,911
266,136	-0,507	240,239	118,792
267,151	-0,481	240,218	118,792
268,166	-0,411	239,922	118,691
269,180	-0,535	239,932	118,586
270,195	-0,602	239,742	118,429
271,209	-0,678	239,564	118,270
272,224	-0,743	239,523	118,187
273,239	-0,624	239,384	118,202
274,253	-0,425	239,187	118,252
275,268	-0,609	238,957	117,983
276,282	-0,503	238,658	117,909
277,297	-0,595	238,751	117,871
278,312	-0,438	238,586	117,903
279,326	-0,491	238,496	117,806
280,341	-0,474	238,322	117,724
281,355	-0,453	238,082	117,611
282,370	-0,490	237,881	117,472
283,384	-0,534	237,624	117,300
284,399	-0,601	237,635	117,242
285,414	-0,579	237,386	117,126
286,428	-0,510	237,258	117,106
287,443	-0,584	237,360	117,088
288,457	-0,586	237,155	116,975
289,472	-0,518	236,865	116,875
290,487	-0,363	236,580	116,845
291,501	-0,559	236,587	116,684
292,516	-0,504	236,318	116,585
293,530	-0,507	236,247	116,537
294,545	-0,196	235,971	116,634
295,560	-0,373	235,927	116,464
296,574	-0,215	235,685	116,457
297,589	-0,297	235,711	116,395
298,603	-0,308	235,457	116,251
299,618	-0,446	235,481	116,144
300,633	-0,419	235,348	116,090
301,647	-0,254	235,226	116,148
302,662	-0,372	234,971	115,920
303,676	-0,172	234,870	116,015
304,691	-0,044	234,616	115,979
305,706	-0,284	234,444	115,697
306,720	-0,445	234,544	115,611
307,735	-0,268	234,188	115,563
308,749	-0,272	233,982	115,448
309,764	-0,296	233,918	115,387
310,779	-0,061	233,672	115,437
311,793	-0,133	233,509	115,290
312,808	-0,220	233,393	115,156
313,822	-0,287	233,343	115,070
314,837	-0,215	233,147	115,018
315,852	-0,195	233,009	114,955
316,866	-0,019	232,848	115,001
317,881	-0,155	232,806	114,865
318,895	-0,097	232,527	114,762
319,910	0,098	232,250	114,764
320,925	0,109	232,267	114,771
321,939	0,018	232,098	114,607
322,954	0,055	232,075	114,614
323,968	0,142	231,811	114,540
324,983	-0,027	231,774	114,382
325,997	0,026	231,557	114,306
327,012	-0,004	231,406	114,198
328,027	-0,065	231,394	114,135
329,041	-0,040	231,175	114,036
330,056	-0,072	231,098	113,964
331,070	0,098	230,927	113,999
332,085	-0,043	230,756	113,797
333,100	0,122	230,563	113,817
334,114	-0,096	230,355	113,538
335,129	0,275	230,344	113,804
336,143	0,104	230,193	113,590
337,158	0,019	230,028	113,434
338,173	0,300	229,774	113,512
339,187	0,127	229,663	113,316
340,202	0,094	229,566	113,233
341,216	0,432	229,289	113,342
342,231	0,082	229,263	113,054
343,246	0,150	229,187	113,058
344,260	0,028	228,994	112,861
345,275	0,336	228,865	113,019
346,289	0,286	228,761	112,920
347,304	0,365	228,665	112,922
348,319	0,172	228,486	112,679
349,333	0,083	228,269	112,494
350,348	0,286	228,114	112,560
351,362	0,380	228,034	112,582
352,377	0,423	227,817	112,497
353,392	0,435	227,729	112,453
354,406	0,328	227,548	112,273
355,421	196,314	1315,986	1391,090
356,435	157,466	1448,550	1391,034
