DTS Sentinel unit serial number:	SN410029Multiplexer serial number:	ORYXHardware model number:	OX2-SRSoftware version number:	ORYX F/W v4,00 Oryx Data Collector v3.7.2.0data status	okinstallation	B5 Nyhavnadifferential loss correction	single-endedforward channel	channel 2reverse channel	N/Adate	2023/12/12time	15:37:13forward acquisition time	300,00reverse acquisition time	0,00gamma	499,1914k internal	0,3156k external	0,3156temperature offset calibration	1,0000default loss term (dB/km)	0,3820temperature slope calibration	1,0000multiplexer offset coefficient	1,0000multiplexer slope coefficient	1,0000fibre end	0,00T internal ref (°C)	15,93T ext. ref 1 (°C)	-0,46T ext. ref 2 (°C)	-0,71length (m)	temperature (°C)	Stokes	anti-Stokes-744,400	54,073	0,045	0,032
-743,385	-4,901	-0,236	-0,120
-742,371	170,848	0,093	0,098
-741,356	46,239	-0,163	0,111
-740,342	33,888	0,133	0,085
-739,327	-134,088	-0,351	0,032
-738,312	23,282	-0,108	-0,065
-737,298	-115,332	-0,192	0,026
-736,283	376,124	0,057	-0,087
-735,269	-148,762	-0,258	0,015
-734,254	-109,168	0,106	-0,016
-733,239	-39,883	-0,474	-0,181
-732,225	-200,000	-0,012	0,050
-731,210	-106,370	-0,016	-0,003
-730,196	27,907	0,092	-0,057
-729,181	800,000	-0,026	0,074
-728,167	-5,662	-0,080	0,040
-727,152	-194,471	-0,030	-0,000
-726,137	-200,000	0,026	-0,164
-725,123	36,793	-0,062	-0,040
-724,108	-200,000	-0,034	-0,131
-723,094	-200,000	0,025	-0,179
-722,079	411,808	-0,083	-0,130
-721,064	543,238	-0,042	-0,074
-720,050	-96,844	-0,020	-0,004
-719,035	98,610	-0,067	-0,057
-718,021	-83,314	-0,078	-0,018
-717,006	800,000	0,034	-0,078
-715,991	43,671	-0,043	-0,029
-714,977	800,000	0,044	0,119
-713,962	17,655	-0,168	-0,098
-712,948	-200,000	-0,000	0,013
-711,933	83,729	0,030	0,024
-710,918	800,000	-0,036	-0,108
-709,904	-200,000	0,010	-0,047
-708,889	-200,000	-0,003	-0,169
-707,875	250,241	-0,162	-0,203
-706,860	-200,000	-0,045	0,166
-705,845	74,377	-0,094	0,073
-704,831	800,000	-0,011	-0,028
-703,816	66,735	0,019	-0,014
-702,802	-200,000	-0,003	0,087
-701,787	-141,083	-0,206	-0,015
-700,772	-200,000	-0,010	-0,110
-699,758	301,263	0,040	0,055
-698,743	-200,000	-0,029	-0,139
-697,729	353,121	-0,030	-0,044
-696,714	-137,670	0,142	-0,012
-695,699	-200,000	0,032	-0,118
-694,685	-200,000	-0,028	-0,127
-693,670	-200,000	0,009	-0,054
-692,656	-200,000	-0,041	-0,153
-691,641	772,556	0,050	0,100
-690,627	-45,717	0,100	0,036
-689,612	-200,000	0,034	-0,132
-688,597	-139,730	0,078	-0,006
-687,583	800,000	-0,039	-0,115
-686,568	-200,000	-0,003	-0,119
-685,554	-200,000	-0,012	-0,088
-684,539	399,795	-0,032	-0,050
-683,524	-200,000	0,028	-0,093
-682,510	222,600	-0,011	0,014
-681,495	361,740	-0,047	-0,070
-680,481	607,796	-0,051	-0,094
-679,466	-200,000	-0,013	-0,092
-678,451	357,609	-0,058	-0,085
-677,437	-95,843	-0,081	-0,016
-676,422	140,165	0,088	-0,085
-675,408	800,000	-0,059	0,159
-674,393	117,427	-0,054	-0,049
-673,378	97,010	0,101	-0,085
-672,364	270,351	-0,042	-0,054
-671,349	-76,639	-0,107	0,027
-670,335	-200,000	0,004	0,139
-669,320	274,219	-0,027	-0,035
-668,305	169,023	-0,096	0,101
-667,291	800,000	-0,031	0,065
-666,276	800,000	0,031	-0,086
-665,262	800,000	0,009	-0,019
-664,247	6,128	-0,075	-0,041
-663,232	-200,000	-0,021	-0,117
-662,218	-126,139	0,036	-0,004
-661,203	-200,000	0,014	-0,066
-660,189	800,000	0,028	0,085
-659,174	175,885	-0,025	-0,027
-658,159	-200,000	0,014	0,047
-657,145	242,910	-0,087	-0,108
-656,130	-200,000	0,013	-0,092
-655,116	689,588	-0,039	-0,076
-654,101	-127,260	0,053	0,006
-653,086	9,665	-0,178	-0,099
-652,072	800,000	0,034	-0,108
-651,057	-33,928	-0,095	-0,038
-650,043	-93,782	0,051	-0,010
-649,028	-200,000	-0,024	0,150
-648,014	-68,137	0,115	0,033
-646,999	17,608	-0,088	0,051
-645,984	-200,000	-0,011	0,081
-644,970	181,913	-0,106	-0,115
-643,955	-56,906	-0,149	-0,048
-642,941	-9,077	-0,186	0,091
-641,926	-2,134	0,049	-0,025
-640,911	-40,261	0,067	-0,025
-639,897	193,164	-0,028	0,031
-638,882	503,787	0,034	0,058
-637,868	800,000	-0,035	-0,096
-636,853	-180,716	-0,071	-0,001
-635,838	378,391	-0,046	-0,069
-634,824	-200,000	-0,013	-0,047
-633,809	-40,573	0,030	0,011
-632,795	-200,000	-0,008	-0,120
-631,780	800,000	0,039	-0,082
-630,765	423,525	0,058	0,091
-629,751	-117,265	-0,158	0,021
-628,736	410,943	-0,033	-0,052
-627,722	133,649	-0,098	-0,093
-626,707	800,000	-0,068	-0,147
-625,692	-182,288	-0,110	-0,001
-624,678	-200,000	-0,054	-0,179
-623,663	276,150	0,032	0,042
-622,649	22,682	-0,051	-0,031
-621,634	4,392	-0,119	-0,064
-620,619	-106,127	-0,068	0,011
-619,605	701,475	-0,093	-0,180
-618,590	299,104	0,111	-0,151
-617,576	-200,000	0,002	0,131
-616,561	-200,000	0,022	0,075
-615,546	800,000	0,073	-0,154
-614,532	-19,496	-0,065	-0,029
-613,517	28,170	0,081	-0,050
-612,503	800,000	-0,042	-0,125
-611,488	-150,559	-0,085	-0,005
-610,474	430,006	0,042	-0,066
-609,459	761,943	-0,062	0,124
-608,444	-61,959	-0,164	-0,050
-607,430	-82,902	0,100	0,023
-606,415	206,276	-0,223	-0,255
-605,401	25,560	0,071	-0,043
-604,386	-200,000	-0,015	-0,098
-603,371	25,024	0,123	0,074
-602,357	-72,215	-0,159	0,043
-601,342	-105,622	-0,147	0,024
-600,328	-140,712	-0,116	-0,009
-599,313	391,040	0,121	-0,184
-598,298	-200,000	-0,018	-0,061
-597,284	9,563	0,076	0,042
-596,269	-54,103	-0,058	-0,019
-595,255	-141,963	0,173	0,012
-594,240	-160,903	-0,044	0,002
-593,225	-200,000	0,003	-0,029
-592,211	-39,238	0,067	-0,026
-591,196	-134,681	0,036	-0,003
-590,182	800,000	0,016	0,033
-589,167	-131,835	0,105	0,010
-588,152	-41,489	-0,086	0,032
-587,138	800,000	0,026	-0,073
-586,123	96,420	-0,016	0,014
-585,109	-114,027	0,115	0,016
-584,094	352,123	0,016	-0,024
-583,079	800,000	0,013	0,041
-582,065	800,000	0,040	0,100
-581,050	800,000	-0,064	-0,178
-580,036	-200,000	-0,008	-0,034
-579,021	-22,269	-0,132	0,058
-578,006	-200,000	-0,006	-0,091
-576,992	32,582	-0,097	0,061
-575,977	-41,779	-0,077	0,029
-574,963	-19,692	-0,084	0,038
-573,948	800,000	0,030	0,087
-572,934	131,268	0,074	0,069
-571,919	-200,000	-0,003	0,042
-570,904	-54,998	0,043	0,014
-569,890	-200,000	0,005	-0,077
-568,875	-200,000	0,007	-0,076
-567,861	593,614	0,081	-0,147
-566,846	70,609	0,063	0,048
-565,831	-0,686	-0,105	-0,055
-564,817	57,887	0,118	-0,084
-563,802	-200,000	-0,007	-0,087
-562,788	-200,000	0,005	-0,058
-561,773	-200,000	-0,044	0,196
-560,758	36,332	-0,096	-0,062
-559,744	-53,480	0,069	0,023
-558,729	581,620	-0,084	0,152
-557,715	144,255	0,048	-0,047
-556,700	-4,876	-0,103	-0,052
-555,685	-7,637	-0,046	0,023
-554,671	-200,000	-0,004	0,095
-553,656	-200,000	0,050	0,171
-552,642	83,692	0,114	0,091
-551,627	637,125	-0,015	-0,028
-550,612	-18,063	-0,024	0,011
-549,598	314,541	-0,086	-0,118
-548,583	-200,000	0,005	-0,094
-547,569	-57,234	-0,049	-0,016
-546,554	16,971	0,033	-0,019
-545,539	-200,000	0,134	-0,000
-544,525	46,479	-0,109	0,074
-543,510	-18,045	-0,088	0,040
-542,496	117,820	0,031	-0,028
-541,481	1,729	-0,095	0,050
-540,466	-61,264	-0,101	-0,031
-539,452	96,472	0,115	0,097
-538,437	-200,000	0,031	0,139
-537,423	-59,488	0,034	-0,011
-536,408	800,000	-0,012	0,025
-535,393	800,000	-0,022	-0,047
-534,379	800,000	0,033	-0,074
-533,364	-141,289	0,197	-0,014
-532,350	-200,000	0,006	-0,030
-531,335	-200,000	0,007	0,053
-530,321	252,601	-0,081	-0,101
-529,306	-176,329	-0,037	0,001
-528,291	-200,000	0,006	-0,115
-527,277	-200,000	-0,030	-0,109
-526,262	537,269	0,028	-0,049
-525,248	45,682	0,049	-0,033
-524,233	800,000	-0,043	0,134
-523,218	-200,000	0,017	0,188
-522,204	800,000	0,063	0,147
-521,189	253,335	0,043	0,054
-520,175	-73,345	-0,255	-0,068
-519,160	-37,253	0,076	0,030
-518,145	-200,000	-0,021	-0,083
-517,131	144,245	-0,005	0,005
-516,116	-200,000	-0,002	0,049
-515,102	-200,000	-0,006	0,028
-514,087	544,154	-0,033	-0,057
-513,072	38,779	0,069	-0,045
-512,058	-200,000	0,004	-0,123
-511,043	-89,252	-0,089	0,019
-510,029	-2,867	0,051	0,026
-509,014	615,806	0,050	0,092
-507,999	3,783	-0,078	-0,042
-506,985	280,693	0,057	0,074
-505,970	-7,234	-0,107	-0,053
-504,956	-5,716	-0,022	-0,011
-503,941	14,578	-0,095	0,054
-502,926	-200,000	-0,008	-0,036
-501,912	-200,000	-0,018	0,080
-500,897	-118,033	0,107	0,014
-499,883	-147,647	-0,151	0,009
-498,868	-200,000	0,007	0,021
-497,853	-200,000	0,038	0,188
-496,839	261,545	-0,058	0,073
-495,824	494,079	0,043	-0,072
-494,810	800,000	0,009	-0,025
-493,795	-66,018	0,103	-0,030
-492,781	-92,173	0,094	-0,019
-491,766	50,657	0,054	-0,037
-490,751	187,613	-0,051	-0,055
-489,737	-12,848	0,090	0,043
-488,722	37,959	0,178	-0,115
-487,708	-200,000	-0,005	0,067
-486,693	64,310	0,132	0,097
-485,678	278,591	-0,067	0,087
-484,664	-46,576	-0,102	0,036
-483,649	-93,443	0,079	0,016
-482,635	800,000	0,040	0,112
-481,620	229,631	0,093	0,111
-480,605	-200,000	0,031	0,100
-479,591	-21,206	-0,110	0,049
-478,576	96,642	-0,059	-0,049
-477,562	306,569	-0,120	-0,164
-476,547	4,326	-0,087	-0,046
-475,532	-200,000	0,012	0,044
-474,518	800,000	0,013	0,029
-473,503	399,111	0,065	0,100
-472,489	79,726	-0,031	0,024
-471,474	457,665	0,013	0,022
-470,459	-45,757	-0,019	0,007
-469,445	746,344	0,057	0,112
-468,430	185,069	-0,009	0,010
-467,416	800,000	-0,031	0,087
-466,401	193,315	-0,033	0,036
-465,386	-200,000	-0,010	-0,086
-464,372	-2,045	0,076	0,039
-463,357	-30,051	0,077	0,032
-462,343	-25,761	-0,037	0,016
-461,328	550,281	-0,091	-0,160
-460,313	-35,550	0,087	-0,034
-459,299	190,318	-0,068	-0,074
-458,284	248,130	0,132	-0,163
-457,270	1,471	0,086	0,045
-456,255	-166,222	-0,080	0,002
-455,241	15,474	0,070	-0,040
-454,226	403,123	0,009	0,014
-453,211	800,000	0,027	-0,061
-452,197	-154,219	-0,160	-0,008
-451,182	-200,000	-0,020	0,080
-450,168	12,454	0,115	-0,064
-449,153	-200,000	-0,000	-0,064
-448,138	-136,521	-0,099	-0,008
-447,124	-200,000	-0,013	-0,045
-446,109	325,783	0,020	-0,028
-445,095	9,568	0,143	0,079
-444,080	-32,951	0,145	-0,058
-443,065	-66,917	0,046	0,013
-442,051	238,113	0,029	-0,035
-441,036	-200,000	-0,025	-0,093
-440,022	60,392	-0,107	-0,077
-439,007	155,740	0,045	0,045
-437,992	-200,000	-0,027	0,186
-436,978	96,594	-0,048	0,040
-435,963	-200,000	-0,029	0,103
-434,949	-179,387	-0,140	0,002
-433,934	-200,000	0,010	0,088
-432,919	-3,803	0,100	-0,051
-431,905	-25,197	0,039	-0,017
-430,890	-200,000	0,006	0,080
-429,876	-86,296	-0,060	-0,013
-428,861	12,323	0,059	-0,033
-427,846	52,692	-0,044	0,031
-426,832	108,077	0,034	-0,030
-425,817	-109,328	0,102	-0,016
-424,803	-200,000	0,004	0,079
-423,788	8,513	0,026	0,014
-422,773	-81,678	0,082	0,019
-421,759	147,494	-0,083	0,082
-420,744	-200,000	0,041	-0,144
-419,730	-200,000	0,006	-0,034
-418,715	800,000	-0,024	-0,063
-417,701	-200,000	-0,004	0,026
-416,686	204,223	0,064	0,072
-415,671	-200,000	-0,006	0,081
-414,657	85,135	0,065	-0,052
-413,642	-200,000	0,011	0,089
-412,628	800,000	-0,017	0,046
-411,613	137,410	-0,062	-0,059
-410,598	-36,884	-0,039	-0,015
-409,584	-113,570	0,025	-0,004
-408,569	30,082	0,199	0,123
-407,555	-76,657	0,095	-0,024
-406,540	-200,000	-0,004	-0,062
-405,525	156,225	0,065	0,066
-404,511	-117,281	0,058	-0,008
-403,496	-6,292	0,039	0,019
-402,482	-200,000	0,026	0,092
-401,467	11,913	0,052	0,029
-400,452	-79,110	0,050	0,012
-399,438	-200,000	0,041	0,188
-398,423	-90,350	-0,035	0,007
-397,409	800,000	0,044	-0,128
-396,394	28,198	0,056	-0,035
-395,379	-105,269	0,096	-0,016
-394,365	60,985	0,202	0,145
-393,350	-29,400	0,048	0,020
-392,336	246,439	0,062	0,076
-391,321	-200,000	-0,017	0,177
-390,306	-74,767	-0,106	-0,027
-389,292	166,980	-0,090	0,093
-388,277	-45,001	0,137	0,049
-387,263	800,000	-0,050	-0,147
-386,248	659,103	0,063	0,119
-385,233	-154,681	0,185	-0,009
-384,219	-200,000	-0,022	-0,086
-383,204	111,364	0,011	0,009
-382,190	-121,669	-0,148	-0,018
-381,175	800,000	0,026	-0,077
-380,160	148,881	0,127	0,125
-379,146	800,000	0,061	0,172
-378,131	-200,000	0,016	0,104
-377,117	576,857	-0,047	0,085
-376,102	123,067	-0,025	-0,023
-375,088	-200,000	0,097	0,000
-374,073	-200,000	-0,010	0,052
-373,058	-93,993	-0,099	-0,020
-372,044	-39,205	-0,046	-0,017
-371,029	800,000	-0,013	-0,028
-370,015	-105,799	-0,026	-0,004
-369,000	508,825	-0,039	0,065
-367,985	-111,258	-0,114	-0,017
-366,971	-23,386	0,082	-0,036
-365,956	-111,115	0,088	-0,013
-364,942	-82,382	0,053	0,012
-363,927	458,302	-0,037	0,060
-362,912	800,000	-0,020	0,041
-361,898	26,296	-0,142	-0,086
-360,883	-170,056	-0,075	-0,002
-359,869	800,000	0,060	-0,139
-358,854	-22,615	-0,088	-0,038
-357,839	-200,000	0,015	0,107
-356,825	-200,000	0,029	0,119
-355,810	150,303	0,041	0,040
-354,796	193,171	-0,017	-0,019
-353,781	0,606	-0,085	0,044
-352,766	223,282	-0,073	-0,086
-351,752	-117,904	-0,118	0,015
-350,737	-200,000	-0,002	0,054
-349,723	-200,000	-0,020	-0,110
-348,708	-200,000	0,004	-0,062
-347,693	626,074	-0,016	0,029
-346,679	800,000	-0,033	-0,076
-345,664	-115,586	0,060	0,008
-344,650	-118,508	0,125	-0,016
-343,635	-121,129	0,082	0,010
-342,620	222,931	0,078	0,091
-341,606	-200,000	0,001	0,034
-340,591	-200,000	-0,021	-0,089
-339,577	131,998	0,063	0,059
-338,562	-200,000	-0,024	-0,104
-337,548	800,000	-0,024	0,062
-336,533	-200,000	-0,003	0,093
-335,518	800,000	0,031	0,070
-334,504	-200,000	-0,020	0,154
-333,489	-126,443	-0,065	0,007
-332,475	123,518	0,045	0,041
-331,460	271,410	0,039	-0,050
-330,445	-26,974	-0,116	-0,049
-329,431	800,000	0,014	0,044
-328,416	431,344	0,048	0,075
-327,402	-106,660	0,181	0,029
-326,387	800,000	-0,028	0,079
-325,372	237,098	0,023	-0,028
-324,358	-200,000	-0,013	0,058
-323,343	-200,000	0,022	-0,079
-322,329	434,836	0,052	0,082
-321,314	-169,919	-0,044	0,001
-320,299	62,332	0,183	-0,132
-319,285	800,000	0,041	0,095
-318,270	-138,166	-0,069	-0,005
-317,256	373,057	-0,067	-0,099
-316,241	800,000	0,094	-0,204
-315,226	-200,000	-0,022	-0,085
-314,212	27,679	0,087	-0,053
-313,197	-76,152	0,033	-0,008
-312,183	-200,000	-0,023	0,106
-311,168	-22,812	0,075	0,033
-310,153	-119,089	0,044	-0,006
-309,139	92,695	-0,081	0,067
-308,124	-200,000	-0,006	-0,086
-307,110	800,000	0,029	-0,092
-306,095	361,731	-0,044	0,064
-305,080	-69,124	-0,100	0,028
-304,066	147,377	0,097	-0,095
-303,051	704,035	-0,020	0,039
-302,037	-32,505	-0,149	0,060
-301,022	-200,000	0,007	0,079
-300,008	800,000	-0,036	0,111
-298,993	754,833	-0,049	0,097
-297,978	-158,211	-0,100	0,004
-296,964	800,000	0,019	0,041
-295,949	-76,346	-0,157	0,040
-294,935	-200,000	-0,012	0,064
-293,920	800,000	0,066	0,140
-292,905	800,000	0,042	0,118
-291,891	159,786	-0,064	-0,065
-290,876	95,888	0,218	0,180
-289,862	-119,332	-0,084	0,010
-288,847	-200,000	0,019	-0,105
-287,832	107,229	0,059	-0,051
-286,818	-30,279	0,086	0,035
-285,803	800,000	-0,033	-0,086
-284,789	705,299	-0,085	0,164
-283,774	1,737	0,119	-0,062
-282,759	-200,000	0,025	-0,192
-281,745	800,000	-0,073	-0,183
-280,730	-115,821	-0,147	0,020
-279,716	227,633	0,053	-0,063
-278,701	-200,000	0,008	-0,050
-277,686	-200,000	0,012	0,113
-276,672	-53,081	0,053	-0,018
-275,657	42,639	0,024	0,016
-274,643	-144,006	0,097	0,007
-273,628	-200,000	-0,023	0,130
-272,613	396,869	-0,033	0,050
-271,599	23,008	0,033	-0,020
-270,584	-200,000	0,023	-0,083
-269,570	110,643	0,058	0,051
-268,555	-200,000	-0,015	-0,166
-267,540	651,664	0,071	-0,133
-266,526	-200,000	-0,052	-0,221
-265,511	-125,481	0,104	-0,011
-264,497	3,603	0,085	0,045
-263,482	149,717	0,118	0,116
-262,467	-200,000	0,001	0,004
-261,453	18,238	-0,111	0,064
-260,438	9,888	0,047	0,026
-259,424	800,000	-0,070	-0,143
-258,409	296,375	-0,076	-0,100
-257,395	-32,920	0,071	-0,029
-256,380	800,000	0,047	0,121
-255,365	86,850	0,114	-0,091
-254,351	-200,000	0,027	0,086
-253,336	116,415	0,110	0,098
-252,322	800,000	0,060	-0,127
-251,307	752,499	-0,052	-0,102
-250,292	106,871	-0,066	-0,057
-249,278	-11,250	0,079	0,037
-248,263	-35,550	0,046	0,018
-247,249	365,761	0,035	0,051
-246,234	-72,255	-0,070	0,019
-245,219	-200,000	-0,011	-0,087
-244,205	800,000	0,031	0,098
-243,190	-2,549	0,076	-0,038
-242,176	-109,779	-0,053	0,008
-241,161	30,250	0,054	-0,033
-240,146	436,117	0,050	0,079
-239,132	-125,445	0,179	-0,020
-238,117	413,277	-0,082	-0,126
-237,103	-93,334	0,044	0,009
-236,088	-200,000	-0,005	0,059
-235,073	-90,757	-0,084	0,017
-234,059	800,000	0,070	0,149
-233,044	-200,000	0,009	0,062
-232,030	-200,000	-0,019	-0,134
-231,015	-200,000	-0,030	0,103
-230,000	-32,814	-0,133	-0,053
-228,986	-36,437	-0,076	-0,029
-227,971	-200,000	-0,027	0,140
-226,957	-104,943	-0,036	0,006
-225,942	296,079	-0,068	0,090
-224,927	747,906	0,061	-0,120
-223,913	437,068	-0,060	-0,095
-222,898	80,681	0,031	0,024
-221,884	-84,456	0,067	0,015
-220,869	800,000	0,043	0,135
-219,855	33,387	-0,084	0,053
-218,840	-65,085	-0,077	0,022
-217,825	26,262	-0,029	0,018
-216,811	-108,430	-0,087	0,013
-215,796	745,685	0,024	-0,047
-214,782	-3,930	0,064	0,032
-213,767	48,295	-0,071	-0,048
-212,752	128,190	0,087	-0,080
-211,738	-200,000	0,024	-0,083
-210,723	-180,052	0,069	-0,001
-209,709	141,197	0,020	0,019
-208,694	169,273	0,040	0,042
-207,679	517,858	-0,053	0,089
-206,665	58,559	0,045	-0,032
-205,650	-116,317	-0,061	0,008
-204,636	-86,692	0,039	-0,008
-203,621	7,297	-0,097	0,052
-202,606	392,725	-0,058	0,087
-201,592	800,000	-0,028	0,057
-200,577	800,000	-0,030	-0,061
-199,563	-20,548	-0,149	0,066
-198,548	20,003	0,119	0,069
-197,533	-200,000	0,043	0,181
-196,519	93,670	-0,094	0,076
-195,504	77,700	-0,041	0,031
-194,490	-200,000	0,007	0,032
-193,475	-135,195	0,060	0,005
-192,460	-200,000	0,025	-0,113
-191,446	-25,973	-0,060	-0,025
-190,431	-200,000	-0,000	-0,002
-189,417	201,093	0,047	-0,053
-188,402	-200,000	-0,009	-0,029
-187,387	800,000	-0,035	-0,107
-186,373	-200,000	0,015	-0,141
-185,358	122,388	0,134	-0,121
-184,344	385,686	0,026	-0,039
-183,329	278,092	-0,114	-0,147
-182,315	99,937	-0,074	-0,062
-181,300	800,000	-0,085	-0,212
-180,285	-155,342	-0,149	-0,007
-179,271	395,551	0,092	-0,139
-178,256	78,706	0,035	-0,027
-177,242	-200,000	0,004	0,036
-176,227	-100,014	0,020	-0,004
-175,212	-179,137	-0,114	-0,002
-174,198	583,643	-0,085	-0,151
-173,183	800,000	0,058	-0,135
-172,169	800,000	-0,044	-0,118
-171,154	52,908	0,059	0,041
-170,139	-60,197	0,084	0,026
-169,125	375,129	0,051	0,076
-168,110	-102,656	0,015	0,003
-167,096	96,506	-0,059	0,049
-166,081	-162,052	-0,084	-0,003
-165,066	800,000	-0,033	-0,096
-164,052	-79,517	-0,170	-0,041
-163,037	-200,000	0,011	0,037
-162,023	-200,000	-0,002	0,030
-161,008	585,538	0,068	-0,122
-159,993	434,036	0,039	0,061
-158,979	138,302	-0,093	0,088
-157,964	-131,275	-0,165	0,016
-156,950	-200,000	-0,030	-0,129
-155,935	-200,000	-0,049	0,175
-154,920	11,011	0,026	0,014
-153,906	-67,226	-0,013	0,004
-152,891	-200,000	-0,014	-0,100
-151,877	-200,000	-0,006	-0,174
-150,862	580,159	0,097	-0,172
-149,847	800,000	0,008	-0,020
-148,833	75,994	-0,078	0,059
-147,818	-200,000	0,032	-0,113
-146,804	-200,000	0,003	0,094
-145,789	-88,036	-0,173	-0,037
-144,775	216,430	-0,088	-0,101
-143,760	-34,190	-0,202	-0,079
-142,745	-95,540	-0,032	0,006
-141,731	-126,067	0,019	0,002
-140,716	343,595	0,028	0,039
-139,702	-200,000	0,023	0,089
-138,687	53,720	0,108	-0,075
-137,672	800,000	0,039	0,095
-136,658	-200,000	0,003	0,033
-135,643	-200,000	0,026	-0,168
-134,629	-12,830	0,080	-0,037
-133,614	-200,000	-0,004	0,059
-132,599	699,268	0,066	0,126
-131,585	-200,000	-0,005	-0,056
-130,570	-200,000	-0,001	-0,079
-129,556	800,000	0,023	-0,051
-128,541	-200,000	-0,012	-0,075
-127,526	800,000	0,019	-0,045
-126,512	-118,689	-0,039	0,005
-125,497	450,729	0,060	-0,096
-124,483	-143,311	-0,007	0,000
-123,468	-200,000	0,026	0,085
-122,453	433,287	0,035	-0,055
-121,439	-200,000	0,026	-0,139
-120,424	-200,000	-0,031	-0,147
-119,410	-200,000	-0,006	-0,033
-118,395	225,031	0,117	0,137
-117,380	75,749	0,058	0,044
-116,366	95,438	-0,069	0,056
-115,351	-200,000	0,013	0,058
-114,337	-179,584	0,025	-0,000
-113,322	-200,000	-0,018	-0,097
-112,307	-91,734	0,067	0,014
-111,293	-200,000	-0,048	0,161
-110,278	190,154	0,114	0,123
-109,264	566,142	-0,013	-0,023
-108,249	210,607	-0,070	-0,079
-107,234	800,000	-0,046	-0,123
-106,220	37,929	-0,011	-0,007
-105,205	292,824	0,062	-0,082
-104,191	510,273	0,061	-0,103
-103,176	-200,000	-0,013	0,061
-102,162	9,671	0,158	-0,086
-101,147	264,582	0,013	0,016
-100,132	483,694	0,009	-0,014
-99,118	-20,502	0,100	-0,044
-98,103	-200,000	-0,015	0,055
-97,089	-200,000	0,008	-0,055
-96,074	-99,402	-0,147	0,026
-95,059	800,000	-0,011	-0,036
-94,045	502,602	0,043	-0,071
-93,030	-200,000	-0,020	-0,075
-92,016	800,000	0,019	-0,041
-91,001	278,210	0,048	0,062
-89,986	-200,000	0,020	-0,200
-88,972	-200,000	-0,001	-0,131
-87,957	-200,000	0,003	-0,033
-86,943	-200,000	-0,038	-0,123
-85,928	-160,044	-0,102	0,004
-84,913	800,000	0,035	-0,092
-83,899	234,215	0,058	-0,069
-82,884	800,000	-0,018	0,056
-81,870	178,529	0,026	0,027
-80,855	87,841	0,087	0,069
-79,840	156,254	0,042	0,041
-78,826	800,000	0,023	0,062
-77,811	-200,000	-0,037	-0,131
-76,797	252,967	-0,036	-0,044
-75,782	-200,000	-0,008	-0,074
-74,767	-200,000	-0,004	0,064
-73,753	-19,562	-0,054	-0,024
-72,738	360,326	-0,075	-0,108
-71,724	-200,000	-0,036	-0,170
-70,709	142,486	0,071	-0,068
-69,694	-200,000	-0,002	-0,049
-68,680	-48,983	0,020	0,007
-67,665	51,289	-0,034	-0,023
-66,651	-114,845	0,066	0,009
-65,636	99,889	-0,087	-0,073
-64,622	800,000	-0,054	-0,135
-63,607	679,378	-0,050	-0,094
-62,592	800,000	0,027	-0,057
-61,578	-200,000	0,007	-0,142
-60,563	58,136	0,052	0,037
-59,549	208,565	-0,097	0,109
-58,534	4,578	-1,860	-0,978
-57,519	800,000	-0,386	-1,012
-56,505	-200,000	-1,195	-4,895
-55,490	-8,312	0,875	0,421
-54,476	800,000	5,252	12,029
-53,461	-200,000	17,360	284,618
-52,446	800,000	722,685	2231,518
-51,432	545,081	1638,492	2821,759
-50,417	112,296	1630,835	1415,697
-49,403	76,366	1286,464	977,508
-48,388	32,955	1029,035	638,513
-47,373	20,342	990,719	573,107
-46,359	18,812	979,119	561,350
-45,344	16,290	974,997	550,699
-44,330	16,474	973,653	550,520
-43,315	16,026	971,827	548,002
-42,300	15,955	970,742	547,136
-41,286	15,961	969,747	546,571
-40,271	15,967	968,633	545,940
-39,257	16,054	967,648	545,650
-38,242	15,983	966,923	544,986
-37,227	15,999	966,163	544,590
-36,213	15,918	965,307	543,822
-35,198	15,987	964,281	543,447
-34,184	15,989	963,633	543,066
-33,169	15,940	962,616	542,311
-32,154	15,988	961,621	541,885
-31,140	15,985	960,704	541,339
-30,125	16,003	959,917	540,932
-29,111	15,954	959,433	540,479
-28,096	15,976	958,699	540,113
-27,082	15,971	958,035	539,703
-26,067	15,967	957,160	539,175
-25,052	15,978	956,547	538,844
-24,038	15,957	955,867	538,371
-23,023	15,933	955,250	537,927
-22,009	15,994	954,500	537,680
-20,994	15,947	953,946	537,195
-19,979	15,945	953,385	536,852
-18,965	15,952	952,730	536,482
-17,950	15,999	952,025	536,216
-16,936	15,898	951,386	535,510
-15,921	15,919	950,659	535,149
-14,906	15,841	949,858	534,425
-13,892	15,856	949,492	534,247
-12,877	15,841	948,745	533,759
-11,863	15,754	948,064	533,075
-10,848	15,844	947,689	533,132
-9,833	15,909	947,234	533,059
-8,819	15,896	946,483	532,575
-7,804	15,889	945,842	532,171
-6,790	15,822	945,292	531,628
-5,775	15,916	944,511	531,465
-4,760	15,867	944,004	531,002
-3,746	15,850	943,349	530,559
-2,731	15,770	942,688	529,913
-1,717	15,697	942,110	529,337
-0,702	15,683	941,396	528,870
0,313	15,504	940,741	528,735
1,327	18,566	938,498	537,088
2,342	27,233	796,171	478,656
3,356	23,819	460,500	271,587
4,371	-2,720	314,721	157,371
5,386	-6,835	296,591	144,122
6,400	-8,787	290,488	139,204
7,415	-9,432	288,178	137,448
8,429	-9,586	286,499	136,484
9,444	-9,536	285,712	136,147
10,459	-9,478	285,010	135,857
11,473	-9,496	284,376	135,525
12,488	-9,518	283,774	135,204
13,502	-9,469	283,320	135,024
14,517	-9,427	283,110	134,952
15,531	-9,542	282,450	134,514
16,546	-9,395	282,068	134,462
17,561	-9,527	281,729	134,162
18,575	-9,384	281,461	134,159
19,590	-9,547	281,057	133,798
20,604	-9,360	280,751	133,821
21,619	-9,615	280,389	133,392
22,634	-9,465	280,121	133,395
23,648	-9,547	279,612	133,063
24,663	-9,494	279,575	133,084
25,677	-9,327	279,179	133,043
26,692	-9,452	278,932	132,795
27,707	-9,256	278,684	132,852
28,721	-9,401	278,593	132,657
29,736	-9,494	278,189	132,365
30,750	-9,514	278,038	132,263
31,765	-9,372	277,591	132,173
32,780	-9,422	277,287	131,969
33,794	-9,419	277,167	131,902
34,809	-9,595	276,954	131,623
35,823	-9,421	276,596	131,606
36,838	-9,608	276,335	131,293
37,853	-9,505	276,088	131,261
38,867	-9,541	275,695	131,029
39,882	-9,484	275,617	131,033
40,896	-9,537	275,435	130,886
41,911	-9,546	275,031	130,673
42,926	-9,395	274,873	130,728
43,940	-9,507	274,575	130,470
44,955	-9,494	274,258	130,320
45,969	-9,600	274,139	130,153
46,984	-9,663	274,051	130,041
47,999	-9,937	273,599	129,559
49,013	-9,836	273,412	129,553
50,028	-10,065	273,051	129,157
51,042	-10,138	272,777	128,948
52,057	-10,339	272,696	128,711
53,071	-10,239	272,470	128,685
54,086	-9,981	272,341	128,854
55,101	-9,844	272,081	128,846
56,115	-9,802	271,965	128,819
57,130	-9,515	271,747	128,969
58,144	-9,437	271,741	129,027
59,159	-9,333	271,336	128,919
60,174	-9,519	271,257	128,699
61,188	-9,496	271,027	128,600
62,203	-9,475	270,905	128,550
63,217	-9,411	270,579	128,442
64,232	-9,287	270,234	128,381
65,247	-9,386	270,079	128,205
66,261	-9,244	269,897	128,237
67,276	-9,555	269,645	127,821
68,290	-9,663	269,179	127,490
69,305	-9,778	269,146	127,357
70,320	-9,569	268,796	127,371
71,334	-9,700	268,787	127,236
72,349	-9,378	268,534	127,400
73,363	-9,453	268,372	127,243
74,378	-9,419	268,212	127,187
75,393	-9,280	267,845	127,127
76,407	-9,310	267,691	127,016
77,422	-9,295	267,395	126,878
78,436	-9,426	267,142	126,628
79,451	-9,181	266,967	126,756
80,466	-9,528	266,700	126,303
81,480	-9,534	266,553	126,216
82,495	-9,545	266,228	126,042
83,509	-9,441	266,106	126,067
84,524	-9,642	265,971	125,810
85,539	-9,606	265,511	125,613
86,553	-9,706	265,490	125,502
87,568	-9,673	265,405	125,480
88,582	-9,576	265,134	125,429
89,597	-9,477	264,854	125,374
90,611	-9,283	264,512	125,375
91,626	-9,400	264,548	125,275
92,641	-9,428	264,485	125,209
93,655	-9,265	264,147	125,185
94,670	-9,509	263,983	124,877
95,684	-9,461	263,781	124,813
96,699	-9,482	263,646	124,720
97,714	-9,522	263,501	124,604
98,728	-9,437	263,053	124,457
99,743	-9,728	262,957	124,141
100,757	-9,840	262,655	123,887
101,772	-9,631	262,375	123,930
102,787	-9,459	262,262	124,019
103,801	-9,667	262,149	123,769
104,816	-9,416	261,857	123,844
105,830	-9,383	261,851	123,859
106,845	-9,454	261,627	123,679
107,860	-9,394	261,370	123,599
108,874	-9,367	261,041	123,457
109,889	-9,430	260,994	123,368
110,903	-9,510	260,834	123,211
111,918	-9,345	260,495	123,185
112,933	-9,509	260,385	122,977
113,947	-9,383	260,277	123,027
114,962	-9,335	259,882	122,871
115,976	-9,418	259,865	122,778
116,991	-9,499	259,541	122,543
118,006	-9,384	259,465	122,598
119,020	-9,436	259,344	122,484
120,035	-9,558	259,259	122,326
121,049	-9,387	259,039	122,362
122,064	-9,339	258,671	122,218
123,079	-9,378	258,584	122,132
124,093	-9,520	258,350	121,886
125,108	-9,597	258,001	121,644
126,122	-9,731	257,707	121,377
127,137	-9,834	257,657	121,253
128,151	-9,755	257,446	121,213
129,166	-9,820	257,275	121,064
130,181	-9,764	257,006	120,975
131,195	-9,574	256,904	121,082
132,210	-9,411	256,719	121,125
133,224	-9,522	256,693	121,006
134,239	-9,312	256,466	121,070
135,254	-9,322	256,310	120,978
136,268	-9,548	255,932	120,592
137,283	-9,595	255,678	120,422
138,297	-9,695	255,556	120,267
139,312	-9,852	255,288	119,995
140,327	-9,469	255,249	120,296
141,341	-9,402	255,300	120,367
142,356	-9,225	255,011	120,373
143,370	-9,168	254,758	120,292
144,385	-9,137	254,481	120,177
145,400	-9,294	254,499	120,040
146,414	-9,183	254,386	120,072
147,429	-9,381	254,098	119,755
148,443	-9,371	253,951	119,682
149,458	-9,174	253,641	119,695
150,473	-9,236	253,562	119,594
151,487	-9,380	253,240	119,309
152,502	-9,261	253,185	119,374
153,516	-9,096	253,004	119,419
154,531	-8,933	252,695	119,401
155,546	-9,198	252,616	119,128
156,560	-9,298	252,523	118,987
157,575	-9,415	252,080	118,668
158,589	-9,222	251,948	118,760
159,604	-9,316	251,902	118,647
160,619	-9,118	251,656	118,690
161,633	-9,243	251,535	118,515
162,648	-9,379	251,321	118,289
163,662	-9,196	251,200	118,377
164,677	-9,058	251,082	118,427
165,692	-9,103	250,827	118,259
166,706	-9,215	250,758	118,120
167,721	-9,202	250,515	118,007
168,735	-9,119	250,293	117,961
169,750	-9,154	250,339	117,944
170,764	-9,101	250,106	117,868
171,779	-9,283	249,907	117,610
172,794	-9,022	249,708	117,726
173,808	-9,198	249,459	117,449
174,823	-9,568	249,304	117,055
175,837	-9,872	249,086	116,687
176,852	-9,503	248,959	116,926
177,867	-9,323	248,796	116,990
178,881	-9,131	248,698	117,095
179,896	-9,075	248,530	117,052
180,910	-9,126	248,315	116,898
181,925	-9,151	248,160	116,794
182,940	-8,994	247,966	116,823
183,954	-9,170	247,879	116,625
184,969	-9,159	247,692	116,536
185,983	-8,975	247,343	116,514
186,998	-9,092	247,521	116,491
188,013	-9,108	247,208	116,319
189,027	-9,000	246,946	116,275
190,042	-8,963	246,747	116,202
191,056	-9,227	246,757	115,977
192,071	-9,245	246,584	115,871
193,086	-9,330	246,316	115,664
194,100	-9,353	246,210	115,585
195,115	-9,134	246,020	115,667
196,129	-8,898	245,727	115,714
197,144	-8,892	245,386	115,547
198,159	-9,132	245,295	115,296
199,173	-9,160	245,192	115,215
200,188	-9,216	244,916	115,029
201,202	-9,414	244,802	114,801
202,217	-9,749	244,530	114,388
203,232	-9,766	244,288	114,251
204,246	-9,247	244,253	114,650
205,261	-8,861	244,072	114,873
206,275	-9,915	243,920	113,926
207,290	-6,690	245,092	117,120
208,304	0,271	247,411	123,993
209,319	3,803	248,066	127,239
210,334	4,122	248,058	127,487
211,348	4,508	248,037	127,785
212,363	4,559	247,972	127,782
213,377	4,532	247,962	127,743
214,392	4,470	247,861	127,629
215,407	4,359	247,617	127,400
216,421	4,331	247,271	127,187
217,436	4,421	247,406	127,320
218,450	4,724	247,118	127,409
219,465	4,303	246,888	126,933
220,480	4,220	246,644	126,728
221,494	4,140	246,520	126,587
222,509	4,318	246,198	126,557
223,523	4,169	246,102	126,374
224,538	3,890	245,799	125,979
225,553	3,991	245,668	125,982
226,567	3,970	245,638	125,939
227,582	4,092	245,463	125,938
228,596	4,191	245,253	125,900
229,611	3,920	244,998	125,536
230,626	3,963	244,884	125,502
231,640	3,993	244,786	125,465
232,655	4,046	244,596	125,399
233,669	3,885	244,361	125,137
234,684	3,812	244,212	124,990
235,699	4,175	244,204	125,270
236,713	4,041	244,199	125,147
237,728	3,875	243,815	124,804
238,742	3,772	243,493	124,545
239,757	3,797	243,426	124,520
240,772	3,714	243,232	124,343
241,786	3,843	243,303	124,472
242,801	4,046	242,857	124,397
243,815	3,746	242,904	124,168
244,830	4,000	242,723	124,269
245,844	3,931	242,592	124,135
246,859	3,932	242,340	123,996
247,874	3,858	242,190	123,849
248,888	3,935	242,053	123,830
249,903	3,943	241,998	123,796
250,917	4,137	241,843	123,863
251,932	4,292	241,696	123,901
252,947	4,124	241,496	123,652
253,961	4,106	241,163	123,456
254,976	3,937	241,264	123,361
255,990	3,989	241,045	123,280
257,005	4,003	240,771	123,140
258,020	3,627	240,668	122,776
259,034	3,758	240,522	122,795
260,049	3,941	240,445	122,891
261,063	3,894	240,149	122,692
262,078	3,806	240,048	122,558
263,093	4,099	239,978	122,745
264,107	4,029	239,937	122,657
265,122	4,056	239,546	122,469
266,136	4,001	239,464	122,372
267,151	4,430	239,393	122,665
268,166	4,018	239,096	122,175
269,180	3,905	238,911	121,981
270,195	4,171	238,948	122,199
271,209	4,467	238,895	122,396
272,224	3,923	238,697	121,853
273,239	3,763	238,306	121,516
274,253	3,697	238,272	121,436
275,268	3,921	238,104	121,516
276,282	4,042	237,919	121,506
277,297	3,947	237,650	121,283
278,312	3,907	237,651	121,241
279,326	4,050	237,483	121,258
280,341	4,258	237,129	121,229
281,355	4,097	237,107	121,081
282,370	4,220	237,068	121,147
283,384	3,896	236,924	120,808
284,399	3,828	236,652	120,605
285,414	3,780	236,512	120,485
286,428	3,632	236,410	120,307
287,443	3,902	236,119	120,359
288,457	3,942	236,127	120,384
289,472	4,154	236,062	120,505
290,487	3,856	235,929	120,194
291,501	3,810	235,697	120,029
292,516	3,373	235,482	119,568
293,530	3,455	235,364	119,561
294,545	4,064	235,359	120,023
295,560	4,188	234,961	119,906
296,574	3,848	234,885	119,592
297,589	3,824	234,837	119,538
298,603	4,306	234,689	119,826
299,618	4,111	234,476	119,556
300,633	4,016	234,335	119,400
301,647	4,139	234,325	119,479
302,662	4,299	234,238	119,548
303,676	4,281	234,031	119,418
304,691	4,302	233,826	119,319
305,706	4,395	233,772	119,352
306,720	4,307	233,542	119,157
307,735	4,327	233,317	119,047
308,749	3,960	233,219	118,703
309,764	3,855	233,037	118,519
310,779	3,807	232,783	118,342
311,793	3,872	232,513	118,245
312,808	3,709	232,351	118,026
313,822	3,673	232,340	117,982
314,837	3,518	232,206	117,784
315,852	3,735	231,880	117,775
316,866	3,861	231,966	117,905
317,881	3,884	231,838	117,847
318,895	3,894	231,556	117,701
319,910	4,242	231,562	117,960
320,925	4,467	231,317	117,996
321,939	3,857	231,288	117,505
322,954	4,174	231,157	117,670
323,968	3,997	230,849	117,368
324,983	3,728	230,758	117,106
325,997	3,963	230,625	117,207
327,012	4,028	230,615	117,241
328,027	4,146	230,415	117,219
329,041	4,319	230,230	117,246
330,056	4,795	230,299	117,632
331,070	4,873	230,078	117,568
332,085	4,391	229,877	117,089
333,100	4,314	229,483	116,820
334,114	4,148	229,545	116,715
335,129	4,209	229,571	116,764
336,143	4,478	229,334	116,836
337,158	4,633	229,147	116,848
338,173	4,232	228,999	116,460
339,187	4,101	228,761	116,229
340,202	4,049	228,797	116,198
341,216	4,213	228,572	116,197
342,231	4,021	228,285	115,896
343,246	4,029	228,069	115,782
344,260	4,237	228,064	115,926
345,275	4,504	227,984	116,075
346,289	4,332	227,959	115,923
347,304	4,281	227,871	115,830
348,319	4,315	227,620	115,717
349,333	4,269	227,338	115,529
350,348	4,282	227,144	115,429
351,362	4,292	227,010	115,359
352,377	3,885	226,964	115,021
353,392	3,678	226,792	114,768
354,406	3,922	226,560	114,823
355,421	196,131	1321,084	1400,284
356,435	157,257	1454,442	1400,293
