DTS Sentinel unit serial number:	SN410029Multiplexer serial number:	ORYXHardware model number:	OX2-SRSoftware version number:	ORYX F/W v4,00 Oryx Data Collector v3.7.2.0data status	okinstallation	B5 Nyhavnadifferential loss correction	single-endedforward channel	channel 2reverse channel	N/Adate	2023/12/13time	21:17:13forward acquisition time	300,00reverse acquisition time	0,00gamma	499,1914k internal	0,3156k external	0,3156temperature offset calibration	1,0000default loss term (dB/km)	0,3820temperature slope calibration	1,0000multiplexer offset coefficient	1,0000multiplexer slope coefficient	1,0000fibre end	0,00T internal ref (°C)	10,12T ext. ref 1 (°C)	-6,77T ext. ref 2 (°C)	-6,83length (m)	temperature (°C)	Stokes	anti-Stokes-744,400	-28,715	0,181	0,077
-743,385	-124,331	-0,315	0,036
-742,371	322,145	0,045	0,063
-741,356	-92,854	-0,333	-0,068
-740,342	115,695	0,181	0,163
-739,327	-59,876	-0,280	-0,088
-738,312	-22,622	0,117	0,052
-737,298	-144,937	-0,361	0,024
-736,283	238,677	0,017	-0,021
-735,269	-3,169	-0,243	-0,125
-734,254	230,887	-0,011	-0,013
-733,239	114,546	-0,420	-0,377
-732,225	13,352	0,229	0,130
-731,210	-200,000	0,024	-0,085
-730,196	-73,923	-0,090	0,024
-729,181	-105,333	-0,070	0,012
-728,167	-154,469	-0,128	0,006
-727,152	36,498	-0,031	0,020
-726,137	-137,668	-0,084	-0,007
-725,123	58,057	-0,082	-0,059
-724,108	490,151	-0,077	-0,130
-723,094	800,000	-0,057	-0,164
-722,079	320,976	-0,086	-0,120
-721,064	-98,592	-0,051	-0,010
-720,050	433,106	-0,031	0,050
-719,035	-200,000	0,007	-0,072
-718,021	324,529	-0,055	0,078
-717,006	-112,261	-0,082	-0,012
-715,991	-200,000	-0,017	-0,057
-714,977	63,303	-0,152	-0,112
-713,962	306,607	-0,031	0,043
-712,948	109,015	-0,086	0,076
-711,933	-116,895	-0,102	-0,014
-710,918	-200,000	0,001	0,067
-709,904	-10,541	-0,051	-0,025
-708,889	193,471	-0,063	-0,070
-707,875	4,141	-0,163	-0,087
-706,860	525,956	0,078	-0,136
-705,845	178,806	0,057	-0,061
-704,831	-200,000	-0,007	-0,066
-703,816	168,893	0,035	-0,037
-702,802	-200,000	-0,003	0,084
-701,787	165,675	-0,074	0,077
-700,772	-13,232	-0,109	-0,052
-699,758	109,357	-0,122	-0,108
-698,743	800,000	0,036	0,094
-697,729	734,806	-0,093	0,184
-696,714	800,000	0,017	0,051
-695,699	-200,000	0,016	-0,075
-694,685	-66,317	-0,121	-0,035
-693,670	129,655	-0,045	-0,043
-692,656	-200,000	-0,016	-0,054
-691,641	-200,000	-0,028	0,140
-690,627	-200,000	0,014	-0,055
-689,612	-200,000	-0,014	-0,134
-688,597	-46,923	-0,067	-0,024
-687,583	800,000	0,023	-0,064
-686,568	-200,000	0,034	-0,112
-685,554	-42,049	0,024	-0,009
-684,539	207,661	0,053	-0,060
-683,524	-140,596	0,087	-0,007
-682,510	34,537	0,059	-0,038
-681,495	800,000	-0,023	-0,049
-680,481	156,841	-0,115	-0,117
-679,466	-33,631	0,136	-0,055
-678,451	677,841	0,032	-0,061
-677,437	-47,995	-0,159	-0,056
-676,422	-181,518	-0,104	-0,001
-675,408	-112,182	0,086	-0,013
-674,393	169,501	-0,054	-0,057
-673,378	800,000	-0,008	-0,020
-672,364	90,634	-0,151	-0,125
-671,349	800,000	-0,019	0,039
-670,335	-200,000	-0,009	-0,076
-669,320	-200,000	0,017	-0,116
-668,305	800,000	-0,017	-0,038
-667,291	507,341	-0,049	0,084
-666,276	392,640	0,035	-0,054
-665,262	280,007	-0,066	-0,087
-664,247	-86,631	-0,100	0,022
-663,232	-14,815	-0,056	-0,026
-662,218	-200,000	0,015	-0,054
-661,203	-71,702	0,084	-0,023
-660,189	-200,000	0,001	0,030
-659,174	239,316	-0,028	0,035
-658,159	-200,000	0,036	-0,233
-657,145	24,078	-0,030	-0,018
-656,130	175,015	0,066	-0,071
-655,116	800,000	-0,052	0,134
-654,101	-200,000	0,004	-0,081
-653,086	-99,347	0,055	-0,010
-652,072	-45,561	-0,056	-0,020
-651,057	-200,000	-0,019	-0,130
-650,043	-3,843	0,056	-0,028
-649,028	-200,000	-0,019	-0,164
-648,014	-200,000	-0,025	0,112
-646,999	-200,000	-0,007	-0,051
-645,984	800,000	-0,016	-0,049
-644,970	4,791	0,154	-0,083
-643,955	-21,956	0,066	-0,029
-642,941	15,807	-0,079	-0,046
-641,926	-59,650	-0,052	0,016
-640,911	-40,701	-0,053	-0,020
-639,897	40,821	0,106	0,070
-638,882	-115,504	-0,048	-0,007
-637,868	104,742	0,069	-0,060
-636,853	8,890	-0,117	-0,065
-635,838	73,614	-0,121	-0,093
-634,824	-80,720	0,022	0,005
-633,809	382,515	-0,066	0,100
-632,795	-5,950	0,081	0,041
-631,780	614,907	-0,044	-0,082
-630,765	800,000	0,024	-0,078
-629,751	800,000	0,067	-0,177
-628,736	-16,609	-0,125	-0,058
-627,722	82,838	-0,071	-0,056
-626,707	-183,890	-0,084	0,001
-625,692	-20,752	0,215	0,096
-624,678	-200,000	0,004	0,166
-623,663	257,015	0,128	0,161
-622,649	800,000	-0,058	0,138
-621,634	355,877	0,031	-0,046
-620,619	-200,000	0,015	-0,128
-619,605	361,713	0,055	-0,081
-618,590	-83,012	0,082	-0,019
-617,576	-105,959	0,092	-0,015
-616,561	-14,130	-0,149	-0,070
-615,546	165,374	-0,110	-0,114
-614,532	800,000	0,062	-0,171
-613,517	160,439	-0,126	-0,129
-612,503	-22,718	-0,051	-0,022
-611,488	-200,000	-0,002	-0,011
-610,474	-68,400	-0,049	0,014
-609,459	-63,463	-0,137	-0,041
-608,444	479,012	0,043	-0,072
-607,430	581,632	0,010	0,018
-606,415	-200,000	0,028	-0,137
-605,401	48,035	-0,122	-0,084
-604,386	42,487	0,100	0,066
-603,371	243,151	0,043	0,054
-602,357	800,000	-0,039	0,097
-601,342	235,953	0,029	0,035
-600,328	-200,000	-0,004	0,028
-599,313	-200,000	0,003	-0,021
-598,298	33,956	0,078	-0,050
-597,284	-12,624	-0,027	0,013
-596,269	153,384	0,061	0,061
-595,255	140,038	0,095	0,092
-594,240	800,000	0,023	-0,069
-593,225	-113,868	-0,200	-0,028
-592,211	-200,000	-0,002	-0,062
-591,196	759,498	0,033	-0,066
-590,182	800,000	-0,027	-0,075
-589,167	-200,000	-0,013	-0,158
-588,152	-98,365	-0,025	-0,005
-587,138	720,114	0,031	-0,061
-586,123	495,348	-0,041	-0,070
-585,109	-145,490	0,054	0,004
-584,094	406,194	0,053	-0,082
-583,079	-200,000	-0,040	-0,211
-582,065	-200,000	-0,005	-0,145
-581,050	32,818	-0,130	-0,082
-580,036	-81,030	-0,031	0,007
-579,021	-134,406	-0,052	0,005
-578,006	59,405	-0,183	-0,132
-576,992	-200,000	0,029	-0,097
-575,977	-89,554	0,191	0,041
-574,963	-131,676	-0,057	-0,005
-573,948	-200,000	0,000	0,046
-572,934	794,397	-0,032	0,065
-571,919	40,507	-0,010	0,007
-570,904	-200,000	-0,010	0,038
-569,890	-102,846	-0,069	-0,012
-568,875	-200,000	0,004	0,076
-567,861	800,000	0,079	-0,173
-566,846	-126,908	-0,097	0,010
-565,831	-105,631	-0,067	0,011
-564,817	241,400	-0,044	0,054
-563,802	-200,000	-0,020	0,106
-562,788	-200,000	-0,013	-0,109
-561,773	800,000	-0,017	0,036
-560,758	-200,000	0,004	-0,058
-559,744	55,052	-0,134	0,095
-558,729	120,147	0,092	0,084
-557,715	-200,000	-0,019	0,141
-556,700	-52,473	-0,084	0,028
-555,685	-44,775	-0,089	0,032
-554,671	220,373	0,044	0,051
-553,656	-138,023	0,116	0,009
-552,642	332,252	0,046	-0,065
-551,627	800,000	-0,042	0,126
-550,612	-200,000	0,037	0,148
-549,598	-200,000	-0,043	-0,277
-548,583	-200,000	-0,033	-0,256
-547,569	-149,472	0,092	0,005
-546,554	-33,817	0,045	0,018
-545,539	-109,532	-0,140	-0,021
-544,525	-17,386	0,127	0,058
-543,510	-85,423	0,057	0,013
-542,496	274,280	-0,028	0,037
-541,481	800,000	-0,043	0,123
-540,466	800,000	0,051	0,112
-539,452	76,131	-0,055	0,043
-538,437	90,585	-0,069	0,056
-537,423	-28,592	0,166	0,070
-536,408	-148,200	-0,106	-0,006
-535,393	-51,773	-0,063	-0,021
-534,379	-67,875	-0,168	0,048
-533,364	402,453	-0,026	-0,040
-532,350	-95,704	0,104	0,020
-531,335	51,209	-0,045	-0,031
-530,321	19,219	0,080	0,047
-529,306	-75,736	-0,139	-0,036
-528,291	257,350	-0,100	-0,126
-527,277	132,029	-0,024	-0,022
-526,262	132,087	-0,150	0,141
-525,248	58,872	-0,016	-0,012
-524,233	561,110	-0,024	-0,042
-523,218	800,000	-0,029	-0,064
-522,204	15,571	0,081	-0,046
-521,189	64,227	0,032	0,024
-520,175	-66,692	-0,031	-0,009
-519,160	-24,201	0,154	-0,067
-518,145	208,225	-0,043	-0,049
-517,131	433,051	0,107	-0,171
-516,116	800,000	-0,003	-0,007
-515,102	160,622	0,030	-0,030
-514,087	96,397	-0,034	-0,029
-513,072	-200,000	0,008	0,026
-512,058	-104,233	-0,042	-0,007
-511,043	235,950	0,084	-0,102
-510,029	800,000	-0,032	-0,089
-509,014	113,278	0,138	0,122
-507,999	-116,462	-0,085	-0,011
-506,985	-200,000	-0,007	0,062
-505,970	-26,530	0,076	0,033
-504,956	6,030	0,062	0,034
-503,941	-200,000	0,008	0,040
-502,926	19,142	0,079	-0,046
-501,912	770,938	-0,027	0,055
-500,897	-39,538	-0,137	0,052
-499,883	-200,000	0,004	0,047
-498,868	-110,027	-0,045	0,007
-497,853	-131,546	-0,077	0,007
-496,839	-43,947	-0,092	0,034
-495,824	800,000	0,009	0,026
-494,810	-159,757	0,095	-0,004
-493,795	-200,000	0,016	0,152
-492,781	800,000	0,051	0,109
-491,766	-156,798	0,062	0,003
-490,751	588,792	0,049	0,088
-489,737	123,801	0,065	0,059
-488,722	-86,638	0,032	0,007
-487,708	313,423	0,067	-0,093
-486,693	800,000	-0,019	-0,056
-485,678	-200,000	-0,024	-0,088
-484,664	-128,584	-0,168	-0,017
-483,649	-34,707	-0,057	0,023
-482,635	-200,000	0,032	0,109
-481,620	50,383	0,046	-0,032
-480,605	-200,000	-0,010	-0,031
-479,591	-109,175	0,132	0,020
-478,576	83,256	0,039	0,031
-477,562	-64,764	0,015	-0,004
-476,547	605,593	-0,047	0,085
-475,532	-58,614	-0,018	0,006
-474,518	-200,000	0,006	0,034
-473,503	800,000	-0,007	0,022
-472,489	93,870	0,089	0,074
-471,474	-80,246	0,060	0,015
-470,459	-200,000	-0,011	-0,039
-469,445	-74,717	-0,172	0,045
-468,430	10,419	0,138	-0,077
-467,416	-200,000	-0,022	-0,082
-466,401	800,000	0,080	0,169
-465,386	-200,000	-0,004	-0,027
-464,372	-123,735	-0,119	-0,014
-463,357	-40,367	-0,045	-0,017
-462,343	-200,000	-0,000	-0,064
-461,328	300,934	-0,005	-0,007
-460,313	79,087	0,021	0,017
-459,299	720,066	0,042	0,082
-458,284	369,584	0,054	0,079
-457,270	-88,485	0,154	0,033
-456,255	161,368	-0,017	-0,018
-455,241	22,549	0,062	-0,037
-454,226	-47,920	0,082	0,029
-453,211	339,499	-0,052	0,074
-452,197	-63,488	0,082	0,025
-451,182	-54,088	0,098	0,032
-450,168	602,437	-0,019	-0,034
-449,153	-200,000	-0,003	-0,050
-448,138	458,335	-0,042	-0,069
-447,124	111,898	0,022	0,020
-446,109	800,000	0,011	-0,024
-445,095	-64,538	-0,068	0,020
-444,080	36,336	0,106	0,068
-443,065	-200,000	-0,030	0,149
-442,051	-137,427	-0,082	-0,007
-441,036	-200,000	-0,023	-0,101
-440,022	-200,000	0,001	-0,159
-439,007	-200,000	0,002	0,022
-437,992	-200,000	-0,005	0,132
-436,978	800,000	0,038	0,102
-435,963	-200,000	0,001	0,121
-434,949	-126,237	0,065	-0,007
-433,934	-147,552	-0,072	0,004
-432,919	332,160	0,057	-0,080
-431,905	475,947	-0,034	-0,056
-430,890	800,000	0,002	0,004
-429,876	-161,470	0,110	-0,004
-428,861	-53,859	-0,155	-0,051
-427,846	800,000	-0,016	0,033
-426,832	-113,291	-0,055	-0,008
-425,817	-2,886	-0,041	0,021
-424,803	-200,000	-0,046	0,186
-423,788	445,340	0,096	0,154
-422,773	-53,355	0,070	-0,023
-421,759	237,721	0,062	0,076
-420,744	158,713	0,055	0,055
-419,730	-94,682	0,071	0,014
-418,715	-200,000	-0,002	-0,037
-417,701	609,977	0,035	0,064
-416,686	246,625	-0,028	0,034
-415,671	417,948	-0,058	-0,091
-414,657	-44,474	0,029	-0,010
-413,642	-129,916	0,028	0,003
-412,628	-94,182	0,088	0,017
-411,613	-200,000	-0,028	-0,152
-410,598	-200,000	0,011	0,082
-409,584	-200,000	0,002	0,070
-408,569	117,042	0,089	0,079
-407,555	-80,122	0,164	0,040
-406,540	-97,075	-0,077	0,015
-405,525	-51,792	-0,116	0,039
-404,511	112,745	-0,043	0,038
-403,496	800,000	0,019	-0,044
-402,482	-200,000	-0,029	-0,130
-401,467	74,154	0,079	-0,060
-400,452	401,786	0,050	0,076
-399,438	658,134	-0,028	0,053
-398,423	-107,900	-0,082	0,013
-397,409	-1,411	0,102	-0,052
-396,394	550,737	0,082	-0,144
-395,379	-200,000	-0,020	-0,068
-394,365	-200,000	0,005	-0,047
-393,350	-200,000	-0,037	0,175
-392,336	-30,511	-0,049	0,020
-391,321	-200,000	-0,009	0,092
-390,306	-105,733	0,053	0,009
-389,292	-99,500	-0,091	0,017
-388,277	-117,972	0,068	-0,009
-387,263	-94,241	0,076	0,015
-386,248	-94,725	0,085	-0,017
-385,233	83,981	0,048	0,038
-384,219	800,000	0,072	-0,167
-383,204	318,134	-0,017	-0,024
-382,190	800,000	-0,043	-0,095
-381,175	-116,132	0,197	-0,026
-380,160	-143,524	-0,080	-0,005
-379,146	800,000	-0,037	0,098
-378,131	234,502	0,062	0,074
-377,117	-200,000	-0,015	0,096
-376,102	-45,849	-0,125	-0,045
-375,088	-200,000	-0,032	-0,116
-374,073	4,308	-0,079	-0,042
-373,058	368,346	0,044	-0,065
-372,044	746,165	0,079	0,155
-371,029	49,869	-0,062	0,043
-370,015	178,358	-0,043	0,046
-369,000	278,805	-0,042	-0,055
-367,985	-200,000	0,012	-0,041
-366,971	-162,122	0,101	-0,004
-365,956	179,111	0,032	-0,034
-364,942	182,506	0,096	0,103
-363,927	599,466	0,039	0,071
-362,912	800,000	0,008	0,022
-361,898	221,532	-0,041	-0,047
-360,883	-6,605	-0,110	-0,054
-359,869	800,000	-0,014	-0,034
-358,854	-200,000	-0,000	0,032
-357,839	800,000	0,037	0,119
-356,825	-200,000	0,023	0,174
-355,810	-200,000	0,006	-0,051
-354,796	129,331	0,048	-0,045
-353,781	88,511	-0,117	0,094
-352,766	800,000	-0,060	0,122
-351,752	-7,433	-0,080	0,039
-350,737	800,000	0,047	0,134
-349,723	50,918	0,059	0,041
-348,708	181,274	0,053	0,056
-347,693	-200,000	0,022	0,076
-346,679	-31,938	-0,091	-0,037
-345,664	-16,652	0,101	-0,046
-344,650	-200,000	-0,005	-0,093
-343,635	800,000	0,032	-0,069
-342,620	-200,000	0,013	-0,045
-341,606	255,909	-0,035	0,044
-340,591	800,000	-0,030	-0,065
-339,577	339,971	0,054	-0,077
-338,562	8,789	-0,107	-0,059
-337,548	-119,162	-0,055	0,007
-336,533	435,475	0,054	0,085
-335,518	800,000	-0,015	-0,041
-334,504	-200,000	-0,009	0,081
-333,489	-173,969	-0,075	-0,002
-332,475	667,335	-0,027	-0,051
-331,460	-100,538	-0,094	-0,017
-330,445	-200,000	-0,014	-0,102
-329,431	800,000	0,018	0,041
-328,416	223,365	-0,033	-0,039
-327,402	650,812	0,088	0,164
-326,387	164,708	0,109	-0,111
-325,372	-200,000	0,005	-0,129
-324,358	-72,469	-0,121	0,032
-323,343	-200,000	0,032	-0,122
-322,329	495,474	0,080	-0,134
-321,314	800,000	-0,009	0,019
-320,299	-200,000	-0,018	0,098
-319,285	-70,656	-0,057	-0,016
-318,270	-71,582	-0,164	-0,044
-317,256	115,927	0,106	-0,094
-316,241	33,169	-0,076	-0,047
-315,226	424,896	0,030	0,047
-314,212	58,815	0,039	0,028
-313,197	-52,535	-0,153	0,051
-312,183	-106,159	0,060	0,010
-311,168	132,298	0,059	0,055
-310,153	-200,000	-0,070	-0,236
-309,139	669,735	-0,051	-0,096
-308,124	241,727	-0,038	0,047
-307,110	20,343	-0,081	-0,048
-306,095	-200,000	-0,002	0,032
-305,080	-113,433	0,142	0,020
-304,066	-200,000	0,004	-0,079
-303,051	800,000	0,030	0,065
-302,037	-33,033	-0,157	0,063
-301,022	-36,564	0,074	0,029
-300,008	241,739	0,092	0,111
-298,993	0,953	0,104	-0,054
-297,978	-200,000	-0,019	0,115
-296,964	-88,995	-0,094	0,020
-295,949	43,998	0,090	-0,060
-294,935	113,717	-0,129	-0,113
-293,920	83,838	-0,183	0,145
-292,905	-145,218	0,074	-0,005
-291,891	-52,520	-0,058	-0,019
-290,876	-200,000	0,015	0,050
-289,862	16,810	0,020	0,011
-288,847	-78,028	-0,129	-0,032
-287,832	543,803	-0,034	0,060
-286,818	96,985	0,078	-0,065
-285,803	800,000	0,016	0,051
-284,789	462,073	0,053	0,087
-283,774	800,000	0,029	0,091
-282,759	-200,000	0,003	0,045
-281,745	676,775	-0,078	-0,148
-280,730	-200,000	-0,020	-0,095
-279,716	-200,000	0,005	-0,147
-278,701	248,970	-0,031	0,038
-277,686	-90,862	-0,101	-0,021
-276,672	-200,000	-0,002	-0,035
-275,657	84,752	-0,059	0,047
-274,643	329,839	-0,104	-0,145
-273,628	800,000	0,019	-0,047
-272,613	-200,000	0,001	0,043
-271,599	-200,000	0,000	0,081
-270,584	153,415	-0,098	0,098
-269,570	228,664	-0,063	0,074
-268,555	-200,000	-0,014	0,194
-267,540	0,218	0,069	0,036
-266,526	-174,756	-0,132	-0,003
-265,511	18,187	0,055	0,031
-264,497	-200,000	-0,009	-0,122
-263,482	-91,697	0,132	0,027
-262,467	28,137	0,044	0,027
-261,453	69,522	-0,047	-0,035
-260,438	64,264	0,098	0,071
-259,424	-159,585	-0,155	-0,006
-258,409	380,617	-0,006	0,009
-257,395	263,968	0,002	0,002
-256,380	616,507	0,043	0,078
-255,365	-137,187	0,130	-0,011
-254,351	-200,000	-0,007	-0,118
-253,336	-200,000	-0,021	-0,120
-252,322	-200,000	0,009	-0,062
-251,307	-200,000	-0,011	0,040
-250,292	-200,000	0,029	0,138
-249,278	65,961	0,162	0,118
-248,263	522,284	0,007	-0,011
-247,249	181,298	0,038	-0,040
-246,234	-44,448	-0,121	-0,043
-245,219	800,000	-0,028	-0,061
-244,205	494,531	0,017	-0,028
-243,190	558,931	-0,063	0,111
-242,176	174,582	0,042	0,044
-241,161	-73,858	0,101	-0,026
-240,146	430,028	-0,044	-0,070
-239,132	6,960	-0,091	-0,049
-238,117	800,000	0,056	-0,119
-237,103	-200,000	-0,009	0,085
-236,088	151,739	0,037	0,037
-235,073	148,010	0,078	0,076
-234,059	195,255	0,108	0,119
-233,044	414,645	-0,081	-0,125
-232,030	-200,000	-0,028	-0,113
-231,015	662,980	-0,051	-0,095
-230,000	-200,000	-0,032	-0,113
-228,986	110,385	0,049	-0,043
-227,971	-115,884	0,042	0,006
-226,957	-116,584	0,061	-0,008
-225,942	-9,674	-0,083	0,040
-224,927	-200,000	-0,025	0,081
-223,913	-13,147	-0,148	0,069
-222,898	124,552	0,115	0,105
-221,884	313,843	-0,058	-0,079
-220,869	-200,000	0,027	-0,096
-219,855	-200,000	0,021	0,121
-218,840	10,743	0,119	-0,065
-217,825	-26,491	-0,122	0,051
-216,811	-105,126	0,070	-0,011
-215,796	-200,000	-0,024	0,081
-214,782	800,000	-0,053	-0,142
-213,767	-1,217	0,035	0,018
-212,752	-20,803	0,103	-0,046
-211,738	-56,573	0,073	-0,023
-210,723	118,352	-0,145	0,129
-209,709	33,349	0,083	0,052
-208,694	-162,410	-0,128	-0,004
-207,679	424,614	0,053	-0,082
-206,665	172,303	0,040	0,041
-205,650	383,141	-0,041	0,061
-204,636	20,235	-0,072	0,042
-203,621	169,020	-0,051	0,053
-202,606	-190,939	-0,079	0,001
-201,592	800,000	-0,003	0,009
-200,577	-27,783	0,040	0,017
-199,563	88,271	0,099	-0,080
-198,548	-200,000	0,006	0,153
-197,533	-91,350	0,080	0,016
-196,519	-159,537	-0,114	-0,004
-195,504	292,336	0,048	0,063
-194,490	278,317	-0,056	-0,072
-193,475	-200,000	-0,023	-0,211
-192,460	-200,000	0,007	-0,050
-191,446	-200,000	0,008	0,059
-190,431	800,000	-0,024	-0,074
-189,417	151,208	0,062	-0,061
-188,402	-62,756	0,020	-0,006
-187,387	102,626	-0,032	-0,027
-186,373	18,667	0,162	-0,093
-185,358	24,630	-0,108	-0,064
-184,344	-200,000	0,001	0,011
-183,329	136,064	0,031	0,029
-182,315	-200,000	0,025	0,101
-181,300	800,000	0,058	0,145
-180,285	132,864	-0,077	0,072
-179,271	-2,721	0,104	-0,052
-178,256	-60,317	-0,096	0,029
-177,242	38,620	0,009	-0,006
-176,227	89,233	0,096	-0,077
-175,212	520,700	-0,088	0,150
-174,198	800,000	-0,069	0,140
-173,183	-200,000	-0,028	-0,170
-172,169	-200,000	-0,000	0,021
-171,154	800,000	0,031	0,085
-170,139	366,773	-0,046	-0,068
-169,125	-23,637	0,165	0,071
-168,110	24,687	0,085	0,050
-167,096	-57,384	0,054	0,017
-166,081	248,498	0,069	-0,085
-165,066	-30,352	0,119	-0,048
-164,052	-200,000	-0,018	-0,108
-163,037	43,600	0,087	0,058
-162,023	7,830	-0,080	0,043
-161,008	352,597	0,087	0,125
-159,993	800,000	-0,008	0,024
-158,979	142,161	-0,043	0,041
-157,964	34,838	-0,020	-0,013
-156,950	-200,000	0,020	-0,111
-155,935	-153,544	-0,104	0,005
-154,920	800,000	-0,003	0,008
-153,906	-80,327	0,173	0,041
-152,891	267,199	-0,095	0,120
-151,877	-54,501	-0,106	0,034
-150,862	-200,000	-0,001	-0,120
-149,847	-84,304	-0,129	-0,029
-148,833	560,109	0,065	-0,113
-147,818	-68,271	-0,063	-0,018
-146,804	-50,911	0,155	-0,052
-145,789	237,908	-0,111	0,133
-144,775	-51,756	0,111	0,037
-143,760	-26,281	-0,082	-0,035
-142,745	800,000	0,026	0,055
-141,731	-200,000	0,019	0,086
-140,716	349,759	0,078	0,111
-139,702	-59,770	0,039	-0,012
-138,687	-200,000	-0,004	0,058
-137,672	-76,196	-0,063	-0,016
-136,658	-140,400	-0,152	0,011
-135,643	7,728	-0,045	0,024
-134,629	800,000	-0,034	-0,080
-133,614	-200,000	-0,014	-0,142
-132,599	-183,840	-0,077	0,001
-131,585	215,035	-0,102	0,116
-130,570	-23,258	-0,140	-0,060
-129,556	-200,000	0,006	0,080
-128,541	222,446	-0,057	-0,066
-127,526	53,448	-0,089	0,062
-126,512	800,000	0,030	-0,079
-125,497	-200,000	0,023	0,199
-124,483	68,534	0,117	0,086
-123,468	702,144	0,033	0,063
-122,453	40,960	-0,191	-0,124
-121,439	113,151	0,024	-0,021
-120,424	306,090	-0,057	0,076
-119,410	3,710	-0,069	0,036
-118,395	800,000	0,058	0,133
-117,380	281,776	-0,099	-0,128
-116,366	-200,000	0,004	-0,016
-115,351	798,382	-0,056	-0,111
-114,337	592,183	-0,061	-0,109
-113,322	-139,728	-0,045	-0,003
-112,307	396,152	-0,044	0,066
-111,293	11,523	-0,156	0,086
-110,278	-200,000	0,011	-0,072
-109,264	-113,409	0,140	-0,020
-108,249	22,036	-0,100	-0,058
-107,234	-200,000	-0,017	-0,104
-106,220	410,318	0,031	-0,047
-105,205	-200,000	-0,003	-0,048
-104,191	-88,003	0,135	-0,029
-103,176	-128,011	0,177	-0,018
-102,162	270,360	-0,098	0,124
-101,147	435,616	0,131	0,206
-100,132	-200,000	0,010	0,117
-99,118	490,001	0,072	-0,119
-98,103	-29,927	-0,124	0,051
-97,089	8,453	0,079	-0,042
-96,074	-109,693	0,129	-0,019
-95,059	343,369	-0,032	-0,045
-94,045	-200,000	0,016	0,062
-93,030	-200,000	0,010	0,057
-92,016	-200,000	-0,014	-0,131
-91,001	1,952	-0,127	0,066
-89,986	-3,881	0,143	0,071
-88,972	180,209	-0,038	-0,040
-87,957	241,776	-0,112	-0,135
-86,943	-154,700	0,047	0,002
-85,928	658,849	-0,039	-0,073
-84,913	-6,495	-0,089	0,043
-83,899	186,643	0,044	-0,047
-82,884	800,000	0,025	0,055
-81,870	-71,232	0,069	-0,019
-80,855	-74,649	-0,041	-0,011
-79,840	-135,340	-0,087	-0,007
-78,826	38,847	-0,038	0,024
-77,811	-44,173	0,068	-0,025
-76,797	-63,376	0,110	0,032
-75,782	-130,009	0,135	0,013
-74,767	32,149	-0,073	0,045
-73,753	268,677	-0,069	-0,087
-72,738	-200,000	-0,008	-0,088
-71,724	-71,867	-0,104	-0,028
-70,709	-200,000	0,010	-0,083
-69,694	467,885	0,075	-0,121
-68,680	256,489	-0,073	-0,090
-67,665	-200,000	0,000	0,041
-66,651	0,864	-0,066	-0,034
-65,636	473,769	-0,011	0,017
-64,622	800,000	-0,037	0,089
-63,607	234,164	-0,055	-0,065
-62,592	-34,808	-0,024	0,009
-61,578	15,238	-0,110	-0,062
-60,563	-68,071	0,051	-0,014
-59,549	-200,000	-0,009	0,052
-58,534	74,754	-2,406	-1,817
-57,519	528,635	0,196	-0,333
-56,505	-200,000	-1,649	-5,422
-55,490	243,456	0,992	1,197
-54,476	800,000	5,382	11,808
-53,461	-200,000	21,102	340,000
-52,446	800,000	764,248	2355,003
-51,432	533,506	1668,715	2848,885
-50,417	110,569	1634,952	1411,087
-49,403	79,054	1285,517	987,539
-48,388	27,929	1028,554	621,103
-47,373	19,382	992,981	571,245
-46,359	14,571	980,607	548,235
-45,344	10,713	976,986	533,461
-44,330	11,127	974,926	533,678
-43,315	10,240	973,146	529,762
-42,300	10,169	971,835	528,796
-41,286	10,158	971,077	528,327
-40,271	10,115	970,057	527,609
-39,257	10,163	969,288	527,328
-38,242	10,120	968,284	526,618
-37,227	10,082	967,597	526,101
-36,213	10,093	966,581	525,562
-35,198	10,070	965,773	525,028
-34,184	10,114	965,078	524,774
-33,169	10,112	964,050	524,187
-32,154	10,141	963,258	523,829
-31,140	10,184	962,066	523,300
-30,125	10,219	961,341	522,998
-29,111	10,212	960,556	522,528
-28,096	10,157	959,971	522,012
-27,082	10,216	959,063	521,688
-26,067	10,191	958,355	521,200
-25,052	10,171	957,710	520,766
-24,038	10,137	956,996	520,245
-23,023	10,098	956,451	519,802
-22,009	10,172	955,820	519,680
-20,994	10,126	955,213	519,179
-19,979	10,181	954,398	518,893
-18,965	10,128	953,922	518,444
-17,950	10,127	953,460	518,167
-16,936	10,133	952,750	517,781
-15,921	10,134	951,772	517,234
-14,906	10,036	951,229	516,601
-13,892	10,045	950,567	516,250
-12,877	10,096	949,882	516,022
-11,863	10,020	949,504	515,551
-10,848	10,075	948,663	515,250
-9,833	10,184	948,068	515,256
-8,819	10,153	947,517	514,836
-7,804	10,047	946,873	514,129
-6,790	10,100	946,143	513,880
-5,775	10,061	945,783	513,539
-4,760	10,120	945,118	513,348
-3,746	10,042	944,447	512,714
-2,731	9,908	943,696	511,858
-1,717	9,881	943,059	511,407
-0,702	9,878	942,618	511,137
0,313	9,692	941,861	510,906
1,327	13,262	939,488	520,907
2,342	22,210	789,440	461,403
3,356	17,367	455,310	258,699
4,371	-9,821	316,336	150,505
5,386	-13,792	298,409	137,901
6,400	-15,993	292,418	132,913
7,415	-16,085	290,112	131,762
8,429	-16,289	288,188	130,675
9,444	-16,394	287,406	130,204
10,459	-16,284	286,819	130,035
11,473	-16,162	286,074	129,806
12,488	-16,090	285,607	129,653
13,502	-16,318	285,170	129,220
14,517	-16,069	284,779	129,274
15,531	-15,936	284,332	129,189
16,546	-15,832	283,984	129,121
17,561	-15,965	283,661	128,834
18,575	-15,744	283,131	128,795
19,590	-15,963	282,980	128,503
20,604	-15,588	282,547	128,658
21,619	-15,678	282,266	128,432
22,634	-15,763	281,969	128,203
23,648	-15,845	281,550	127,922
24,663	-15,921	281,419	127,778
25,677	-15,826	281,142	127,732
26,692	-15,683	280,797	127,701
27,707	-15,701	280,569	127,570
28,721	-15,716	280,325	127,432
29,736	-15,926	280,031	127,087
30,750	-15,817	279,803	127,076
31,765	-15,784	279,452	126,937
32,780	-15,818	279,134	126,748
33,794	-15,708	279,017	126,789
34,809	-15,671	278,776	126,704
35,823	-15,673	278,391	126,515
36,838	-15,835	278,282	126,300
37,853	-15,760	277,860	126,169
38,867	-15,726	277,777	126,152
39,882	-15,794	277,503	125,952
40,896	-15,736	277,228	125,870
41,911	-15,517	276,783	125,865
42,926	-15,621	276,670	125,704
43,940	-15,736	276,445	125,482
44,955	-15,706	276,149	125,364
45,969	-15,636	276,030	125,365
46,984	-15,668	276,111	125,361
47,999	-15,557	275,546	125,197
49,013	-15,629	275,470	125,084
50,028	-15,658	275,254	124,948
51,042	-15,640	274,981	124,829
52,057	-15,649	274,726	124,694
53,071	-15,578	274,589	124,687
54,086	-15,618	274,225	124,473
55,101	-15,496	274,073	124,507
56,115	-15,627	273,800	124,249
57,130	-15,554	273,458	124,152
58,144	-15,815	273,157	123,761
59,159	-15,786	272,994	123,703
60,174	-15,787	272,619	123,521
61,188	-15,695	272,570	123,574
62,203	-15,741	272,351	123,420
63,217	-15,652	272,105	123,381
64,232	-15,613	271,953	123,337
65,247	-15,820	271,615	122,980
66,261	-15,731	271,185	122,857
67,276	-15,673	271,163	122,890
68,290	-15,723	270,958	122,740
69,305	-15,519	270,622	122,765
70,320	-15,733	270,458	122,483
71,334	-15,654	270,362	122,501
72,349	-15,826	269,975	122,156
73,363	-15,623	269,790	122,249
74,378	-15,901	269,550	121,873
75,393	-15,618	269,352	122,032
76,407	-15,561	269,195	122,003
77,422	-15,623	268,912	121,807
78,436	-15,668	268,553	121,592
79,451	-15,698	268,584	121,568
80,466	-15,693	268,338	121,450
81,480	-15,605	267,998	121,366
82,495	-15,671	267,708	121,163
83,509	-15,550	267,591	121,210
84,524	-15,505	267,241	121,082
85,539	-15,485	267,223	121,081
86,553	-15,533	266,961	120,908
87,568	-15,621	266,693	120,696
88,582	-15,701	266,554	120,550
89,597	-15,697	266,416	120,480
90,611	-15,667	266,195	120,396
91,626	-15,630	265,910	120,290
92,641	-15,654	265,647	120,139
93,655	-15,718	265,613	120,055
94,670	-15,592	265,233	119,986
95,684	-15,729	265,255	119,862
96,699	-15,568	264,802	119,791
97,714	-15,641	264,752	119,692
98,728	-15,698	264,610	119,567
99,743	-15,571	264,270	119,517
100,757	-15,474	264,143	119,535
101,772	-15,528	263,929	119,380
102,787	-15,812	263,578	118,956
103,801	-15,647	263,339	118,985
104,816	-15,729	263,308	118,886
105,830	-15,822	263,072	118,686
106,845	-15,799	262,833	118,588
107,860	-15,663	262,546	118,570
108,874	-15,864	262,480	118,350
109,889	-15,720	262,438	118,449
110,903	-15,796	261,960	118,155
111,918	-15,618	261,758	118,211
112,933	-15,678	261,680	118,113
113,947	-15,667	261,381	117,977
114,962	-15,824	261,200	117,745
115,976	-15,612	260,975	117,821
116,991	-15,700	260,738	117,626
118,006	-15,784	260,692	117,520
119,020	-15,785	260,463	117,405
120,035	-15,799	260,408	117,358
121,049	-15,619	260,044	117,343
122,064	-15,750	259,911	117,157
123,079	-15,822	259,658	116,968
124,093	-15,644	259,388	116,994
125,108	-15,582	259,202	116,953
126,122	-15,466	259,194	117,041
127,137	-15,270	258,811	117,030
128,151	-15,666	258,754	116,646
129,166	-15,617	258,598	116,608
130,181	-15,676	258,463	116,485
131,195	-15,676	258,136	116,327
132,210	-15,703	257,949	116,210
133,224	-15,717	257,599	116,029
134,239	-15,623	257,397	116,009
135,254	-15,759	257,173	115,780
136,268	-15,679	257,017	115,769
137,283	-15,622	256,841	115,729
138,297	-15,548	256,842	115,784
139,312	-15,790	256,397	115,362
140,327	-15,561	256,112	115,423
141,341	-15,611	256,131	115,377
142,356	-15,743	255,884	115,141
143,370	-15,837	255,603	114,924
144,385	-15,579	255,392	115,041
145,400	-15,574	255,312	114,999
146,414	-15,530	255,141	114,950
147,429	-15,781	254,954	114,639
148,443	-15,620	254,679	114,644
149,458	-15,626	254,564	114,577
150,473	-15,814	254,372	114,318
151,487	-15,806	254,164	114,221
152,502	-15,649	254,015	114,280
153,516	-15,788	253,885	114,091
154,531	-15,806	253,651	113,960
155,546	-15,718	253,337	113,885
156,560	-15,504	253,143	113,971
157,575	-15,461	252,944	113,908
158,589	-15,858	252,874	113,526
159,604	-15,625	252,564	113,576
160,619	-15,638	252,362	113,464
161,633	-15,649	252,284	113,409
162,648	-15,496	252,016	113,409
163,662	-15,391	251,913	113,442
164,677	-15,577	251,761	113,206
165,692	-15,689	251,600	113,028
166,706	-15,587	251,325	112,981
167,721	-15,631	251,232	112,892
168,735	-15,481	250,907	112,862
169,750	-15,644	250,808	112,670
170,764	-15,628	250,763	112,653
171,779	-15,670	250,610	112,539
172,794	-15,615	250,363	112,464
173,808	-15,659	250,173	112,332
174,823	-15,696	250,138	112,275
175,837	-15,750	249,911	112,117
176,852	-15,634	249,757	112,136
177,867	-15,510	249,475	112,104
178,881	-15,657	249,353	111,916
179,896	-15,670	249,245	111,846
180,910	-15,631	248,917	111,722
181,925	-15,688	248,788	111,606
182,940	-15,655	248,598	111,538
183,954	-15,762	248,423	111,360
184,969	-15,553	248,290	111,465
185,983	-15,741	248,200	111,258
186,998	-15,469	247,957	111,367
188,013	-15,728	247,896	111,113
189,027	-15,724	247,564	110,957
190,042	-15,644	247,414	110,947
191,056	-15,892	247,342	110,698
192,071	-15,869	247,023	110,565
193,086	-15,753	246,692	110,503
194,100	-15,870	246,646	110,375
195,115	-15,675	246,418	110,425
196,129	-15,712	246,235	110,303
197,144	-15,624	245,978	110,251
198,159	-15,891	245,835	109,956
199,173	-15,680	245,652	110,039
200,188	-15,848	245,432	109,791
201,202	-15,769	245,237	109,760
202,217	-15,667	245,195	109,816
203,232	-15,564	244,927	109,770
204,246	-16,074	244,723	109,248
205,261	-16,491	244,208	108,666
206,275	-15,578	244,342	109,468
207,290	-11,157	246,224	113,968
208,304	-4,349	248,408	120,652
209,319	-0,824	249,477	124,109
210,334	0,353	249,675	125,180
211,348	1,172	249,805	125,918
212,363	1,628	249,755	126,262
213,377	2,168	249,802	126,726
214,392	2,485	249,709	126,931
215,407	2,609	249,708	127,023
216,421	2,465	249,623	126,848
217,436	2,570	249,469	126,847
218,450	2,723	249,150	126,800
219,465	2,593	249,040	126,625
220,480	2,355	248,734	126,260
221,494	2,342	248,481	126,109
222,509	1,695	248,263	125,452
223,523	1,627	248,034	125,268
224,538	1,510	247,798	125,041
225,553	1,453	247,622	124,894
226,567	1,281	247,372	124,615
227,582	1,356	247,376	124,668
228,596	1,334	247,195	124,547
229,611	1,409	247,029	124,515
230,626	1,173	246,814	124,200
231,640	1,420	246,670	124,320
232,655	1,348	246,432	124,130
233,669	1,483	246,107	124,065
234,684	1,366	246,076	123,943
235,699	1,251	245,885	123,742
236,713	1,611	245,742	123,954
237,728	1,548	245,638	123,839
238,742	1,416	245,485	123,642
239,757	1,397	245,347	123,546
240,772	1,316	245,278	123,434
241,786	1,464	244,996	123,402
242,801	1,439	244,761	123,253
243,815	1,424	244,724	123,211
244,830	1,409	244,584	123,116
245,844	1,352	244,397	122,965
246,859	1,250	244,165	122,755
247,874	1,515	243,960	122,856
248,888	1,580	243,853	122,844
249,903	1,603	243,631	122,739
250,917	1,480	243,636	122,631
251,932	1,483	243,514	122,561
252,947	1,443	243,343	122,433
253,961	1,387	243,121	122,264
254,976	1,467	242,911	122,212
255,990	1,605	242,833	122,275
257,005	1,472	242,666	122,071
258,020	1,407	242,484	121,917
259,034	1,528	242,314	121,918
260,049	1,733	242,070	121,950
261,063	1,475	242,057	121,724
262,078	1,452	241,914	121,623
263,093	1,462	241,646	121,486
264,107	1,550	241,405	121,424
265,122	1,534	241,357	121,377
266,136	1,529	241,278	121,322
267,151	1,634	240,976	121,243
268,166	1,503	240,890	121,084
269,180	1,115	240,751	120,693
270,195	1,461	240,635	120,901
271,209	1,287	240,528	120,697
272,224	1,375	240,214	120,599
273,239	1,443	240,060	120,565
274,253	1,395	240,036	120,504
275,268	1,523	239,723	120,439
276,282	1,367	239,669	120,276
277,297	1,345	239,561	120,194
278,312	1,475	239,315	120,163
279,326	1,460	239,155	120,060
280,341	1,453	239,119	120,025
281,355	1,465	238,754	119,841
282,370	1,499	238,720	119,840
283,384	1,521	238,614	119,794
284,399	1,539	238,415	119,697
285,414	1,424	238,229	119,503
286,428	1,718	238,020	119,619
287,443	1,511	237,903	119,387
288,457	1,677	237,855	119,483
289,472	1,367	237,694	119,147
290,487	1,419	237,428	119,044
291,501	1,341	237,339	118,927
292,516	1,462	237,199	118,941
293,530	1,658	237,008	118,989
294,545	1,570	236,993	118,902
295,560	1,635	236,666	118,779
296,574	1,564	236,566	118,662
297,589	1,553	236,365	118,542
298,603	1,463	236,313	118,434
299,618	1,456	236,159	118,342
300,633	1,682	236,017	118,437
301,647	1,435	235,993	118,221
302,662	1,650	235,771	118,267
303,676	1,711	235,609	118,223
304,691	1,852	235,382	118,208
305,706	1,594	235,230	117,920
306,720	1,569	235,084	117,817
307,735	1,580	234,987	117,766
308,749	1,590	234,771	117,655
309,764	1,536	234,601	117,518
310,779	1,578	234,457	117,468
311,793	1,586	234,416	117,443
312,808	1,706	234,224	117,429
313,822	1,612	234,059	117,263
314,837	1,640	233,825	117,158
315,852	1,571	233,794	117,078
316,866	1,831	233,558	117,150
317,881	1,831	233,505	117,114
318,895	1,910	233,271	117,046
319,910	1,550	233,243	116,745
320,925	1,636	232,938	116,647
321,939	1,444	232,920	116,480
322,954	1,270	232,801	116,276
323,968	1,613	232,681	116,470
324,983	1,645	232,498	116,393
325,997	1,601	232,254	116,226
327,012	1,704	232,166	116,251
328,027	1,702	231,890	116,101
329,041	1,630	231,800	115,990
330,056	1,593	231,707	115,905
331,070	1,776	231,533	115,948
332,085	1,659	231,356	115,759
333,100	1,636	231,200	115,653
334,114	1,505	231,024	115,454
335,129	1,720	230,824	115,508
336,143	1,612	230,695	115,352
337,158	1,495	230,649	115,229
338,173	1,708	230,432	115,273
339,187	1,685	230,523	115,290
340,202	1,640	230,253	115,111
341,216	1,724	230,077	115,076
342,231	1,468	229,879	114,772
343,246	1,564	229,831	114,811
344,260	1,509	229,699	114,693
345,275	1,752	229,508	114,772
346,289	1,862	229,335	114,758
347,304	1,638	229,362	114,592
348,319	1,695	229,033	114,461
349,333	1,794	228,861	114,439
350,348	1,637	228,731	114,246
351,362	1,722	228,621	114,245
352,377	1,695	228,410	114,109
353,392	1,754	228,302	114,089
354,406	1,747	228,103	113,974
355,421	193,163	1313,797	1383,228
356,435	154,839	1445,966	1383,100
