DTS Sentinel unit serial number:	SN410029Multiplexer serial number:	ORYXHardware model number:	OX2-SRSoftware version number:	ORYX F/W v4,00 Oryx Data Collector v3.7.2.0data status	okinstallation	B5 Nyhavnadifferential loss correction	single-endedforward channel	channel 2reverse channel	N/Adate	2023/12/13time	17:07:13forward acquisition time	300,00reverse acquisition time	0,00gamma	499,1914k internal	0,3160k external	0,3160temperature offset calibration	1,0000default loss term (dB/km)	0,3820temperature slope calibration	1,0000multiplexer offset coefficient	1,0000multiplexer slope coefficient	1,0000fibre end	0,00T internal ref (°C)	14,18T ext. ref 1 (°C)	-3,13T ext. ref 2 (°C)	-3,23length (m)	temperature (°C)	Stokes	anti-Stokes-744,400	-79,954	0,122	-0,030
-743,385	-154,522	-0,267	-0,013
-742,371	-115,976	0,258	0,035
-741,356	-126,172	-0,355	0,039
-740,342	-200,000	0,150	0,000
-739,327	-195,484	-0,259	-0,001
-738,312	-103,722	0,174	0,030
-737,298	-141,852	-0,398	0,029
-736,283	94,767	0,049	0,041
-735,269	33,863	-0,242	-0,155
-734,254	8,886	0,183	0,101
-733,239	25,553	-0,464	-0,284
-732,225	7,448	0,219	0,120
-731,210	-200,000	-0,004	0,076
-730,196	306,433	-0,090	-0,124
-729,181	117,765	-0,114	-0,104
-728,167	-200,000	-0,023	0,116
-727,152	-99,632	-0,039	0,007
-726,137	-200,000	-0,013	0,061
-725,123	430,695	-0,046	0,074
-724,108	714,348	-0,013	0,026
-723,094	-200,000	-0,065	-0,213
-722,079	-200,000	0,011	-0,160
-721,064	258,584	-0,040	0,051
-720,050	-129,736	-0,123	0,012
-719,035	415,578	-0,018	-0,028
-718,021	800,000	0,046	-0,123
-717,006	58,520	-0,094	-0,068
-715,991	85,907	0,126	-0,102
-714,977	800,000	-0,022	-0,054
-713,962	800,000	0,067	-0,138
-712,948	-4,199	0,092	-0,047
-711,933	383,231	-0,024	0,036
-710,918	-47,030	0,084	-0,030
-709,904	800,000	-0,039	-0,103
-708,889	-200,000	0,002	-0,068
-707,875	-132,701	-0,144	-0,013
-706,860	522,683	-0,099	0,172
-705,845	652,402	0,023	-0,043
-704,831	-43,483	-0,054	0,020
-703,816	98,109	0,083	0,070
-702,802	-50,979	-0,028	0,010
-701,787	-24,386	-0,051	-0,022
-700,772	29,412	-0,110	-0,069
-699,758	800,000	0,029	0,068
-698,743	-200,000	-0,027	0,107
-697,729	800,000	-0,021	-0,055
-696,714	-200,000	-0,009	-0,055
-695,699	-15,878	-0,063	-0,029
-694,685	-114,149	-0,133	0,019
-693,670	460,811	-0,114	-0,187
-692,656	-111,271	-0,032	-0,005
-691,641	-200,000	0,022	0,110
-690,627	13,729	0,078	0,045
-689,612	10,034	-0,035	0,020
-688,597	-104,764	0,106	0,018
-687,583	94,977	-0,059	0,049
-686,568	166,309	-0,080	-0,083
-685,554	-200,000	-0,003	-0,048
-684,539	537,550	0,046	-0,081
-683,524	-9,172	-0,042	0,021
-682,510	85,860	-0,143	-0,115
-681,495	-17,625	-0,154	0,071
-680,481	-137,615	-0,012	0,001
-679,466	334,684	-0,136	-0,194
-678,451	-171,515	-0,024	0,001
-677,437	800,000	0,068	0,180
-676,422	185,961	0,047	0,051
-675,408	-200,000	-0,008	-0,038
-674,393	-200,000	-0,033	0,152
-673,378	-194,644	-0,155	-0,001
-672,364	-53,038	-0,056	0,019
-671,349	229,857	-0,008	-0,010
-670,335	-77,090	-0,020	-0,005
-669,320	792,780	-0,015	-0,030
-668,305	-122,412	-0,056	0,007
-667,291	69,972	-0,021	-0,016
-666,276	-136,761	-0,043	0,004
-665,262	339,480	-0,033	0,048
-664,247	-49,400	-0,214	-0,075
-663,232	-0,946	-0,021	0,011
-662,218	-47,892	0,022	0,008
-661,203	-200,000	-0,011	-0,052
-660,189	-112,117	0,054	-0,008
-659,174	-51,985	-0,079	-0,027
-658,159	47,726	-0,036	0,025
-657,145	-200,000	0,016	-0,137
-656,130	-200,000	-0,012	-0,093
-655,116	51,145	0,117	0,081
-654,101	-200,000	-0,008	-0,109
-653,086	-119,186	-0,095	0,012
-652,072	-76,005	-0,060	-0,016
-651,057	-200,000	-0,017	0,185
-650,043	-72,286	-0,055	-0,015
-649,028	-200,000	0,016	-0,073
-648,014	800,000	0,021	-0,048
-646,999	-82,805	0,125	-0,029
-645,984	472,026	-0,045	0,074
-644,970	800,000	0,059	-0,146
-643,955	171,223	0,035	0,037
-642,941	109,298	-0,131	-0,115
-641,926	-64,701	0,066	-0,019
-640,911	88,693	-0,091	0,074
-639,897	-200,000	0,008	0,116
-638,882	554,722	0,035	0,063
-637,868	-200,000	-0,004	0,030
-636,853	-200,000	0,017	-0,161
-635,838	402,054	0,043	-0,066
-634,824	800,000	-0,029	0,087
-633,809	-71,191	-0,021	0,006
-632,795	339,846	0,062	-0,089
-631,780	-200,000	0,016	0,188
-630,765	18,226	-0,108	-0,063
-629,751	-155,625	-0,113	-0,005
-628,736	123,727	-0,120	-0,110
-627,722	-53,109	-0,116	-0,039
-626,707	615,791	-0,013	0,025
-625,692	90,830	-0,057	0,047
-624,678	-200,000	-0,005	0,052
-623,663	-200,000	0,007	-0,085
-622,649	-200,000	-0,012	-0,116
-621,634	-200,000	0,021	-0,106
-620,619	-49,418	-0,051	-0,018
-619,605	-200,000	0,000	0,019
-618,590	-200,000	0,013	0,156
-617,576	63,552	-0,022	-0,016
-616,561	-200,000	0,005	0,045
-615,546	-200,000	0,036	-0,132
-614,532	-200,000	0,042	-0,233
-613,517	-200,000	-0,007	0,035
-612,503	-200,000	-0,015	0,086
-611,488	606,929	0,027	-0,049
-610,474	-200,000	0,013	0,079
-609,459	161,561	-0,058	0,059
-608,444	-75,944	-0,026	-0,007
-607,430	348,475	-0,079	-0,114
-606,415	-53,607	0,033	0,011
-605,401	45,496	0,062	-0,042
-604,386	-200,000	0,022	0,112
-603,371	45,748	0,093	0,063
-602,357	-200,000	-0,022	0,130
-601,342	-200,000	0,001	0,055
-600,328	555,322	-0,035	-0,062
-599,313	348,956	-0,113	-0,164
-598,298	-14,812	-0,054	-0,025
-597,284	182,766	-0,011	0,012
-596,269	-104,883	-0,016	0,003
-595,255	172,221	0,140	0,148
-594,240	263,693	-0,039	-0,049
-593,225	14,712	-0,068	-0,039
-592,211	-200,000	0,023	0,105
-591,196	425,306	-0,027	-0,043
-590,182	263,093	-0,039	-0,050
-589,167	17,211	0,053	0,031
-588,152	423,230	0,041	-0,064
-587,138	531,182	0,035	-0,060
-586,123	-24,627	-0,137	-0,059
-585,109	130,994	0,063	-0,060
-584,094	-17,429	-0,086	0,039
-583,079	233,429	-0,008	-0,010
-582,065	-200,000	-0,005	0,055
-581,050	-74,157	0,095	0,025
-580,036	50,390	0,080	-0,055
-579,021	-68,862	-0,148	0,042
-578,006	324,793	-0,066	-0,092
-576,992	99,123	0,009	-0,007
-575,977	366,581	0,050	0,074
-574,963	-171,734	-0,126	0,003
-573,948	-200,000	0,002	0,033
-572,934	-58,456	-0,156	-0,049
-571,919	379,493	-0,088	-0,132
-570,904	72,534	0,028	-0,022
-569,890	-98,816	0,144	-0,027
-568,875	23,596	0,141	0,085
-567,861	69,005	0,081	0,061
-566,846	-8,550	-0,092	0,045
-565,831	-200,000	0,021	-0,161
-564,817	-136,144	-0,104	0,009
-563,802	800,000	-0,027	0,067
-562,788	22,458	-0,149	0,089
-561,773	294,704	-0,053	0,071
-560,758	-200,000	-0,023	0,175
-559,744	800,000	0,052	0,124
-558,729	113,522	-0,131	0,117
-557,715	800,000	-0,017	-0,046
-556,700	-99,039	-0,107	-0,020
-555,685	133,980	0,056	-0,053
-554,671	-200,000	-0,007	0,065
-553,656	26,105	0,030	0,018
-552,642	-41,185	0,051	-0,019
-551,627	-163,031	0,037	-0,001
-550,612	66,541	-0,038	-0,029
-549,598	144,890	0,085	-0,083
-548,583	442,351	-0,068	-0,109
-547,569	-200,000	0,002	0,000
-546,554	-200,000	-0,004	0,148
-545,539	-200,000	-0,002	0,155
-544,525	-36,440	0,091	-0,036
-543,510	465,108	-0,055	0,091
-542,496	-36,570	-0,103	-0,040
-541,481	759,821	-0,079	-0,156
-540,466	144,891	-0,116	0,114
-539,452	-200,000	0,001	0,174
-538,437	139,164	0,156	0,150
-537,423	800,000	-0,048	-0,110
-536,408	438,335	0,035	-0,056
-535,393	800,000	0,045	0,123
-534,379	-200,000	0,015	0,110
-533,364	3,509	-0,075	0,040
-532,350	177,935	0,109	0,116
-531,335	85,335	-0,017	0,013
-530,321	-200,000	0,015	-0,050
-529,306	-134,839	-0,232	-0,020
-528,291	800,000	-0,070	-0,150
-527,277	-128,834	-0,106	0,011
-526,262	-112,502	0,071	-0,010
-525,248	-196,599	0,022	0,000
-524,233	-111,932	0,037	0,005
-523,218	107,151	0,047	0,041
-522,204	-66,080	-0,003	-0,001
-521,189	-200,000	0,036	-0,170
-520,175	800,000	0,027	-0,068
-519,160	86,067	-0,075	0,060
-518,145	355,390	0,036	-0,052
-517,131	-75,229	0,094	-0,024
-516,116	-130,652	0,146	0,014
-515,102	-200,000	0,014	0,067
-514,087	-129,793	-0,077	-0,008
-513,072	88,620	-0,090	-0,073
-512,058	484,962	-0,032	0,054
-511,043	20,209	0,140	-0,083
-510,029	220,288	0,094	0,111
-509,014	-200,000	0,011	0,054
-507,999	800,000	0,039	0,089
-506,985	800,000	-0,030	0,085
-505,970	305,469	0,089	-0,121
-504,956	800,000	-0,048	-0,108
-503,941	-87,815	0,118	-0,026
-502,926	494,656	0,029	-0,049
-501,912	800,000	-0,031	-0,100
-500,897	-200,000	-0,021	0,136
-499,883	85,732	-0,023	-0,019
-498,868	7,363	-0,042	-0,023
-497,853	-200,000	0,016	-0,093
-496,839	248,503	0,088	0,109
-495,824	-200,000	-0,010	-0,063
-494,810	800,000	0,019	-0,058
-493,795	-50,633	0,095	0,033
-492,781	-159,042	-0,040	-0,002
-491,766	-200,000	0,008	-0,107
-490,751	414,823	0,045	0,070
-489,737	55,854	-0,026	-0,018
-488,722	32,036	-0,064	-0,040
-487,708	123,338	0,115	0,106
-486,693	-119,905	0,019	0,002
-485,678	-20,878	-0,103	0,046
-484,664	-200,000	0,003	-0,073
-483,649	368,747	-0,087	-0,128
-482,635	779,865	0,090	-0,181
-481,620	126,000	-0,048	-0,044
-480,605	-129,410	0,082	-0,008
-479,591	315,275	-0,075	0,103
-478,576	-200,000	-0,001	0,053
-477,562	800,000	-0,007	0,020
-476,547	800,000	0,051	-0,133
-475,532	800,000	-0,033	-0,070
-474,518	-68,604	0,075	0,021
-473,503	38,528	0,096	0,062
-472,489	800,000	0,027	0,071
-471,474	-110,381	-0,092	-0,014
-470,459	-200,000	0,014	-0,138
-469,445	-200,000	0,006	-0,079
-468,430	48,391	0,073	-0,050
-467,416	684,909	-0,044	0,084
-466,401	170,750	0,081	0,084
-465,386	-170,591	-0,094	-0,002
-464,372	-119,309	-0,057	0,007
-463,357	20,354	-0,071	0,042
-462,343	-200,000	-0,003	0,112
-461,328	-16,335	0,156	-0,072
-460,313	800,000	-0,032	-0,082
-459,299	114,002	0,095	0,084
-458,284	-200,000	0,045	0,148
-457,270	-121,018	0,056	-0,007
-456,255	-39,037	-0,086	0,033
-455,241	87,795	-0,013	0,010
-454,226	-200,000	0,022	-0,071
-453,211	37,524	-0,083	-0,053
-452,197	112,213	0,049	-0,043
-451,182	569,553	0,107	-0,191
-450,168	800,000	-0,047	-0,129
-449,153	-58,915	-0,113	-0,035
-448,138	411,519	-0,066	-0,102
-447,124	800,000	-0,017	0,035
-446,109	-118,633	0,110	-0,014
-445,095	477,803	0,013	0,022
-444,080	-93,016	-0,041	-0,008
-443,065	-200,000	-0,008	-0,059
-442,051	-200,000	-0,000	-0,047
-441,036	164,043	-0,119	0,122
-440,022	173,927	0,070	-0,073
-439,007	193,328	0,041	0,045
-437,992	-132,722	0,093	-0,009
-436,978	-200,000	-0,035	0,161
-435,963	-126,156	-0,117	0,013
-434,949	4,467	-0,063	0,033
-433,934	-200,000	0,017	-0,111
-432,919	800,000	0,077	-0,205
-431,905	-113,621	0,086	0,012
-430,890	328,350	0,053	-0,074
-429,876	800,000	0,018	0,038
-428,861	-179,839	-0,095	0,001
-427,846	-200,000	-0,001	0,004
-426,832	250,622	-0,097	-0,120
-425,817	219,980	-0,078	-0,091
-424,803	-86,502	0,116	0,026
-423,788	-200,000	0,006	0,083
-422,773	800,000	0,063	-0,142
-421,759	461,288	0,060	-0,098
-420,744	631,642	-0,041	0,076
-419,730	5,134	0,072	-0,039
-418,715	410,272	-0,105	-0,163
-417,701	-34,738	0,103	-0,041
-416,686	-101,285	-0,010	0,002
-415,671	511,497	0,071	-0,120
-414,657	127,645	0,060	0,056
-413,642	128,912	0,147	0,136
-412,628	-82,116	-0,044	0,010
-411,613	-141,455	-0,167	-0,012
-410,598	346,763	0,078	0,112
-409,584	245,878	-0,025	-0,031
-408,569	800,000	0,070	0,149
-407,555	-200,000	0,001	0,098
-406,540	-200,000	0,004	-0,094
-405,525	-200,000	0,013	0,123
-404,511	800,000	-0,043	0,088
-403,496	-135,339	0,009	-0,001
-402,482	-200,000	-0,039	-0,139
-401,467	80,887	0,096	-0,075
-400,452	-200,000	0,019	0,097
-399,438	-28,800	0,019	-0,008
-398,423	-200,000	-0,023	0,126
-397,409	-200,000	-0,005	0,138
-396,394	-65,025	-0,056	0,016
-395,379	28,363	-0,069	0,042
-394,365	233,058	0,034	-0,041
-393,350	-200,000	-0,016	0,063
-392,336	-162,831	0,104	0,004
-391,321	-58,105	-0,009	-0,003
-390,306	800,000	0,031	-0,085
-389,292	11,205	0,070	-0,039
-388,277	100,775	-0,027	-0,023
-387,263	-200,000	-0,020	-0,074
-386,248	1,221	-0,144	0,075
-385,233	261,273	-0,044	0,056
-384,219	10,501	0,105	-0,058
-383,204	-200,000	-0,007	0,024
-382,190	-200,000	-0,008	0,039
-381,175	-48,528	-0,187	0,065
-380,160	241,442	-0,068	-0,082
-379,146	-89,242	0,145	0,031
-378,131	-90,225	-0,068	-0,014
-377,117	-193,185	-0,035	-0,000
-376,102	24,274	-0,059	0,036
-375,088	-200,000	0,026	-0,110
-374,073	-200,000	-0,010	-0,072
-373,058	-200,000	0,009	0,080
-372,044	330,521	0,059	0,083
-371,029	202,216	0,075	0,084
-370,015	202,824	0,049	-0,055
-369,000	-200,000	0,036	-0,179
-367,985	76,989	-0,031	0,024
-366,971	-76,055	-0,146	-0,037
-365,956	-28,039	0,212	-0,089
-364,942	-200,000	-0,009	0,062
-363,927	796,582	0,044	-0,088
-362,912	67,128	0,084	0,062
-361,898	213,223	-0,050	-0,058
-360,883	800,000	-0,022	0,067
-359,869	-79,873	0,122	-0,030
-358,854	-200,000	0,003	-0,041
-357,839	800,000	0,059	0,132
-356,825	-200,000	-0,027	-0,162
-355,810	442,534	-0,031	0,050
-354,796	-130,492	-0,110	0,011
-353,781	-130,444	0,066	0,006
-352,766	-48,512	-0,161	-0,056
-351,752	-200,000	-0,035	-0,119
-350,737	774,857	0,077	0,152
-349,723	800,000	0,060	0,128
-348,708	252,376	0,096	0,119
-347,693	-42,583	0,104	0,038
-346,679	67,993	-0,131	-0,097
-345,664	-200,000	0,009	0,045
-344,650	224,057	-0,026	-0,031
-343,635	-49,666	0,101	0,035
-342,620	53,497	0,076	0,053
-341,606	800,000	0,070	-0,152
-340,591	-129,744	-0,169	-0,017
-339,577	-200,000	-0,001	-0,007
-338,562	58,820	-0,039	-0,027
-337,548	-122,869	0,167	0,019
-336,533	-102,919	0,072	0,012
-335,518	43,907	-0,034	0,022
-334,504	576,787	0,038	0,068
-333,489	10,263	0,126	-0,069
-332,475	-198,675	-0,084	-0,000
-331,460	-200,000	-0,008	0,076
-330,445	546,303	0,028	-0,049
-329,431	-200,000	-0,004	-0,092
-328,416	-95,277	0,165	0,032
-327,402	259,403	-0,055	0,069
-326,387	-200,000	-0,004	-0,067
-325,372	-200,000	0,004	-0,106
-324,358	-60,990	-0,082	0,025
-323,343	-14,833	0,112	0,052
-322,329	-75,240	0,093	0,024
-321,314	-200,000	-0,012	0,076
-320,299	65,943	0,166	-0,122
-319,285	14,821	0,076	0,043
-318,270	800,000	-0,012	0,026
-317,256	609,255	-0,022	-0,041
-316,241	26,445	0,116	0,070
-315,226	-200,000	-0,010	0,063
-314,212	147,948	-0,072	0,071
-313,197	-29,921	0,094	0,039
-312,183	82,123	0,052	0,041
-311,168	-30,568	0,094	-0,039
-310,153	-53,321	-0,031	-0,010
-309,139	74,408	-0,103	-0,078
-308,124	245,623	-0,074	0,090
-307,110	244,490	-0,017	-0,021
-306,095	800,000	-0,026	0,062
-305,080	-7,327	0,126	-0,061
-304,066	-200,000	-0,002	0,058
-303,051	-200,000	-0,041	-0,222
-302,037	-120,650	-0,037	-0,004
-301,022	800,000	0,064	0,181
-300,008	9,701	0,103	0,057
-298,993	800,000	-0,018	0,046
-297,978	244,878	-0,043	0,053
-296,964	20,392	0,037	0,022
-295,949	-31,396	-0,065	-0,026
-294,935	800,000	0,019	-0,052
-293,920	117,174	0,090	-0,080
-292,905	800,000	0,058	-0,139
-291,891	279,249	-0,086	0,112
-290,876	800,000	0,014	0,034
-289,862	-200,000	0,013	-0,074
-288,847	-200,000	0,004	-0,096
-287,832	42,403	0,083	0,055
-286,818	-200,000	-0,006	0,133
-285,803	-19,474	-0,078	0,035
-284,789	19,657	0,069	0,040
-283,774	-52,197	0,105	-0,035
-282,759	79,283	-0,087	-0,067
-281,745	4,013	-0,122	-0,064
-280,730	-200,000	-0,041	-0,169
-279,716	-200,000	-0,122	0,000
-278,701	-70,819	-0,080	0,022
-277,686	-33,763	0,082	0,033
-276,672	500,691	0,056	0,094
-275,657	-82,319	-0,069	0,016
-274,643	310,935	-0,044	0,060
-273,628	-200,000	-0,005	-0,074
-272,613	-38,136	-0,058	-0,022
-271,599	-200,000	0,017	0,121
-270,584	-200,000	-0,010	0,114
-269,570	-200,000	0,002	-0,102
-268,555	735,137	0,036	-0,070
-267,540	621,614	0,010	-0,019
-266,526	-10,276	0,029	0,014
-265,511	583,235	-0,029	0,051
-264,497	-200,000	-0,011	-0,056
-263,482	800,000	0,029	0,060
-262,467	359,083	0,043	-0,062
-261,453	-200,000	-0,022	0,082
-260,438	-200,000	-0,010	0,049
-259,424	-8,930	-0,120	-0,058
-258,409	-124,028	0,092	0,010
-257,395	800,000	0,060	0,164
-256,380	-200,000	0,027	0,124
-255,365	265,630	0,113	0,142
-254,351	39,230	-0,130	-0,084
-253,336	-62,107	-0,086	0,026
-252,322	-96,055	-0,148	0,028
-251,307	-200,000	0,011	0,056
-250,292	-200,000	-0,005	0,151
-249,278	-200,000	-0,026	0,141
-248,263	-121,361	0,094	0,011
-247,249	-200,000	-0,002	0,056
-246,234	296,501	-0,063	0,084
-245,219	800,000	0,037	-0,080
-244,205	437,549	-0,037	-0,058
-243,190	-171,350	0,041	-0,001
-242,176	-200,000	-0,005	0,089
-241,161	335,486	0,105	0,147
-240,146	-62,192	-0,041	0,012
-239,132	795,206	-0,085	-0,171
-238,117	-112,723	0,129	0,018
-237,103	-122,769	-0,109	-0,013
-236,088	800,000	-0,046	-0,103
-235,073	38,838	-0,066	-0,042
-234,059	21,515	0,028	0,017
-233,044	180,123	0,056	-0,059
-232,030	800,000	-0,070	-0,163
-231,015	-92,306	-0,029	-0,006
-230,000	49,082	0,068	-0,046
-228,986	254,555	-0,083	0,103
-227,971	528,016	-0,028	0,048
-226,957	225,827	0,069	0,081
-225,942	152,848	-0,051	0,051
-224,927	94,815	-0,089	-0,073
-223,913	188,730	-0,090	-0,098
-222,898	800,000	-0,051	-0,142
-221,884	72,876	0,084	-0,063
-220,869	108,576	0,049	-0,043
-219,855	27,131	-0,105	0,064
-218,840	70,064	-0,083	-0,062
-217,825	430,641	-0,049	0,077
-216,811	-90,351	0,109	0,023
-215,796	-63,742	-0,087	-0,026
-214,782	207,508	-0,011	-0,013
-213,767	123,959	0,124	-0,112
-212,752	67,991	-0,066	-0,049
-211,738	-18,304	0,023	0,011
-210,723	476,757	-0,128	0,209
-209,709	-113,070	0,023	0,003
-208,694	15,969	-0,106	-0,060
-207,679	257,712	0,029	-0,036
-206,665	349,515	0,088	0,125
-205,650	-36,155	0,022	-0,008
-204,636	89,976	0,089	0,072
-203,621	588,579	-0,019	0,033
-202,606	563,423	0,051	-0,090
-201,592	48,317	-0,076	0,051
-200,577	149,120	-0,106	0,103
-199,563	-120,608	-0,065	-0,008
-198,548	449,569	0,013	0,020
-197,533	800,000	-0,044	0,120
-196,519	800,000	0,037	-0,100
-195,504	-157,569	0,123	0,005
-194,490	-31,219	0,092	-0,037
-193,475	399,877	-0,041	-0,062
-192,460	800,000	-0,068	0,183
-191,446	-200,000	-0,014	0,057
-190,431	-27,509	0,080	0,033
-189,417	-200,000	-0,018	-0,084
-188,402	-24,621	0,062	0,026
-187,387	308,193	-0,118	-0,159
-186,373	-122,205	-0,074	0,009
-185,358	681,863	0,039	0,074
-184,344	-200,000	0,023	0,098
-183,329	-200,000	-0,052	0,178
-182,315	-9,496	0,068	0,033
-181,300	609,239	-0,045	-0,082
-180,285	-125,576	-0,084	0,009
-179,271	-80,951	-0,093	-0,022
-178,256	-200,000	-0,053	-0,194
-177,242	224,780	0,023	-0,027
-176,227	-200,000	0,019	-0,174
-175,212	212,303	0,040	-0,045
-174,198	800,000	0,023	-0,063
-173,183	-165,437	-0,068	-0,002
-172,169	-88,483	-0,053	-0,011
-171,154	-44,262	-0,067	0,024
-170,139	800,000	0,038	0,118
-169,125	600,422	0,029	0,052
-168,110	140,991	-0,023	0,022
-167,096	-198,840	0,208	0,001
-166,081	494,241	-0,037	-0,061
-165,066	-77,733	-0,125	-0,031
-164,052	298,714	0,116	-0,154
-163,037	-126,490	0,049	0,005
-162,023	43,360	0,138	0,090
-161,008	359,000	-0,074	0,107
-159,993	372,862	-0,062	-0,091
-158,979	-105,334	-0,020	0,003
-157,964	800,000	0,045	-0,141
-156,950	112,269	-0,078	-0,068
-155,935	39,889	-0,020	0,013
-154,920	113,760	0,075	0,066
-153,906	214,893	0,096	0,110
-152,891	800,000	-0,031	0,098
-151,877	429,561	0,044	-0,069
-150,862	147,938	0,088	-0,085
-149,847	-83,128	0,092	-0,021
-148,833	464,161	-0,046	0,074
-147,818	800,000	-0,043	-0,100
-146,804	345,409	0,044	0,062
-145,789	-164,267	0,043	-0,001
-144,775	737,447	0,043	-0,082
-143,760	607,915	0,024	0,043
-142,745	-200,000	0,006	-0,157
-141,731	-200,000	-0,035	0,169
-140,716	800,000	0,053	0,107
-139,702	497,251	0,085	0,141
-138,687	-62,746	0,128	0,038
-137,672	77,428	0,066	0,050
-136,658	-59,709	0,096	0,029
-135,643	-85,150	0,015	0,003
-134,629	100,801	0,057	0,048
-133,614	-59,844	0,093	-0,029
-132,599	-200,000	-0,000	0,201
-131,585	-148,191	-0,039	-0,002
-130,570	-200,000	-0,012	0,061
-129,556	-102,552	-0,117	-0,020
-128,541	6,261	0,098	-0,052
-127,526	-27,424	-0,093	0,039
-126,512	276,160	0,050	0,065
-125,497	451,848	-0,075	-0,119
-124,483	113,507	-0,011	0,010
-123,468	-200,000	-0,014	-0,087
-122,453	-200,000	-0,014	-0,101
-121,439	66,300	-0,073	-0,054
-120,424	800,000	0,077	-0,184
-119,410	649,250	0,048	0,090
-118,395	327,870	-0,078	0,108
-117,380	-14,335	0,007	-0,003
-116,366	-39,247	-0,081	-0,031
-115,351	-200,000	-0,006	-0,041
-114,337	339,611	-0,119	-0,167
-113,322	94,826	-0,005	0,004
-112,307	348,934	-0,004	0,006
-111,293	399,277	-0,022	0,033
-110,278	682,410	0,061	0,114
-109,264	-58,555	0,140	-0,043
-108,249	800,000	-0,014	-0,041
-107,234	-200,000	-0,006	-0,144
-106,220	-79,588	-0,084	-0,020
-105,205	-74,110	0,026	-0,007
-104,191	-200,000	-0,001	-0,052
-103,176	601,828	-0,027	0,048
-102,162	134,665	0,073	0,068
-101,147	-25,021	0,035	0,015
-100,132	32,002	-0,035	-0,022
-99,118	4,077	0,036	-0,019
-98,103	-3,235	-0,061	-0,030
-97,089	800,000	0,032	0,090
-96,074	-134,571	-0,139	0,012
-95,059	95,697	0,086	0,070
-94,045	171,974	-0,095	-0,098
-93,030	800,000	0,041	0,090
-92,016	-200,000	0,027	-0,198
-91,001	-200,000	-0,002	-0,057
-89,986	-102,658	-0,056	-0,009
-88,972	-200,000	-0,016	-0,085
-87,957	-200,000	0,012	0,237
-86,943	663,373	0,022	0,041
-85,928	-200,000	-0,028	-0,117
-84,913	800,000	0,072	-0,145
-83,899	-170,397	0,112	-0,003
-82,884	8,223	-0,046	0,025
-81,870	-108,529	0,078	-0,012
-80,855	379,988	-0,072	0,106
-79,840	-200,000	0,022	-0,070
-78,826	433,428	-0,045	0,070
-77,811	-174,145	0,065	0,001
-76,797	417,373	-0,058	0,090
-75,782	70,177	-0,066	0,049
-74,767	-200,000	0,005	0,045
-73,753	689,195	0,054	-0,102
-72,738	-22,872	0,060	0,026
-71,724	-119,272	-0,053	-0,007
-70,709	-200,000	0,009	-0,034
-69,694	-200,000	0,002	-0,019
-68,680	-200,000	0,007	-0,075
-67,665	-200,000	0,055	-0,177
-66,651	36,715	0,038	-0,024
-65,636	22,661	-0,094	0,055
-64,622	125,355	0,091	0,083
-63,607	-58,586	-0,035	-0,011
-62,592	800,000	-0,042	-0,089
-61,578	-83,915	0,050	-0,011
-60,563	-200,000	-0,016	0,093
-59,549	-60,574	-0,193	0,058
-58,534	-3,356	-2,060	-1,025
-57,519	-200,000	-0,199	-0,682
-56,505	-200,000	-1,235	-5,077
-55,490	171,891	0,792	0,817
-54,476	800,000	5,276	11,994
-53,461	-200,000	18,460	307,467
-52,446	800,000	738,729	2301,187
-51,432	550,568	1655,219	2859,119
-50,417	110,253	1639,849	1412,221
-49,403	74,655	1289,660	972,036
-48,388	30,642	1030,804	631,045
-47,373	20,041	993,045	572,838
-46,359	17,804	980,453	558,198
-45,344	14,521	976,831	545,329
-44,330	14,889	975,212	545,615
-43,315	14,228	973,367	542,393
-42,300	14,232	972,090	541,673
-41,286	14,153	971,318	540,964
-40,271	14,183	970,421	540,539
-39,257	14,203	969,300	539,959
-38,242	14,188	968,611	539,505
-37,227	14,231	967,653	539,089
-36,213	14,247	966,710	538,594
-35,198	14,142	966,110	537,897
-34,184	14,243	965,082	537,634
-33,169	14,127	964,294	536,797
-32,154	14,292	962,935	536,554
-31,140	14,225	962,308	535,965
-30,125	14,264	961,668	535,714
-29,111	14,229	960,748	535,067
-28,096	14,267	960,228	534,879
-27,082	14,169	959,597	534,189
-26,067	14,260	958,760	533,997
-25,052	14,212	957,903	533,343
-24,038	14,197	957,282	532,929
-23,023	14,174	956,789	532,559
-22,009	14,235	956,084	532,341
-20,994	14,175	955,517	531,809
-19,979	14,229	954,683	531,501
-18,965	14,182	954,065	530,983
-17,950	14,260	953,526	530,912
-16,936	14,138	953,098	530,262
-15,921	14,181	952,146	529,848
-14,906	14,136	951,423	529,281
-13,892	14,196	950,768	529,087
-12,877	14,052	950,276	528,333
-11,863	14,099	949,568	528,069
-10,848	14,128	949,081	527,870
-9,833	14,217	948,485	527,800
-8,819	14,164	947,791	527,224
-7,804	14,120	947,369	526,829
-6,790	14,095	946,823	526,425
-5,775	14,140	946,137	526,165
-4,760	14,147	945,324	525,714
-3,746	14,156	944,878	525,474
-2,731	13,995	944,241	524,589
-1,717	13,970	943,520	524,088
-0,702	13,974	942,820	523,690
0,313	13,716	942,374	523,414
1,327	17,000	939,732	532,281
2,342	25,713	794,739	473,268
3,356	21,469	459,694	267,216
4,371	-5,790	316,718	154,882
5,386	-10,078	298,795	141,725
6,400	-12,221	292,548	136,605
7,415	-12,331	290,270	135,419
8,429	-12,246	288,777	134,795
9,444	-12,193	288,087	134,513
10,459	-12,020	287,342	134,323
11,473	-11,995	286,811	134,087
12,488	-12,269	286,068	133,460
13,502	-12,269	285,655	133,256
14,517	-12,050	285,356	133,318
15,531	-11,827	285,089	133,399
16,546	-11,548	284,593	133,427
17,561	-11,530	284,256	133,274
18,575	-11,578	284,071	133,129
19,590	-11,383	283,601	133,086
20,604	-11,338	283,424	133,035
21,619	-11,366	282,865	132,733
22,634	-11,539	282,511	132,388
23,648	-11,468	282,247	132,320
24,663	-11,522	281,977	132,131
25,677	-11,584	281,774	131,964
26,692	-11,411	281,507	131,994
27,707	-11,383	281,233	131,880
28,721	-11,379	280,840	131,688
29,736	-11,500	280,623	131,458
30,750	-11,375	280,311	131,421
31,765	-11,561	280,251	131,202
32,780	-11,297	279,826	131,245
33,794	-11,491	279,787	131,029
34,809	-11,536	279,388	130,787
35,823	-11,546	278,968	130,570
36,838	-11,588	279,025	130,545
37,853	-11,709	278,705	130,269
38,867	-11,532	278,418	130,291
39,882	-11,605	278,261	130,137
40,896	-11,532	277,872	130,011
41,911	-11,317	277,524	130,041
42,926	-11,456	277,420	129,849
43,940	-11,416	276,964	129,662
44,955	-11,597	277,030	129,510
45,969	-11,514	276,698	129,422
46,984	-11,559	276,412	129,234
47,999	-11,845	276,123	128,819
49,013	-11,627	275,987	128,948
50,028	-11,804	275,651	128,614
51,042	-11,645	275,423	128,645
52,057	-12,065	275,208	128,139
53,071	-11,855	274,901	128,182
54,086	-11,905	274,745	128,050
55,101	-11,696	274,427	128,087
56,115	-11,853	274,456	127,941
57,130	-11,685	274,270	128,000
58,144	-11,598	273,982	127,936
59,159	-11,466	273,719	127,925
60,174	-11,527	273,421	127,717
61,188	-11,314	273,146	127,775
62,203	-11,500	273,077	127,559
63,217	-11,484	272,901	127,480
64,232	-11,500	272,534	127,283
65,247	-11,509	272,349	127,176
66,261	-11,510	271,988	126,995
67,276	-11,481	271,833	126,938
68,290	-11,616	271,525	126,659
69,305	-11,918	271,277	126,253
70,320	-11,813	271,187	126,296
71,334	-11,674	271,012	126,332
72,349	-11,522	270,574	126,257
73,363	-11,706	270,692	126,131
74,378	-11,738	270,424	125,965
75,393	-11,511	270,155	126,038
76,407	-11,538	269,888	125,877
77,422	-11,416	269,593	125,840
78,436	-11,703	269,343	125,450
79,451	-11,764	269,116	125,276
80,466	-11,539	268,950	125,393
81,480	-11,524	268,695	125,278
82,495	-11,649	268,556	125,087
83,509	-11,766	268,355	124,875
84,524	-11,717	268,182	124,829
85,539	-11,584	267,825	124,773
86,553	-11,681	267,666	124,599
87,568	-11,780	267,539	124,439
88,582	-11,578	267,164	124,436
89,597	-11,621	267,130	124,371
90,611	-11,838	266,898	124,055
91,626	-11,578	266,705	124,190
92,641	-11,594	266,438	124,040
93,655	-11,341	266,307	124,197
94,670	-11,703	266,077	123,751
95,684	-11,646	265,923	123,720
96,699	-11,916	265,688	123,356
97,714	-11,530	265,406	123,562
98,728	-11,586	265,263	123,434
99,743	-11,805	265,052	123,128
100,757	-11,802	264,734	122,971
101,772	-11,629	264,585	123,047
102,787	-11,848	264,483	122,792
103,801	-11,593	264,257	122,904
104,816	-11,813	264,113	122,629
105,830	-11,499	263,797	122,754
106,845	-11,745	263,678	122,467
107,860	-11,724	263,553	122,416
108,874	-11,656	263,114	122,262
109,889	-12,056	263,010	121,846
110,903	-11,704	262,636	121,975
111,918	-11,912	262,568	121,748
112,933	-11,792	262,314	121,726
113,947	-11,779	262,265	121,704
114,962	-11,733	262,014	121,617
115,976	-11,633	261,766	121,580
116,991	-11,828	261,864	121,442
118,006	-11,618	261,403	121,403
119,020	-11,771	261,458	121,282
120,035	-11,637	261,166	121,255
121,049	-11,755	261,113	121,116
122,064	-11,550	260,671	121,080
123,079	-11,559	260,426	120,948
124,093	-11,729	260,415	120,782
125,108	-11,690	260,075	120,648
126,122	-11,712	259,927	120,549
127,137	-11,905	259,842	120,329
128,151	-11,669	259,635	120,430
129,166	-11,923	259,425	120,098
130,181	-11,829	259,099	120,019
131,195	-11,921	258,906	119,839
132,210	-11,720	258,643	119,882
133,224	-11,859	258,545	119,704
134,239	-11,889	258,398	119,599
135,254	-11,910	258,095	119,430
136,268	-11,853	257,915	119,386
137,283	-11,912	257,791	119,267
138,297	-11,942	257,602	119,142
139,312	-11,759	257,284	119,144
140,327	-11,684	257,074	119,101
141,341	-11,498	257,141	119,283
142,356	-11,786	256,749	118,841
143,370	-11,846	256,755	118,780
144,385	-11,601	256,563	118,894
145,400	-11,271	256,249	119,024
146,414	-11,521	256,228	118,787
147,429	-11,693	256,017	118,530
148,443	-11,589	255,753	118,487
149,458	-11,454	255,545	118,496
150,473	-11,578	255,372	118,298
151,487	-11,548	254,926	118,108
152,502	-11,537	254,946	118,115
153,516	-11,366	254,833	118,199
154,531	-11,479	254,621	117,994
155,546	-11,561	254,358	117,791
156,560	-11,627	254,256	117,677
157,575	-11,659	253,794	117,425
158,589	-11,716	253,775	117,357
159,604	-11,583	253,747	117,447
160,619	-11,406	253,688	117,561
161,633	-11,381	253,481	117,476
162,648	-11,165	253,274	117,554
163,662	-11,485	253,102	117,191
164,677	-11,526	252,674	116,947
165,692	-11,786	252,730	116,740
166,706	-11,437	252,628	116,981
167,721	-11,540	252,459	116,805
168,735	-11,539	252,262	116,703
169,750	-11,620	252,110	116,554
170,764	-11,604	251,896	116,458
171,779	-11,578	251,584	116,326
172,794	-11,395	251,456	116,412
173,808	-11,555	251,202	116,148
174,823	-11,688	251,014	115,938
175,837	-11,845	250,875	115,731
176,852	-11,732	250,615	115,696
177,867	-11,596	250,552	115,772
178,881	-11,584	250,463	115,730
179,896	-11,612	250,211	115,580
180,910	-11,382	250,034	115,681
181,925	-11,590	249,942	115,453
182,940	-11,481	249,700	115,423
183,954	-11,506	249,597	115,344
184,969	-11,246	249,412	115,466
185,983	-11,411	249,309	115,270
186,998	-11,158	249,148	115,398
188,013	-11,343	248,976	115,153
189,027	-11,473	248,684	114,899
190,042	-11,530	248,413	114,716
191,056	-11,791	248,282	114,426
192,071	-11,732	248,094	114,379
193,086	-11,941	247,852	114,082
194,100	-11,960	247,760	114,014
195,115	-11,582	247,625	114,257
196,129	-11,408	247,453	114,313
197,144	-11,689	247,237	113,969
198,159	-11,884	247,108	113,737
199,173	-11,619	246,680	113,749
200,188	-11,924	246,517	113,412
201,202	-12,151	246,256	113,093
202,217	-11,929	246,003	113,150
203,232	-12,152	245,927	112,921
204,246	-12,330	245,621	112,623
205,261	-13,306	245,066	111,554
206,275	-13,813	244,837	111,022
207,290	-9,764	246,573	115,157
208,304	-1,756	249,131	123,033
209,319	2,472	250,384	127,179
210,334	3,500	250,515	128,093
211,348	3,977	250,344	128,393
212,363	3,894	250,330	128,305
213,377	4,148	250,387	128,534
214,392	4,264	250,344	128,597
215,407	4,437	249,978	128,542
216,421	4,510	249,664	128,430
217,436	4,419	249,615	128,318
218,450	4,549	249,455	128,332
219,465	4,391	249,298	128,109
220,480	4,171	249,097	127,811
221,494	4,029	248,992	127,628
222,509	3,820	248,710	127,299
223,523	3,893	248,536	127,259
224,538	3,307	248,278	126,631
225,553	3,346	247,878	126,448
226,567	3,156	247,790	126,235
227,582	3,249	247,685	126,248
228,596	3,333	247,581	126,252
229,611	3,188	247,165	125,909
230,626	3,152	247,056	125,813
231,640	3,081	246,992	125,711
232,655	3,281	246,785	125,758
233,669	3,215	246,604	125,601
234,684	3,164	246,351	125,419
235,699	3,137	246,476	125,449
236,713	3,224	246,292	125,416
237,728	3,434	246,185	125,522
238,742	3,381	245,942	125,344
239,757	3,101	245,708	124,984
240,772	3,107	245,647	124,948
241,786	3,303	245,271	124,905
242,801	3,110	245,114	124,656
243,815	3,184	245,079	124,688
244,830	3,150	244,949	124,583
245,844	3,225	244,784	124,549
246,859	3,383	244,457	124,500
247,874	3,241	244,333	124,310
248,888	3,338	244,093	124,256
249,903	3,407	244,173	124,341
250,917	3,500	244,085	124,361
251,932	3,625	243,931	124,373
252,947	3,468	243,685	124,109
253,961	3,410	243,545	123,980
254,976	3,321	243,346	123,795
255,990	3,490	243,188	123,841
257,005	3,340	243,058	123,642
258,020	3,392	242,888	123,586
259,034	3,494	242,617	123,520
260,049	3,171	242,660	123,270
261,063	3,040	242,340	122,992
262,078	3,255	242,262	123,114
263,093	3,418	241,998	123,100
264,107	3,480	241,937	123,107
265,122	3,232	241,663	122,758
266,136	3,345	241,658	122,835
267,151	3,390	241,398	122,728
268,166	3,373	241,173	122,589
269,180	3,355	240,967	122,459
270,195	3,329	240,940	122,414
271,209	3,532	240,695	122,440
272,224	3,298	240,751	122,271
273,239	3,158	240,504	122,023
274,253	3,313	240,218	121,990
275,268	3,281	240,036	121,862
276,282	3,203	239,933	121,737
277,297	3,034	239,869	121,559
278,312	3,244	239,780	121,670
279,326	3,391	239,672	121,721
280,341	3,356	239,433	121,561
281,355	3,354	239,346	121,504
282,370	3,462	239,210	121,510
283,384	3,342	238,972	121,283
284,399	3,306	238,683	121,098
285,414	3,418	238,559	121,112
286,428	3,332	238,591	121,050
287,443	3,171	238,476	120,853
288,457	3,270	238,123	120,741
289,472	3,210	238,038	120,641
290,487	3,331	237,775	120,592
291,501	3,136	237,677	120,378
292,516	3,302	237,534	120,425
293,530	3,237	237,362	120,277
294,545	3,261	237,315	120,261
295,560	3,163	237,253	120,141
296,574	3,146	237,000	119,990
297,589	3,196	236,824	119,928
298,603	3,414	236,671	120,011
299,618	3,228	236,534	119,786
300,633	3,360	236,514	119,868
301,647	3,374	236,425	119,823
302,662	3,535	236,135	119,791
303,676	3,471	236,096	119,711
304,691	3,521	235,847	119,613
305,706	3,339	235,677	119,374
306,720	3,481	235,522	119,395
307,735	3,369	235,458	119,265
308,749	3,296	235,238	119,087
309,764	3,393	235,017	119,040
310,779	3,077	234,815	118,681
311,793	2,932	234,642	118,471
312,808	3,174	234,418	118,534
313,822	3,435	234,422	118,728
314,837	3,576	234,350	118,791
315,852	3,491	234,219	118,648
316,866	3,300	234,058	118,407
317,881	3,409	233,966	118,435
318,895	3,426	233,785	118,346
319,910	3,538	233,471	118,263
320,925	3,277	233,514	118,072
321,939	3,230	233,221	117,878
322,954	3,219	233,075	117,784
323,968	3,138	232,936	117,642
324,983	3,267	232,789	117,656
325,997	3,426	232,700	117,723
327,012	3,471	232,521	117,656
328,027	3,324	232,380	117,461
329,041	3,339	232,271	117,407
330,056	3,322	232,141	117,319
331,070	3,595	231,909	117,399
332,085	3,622	231,754	117,331
333,100	3,346	231,594	117,029
334,114	3,451	231,341	116,971
335,129	3,223	231,409	116,821
336,143	3,418	231,141	116,824
337,158	3,508	231,092	116,858
338,173	3,458	230,871	116,697
339,187	3,467	230,785	116,650
340,202	3,304	230,730	116,488
341,216	3,436	230,256	116,338
342,231	3,226	230,276	116,178
343,246	3,330	230,219	116,218
344,260	3,319	230,187	116,184
345,275	3,452	229,973	116,166
346,289	3,395	229,848	116,049
347,304	3,382	229,539	115,873
348,319	3,508	229,381	115,878
349,333	3,539	229,163	115,781
350,348	3,353	228,965	115,531
351,362	3,297	228,918	115,454
352,377	3,262	228,785	115,350
353,392	3,132	228,693	115,196
354,406	3,122	228,426	115,044
355,421	194,217	1320,138	1391,714
356,435	155,705	1453,119	1391,674
