DTS Sentinel unit serial number:	SN410029Multiplexer serial number:	ORYXHardware model number:	OX2-SRSoftware version number:	ORYX F/W v4,00 Oryx Data Collector v3.7.2.0data status	okinstallation	B5 Nyhavnadifferential loss correction	single-endedforward channel	channel 2reverse channel	N/Adate	2023/12/13time	07:17:13forward acquisition time	300,00reverse acquisition time	0,00gamma	499,1914k internal	0,3160k external	0,3160temperature offset calibration	1,0000default loss term (dB/km)	0,3820temperature slope calibration	1,0000multiplexer offset coefficient	1,0000multiplexer slope coefficient	1,0000fibre end	0,00T internal ref (°C)	13,69T ext. ref 1 (°C)	-2,75T ext. ref 2 (°C)	-3,05length (m)	temperature (°C)	Stokes	anti-Stokes-744,400	160,124	0,059	-0,060
-743,385	-112,016	-0,248	0,036
-742,371	-22,469	0,108	0,048
-741,356	-132,004	-0,207	0,020
-740,342	499,329	0,046	0,079
-739,327	17,280	-0,312	0,182
-738,312	-124,150	0,103	0,012
-737,298	-36,960	-0,416	0,163
-736,283	41,181	0,075	0,050
-735,269	-75,705	-0,342	-0,089
-734,254	-200,000	0,049	0,203
-733,239	-6,389	-0,490	-0,246
-732,225	-108,837	0,088	-0,014
-731,210	-60,981	-0,058	-0,018
-730,196	-55,577	-0,012	0,004
-729,181	148,740	-0,086	-0,086
-728,167	91,896	-0,063	-0,052
-727,152	87,072	-0,051	-0,042
-726,137	448,396	-0,059	-0,096
-725,123	289,307	-0,040	-0,054
-724,108	-200,000	0,003	-0,052
-723,094	304,104	-0,034	-0,046
-722,079	348,100	-0,071	-0,103
-721,064	800,000	0,018	-0,039
-720,050	23,763	0,087	-0,053
-719,035	86,148	0,009	-0,007
-718,021	-93,137	-0,065	-0,013
-717,006	106,055	-0,129	-0,113
-715,991	285,754	-0,061	-0,081
-714,977	142,495	-0,029	0,028
-713,962	-178,080	-0,093	0,002
-712,948	-133,676	0,038	0,003
-711,933	-200,000	-0,026	-0,170
-710,918	800,000	0,018	0,049
-709,904	-130,291	-0,118	0,012
-708,889	169,861	-0,110	-0,116
-707,875	775,763	-0,028	-0,056
-706,860	365,243	-0,028	-0,042
-705,845	151,184	0,070	-0,070
-704,831	-64,533	0,067	-0,020
-703,816	38,420	0,022	0,014
-702,802	-128,347	-0,122	0,013
-701,787	-55,177	0,057	-0,019
-700,772	-88,346	0,048	-0,011
-699,758	800,000	-0,017	-0,053
-698,743	92,588	0,093	0,077
-697,729	800,000	-0,050	-0,130
-696,714	-29,511	-0,048	-0,020
-695,699	-83,309	0,127	-0,030
-694,685	516,687	-0,027	-0,046
-693,670	-73,412	-0,153	-0,041
-692,656	-32,598	0,133	0,054
-691,641	-200,000	0,002	-0,039
-690,627	110,350	0,076	0,067
-689,612	557,593	-0,037	0,066
-688,597	35,796	0,030	0,019
-687,583	-200,000	0,026	-0,125
-686,568	-200,000	0,006	-0,066
-685,554	485,442	0,066	-0,110
-684,539	512,729	-0,085	-0,147
-683,524	543,732	-0,130	-0,229
-682,510	-200,000	-0,010	-0,114
-681,495	-68,749	-0,085	0,024
-680,481	87,543	-0,090	-0,073
-679,466	-200,000	0,011	-0,121
-678,451	-200,000	0,004	0,027
-677,437	-200,000	0,013	-0,097
-676,422	-200,000	-0,000	-0,020
-675,408	-143,215	-0,041	-0,003
-674,393	76,293	-0,137	-0,106
-673,378	-200,000	-0,032	-0,159
-672,364	30,972	-0,096	0,060
-671,349	33,914	-0,125	-0,080
-670,335	197,017	0,094	0,106
-669,320	19,207	0,052	0,031
-668,305	216,535	0,040	0,047
-667,291	168,918	0,034	0,036
-666,276	107,000	-0,092	-0,080
-665,262	-200,000	-0,028	-0,095
-664,247	139,613	-0,095	-0,092
-663,232	320,914	0,084	0,118
-662,218	-161,555	0,130	0,005
-661,203	477,500	0,065	0,108
-660,189	800,000	-0,054	-0,118
-659,174	800,000	0,048	-0,127
-658,159	594,168	0,019	0,035
-657,145	148,352	0,079	-0,078
-656,130	-76,398	-0,080	0,021
-655,116	-200,000	0,005	0,064
-654,101	205,170	-0,027	0,031
-653,086	397,198	-0,104	-0,161
-652,072	-182,671	0,030	0,000
-651,057	-147,700	-0,147	-0,009
-650,043	-200,000	0,004	0,065
-649,028	-13,225	0,018	-0,009
-648,014	-200,000	-0,045	0,148
-646,999	800,000	0,004	-0,012
-645,984	-74,987	-0,111	0,029
-644,970	-200,000	0,004	-0,065
-643,955	-36,257	-0,088	-0,035
-642,941	188,136	0,049	-0,053
-641,926	144,579	-0,039	0,038
-640,911	377,472	-0,029	-0,044
-639,897	-179,678	0,019	0,000
-638,882	183,606	-0,074	0,080
-637,868	-30,479	-0,110	0,046
-636,853	-14,574	-0,032	-0,015
-635,838	-60,047	-0,110	-0,034
-634,824	-78,613	-0,106	0,026
-633,809	-187,760	0,054	0,001
-632,795	800,000	-0,046	0,106
-631,780	-17,557	-0,188	0,086
-630,765	-137,061	-0,084	0,007
-629,751	656,240	-0,068	-0,130
-628,736	-66,591	-0,148	-0,043
-627,722	388,189	-0,050	-0,076
-626,707	502,949	0,074	0,126
-625,692	-200,000	-0,014	0,165
-624,678	-200,000	-0,006	-0,083
-623,663	800,000	0,041	-0,093
-622,649	-65,662	-0,171	-0,050
-621,634	-2,808	0,039	0,020
-620,619	-74,133	-0,111	0,029
-619,605	96,206	0,023	0,019
-618,590	-3,836	-0,127	-0,064
-617,576	800,000	0,041	0,085
-616,561	287,438	-0,024	-0,032
-615,546	-200,000	0,001	-0,078
-614,532	147,855	0,045	0,044
-613,517	-200,000	0,002	-0,160
-612,503	-134,465	0,062	0,005
-611,488	-200,000	0,026	-0,114
-610,474	-25,906	-0,067	0,029
-609,459	-200,000	0,021	-0,092
-608,444	800,000	-0,070	-0,159
-607,430	52,828	-0,042	-0,030
-606,415	-154,465	-0,172	0,008
-605,401	386,830	0,053	-0,081
-604,386	549,802	0,033	-0,057
-603,371	-81,695	0,070	0,017
-602,357	642,191	-0,051	0,096
-601,342	56,060	0,035	0,025
-600,328	-200,000	0,018	-0,117
-599,313	-55,021	0,126	0,041
-598,298	-145,202	0,105	-0,007
-597,284	12,427	-0,081	-0,046
-596,269	-77,267	0,103	0,026
-595,255	-58,245	0,071	-0,023
-594,240	20,086	-0,046	0,027
-593,225	-200,000	0,039	-0,139
-592,211	-119,999	-0,099	0,012
-591,196	-22,802	0,091	0,040
-590,182	-17,579	-0,075	0,034
-589,167	120,303	-0,027	0,025
-588,152	-200,000	0,028	0,129
-587,138	-52,718	-0,048	-0,016
-586,123	751,695	0,022	0,045
-585,109	24,865	0,078	0,047
-584,094	-51,116	0,022	-0,007
-583,079	696,840	-0,011	-0,021
-582,065	-70,595	0,116	-0,032
-581,050	-200,000	0,002	-0,014
-580,036	-200,000	0,014	0,046
-579,021	19,752	-0,087	-0,051
-578,006	255,764	-0,061	0,076
-576,992	50,750	-0,045	-0,031
-575,977	-43,892	0,100	-0,037
-574,963	-200,000	-0,025	0,178
-573,948	-0,383	-0,051	0,027
-572,934	550,825	0,020	0,035
-571,919	-14,128	-0,029	-0,014
-570,904	800,000	-0,072	-0,182
-569,890	28,211	-0,094	-0,058
-568,875	-200,000	0,011	0,055
-567,861	-200,000	-0,049	-0,167
-566,846	-185,165	-0,065	0,001
-565,831	-33,596	-0,058	0,023
-564,817	-18,687	0,087	-0,040
-563,802	-118,487	-0,058	0,007
-562,788	116,851	0,068	-0,061
-561,773	800,000	-0,034	-0,081
-560,758	-67,998	0,082	0,023
-559,744	50,158	0,079	-0,055
-558,729	27,487	-0,043	0,026
-557,715	348,708	-0,028	0,040
-556,700	800,000	0,048	-0,106
-555,685	-55,934	-0,148	-0,048
-554,671	-157,414	0,216	0,009
-553,656	-200,000	-0,009	0,060
-552,642	-89,994	-0,147	0,031
-551,627	-200,000	0,016	0,105
-550,612	-200,000	-0,022	-0,080
-549,598	800,000	0,087	-0,247
-548,583	62,079	-0,037	-0,027
-547,569	-40,736	0,082	0,031
-546,554	-75,357	-0,036	-0,009
-545,539	-137,170	-0,156	-0,013
-544,525	-32,102	-0,079	-0,032
-543,510	800,000	0,023	0,068
-542,496	-38,935	0,066	0,025
-541,481	248,759	-0,073	-0,091
-540,466	123,096	0,051	-0,047
-539,452	62,103	0,110	0,080
-538,437	-168,741	0,113	-0,003
-537,423	-200,000	0,044	-0,186
-536,408	800,000	-0,038	-0,079
-535,393	-166,989	-0,131	0,004
-534,379	-200,000	0,001	0,085
-533,364	101,566	0,035	-0,030
-532,350	800,000	0,048	0,102
-531,335	-93,189	0,046	0,009
-530,321	205,354	-0,054	-0,061
-529,306	-137,437	0,053	0,004
-528,291	238,220	0,081	0,099
-527,277	-200,000	-0,003	-0,052
-526,262	24,713	0,036	0,022
-525,248	656,562	0,042	0,080
-524,233	123,559	-0,029	-0,026
-523,218	-84,705	-0,100	0,023
-522,204	569,517	0,034	0,062
-521,189	540,414	0,049	-0,085
-520,175	-181,819	-0,053	0,001
-519,160	-18,374	-0,055	0,025
-518,145	-200,000	-0,013	0,087
-517,131	-135,164	0,129	0,011
-516,116	-200,000	-0,019	0,070
-515,102	-45,423	-0,101	0,036
-514,087	134,979	-0,089	-0,085
-513,072	-200,000	0,052	-0,179
-512,058	800,000	0,011	-0,027
-511,043	-76,735	0,093	0,024
-510,029	277,022	0,035	0,046
-509,014	-29,733	0,034	-0,014
-507,999	-95,252	0,050	0,010
-506,985	800,000	0,030	0,070
-505,970	800,000	0,025	-0,068
-504,956	-200,000	0,017	-0,092
-503,941	39,020	-0,045	-0,029
-502,926	417,060	0,083	0,130
-501,912	261,002	0,035	0,045
-500,897	-75,748	0,143	-0,037
-499,883	-114,883	-0,107	0,015
-498,868	35,093	0,009	-0,006
-497,853	-11,519	0,138	0,066
-496,839	-200,000	-0,005	-0,130
-495,824	-94,768	0,063	0,012
-494,810	38,142	0,092	0,060
-493,795	-36,135	0,048	0,019
-492,781	-162,920	0,132	-0,005
-491,766	-25,202	-0,122	0,052
-490,751	642,462	-0,059	-0,110
-489,737	800,000	0,018	0,051
-488,722	117,229	-0,022	0,020
-487,708	56,776	0,133	0,094
-486,693	-200,000	0,008	-0,078
-485,678	346,946	-0,017	0,025
-484,664	334,867	0,029	0,041
-483,649	-148,237	-0,099	-0,006
-482,635	446,667	-0,013	-0,020
-481,620	-25,064	0,170	0,073
-480,605	70,015	-0,153	0,115
-479,591	-200,000	0,019	0,271
-478,576	202,179	-0,082	0,092
-477,562	-139,659	-0,118	0,009
-476,547	-200,000	-0,004	-0,020
-475,532	-5,068	-0,021	-0,011
-474,518	271,916	0,093	0,120
-473,503	800,000	0,034	0,086
-472,489	329,433	0,062	0,087
-471,474	53,822	-0,045	-0,031
-470,459	4,262	-0,179	0,096
-469,445	-200,000	0,028	0,119
-468,430	-4,688	-0,039	-0,020
-467,416	-200,000	0,011	-0,108
-466,401	-200,000	0,005	0,033
-465,386	800,000	-0,021	-0,058
-464,372	800,000	0,027	-0,076
-463,357	160,399	-0,023	-0,023
-462,343	-68,860	0,116	-0,032
-461,328	-25,388	-0,079	-0,034
-460,313	38,714	0,066	-0,043
-459,299	-200,000	0,005	0,044
-458,284	-98,877	-0,100	-0,018
-457,270	-200,000	-0,005	0,096
-456,255	39,526	0,052	0,034
-455,241	398,011	-0,093	-0,142
-454,226	53,654	-0,095	0,066
-453,211	145,566	-0,064	0,062
-452,197	134,688	-0,062	0,059
-451,182	478,802	0,040	0,067
-450,168	207,299	-0,062	0,070
-449,153	578,005	0,081	-0,144
-448,138	-155,515	-0,083	0,004
-447,124	721,021	0,065	-0,127
-446,109	800,000	0,024	0,056
-445,095	-79,383	0,058	0,014
-444,080	34,595	-0,033	0,021
-443,065	370,386	0,087	0,129
-442,051	169,054	-0,124	0,129
-441,036	61,881	0,043	0,031
-440,022	-116,954	-0,045	-0,006
-439,007	-139,157	-0,093	0,007
-437,992	-200,000	-0,009	0,066
-436,978	108,319	0,053	0,046
-435,963	800,000	-0,015	0,039
-434,949	-81,394	-0,101	0,024
-433,934	538,386	-0,063	-0,109
-432,919	-200,000	0,003	-0,091
-431,905	190,613	0,061	0,066
-430,890	800,000	-0,030	-0,088
-429,876	8,886	-0,057	-0,031
-428,861	-54,471	-0,108	-0,035
-427,846	-200,000	0,003	-0,047
-426,832	-55,570	-0,091	0,029
-425,817	17,535	-0,178	0,103
-424,803	-8,822	0,078	0,038
-423,788	-89,113	0,048	-0,010
-422,773	44,242	-0,057	-0,038
-421,759	-131,242	0,093	-0,009
-420,744	163,402	0,022	-0,023
-419,730	258,059	0,065	-0,081
-418,715	121,543	-0,023	-0,021
-417,701	-170,544	-0,029	0,001
-416,686	517,128	0,003	0,005
-415,671	-200,000	0,005	-0,038
-414,657	98,027	-0,056	-0,047
-413,642	-50,506	0,045	-0,015
-412,628	95,290	-0,175	-0,145
-411,613	-96,123	0,056	0,011
-410,598	291,166	-0,108	-0,143
-409,584	-6,088	0,149	0,074
-408,569	-200,000	-0,011	-0,113
-407,555	-40,157	-0,050	0,019
-406,540	156,487	0,115	-0,116
-405,525	277,982	0,091	0,118
-404,511	638,469	-0,018	-0,033
-403,496	465,021	-0,041	-0,067
-402,482	20,515	-0,113	0,066
-401,467	107,275	0,122	0,106
-400,452	-200,000	0,004	-0,048
-399,438	-35,895	-0,146	-0,057
-398,423	41,782	0,072	0,047
-397,409	800,000	0,044	-0,093
-396,394	356,153	-0,120	-0,174
-395,379	-200,000	0,003	-0,015
-394,365	-125,743	0,048	0,005
-393,350	-62,263	-0,169	-0,051
-392,336	-200,000	-0,016	-0,056
-391,321	-200,000	-0,001	0,012
-390,306	-200,000	0,018	-0,076
-389,292	9,777	0,040	-0,022
-388,277	-200,000	-0,000	0,004
-387,263	-27,160	0,127	-0,054
-386,248	57,327	-0,104	0,074
-385,233	438,162	0,058	0,093
-384,219	-162,179	0,081	0,003
-383,204	-61,153	0,034	-0,010
-382,190	60,911	-0,121	-0,087
-381,175	-200,000	-0,090	0,000
-380,160	593,805	0,043	0,078
-379,146	800,000	-0,032	0,093
-378,131	72,309	0,047	0,035
-377,117	-200,000	0,026	-0,150
-376,102	160,126	0,056	-0,057
-375,088	353,724	-0,042	-0,060
-374,073	-0,951	-0,095	0,049
-373,058	94,527	0,060	0,050
-372,044	427,317	-0,044	0,069
-371,029	92,501	0,088	0,072
-370,015	83,046	-0,041	0,032
-369,000	-200,000	-0,003	-0,178
-367,985	226,654	-0,021	-0,025
-366,971	-44,578	-0,110	-0,040
-365,956	115,961	0,068	0,060
-364,942	800,000	0,020	-0,051
-363,927	-110,697	-0,034	0,005
-362,912	-152,711	0,044	0,002
-361,898	7,091	0,083	-0,045
-360,883	41,084	-0,170	-0,111
-359,869	-200,000	0,010	-0,036
-358,854	175,372	0,057	-0,060
-357,839	-200,000	0,002	0,049
-356,825	-34,393	0,094	0,037
-355,810	51,964	-0,058	0,040
-354,796	-200,000	0,013	-0,073
-353,781	-200,000	0,002	-0,054
-352,766	91,086	-0,125	-0,102
-351,752	-139,643	0,025	-0,002
-350,737	-187,544	0,131	-0,001
-349,723	800,000	-0,013	0,035
-348,708	-7,609	0,092	0,045
-347,693	-104,929	-0,033	0,005
-346,679	75,516	-0,146	-0,111
-345,664	-200,000	-0,026	-0,131
-344,650	-200,000	0,028	0,097
-343,635	-101,283	0,108	0,019
-342,620	537,724	-0,034	0,060
-341,606	-66,346	-0,124	0,035
-340,591	-21,138	0,100	0,044
-339,577	-200,000	0,001	0,009
-338,562	-95,128	-0,091	0,018
-337,548	-16,006	0,107	0,049
-336,533	800,000	0,026	-0,053
-335,518	-4,120	0,077	0,039
-334,504	133,766	-0,092	0,086
-333,489	800,000	0,050	-0,136
-332,475	111,676	-0,120	-0,105
-331,460	800,000	0,033	0,092
-330,445	-18,869	-0,029	-0,013
-329,431	134,190	0,077	0,072
-328,416	-42,740	0,089	-0,033
-327,402	-200,000	-0,005	0,286
-326,387	-137,072	0,069	-0,006
-325,372	-200,000	-0,012	-0,050
-324,358	-15,361	-0,053	-0,025
-323,343	-24,738	-0,053	-0,023
-322,329	-28,225	0,148	0,062
-321,314	800,000	-0,034	0,107
-320,299	165,221	-0,096	0,098
-319,285	463,349	0,024	-0,039
-318,270	163,277	-0,027	0,027
-317,256	-200,000	0,001	-0,045
-316,241	-127,479	0,118	0,012
-315,226	-200,000	-0,010	-0,078
-314,212	-200,000	-0,016	0,088
-313,197	-132,948	0,074	-0,007
-312,183	15,616	0,130	-0,074
-311,168	800,000	0,017	0,035
-310,153	337,357	-0,064	0,090
-309,139	249,083	-0,022	0,027
-308,124	-200,000	-0,012	0,038
-307,110	-200,000	-0,013	-0,047
-306,095	63,880	-0,032	0,023
-305,080	-200,000	0,002	0,061
-304,066	325,081	-0,064	-0,088
-303,051	109,176	-0,035	0,030
-302,037	-22,219	-0,021	0,009
-301,022	-200,000	0,005	0,039
-300,008	5,990	0,196	0,105
-298,993	-23,683	-0,054	0,024
-297,978	169,877	0,067	0,070
-296,964	618,464	0,047	0,086
-295,949	12,858	0,173	0,097
-294,935	554,911	0,024	-0,042
-293,920	25,685	0,106	-0,064
-292,905	800,000	0,049	0,121
-291,891	177,629	0,101	0,107
-290,876	20,089	-0,089	0,052
-289,862	800,000	-0,039	-0,088
-288,847	-112,639	-0,041	0,006
-287,832	710,260	-0,016	-0,030
-286,818	-44,748	0,105	0,038
-285,803	9,622	-0,158	-0,086
-284,789	69,026	-0,036	-0,027
-283,774	-141,814	0,050	-0,004
-282,759	106,463	-0,107	-0,092
-281,745	-133,463	-0,114	0,010
-280,730	-56,353	0,105	0,034
-279,716	-137,495	0,180	-0,015
-278,701	363,319	0,033	-0,048
-277,686	-38,252	-0,039	0,015
-276,672	800,000	-0,022	-0,046
-275,657	24,336	-0,040	-0,024
-274,643	101,375	0,060	-0,050
-273,628	800,000	-0,028	-0,061
-272,613	-200,000	0,004	0,099
-271,599	-200,000	-0,001	0,025
-270,584	-145,498	-0,090	-0,006
-269,570	-200,000	0,022	0,143
-268,555	-200,000	-0,029	-0,096
-267,540	134,881	-0,084	0,079
-266,526	3,944	0,114	-0,060
-265,511	-110,493	0,160	-0,024
-264,497	-22,834	0,116	0,051
-263,482	-4,291	0,038	0,019
-262,467	223,087	0,068	0,079
-261,453	-200,000	-0,047	0,225
-260,438	117,252	-0,078	0,069
-259,424	268,739	0,037	-0,047
-258,409	-67,146	-0,072	-0,020
-257,395	-200,000	0,010	0,075
-256,380	62,883	0,085	0,062
-255,365	-200,000	0,015	0,072
-254,351	-111,261	0,018	-0,003
-253,336	800,000	0,013	0,039
-252,322	284,573	-0,086	-0,112
-251,307	-37,717	0,070	-0,027
-250,292	800,000	-0,039	-0,096
-249,278	576,186	0,028	0,050
-248,263	-200,000	-0,026	0,097
-247,249	738,803	-0,055	-0,107
-246,234	13,467	0,115	-0,065
-245,219	-80,741	-0,088	0,021
-244,205	416,684	-0,023	0,036
-243,190	800,000	-0,044	0,117
-242,176	129,922	0,057	-0,053
-241,161	-111,651	0,024	-0,003
-240,146	5,965	-0,010	-0,005
-239,132	-156,269	-0,234	0,010
-238,117	283,035	0,049	-0,064
-237,103	800,000	-0,044	-0,114
-236,088	563,655	-0,047	-0,082
-235,073	397,559	0,050	-0,076
-234,059	-148,274	0,165	-0,010
-233,044	-76,960	0,018	-0,004
-232,030	-17,846	0,062	0,028
-231,015	-153,707	-0,105	0,005
-230,000	-200,000	-0,023	-0,090
-228,986	800,000	-0,096	-0,244
-227,971	800,000	-0,039	0,082
-226,957	-44,364	0,069	-0,025
-225,942	137,655	-0,068	0,064
-224,927	-71,156	-0,061	0,016
-223,913	-200,000	0,002	0,144
-222,898	117,405	0,042	-0,038
-221,884	-117,766	0,098	0,013
-220,869	223,876	0,029	0,033
-219,855	-200,000	0,008	0,060
-218,840	260,275	0,061	0,076
-217,825	-133,478	-0,135	-0,012
-216,811	-200,000	-0,017	-0,071
-215,796	76,724	0,153	0,117
-214,782	-78,283	0,164	-0,040
-213,767	528,785	0,050	0,085
-212,752	-60,857	0,115	0,035
-211,738	-50,310	0,071	-0,024
-210,723	-184,852	0,081	-0,001
-209,709	-109,698	0,123	0,019
-208,694	800,000	-0,017	-0,034
-207,679	-50,732	-0,086	-0,029
-206,665	-200,000	0,013	0,051
-205,650	-200,000	-0,037	0,130
-204,636	-38,983	-0,106	-0,040
-203,621	800,000	0,029	-0,065
-202,606	-200,000	-0,015	-0,152
-201,592	-26,553	-0,045	0,019
-200,577	-61,844	-0,092	0,027
-199,563	-9,735	0,089	0,043
-198,548	-156,791	0,036	-0,002
-197,533	-200,000	-0,007	0,070
-196,519	-157,277	0,044	-0,002
-195,504	-67,572	-0,072	-0,020
-194,490	-96,103	-0,033	0,006
-193,475	-139,499	0,047	-0,004
-192,460	-200,000	-0,005	-0,080
-191,446	95,843	-0,047	-0,039
-190,431	203,490	0,102	0,114
-189,417	-137,277	-0,076	0,006
-188,402	800,000	0,054	0,151
-187,387	162,160	-0,113	-0,114
-186,373	292,507	-0,062	-0,081
-185,358	-101,977	0,059	-0,010
-184,344	33,234	0,086	0,054
-183,329	-92,695	0,120	0,024
-182,315	203,351	0,081	0,091
-181,300	800,000	-0,041	-0,102
-180,285	54,102	-0,071	-0,049
-179,271	800,000	0,057	-0,174
-178,256	45,773	0,110	0,073
-177,242	403,228	-0,042	0,064
-176,227	8,119	0,030	-0,016
-175,212	-200,000	0,033	0,158
-174,198	51,143	-0,069	0,047
-173,183	800,000	-0,073	-0,177
-172,169	800,000	0,043	-0,089
-171,154	714,511	0,025	-0,047
-170,139	221,350	0,122	0,142
-169,125	-49,061	0,063	0,022
-168,110	-127,261	-0,064	-0,007
-167,096	-77,123	-0,079	-0,020
-166,081	-200,000	0,011	0,094
-165,066	299,125	0,033	0,044
-164,052	209,112	-0,070	-0,079
-163,037	33,643	-0,068	0,043
-162,023	113,788	0,113	-0,099
-161,008	-1,786	0,113	0,057
-159,993	160,358	0,064	-0,064
-158,979	139,250	-0,036	-0,034
-157,964	-200,000	-0,012	-0,099
-156,950	542,287	0,054	-0,093
-155,935	-200,000	0,008	-0,027
-154,920	800,000	0,017	-0,047
-153,906	133,044	0,095	0,089
-152,891	6,760	-0,126	0,067
-151,877	130,822	-0,067	-0,062
-150,862	73,098	0,022	0,017
-149,847	-200,000	0,003	0,033
-148,833	88,398	0,028	0,023
-147,818	-200,000	-0,006	0,098
-146,804	-171,133	0,008	0,000
-145,789	800,000	0,023	0,055
-144,775	138,907	-0,127	-0,120
-143,760	56,491	0,123	-0,086
-142,745	800,000	0,019	0,043
-141,731	-200,000	0,021	0,110
-140,716	390,313	-0,049	0,073
-139,702	104,667	0,064	0,054
-138,687	324,408	0,018	0,025
-137,672	800,000	0,024	0,060
-136,658	-200,000	0,010	-0,111
-135,643	-15,173	0,141	-0,065
-134,629	-22,212	0,048	0,021
-133,614	-33,320	0,042	0,017
-132,599	-18,202	0,100	-0,045
-131,585	263,276	-0,028	0,035
-130,570	520,798	0,064	0,108
-129,556	449,096	-0,065	-0,103
-128,541	-171,729	0,153	0,004
-127,526	618,240	-0,108	0,196
-126,512	-200,000	-0,016	-0,060
-125,497	150,175	0,109	0,106
-124,483	115,707	0,125	0,110
-123,468	-103,548	-0,096	-0,016
-122,453	452,897	-0,038	-0,061
-121,439	8,123	-0,106	-0,057
-120,424	-45,230	-0,079	-0,028
-119,410	152,772	-0,040	0,039
-118,395	-200,000	0,007	0,130
-117,380	800,000	-0,008	0,017
-116,366	522,698	-0,099	-0,168
-115,351	381,770	0,054	-0,080
-114,337	-52,189	0,028	-0,009
-113,322	15,179	-0,128	-0,072
-112,307	62,595	0,069	0,049
-111,293	-200,000	-0,014	0,049
-110,278	54,807	-0,036	0,025
-109,264	-36,698	-0,098	0,038
-108,249	800,000	-0,032	-0,088
-107,234	-43,980	0,109	-0,039
-106,220	-146,086	-0,035	-0,002
-105,205	800,000	-0,022	-0,045
-104,191	-180,975	0,112	0,002
-103,176	752,755	-0,028	0,055
-102,162	-23,830	0,049	0,021
-101,147	-65,931	-0,095	-0,027
-100,132	-12,953	-0,139	0,065
-99,118	663,692	-0,020	-0,038
-98,103	-32,755	-0,070	-0,028
-97,089	-200,000	0,005	-0,084
-96,074	204,667	0,025	-0,028
-95,059	-16,073	-0,069	0,031
-94,045	-81,658	-0,156	0,037
-93,030	-146,045	0,017	0,001
-92,016	-149,389	-0,103	0,006
-91,001	75,612	-0,120	0,091
-89,986	68,278	0,115	-0,084
-88,972	800,000	-0,018	0,037
-87,957	-200,000	0,035	-0,167
-86,943	-200,000	0,028	0,094
-85,928	29,161	-0,060	-0,037
-84,913	44,493	-0,091	-0,060
-83,899	-162,992	-0,031	0,001
-82,884	448,429	0,091	0,144
-81,870	-200,000	-0,014	0,129
-80,855	254,010	0,081	0,099
-79,840	800,000	0,056	-0,112
-78,826	-61,784	0,070	-0,021
-77,811	131,289	0,015	0,014
-76,797	-200,000	0,006	0,180
-75,782	-66,091	0,190	0,054
-74,767	71,134	-0,024	0,018
-73,753	-200,000	-0,007	0,048
-72,738	-5,059	0,112	0,055
-71,724	210,237	0,087	-0,098
-70,709	-200,000	-0,006	0,070
-69,694	70,441	0,093	0,069
-68,680	-200,000	0,006	0,025
-67,665	800,000	0,088	0,187
-66,651	171,963	0,109	0,112
-65,636	264,075	-0,008	-0,011
-64,622	187,403	0,023	0,025
-63,607	-59,714	0,068	0,021
-62,592	-200,000	-0,004	-0,085
-61,578	766,956	0,056	-0,109
-60,563	92,953	0,041	0,033
-59,549	425,261	-0,032	-0,050
-58,534	34,566	-2,103	-1,315
-57,519	-200,000	-0,184	-0,606
-56,505	-200,000	-1,409	-5,039
-55,490	72,725	0,880	0,658
-54,476	800,000	5,282	11,977
-53,461	-200,000	18,734	318,600
-52,446	800,000	741,739	2335,668
-51,432	558,068	1657,671	2878,988
-50,417	111,123	1641,290	1417,604
-49,403	75,555	1290,826	976,506
-48,388	30,373	1031,774	630,705
-47,373	19,980	994,311	573,354
-46,359	17,397	982,126	557,797
-45,344	14,090	978,029	544,569
-44,330	14,379	976,590	544,696
-43,315	13,764	974,419	541,442
-42,300	13,638	973,792	540,659
-41,286	13,705	972,798	540,307
-40,271	13,682	971,836	539,675
-39,257	13,701	970,767	539,122
-38,242	13,726	969,928	538,718
-37,227	13,719	968,973	538,142
-36,213	13,701	968,341	537,711
-35,198	13,633	967,468	536,984
-34,184	13,766	966,598	536,911
-33,169	13,644	965,708	536,001
-32,154	13,775	964,650	535,816
-31,140	13,726	963,810	535,170
-30,125	13,700	963,163	534,706
-29,111	13,705	962,373	534,262
-28,096	13,732	961,695	533,951
-27,082	13,738	960,921	533,520
-26,067	13,731	960,326	533,146
-25,052	13,703	959,330	532,481
-24,038	13,685	958,840	532,132
-23,023	13,743	958,168	531,924
-22,009	13,748	957,483	531,538
-20,994	13,768	956,675	531,132
-19,979	13,774	956,013	530,765
-18,965	13,685	955,612	530,234
-17,950	13,770	954,933	530,110
-16,936	13,710	954,186	529,481
-15,921	13,626	953,724	528,933
-14,906	13,668	952,909	528,597
-13,892	13,701	952,190	528,282
-12,877	13,580	951,520	527,500
-11,863	13,535	951,089	527,098
-10,848	13,582	950,581	526,946
-9,833	13,689	949,842	526,855
-8,819	13,691	949,196	526,483
-7,804	13,687	948,469	526,048
-6,790	13,609	947,984	525,507
-5,775	13,673	947,392	525,363
-4,760	13,650	946,951	525,024
-3,746	13,675	946,196	524,665
-2,731	13,489	945,582	523,712
-1,717	13,486	944,961	523,336
-0,702	13,460	944,193	522,808
0,313	13,256	943,650	522,650
1,327	16,594	941,312	531,881
2,342	25,667	795,892	473,821
3,356	21,932	460,741	268,531
4,371	-5,057	317,940	156,272
5,386	-9,049	299,893	143,298
6,400	-10,831	293,837	138,601
7,415	-11,238	291,313	136,992
8,429	-11,471	289,601	135,944
9,444	-11,637	288,840	135,411
10,459	-11,432	288,037	135,225
11,473	-11,466	287,608	134,978
12,488	-11,470	287,071	134,710
13,502	-11,399	286,567	134,531
14,517	-11,216	286,128	134,492
15,531	-11,359	285,744	134,159
16,546	-11,261	285,307	134,038
17,561	-11,448	284,751	133,584
18,575	-11,443	284,544	133,479
19,590	-11,522	284,265	133,259
20,604	-11,314	283,899	133,278
21,619	-11,480	283,645	132,985
22,634	-11,499	283,218	132,755
23,648	-11,548	282,721	132,464
24,663	-11,435	282,642	132,524
25,677	-11,345	282,301	132,439
26,692	-11,607	282,036	132,050
27,707	-11,428	281,778	132,090
28,721	-11,430	281,471	131,932
29,736	-11,414	281,152	131,786
30,750	-11,562	280,933	131,530
31,765	-11,499	280,825	131,528
32,780	-11,456	280,550	131,428
33,794	-11,443	280,151	131,243
34,809	-11,581	279,977	131,017
35,823	-11,480	279,563	130,908
36,838	-11,600	279,428	130,718
37,853	-11,512	279,238	130,702
38,867	-11,341	278,832	130,663
39,882	-11,575	278,764	130,397
40,896	-11,527	278,404	130,262
41,911	-11,401	278,189	130,269
42,926	-11,490	277,901	130,039
43,940	-11,648	277,643	129,757
44,955	-11,532	277,525	129,800
45,969	-11,477	277,065	129,625
46,984	-11,651	276,967	129,404
47,999	-11,755	276,742	129,189
49,013	-11,853	276,395	128,924
50,028	-11,992	276,069	128,629
51,042	-12,162	275,820	128,341
52,057	-12,356	275,580	128,036
53,071	-12,291	275,473	128,035
54,086	-12,091	275,317	128,140
55,101	-11,981	275,069	128,116
56,115	-11,690	274,933	128,313
57,130	-11,434	274,837	128,498
58,144	-11,388	274,559	128,399
59,159	-11,317	274,344	128,354
60,174	-11,217	274,127	128,333
61,188	-11,315	273,904	128,127
62,203	-11,395	273,659	127,926
63,217	-11,395	273,443	127,814
64,232	-11,551	273,242	127,563
65,247	-11,201	272,885	127,710
66,261	-11,424	272,808	127,455
67,276	-11,610	272,416	127,088
68,290	-11,694	272,216	126,906
69,305	-11,750	271,961	126,724
70,320	-11,903	271,744	126,470
71,334	-11,561	271,581	126,699
72,349	-11,276	271,277	126,809
73,363	-11,421	271,198	126,627
74,378	-11,528	271,020	126,434
75,393	-11,412	270,758	126,407
76,407	-11,480	270,594	126,257
77,422	-11,292	270,131	126,203
78,436	-11,422	270,015	126,017
79,451	-11,318	269,825	126,013
80,466	-11,487	269,616	125,750
81,480	-11,360	269,133	125,629
82,495	-11,500	269,028	125,441
83,509	-11,424	268,881	125,430
84,524	-11,518	268,709	125,253
85,539	-11,541	268,382	125,069
86,553	-11,661	268,239	124,881
87,568	-11,652	267,990	124,763
88,582	-11,607	267,887	124,745
89,597	-11,545	267,678	124,692
90,611	-11,474	267,457	124,643
91,626	-11,181	267,209	124,782
92,641	-11,270	267,023	124,603
93,655	-11,237	266,805	124,521
94,670	-11,397	266,539	124,240
95,684	-11,389	266,460	124,199
96,699	-11,453	266,383	124,094
97,714	-11,518	266,106	123,896
98,728	-11,582	265,729	123,652
99,743	-11,571	265,453	123,522
100,757	-11,679	265,348	123,365
101,772	-11,585	265,098	123,322
102,787	-11,595	264,811	123,169
103,801	-11,500	264,824	123,249
104,816	-11,536	264,622	123,112
105,830	-11,400	264,559	123,194
106,845	-11,323	264,254	123,110
107,860	-11,321	264,089	123,024
108,874	-11,463	263,822	122,762
109,889	-11,548	263,586	122,564
110,903	-11,496	263,533	122,575
111,918	-11,471	263,248	122,454
112,933	-11,487	263,088	122,355
113,947	-11,394	262,987	122,380
114,962	-11,186	262,580	122,365
115,976	-11,325	262,555	122,218
116,991	-11,397	262,222	121,988
118,006	-11,372	262,093	121,939
119,020	-11,430	262,042	121,854
120,035	-11,382	261,914	121,826
121,049	-11,291	261,624	121,761
122,064	-11,217	261,377	121,700
123,079	-11,439	261,281	121,448
124,093	-11,491	260,890	121,210
125,108	-11,573	260,700	121,039
126,122	-11,914	260,556	120,659
127,137	-11,868	260,189	120,519
128,151	-11,631	260,140	120,695
129,166	-11,628	259,982	120,614
130,181	-11,709	259,677	120,390
131,195	-11,797	259,625	120,277
132,210	-11,629	259,407	120,314
133,224	-11,233	259,075	120,496
134,239	-11,485	259,017	120,238
135,254	-11,415	258,823	120,198
136,268	-11,674	258,723	119,914
137,283	-11,682	258,385	119,740
138,297	-11,823	258,074	119,462
139,312	-11,735	257,843	119,421
140,327	-11,491	257,920	119,659
141,341	-11,422	257,649	119,582
142,356	-11,398	257,377	119,467
143,370	-11,256	257,199	119,497
144,385	-11,259	257,177	119,473
145,400	-11,293	257,012	119,357
146,414	-11,330	256,830	119,229
147,429	-11,360	256,509	119,043
148,443	-11,149	256,393	119,162
149,458	-11,072	256,168	119,114
150,473	-11,271	256,056	118,879
151,487	-11,304	255,637	118,645
152,502	-11,216	255,597	118,692
153,516	-11,354	255,446	118,492
154,531	-11,202	255,216	118,506
155,546	-11,364	255,072	118,289
156,560	-11,325	254,969	118,264
157,575	-11,078	254,560	118,276
158,589	-11,079	254,444	118,211
159,604	-11,106	254,349	118,133
160,619	-11,219	254,086	117,903
161,633	-11,223	253,931	117,817
162,648	-11,186	253,844	117,799
163,662	-11,167	253,591	117,687
164,677	-11,128	253,580	117,705
165,692	-11,284	253,385	117,470
166,706	-11,208	253,157	117,419
167,721	-11,092	252,951	117,411
168,735	-11,334	252,870	117,157
169,750	-11,171	252,789	117,248
170,764	-11,075	252,549	117,208
171,779	-11,175	252,361	117,025
172,794	-11,061	252,198	117,036
173,808	-11,329	252,009	116,711
174,823	-11,472	251,582	116,381
175,837	-11,705	251,370	116,076
176,852	-11,353	251,360	116,359
177,867	-11,207	251,402	116,491
178,881	-10,851	251,102	116,643
179,896	-11,260	250,859	116,174
180,910	-11,170	250,776	116,202
181,925	-11,150	250,601	116,127
182,940	-10,981	250,377	116,155
183,954	-11,038	250,228	116,028
184,969	-11,248	250,147	115,803
185,983	-10,884	249,895	115,982
186,998	-11,071	249,695	115,721
188,013	-11,150	249,561	115,583
189,027	-11,038	249,449	115,615
190,042	-11,264	249,248	115,322
191,056	-11,200	249,090	115,292
192,071	-11,156	248,950	115,254
193,086	-11,137	248,658	115,124
194,100	-11,105	248,443	115,041
195,115	-10,976	248,238	115,044
196,129	-11,119	248,058	114,831
197,144	-11,200	248,038	114,743
198,159	-11,284	247,779	114,543
199,173	-11,171	247,625	114,557
200,188	-11,376	247,388	114,266
201,202	-11,545	247,098	113,981
202,217	-11,649	246,695	113,699
203,232	-11,689	246,579	113,602
204,246	-11,300	246,679	113,961
205,261	-10,856	246,411	114,194
206,275	-11,854	246,048	113,191
207,290	-8,115	247,623	117,016
208,304	-0,048	250,276	125,025
209,319	4,406	251,441	129,335
210,334	4,771	251,451	129,634
211,348	5,106	251,328	129,840
212,363	5,039	251,259	129,736
213,377	5,451	251,100	129,987
214,392	4,971	251,041	129,544
215,407	4,919	250,697	129,311
216,421	4,953	250,438	129,195
217,436	5,312	250,311	129,416
218,450	5,076	250,449	129,280
219,465	4,818	250,201	128,925
220,480	4,682	249,843	128,616
221,494	4,837	249,575	128,596
222,509	4,694	249,588	128,471
223,523	4,781	249,273	128,370
224,538	4,333	248,994	127,844
225,553	4,613	248,921	128,028
226,567	4,574	248,778	127,910
227,582	4,417	248,851	127,806
228,596	4,824	248,321	127,859
229,611	4,398	248,194	127,430
230,626	4,217	247,964	127,151
231,640	4,347	247,750	127,137
232,655	4,407	247,832	127,218
233,669	4,420	247,533	127,064
234,684	4,271	247,331	126,826
235,699	4,603	247,433	127,141
236,713	4,883	247,293	127,287
237,728	4,385	246,998	126,715
238,742	4,396	246,683	126,551
239,757	4,287	246,492	126,353
240,772	4,316	246,381	126,308
241,786	4,412	246,438	126,405
242,801	4,315	246,188	126,186
243,815	4,060	246,070	125,906
244,830	4,642	245,804	126,233
245,844	4,642	245,678	126,157
246,859	4,391	245,566	125,884
247,874	4,495	245,370	125,857
248,888	4,283	245,224	125,599
249,903	4,434	245,157	125,676
250,917	4,731	244,997	125,824
251,932	4,718	244,909	125,757
252,947	4,698	244,565	125,554
253,961	4,537	244,394	125,324
254,976	4,388	244,289	125,137
255,990	4,327	244,301	125,083
257,005	4,272	243,949	124,847
258,020	4,098	243,883	124,662
259,034	4,200	243,679	124,629
260,049	4,389	243,473	124,665
261,063	4,095	243,322	124,339
262,078	4,367	243,130	124,449
263,093	4,478	243,160	124,543
264,107	4,552	242,999	124,509
265,122	4,437	242,705	124,255
266,136	4,211	242,818	124,120
267,151	4,780	242,576	124,442
268,166	4,351	242,216	123,902
269,180	4,290	242,069	123,767
270,195	4,963	242,031	124,276
271,209	5,361	241,994	124,565
272,224	4,309	241,690	123,556
273,239	3,714	241,654	123,050
274,253	4,174	241,334	123,243
275,268	4,355	241,200	123,309
276,282	4,410	241,032	123,256
277,297	4,263	240,778	122,997
278,312	4,202	240,683	122,889
279,326	4,247	240,567	122,855
280,341	4,624	240,407	123,063
281,355	4,368	240,291	122,789
282,370	4,490	240,150	122,803
283,384	4,573	239,889	122,724
284,399	4,365	239,734	122,469
285,414	4,301	239,517	122,296
286,428	4,130	239,528	122,155
287,443	4,212	239,279	122,082
288,457	4,296	239,277	122,137
289,472	4,535	239,060	122,205
290,487	4,513	239,013	122,152
291,501	4,353	238,665	121,837
292,516	4,211	238,451	121,605
293,530	4,140	238,318	121,470
294,545	4,370	238,461	121,714
295,560	4,194	238,218	121,441
296,574	4,317	237,791	121,309
297,589	4,403	237,791	121,366
298,603	4,751	237,691	121,577
299,618	4,702	237,541	121,450
300,633	4,674	237,414	121,353
301,647	4,729	237,227	121,290
302,662	4,859	237,323	121,430
303,676	4,829	237,132	121,298
304,691	4,844	236,870	121,164
305,706	4,775	236,817	121,073
306,720	4,784	236,643	120,980
307,735	4,856	236,443	120,923
308,749	4,491	236,203	120,505
309,764	4,163	236,002	120,136
310,779	4,294	235,706	120,077
311,793	3,957	235,578	119,739
312,808	4,142	235,461	119,812
313,822	3,903	235,404	119,586
314,837	4,096	235,239	119,643
315,852	4,052	235,004	119,478
316,866	4,262	234,866	119,560
317,881	4,256	234,683	119,451
318,895	4,844	234,633	119,871
319,910	4,981	234,652	119,975
320,925	4,419	234,414	119,409
321,939	4,170	234,198	119,095
322,954	4,480	234,079	119,264
323,968	4,475	234,007	119,213
324,983	4,514	233,886	119,170
325,997	5,058	233,674	119,471
327,012	4,675	233,664	119,160
328,027	4,396	233,360	118,780
329,041	4,868	233,346	119,125
330,056	5,024	233,362	119,243
331,070	5,299	233,140	119,330
332,085	4,809	232,967	118,855
333,100	4,515	232,700	118,482
334,114	4,685	232,511	118,506
335,129	4,863	232,392	118,571
336,143	4,808	232,386	118,515
337,158	4,751	232,221	118,377
338,173	4,829	231,952	118,289
339,187	4,396	231,726	117,833
340,202	4,700	231,511	117,944
341,216	4,632	231,483	117,868
342,231	4,442	231,289	117,614
343,246	4,550	231,131	117,605
344,260	4,701	231,096	117,692
345,275	4,915	230,844	117,716
346,289	4,939	230,909	117,756
347,304	4,742	230,822	117,552
348,319	4,786	230,521	117,422
349,333	4,747	230,244	117,241
350,348	4,454	230,062	116,915
351,362	4,248	230,065	116,750
352,377	4,373	229,891	116,746
353,392	4,153	229,610	116,427
354,406	4,203	229,549	116,424
355,421	195,427	1316,736	1391,930
356,435	156,781	1449,152	1391,889
