DTS Sentinel unit serial number:	SN410029Multiplexer serial number:	ORYXHardware model number:	OX2-SRSoftware version number:	ORYX F/W v4,00 Oryx Data Collector v3.7.2.0data status	okinstallation	B5 Nyhavnadifferential loss correction	single-endedforward channel	channel 2reverse channel	N/Adate	2023/12/11time	19:37:13forward acquisition time	300,00reverse acquisition time	0,00gamma	499,1914k internal	0,3159k external	0,3159temperature offset calibration	1,0000default loss term (dB/km)	0,3820temperature slope calibration	1,0000multiplexer offset coefficient	1,0000multiplexer slope coefficient	1,0000fibre end	0,00T internal ref (°C)	15,69T ext. ref 1 (°C)	-0,04T ext. ref 2 (°C)	-0,26length (m)	temperature (°C)	Stokes	anti-Stokes-744,400	800,000	-0,027	-0,064
-743,385	-93,749	-0,280	-0,056
-742,371	-15,745	0,116	0,054
-741,356	191,166	-0,120	0,134
-740,342	-6,906	0,110	0,055
-739,327	-87,962	-0,212	-0,047
-738,312	-28,657	0,129	0,055
-737,298	-153,871	-0,278	-0,014
-736,283	-200,000	0,012	0,043
-735,269	-104,886	-0,186	0,031
-734,254	-200,000	0,001	0,041
-733,239	-89,883	-0,536	-0,114
-732,225	-100,092	0,183	0,033
-731,210	-200,000	0,015	0,082
-730,196	-136,244	-0,139	-0,012
-729,181	-75,775	0,019	-0,005
-728,167	800,000	0,036	0,093
-727,152	100,925	0,144	0,123
-726,137	75,630	-0,114	-0,088
-725,123	560,355	0,021	0,038
-724,108	-7,469	-0,161	-0,080
-723,094	187,072	-0,169	-0,185
-722,079	104,576	-0,096	-0,083
-721,064	4,884	-0,057	-0,031
-720,050	-200,000	-0,004	0,029
-719,035	239,787	-0,079	0,097
-718,021	800,000	-0,028	0,086
-717,006	800,000	-0,036	-0,096
-715,991	68,386	-0,129	-0,097
-714,977	-200,000	0,014	-0,075
-713,962	-200,000	-0,008	-0,058
-712,948	1,365	-0,104	-0,055
-711,933	-10,889	0,038	0,019
-710,918	-105,484	0,028	0,005
-709,904	-43,699	-0,040	-0,015
-708,889	-20,979	0,029	-0,013
-707,875	800,000	-0,064	-0,185
-706,860	-200,000	-0,001	0,039
-705,845	150,921	0,019	-0,019
-704,831	-200,000	0,021	0,130
-703,816	-32,252	0,087	0,035
-702,802	-200,000	0,004	0,113
-701,787	65,843	0,046	0,034
-700,772	800,000	0,052	0,135
-699,758	626,275	-0,020	-0,037
-698,743	-111,248	0,050	-0,007
-697,729	-93,170	-0,096	-0,019
-696,714	623,944	0,045	0,084
-695,699	-182,664	-0,120	0,002
-694,685	-200,000	-0,007	-0,101
-693,670	800,000	-0,028	0,075
-692,656	85,840	-0,094	-0,076
-691,641	800,000	0,031	-0,065
-690,627	-200,000	0,006	0,043
-689,612	-149,579	0,063	0,004
-688,597	-106,842	-0,106	0,017
-687,583	-190,323	-0,090	0,001
-686,568	-135,716	0,076	0,007
-685,554	434,183	-0,019	0,030
-684,539	151,434	0,112	-0,112
-683,524	12,328	0,042	-0,024
-682,510	41,679	0,060	-0,040
-681,495	-200,000	0,044	-0,164
-680,481	91,062	-0,024	-0,019
-679,466	62,460	-0,100	-0,073
-678,451	-18,509	-0,069	-0,032
-677,437	-200,000	0,004	-0,039
-676,422	437,578	-0,010	0,016
-675,408	-200,000	0,013	-0,056
-674,393	-31,933	0,045	0,018
-673,378	-200,000	0,011	-0,152
-672,364	800,000	-0,082	-0,179
-671,349	36,689	0,049	0,032
-670,335	172,217	-0,047	0,050
-669,320	355,557	0,048	-0,071
-668,305	463,377	0,031	0,050
-667,291	-200,000	-0,030	-0,135
-666,276	180,120	0,126	-0,136
-665,262	-24,013	-0,036	-0,016
-664,247	673,403	-0,059	-0,114
-663,232	-37,492	0,065	-0,026
-662,218	251,927	-0,021	0,026
-661,203	158,606	-0,030	-0,030
-660,189	-200,000	-0,003	0,080
-659,174	52,255	-0,072	0,050
-658,159	-14,286	-0,174	0,082
-657,145	-200,000	-0,030	-0,126
-656,130	-200,000	0,000	0,062
-655,116	800,000	-0,064	0,154
-654,101	251,944	0,053	0,067
-653,086	-200,000	0,018	0,071
-652,072	-24,698	-0,073	0,032
-651,057	19,662	-0,045	-0,027
-650,043	-74,281	-0,085	0,022
-649,028	-200,000	-0,014	-0,153
-648,014	-172,862	-0,052	0,001
-646,999	-71,840	0,123	-0,034
-645,984	-41,344	-0,074	-0,028
-644,970	-200,000	-0,039	-0,235
-643,955	372,157	-0,076	-0,114
-642,941	447,771	0,026	-0,043
-641,926	-96,506	0,045	0,009
-640,911	-200,000	0,018	0,129
-639,897	-108,722	0,085	-0,013
-638,882	-200,000	0,001	-0,101
-637,868	-104,166	0,146	0,025
-636,853	-200,000	0,007	-0,164
-635,838	-128,696	-0,070	-0,007
-634,824	663,805	-0,085	-0,161
-633,809	800,000	0,049	0,100
-632,795	577,145	0,022	-0,039
-631,780	-200,000	-0,002	0,039
-630,765	-200,000	0,003	0,076
-629,751	124,803	-0,096	-0,089
-628,736	279,523	-0,015	-0,020
-627,722	800,000	-0,039	-0,098
-626,707	-200,000	0,014	0,100
-625,692	800,000	0,015	0,041
-624,678	294,155	-0,061	-0,082
-623,663	-200,000	-0,007	0,137
-622,649	-200,000	-0,005	-0,022
-621,634	-29,744	-0,100	-0,042
-620,619	384,738	0,024	-0,036
-619,605	-200,000	-0,047	-0,189
-618,590	-200,000	0,034	0,120
-617,576	788,875	-0,029	0,060
-616,561	-200,000	0,007	0,060
-615,546	-26,264	0,051	0,022
-614,532	-99,809	0,051	0,009
-613,517	30,611	0,064	-0,040
-612,503	83,825	0,089	-0,071
-611,488	-200,000	0,000	0,048
-610,474	323,063	0,011	-0,015
-609,459	507,270	0,004	0,007
-608,444	-21,228	-0,027	0,012
-607,430	780,217	-0,032	0,064
-606,415	-11,874	-0,035	0,017
-605,401	-152,632	0,075	0,004
-604,386	163,067	0,097	0,100
-603,371	255,894	-0,103	0,130
-602,357	303,426	-0,031	-0,042
-601,342	350,929	0,092	-0,134
-600,328	103,843	-0,119	0,102
-599,313	10,689	-0,065	-0,036
-598,298	-200,000	0,003	0,058
-597,284	-200,000	-0,003	0,046
-596,269	-200,000	-0,032	0,174
-595,255	246,622	0,059	-0,073
-594,240	491,482	-0,033	0,055
-593,225	200,245	-0,022	0,025
-592,211	30,985	0,053	-0,033
-591,196	800,000	-0,039	-0,089
-590,182	150,069	0,032	0,032
-589,167	41,377	-0,021	0,014
-588,152	201,894	-0,045	-0,051
-587,138	800,000	0,030	-0,087
-586,123	39,907	0,050	-0,033
-585,109	28,166	-0,054	-0,033
-584,094	-118,915	-0,076	-0,010
-583,079	-13,356	0,046	0,022
-582,065	115,836	0,126	0,113
-581,050	-200,000	0,015	0,086
-580,036	118,400	-0,088	0,079
-579,021	645,502	0,024	-0,045
-578,006	257,641	0,032	-0,041
-576,992	-56,308	-0,049	0,016
-575,977	-200,000	0,015	0,092
-574,963	82,669	0,143	0,114
-573,948	252,666	-0,041	0,051
-572,934	-59,141	-0,055	-0,017
-571,919	197,118	0,044	-0,049
-570,904	646,233	0,055	-0,104
-569,890	-110,374	-0,093	0,014
-568,875	193,408	-0,075	0,083
-567,861	551,614	-0,026	0,046
-566,846	581,409	-0,046	0,083
-565,831	-20,689	0,124	0,056
-564,817	-200,000	-0,013	-0,044
-563,802	23,351	0,119	0,072
-562,788	-152,099	-0,053	0,003
-561,773	-200,000	-0,023	-0,110
-560,758	250,590	0,034	0,043
-559,744	-200,000	-0,016	-0,086
-558,729	228,057	-0,082	-0,098
-557,715	-200,000	0,000	0,093
-556,700	67,621	-0,093	-0,069
-555,685	774,472	0,056	-0,113
-554,671	146,769	0,031	0,030
-553,656	-200,000	0,018	-0,099
-552,642	-200,000	0,002	-0,154
-551,627	24,678	0,016	0,010
-550,612	-90,161	-0,172	0,036
-549,598	-200,000	0,025	-0,134
-548,583	-49,658	-0,040	-0,014
-547,569	-116,409	-0,045	0,006
-546,554	-200,000	-0,026	-0,105
-545,539	-63,701	-0,073	0,022
-544,525	81,471	0,021	0,016
-543,510	800,000	0,013	-0,033
-542,496	-171,777	-0,073	0,002
-541,481	-200,000	0,006	0,068
-540,466	148,918	-0,054	-0,054
-539,452	157,624	0,011	0,011
-538,437	-200,000	0,004	0,051
-537,423	-200,000	0,013	0,057
-536,408	667,988	-0,034	-0,065
-535,393	-14,243	-0,088	-0,041
-534,379	-200,000	-0,007	-0,100
-533,364	-200,000	0,000	-0,065
-532,350	-97,327	0,111	-0,021
-531,335	299,277	-0,048	-0,065
-530,321	-200,000	-0,012	-0,043
-529,306	-126,519	-0,024	0,003
-528,291	-21,582	0,058	-0,026
-527,277	33,108	-0,050	0,032
-526,262	800,000	0,020	-0,049
-525,248	-200,000	0,004	0,030
-524,233	-200,000	0,005	0,113
-523,218	373,990	-0,034	0,050
-522,204	200,445	-0,057	-0,064
-521,189	-200,000	-0,031	-0,114
-520,175	271,989	-0,116	-0,150
-519,160	155,060	-0,034	-0,034
-518,145	43,317	-0,097	-0,065
-517,131	-200,000	-0,001	-0,056
-516,116	323,155	0,042	-0,059
-515,102	-65,423	0,022	-0,007
-514,087	3,752	-0,036	-0,019
-513,072	-200,000	-0,025	-0,092
-512,058	174,895	0,048	-0,051
-511,043	-124,048	0,025	-0,003
-510,029	-200,000	0,003	-0,131
-509,014	284,478	-0,024	-0,032
-507,999	-200,000	-0,066	-0,267
-506,985	-169,047	0,152	-0,004
-505,970	28,644	-0,060	-0,037
-504,956	-105,008	-0,040	0,007
-503,941	-31,618	-0,108	0,044
-502,926	-97,189	0,107	-0,020
-501,912	-200,000	-0,002	0,084
-500,897	-83,887	-0,086	0,020
-499,883	765,960	0,032	0,064
-498,868	-69,171	-0,191	-0,053
-497,853	15,500	0,076	-0,044
-496,839	-48,467	0,097	-0,034
-495,824	-7,535	0,100	0,049
-494,810	677,514	-0,075	0,142
-493,795	105,111	0,056	0,049
-492,781	678,666	0,042	0,080
-491,766	-200,000	-0,004	-0,028
-490,751	-6,225	-0,056	0,028
-489,737	94,812	0,060	0,050
-488,722	-111,776	0,056	0,008
-487,708	23,892	0,046	-0,028
-486,693	182,424	-0,047	-0,051
-485,678	-99,924	0,038	-0,007
-484,664	-200,000	0,014	-0,057
-483,649	34,601	-0,090	0,057
-482,635	52,702	-0,085	-0,059
-481,620	-40,488	0,051	-0,019
-480,605	25,658	0,037	0,023
-479,591	-200,000	-0,004	0,131
-478,576	276,815	-0,057	-0,074
-477,562	-27,821	0,134	0,057
-476,547	399,522	0,022	0,034
-475,532	-44,927	-0,048	0,017
-474,518	-153,682	-0,049	-0,002
-473,503	62,910	0,096	0,070
-472,489	10,233	0,111	0,061
-471,474	800,000	-0,041	0,115
-470,459	193,487	0,072	-0,079
-469,445	800,000	0,024	-0,063
-468,430	80,810	-0,093	-0,073
-467,416	301,625	0,076	-0,102
-466,401	-200,000	0,000	-0,096
-465,386	408,571	-0,041	0,064
-464,372	-200,000	0,030	0,118
-463,357	-200,000	0,009	-0,039
-462,343	10,412	-0,028	-0,016
-461,328	-92,255	-0,081	0,016
-460,313	57,115	-0,090	0,064
-459,299	-200,000	0,013	0,143
-458,284	101,411	-0,113	0,096
-457,270	-106,409	0,078	0,013
-456,255	-200,000	-0,009	0,067
-455,241	744,021	0,009	-0,017
-454,226	-57,159	-0,056	-0,018
-453,211	4,442	0,038	0,020
-452,197	-200,000	0,006	-0,047
-451,182	-200,000	0,028	0,199
-450,168	771,226	0,037	0,074
-449,153	-200,000	-0,003	0,111
-448,138	-41,513	-0,054	0,020
-447,124	270,382	-0,029	0,038
-446,109	-82,507	0,093	-0,022
-445,095	-160,089	0,165	-0,006
-444,080	56,690	0,074	-0,052
-443,065	-200,000	-0,019	-0,066
-442,051	-12,954	0,142	0,067
-441,036	800,000	0,024	-0,053
-440,022	-200,000	-0,023	0,144
-439,007	800,000	-0,037	-0,092
-437,992	-200,000	-0,028	0,165
-436,978	-40,224	0,104	0,039
-435,963	221,926	-0,034	0,040
-434,949	-200,000	-0,009	0,036
-433,934	-20,357	-0,080	-0,036
-432,919	-200,000	-0,001	-0,087
-431,905	800,000	-0,013	0,041
-430,890	-141,848	0,023	-0,002
-429,876	-74,979	-0,049	-0,013
-428,861	-132,820	0,053	0,005
-427,846	14,057	-0,043	0,024
-426,832	-200,000	-0,015	-0,129
-425,817	800,000	-0,068	-0,155
-424,803	-76,959	-0,096	-0,024
-423,788	301,451	0,045	-0,061
-422,773	800,000	0,023	0,071
-421,759	255,452	-0,105	-0,131
-420,744	53,375	0,091	0,063
-419,730	-2,922	-0,143	0,072
-418,715	800,000	-0,029	0,089
-417,701	265,704	0,074	-0,094
-416,686	-142,375	0,078	-0,006
-415,671	128,278	-0,074	0,068
-414,657	8,198	0,038	-0,020
-413,642	-130,272	-0,131	0,013
-412,628	800,000	-0,024	0,060
-411,613	-52,895	-0,054	-0,018
-410,598	523,928	-0,054	0,093
-409,584	-118,085	0,025	-0,003
-408,569	121,898	0,077	0,070
-407,555	73,665	0,101	0,077
-406,540	-200,000	-0,008	-0,065
-405,525	245,200	-0,062	-0,075
-404,511	-102,932	-0,054	0,009
-403,496	79,944	-0,179	0,139
-402,482	268,186	-0,073	-0,093
-401,467	-200,000	-0,026	0,119
-400,452	-200,000	-0,024	0,087
-399,438	76,095	-0,021	-0,016
-398,423	-200,000	0,003	-0,067
-397,409	499,012	-0,015	-0,026
-396,394	800,000	0,063	-0,158
-395,379	-196,778	0,126	-0,001
-394,365	800,000	0,027	0,059
-393,350	69,859	-0,038	-0,029
-392,336	-146,234	0,115	0,007
-391,321	315,563	0,029	-0,040
-390,306	85,744	-0,069	-0,055
-389,292	-132,707	0,068	0,006
-388,277	-4,238	0,044	-0,022
-387,263	-84,544	-0,129	-0,029
-386,248	-200,000	0,016	0,063
-385,233	38,134	0,087	-0,056
-384,219	-98,213	-0,028	0,005
-383,204	446,776	0,071	-0,114
-382,190	623,692	-0,083	-0,153
-381,175	-28,471	0,071	-0,029
-380,160	800,000	0,036	0,101
-379,146	800,000	0,056	0,135
-378,131	603,326	0,045	-0,082
-377,117	2,591	-0,031	-0,016
-376,102	-109,739	0,036	-0,005
-375,088	-150,449	-0,017	-0,001
-374,073	246,369	0,069	0,084
-373,058	-200,000	0,008	0,045
-372,044	-139,035	-0,085	-0,007
-371,029	135,828	0,070	0,066
-370,015	-200,000	-0,019	0,095
-369,000	-188,840	0,045	0,000
-367,985	158,542	-0,093	-0,093
-366,971	1,555	-0,008	-0,004
-365,956	31,813	0,020	0,012
-364,942	605,362	-0,004	-0,008
-363,927	202,854	0,138	-0,155
-362,912	-16,608	-0,055	0,025
-361,898	210,266	0,016	0,018
-360,883	-200,000	-0,056	-0,231
-359,869	-162,435	-0,175	-0,006
-358,854	533,233	-0,043	-0,075
-357,839	-200,000	-0,004	0,056
-356,825	-200,000	0,008	-0,035
-355,810	-101,102	0,015	-0,003
-354,796	-10,496	0,068	-0,033
-353,781	-200,000	-0,002	-0,049
-352,766	624,561	-0,020	0,037
-351,752	-18,696	0,060	0,027
-350,737	149,148	-0,063	0,062
-349,723	-11,451	0,024	0,011
-348,708	-200,000	0,006	0,021
-347,693	83,630	-0,062	-0,049
-346,679	-200,000	-0,008	0,037
-345,664	-200,000	-0,003	0,108
-344,650	66,136	-0,135	0,100
-343,635	-120,323	0,079	-0,010
-342,620	-28,806	0,116	-0,048
-341,606	-5,997	0,056	-0,028
-340,591	-200,000	-0,030	0,146
-339,577	-200,000	-0,028	-0,131
-338,562	-200,000	0,013	-0,138
-337,548	800,000	-0,047	0,138
-336,533	240,906	0,072	0,088
-335,518	79,281	0,066	-0,052
-334,504	-21,256	0,085	0,037
-333,489	-25,374	-0,057	0,024
-332,475	-126,920	0,076	-0,008
-331,460	260,165	-0,055	0,070
-330,445	-200,000	-0,008	0,029
-329,431	172,268	-0,094	0,098
-328,416	-200,000	-0,011	0,074
-327,402	24,999	0,064	-0,038
-326,387	-17,585	0,165	0,075
-325,372	94,253	-0,054	0,044
-324,358	-91,622	-0,030	-0,006
-323,343	645,999	-0,027	-0,050
-322,329	-195,942	0,053	-0,000
-321,314	-200,000	0,023	0,093
-320,299	292,339	0,040	-0,053
-319,285	-17,342	0,070	-0,032
-318,270	800,000	0,061	-0,183
-317,256	301,781	-0,014	0,018
-316,241	324,374	-0,051	0,070
-315,226	-200,000	-0,009	0,036
-314,212	800,000	0,040	0,086
-313,197	800,000	-0,026	0,082
-312,183	-55,779	0,080	0,026
-311,168	249,540	-0,095	-0,117
-310,153	142,237	-0,071	0,069
-309,139	-200,000	-0,009	0,172
-308,124	-78,574	-0,043	0,011
-307,110	-200,000	-0,001	0,162
-306,095	93,748	0,039	0,032
-305,080	-49,293	-0,058	-0,020
-304,066	-200,000	0,010	-0,043
-303,051	800,000	0,011	-0,034
-302,037	800,000	-0,018	0,050
-301,022	68,068	0,040	0,029
-300,008	185,460	0,034	-0,037
-298,993	-92,886	0,059	0,012
-297,978	-55,465	0,138	0,045
-296,964	344,167	0,043	-0,062
-295,949	302,142	-0,098	-0,131
-294,935	206,424	0,129	0,146
-293,920	504,280	0,076	-0,129
-292,905	482,609	0,033	-0,055
-291,891	126,526	0,039	-0,035
-290,876	-200,000	0,029	0,097
-289,862	-115,651	0,107	0,014
-288,847	388,287	-0,029	-0,043
-287,832	-178,021	0,068	0,001
-286,818	-200,000	0,002	-0,023
-285,803	-200,000	0,007	-0,076
-284,789	143,524	-0,042	0,041
-283,774	-200,000	0,002	-0,026
-282,759	-107,680	-0,050	0,008
-281,745	800,000	-0,013	0,032
-280,730	260,016	0,022	0,027
-279,716	-22,446	-0,019	0,008
-278,701	54,080	0,065	-0,045
-277,686	-56,326	-0,079	0,025
-276,672	51,615	-0,074	0,051
-275,657	-14,364	-0,067	0,031
-274,643	319,664	-0,027	-0,037
-273,628	662,517	-0,057	-0,108
-272,613	-200,000	0,020	-0,096
-271,599	-200,000	-0,020	0,109
-270,584	-200,000	-0,007	-0,026
-269,570	336,227	-0,012	0,017
-268,555	105,603	-0,068	0,058
-267,540	800,000	0,009	0,024
-266,526	183,140	-0,048	0,052
-265,511	-200,000	0,025	-0,092
-264,497	31,878	-0,025	0,015
-263,482	800,000	-0,052	-0,116
-262,467	-200,000	0,002	-0,006
-261,453	214,751	0,066	0,076
-260,438	140,774	0,066	-0,064
-259,424	800,000	-0,039	-0,079
-258,409	228,707	-0,085	-0,101
-257,395	730,314	-0,032	-0,061
-256,380	29,971	0,167	-0,103
-255,365	-200,000	0,012	0,091
-254,351	-110,097	0,080	-0,012
-253,336	232,344	-0,067	0,079
-252,322	-74,059	-0,124	0,032
-251,307	258,404	0,089	0,111
-250,292	-50,480	0,030	0,010
-249,278	-200,000	0,011	0,099
-248,263	-55,069	-0,056	0,018
-247,249	-161,273	0,019	0,001
-246,234	105,459	-0,026	0,022
-245,219	12,608	-0,038	0,021
-244,205	-60,864	-0,136	0,041
-243,190	-200,000	-0,049	0,167
-242,176	-200,000	0,005	0,123
-241,161	-125,075	0,263	-0,029
-240,146	-34,746	-0,136	0,053
-239,132	800,000	0,063	-0,160
-238,117	-200,000	-0,007	-0,051
-237,103	335,651	0,048	0,068
-236,088	354,011	0,037	-0,053
-235,073	652,487	-0,030	-0,056
-234,059	-11,061	0,129	-0,061
-233,044	-47,234	0,043	-0,015
-232,030	84,015	-0,047	-0,037
-231,015	-150,771	0,095	0,005
-230,000	-10,004	-0,093	-0,045
-228,986	-200,000	-0,014	-0,082
-227,971	-200,000	-0,007	0,148
-226,957	-200,000	-0,036	0,147
-225,942	-200,000	0,023	0,167
-224,927	-45,806	0,086	-0,030
-223,913	800,000	0,047	0,147
-222,898	-67,981	0,040	-0,011
-221,884	-20,507	-0,107	0,047
-220,869	134,024	0,107	0,100
-219,855	-200,000	-0,000	0,041
-218,840	800,000	-0,046	0,131
-217,825	159,364	-0,086	0,087
-216,811	-82,100	0,099	-0,023
-215,796	171,022	-0,056	-0,058
-214,782	-200,000	0,006	-0,146
-213,767	-4,482	-0,021	0,011
-212,752	14,550	-0,146	-0,082
-211,738	82,201	0,164	0,128
-210,723	-200,000	0,017	-0,100
-209,709	800,000	-0,005	0,012
-208,694	-200,000	0,011	-0,102
-207,679	221,111	0,038	0,044
-206,665	-122,191	0,164	0,019
-205,650	24,518	0,075	0,044
-204,636	-72,978	-0,091	0,024
-203,621	800,000	0,035	-0,093
-202,606	800,000	-0,028	-0,068
-201,592	-41,487	-0,078	-0,029
-200,577	405,120	-0,039	-0,059
-199,563	532,103	0,064	-0,109
-198,548	800,000	0,043	0,119
-197,533	-88,498	0,142	-0,030
-196,519	-62,490	-0,095	-0,028
-195,504	-200,000	-0,018	-0,122
-194,490	457,478	0,063	0,101
-193,475	36,994	-0,141	-0,090
-192,460	119,973	-0,055	0,050
-191,446	-200,000	0,013	0,042
-190,431	721,493	-0,028	0,055
-189,417	122,003	0,121	0,109
-188,402	-2,804	-0,098	0,049
-187,387	-200,000	-0,036	-0,123
-186,373	104,519	-0,082	-0,070
-185,358	161,555	0,060	0,061
-184,344	35,109	0,069	-0,043
-183,329	-3,035	0,041	-0,020
-182,315	-88,164	-0,040	-0,009
-181,300	-171,557	0,105	0,002
-180,285	-13,373	-0,111	-0,052
-179,271	-200,000	-0,031	-0,103
-178,256	-200,000	-0,013	-0,113
-177,242	-200,000	0,006	0,173
-176,227	14,207	0,052	0,029
-175,212	-200,000	0,010	-0,105
-174,198	-200,000	0,004	0,039
-173,183	-11,861	-0,064	-0,030
-172,169	800,000	0,016	0,033
-171,154	-21,122	-0,105	0,046
-170,139	-16,515	0,091	0,041
-169,125	-200,000	-0,008	0,000
-168,110	-200,000	-0,018	0,091
-167,096	-200,000	-0,015	0,063
-166,081	-85,417	-0,151	-0,034
-165,066	87,168	0,108	-0,086
-164,052	-29,112	0,045	-0,019
-163,037	-200,000	0,013	-0,166
-162,023	674,070	0,049	0,093
-161,008	-200,000	-0,009	0,103
-159,993	356,149	-0,028	0,040
-158,979	54,517	-0,119	-0,082
-157,964	-200,000	-0,006	-0,119
-156,950	287,421	0,074	-0,096
-155,935	81,038	-0,068	0,053
-154,920	140,748	0,105	0,100
-153,906	-200,000	-0,021	0,102
-152,891	-200,000	0,016	0,116
-151,877	104,751	-0,046	-0,039
-150,862	-200,000	0,001	0,032
-149,847	800,000	0,049	-0,103
-148,833	-99,632	-0,030	-0,005
-147,818	54,584	0,068	0,047
-146,804	720,536	-0,034	-0,065
-145,789	286,905	0,016	-0,021
-144,775	-72,992	0,129	0,034
-143,760	96,901	0,041	-0,034
-142,745	-62,817	-0,107	-0,032
-141,731	-106,565	0,102	-0,016
-140,716	23,118	-0,051	0,030
-139,702	34,599	-0,127	-0,080
-138,687	-0,857	0,168	0,085
-137,672	4,683	-0,072	-0,038
-136,658	244,453	-0,056	-0,068
-135,643	-90,661	-0,156	0,032
-134,629	122,951	0,046	-0,041
-133,614	-28,270	-0,068	0,028
-132,599	-200,000	-0,018	-0,149
-131,585	-200,000	0,014	0,073
-130,570	-200,000	-0,014	0,052
-129,556	64,074	-0,084	-0,061
-128,541	-181,405	0,088	-0,001
-127,526	-200,000	-0,010	-0,097
-126,512	32,553	0,065	-0,041
-125,497	-200,000	-0,013	0,062
-124,483	800,000	-0,080	0,166
-123,468	800,000	0,064	0,160
-122,453	32,942	-0,038	0,023
-121,439	-200,000	-0,039	-0,163
-120,424	-150,412	0,108	-0,006
-119,410	580,129	0,081	-0,144
-118,395	-5,355	-0,071	0,035
-117,380	-200,000	-0,020	-0,122
-116,366	117,209	-0,031	-0,027
-115,351	-146,100	-0,067	0,004
-114,337	89,549	-0,086	-0,069
-113,322	800,000	-0,024	0,074
-112,307	112,233	0,046	-0,040
-111,293	245,552	-0,011	0,013
-110,278	20,097	0,108	0,063
-109,264	-200,000	0,022	-0,083
-108,249	-110,388	-0,144	-0,021
-107,234	-200,000	-0,001	-0,081
-106,220	-124,866	-0,075	0,008
-105,205	525,546	0,051	0,087
-104,191	92,580	0,042	0,034
-103,176	-40,363	-0,143	0,053
-102,162	52,813	-0,035	0,024
-101,147	87,460	-0,149	0,118
-100,132	137,857	-0,032	-0,030
-99,118	-34,761	0,087	0,034
-98,103	-85,894	0,133	-0,029
-97,089	-200,000	0,014	-0,056
-96,074	-61,318	0,062	-0,019
-95,059	800,000	-0,021	-0,059
-94,045	-200,000	-0,018	0,066
-93,030	-200,000	-0,017	0,059
-92,016	800,000	0,071	0,147
-91,001	62,907	-0,129	0,093
-89,986	141,374	0,119	0,113
-88,972	-25,289	0,136	0,058
-87,957	252,183	0,058	-0,071
-86,943	11,092	0,011	-0,006
-85,928	-200,000	-0,003	-0,059
-84,913	-139,495	0,113	-0,009
-83,899	-13,629	-0,112	-0,052
-82,884	48,141	-0,067	0,045
-81,870	162,775	0,029	0,030
-80,855	328,523	0,019	0,026
-79,840	-17,238	0,103	0,046
-78,826	-99,616	-0,176	0,031
-77,811	-200,000	-0,002	-0,022
-76,797	800,000	-0,025	0,079
-75,782	-18,161	-0,059	0,026
-74,767	-200,000	0,014	0,052
-73,753	-114,828	-0,111	0,015
-72,738	-73,453	0,107	-0,028
-71,724	-200,000	-0,064	0,219
-70,709	-26,709	0,042	0,018
-69,694	-200,000	-0,001	-0,044
-68,680	61,927	0,130	0,093
-67,665	282,016	-0,065	-0,084
-66,651	123,606	0,096	-0,087
-65,636	-78,042	0,141	-0,034
-64,622	199,340	-0,066	-0,072
-63,607	281,401	0,015	0,020
-62,592	580,291	0,068	-0,119
-61,578	-200,000	0,001	-0,031
-60,563	-200,000	0,019	0,123
-59,549	-8,033	0,062	0,030
-58,534	-32,680	-1,936	-0,769
-57,519	-200,000	-0,215	-0,943
-56,505	-200,000	-1,315	-5,070
-55,490	-17,075	0,762	0,344
-54,476	800,000	5,303	12,107
-53,461	-200,000	17,322	282,957
-52,446	800,000	724,363	2218,248
-51,432	537,189	1640,672	2806,254
-50,417	111,011	1632,298	1409,574
-49,403	75,198	1286,538	972,023
-48,388	32,435	1028,242	635,684
-47,373	20,161	990,086	571,626
-46,359	18,606	978,166	559,624
-45,344	15,965	974,353	548,776
-44,330	16,223	972,734	548,685
-43,315	15,723	971,010	546,057
-42,300	15,675	969,879	545,243
-41,286	15,649	968,879	544,577
-40,271	15,737	967,612	544,127
-39,257	15,758	966,824	543,732
-38,242	15,700	966,226	543,185
-37,227	15,710	965,214	542,627
-36,213	15,712	964,409	542,160
-35,198	15,734	963,574	541,739
-34,184	15,771	962,761	541,380
-33,169	15,662	961,815	540,476
-32,154	15,737	960,928	540,199
-31,140	15,752	959,886	539,640
-30,125	15,791	959,133	539,321
-29,111	15,709	958,540	538,703
-28,096	15,773	957,892	538,523
-27,082	15,725	957,281	538,003
-26,067	15,740	956,450	537,562
-25,052	15,680	955,630	536,888
-24,038	15,719	954,875	536,568
-23,023	15,704	954,189	536,113
-22,009	15,748	953,502	535,847
-20,994	15,732	953,092	535,544
-19,979	15,753	952,373	535,184
-18,965	15,731	951,800	534,770
-17,950	15,674	951,363	534,321
-16,936	15,652	950,685	533,852
-15,921	15,670	949,893	533,442
-14,906	15,642	949,106	532,890
-13,892	15,614	948,510	532,445
-12,877	15,633	947,800	532,084
-11,863	15,564	947,267	531,547
-10,848	15,599	946,702	531,318
-9,833	15,684	946,259	531,317
-8,819	15,665	945,710	530,928
-7,804	15,649	944,885	530,396
-6,790	15,606	944,240	529,873
-5,775	15,631	943,780	529,675
-4,760	15,640	943,028	529,259
-3,746	15,648	942,465	528,950
-2,731	15,526	941,792	528,165
-1,717	15,487	941,130	527,649
-0,702	15,510	940,463	527,327
0,313	15,221	940,036	526,969
1,327	18,416	937,794	535,732
2,342	27,460	794,881	478,052
3,356	24,159	458,639	270,768
4,371	-2,784	313,529	156,566
5,386	-6,706	295,303	143,498
6,400	-8,560	289,409	138,787
7,415	-9,080	286,852	137,039
8,429	-9,207	285,258	136,141
9,444	-9,279	284,312	135,608
10,459	-9,428	283,792	135,203
11,473	-9,349	283,080	134,928
12,488	-9,323	282,784	134,800
13,502	-9,371	282,059	134,397
14,517	-9,367	281,701	134,218
15,531	-9,457	281,204	133,882
16,546	-9,485	280,874	133,686
17,561	-9,649	280,518	133,348
18,575	-9,414	280,053	133,340
19,590	-9,589	279,615	132,953
20,604	-9,437	279,480	133,021
21,619	-9,616	279,086	132,651
22,634	-9,452	278,549	132,540
23,648	-9,702	278,496	132,265
24,663	-9,580	278,247	132,251
25,677	-9,607	277,903	132,050
26,692	-9,579	277,792	132,012
27,707	-9,583	277,424	131,822
28,721	-9,653	277,119	131,599
29,736	-9,666	276,738	131,394
30,750	-9,579	276,557	131,379
31,765	-9,731	276,392	131,145
32,780	-9,658	276,116	131,071
33,794	-9,657	275,902	130,958
34,809	-9,658	275,600	130,803
35,823	-9,637	275,247	130,643
36,838	-9,779	275,072	130,415
37,853	-9,567	274,847	130,496
38,867	-9,731	274,514	130,173
39,882	-9,737	274,401	130,102
40,896	-9,553	274,040	130,091
41,911	-9,657	273,974	129,951
42,926	-9,608	273,570	129,794
43,940	-9,820	273,378	129,493
44,955	-9,869	273,194	129,348
45,969	-9,985	272,974	129,125
46,984	-9,926	272,705	129,041
47,999	-10,100	272,608	128,822
49,013	-9,980	272,148	128,704
50,028	-10,230	271,966	128,375
51,042	-10,372	271,567	128,044
52,057	-10,475	271,456	127,885
53,071	-10,297	271,210	127,922
54,086	-10,271	271,088	127,877
55,101	-10,006	270,762	127,957
56,115	-10,022	270,749	127,925
57,130	-9,711	270,611	128,134
58,144	-9,386	270,382	128,314
59,159	-9,375	270,101	128,179
60,174	-9,332	269,975	128,147
61,188	-9,359	269,779	128,018
62,203	-9,518	269,477	127,718
63,217	-9,568	269,206	127,532
64,232	-9,586	269,074	127,441
65,247	-9,423	268,783	127,441
66,261	-9,528	268,516	127,207
67,276	-9,683	268,278	126,942
68,290	-9,896	268,072	126,639
69,305	-9,907	267,924	126,547
70,320	-9,860	267,673	126,461
71,334	-9,458	267,364	126,669
72,349	-9,521	267,373	126,605
73,363	-9,395	267,152	126,603
74,378	-9,370	266,926	126,507
75,393	-9,423	266,587	126,288
76,407	-9,624	266,431	126,020
77,422	-9,445	266,173	126,049
78,436	-9,548	265,950	125,839
79,451	-9,286	265,669	125,931
80,466	-9,609	265,489	125,543
81,480	-9,609	265,228	125,409
82,495	-9,696	264,917	125,172
83,509	-9,848	264,966	125,047
84,524	-9,652	264,641	125,059
85,539	-9,912	264,376	124,689
86,553	-9,939	264,168	124,555
87,568	-9,679	263,957	124,678
88,582	-9,562	263,704	124,652
89,597	-9,713	263,680	124,495
90,611	-9,534	263,404	124,513
91,626	-9,444	263,336	124,551
92,641	-9,497	263,080	124,371
93,655	-9,576	262,945	124,226
94,670	-9,552	262,536	124,043
95,684	-9,550	262,577	124,052
96,699	-9,569	262,276	123,883
97,714	-9,633	262,200	123,779
98,728	-9,600	261,880	123,646
99,743	-9,747	261,650	123,396
100,757	-9,892	261,457	123,165
101,772	-9,699	261,245	123,226
102,787	-9,524	260,923	123,217
103,801	-9,584	260,867	123,127
104,816	-9,471	260,783	123,176
105,830	-9,426	260,688	123,160
106,845	-9,512	260,450	122,960
107,860	-9,461	260,257	122,903
108,874	-9,631	260,021	122,631
109,889	-9,501	259,675	122,572
110,903	-9,393	259,654	122,646
111,918	-9,369	259,224	122,453
112,933	-9,524	259,253	122,320
113,947	-9,543	259,085	122,212
114,962	-9,318	258,973	122,346
115,976	-9,592	258,722	121,977
116,991	-9,616	258,457	121,820
118,006	-9,413	258,244	121,887
119,020	-9,579	258,039	121,633
120,035	-9,378	258,053	121,805
121,049	-9,596	257,877	121,520
122,064	-9,452	257,636	121,522
123,079	-9,338	257,278	121,441
124,093	-9,665	257,041	121,034
125,108	-9,627	256,792	120,939
126,122	-9,863	256,599	120,633
127,137	-9,895	256,353	120,478
128,151	-9,899	256,307	120,442
129,166	-9,586	255,995	120,557
130,181	-9,617	255,912	120,480
131,195	-9,597	255,639	120,358
132,210	-9,482	255,566	120,412
133,224	-9,461	255,456	120,368
134,239	-9,426	255,237	120,284
135,254	-9,350	254,999	120,227
136,268	-9,382	254,868	120,127
137,283	-9,818	254,578	119,604
138,297	-9,686	254,216	119,537
139,312	-10,040	254,188	119,208
140,327	-9,671	253,990	119,422
141,341	-9,468	254,036	119,607
142,356	-9,321	253,895	119,656
143,370	-9,201	253,604	119,611
144,385	-9,218	253,336	119,460
145,400	-9,244	253,321	119,420
146,414	-9,283	253,084	119,264
147,429	-9,491	252,945	119,010
148,443	-9,366	252,660	118,972
149,458	-9,304	252,568	118,971
150,473	-9,220	252,382	118,945
151,487	-9,358	252,210	118,735
152,502	-9,557	251,939	118,428
153,516	-9,338	251,858	118,566
154,531	-9,254	251,802	118,600
155,546	-9,164	251,460	118,504
156,560	-9,250	251,219	118,307
157,575	-9,386	250,954	118,057
158,589	-9,440	250,886	117,969
159,604	-9,339	250,715	117,963
160,619	-9,302	250,503	117,884
161,633	-9,299	250,300	117,781
162,648	-9,215	250,190	117,789
163,662	-9,342	250,097	117,628
164,677	-9,115	249,848	117,692
165,692	-9,471	249,826	117,371
166,706	-9,211	249,564	117,456
167,721	-9,220	249,389	117,356
168,735	-9,377	249,303	117,173
169,750	-9,186	248,955	117,159
170,764	-9,293	248,919	117,042
171,779	-9,124	248,863	117,147
172,794	-9,143	248,579	116,986
173,808	-8,987	248,324	116,987
174,823	-9,692	248,133	116,297
175,837	-9,777	247,903	116,108
176,852	-9,510	247,816	116,280
177,867	-9,127	247,704	116,536
178,881	-9,175	247,469	116,375
179,896	-9,028	247,320	116,417
180,910	-9,065	247,153	116,298
181,925	-9,192	247,165	116,187
182,940	-9,224	246,804	115,980
183,954	-9,089	246,774	116,068
184,969	-9,065	246,655	116,022
185,983	-9,011	246,418	115,945
186,998	-9,055	246,265	115,826
188,013	-9,144	246,074	115,652
189,027	-9,043	245,826	115,609
190,042	-9,119	245,797	115,522
191,056	-9,038	245,565	115,469
192,071	-9,187	245,311	115,216
193,086	-9,299	245,280	115,100
194,100	-9,172	245,067	115,094
195,115	-9,095	244,847	115,044
196,129	-9,030	244,783	115,057
197,144	-9,057	244,452	114,869
198,159	-8,944	244,235	114,849
199,173	-9,263	244,204	114,563
200,188	-9,256	243,935	114,432
201,202	-9,483	243,639	114,097
202,217	-9,722	243,367	113,764
203,232	-9,905	243,178	113,516
204,246	-9,358	243,203	113,964
205,261	-8,500	243,081	114,598
206,275	-9,356	242,984	113,843
207,290	-6,854	243,804	116,267
208,304	-1,645	245,446	121,325
209,319	1,017	246,168	123,863
210,334	1,554	246,133	124,275
211,348	1,775	245,901	124,328
212,363	2,071	246,055	124,639
213,377	2,429	245,856	124,820
214,392	2,276	245,701	124,605
215,407	1,961	245,569	124,269
216,421	2,062	245,523	124,317
217,436	2,294	245,182	124,324
218,450	2,432	245,100	124,383
219,465	2,228	244,881	124,095
220,480	1,985	244,779	123,833
221,494	2,204	244,581	123,901
222,509	2,256	244,704	123,995
223,523	2,400	244,217	123,854
224,538	1,679	244,025	123,159
225,553	1,850	243,724	123,135
226,567	1,900	243,894	123,251
227,582	2,235	243,572	123,349
228,596	1,984	243,565	123,131
229,611	1,756	243,172	122,736
230,626	2,036	243,022	122,876
231,640	1,922	243,016	122,770
232,655	2,262	242,812	122,931
233,669	1,960	242,719	122,629
234,684	1,723	242,453	122,292
235,699	2,183	242,449	122,651
236,713	2,236	242,349	122,632
237,728	2,075	242,053	122,342
238,742	2,092	241,759	122,195
239,757	1,972	241,696	122,056
240,772	1,924	241,489	121,902
241,786	1,913	241,365	121,820
242,801	1,778	241,155	121,595
243,815	1,787	240,841	121,433
244,830	1,721	240,955	121,426
245,844	2,373	240,778	121,849
246,859	2,051	240,724	121,552
247,874	2,004	240,463	121,372
248,888	1,994	240,333	121,288
249,903	2,012	240,189	121,219
250,917	2,240	240,076	121,333
251,932	2,365	239,988	121,377
252,947	2,198	239,592	121,033
253,961	1,886	239,472	120,713
254,976	2,063	239,432	120,823
255,990	2,086	239,190	120,709
257,005	1,884	238,903	120,392
258,020	1,605	238,853	120,136
259,034	1,959	238,750	120,354
260,049	2,220	238,567	120,458
261,063	1,693	238,341	119,915
262,078	1,849	238,219	119,967
263,093	2,099	238,026	120,057
264,107	1,989	237,932	119,911
265,122	1,862	237,696	119,682
266,136	2,009	237,846	119,863
267,151	2,192	237,607	119,876
268,166	1,959	237,239	119,496
269,180	1,663	237,193	119,229
270,195	2,455	237,201	119,847
271,209	2,612	237,023	119,869
272,224	2,032	236,759	119,270
273,239	1,865	236,487	118,990
274,253	2,023	236,461	119,090
275,268	1,891	236,354	118,923
276,282	2,254	236,151	119,094
277,297	1,693	236,019	118,578
278,312	2,107	235,653	118,707
279,326	2,026	235,658	118,636
280,341	2,193	235,477	118,665
281,355	2,225	235,335	118,607
282,370	2,315	235,271	118,635
283,384	2,029	235,137	118,334
284,399	2,044	234,960	118,245
285,414	1,829	234,820	117,997
286,428	2,093	234,587	118,074
287,443	2,150	234,580	118,105
288,457	2,347	234,559	118,238
289,472	2,369	234,232	118,079
290,487	2,129	234,056	117,794
291,501	1,979	233,649	117,462
292,516	1,677	233,647	117,216
293,530	1,597	233,523	117,082
294,545	1,962	233,492	117,338
295,560	1,966	233,375	117,272
296,574	1,880	233,085	117,050
297,589	1,810	232,954	116,919
298,603	2,287	232,875	117,237
299,618	2,284	232,701	117,136
300,633	2,104	232,554	116,914
301,647	2,230	232,521	116,984
302,662	2,577	232,430	117,195
303,676	2,762	232,169	117,195
304,691	2,458	232,115	116,923
305,706	2,361	231,940	116,751
306,720	2,491	231,751	116,745
307,735	2,322	231,598	116,528
308,749	2,090	231,365	116,223
309,764	2,085	231,138	116,094
310,779	1,969	230,974	115,913
311,793	1,762	230,836	115,675
312,808	1,889	230,529	115,607
313,822	1,940	230,474	115,609
314,837	1,832	230,312	115,435
315,852	1,592	230,290	115,231
316,866	1,967	230,231	115,476
317,881	2,170	230,239	115,625
318,895	2,350	230,073	115,669
319,910	2,573	230,002	115,792
320,925	2,413	229,532	115,424
321,939	2,194	229,394	115,178
322,954	2,463	229,298	115,323
323,968	2,491	229,078	115,224
324,983	2,300	229,126	115,092
325,997	2,384	228,979	115,072
327,012	2,139	228,689	114,731
328,027	2,073	228,476	114,564
329,041	2,094	228,391	114,527
330,056	2,569	228,508	114,934
331,070	2,872	228,348	115,071
332,085	2,541	228,289	114,782
333,100	2,568	227,891	114,592
334,114	2,449	227,627	114,359
335,129	2,349	227,530	114,225
336,143	2,376	227,471	114,206
337,158	2,510	227,414	114,268
338,173	2,609	227,255	114,252
339,187	2,488	227,041	114,044
340,202	2,508	227,006	114,031
341,216	2,519	226,678	113,864
342,231	2,498	226,525	113,761
343,246	2,406	226,543	113,692
344,260	2,574	226,248	113,658
345,275	2,779	226,259	113,807
346,289	2,520	226,144	113,546
347,304	2,625	226,117	113,601
348,319	2,810	225,967	113,653
349,333	2,399	225,659	113,182
350,348	2,242	225,546	112,999
351,362	2,281	225,352	112,920
352,377	2,106	225,196	112,702
353,392	2,332	225,109	112,816
354,406	2,400	224,919	112,762
355,421	195,935	1319,005	1396,208
356,435	157,052	1452,313	1396,215
