DTS Sentinel unit serial number:	SN410029Multiplexer serial number:	ORYXHardware model number:	OX2-SRSoftware version number:	ORYX F/W v4,00 Oryx Data Collector v3.7.2.0data status	okinstallation	B5 Nyhavnadifferential loss correction	single-endedforward channel	channel 2reverse channel	N/Adate	2023/12/14time	09:27:13forward acquisition time	300,00reverse acquisition time	0,00gamma	499,1914k internal	0,3160k external	0,3160temperature offset calibration	1,0000default loss term (dB/km)	0,3820temperature slope calibration	1,0000multiplexer offset coefficient	1,0000multiplexer slope coefficient	1,0000fibre end	0,00T internal ref (°C)	6,94T ext. ref 1 (°C)	-9,27T ext. ref 2 (°C)	-9,34length (m)	temperature (°C)	Stokes	anti-Stokes-744,400	195,191	0,179	0,201
-743,385	-127,240	-0,436	0,046
-742,371	-16,480	0,241	0,112
-741,356	-128,827	-0,360	-0,037
-740,342	368,163	0,098	0,146
-739,327	-92,037	-0,259	-0,053
-738,312	-200,000	-0,003	0,204
-737,298	-86,799	-0,336	-0,075
-736,283	217,140	0,222	0,261
-735,269	-110,204	-0,367	-0,056
-734,254	-28,367	0,115	0,049
-733,239	-7,558	-0,519	-0,258
-732,225	94,227	0,186	0,155
-731,210	-4,459	0,101	0,051
-730,196	74,404	-0,103	-0,080
-729,181	-200,000	0,003	0,038
-728,167	-38,898	0,149	0,058
-727,152	-15,819	-0,050	-0,023
-726,137	-140,164	-0,051	0,004
-725,123	144,935	-0,061	-0,060
-724,108	-1,333	-0,037	0,019
-723,094	1,299	-0,097	0,051
-722,079	-128,321	-0,106	0,011
-721,064	-200,000	-0,033	-0,132
-720,050	143,243	-0,045	0,044
-719,035	-25,787	-0,088	-0,038
-718,021	-80,389	-0,129	0,031
-717,006	132,921	-0,113	0,107
-715,991	650,318	-0,111	-0,210
-714,977	78,756	-0,025	0,019
-713,962	-72,384	0,083	0,023
-712,948	-200,000	0,009	0,069
-711,933	157,780	0,040	-0,041
-710,918	36,957	0,061	-0,040
-709,904	-200,000	-0,021	-0,090
-708,889	-96,893	-0,152	0,029
-707,875	8,819	0,074	0,041
-706,860	800,000	-0,020	0,046
-705,845	800,000	0,053	0,116
-704,831	627,876	-0,022	0,041
-703,816	-95,110	-0,131	0,026
-702,802	-200,000	0,020	0,084
-701,787	-200,000	-0,016	-0,099
-700,772	-48,536	0,135	0,047
-699,758	87,968	0,036	0,029
-698,743	-125,186	0,095	-0,011
-697,729	314,039	0,092	-0,128
-696,714	-59,191	-0,059	-0,019
-695,699	39,258	-0,085	0,056
-694,685	34,631	0,171	-0,110
-693,670	-24,788	-0,169	0,074
-692,656	227,202	0,064	-0,076
-691,641	-200,000	0,020	0,100
-690,627	233,658	0,093	0,113
-689,612	-200,000	0,038	-0,159
-688,597	123,923	0,089	-0,082
-687,583	13,005	-0,127	0,072
-686,568	28,897	-0,073	0,046
-685,554	275,727	0,017	0,022
-684,539	-200,000	0,004	0,062
-683,524	577,037	-0,055	-0,099
-682,510	-200,000	-0,011	-0,072
-681,495	241,409	0,031	-0,038
-680,481	-177,651	-0,125	-0,002
-679,466	-200,000	-0,018	0,093
-678,451	94,152	0,069	-0,058
-677,437	-200,000	0,007	0,035
-676,422	-59,301	-0,057	-0,018
-675,408	68,793	-0,041	0,031
-674,393	357,974	-0,058	0,085
-673,378	-200,000	-0,014	-0,063
-672,364	-200,000	0,013	-0,123
-671,349	555,744	-0,044	-0,079
-670,335	-75,044	0,138	-0,036
-669,320	99,398	0,140	0,119
-668,305	-93,366	-0,157	0,032
-667,291	100,320	0,104	-0,089
-666,276	188,538	0,054	0,059
-665,262	800,000	-0,031	-0,100
-664,247	28,199	-0,128	-0,079
-663,232	-118,853	-0,035	-0,004
-662,218	-200,000	0,001	0,021
-661,203	-200,000	0,003	-0,064
-660,189	-74,764	0,133	0,035
-659,174	7,302	-0,105	0,058
-658,159	-200,000	0,019	0,114
-657,145	45,897	-0,034	0,023
-656,130	104,893	-0,068	0,059
-655,116	-96,578	0,099	0,019
-654,101	253,398	0,069	-0,086
-653,086	389,331	0,030	-0,045
-652,072	-189,742	-0,183	0,001
-651,057	-116,551	0,117	-0,016
-650,043	-200,000	-0,002	0,075
-649,028	87,991	0,008	-0,007
-648,014	240,213	0,045	-0,055
-646,999	-200,000	0,026	0,173
-645,984	321,724	-0,055	-0,077
-644,970	633,895	0,020	-0,038
-643,955	-200,000	-0,007	-0,216
-642,941	-200,000	0,014	-0,134
-641,926	184,535	-0,098	-0,107
-640,911	-181,306	-0,150	0,002
-639,897	440,005	-0,083	-0,134
-638,882	-100,314	0,112	-0,020
-637,868	-33,052	-0,178	-0,072
-636,853	-200,000	0,026	-0,113
-635,838	-200,000	0,031	-0,106
-634,824	-200,000	-0,002	-0,157
-633,809	-57,850	-0,087	-0,028
-632,795	-13,120	0,171	0,081
-631,780	94,801	0,011	-0,009
-630,765	14,715	-0,055	-0,031
-629,751	-96,714	-0,077	0,015
-628,736	-8,520	-0,127	-0,063
-627,722	-87,418	0,167	0,037
-626,707	-200,000	0,003	0,090
-625,692	-126,973	-0,067	0,007
-624,678	-200,000	-0,004	-0,168
-623,663	390,350	0,016	-0,024
-622,649	63,998	0,028	0,021
-621,634	-200,000	-0,024	-0,197
-620,619	-131,052	-0,112	-0,011
-619,605	800,000	0,050	0,159
-618,590	-200,000	0,012	0,088
-617,576	-24,088	0,088	-0,038
-616,561	560,168	-0,062	-0,110
-615,546	-200,000	-0,037	-0,126
-614,532	-170,885	0,041	-0,001
-613,517	800,000	0,047	0,119
-612,503	-71,169	-0,083	0,023
-611,488	538,904	0,085	-0,149
-610,474	65,972	0,115	0,085
-609,459	47,365	-0,015	0,010
-608,444	-200,000	-0,004	-0,033
-607,430	208,148	0,018	-0,021
-606,415	-70,671	-0,111	-0,030
-605,401	-46,257	0,101	0,036
-604,386	352,077	0,094	0,138
-603,371	-19,795	-0,101	-0,045
-602,357	-200,000	0,001	0,088
-601,342	-200,000	-0,020	0,097
-600,328	25,940	-0,093	-0,056
-599,313	800,000	0,049	-0,133
-598,298	-200,000	0,021	-0,080
-597,284	-144,514	-0,050	-0,003
-596,269	-49,024	0,155	0,054
-595,255	34,632	-0,056	0,036
-594,240	800,000	-0,014	0,042
-593,225	17,968	0,038	-0,022
-592,211	240,400	-0,075	-0,091
-591,196	800,000	0,002	0,004
-590,182	53,266	-0,054	-0,038
-589,167	148,176	0,052	0,051
-588,152	76,094	0,060	0,047
-587,138	94,873	-0,016	-0,013
-586,123	-119,320	-0,095	-0,012
-585,109	96,936	-0,057	0,048
-584,094	800,000	-0,042	-0,092
-583,079	-200,000	-0,011	0,094
-582,065	-81,860	0,027	0,006
-581,050	120,671	-0,063	-0,057
-580,036	210,335	-0,113	0,130
-579,021	599,262	0,030	-0,055
-578,006	-98,857	-0,105	-0,019
-576,992	442,902	0,021	0,033
-575,977	-55,923	0,152	0,049
-574,963	298,933	0,058	0,079
-573,948	-115,729	0,058	0,008
-572,934	84,569	-0,102	0,082
-571,919	-57,922	-0,086	0,027
-570,904	325,821	-0,108	0,152
-569,890	-200,000	-0,007	-0,049
-568,875	-27,280	0,031	0,013
-567,861	-12,760	-0,010	0,005
-566,846	21,562	0,088	0,052
-565,831	-161,721	0,031	0,001
-564,817	-200,000	0,015	-0,074
-563,802	257,423	0,024	0,030
-562,788	-200,000	0,002	0,159
-561,773	-200,000	0,025	-0,108
-560,758	-200,000	0,003	0,050
-559,744	640,705	-0,048	0,089
-558,729	-200,000	0,010	-0,127
-557,715	-55,744	-0,069	-0,022
-556,700	-87,910	-0,064	-0,014
-555,685	-200,000	-0,022	-0,082
-554,671	-112,732	0,064	0,009
-553,656	800,000	0,028	-0,087
-552,642	-113,564	-0,039	-0,006
-551,627	-105,282	0,019	-0,003
-550,612	118,119	-0,028	0,025
-549,598	-7,538	-0,124	-0,061
-548,583	-200,000	0,015	0,079
-547,569	13,379	0,040	0,023
-546,554	-200,000	-0,005	-0,040
-545,539	800,000	0,057	-0,145
-544,525	-107,772	-0,149	-0,023
-543,510	51,707	0,038	0,027
-542,496	29,734	0,031	-0,019
-541,481	288,570	0,031	-0,041
-540,466	211,266	0,043	-0,049
-539,452	21,903	0,107	0,063
-538,437	-200,000	0,041	0,270
-537,423	-200,000	-0,007	0,095
-536,408	352,083	-0,069	-0,101
-535,393	20,728	-0,122	-0,072
-534,379	-41,565	-0,054	0,020
-533,364	322,010	-0,033	0,046
-532,350	-200,000	-0,002	0,171
-531,335	800,000	0,060	0,152
-530,321	-200,000	0,013	0,054
-529,306	19,744	-0,057	0,033
-528,291	10,376	0,014	-0,008
-527,277	-133,470	-0,201	-0,018
-526,262	-170,363	-0,039	-0,001
-525,248	-200,000	-0,002	0,033
-524,233	156,688	-0,070	0,070
-523,218	-31,275	-0,026	-0,011
-522,204	-200,000	-0,005	-0,036
-521,189	-20,238	-0,042	0,019
-520,175	76,920	0,081	-0,062
-519,160	-45,748	0,096	-0,034
-518,145	235,103	0,110	0,133
-517,131	-161,032	0,143	0,005
-516,116	-200,000	-0,011	-0,071
-515,102	11,083	-0,028	-0,016
-514,087	-85,803	0,087	0,019
-513,072	-39,297	-0,104	-0,040
-512,058	353,710	-0,067	0,097
-511,043	-58,808	0,124	0,039
-510,029	18,553	0,090	0,053
-509,014	58,542	-0,062	0,045
-507,999	-10,117	0,115	-0,055
-506,985	800,000	-0,005	-0,012
-505,970	800,000	-0,024	0,049
-504,956	229,504	-0,064	-0,076
-503,941	599,017	0,017	-0,031
-502,926	429,789	-0,074	-0,117
-501,912	-59,822	-0,097	-0,030
-500,897	-117,668	-0,079	0,010
-499,883	102,895	0,150	-0,129
-498,868	-180,278	0,084	0,001
-497,853	800,000	-0,015	-0,049
-496,839	-200,000	-0,023	-0,078
-495,824	-200,000	-0,023	0,079
-494,810	-200,000	-0,012	-0,052
-493,795	-68,904	0,173	-0,048
-492,781	-128,230	-0,106	0,011
-491,766	-200,000	0,001	0,131
-490,751	-13,436	0,077	-0,036
-489,737	74,652	0,079	-0,061
-488,722	114,034	0,039	-0,034
-487,708	-114,076	-0,037	0,005
-486,693	-164,934	0,043	0,001
-485,678	96,907	0,013	0,011
-484,664	129,524	-0,037	0,035
-483,649	252,339	0,089	-0,111
-482,635	-200,000	-0,017	-0,087
-481,620	-56,512	-0,034	0,011
-480,605	410,861	-0,067	0,104
-479,591	301,664	0,133	0,180
-478,576	-200,000	0,014	-0,067
-477,562	-99,270	-0,057	0,010
-476,547	731,206	-0,028	-0,055
-475,532	356,374	-0,046	-0,066
-474,518	213,797	-0,053	0,062
-473,503	221,310	0,066	0,077
-472,489	77,213	0,104	0,080
-471,474	26,336	-0,077	-0,047
-470,459	-200,000	0,010	-0,106
-469,445	-200,000	0,004	-0,032
-468,430	800,000	0,034	-0,073
-467,416	800,000	-0,029	0,089
-466,401	231,480	0,067	0,080
-465,386	4,664	-0,061	0,033
-464,372	4,734	-0,036	0,019
-463,357	-6,478	0,090	0,045
-462,343	800,000	-0,012	-0,039
-461,328	538,595	0,054	0,094
-460,313	-200,000	-0,007	-0,053
-459,299	-125,394	0,081	0,009
-458,284	197,763	0,039	-0,044
-457,270	800,000	0,024	-0,050
-456,255	-11,474	-0,069	0,033
-455,241	-65,421	0,085	-0,025
-454,226	43,569	0,101	0,067
-453,211	-200,000	-0,013	-0,064
-452,197	4,673	0,100	0,053
-451,182	-84,652	-0,029	-0,007
-450,168	-200,000	-0,003	0,076
-449,153	495,171	-0,056	-0,093
-448,138	-15,808	-0,056	-0,026
-447,124	-200,000	-0,024	0,106
-446,109	-172,895	-0,075	-0,002
-445,095	78,605	0,070	0,054
-444,080	-84,767	-0,084	0,019
-443,065	156,774	-0,024	-0,024
-442,051	748,066	-0,071	-0,141
-441,036	106,750	-0,123	0,106
-440,022	800,000	-0,024	-0,049
-439,007	-151,571	0,098	-0,005
-437,992	-200,000	0,019	0,074
-436,978	800,000	0,007	0,017
-435,963	-200,000	-0,000	0,046
-434,949	72,177	-0,112	-0,085
-433,934	-28,278	-0,091	-0,038
-432,919	-200,000	-0,001	0,082
-431,905	-3,803	0,013	-0,006
-430,890	-30,031	-0,060	0,025
-429,876	-21,452	0,116	-0,051
-428,861	39,513	0,057	-0,037
-427,846	-200,000	0,017	-0,148
-426,832	394,113	-0,035	-0,053
-425,817	-200,000	-0,016	-0,067
-424,803	101,754	-0,104	-0,088
-423,788	47,870	-0,117	-0,079
-422,773	158,635	0,068	-0,069
-421,759	-200,000	0,002	0,103
-420,744	-116,968	0,132	-0,017
-419,730	-137,381	-0,152	-0,012
-418,715	-200,000	-0,027	-0,168
-417,701	-200,000	-0,006	-0,071
-416,686	-17,753	0,090	-0,041
-415,671	-163,426	-0,055	-0,002
-414,657	-82,502	-0,106	-0,025
-413,642	81,508	-0,050	-0,039
-412,628	800,000	-0,065	-0,131
-411,613	43,765	0,045	-0,030
-410,598	-200,000	-0,004	-0,043
-409,584	438,953	0,044	-0,071
-408,569	-200,000	-0,025	-0,094
-407,555	800,000	-0,031	0,068
-406,540	-81,234	-0,062	-0,015
-405,525	-200,000	0,005	0,038
-404,511	-62,594	0,071	0,021
-403,496	-150,713	-0,126	-0,007
-402,482	18,542	0,086	0,050
-401,467	800,000	-0,056	-0,118
-400,452	-55,488	-0,061	0,020
-399,438	800,000	-0,018	0,047
-398,423	800,000	-0,014	-0,035
-397,409	734,069	-0,050	-0,097
-396,394	800,000	-0,067	-0,141
-395,379	-200,000	-0,008	0,041
-394,365	311,857	-0,006	0,009
-393,350	-20,074	-0,044	-0,019
-392,336	377,741	0,014	-0,021
-391,321	-200,000	0,015	-0,093
-390,306	706,242	-0,021	-0,041
-389,292	343,057	0,099	0,141
-388,277	79,359	0,047	-0,037
-387,263	350,413	0,075	-0,108
-386,248	-200,000	0,008	0,063
-385,233	-200,000	0,017	0,137
-384,219	-200,000	-0,007	-0,068
-383,204	103,088	-0,025	0,021
-382,190	-171,147	0,089	0,002
-381,175	-200,000	0,001	-0,066
-380,160	-200,000	-0,003	-0,056
-379,146	-13,807	0,051	-0,024
-378,131	142,101	-0,065	0,063
-377,117	-171,200	-0,071	0,002
-376,102	-130,335	0,055	-0,005
-375,088	423,723	-0,070	0,110
-374,073	-137,827	-0,099	-0,008
-373,058	-54,420	0,011	-0,003
-372,044	-200,000	0,007	0,026
-371,029	335,784	0,081	0,114
-370,015	403,677	-0,041	-0,063
-369,000	-146,236	-0,040	-0,003
-367,985	233,260	0,046	0,055
-366,971	-28,598	0,101	-0,042
-365,956	263,899	0,016	-0,021
-364,942	800,000	-0,047	0,102
-363,927	66,220	-0,097	0,071
-362,912	-200,000	-0,015	0,067
-361,898	187,292	0,038	0,041
-360,883	6,568	0,051	0,027
-359,869	-200,000	-0,001	0,066
-358,854	-200,000	0,022	0,131
-357,839	278,813	0,063	0,081
-356,825	-200,000	-0,008	0,087
-355,810	19,739	-0,083	-0,048
-354,796	2,006	0,099	0,052
-353,781	-200,000	-0,016	-0,169
-352,766	93,803	-0,105	-0,087
-351,752	-12,374	-0,045	0,021
-350,737	800,000	-0,047	-0,101
-349,723	365,040	0,070	0,102
-348,708	-200,000	0,006	0,061
-347,693	27,388	-0,110	0,067
-346,679	346,969	-0,021	-0,030
-345,664	-200,000	-0,018	0,081
-344,650	-200,000	0,182	0,000
-343,635	54,044	0,037	-0,026
-342,620	-200,000	0,042	-0,143
-341,606	-146,994	0,109	0,007
-340,591	204,581	0,075	-0,084
-339,577	-81,000	-0,074	-0,018
-338,562	-120,426	-0,053	-0,006
-337,548	-183,752	0,035	0,000
-336,533	249,255	0,080	0,098
-335,518	-200,000	0,023	0,120
-334,504	118,109	0,045	0,040
-333,489	21,984	0,048	0,028
-332,475	9,915	-0,088	-0,048
-331,460	515,177	-0,037	-0,062
-330,445	-200,000	-0,012	0,114
-329,431	-6,450	0,132	0,065
-328,416	586,848	0,027	-0,048
-327,402	-94,652	-0,052	0,010
-326,387	-200,000	-0,003	-0,119
-325,372	-81,687	0,082	-0,019
-324,358	-148,635	-0,043	-0,003
-323,343	-200,000	0,004	0,028
-322,329	100,869	-0,054	-0,045
-321,314	250,167	0,106	0,131
-320,299	-200,000	-0,014	0,053
-319,285	-200,000	-0,002	-0,141
-318,270	-76,278	-0,146	-0,037
-317,256	-2,866	0,077	0,039
-316,241	37,921	-0,108	-0,070
-315,226	-17,232	-0,081	0,037
-314,212	800,000	0,072	0,163
-313,197	85,477	0,069	0,055
-312,183	189,537	-0,039	-0,042
-311,168	308,721	0,027	0,037
-310,153	-79,108	-0,067	-0,016
-309,139	56,457	-0,107	0,075
-308,124	-146,604	0,083	0,005
-307,110	-114,397	-0,145	0,020
-306,095	116,172	-0,051	0,045
-305,080	-75,457	-0,085	0,022
-304,066	15,612	0,024	0,013
-303,051	59,637	0,086	0,062
-302,037	-200,000	-0,007	0,034
-301,022	-84,568	0,072	-0,016
-300,008	-83,396	0,050	0,011
-298,993	248,089	-0,029	-0,035
-297,978	110,720	-0,057	-0,049
-296,964	-200,000	-0,023	-0,134
-295,949	312,638	-0,076	0,103
-294,935	-62,473	-0,036	-0,011
-293,920	-14,938	-0,028	0,013
-292,905	800,000	-0,004	0,010
-291,891	14,676	0,107	0,060
-290,876	236,538	0,053	-0,064
-289,862	-56,833	0,154	0,049
-288,847	800,000	-0,039	0,083
-287,832	-130,028	0,002	0,000
-286,818	-200,000	-0,002	0,104
-285,803	-200,000	-0,030	0,109
-284,789	-44,575	0,080	0,029
-283,774	253,729	-0,071	0,088
-282,759	800,000	-0,015	-0,040
-281,745	193,794	-0,096	-0,106
-280,730	85,056	-0,079	0,062
-279,716	238,674	0,054	0,065
-278,701	-200,000	0,030	0,125
-277,686	-200,000	0,028	-0,095
-276,672	158,861	0,073	-0,074
-275,657	-200,000	-0,004	-0,055
-274,643	800,000	-0,010	-0,026
-273,628	-200,000	-0,001	-0,093
-272,613	-200,000	-0,003	-0,083
-271,599	-13,040	0,088	0,041
-270,584	-200,000	-0,024	0,159
-269,570	214,823	0,098	0,112
-268,555	-3,194	-0,045	0,023
-267,540	224,074	0,044	0,052
-266,526	528,989	-0,082	-0,140
-265,511	-200,000	-0,026	-0,097
-264,497	-115,969	0,065	-0,009
-263,482	449,914	0,067	0,107
-262,467	800,000	0,007	0,014
-261,453	-156,891	0,152	-0,007
-260,438	-46,688	0,079	0,028
-259,424	-200,000	-0,009	0,064
-258,409	-200,000	0,012	0,069
-257,395	-80,176	0,040	-0,010
-256,380	85,470	0,105	0,083
-255,365	256,026	0,024	0,030
-254,351	292,984	-0,054	0,071
-253,336	198,332	0,102	-0,112
-252,322	-86,112	-0,055	0,012
-251,307	800,000	0,049	0,113
-250,292	-71,452	0,031	-0,008
-249,278	-108,071	0,101	-0,016
-248,263	-120,006	-0,041	-0,005
-247,249	9,936	0,129	-0,070
-246,234	64,898	-0,087	-0,064
-245,219	-200,000	-0,013	0,085
-244,205	212,755	-0,061	-0,069
-243,190	-200,000	-0,021	-0,085
-242,176	2,981	0,017	0,009
-241,161	-200,000	0,028	0,106
-240,146	800,000	-0,028	-0,058
-239,132	82,372	-0,106	-0,083
-238,117	-102,154	0,009	0,002
-237,103	-39,137	-0,079	0,030
-236,088	800,000	-0,021	0,049
-235,073	92,898	0,155	0,126
-234,059	800,000	0,026	0,052
-233,044	775,546	-0,031	0,062
-232,030	-183,593	-0,079	0,001
-231,015	-77,712	0,080	0,020
-230,000	592,705	-0,064	-0,114
-228,986	-95,232	0,095	-0,018
-227,971	-112,325	0,060	0,009
-226,957	-198,931	0,075	0,000
-225,942	28,218	0,055	-0,033
-224,927	-200,000	-0,009	0,191
-223,913	-110,484	-0,098	0,014
-222,898	74,171	-0,046	0,035
-221,884	267,704	-0,022	0,027
-220,869	-111,333	0,116	0,017
-219,855	136,134	-0,080	0,076
-218,840	-87,473	0,021	0,005
-217,825	-200,000	-0,017	0,152
-216,811	21,482	0,073	0,043
-215,796	-139,000	-0,143	0,011
-214,782	774,493	0,055	0,109
-213,767	229,565	-0,069	-0,082
-212,752	581,632	0,040	0,071
-211,738	-97,425	0,191	0,036
-210,723	229,830	-0,037	0,044
-209,709	-39,014	0,110	-0,041
-208,694	800,000	-0,024	0,075
-207,679	533,551	-0,038	-0,066
-206,665	800,000	0,039	0,079
-205,650	-114,301	0,101	-0,014
-204,636	158,218	-0,053	0,053
-203,621	800,000	0,019	0,049
-202,606	700,080	-0,073	-0,139
-201,592	800,000	0,046	-0,138
-200,577	-200,000	0,013	-0,095
-199,563	-200,000	0,027	0,141
-198,548	-200,000	-0,003	0,033
-197,533	-67,127	0,127	-0,036
-196,519	-200,000	-0,005	-0,076
-195,504	-200,000	0,012	0,069
-194,490	800,000	-0,043	-0,106
-193,475	-200,000	-0,023	-0,097
-192,460	-92,933	0,066	0,013
-191,446	478,865	0,027	0,044
-190,431	-200,000	-0,015	0,074
-189,417	-88,254	0,064	0,014
-188,402	341,977	-0,011	-0,016
-187,387	-200,000	-0,018	-0,075
-186,373	69,048	-0,145	-0,107
-185,358	800,000	0,049	-0,110
-184,344	287,833	0,028	0,037
-183,329	-99,825	0,082	-0,015
-182,315	211,627	-0,054	0,062
-181,300	46,820	-0,099	-0,066
-180,285	-200,000	-0,055	0,182
-179,271	-61,193	-0,072	-0,022
-178,256	-200,000	0,018	-0,150
-177,242	119,741	0,070	0,063
-176,227	-200,000	0,007	0,048
-175,212	10,490	-0,071	0,039
-174,198	-113,212	0,099	-0,014
-173,183	15,599	-0,040	-0,022
-172,169	-77,150	-0,046	0,012
-171,154	156,179	-0,073	0,072
-170,139	-200,000	-0,011	0,062
-169,125	4,500	0,090	0,047
-168,110	800,000	-0,025	-0,056
-167,096	444,439	-0,113	0,179
-166,081	-200,000	0,020	-0,139
-165,066	-200,000	0,010	-0,096
-164,052	12,717	0,141	-0,078
-163,037	800,000	0,042	-0,107
-162,023	212,467	0,108	-0,123
-161,008	-200,000	0,003	-0,014
-159,993	13,105	-0,145	0,081
-158,979	115,433	-0,068	0,060
-157,964	-200,000	0,002	-0,070
-156,950	800,000	-0,036	-0,085
-155,935	-200,000	-0,019	0,089
-154,920	-200,000	-0,010	-0,048
-153,906	800,000	0,009	-0,022
-152,891	-136,764	-0,049	0,004
-151,877	35,779	0,092	-0,058
-150,862	658,249	-0,062	-0,115
-149,847	11,220	-0,106	0,058
-148,833	656,659	0,002	-0,003
-147,818	800,000	0,076	0,183
-146,804	800,000	0,033	-0,078
-145,789	-200,000	0,016	0,148
-144,775	-65,639	-0,096	0,028
-143,760	434,669	0,032	0,050
-142,745	-200,000	-0,049	-0,196
-141,731	800,000	-0,026	0,071
-140,716	-27,035	0,074	-0,031
-139,702	-49,431	0,139	0,047
-138,687	-200,000	0,007	-0,079
-137,672	-200,000	0,014	0,065
-136,658	800,000	-0,025	0,060
-135,643	372,998	-0,063	-0,092
-134,629	-200,000	-0,011	-0,040
-133,614	-127,309	-0,100	-0,010
-132,599	-123,565	0,069	-0,008
-131,585	-200,000	-0,007	0,133
-130,570	89,048	0,041	-0,033
-129,556	800,000	0,079	-0,168
-128,541	-152,034	-0,225	-0,012
-127,526	94,056	-0,045	0,036
-126,512	-191,777	0,108	0,001
-125,497	23,501	-0,041	0,024
-124,483	464,031	-0,028	0,045
-123,468	-34,484	-0,066	-0,026
-122,453	370,648	-0,044	-0,064
-121,439	-112,615	-0,033	0,005
-120,424	259,935	0,033	-0,041
-119,410	344,908	0,040	0,056
-118,395	78,825	0,113	0,087
-117,380	16,012	0,126	0,071
-116,366	111,599	0,036	-0,031
-115,351	54,241	0,106	0,073
-114,337	213,694	-0,107	0,122
-113,322	440,053	0,010	0,015
-112,307	29,799	-0,071	0,043
-111,293	37,522	-0,063	0,040
-110,278	534,365	0,048	0,083
-109,264	-77,748	0,090	-0,022
-108,249	255,681	0,114	-0,141
-107,234	767,741	0,037	-0,073
-106,220	-108,568	-0,114	0,017
-105,205	285,438	0,083	0,108
-104,191	-200,000	0,022	0,158
-103,176	-70,708	-0,007	-0,002
-102,162	214,487	0,076	0,087
-101,147	-179,602	0,097	0,001
-100,132	288,099	-0,056	0,073
-99,118	383,247	-0,012	0,018
-98,103	-200,000	-0,006	0,087
-97,089	-142,632	0,152	0,011
-96,074	-27,196	0,081	0,034
-95,059	800,000	-0,020	0,039
-94,045	120,309	-0,074	-0,066
-93,030	145,557	-0,050	0,048
-92,016	64,193	0,100	-0,072
-91,001	78,361	-0,110	-0,084
-89,986	800,000	-0,024	-0,053
-88,972	-58,230	-0,083	-0,026
-87,957	800,000	0,051	-0,139
-86,943	-200,000	0,031	-0,103
-85,928	-200,000	-0,011	-0,150
-84,913	-200,000	-0,002	0,057
-83,899	-200,000	-0,003	-0,022
-82,884	-105,150	-0,072	0,012
-81,870	415,750	0,054	0,083
-80,855	-45,041	0,051	-0,018
-79,840	-147,323	-0,120	0,007
-78,826	-200,000	0,012	-0,051
-77,811	-75,328	-0,105	-0,027
-76,797	6,150	0,036	0,019
-75,782	6,895	-0,159	0,085
-74,767	-200,000	-0,018	0,146
-73,753	-200,000	0,011	0,137
-72,738	-75,996	0,097	0,024
-71,724	-200,000	0,024	-0,155
-70,709	800,000	-0,038	0,107
-69,694	736,872	-0,086	0,165
-68,680	626,825	0,060	0,110
-67,665	800,000	0,049	0,114
-66,651	-200,000	-0,006	-0,087
-65,636	-200,000	0,025	-0,079
-64,622	84,510	0,027	0,021
-63,607	-200,000	0,027	-0,105
-62,592	-31,005	-0,136	0,055
-61,578	83,492	0,013	0,010
-60,563	-200,000	-0,003	0,038
-59,549	32,505	-0,034	-0,021
-58,534	125,556	-2,634	-2,385
-57,519	-100,699	0,602	-0,105
-56,505	-200,000	-1,733	-5,525
-55,490	463,182	1,316	2,115
-54,476	800,000	5,344	11,185
-53,461	-200,000	23,207	348,999
-52,446	800,000	766,058	2264,119
-51,432	496,564	1642,868	2718,884
-50,417	92,919	1598,492	1293,931
-49,403	60,477	1253,148	888,377
-48,388	20,941	1005,595	582,967
-47,373	18,384	973,363	555,920
-46,359	11,681	960,392	526,828
-45,344	7,620	957,201	511,914
-44,330	7,965	954,837	511,746
-43,315	7,068	953,040	507,867
-42,300	7,025	952,058	507,186
-41,286	6,951	950,931	506,326
-40,271	6,958	950,060	505,864
-39,257	6,985	949,073	505,406
-38,242	6,993	948,214	504,953
-37,227	6,987	947,327	504,442
-36,213	6,964	946,609	503,966
-35,198	6,965	945,864	503,552
-34,184	7,027	945,065	503,305
-33,169	6,915	944,197	502,466
-32,154	7,041	943,193	502,314
-31,140	6,972	942,487	501,697
-30,125	7,035	941,851	501,540
-29,111	7,005	941,035	500,989
-28,096	6,999	940,350	500,586
-27,082	6,986	939,735	500,196
-26,067	6,942	938,897	499,593
-25,052	6,939	938,044	499,110
-24,038	6,948	937,420	498,785
-23,023	6,961	936,842	498,499
-22,009	6,976	936,087	498,126
-20,994	6,981	935,699	497,916
-19,979	7,021	934,761	497,522
-18,965	6,906	934,295	496,891
-17,950	6,955	933,687	496,702
-16,936	6,879	933,269	496,220
-15,921	6,916	932,495	495,907
-14,906	6,885	931,828	495,433
-13,892	6,901	931,169	495,114
-12,877	6,844	930,655	494,641
-11,863	6,868	929,867	494,278
-10,848	6,831	929,454	493,922
-9,833	6,945	928,797	493,912
-8,819	6,921	928,243	493,524
-7,804	6,806	927,629	492,815
-6,790	6,799	927,138	492,515
-5,775	6,912	926,616	492,570
-4,760	6,931	925,960	492,264
-3,746	6,797	925,305	491,474
-2,731	6,761	924,504	490,918
-1,717	6,674	924,097	490,411
-0,702	6,720	923,194	490,055
0,313	6,551	922,694	490,001
1,327	9,938	920,291	499,230
2,342	18,451	769,349	439,357
3,356	13,298	442,614	245,079
4,371	-12,399	310,485	144,776
5,386	-16,220	293,252	132,890
6,400	-18,348	287,255	128,066
7,415	-18,559	284,695	126,707
8,429	-19,189	282,867	125,272
9,444	-19,156	281,949	124,886
10,459	-19,112	281,352	124,653
11,473	-19,134	280,627	124,300
12,488	-19,206	280,302	124,075
13,502	-19,226	279,784	123,816
14,517	-19,040	279,187	123,718
15,531	-19,162	278,872	123,451
16,546	-18,976	278,418	123,417
17,561	-18,904	277,979	123,280
18,575	-18,753	277,656	123,269
19,590	-18,966	277,387	122,936
20,604	-18,794	277,114	122,967
21,619	-19,051	276,733	122,544
22,634	-18,876	276,355	122,532
23,648	-18,807	276,029	122,441
24,663	-19,025	275,823	122,133
25,677	-19,085	275,740	122,029
26,692	-18,922	275,179	121,923
27,707	-19,068	275,056	121,720
28,721	-18,823	274,727	121,794
29,736	-18,813	274,503	121,693
30,750	-19,091	274,225	121,299
31,765	-18,954	273,943	121,291
32,780	-18,846	273,713	121,280
33,794	-18,920	273,349	121,038
34,809	-18,848	273,262	121,056
35,823	-18,939	272,734	120,726
36,838	-18,853	272,612	120,742
37,853	-19,000	272,482	120,537
38,867	-18,980	272,238	120,437
39,882	-18,937	271,930	120,329
40,896	-18,953	271,765	120,231
41,911	-18,946	271,395	120,063
42,926	-18,753	271,151	120,124
43,940	-19,041	270,847	119,712
44,955	-18,922	270,679	119,737
45,969	-18,921	270,474	119,636
46,984	-18,761	270,321	119,705
47,999	-18,798	269,965	119,503
49,013	-18,985	270,138	119,397
50,028	-18,785	269,676	119,366
51,042	-18,722	269,455	119,315
52,057	-18,721	269,164	119,177
53,071	-18,710	268,971	119,091
54,086	-18,818	268,944	118,969
55,101	-18,745	268,497	118,828
56,115	-18,771	268,424	118,760
57,130	-18,752	268,065	118,608
58,144	-18,922	267,736	118,297
59,159	-18,865	267,367	118,176
60,174	-19,017	267,261	117,980
61,188	-18,856	266,940	117,974
62,203	-18,890	266,870	117,902
63,217	-18,889	266,728	117,829
64,232	-18,830	266,218	117,647
65,247	-18,742	265,968	117,606
66,261	-18,954	265,831	117,343
67,276	-18,903	265,743	117,339
68,290	-18,946	265,571	117,214
69,305	-18,942	265,171	117,031
70,320	-18,769	265,048	117,122
71,334	-18,645	264,732	117,085
72,349	-18,914	264,425	116,695
73,363	-18,880	264,190	116,613
74,378	-18,981	264,083	116,464
75,393	-18,804	263,798	116,487
76,407	-18,825	263,759	116,440
77,422	-18,744	263,175	116,245
78,436	-18,965	263,244	116,066
79,451	-18,741	263,001	116,149
80,466	-18,923	262,875	115,920
81,480	-18,857	262,534	115,819
82,495	-18,713	262,224	115,801
83,509	-18,755	262,205	115,745
84,524	-18,661	261,953	115,707
85,539	-18,809	261,674	115,441
86,553	-18,792	261,631	115,428
87,568	-18,915	261,334	115,177
88,582	-18,628	260,858	115,211
89,597	-18,772	260,919	115,100
90,611	-18,753	260,557	114,947
91,626	-18,805	260,401	114,822
92,641	-18,666	260,168	114,832
93,655	-18,897	259,981	114,534
94,670	-18,854	259,686	114,432
95,684	-18,785	259,631	114,459
96,699	-18,813	259,407	114,326
97,714	-18,638	259,169	114,365
98,728	-18,700	259,095	114,267
99,743	-18,740	258,829	114,104
100,757	-18,758	258,649	113,999
101,772	-18,911	258,528	113,801
102,787	-18,994	258,323	113,627
103,801	-19,000	257,996	113,469
104,816	-18,675	257,654	113,592
105,830	-18,852	257,539	113,377
106,845	-18,912	257,352	113,232
107,860	-18,828	257,362	113,299
108,874	-18,860	256,905	113,060
109,889	-18,784	256,780	113,062
110,903	-18,741	256,511	112,971
111,918	-18,849	256,514	112,868
112,933	-18,870	256,175	112,690
113,947	-18,679	256,006	112,772
114,962	-18,796	255,775	112,559
115,976	-18,679	255,483	112,522
116,991	-18,728	255,273	112,376
118,006	-18,853	255,118	112,190
119,020	-18,950	255,086	112,082
120,035	-18,860	254,821	112,033
121,049	-18,799	254,821	112,076
122,064	-18,776	254,386	111,894
123,079	-18,753	254,196	111,821
124,093	-18,724	254,014	111,756
125,108	-18,895	253,942	111,567
126,122	-18,708	253,580	111,559
127,137	-18,672	253,512	111,550
128,151	-18,672	253,267	111,432
129,166	-18,740	253,139	111,308
130,181	-18,797	252,763	111,083
131,195	-18,655	252,665	111,152
132,210	-18,813	252,450	110,912
133,224	-18,705	252,142	110,859
134,239	-18,674	252,003	110,815
135,254	-18,769	251,762	110,618
136,268	-18,906	251,684	110,457
137,283	-18,681	251,410	110,519
138,297	-18,659	251,363	110,507
139,312	-18,741	251,029	110,281
140,327	-18,735	250,894	110,217
141,341	-18,842	250,620	109,996
142,356	-18,876	250,433	109,874
143,370	-18,753	250,222	109,876
144,385	-18,663	249,912	109,806
145,400	-18,849	249,891	109,631
146,414	-18,779	249,567	109,538
147,429	-18,839	249,354	109,384
148,443	-18,713	249,273	109,444
149,458	-18,784	249,203	109,344
150,473	-18,587	248,939	109,385
151,487	-18,844	248,829	109,110
152,502	-18,947	248,684	108,950
153,516	-18,609	248,352	109,079
154,531	-18,826	248,052	108,755
155,546	-18,570	247,907	108,897
156,560	-18,571	247,771	108,827
157,575	-18,774	247,522	108,537
158,589	-18,751	247,423	108,504
159,604	-18,767	247,175	108,372
160,619	-18,745	246,928	108,272
161,633	-18,812	246,773	108,139
162,648	-18,719	246,740	108,192
163,662	-18,632	246,564	108,178
164,677	-18,609	246,381	108,107
165,692	-18,795	246,256	107,888
166,706	-18,842	246,076	107,760
167,721	-18,780	245,936	107,741
168,735	-18,714	245,698	107,682
169,750	-18,817	245,584	107,537
170,764	-18,574	245,509	107,696
171,779	-18,599	245,251	107,552
172,794	-18,723	245,003	107,332
173,808	-18,655	244,734	107,261
174,823	-18,530	244,787	107,378
175,837	-18,534	244,533	107,253
176,852	-18,740	244,307	106,974
177,867	-18,837	244,197	106,837
178,881	-18,584	243,995	106,947
179,896	-18,546	243,786	106,878
180,910	-18,671	243,575	106,672
181,925	-18,780	243,515	106,547
182,940	-18,753	243,130	106,391
183,954	-18,641	243,054	106,440
184,969	-18,877	243,077	106,247
185,983	-18,658	242,747	106,273
186,998	-18,659	242,679	106,233
188,013	-18,640	242,463	106,144
189,027	-18,774	242,174	105,899
190,042	-18,929	242,078	105,721
191,056	-18,910	241,870	105,636
192,071	-18,800	241,660	105,625
193,086	-18,725	241,485	105,600
194,100	-18,554	241,283	105,642
195,115	-18,628	241,129	105,504
196,129	-18,858	240,896	105,206
197,144	-18,750	240,706	105,202
198,159	-18,713	240,646	105,196
199,173	-18,628	240,254	105,084
200,188	-18,700	240,211	104,998
201,202	-18,607	240,031	104,985
202,217	-18,666	239,945	104,890
203,232	-18,441	239,787	104,994
204,246	-18,829	239,587	104,583
205,261	-18,604	239,381	104,666
206,275	-17,080	239,928	106,127
207,290	-12,051	241,671	110,978
208,304	-5,591	243,770	117,220
209,319	-2,327	244,646	120,306
210,334	-1,315	244,666	121,133
211,348	-0,435	244,862	121,939
212,363	0,182	244,872	122,439
213,377	0,520	244,723	122,629
214,392	0,581	244,620	122,617
215,407	0,887	244,622	122,857
216,421	0,704	244,619	122,695
217,436	0,864	244,336	122,672
218,450	0,997	244,199	122,701
219,465	1,037	244,026	122,636
220,480	1,103	243,953	122,641
221,494	0,925	243,801	122,410
222,509	0,700	243,405	122,018
223,523	0,442	243,302	121,745
224,538	0,264	243,052	121,464
225,553	0,179	242,914	121,316
226,567	0,227	242,762	121,268
227,582	0,471	242,425	121,287
228,596	0,310	242,440	121,153
229,611	0,556	242,193	121,218
230,626	0,444	241,982	121,011
231,640	0,393	241,858	120,897
232,655	0,402	241,700	120,814
233,669	0,332	241,584	120,690
234,684	0,091	241,453	120,419
235,699	0,367	241,268	120,538
236,713	0,261	241,095	120,356
237,728	0,361	240,926	120,341
238,742	0,350	240,677	120,197
239,757	0,204	240,779	120,120
240,772	0,284	240,458	120,013
241,786	0,276	240,278	119,906
242,801	0,145	240,212	119,758
243,815	0,409	240,032	119,868
244,830	0,297	239,857	119,680
245,844	0,460	239,643	119,693
246,859	0,206	239,520	119,419
247,874	0,464	239,436	119,572
248,888	0,182	239,165	119,202
249,903	0,315	239,190	119,309
250,917	0,229	239,102	119,186
251,932	0,407	238,897	119,215
252,947	0,474	238,543	119,081
253,961	0,314	238,521	118,932
254,976	0,367	238,260	118,834
255,990	0,300	238,196	118,738
257,005	0,404	237,902	118,663
258,020	0,506	237,744	118,655
259,034	0,352	237,671	118,486
260,049	0,361	237,581	118,437
261,063	0,333	237,517	118,373
262,078	0,352	237,194	118,216
263,093	0,301	236,986	118,062
264,107	0,344	236,889	118,037
265,122	0,415	236,669	117,972
266,136	0,357	236,583	117,874
267,151	0,455	236,463	117,880
268,166	-0,012	236,412	117,477
269,180	0,330	236,160	117,610
270,195	0,522	235,819	117,580
271,209	0,391	235,794	117,454
272,224	0,429	235,604	117,379
273,239	0,481	235,555	117,385
274,253	0,214	235,390	117,083
275,268	0,317	235,229	117,074
276,282	0,366	235,027	117,001
277,297	0,348	234,809	116,867
278,312	0,377	234,899	116,925
279,326	0,308	234,665	116,744
280,341	0,527	234,405	116,774
281,355	0,328	234,426	116,620
282,370	0,494	234,111	116,582
283,384	0,478	233,974	116,491
284,399	0,263	233,899	116,277
285,414	0,509	233,661	116,338
286,428	0,218	233,681	116,112
287,443	0,396	233,470	116,135
288,457	0,389	233,394	116,081
289,472	0,360	233,220	115,962
290,487	0,477	233,005	115,935
291,501	0,388	232,831	115,770
292,516	0,627	232,515	115,787
293,530	0,388	232,541	115,605
294,545	0,654	232,489	115,774
295,560	0,502	232,350	115,577
296,574	0,474	232,202	115,471
297,589	0,383	232,030	115,306
298,603	0,652	231,789	115,382
299,618	0,528	231,748	115,257
300,633	0,702	231,637	115,325
301,647	0,723	231,318	115,172
302,662	0,584	231,162	114,977
303,676	0,467	231,184	114,888
304,691	0,809	230,997	115,046
305,706	0,691	230,750	114,823
306,720	0,774	230,660	114,831
307,735	0,647	230,530	114,659
308,749	0,643	230,399	114,582
309,764	0,560	230,218	114,417
310,779	0,793	230,104	114,528
311,793	0,714	229,873	114,343
312,808	0,627	229,695	114,178
313,822	0,507	229,522	113,991
314,837	0,510	229,553	113,999
315,852	0,685	229,356	114,023
316,866	0,605	229,290	113,920
317,881	0,735	228,907	113,818
318,895	0,768	228,827	113,792
319,910	0,745	228,720	113,712
320,925	0,620	228,643	113,569
321,939	0,541	228,525	113,440
322,954	0,622	228,288	113,374
323,968	0,784	228,135	113,410
324,983	0,717	228,031	113,298
325,997	0,667	227,828	113,149
327,012	0,826	227,753	113,222
328,027	0,718	227,426	112,968
329,041	0,791	227,355	112,977
330,056	0,762	227,355	112,945
331,070	0,852	227,239	112,945
332,085	0,904	226,946	112,828
333,100	0,757	226,970	112,720
334,114	0,710	226,642	112,511
335,129	0,605	226,533	112,369
336,143	0,885	226,350	112,477
337,158	0,860	226,349	112,449
338,173	0,888	226,165	112,368
339,187	0,962	226,024	112,343
340,202	0,920	225,724	112,152
341,216	0,751	225,756	112,032
342,231	0,675	225,535	111,856
343,246	0,710	225,486	111,848
344,260	0,788	225,329	111,818
345,275	0,915	225,245	111,861
346,289	0,749	225,162	111,686
347,304	0,728	224,947	111,554
348,319	0,799	224,744	111,496
349,333	0,845	224,572	111,435
350,348	0,818	224,472	111,355
351,362	0,818	224,317	111,269
352,377	0,898	224,163	111,241
353,392	0,990	223,932	111,185
354,406	0,920	223,765	111,040
355,421	192,487	1308,649	1373,748
356,435	154,160	1440,665	1373,561
