DTS Sentinel unit serial number:	SN410029Multiplexer serial number:	ORYXHardware model number:	OX2-SRSoftware version number:	ORYX F/W v4,00 Oryx Data Collector v3.7.2.0data status	okinstallation	B5 Nyhavnadifferential loss correction	single-endedforward channel	channel 2reverse channel	N/Adate	2023/12/12time	05:07:13forward acquisition time	300,00reverse acquisition time	0,00gamma	499,1914k internal	0,3157k external	0,3157temperature offset calibration	1,0000default loss term (dB/km)	0,3820temperature slope calibration	1,0000multiplexer offset coefficient	1,0000multiplexer slope coefficient	1,0000fibre end	0,00T internal ref (°C)	15,40T ext. ref 1 (°C)	-1,00T ext. ref 2 (°C)	-1,29length (m)	temperature (°C)	Stokes	anti-Stokes-744,400	-11,301	0,137	0,066
-743,385	-96,027	-0,151	-0,029
-742,371	62,625	0,117	0,086
-741,356	-108,823	-0,163	0,025
-740,342	-59,982	0,136	0,043
-739,327	-130,910	-0,333	-0,032
-738,312	-200,000	0,003	0,040
-737,298	-200,000	-0,253	-0,000
-736,283	300,979	0,030	0,041
-735,269	-48,136	-0,213	0,075
-734,254	31,024	0,102	0,064
-733,239	-22,415	-0,452	-0,201
-732,225	-108,793	0,280	-0,044
-731,210	800,000	-0,038	0,079
-730,196	-200,000	-0,020	-0,104
-729,181	-200,000	0,007	-0,053
-728,167	-82,400	0,039	-0,009
-727,152	-1,023	0,091	-0,047
-726,137	-200,000	-0,030	-0,139
-725,123	74,889	0,053	0,041
-724,108	-200,000	-0,001	-0,085
-723,094	-200,000	-0,016	-0,053
-722,079	-131,400	-0,104	0,010
-721,064	-146,572	0,068	0,004
-720,050	-143,125	-0,076	0,005
-719,035	-41,967	-0,059	0,022
-718,021	107,164	-0,061	-0,053
-717,006	278,133	-0,037	-0,049
-715,991	-136,146	-0,129	-0,011
-714,977	-200,000	-0,016	-0,147
-713,962	-200,000	-0,005	-0,098
-712,948	4,969	-0,083	0,045
-711,933	800,000	-0,020	0,054
-710,918	800,000	0,030	0,069
-709,904	57,319	-0,034	0,025
-708,889	-200,000	0,024	-0,113
-707,875	315,714	-0,084	-0,117
-706,860	-118,600	0,089	-0,011
-705,845	800,000	-0,019	-0,058
-704,831	697,327	-0,023	0,045
-703,816	115,659	-0,070	0,063
-702,802	-10,767	-0,099	-0,048
-701,787	-200,000	-0,023	-0,088
-700,772	-200,000	0,102	0,000
-699,758	-68,692	0,071	0,020
-698,743	800,000	0,043	0,101
-697,729	-108,981	-0,121	-0,019
-696,714	800,000	0,052	-0,115
-695,699	132,330	0,089	-0,085
-694,685	-41,735	0,036	0,014
-693,670	-136,091	-0,132	0,011
-692,656	-11,243	-0,029	0,014
-691,641	-200,000	-0,011	-0,057
-690,627	-117,263	0,139	0,018
-689,612	-126,373	-0,113	0,012
-688,597	-200,000	-0,002	-0,041
-687,583	-99,775	-0,019	-0,004
-686,568	-34,764	0,037	0,015
-685,554	665,186	-0,056	-0,108
-684,539	349,099	-0,143	-0,209
-683,524	94,833	-0,049	0,041
-682,510	414,945	-0,032	0,051
-681,495	-112,617	-0,145	0,021
-680,481	-80,484	-0,090	0,022
-679,466	301,542	0,023	-0,032
-678,451	-144,925	0,065	0,004
-677,437	-9,192	-0,093	-0,046
-676,422	502,102	0,036	-0,061
-675,408	-75,838	-0,056	0,014
-674,393	-5,110	0,093	0,047
-673,378	-79,598	-0,047	-0,012
-672,364	800,000	-0,049	-0,146
-671,349	131,953	-0,096	-0,090
-670,335	-200,000	-0,034	0,138
-669,320	-5,180	0,098	0,049
-668,305	166,507	-0,119	0,124
-667,291	83,066	0,097	-0,078
-666,276	-200,000	0,028	-0,116
-665,262	226,888	-0,078	-0,093
-664,247	-79,429	-0,066	0,016
-663,232	-200,000	-0,008	-0,054
-662,218	-46,740	0,135	0,048
-661,203	67,811	-0,091	0,068
-660,189	271,045	-0,047	0,061
-659,174	309,716	0,058	-0,081
-658,159	542,604	0,045	-0,080
-657,145	-200,000	-0,002	-0,195
-656,130	-171,451	0,174	0,004
-655,116	-142,801	-0,075	-0,005
-654,101	317,437	0,106	0,148
-653,086	-135,350	-0,025	0,002
-652,072	-141,276	0,036	-0,003
-651,057	-8,228	-0,217	0,107
-650,043	-200,000	0,023	-0,099
-649,028	-200,000	0,004	-0,022
-648,014	-12,221	0,055	0,026
-646,999	561,273	0,034	0,061
-645,984	9,113	-0,086	0,048
-644,970	-107,482	-0,073	0,012
-643,955	-200,000	-0,017	-0,149
-642,941	391,835	-0,035	-0,054
-641,926	88,308	-0,031	0,026
-640,911	-10,779	0,148	-0,072
-639,897	-89,946	0,038	0,008
-638,882	-5,980	-0,150	0,075
-637,868	713,402	-0,067	-0,132
-636,853	9,548	-0,136	-0,076
-635,838	173,081	0,073	0,077
-634,824	757,076	-0,068	-0,136
-633,809	-109,305	0,006	-0,001
-632,795	60,390	0,082	0,060
-631,780	-200,000	0,008	0,080
-630,765	-200,000	-0,011	-0,098
-629,751	-123,288	-0,127	0,015
-628,736	-200,000	-0,009	-0,087
-627,722	800,000	0,031	0,083
-626,707	-200,000	-0,024	0,134
-625,692	639,080	-0,085	-0,159
-624,678	65,473	0,075	-0,056
-623,663	-200,000	-0,003	-0,079
-622,649	224,890	0,039	-0,046
-621,634	240,699	-0,069	0,085
-620,619	176,813	0,080	-0,085
-619,605	-167,233	-0,010	0,000
-618,590	56,005	0,084	0,060
-617,576	-92,933	0,079	0,016
-616,561	31,554	-0,043	-0,027
-615,546	-136,904	0,079	-0,007
-614,532	157,194	-0,014	-0,014
-613,517	-200,000	0,019	-0,074
-612,503	-59,890	0,048	0,015
-611,488	800,000	0,007	-0,019
-610,474	-200,000	-0,013	0,112
-609,459	800,000	-0,055	0,131
-608,444	1,348	0,037	-0,019
-607,430	-14,145	-0,098	0,046
-606,415	-42,813	-0,071	0,026
-605,401	48,622	-0,084	0,058
-604,386	422,663	0,106	-0,167
-603,371	-200,000	0,033	-0,141
-602,357	-200,000	-0,014	-0,099
-601,342	600,590	-0,044	-0,080
-600,328	-200,000	-0,013	0,056
-599,313	62,078	-0,166	-0,121
-598,298	-23,487	0,114	-0,050
-597,284	113,338	0,045	0,040
-596,269	-6,516	0,038	-0,019
-595,255	131,312	-0,070	0,066
-594,240	21,391	-0,153	-0,091
-593,225	204,883	0,063	-0,072
-592,211	800,000	-0,012	0,035
-591,196	22,891	0,127	-0,076
-590,182	-43,354	-0,058	0,021
-589,167	219,785	0,053	-0,063
-588,152	397,916	-0,027	0,041
-587,138	-200,000	-0,010	-0,133
-586,123	-200,000	0,002	-0,231
-585,109	-200,000	-0,003	-0,038
-584,094	-200,000	0,021	-0,077
-583,079	-200,000	-0,010	-0,064
-582,065	800,000	-0,035	0,105
-581,050	800,000	0,050	0,147
-580,036	-48,511	-0,016	0,006
-579,021	35,558	0,059	-0,038
-578,006	136,072	-0,058	-0,055
-576,992	108,622	-0,088	-0,077
-575,977	-200,000	0,026	0,090
-574,963	-200,000	-0,005	0,025
-573,948	130,912	-0,101	0,095
-572,934	-86,724	0,109	-0,024
-571,919	-22,913	-0,051	-0,022
-570,904	368,025	-0,038	-0,057
-569,890	-200,000	-0,011	-0,130
-568,875	406,654	-0,011	0,017
-567,861	438,415	-0,094	-0,151
-566,846	50,005	0,116	0,080
-565,831	800,000	0,032	0,083
-564,817	223,850	0,027	0,032
-563,802	406,877	-0,076	-0,118
-562,788	379,157	-0,082	-0,123
-561,773	-200,000	0,004	0,028
-560,758	29,650	0,050	0,031
-559,744	-200,000	-0,010	-0,051
-558,729	800,000	-0,034	0,107
-557,715	475,817	-0,035	0,058
-556,700	-143,729	0,083	-0,006
-555,685	-200,000	0,008	0,031
-554,671	-200,000	0,028	-0,149
-553,656	-75,588	0,033	-0,009
-552,642	414,304	0,010	-0,015
-551,627	39,118	-0,038	0,025
-550,612	-200,000	0,015	0,059
-549,598	58,691	-0,096	-0,069
-548,583	-200,000	0,022	0,074
-547,569	120,024	0,083	-0,076
-546,554	214,710	0,079	-0,092
-545,539	161,961	-0,105	-0,107
-544,525	-38,505	0,101	0,039
-543,510	800,000	0,016	-0,047
-542,496	-130,855	-0,049	0,005
-541,481	800,000	-0,018	0,056
-540,466	-200,000	-0,010	0,040
-539,452	-58,533	0,106	0,034
-538,437	-200,000	-0,006	-0,034
-537,423	251,604	0,055	0,069
-536,408	527,280	-0,061	0,105
-535,393	800,000	0,026	-0,056
-534,379	-58,473	0,013	-0,004
-533,364	506,085	0,043	0,073
-532,350	38,273	0,080	0,052
-531,335	800,000	0,042	0,114
-530,321	-134,140	0,029	0,003
-529,306	516,971	-0,033	-0,056
-528,291	800,000	0,006	0,013
-527,277	800,000	-0,027	-0,087
-526,262	-170,469	-0,089	0,002
-525,248	-200,000	0,004	0,046
-524,233	-200,000	0,029	-0,096
-523,218	800,000	-0,037	-0,114
-522,204	-200,000	0,026	0,108
-521,189	182,239	-0,005	-0,006
-520,175	287,851	0,031	-0,042
-519,160	800,000	-0,038	-0,117
-518,145	-114,278	0,052	-0,007
-517,131	14,620	0,145	0,082
-516,116	116,121	-0,064	0,057
-515,102	268,195	0,068	-0,088
-514,087	327,996	-0,033	0,047
-513,072	314,821	-0,118	-0,163
-512,058	29,233	-0,032	0,020
-511,043	299,556	-0,023	-0,030
-510,029	579,954	0,029	0,053
-509,014	497,915	0,027	-0,046
-507,999	-96,098	-0,021	0,004
-506,985	117,506	-0,061	-0,055
-505,970	406,678	-0,058	-0,089
-504,956	14,015	-0,082	0,047
-503,941	86,392	-0,188	0,151
-502,926	-111,763	0,029	-0,004
-501,912	-12,672	-0,036	0,017
-500,897	-59,935	0,085	0,026
-499,883	-112,266	-0,090	-0,013
-498,868	800,000	-0,012	0,029
-497,853	-200,000	-0,029	-0,097
-496,839	557,179	0,076	0,134
-495,824	-200,000	-0,011	-0,103
-494,810	-200,000	-0,008	0,060
-493,795	-159,684	-0,100	0,004
-492,781	19,104	-0,077	-0,045
-491,766	-93,577	0,051	0,010
-490,751	392,975	-0,091	-0,139
-489,737	251,728	0,047	-0,059
-488,722	49,209	-0,068	-0,046
-487,708	196,263	-0,010	0,011
-486,693	115,602	0,017	0,015
-485,678	139,709	-0,070	0,068
-484,664	800,000	-0,092	-0,228
-483,649	-99,335	0,031	0,006
-482,635	800,000	0,065	0,133
-481,620	-200,000	0,010	0,088
-480,605	181,507	0,020	-0,021
-479,591	-200,000	-0,001	0,013
-478,576	-200,000	0,010	0,071
-477,562	800,000	-0,034	-0,081
-476,547	-83,620	-0,139	0,032
-475,532	-31,021	0,027	0,011
-474,518	-200,000	0,016	0,117
-473,503	-101,360	0,163	-0,029
-472,489	-140,445	0,150	0,011
-471,474	800,000	-0,018	-0,042
-470,459	-129,177	-0,071	-0,007
-469,445	388,552	0,067	-0,102
-468,430	-200,000	-0,010	-0,041
-467,416	122,671	-0,118	-0,108
-466,401	-200,000	0,005	-0,190
-465,386	800,000	-0,041	0,100
-464,372	-186,887	-0,133	0,001
-463,357	187,904	-0,014	-0,016
-462,343	-200,000	0,026	0,109
-461,328	709,284	0,048	0,093
-460,313	-19,034	0,089	-0,040
-459,299	-200,000	-0,011	-0,101
-458,284	-200,000	0,005	0,024
-457,270	-8,878	0,044	0,021
-456,255	757,247	-0,036	0,070
-455,241	-90,600	-0,086	-0,018
-454,226	-200,000	0,005	0,032
-453,211	117,533	0,009	-0,008
-452,197	-47,891	0,127	0,045
-451,182	-200,000	-0,019	0,068
-450,168	-48,649	0,058	-0,020
-449,153	10,578	-0,059	0,033
-448,138	-200,000	-0,023	0,120
-447,124	800,000	-0,026	-0,068
-446,109	800,000	0,071	-0,225
-445,095	-146,591	0,134	0,008
-444,080	-179,042	-0,021	0,000
-443,065	9,891	-0,107	0,059
-442,051	26,452	-0,101	-0,061
-441,036	-25,225	-0,119	0,051
-440,022	-131,425	-0,058	-0,005
-439,007	223,968	0,111	0,131
-437,992	615,942	-0,031	0,057
-436,978	37,381	0,092	-0,059
-435,963	542,602	0,082	0,143
-434,949	-131,220	0,094	-0,009
-433,934	-51,515	0,017	0,006
-432,919	-80,193	0,100	0,024
-431,905	-200,000	-0,001	0,070
-430,890	-34,732	-0,033	0,013
-429,876	100,690	0,055	-0,047
-428,861	581,304	-0,030	0,053
-427,846	-200,000	-0,016	0,156
-426,832	88,097	0,038	-0,030
-425,817	-28,926	-0,046	0,019
-424,803	800,000	-0,026	0,075
-423,788	-200,000	-0,016	-0,096
-422,773	-85,318	-0,021	0,005
-421,759	800,000	0,066	0,142
-420,744	-200,000	0,007	-0,046
-419,730	-18,497	-0,109	-0,049
-418,715	-19,144	-0,024	0,011
-417,701	-58,006	-0,052	0,016
-416,686	27,690	0,139	0,085
-415,671	438,790	-0,064	-0,101
-414,657	-115,009	-0,029	-0,004
-413,642	800,000	-0,045	-0,107
-412,628	-112,796	0,080	-0,011
-411,613	-130,085	0,034	-0,003
-410,598	-94,675	-0,024	0,005
-409,584	148,639	0,097	-0,096
-408,569	800,000	0,027	-0,063
-407,555	312,003	-0,034	0,047
-406,540	-86,956	0,103	0,023
-405,525	33,747	0,064	-0,040
-404,511	423,059	-0,087	-0,137
-403,496	-200,000	0,006	0,028
-402,482	-62,789	-0,153	0,046
-401,467	-200,000	0,016	0,117
-400,452	63,606	0,116	0,085
-399,438	89,668	0,104	-0,084
-398,423	156,830	-0,039	-0,039
-397,409	800,000	-0,023	-0,053
-396,394	800,000	0,033	-0,096
-395,379	67,093	-0,077	0,057
-394,365	71,536	-0,080	-0,060
-393,350	156,951	0,088	0,088
-392,336	84,154	0,041	-0,032
-391,321	-43,630	-0,085	0,031
-390,306	-14,907	0,021	0,010
-389,292	-200,000	-0,020	-0,068
-388,277	319,793	-0,017	-0,023
-387,263	-200,000	-0,030	0,111
-386,248	-74,388	0,178	0,046
-385,233	-75,300	-0,034	-0,009
-384,219	705,283	0,059	0,115
-383,204	463,730	-0,065	-0,105
-382,190	-106,638	-0,138	0,022
-381,175	-170,004	-0,065	0,002
-380,160	800,000	-0,027	0,086
-379,146	-173,729	0,132	-0,003
-378,131	800,000	0,039	0,088
-377,117	-200,000	-0,019	0,102
-376,102	64,064	0,098	-0,072
-375,088	-200,000	0,025	-0,181
-374,073	150,336	-0,058	-0,057
-373,058	427,795	0,050	0,079
-372,044	8,213	0,074	-0,041
-371,029	668,112	-0,053	0,099
-370,015	21,411	-0,048	0,028
-369,000	-200,000	-0,013	0,067
-367,985	-200,000	0,015	-0,191
-366,971	-144,195	0,099	0,007
-365,956	43,442	0,066	0,044
-364,942	-200,000	-0,005	-0,021
-363,927	-29,932	0,107	0,044
-362,912	304,660	0,023	-0,031
-361,898	-97,465	-0,151	-0,028
-360,883	-200,000	-0,009	0,083
-359,869	-108,554	0,074	-0,011
-358,854	-161,701	0,057	0,002
-357,839	-113,892	0,107	-0,015
-356,825	800,000	-0,051	-0,124
-355,810	499,652	0,034	-0,057
-354,796	72,884	-0,034	-0,026
-353,781	-62,670	-0,060	0,018
-352,766	800,000	-0,021	-0,062
-351,752	-66,078	0,160	0,046
-350,737	-200,000	0,025	0,134
-349,723	-19,787	0,141	0,063
-348,708	-200,000	0,018	-0,141
-347,693	800,000	-0,011	-0,022
-346,679	-200,000	0,002	0,125
-345,664	376,982	-0,107	-0,160
-344,650	-138,164	0,064	0,005
-343,635	-17,954	-0,119	-0,054
-342,620	103,910	0,174	0,148
-341,606	800,000	-0,007	-0,021
-340,591	0,159	0,083	-0,043
-339,577	800,000	-0,086	0,188
-338,562	-42,883	0,078	0,029
-337,548	800,000	0,041	0,083
-336,533	-47,356	0,053	-0,019
-335,518	-200,000	-0,009	0,212
-334,504	46,461	0,061	0,041
-333,489	800,000	-0,025	-0,073
-332,475	165,487	0,053	0,054
-331,460	800,000	-0,014	0,041
-330,445	-113,476	-0,109	-0,015
-329,431	-2,657	0,084	0,043
-328,416	-129,780	0,046	0,005
-327,402	800,000	0,052	0,133
-326,387	-200,000	-0,027	0,162
-325,372	-200,000	0,008	-0,173
-324,358	269,248	0,011	-0,014
-323,343	64,393	-0,139	0,101
-322,329	12,512	-0,082	0,046
-321,314	423,372	-0,073	0,114
-320,299	617,156	0,024	-0,043
-319,285	800,000	0,036	0,074
-318,270	800,000	-0,053	-0,157
-317,256	229,533	0,094	-0,112
-316,241	-70,312	-0,133	0,036
-315,226	131,236	0,067	0,062
-314,212	-200,000	0,006	0,045
-313,197	387,021	0,047	-0,070
-312,183	-200,000	-0,032	-0,182
-311,168	-200,000	0,023	-0,101
-310,153	208,551	-0,104	0,118
-309,139	-200,000	0,002	0,073
-308,124	-53,104	0,044	0,014
-307,110	144,666	-0,072	0,070
-306,095	363,629	0,066	-0,096
-305,080	-130,394	0,080	-0,008
-304,066	18,912	-0,066	0,038
-303,051	99,481	-0,084	0,070
-302,037	646,573	0,018	0,033
-301,022	-138,848	-0,119	-0,009
-300,008	-41,125	0,106	-0,039
-298,993	18,376	0,060	0,034
-297,978	-37,817	0,083	-0,032
-296,964	-200,000	0,009	-0,037
-295,949	552,977	-0,070	0,123
-294,935	-200,000	0,003	-0,093
-293,920	-76,725	0,098	-0,025
-292,905	-20,174	0,049	-0,022
-291,891	32,842	-0,020	0,012
-290,876	-200,000	-0,016	0,074
-289,862	-200,000	0,008	-0,045
-288,847	-118,434	-0,091	-0,011
-287,832	-200,000	0,001	-0,013
-286,818	-200,000	-0,011	-0,036
-285,803	169,077	-0,053	-0,055
-284,789	-164,519	-0,102	-0,003
-283,774	754,776	0,081	0,159
-282,759	-36,254	-0,103	-0,040
-281,745	-143,542	0,088	0,006
-280,730	279,306	-0,044	-0,057
-279,716	-23,768	0,028	-0,012
-278,701	91,084	0,110	-0,089
-277,686	185,742	0,053	-0,057
-276,672	800,000	0,033	-0,077
-275,657	204,599	-0,050	0,056
-274,643	-56,775	-0,126	-0,040
-273,628	75,053	0,057	-0,043
-272,613	-106,451	0,077	0,012
-271,599	800,000	0,038	0,107
-270,584	77,920	0,040	0,031
-269,570	18,013	-0,083	0,048
-268,555	2,510	0,080	0,042
-267,540	508,502	-0,042	-0,071
-266,526	39,292	-0,060	-0,039
-265,511	242,337	-0,055	0,067
-264,497	-200,000	0,097	0,000
-263,482	-34,968	-0,105	-0,041
-262,467	-200,000	0,004	-0,060
-261,453	189,639	-0,058	0,063
-260,438	461,042	0,061	0,099
-259,424	350,831	0,034	0,049
-258,409	64,989	-0,109	-0,080
-257,395	62,908	-0,083	0,060
-256,380	-78,050	0,054	0,013
-255,365	292,299	-0,032	-0,043
-254,351	562,208	-0,068	0,120
-253,336	711,638	-0,042	0,081
-252,322	124,802	-0,058	0,053
-251,307	298,897	-0,037	0,049
-250,292	-52,831	0,037	0,012
-249,278	-25,839	0,033	0,014
-248,263	-78,112	-0,072	0,018
-247,249	-107,532	0,155	-0,024
-246,234	-61,384	-0,088	0,027
-245,219	-83,111	-0,012	-0,003
-244,205	800,000	-0,073	-0,211
-243,190	8,507	0,119	0,065
-242,176	-200,000	0,002	-0,047
-241,161	34,132	-0,070	-0,044
-240,146	-200,000	0,001	0,066
-239,132	-200,000	0,004	0,057
-238,117	-200,000	-0,017	-0,123
-237,103	17,732	0,095	0,054
-236,088	-200,000	0,014	0,065
-235,073	38,228	0,081	0,052
-234,059	-200,000	0,024	0,131
-233,044	-89,191	0,095	0,020
-232,030	-52,257	-0,076	0,025
-231,015	-80,853	-0,098	-0,023
-230,000	153,077	0,063	-0,063
-228,986	522,374	-0,052	-0,088
-227,971	332,467	-0,035	0,049
-226,957	32,125	0,190	-0,118
-225,942	-200,000	0,000	-0,105
-224,927	800,000	0,035	-0,086
-223,913	382,114	-0,091	-0,135
-222,898	45,840	-0,065	-0,043
-221,884	95,816	-0,018	0,015
-220,869	-42,827	0,109	0,040
-219,855	-200,000	0,023	-0,133
-218,840	-3,202	-0,070	0,035
-217,825	-200,000	0,015	0,065
-216,811	-200,000	0,006	0,040
-215,796	-200,000	0,019	-0,081
-214,782	378,702	-0,063	-0,093
-213,767	800,000	-0,026	-0,053
-212,752	-85,144	0,095	0,021
-211,738	182,217	0,015	0,016
-210,723	302,077	0,045	0,060
-209,709	-200,000	-0,001	0,042
-208,694	192,932	-0,179	0,195
-207,679	-32,456	-0,097	0,039
-206,665	87,275	0,088	0,070
-205,650	-138,422	0,111	-0,009
-204,636	-84,201	-0,071	-0,016
-203,621	39,809	0,063	0,041
-202,606	-200,000	-0,005	-0,099
-201,592	800,000	-0,044	-0,123
-200,577	-31,151	-0,065	-0,026
-199,563	737,761	-0,028	-0,054
-198,548	610,962	0,089	0,162
-197,533	-200,000	0,007	0,186
-196,519	392,692	0,045	0,067
-195,504	258,268	0,081	-0,101
-194,490	172,210	0,038	-0,039
-193,475	-200,000	0,003	0,034
-192,460	161,663	0,056	-0,056
-191,446	454,729	0,070	0,112
-190,431	170,082	-0,040	0,042
-189,417	-200,000	-0,019	0,137
-188,402	-200,000	-0,017	-0,060
-187,387	216,941	-0,045	-0,051
-186,373	241,899	-0,043	-0,052
-185,358	-7,793	0,022	-0,011
-184,344	-200,000	-0,038	0,179
-183,329	-81,473	0,103	-0,024
-182,315	-200,000	-0,006	-0,026
-181,300	-200,000	-0,007	0,043
-180,285	-200,000	-0,078	0,000
-179,271	-133,057	0,155	-0,014
-178,256	-200,000	-0,016	0,104
-177,242	531,838	-0,023	-0,040
-176,227	264,088	0,119	0,149
-175,212	-200,000	-0,011	0,073
-174,198	800,000	-0,046	-0,105
-173,183	403,956	-0,060	-0,092
-172,169	-6,436	0,063	0,031
-171,154	800,000	-0,004	0,010
-170,139	172,272	0,068	0,071
-169,125	116,981	0,100	0,089
-168,110	800,000	-0,029	0,084
-167,096	800,000	0,040	0,091
-166,081	17,486	-0,019	0,011
-165,066	-42,777	-0,144	-0,053
-164,052	800,000	0,051	-0,105
-163,037	622,238	-0,036	0,065
-162,023	-200,000	-0,014	-0,081
-161,008	271,447	0,051	-0,065
-159,993	43,343	-0,032	-0,021
-158,979	-95,236	-0,112	0,022
-157,964	800,000	-0,034	0,083
-156,950	164,110	-0,117	0,119
-155,935	207,370	-0,044	-0,049
-154,920	-83,698	0,061	0,014
-153,906	109,626	-0,088	0,076
-152,891	639,679	0,009	0,017
-151,877	-200,000	0,009	0,097
-150,862	88,414	-0,113	-0,091
-149,847	437,438	0,024	-0,038
-148,833	21,994	0,021	0,012
-147,818	-123,331	-0,031	-0,004
-146,804	221,624	0,030	-0,035
-145,789	530,946	-0,036	0,061
-144,775	-83,750	0,141	0,032
-143,760	173,332	-0,033	-0,034
-142,745	-120,927	-0,051	-0,006
-141,731	17,202	-0,140	0,080
-140,716	188,515	-0,071	0,076
-139,702	776,816	-0,030	0,059
-138,687	290,232	0,050	0,066
-137,672	-89,569	0,013	-0,003
-136,658	-155,615	-0,039	0,002
-135,643	363,691	-0,059	-0,086
-134,629	345,827	-0,083	0,117
-133,614	-200,000	0,020	0,065
-132,599	-200,000	-0,001	-0,119
-131,585	-200,000	-0,001	0,034
-130,570	259,042	-0,084	0,105
-129,556	-144,238	0,026	-0,002
-128,541	221,965	-0,042	-0,049
-127,526	310,966	-0,046	0,062
-126,512	38,281	0,043	0,027
-125,497	77,102	-0,046	0,035
-124,483	-143,501	0,090	-0,006
-123,468	800,000	0,060	-0,174
-122,453	31,480	-0,055	0,034
-121,439	275,317	-0,077	0,099
-120,424	-41,140	0,071	-0,026
-119,410	154,369	-0,103	-0,102
-118,395	800,000	0,053	0,158
-117,380	372,077	-0,047	0,069
-116,366	-9,774	0,028	0,013
-115,351	-81,395	-0,135	0,032
-114,337	-200,000	0,005	-0,029
-113,322	501,177	0,046	0,076
-112,307	800,000	-0,068	0,164
-111,293	-117,160	0,162	-0,021
-110,278	-161,090	0,036	-0,001
-109,264	-84,423	0,067	0,015
-108,249	-200,000	-0,012	-0,102
-107,234	27,716	-0,201	0,121
-106,220	261,339	0,048	0,060
-105,205	368,586	0,030	0,044
-104,191	94,786	0,069	0,057
-103,176	18,364	0,047	0,027
-102,162	-78,145	-0,075	-0,018
-101,147	324,628	-0,073	-0,100
-100,132	252,796	-0,039	-0,048
-99,118	800,000	-0,028	-0,079
-98,103	-200,000	-0,004	-0,013
-97,089	-139,713	-0,027	-0,002
-96,074	253,021	0,008	0,010
-95,059	71,001	-0,081	-0,060
-94,045	368,257	0,033	0,048
-93,030	22,832	-0,183	-0,108
-92,016	-32,084	-0,173	-0,069
-91,001	800,000	0,029	0,057
-89,986	64,029	0,075	0,054
-88,972	62,248	0,190	0,136
-87,957	-25,176	-0,032	-0,014
-86,943	-163,157	-0,120	-0,004
-85,928	480,937	-0,043	-0,071
-84,913	-39,017	0,134	0,051
-83,899	695,561	-0,010	-0,020
-82,884	800,000	0,036	0,087
-81,870	254,814	-0,067	-0,083
-80,855	800,000	0,024	-0,058
-79,840	427,004	0,008	0,012
-78,826	-136,117	0,135	-0,011
-77,811	800,000	-0,010	0,023
-76,797	-81,802	0,079	-0,018
-75,782	235,941	-0,059	0,070
-74,767	-200,000	0,042	0,169
-73,753	421,722	-0,044	0,067
-72,738	800,000	0,058	-0,182
-71,724	733,367	-0,044	-0,085
-70,709	-200,000	0,026	-0,091
-69,694	-200,000	0,000	0,127
-68,680	273,103	0,086	0,110
-67,665	-200,000	0,025	-0,109
-66,651	-49,329	-0,061	0,021
-65,636	800,000	0,031	0,093
-64,622	-52,039	-0,114	-0,038
-63,607	212,130	-0,018	0,020
-62,592	800,000	-0,036	-0,093
-61,578	-200,000	0,124	-0,000
-60,563	20,172	-0,092	-0,053
-59,549	88,228	-0,043	0,035
-58,534	6,718	-1,893	-1,008
-57,519	-200,000	-0,262	-0,890
-56,505	-200,000	-1,294	-4,843
-55,490	10,639	0,849	0,463
-54,476	800,000	5,335	12,215
-53,461	-200,000	17,561	283,509
-52,446	800,000	727,401	2214,430
-51,432	534,613	1643,464	2807,279
-50,417	110,028	1633,849	1407,106
-49,403	75,450	1286,445	973,572
-48,388	32,082	1027,776	634,593
-47,373	20,197	989,774	571,927
-46,359	18,494	977,837	559,418
-45,344	15,685	973,619	547,789
-44,330	15,930	972,209	547,776
-43,315	15,475	970,458	545,282
-42,300	15,411	969,224	544,358
-41,286	15,452	968,239	543,915
-40,271	15,381	967,213	543,087
-39,257	15,440	966,195	542,687
-38,242	15,455	965,342	542,234
-37,227	15,452	964,712	541,850
-36,213	15,449	963,779	541,294
-35,198	15,439	962,890	540,740
-34,184	15,436	962,148	540,291
-33,169	15,358	961,277	539,529
-32,154	15,420	960,221	539,116
-31,140	15,405	959,424	538,598
-30,125	15,467	958,595	538,311
-29,111	15,472	957,868	537,898
-28,096	15,455	957,162	537,426
-27,082	15,463	956,580	537,104
-26,067	15,470	955,683	536,601
-25,052	15,404	954,971	535,968
-24,038	15,428	954,276	535,633
-23,023	15,376	953,619	535,078
-22,009	15,444	953,034	534,945
-20,994	15,437	952,545	534,629
-19,979	15,422	951,849	534,166
-18,965	15,425	951,009	533,684
-17,950	15,420	950,518	533,372
-16,936	15,357	949,962	532,836
-15,921	15,396	949,220	532,523
-14,906	15,333	948,363	531,822
-13,892	15,281	947,903	531,376
-12,877	15,315	947,233	531,089
-11,863	15,233	946,745	530,534
-10,848	15,284	946,093	530,308
-9,833	15,402	945,471	530,313
-8,819	15,441	944,818	530,050
-7,804	15,339	944,220	529,371
-6,790	15,320	943,660	528,974
-5,775	15,411	943,084	528,920
-4,760	15,317	942,712	528,392
-3,746	15,337	941,872	527,964
-2,731	15,183	941,142	527,046
-1,717	15,183	940,523	526,678
-0,702	15,157	939,956	526,257
0,313	14,972	939,224	526,058
1,327	18,185	937,032	534,906
2,342	27,062	794,345	476,978
3,356	23,729	459,686	270,897
4,371	-3,150	315,262	157,137
5,386	-7,327	296,970	143,769
6,400	-9,282	291,154	138,993
7,415	-9,746	288,603	137,305
8,429	-9,744	286,916	136,492
9,444	-10,117	286,196	135,771
10,459	-9,938	285,582	135,643
11,473	-10,053	285,099	135,289
12,488	-9,933	284,279	135,005
13,502	-10,045	284,037	134,769
14,517	-9,857	283,514	134,691
15,531	-9,894	283,119	134,455
16,546	-9,961	282,716	134,187
17,561	-9,662	282,253	134,245
18,575	-9,685	282,039	134,108
19,590	-9,918	281,642	133,683
20,604	-9,810	281,432	133,675
21,619	-9,831	280,866	133,374
22,634	-9,781	280,720	133,342
23,648	-10,150	280,424	132,836
24,663	-10,065	280,050	132,728
25,677	-9,876	279,808	132,782
26,692	-9,803	279,541	132,714
27,707	-9,787	279,205	132,558
28,721	-10,024	278,950	132,198
29,736	-9,943	278,599	132,097
30,750	-10,124	278,547	131,889
31,765	-9,807	278,108	131,970
32,780	-9,995	277,965	131,712
33,794	-9,802	277,691	131,753
34,809	-9,841	277,539	131,632
35,823	-9,934	277,299	131,419
36,838	-10,039	276,923	131,130
37,853	-9,895	276,564	131,084
38,867	-9,936	276,449	130,979
39,882	-10,001	276,213	130,794
40,896	-9,844	275,857	130,762
41,911	-9,899	275,790	130,667
42,926	-9,898	275,425	130,483
43,940	-10,074	275,332	130,262
44,955	-10,169	275,076	130,040
45,969	-10,043	274,707	129,973
46,984	-10,213	274,445	129,678
47,999	-10,438	274,283	129,379
49,013	-10,281	273,933	129,350
50,028	-10,591	273,774	128,973
51,042	-10,650	273,503	128,778
52,057	-10,719	273,246	128,582
53,071	-10,713	273,050	128,484
54,086	-10,474	272,768	128,561
55,101	-10,432	272,690	128,552
56,115	-10,280	272,489	128,587
57,130	-9,945	272,460	128,873
58,144	-9,993	272,113	128,654
59,159	-10,093	271,827	128,414
60,174	-9,652	271,572	128,690
61,188	-9,861	271,481	128,442
62,203	-9,956	271,223	128,222
63,217	-9,713	271,040	128,348
64,232	-9,819	270,723	128,088
65,247	-9,819	270,587	128,012
66,261	-10,022	270,366	127,710
67,276	-10,188	270,165	127,450
68,290	-10,167	269,850	127,310
69,305	-10,248	269,564	127,089
70,320	-10,001	269,332	127,195
71,334	-9,986	269,361	127,211
72,349	-9,980	269,162	127,111
73,363	-9,897	268,776	126,994
74,378	-10,184	268,845	126,753
75,393	-9,986	268,490	126,754
76,407	-9,892	268,330	126,753
77,422	-9,878	268,092	126,642
78,436	-9,959	267,804	126,421
79,451	-9,686	267,598	126,562
80,466	-9,961	267,336	126,176
81,480	-9,877	266,914	126,042
82,495	-10,030	266,830	125,852
83,509	-10,146	266,666	125,658
84,524	-10,198	266,493	125,519
85,539	-10,170	266,099	125,347
86,553	-10,113	266,028	125,354
87,568	-9,919	265,771	125,397
88,582	-9,935	265,618	125,299
89,597	-9,921	265,512	125,251
90,611	-9,975	265,244	125,065
91,626	-9,838	265,132	125,124
92,641	-9,951	264,927	124,915
93,655	-9,947	264,736	124,817
94,670	-10,015	264,490	124,629
95,684	-9,799	264,138	124,646
96,699	-10,069	264,061	124,356
97,714	-10,038	263,862	124,279
98,728	-10,034	263,687	124,189
99,743	-10,157	263,476	123,968
100,757	-10,188	263,204	123,802
101,772	-10,135	262,980	123,732
102,787	-10,068	262,771	123,683
103,801	-9,871	262,511	123,725
104,816	-9,932	262,620	123,711
105,830	-9,859	262,216	123,575
106,845	-9,845	262,075	123,510
107,860	-9,804	261,833	123,421
108,874	-9,918	261,589	123,194
109,889	-9,821	261,469	123,213
110,903	-10,014	261,220	122,914
111,918	-9,907	261,130	122,955
112,933	-9,986	260,840	122,737
113,947	-9,960	260,641	122,656
114,962	-9,908	260,636	122,688
115,976	-9,880	260,410	122,595
116,991	-9,861	260,198	122,502
118,006	-10,027	260,072	122,285
119,020	-9,753	259,873	122,422
120,035	-9,780	259,651	122,283
121,049	-9,969	259,568	122,067
122,064	-9,788	259,320	122,098
123,079	-9,900	259,081	121,877
124,093	-9,945	258,842	121,714
125,108	-10,007	258,531	121,502
126,122	-10,285	258,477	121,223
127,137	-10,466	258,316	120,977
128,151	-10,192	258,060	121,087
129,166	-10,043	257,804	121,086
130,181	-10,072	257,550	120,931
131,195	-10,228	257,435	120,729
132,210	-10,034	257,287	120,818
133,224	-10,040	257,315	120,815
134,239	-9,787	256,970	120,863
135,254	-9,926	256,869	120,684
136,268	-9,887	256,361	120,469
137,283	-10,310	256,279	120,052
138,297	-10,286	255,886	119,878
139,312	-10,358	255,902	119,813
140,327	-10,028	255,620	119,955
141,341	-9,611	255,596	120,293
142,356	-9,822	255,583	120,095
143,370	-9,755	255,388	120,051
144,385	-9,793	255,163	119,901
145,400	-9,654	254,854	119,865
146,414	-9,717	254,667	119,712
147,429	-9,804	254,580	119,585
148,443	-9,579	254,387	119,677
149,458	-9,620	254,162	119,526
150,473	-9,687	253,998	119,380
151,487	-9,859	253,703	119,083
152,502	-9,777	253,708	119,145
153,516	-9,648	253,417	119,108
154,531	-9,645	253,319	119,055
155,546	-9,730	253,197	118,914
156,560	-9,768	252,982	118,770
157,575	-9,773	252,621	118,586
158,589	-9,762	252,345	118,455
159,604	-9,562	252,237	118,564
160,619	-9,609	252,077	118,438
161,633	-9,692	252,031	118,335
162,648	-9,730	251,899	118,231
163,662	-9,910	251,789	118,015
164,677	-9,706	251,445	118,017
165,692	-9,679	251,374	117,996
166,706	-9,753	251,105	117,796
167,721	-9,678	251,049	117,824
168,735	-9,803	250,893	117,633
169,750	-9,749	250,720	117,587
170,764	-9,722	250,593	117,540
171,779	-9,723	250,356	117,418
172,794	-9,522	250,125	117,469
173,808	-9,686	249,938	117,232
174,823	-9,963	249,659	116,858
175,837	-10,324	249,708	116,565
176,852	-9,968	249,479	116,748
177,867	-9,670	249,409	116,956
178,881	-9,727	249,184	116,792
179,896	-9,857	248,964	116,569
180,910	-9,634	248,807	116,673
181,925	-9,472	248,560	116,682
182,940	-9,627	248,535	116,530
183,954	-9,505	248,240	116,483
184,969	-9,733	248,190	116,259
185,983	-9,625	247,976	116,238
186,998	-9,534	247,796	116,220
188,013	-9,494	247,561	116,133
189,027	-9,736	247,491	115,887
190,042	-9,764	247,337	115,781
191,056	-9,889	247,203	115,604
192,071	-9,568	246,929	115,733
193,086	-9,753	246,735	115,477
194,100	-9,921	246,714	115,318
195,115	-9,463	246,444	115,562
196,129	-9,601	246,296	115,368
197,144	-9,730	245,947	115,087
198,159	-9,686	245,739	115,016
199,173	-9,727	245,816	115,008
200,188	-9,538	245,527	115,018
201,202	-10,025	245,257	114,480
202,217	-10,203	245,055	114,229
203,232	-10,203	244,814	114,105
204,246	-9,779	244,846	114,460
205,261	-9,461	244,548	114,572
206,275	-10,591	244,217	113,478
207,290	-7,792	245,528	116,388
208,304	-0,593	247,530	123,304
209,319	3,221	248,734	127,064
210,334	3,514	248,650	127,253
211,348	4,017	248,553	127,609
212,363	4,252	248,502	127,766
213,377	4,299	248,242	127,660
214,392	3,990	248,252	127,398
215,407	3,876	247,971	127,148
216,421	4,079	247,818	127,226
217,436	4,194	247,679	127,238
218,450	4,152	247,549	127,126
219,465	3,961	247,278	126,818
220,480	3,697	247,009	126,451
221,494	3,748	246,899	126,426
222,509	3,683	246,781	126,300
223,523	3,582	246,658	126,143
224,538	3,366	246,345	125,794
225,553	3,341	246,115	125,645
226,567	3,410	246,030	125,647
227,582	3,883	245,820	125,917
228,596	3,755	245,769	125,773
229,611	3,350	245,654	125,373
230,626	3,444	245,325	125,270
231,640	3,423	245,266	125,212
232,655	3,543	245,098	125,213
233,669	3,538	244,781	125,036
234,684	3,247	244,680	124,735
235,699	3,789	244,656	125,154
236,713	3,838	244,526	125,116
237,728	3,401	244,244	124,605
238,742	3,581	243,989	124,610
239,757	3,196	243,927	124,255
240,772	3,626	243,729	124,491
241,786	3,440	243,652	124,291
242,801	3,366	243,451	124,117
243,815	3,261	243,299	123,943
244,830	3,334	243,341	124,013
245,844	3,704	243,050	124,153
246,859	3,409	242,819	123,785
247,874	3,423	242,557	123,652
248,888	3,653	242,416	123,755
249,903	3,662	242,397	123,741
250,917	3,638	242,359	123,691
251,932	3,780	242,170	123,699
252,947	3,770	241,920	123,551
253,961	3,444	241,736	123,184
254,976	3,705	241,680	123,355
255,990	3,609	241,535	123,193
257,005	3,411	241,323	122,915
258,020	3,251	241,052	122,637
259,034	3,238	240,957	122,568
260,049	3,584	240,751	122,729
261,063	3,322	240,567	122,414
262,078	3,608	240,416	122,555
263,093	3,544	240,375	122,472
264,107	3,673	240,241	122,496
265,122	3,285	240,136	122,122
266,136	3,572	239,861	122,200
267,151	3,872	239,729	122,361
268,166	3,474	239,551	121,943
269,180	3,495	239,319	121,830
270,195	3,959	239,413	122,236
271,209	4,146	239,300	122,316
272,224	3,412	239,106	121,623
273,239	3,155	238,787	121,247
274,253	3,269	238,675	121,269
275,268	3,645	238,457	121,445
276,282	3,583	238,214	121,261
277,297	3,305	238,164	121,005
278,312	3,625	237,946	121,137
279,326	3,557	237,927	121,062
280,341	3,450	237,801	120,903
281,355	3,492	237,806	120,927
282,370	3,679	237,580	120,950
283,384	3,719	237,245	120,799
284,399	3,407	237,111	120,475
285,414	3,403	236,758	120,282
286,428	3,347	236,808	120,253
287,443	3,474	236,637	120,255
288,457	3,663	236,582	120,365
289,472	3,693	236,442	120,306
290,487	3,557	236,104	120,017
291,501	3,283	235,936	119,706
292,516	3,292	235,700	119,583
293,530	3,302	235,648	119,554
294,545	3,464	235,730	119,711
295,560	3,476	235,480	119,583
296,574	3,083	235,106	119,077
297,589	3,554	235,171	119,466
298,603	3,665	235,200	119,556
299,618	3,777	234,883	119,471
300,633	3,664	234,818	119,340
301,647	3,957	234,549	119,420
302,662	4,124	234,667	119,599
303,676	4,029	234,396	119,377
304,691	3,816	234,245	119,124
305,706	3,893	234,238	119,170
306,720	3,973	234,002	119,100
307,735	3,926	233,746	118,923
308,749	3,451	233,625	118,484
309,764	3,313	233,481	118,294
310,779	3,366	233,192	118,178
311,793	3,214	232,895	117,900
312,808	3,102	232,917	117,814
313,822	3,235	232,686	117,789
314,837	3,099	232,594	117,627
315,852	3,225	232,447	117,640
316,866	3,569	232,443	117,891
317,881	3,807	232,213	117,946
318,895	3,779	232,039	117,826
319,910	3,925	231,997	117,907
320,925	3,538	231,825	117,512
321,939	3,343	231,691	117,284
322,954	3,748	231,527	117,501
323,968	3,616	231,265	117,257
324,983	3,337	231,029	116,914
325,997	3,446	231,228	117,087
327,012	3,930	230,975	117,318
328,027	3,667	230,805	117,020
329,041	3,602	230,784	116,950
330,056	3,974	230,673	117,166
331,070	4,039	230,379	117,056
332,085	3,723	230,400	116,816
333,100	4,099	230,158	116,968
334,114	3,763	230,024	116,635
335,129	3,954	229,801	116,656
336,143	4,056	229,672	116,658
337,158	3,910	229,605	116,502
338,173	3,798	229,459	116,333
339,187	3,865	229,127	116,205
340,202	3,943	229,116	116,248
341,216	3,920	228,887	116,104
342,231	3,744	228,669	115,850
343,246	3,628	228,657	115,747
344,260	3,933	228,534	115,904
345,275	3,924	228,508	115,874
346,289	3,955	228,324	115,794
347,304	4,107	228,213	115,841
348,319	3,958	228,016	115,619
349,333	3,818	227,775	115,381
350,348	3,784	227,590	115,252
351,362	3,699	227,495	115,129
352,377	3,572	227,243	114,896
353,392	3,285	227,197	114,649
354,406	3,413	227,100	114,685
355,421	194,420	1321,801	1395,227
356,435	155,828	1455,173	1395,219
