DTS Sentinel unit serial number:	SN410029Multiplexer serial number:	ORYXHardware model number:	OX2-SRSoftware version number:	ORYX F/W v4,00 Oryx Data Collector v3.7.2.0data status	okinstallation	B5 Nyhavnadifferential loss correction	single-endedforward channel	channel 2reverse channel	N/Adate	2023/12/12time	02:02:13forward acquisition time	300,00reverse acquisition time	0,00gamma	499,1914k internal	0,3156k external	0,3156temperature offset calibration	1,0000default loss term (dB/km)	0,3820temperature slope calibration	1,0000multiplexer offset coefficient	1,0000multiplexer slope coefficient	1,0000fibre end	0,00T internal ref (°C)	15,82T ext. ref 1 (°C)	-0,65T ext. ref 2 (°C)	-0,92length (m)	temperature (°C)	Stokes	anti-Stokes-744,400	-146,789	0,117	0,007
-743,385	-119,723	-0,227	0,029
-742,371	-57,453	0,127	-0,041
-741,356	16,583	-0,232	0,135
-740,342	-16,182	0,178	0,083
-739,327	-99,078	-0,312	-0,058
-738,312	-200,000	-0,007	0,091
-737,298	-121,790	-0,180	0,022
-736,283	-200,000	0,036	0,137
-735,269	-158,461	-0,255	0,011
-734,254	186,456	0,078	0,086
-733,239	-182,072	-0,391	0,005
-732,225	-5,421	0,198	0,100
-731,210	11,803	0,149	0,084
-730,196	800,000	0,037	-0,102
-729,181	800,000	0,047	-0,138
-728,167	-73,656	-0,035	-0,009
-727,152	-75,542	0,071	0,018
-726,137	-182,478	-0,123	-0,002
-725,123	800,000	-0,026	-0,072
-724,108	-98,873	-0,034	0,006
-723,094	-200,000	-0,002	-0,033
-722,079	-200,000	-0,037	-0,154
-721,064	-200,000	0,040	-0,155
-720,050	671,776	0,058	0,112
-719,035	-200,000	-0,005	0,079
-718,021	-127,591	-0,051	-0,005
-717,006	203,641	-0,070	0,080
-715,991	-144,046	-0,201	-0,014
-714,977	-13,702	-0,112	-0,053
-713,962	-200,000	-0,001	0,081
-712,948	304,291	0,028	0,039
-711,933	304,420	0,042	-0,058
-710,918	-25,944	-0,093	-0,040
-709,904	-42,087	-0,050	-0,019
-708,889	-88,945	-0,145	-0,031
-707,875	30,355	0,156	-0,098
-706,860	367,568	-0,050	-0,074
-705,845	271,876	0,127	0,166
-704,831	-0,342	0,121	0,063
-703,816	-200,000	0,005	-0,020
-702,802	-161,452	-0,023	0,001
-701,787	46,782	0,028	-0,019
-700,772	256,173	-0,037	-0,047
-699,758	800,000	0,031	-0,074
-698,743	-16,250	-0,031	-0,015
-697,729	126,653	0,086	0,080
-696,714	-200,000	-0,041	0,157
-695,699	82,328	-0,081	-0,064
-694,685	216,268	-0,035	-0,041
-693,670	624,930	-0,055	0,102
-692,656	-200,000	0,000	0,030
-691,641	177,034	0,069	0,074
-690,627	-118,666	0,024	-0,003
-689,612	800,000	0,025	0,079
-688,597	379,019	0,048	0,072
-687,583	-144,581	-0,034	0,002
-686,568	-200,000	0,015	-0,071
-685,554	-200,000	-0,002	-0,032
-684,539	201,233	0,064	0,073
-683,524	9,021	0,014	0,008
-682,510	11,401	-0,066	0,037
-681,495	38,000	-0,029	0,019
-680,481	100,484	-0,094	-0,080
-679,466	800,000	-0,056	-0,144
-678,451	-200,000	0,016	-0,099
-677,437	342,791	-0,065	0,095
-676,422	308,023	0,110	0,151
-675,408	18,077	-0,093	-0,054
-674,393	800,000	0,023	-0,072
-673,378	-98,715	-0,100	-0,019
-672,364	-200,000	-0,026	-0,157
-671,349	382,029	0,042	0,063
-670,335	50,607	-0,050	-0,035
-669,320	186,595	-0,087	-0,095
-668,305	170,016	0,085	-0,090
-667,291	-52,946	-0,142	0,048
-666,276	-32,739	-0,077	-0,031
-665,262	-90,583	-0,170	0,036
-664,247	800,000	0,034	-0,082
-663,232	19,130	-0,105	0,062
-662,218	130,805	0,077	-0,073
-661,203	-72,194	0,089	0,024
-660,189	-200,000	-0,001	0,014
-659,174	22,644	-0,151	-0,091
-658,159	800,000	-0,079	-0,206
-657,145	43,734	0,014	-0,009
-656,130	-200,000	0,009	-0,046
-655,116	54,057	-0,066	-0,047
-654,101	-9,224	0,080	-0,039
-653,086	597,508	-0,083	0,151
-652,072	212,489	-0,059	0,068
-651,057	800,000	-0,034	-0,079
-650,043	-137,388	0,068	0,006
-649,028	173,523	-0,089	0,094
-648,014	-34,039	-0,108	-0,043
-646,999	800,000	0,021	-0,055
-645,984	566,981	-0,052	-0,093
-644,970	-48,963	-0,126	0,044
-643,955	800,000	-0,032	-0,097
-642,941	-15,909	0,050	0,023
-641,926	-200,000	0,001	0,052
-640,911	800,000	-0,026	0,070
-639,897	-200,000	-0,026	0,099
-638,882	114,843	-0,064	0,057
-637,868	39,056	0,022	-0,014
-636,853	7,441	-0,079	0,043
-635,838	-145,743	-0,087	0,006
-634,824	406,048	0,049	0,077
-633,809	-25,511	-0,087	-0,038
-632,795	-147,941	0,065	-0,004
-631,780	-200,000	-0,027	0,091
-630,765	800,000	-0,020	-0,065
-629,751	800,000	0,042	-0,120
-628,736	18,892	-0,084	0,049
-627,722	-99,489	-0,028	0,005
-626,707	-58,146	0,044	0,014
-625,692	-200,000	0,015	0,056
-624,678	800,000	0,026	0,067
-623,663	-115,356	0,180	0,025
-622,649	-200,000	0,012	-0,048
-621,634	-200,000	-0,016	-0,060
-620,619	124,709	-0,089	-0,082
-619,605	-130,385	0,060	-0,006
-618,590	800,000	-0,018	-0,048
-617,576	-161,454	0,117	0,004
-616,561	-150,771	0,128	-0,007
-615,546	12,375	0,035	-0,020
-614,532	114,064	-0,139	-0,124
-613,517	-72,755	0,054	0,015
-612,503	-200,000	0,001	-0,097
-611,488	454,647	0,073	0,118
-610,474	-200,000	0,028	0,103
-609,459	455,284	0,073	0,120
-608,444	-200,000	-0,008	-0,049
-607,430	49,984	-0,095	0,066
-606,415	95,700	-0,064	-0,053
-605,401	63,356	-0,134	-0,099
-604,386	-164,292	0,141	-0,005
-603,371	73,276	-0,065	0,050
-602,357	164,285	-0,095	-0,099
-601,342	-200,000	0,037	-0,127
-600,328	-200,000	-0,021	-0,140
-599,313	15,602	0,146	0,084
-598,298	-53,905	-0,153	0,051
-597,284	-200,000	-0,027	0,088
-596,269	800,000	-0,009	0,023
-595,255	186,533	0,030	-0,032
-594,240	-68,180	-0,110	-0,031
-593,225	-30,156	0,063	0,026
-592,211	-62,265	0,094	-0,028
-591,196	438,394	-0,058	-0,094
-590,182	-39,528	0,179	-0,068
-589,167	263,094	-0,017	0,022
-588,152	-200,000	-0,022	-0,079
-587,138	538,175	-0,038	0,066
-586,123	60,491	0,065	-0,047
-585,109	96,983	-0,142	-0,119
-584,094	13,394	0,068	-0,039
-583,079	-200,000	-0,004	0,049
-582,065	-200,000	0,001	0,147
-581,050	58,064	0,081	0,058
-580,036	14,105	-0,061	-0,035
-579,021	-200,000	-0,001	-0,011
-578,006	142,213	-0,117	-0,114
-576,992	-19,372	0,016	-0,007
-575,977	-200,000	-0,001	-0,099
-574,963	-152,190	0,116	0,006
-573,948	-21,510	-0,042	0,019
-572,934	800,000	0,042	-0,087
-571,919	139,583	-0,070	0,067
-570,904	800,000	-0,028	0,078
-569,890	5,879	0,054	0,029
-568,875	707,737	0,025	-0,048
-567,861	-24,158	0,099	-0,043
-566,846	222,866	-0,057	0,068
-565,831	112,257	-0,065	-0,057
-564,817	-88,818	-0,082	-0,018
-563,802	232,970	0,091	-0,110
-562,788	47,472	0,111	-0,076
-561,773	-200,000	0,007	-0,140
-560,758	-200,000	0,011	-0,041
-559,744	301,494	-0,031	0,043
-558,729	131,101	-0,043	-0,041
-557,715	599,356	0,039	0,072
-556,700	800,000	0,014	0,036
-555,685	49,334	-0,050	0,034
-554,671	-128,440	-0,035	-0,004
-553,656	-47,397	0,046	-0,016
-552,642	800,000	0,087	0,263
-551,627	-36,717	-0,100	0,039
-550,612	147,910	-0,014	0,014
-549,598	800,000	-0,037	-0,092
-548,583	-200,000	0,015	-0,079
-547,569	-75,708	-0,087	0,022
-546,554	14,194	0,175	0,099
-545,539	271,011	0,045	-0,058
-544,525	800,000	0,023	0,050
-543,510	120,081	0,056	-0,051
-542,496	-64,365	-0,177	-0,052
-541,481	-200,000	0,049	-0,190
-540,466	134,111	0,074	-0,070
-539,452	-62,904	0,061	0,018
-538,437	61,237	-0,109	-0,079
-537,423	419,719	0,033	0,051
-536,408	-22,723	-0,111	0,049
-535,393	189,614	0,058	0,063
-534,379	-200,000	0,002	0,029
-533,364	-127,881	-0,046	-0,005
-532,350	112,142	-0,101	0,090
-531,335	239,744	0,052	-0,063
-530,321	137,380	0,072	0,068
-529,306	-200,000	0,004	-0,042
-528,291	800,000	0,045	-0,113
-527,277	-200,000	0,043	-0,227
-526,262	-200,000	0,007	0,056
-525,248	-31,171	-0,017	-0,007
-524,233	-109,352	0,127	-0,020
-523,218	-200,000	0,034	-0,148
-522,204	164,270	0,075	0,077
-521,189	86,542	-0,084	0,068
-520,175	-13,920	0,041	-0,019
-519,160	-200,000	-0,006	-0,056
-518,145	-105,425	0,085	0,014
-517,131	436,067	-0,017	-0,027
-516,116	-200,000	-0,011	-0,039
-515,102	-44,523	-0,039	0,014
-514,087	95,019	0,121	-0,101
-513,072	-200,000	-0,014	-0,087
-512,058	275,336	0,059	-0,077
-511,043	493,179	-0,006	-0,011
-510,029	518,836	-0,058	0,100
-509,014	98,225	0,020	0,017
-507,999	-55,700	0,165	-0,054
-506,985	800,000	-0,024	-0,078
-505,970	-105,683	-0,076	0,012
-504,956	-200,000	-0,043	-0,153
-503,941	-2,255	-0,060	-0,030
-502,926	-68,147	0,155	0,044
-501,912	87,915	-0,064	0,052
-500,897	7,061	0,064	0,035
-499,883	259,552	-0,031	0,039
-498,868	33,739	0,052	-0,033
-497,853	-61,629	0,078	0,024
-496,839	-200,000	0,039	-0,142
-495,824	81,857	0,017	-0,014
-494,810	-169,758	-0,046	0,001
-493,795	-97,797	-0,025	-0,005
-492,781	-56,482	-0,014	0,005
-491,766	-7,065	-0,026	-0,013
-490,751	-156,243	0,067	0,003
-489,737	200,282	-0,026	-0,029
-488,722	101,843	0,148	0,126
-487,708	617,609	0,070	0,129
-486,693	-80,360	-0,096	-0,023
-485,678	688,823	-0,011	0,021
-484,664	-9,878	0,083	-0,040
-483,649	800,000	0,026	-0,065
-482,635	238,307	0,057	0,069
-481,620	-200,000	0,046	0,178
-480,605	-200,000	-0,015	0,126
-479,591	-200,000	-0,011	-0,052
-478,576	-200,000	0,031	0,139
-477,562	-12,459	-0,082	-0,039
-476,547	-200,000	0,016	-0,095
-475,532	617,907	-0,032	-0,059
-474,518	371,183	-0,070	-0,104
-473,503	-21,372	0,114	0,051
-472,489	463,334	0,033	-0,053
-471,474	-200,000	-0,041	-0,179
-470,459	800,000	-0,030	-0,064
-469,445	134,437	-0,093	-0,088
-468,430	-200,000	0,012	-0,054
-467,416	291,653	0,051	0,068
-466,401	357,731	0,039	0,057
-465,386	76,644	0,101	0,078
-464,372	-200,000	-0,017	0,056
-463,357	-23,319	-0,085	-0,037
-462,343	-108,336	0,119	-0,018
-461,328	800,000	0,020	0,042
-460,313	-200,000	0,015	-0,118
-459,299	428,469	-0,009	-0,014
-458,284	-200,000	0,002	0,014
-457,270	412,426	-0,066	-0,102
-456,255	-114,351	-0,173	-0,024
-455,241	276,095	-0,021	0,027
-454,226	335,328	-0,091	-0,130
-453,211	800,000	0,026	-0,064
-452,197	-8,984	0,050	-0,025
-451,182	-200,000	-0,006	0,046
-450,168	133,255	0,118	0,111
-449,153	-68,643	-0,138	-0,039
-448,138	-200,000	-0,005	0,034
-447,124	-79,362	-0,085	-0,021
-446,109	111,836	0,055	-0,048
-445,095	-200,000	-0,002	-0,032
-444,080	279,385	-0,059	0,077
-443,065	-200,000	0,024	-0,141
-442,051	800,000	0,029	0,062
-441,036	-64,294	-0,069	-0,020
-440,022	-200,000	-0,004	0,022
-439,007	599,055	0,052	-0,094
-437,992	-135,736	0,065	-0,006
-436,978	800,000	-0,027	0,059
-435,963	-85,075	-0,104	-0,024
-434,949	693,950	0,071	-0,137
-433,934	752,168	-0,038	-0,074
-432,919	-200,000	-0,016	0,055
-431,905	-85,444	0,080	0,018
-430,890	-106,589	0,077	0,012
-429,876	354,079	0,059	0,085
-428,861	-98,269	0,086	0,016
-427,846	356,351	-0,038	-0,055
-426,832	-47,342	0,021	-0,008
-425,817	163,260	0,033	-0,033
-424,803	105,051	0,133	-0,114
-423,788	800,000	-0,018	0,045
-422,773	707,425	0,111	0,214
-421,759	-200,000	-0,015	0,061
-420,744	-104,865	-0,053	-0,009
-419,730	-200,000	-0,047	0,154
-418,715	84,963	0,035	-0,028
-417,701	-11,577	-0,085	0,041
-416,686	-200,000	0,002	0,080
-415,671	-200,000	-0,036	-0,166
-414,657	-200,000	-0,039	0,138
-413,642	-200,000	0,014	0,137
-412,628	147,940	0,064	-0,063
-411,613	-60,523	-0,084	0,026
-410,598	66,337	-0,085	-0,063
-409,584	-21,333	-0,050	0,022
-408,569	10,976	0,099	0,055
-407,555	-95,353	-0,245	-0,048
-406,540	-200,000	-0,016	-0,111
-405,525	-200,000	0,013	-0,154
-404,511	-200,000	-0,008	0,052
-403,496	54,766	-0,040	0,028
-402,482	210,076	0,114	-0,130
-401,467	158,429	-0,065	0,066
-400,452	553,742	-0,076	-0,133
-399,438	-133,617	0,077	0,007
-398,423	414,669	-0,057	-0,088
-397,409	518,591	0,070	0,120
-396,394	-200,000	0,004	-0,170
-395,379	-200,000	0,012	0,082
-394,365	385,060	0,047	0,071
-393,350	-200,000	0,003	0,085
-392,336	800,000	0,037	0,080
-391,321	800,000	0,027	0,066
-390,306	64,537	-0,124	-0,091
-389,292	-200,000	0,000	-0,025
-388,277	-146,135	0,087	-0,005
-387,263	86,332	-0,023	0,018
-386,248	-200,000	-0,008	0,220
-385,233	-86,219	0,012	-0,003
-384,219	443,100	-0,066	0,105
-383,204	649,543	-0,033	-0,062
-382,190	-89,693	-0,107	-0,023
-381,175	44,018	-0,053	-0,036
-380,160	323,423	-0,071	0,098
-379,146	78,455	0,136	0,106
-378,131	-80,139	0,100	-0,024
-377,117	228,111	-0,130	0,155
-376,102	363,169	0,020	0,029
-375,088	-19,473	0,022	0,010
-374,073	-47,879	-0,145	0,051
-373,058	42,393	0,117	0,077
-372,044	-200,000	-0,025	0,169
-371,029	-200,000	0,035	0,115
-370,015	142,096	-0,115	0,111
-369,000	343,614	-0,071	0,102
-367,985	155,459	-0,096	-0,096
-366,971	-44,062	-0,068	-0,025
-365,956	3,111	0,054	0,029
-364,942	309,896	-0,055	0,074
-363,927	-200,000	-0,002	-0,014
-362,912	-200,000	-0,017	0,083
-361,898	-134,747	-0,114	-0,010
-360,883	-102,266	-0,127	0,022
-359,869	800,000	0,006	-0,013
-358,854	333,094	-0,018	-0,026
-357,839	-40,385	0,090	0,034
-356,825	-171,390	-0,123	-0,003
-355,810	260,977	-0,042	-0,052
-354,796	433,430	0,062	-0,099
-353,781	800,000	0,027	0,066
-352,766	-200,000	-0,010	0,044
-351,752	-200,000	0,024	0,097
-350,737	524,226	0,110	0,188
-349,723	-200,000	0,003	-0,059
-348,708	-129,021	0,080	0,008
-347,693	444,438	-0,043	0,070
-346,679	593,904	-0,041	0,074
-345,664	46,426	0,066	0,045
-344,650	273,723	-0,036	-0,047
-343,635	553,482	-0,004	0,006
-342,620	-200,000	0,004	-0,161
-341,606	172,938	0,102	-0,107
-340,591	-200,000	0,000	-0,014
-339,577	800,000	0,041	-0,109
-338,562	441,024	0,101	-0,160
-337,548	-200,000	0,051	-0,181
-336,533	-200,000	0,041	-0,140
-335,518	-68,674	-0,099	-0,028
-334,504	-199,171	-0,028	0,000
-333,489	-200,000	-0,036	0,196
-332,475	-200,000	0,006	-0,169
-331,460	-28,347	0,169	0,071
-330,445	-129,884	-0,040	-0,004
-329,431	800,000	0,043	0,137
-328,416	122,757	0,069	0,063
-327,402	268,190	-0,072	0,092
-326,387	-83,746	0,059	0,014
-325,372	211,335	-0,077	0,088
-324,358	800,000	-0,027	-0,058
-323,343	-200,000	0,023	0,137
-322,329	-150,339	-0,041	0,002
-321,314	800,000	0,066	0,176
-320,299	88,667	0,094	-0,076
-319,285	-97,282	0,084	0,016
-318,270	605,878	-0,060	-0,108
-317,256	-200,000	0,009	-0,226
-316,241	-200,000	0,005	-0,034
-315,226	64,655	0,104	0,076
-314,212	-31,355	0,095	-0,039
-313,197	146,216	0,039	-0,038
-312,183	-30,776	0,029	-0,012
-311,168	-166,829	-0,093	0,003
-310,153	55,969	-0,110	0,077
-309,139	68,145	-0,083	0,062
-308,124	-81,469	0,128	-0,030
-307,110	800,000	0,018	0,051
-306,095	-200,000	0,013	0,061
-305,080	-33,932	-0,048	0,019
-304,066	-200,000	0,032	-0,108
-303,051	-200,000	-0,038	-0,150
-302,037	81,604	0,060	0,047
-301,022	-3,090	-0,055	-0,028
-300,008	-142,191	0,079	0,006
-298,993	800,000	0,080	-0,181
-297,978	-116,838	-0,104	0,014
-296,964	671,879	0,039	-0,073
-295,949	-200,000	0,026	0,114
-294,935	-200,000	-0,012	-0,126
-293,920	-61,759	0,054	-0,016
-292,905	800,000	-0,032	0,097
-291,891	-55,162	-0,072	0,023
-290,876	-48,578	-0,086	0,030
-289,862	800,000	-0,017	0,041
-288,847	173,416	0,039	-0,041
-287,832	800,000	-0,014	-0,035
-286,818	518,807	-0,050	-0,086
-285,803	292,595	-0,146	0,194
-284,789	-200,000	0,003	-0,092
-283,774	209,443	-0,099	0,113
-282,759	66,053	0,077	-0,057
-281,745	130,021	-0,082	-0,076
-280,730	-78,663	0,123	0,030
-279,716	115,197	0,089	-0,079
-278,701	-200,000	0,036	-0,118
-277,686	280,517	-0,052	0,067
-276,672	-200,000	-0,007	-0,041
-275,657	800,000	0,022	0,065
-274,643	-175,480	0,062	0,001
-273,628	-33,087	0,071	-0,029
-272,613	-200,000	0,024	-0,221
-271,599	-48,594	0,046	-0,016
-270,584	-39,877	-0,040	0,015
-269,570	-200,000	-0,001	0,128
-268,555	800,000	-0,026	-0,064
-267,540	800,000	-0,042	0,108
-266,526	-155,628	0,080	-0,004
-265,511	-62,223	0,162	0,048
-264,497	800,000	0,071	0,163
-263,482	1,537	0,069	-0,036
-262,467	-12,127	-0,135	0,064
-261,453	688,556	-0,119	0,226
-260,438	214,470	0,027	-0,031
-259,424	-200,000	-0,016	-0,062
-258,409	471,190	0,029	0,048
-257,395	289,793	-0,075	0,098
-256,380	164,118	0,009	-0,009
-255,365	79,704	-0,029	0,023
-254,351	-200,000	-0,001	-0,130
-253,336	800,000	0,025	-0,071
-252,322	-200,000	-0,004	0,037
-251,307	368,532	0,054	-0,079
-250,292	295,360	0,047	-0,062
-249,278	800,000	0,071	0,166
-248,263	300,980	0,032	0,043
-247,249	800,000	-0,020	-0,051
-246,234	-200,000	0,001	0,069
-245,219	-57,419	-0,081	0,026
-244,205	315,191	-0,071	-0,097
-243,190	-153,488	0,053	-0,003
-242,176	313,778	0,098	0,133
-241,161	381,425	-0,007	0,011
-240,146	-200,000	0,006	-0,041
-239,132	-77,312	-0,087	-0,022
-238,117	-200,000	0,031	0,119
-237,103	44,129	-0,085	0,057
-236,088	-99,517	-0,117	-0,021
-235,073	-101,549	0,137	-0,024
-234,059	750,188	0,072	0,141
-233,044	608,110	0,062	0,112
-232,030	-85,575	-0,141	0,032
-231,015	-79,817	-0,068	0,016
-230,000	418,215	0,041	-0,063
-228,986	800,000	-0,049	0,137
-227,971	5,691	-0,058	0,031
-226,957	-200,000	-0,008	0,033
-225,942	-32,937	0,050	0,020
-224,927	157,334	-0,067	0,067
-223,913	-200,000	0,007	-0,129
-222,898	-73,364	0,082	-0,022
-221,884	116,267	-0,080	-0,071
-220,869	24,355	-0,066	0,039
-219,855	43,715	0,069	0,046
-218,840	-200,000	0,006	0,066
-217,825	-200,000	-0,017	0,142
-216,811	141,205	0,056	-0,053
-215,796	124,725	-0,081	0,074
-214,782	350,334	-0,021	0,030
-213,767	-75,324	0,072	-0,018
-212,752	-200,000	0,010	-0,147
-211,738	258,596	0,129	-0,161
-210,723	313,740	-0,048	-0,066
-209,709	569,004	-0,059	-0,104
-208,694	-8,830	0,076	-0,037
-207,679	-140,058	0,098	-0,007
-206,665	233,033	-0,042	-0,051
-205,650	235,811	-0,093	-0,111
-204,636	22,536	-0,078	-0,046
-203,621	-200,000	-0,007	0,142
-202,606	-101,429	0,020	0,003
-201,592	139,836	-0,076	-0,072
-200,577	800,000	0,042	-0,093
-199,563	-145,758	-0,075	0,005
-198,548	-200,000	-0,024	0,090
-197,533	800,000	-0,045	0,092
-196,519	800,000	-0,045	0,109
-195,504	-81,776	0,048	0,011
-194,490	-200,000	-0,000	-0,078
-193,475	183,567	0,069	0,074
-192,460	-200,000	0,003	0,024
-191,446	-96,172	-0,126	0,024
-190,431	-200,000	-0,007	0,042
-189,417	-30,342	0,024	0,010
-188,402	-200,000	0,003	-0,043
-187,387	-6,279	-0,171	-0,084
-186,373	-97,090	0,094	-0,018
-185,358	273,302	0,082	-0,105
-184,344	107,576	0,123	-0,106
-183,329	87,318	-0,124	-0,099
-182,315	-44,307	0,150	0,054
-181,300	107,094	-0,063	0,054
-180,285	-67,532	0,120	-0,034
-179,271	-68,640	-0,080	-0,022
-178,256	277,694	-0,042	0,054
-177,242	129,206	-0,042	0,039
-176,227	130,086	0,009	-0,009
-175,212	114,749	-0,146	0,128
-174,198	36,129	-0,066	0,042
-173,183	29,810	0,034	0,021
-172,169	371,759	-0,088	-0,130
-171,154	-130,555	0,011	-0,001
-170,139	-200,000	0,004	0,029
-169,125	-200,000	0,010	-0,041
-168,110	-200,000	-0,005	0,016
-167,096	203,460	-0,036	-0,040
-166,081	-58,359	0,102	0,032
-165,066	174,016	-0,089	-0,093
-164,052	-119,115	-0,010	-0,001
-163,037	-43,539	-0,047	-0,017
-162,023	208,267	0,076	0,086
-161,008	-71,554	0,097	-0,026
-159,993	120,299	-0,061	-0,055
-158,979	800,000	-0,012	-0,026
-157,964	94,072	-0,059	0,049
-156,950	204,629	0,073	0,082
-155,935	221,838	0,085	0,099
-154,920	156,898	-0,093	0,093
-153,906	-200,000	-0,010	0,092
-152,891	-200,000	0,021	0,070
-151,877	43,310	0,140	-0,092
-150,862	612,066	0,069	-0,126
-149,847	-200,000	0,020	-0,152
-148,833	-105,994	0,071	0,011
-147,818	202,444	-0,102	0,114
-146,804	-20,941	0,034	-0,015
-145,789	-155,486	-0,130	0,006
-144,775	30,802	0,073	-0,045
-143,760	-200,000	-0,034	-0,136
-142,745	188,800	-0,129	-0,139
-141,731	22,024	0,058	0,034
-140,716	193,168	0,037	-0,040
-139,702	-5,155	0,206	-0,102
-138,687	256,329	0,068	-0,084
-137,672	550,146	-0,056	0,097
-136,658	-26,365	-0,052	-0,022
-135,643	-200,000	0,010	-0,145
-134,629	115,028	0,019	0,017
-133,614	259,624	0,066	0,082
-132,599	23,198	0,089	-0,053
-131,585	-48,895	-0,114	0,039
-130,570	800,000	0,037	-0,077
-129,556	-80,656	-0,115	-0,027
-128,541	-200,000	-0,006	-0,101
-127,526	-200,000	-0,009	0,059
-126,512	-200,000	-0,010	0,049
-125,497	-200,000	0,016	-0,055
-124,483	43,745	-0,080	-0,053
-123,468	-87,035	0,044	0,010
-122,453	-51,006	-0,102	0,034
-121,439	9,280	0,144	0,078
-120,424	30,539	-0,084	0,052
-119,410	96,336	0,098	0,081
-118,395	-71,158	0,184	0,049
-117,380	-23,844	-0,111	-0,048
-116,366	-130,473	-0,050	0,005
-115,351	630,266	0,044	0,080
-114,337	-35,876	-0,048	-0,019
-113,322	800,000	0,022	0,049
-112,307	-110,472	0,074	-0,011
-111,293	215,391	-0,045	0,051
-110,278	-132,615	0,152	0,014
-109,264	226,430	0,084	0,099
-108,249	-21,279	-0,046	-0,020
-107,234	73,945	0,023	-0,017
-106,220	-200,000	-0,052	-0,236
-105,205	4,844	0,066	-0,035
-104,191	-6,828	0,112	0,055
-103,176	-119,168	0,167	-0,021
-102,162	35,433	-0,130	0,082
-101,147	245,972	-0,083	0,101
-100,132	31,309	-0,067	0,041
-99,118	-67,481	-0,176	0,049
-98,103	187,412	-0,015	-0,016
-97,089	80,097	0,056	0,043
-96,074	507,854	-0,058	0,098
-95,059	40,626	0,077	-0,050
-94,045	-16,263	-0,050	0,023
-93,030	-200,000	-0,019	0,066
-92,016	-200,000	0,003	0,049
-91,001	-200,000	0,070	-0,226
-89,986	79,873	0,114	-0,088
-88,972	22,201	0,054	0,032
-87,957	-200,000	-0,015	-0,054
-86,943	111,237	-0,216	0,187
-85,928	-200,000	-0,037	-0,180
-84,913	-200,000	0,003	-0,073
-83,899	149,246	-0,076	0,074
-82,884	-84,803	0,013	-0,003
-81,870	210,481	0,075	-0,085
-80,855	-200,000	-0,045	0,155
-79,840	17,823	-0,030	-0,017
-78,826	-22,311	0,066	0,029
-77,811	800,000	0,006	-0,015
-76,797	-200,000	-0,003	-0,017
-75,782	-71,586	0,171	-0,046
-74,767	45,767	0,074	0,049
-73,753	800,000	0,005	0,014
-72,738	105,618	0,061	0,052
-71,724	-200,000	-0,006	-0,107
-70,709	618,668	0,089	-0,161
-69,694	-63,939	-0,028	0,008
-68,680	-200,000	-0,008	-0,038
-67,665	592,904	0,039	0,070
-66,651	161,948	0,099	0,100
-65,636	800,000	0,007	0,015
-64,622	266,809	-0,045	0,057
-63,607	339,236	-0,059	-0,083
-62,592	-200,000	-0,002	0,032
-61,578	-200,000	-0,019	-0,098
-60,563	303,156	-0,025	0,033
-59,549	-11,370	-0,154	0,072
-58,534	4,000	-1,763	-0,923
-57,519	800,000	-0,365	-0,859
-56,505	-200,000	-1,201	-4,909
-55,490	-40,602	0,773	0,286
-54,476	800,000	5,341	12,109
-53,461	-200,000	17,266	283,504
-52,446	800,000	723,616	2224,625
-51,432	541,761	1640,032	2817,402
-50,417	111,628	1632,087	1413,602
-49,403	76,037	1286,832	976,475
-48,388	32,697	1028,652	637,399
-47,373	20,272	990,459	572,724
-46,359	18,767	978,514	560,854
-45,344	16,105	974,662	549,901
-44,330	16,374	973,056	549,856
-43,315	15,879	971,249	547,195
-42,300	15,868	969,960	546,410
-41,286	15,817	969,122	545,750
-40,271	15,865	968,089	545,305
-39,257	15,903	967,012	544,799
-38,242	15,872	966,383	544,320
-37,227	15,865	965,549	543,809
-36,213	15,779	964,837	543,106
-35,198	15,846	963,834	542,736
-34,184	15,875	963,236	542,471
-33,169	15,828	962,209	541,721
-32,154	15,922	961,042	541,347
-31,140	15,843	960,247	540,623
-30,125	15,894	959,530	540,361
-29,111	15,862	958,668	539,753
-28,096	15,832	958,405	539,486
-27,082	15,868	957,647	539,152
-26,067	15,826	956,948	538,601
-25,052	15,808	955,896	537,930
-24,038	15,810	955,345	537,607
-23,023	15,841	954,668	537,302
-22,009	15,892	953,844	536,983
-20,994	15,850	953,510	536,636
-19,979	15,884	952,529	536,173
-18,965	15,858	952,169	535,867
-17,950	15,893	951,574	535,622
-16,936	15,791	950,954	534,927
-15,921	15,815	950,320	534,626
-14,906	15,734	949,513	533,890
-13,892	15,743	948,779	533,484
-12,877	15,756	948,245	533,206
-11,863	15,699	947,649	532,667
-10,848	15,765	947,088	532,541
-9,833	15,849	946,447	532,428
-8,819	15,846	945,763	532,011
-7,804	15,734	945,394	531,426
-6,790	15,720	944,904	531,085
-5,775	15,788	944,186	530,878
-4,760	15,797	943,572	530,539
-3,746	15,792	942,891	530,119
-2,731	15,663	942,042	529,211
-1,717	15,579	941,530	528,639
-0,702	15,615	940,906	528,380
0,313	15,420	940,237	528,185
1,327	18,549	938,011	536,757
2,342	27,435	795,551	478,816
3,356	24,293	459,189	271,542
4,371	-2,945	313,628	156,584
5,386	-7,066	295,461	143,340
6,400	-9,067	289,541	138,473
7,415	-9,500	287,011	136,825
8,429	-9,696	285,458	135,881
9,444	-9,578	284,671	135,610
10,459	-9,562	284,016	135,300
11,473	-9,636	283,449	134,947
12,488	-9,551	282,911	134,761
13,502	-9,548	282,378	134,498
14,517	-9,489	281,986	134,356
15,531	-9,668	281,707	134,039
16,546	-9,609	281,281	133,881
17,561	-9,617	280,879	133,671
18,575	-9,386	280,414	133,659
19,590	-9,573	280,106	133,321
20,604	-9,414	279,862	133,344
21,619	-9,589	279,595	133,038
22,634	-9,531	279,114	132,854
23,648	-9,610	278,754	132,595
24,663	-9,436	278,484	132,620
25,677	-9,533	278,292	132,424
26,692	-9,342	277,988	132,450
27,707	-9,542	277,839	132,177
28,721	-9,614	277,433	131,904
29,736	-9,435	277,156	131,930
30,750	-9,463	277,044	131,838
31,765	-9,497	276,711	131,636
32,780	-9,438	276,450	131,556
33,794	-9,487	276,295	131,424
34,809	-9,685	275,964	131,068
35,823	-9,399	275,602	131,153
36,838	-9,479	275,457	130,998
37,853	-9,780	275,220	130,590
38,867	-9,671	274,936	130,546
39,882	-9,701	274,851	130,466
40,896	-9,652	274,577	130,370
41,911	-9,663	274,298	130,216
42,926	-9,598	274,038	130,142
43,940	-9,610	273,678	129,948
44,955	-9,650	273,524	129,827
45,969	-9,552	273,311	129,804
46,984	-9,804	273,128	129,471
47,999	-9,875	272,814	129,244
49,013	-10,129	272,729	128,957
50,028	-10,205	272,383	128,711
51,042	-10,014	271,865	128,632
52,057	-10,427	271,777	128,196
53,071	-10,200	271,564	128,294
54,086	-10,019	271,308	128,329
55,101	-9,966	271,261	128,344
56,115	-9,665	271,129	128,549
57,130	-9,467	271,144	128,728
58,144	-9,483	270,796	128,536
59,159	-9,241	270,355	128,538
60,174	-9,374	270,331	128,392
61,188	-9,261	270,115	128,383
62,203	-9,411	269,898	128,130
63,217	-9,442	269,672	127,983
64,232	-9,406	269,441	127,895
65,247	-9,500	269,272	127,717
66,261	-9,418	268,916	127,612
67,276	-9,415	268,679	127,492
68,290	-9,770	268,402	127,024
69,305	-9,864	268,128	126,797
70,320	-9,771	268,083	126,849
71,334	-9,579	267,911	126,932
72,349	-9,506	267,685	126,880
73,363	-9,324	267,299	126,852
74,378	-9,463	267,278	126,704
75,393	-9,538	267,022	126,503
76,407	-9,454	266,870	126,496
77,422	-9,524	266,659	126,321
78,436	-9,586	266,444	126,151
79,451	-9,380	266,094	126,161
80,466	-9,554	266,010	125,953
81,480	-9,539	265,600	125,760
82,495	-9,597	265,344	125,575
83,509	-9,639	265,317	125,515
84,524	-9,687	265,116	125,365
85,539	-9,601	264,768	125,266
86,553	-9,771	264,664	125,053
87,568	-9,617	264,491	125,098
88,582	-9,610	264,067	124,893
89,597	-9,672	263,932	124,763
90,611	-9,647	263,833	124,727
91,626	-9,405	263,588	124,817
92,641	-9,432	263,546	124,762
93,655	-9,340	263,202	124,670
94,670	-9,555	262,995	124,369
95,684	-9,414	262,873	124,426
96,699	-9,341	262,546	124,324
97,714	-9,433	262,448	124,185
98,728	-9,625	262,221	123,896
99,743	-9,745	261,984	123,666
100,757	-9,864	261,738	123,434
101,772	-9,797	261,618	123,425
102,787	-9,514	261,337	123,533
103,801	-9,371	261,189	123,578
104,816	-9,527	261,236	123,451
105,830	-9,387	260,938	123,424
106,845	-9,390	260,770	123,330
107,860	-9,593	260,568	123,044
108,874	-9,753	260,339	122,784
109,889	-9,522	260,128	122,878
110,903	-9,516	259,865	122,747
111,918	-9,628	259,737	122,577
112,933	-9,500	259,517	122,575
113,947	-9,332	259,420	122,666
114,962	-9,473	259,171	122,414
115,976	-9,591	259,012	122,224
116,991	-9,506	258,757	122,168
118,006	-9,466	258,581	122,108
119,020	-9,433	258,523	122,100
120,035	-9,439	258,334	121,994
121,049	-9,306	258,062	121,971
122,064	-9,363	257,861	121,815
123,079	-9,468	257,708	121,641
124,093	-9,428	257,497	121,564
125,108	-9,606	257,225	121,270
126,122	-9,858	257,051	120,958
127,137	-9,772	256,734	120,873
128,151	-9,683	256,719	120,933
129,166	-9,754	256,558	120,784
130,181	-9,598	256,185	120,733
131,195	-9,749	256,081	120,542
132,210	-9,610	255,892	120,563
133,224	-9,459	255,841	120,659
134,239	-9,527	255,622	120,486
135,254	-9,414	255,267	120,406
136,268	-9,529	255,126	120,230
137,283	-9,759	254,906	119,916
138,297	-9,941	254,704	119,654
139,312	-9,898	254,465	119,568
140,327	-9,629	254,292	119,708
141,341	-9,277	254,254	119,981
142,356	-9,287	253,949	119,819
143,370	-9,484	253,952	119,640
144,385	-9,343	253,801	119,679
145,400	-9,165	253,497	119,678
146,414	-9,273	253,372	119,515
147,429	-9,412	253,276	119,341
148,443	-9,338	253,126	119,322
149,458	-9,352	252,868	119,178
150,473	-9,249	252,830	119,238
151,487	-9,233	252,414	119,045
152,502	-9,341	252,217	118,849
153,516	-9,275	252,134	118,855
154,531	-9,269	251,997	118,785
155,546	-9,383	251,700	118,538
156,560	-9,293	251,654	118,582
157,575	-9,547	251,469	118,268
158,589	-9,376	251,169	118,262
159,604	-9,216	251,051	118,332
160,619	-9,147	250,733	118,230
161,633	-9,226	250,691	118,132
162,648	-9,322	250,556	117,977
163,662	-9,280	250,594	118,020
164,677	-9,300	250,302	117,855
165,692	-9,395	249,971	117,609
166,706	-9,265	249,952	117,699
167,721	-9,418	249,793	117,484
168,735	-9,317	249,525	117,433
169,750	-9,242	249,354	117,405
170,764	-9,250	249,353	117,387
171,779	-9,434	249,174	117,138
172,794	-9,250	248,970	117,186
173,808	-9,365	248,678	116,942
174,823	-9,674	248,499	116,588
175,837	-9,857	248,243	116,304
176,852	-9,586	248,095	116,452
177,867	-9,111	248,015	116,801
178,881	-9,286	247,913	116,596
179,896	-9,393	247,754	116,422
180,910	-9,185	247,554	116,491
181,925	-9,189	247,336	116,375
182,940	-9,323	247,184	116,181
183,954	-9,286	246,943	116,088
184,969	-9,286	246,912	116,063
185,983	-9,215	246,740	116,031
186,998	-9,216	246,557	115,934
188,013	-9,146	246,272	115,847
189,027	-9,076	246,226	115,874
190,042	-9,254	245,985	115,602
191,056	-9,240	245,846	115,538
192,071	-9,262	245,605	115,396
193,086	-9,202	245,362	115,322
194,100	-9,309	245,277	115,183
195,115	-9,077	245,158	115,308
196,129	-9,089	244,858	115,147
197,144	-9,327	244,731	114,881
198,159	-9,488	244,662	114,705
199,173	-9,209	244,298	114,754
200,188	-9,505	244,269	114,487
201,202	-9,549	243,983	114,307
202,217	-9,748	243,705	114,003
203,232	-9,721	243,440	113,892
204,246	-9,473	243,625	114,171
205,261	-9,052	243,398	114,399
206,275	-10,015	243,103	113,462
207,290	-6,360	244,309	117,018
208,304	0,001	246,397	123,262
209,319	2,808	247,129	125,937
210,334	3,307	247,023	126,283
211,348	3,570	247,186	126,572
212,363	3,897	246,927	126,698
213,377	3,829	246,754	126,542
214,392	3,740	246,602	126,380
215,407	3,579	246,465	126,166
216,421	3,709	246,295	126,174
217,436	4,006	246,324	126,422
218,450	4,125	246,064	126,375
219,465	3,475	245,880	125,736
220,480	3,436	245,668	125,584
221,494	3,526	245,443	125,532
222,509	3,500	245,289	125,420
223,523	3,535	245,006	125,293
224,538	3,059	244,724	124,749
225,553	3,197	244,688	124,833
226,567	3,180	244,519	124,721
227,582	3,365	244,352	124,776
228,596	3,474	244,261	124,807
229,611	3,257	244,097	124,536
230,626	3,142	243,801	124,280
231,640	3,108	243,775	124,228
232,655	3,309	243,641	124,312
233,669	3,157	243,363	124,036
234,684	2,905	243,232	123,754
235,699	3,288	243,212	124,043
236,713	3,470	243,105	124,124
237,728	3,213	242,830	123,765
238,742	3,226	242,545	123,619
239,757	3,183	242,361	123,480
240,772	3,137	242,160	123,330
241,786	3,340	242,095	123,449
242,801	3,190	242,008	123,273
243,815	3,081	241,793	123,065
244,830	3,242	241,638	123,104
245,844	3,226	241,714	123,119
246,859	3,381	241,277	123,009
247,874	3,380	240,970	122,841
248,888	3,131	241,116	122,705
249,903	3,181	241,001	122,676
250,917	3,330	240,882	122,724
251,932	3,517	240,641	122,740
252,947	3,482	240,439	122,598
253,961	3,097	240,323	122,220
254,976	3,362	240,185	122,350
255,990	3,366	240,060	122,279
257,005	2,970	239,892	121,867
258,020	3,011	239,707	121,795
259,034	3,016	239,524	121,695
260,049	3,085	239,497	121,725
261,063	3,100	239,266	121,609
262,078	3,252	239,049	121,609
263,093	3,305	238,931	121,580
264,107	3,395	238,769	121,558
265,122	3,265	238,484	121,299
266,136	3,377	238,509	121,389
267,151	3,473	238,318	121,357
268,166	3,117	238,146	120,977
269,180	3,147	237,820	120,825
270,195	3,640	237,950	121,269
271,209	3,850	237,765	121,330
272,224	3,243	237,519	120,715
273,239	2,924	237,285	120,334
274,253	3,207	237,129	120,467
275,268	3,259	237,053	120,459
276,282	3,503	236,903	120,564
277,297	3,009	236,788	120,106
278,312	3,102	236,574	120,059
279,326	3,370	236,515	120,230
280,341	3,543	236,278	120,234
281,355	3,210	236,359	120,003
282,370	3,302	236,196	119,982
283,384	3,189	236,063	119,815
284,399	3,078	235,850	119,609
285,414	3,019	235,481	119,365
286,428	3,159	235,384	119,415
287,443	3,178	235,198	119,325
288,457	3,294	235,125	119,367
289,472	3,590	235,020	119,535
290,487	3,361	235,023	119,347
291,501	3,115	234,622	118,941
292,516	3,134	234,404	118,835
293,530	2,774	234,410	118,547
294,545	3,316	234,229	118,866
295,560	3,302	234,036	118,747
296,574	2,956	233,768	118,332
297,589	3,298	233,797	118,601
298,603	3,645	233,729	118,825
299,618	3,215	233,644	118,439
300,633	3,329	233,414	118,399
301,647	3,403	233,420	118,449
302,662	3,651	233,316	118,578
303,676	3,678	233,169	118,513
304,691	3,708	232,850	118,363
305,706	3,842	232,703	118,381
306,720	3,526	232,624	118,087
307,735	3,595	232,383	118,008
308,749	3,219	232,283	117,657
309,764	2,956	232,013	117,308
310,779	3,002	231,834	117,242
311,793	2,952	231,611	117,081
312,808	3,102	231,498	117,128
313,822	3,026	231,310	116,964
314,837	3,021	231,096	116,842
315,852	2,960	231,014	116,743
316,866	3,414	231,016	117,081
317,881	3,612	230,782	117,103
318,895	3,637	230,637	117,038
319,910	3,609	230,636	117,006
320,925	3,294	230,448	116,660
321,939	3,070	230,215	116,361
322,954	3,399	230,164	116,575
323,968	3,220	230,039	116,365
324,983	3,120	229,695	116,105
325,997	3,335	229,534	116,176
327,012	3,468	229,534	116,266
328,027	3,350	229,473	116,136
329,041	3,628	229,331	116,264
330,056	3,861	229,375	116,453
331,070	4,001	228,921	116,318
332,085	3,451	228,703	115,781
333,100	3,550	228,674	115,831
334,114	3,790	228,536	115,932
335,129	3,747	228,517	115,879
336,143	3,581	228,331	115,650
337,158	3,902	228,160	115,794
338,173	3,911	228,058	115,739
339,187	3,751	227,926	115,542
340,202	3,633	227,737	115,346
341,216	3,565	227,591	115,211
342,231	3,379	227,320	114,925
343,246	3,511	227,309	115,007
344,260	3,426	227,228	114,893
345,275	3,860	227,062	115,123
346,289	3,810	226,993	115,041
347,304	4,001	226,729	115,040
348,319	3,830	226,667	114,870
349,333	3,519	226,525	114,556
350,348	3,206	226,398	114,247
351,362	3,597	226,161	114,410
352,377	3,344	225,991	114,125
353,392	3,191	225,776	113,892
354,406	3,263	225,678	113,885
355,421	194,193	1325,017	1398,273
356,435	155,574	1458,962	1398,265
