DTS Sentinel unit serial number:	SN410029Multiplexer serial number:	ORYXHardware model number:	OX2-SRSoftware version number:	ORYX F/W v4,00 Oryx Data Collector v3.7.2.0data status	okinstallation	B5 Nyhavnadifferential loss correction	single-endedforward channel	channel 2reverse channel	N/Adate	2023/12/13time	19:02:13forward acquisition time	300,00reverse acquisition time	0,00gamma	499,1914k internal	0,3160k external	0,3160temperature offset calibration	1,0000default loss term (dB/km)	0,3820temperature slope calibration	1,0000multiplexer offset coefficient	1,0000multiplexer slope coefficient	1,0000fibre end	0,00T internal ref (°C)	12,15T ext. ref 1 (°C)	-5,04T ext. ref 2 (°C)	-5,12length (m)	temperature (°C)	Stokes	anti-Stokes-744,400	-28,442	0,114	0,048
-743,385	-96,554	-0,262	0,050
-742,371	112,293	0,066	0,059
-741,356	-145,649	-0,339	-0,022
-740,342	-27,811	0,181	0,077
-739,327	-160,692	-0,373	-0,014
-738,312	-155,156	0,225	-0,011
-737,298	-45,765	-0,203	0,073
-736,283	33,483	0,081	0,051
-735,269	-50,408	-0,178	-0,062
-734,254	-137,826	0,150	-0,012
-733,239	-17,860	-0,441	-0,203
-732,225	138,481	0,104	0,100
-731,210	242,281	0,136	0,168
-730,196	-50,809	0,025	0,009
-729,181	180,936	-0,063	-0,068
-728,167	239,124	-0,078	-0,096
-727,152	-200,000	0,001	-0,057
-726,137	800,000	0,054	-0,112
-725,123	-200,000	-0,018	-0,093
-724,108	196,602	-0,130	-0,146
-723,094	-55,156	-0,218	-0,072
-722,079	-200,000	0,020	-0,118
-721,064	-104,912	-0,078	0,013
-720,050	-200,000	0,020	0,239
-719,035	-64,309	0,082	-0,024
-718,021	588,031	0,068	-0,124
-717,006	78,007	-0,153	-0,120
-715,991	583,978	-0,083	-0,151
-714,977	-200,000	-0,001	0,067
-713,962	-200,000	-0,010	-0,070
-712,948	-200,000	-0,051	0,178
-711,933	495,467	-0,025	-0,043
-710,918	800,000	0,035	-0,085
-709,904	32,217	-0,089	-0,056
-708,889	83,533	-0,028	-0,022
-707,875	256,584	0,067	-0,084
-706,860	-102,172	0,035	-0,006
-705,845	162,197	0,064	-0,066
-704,831	532,279	-0,087	0,152
-703,816	240,427	-0,022	0,027
-702,802	431,254	-0,034	-0,055
-701,787	-119,188	0,057	0,007
-700,772	406,169	-0,042	-0,065
-699,758	-200,000	-0,029	-0,180
-698,743	800,000	0,033	-0,102
-697,729	-200,000	-0,019	0,072
-696,714	86,002	-0,063	0,051
-695,699	541,927	-0,032	0,057
-694,685	-200,000	-0,004	-0,115
-693,670	800,000	0,051	-0,134
-692,656	-30,855	-0,097	0,040
-691,641	-200,000	0,001	0,036
-690,627	12,643	-0,143	-0,081
-689,612	191,017	-0,016	0,018
-688,597	-200,000	-0,007	-0,076
-687,583	94,392	-0,063	-0,053
-686,568	191,235	0,062	-0,069
-685,554	-58,551	-0,098	0,031
-684,539	286,601	0,040	0,054
-683,524	-98,032	0,140	-0,026
-682,510	-200,000	-0,024	0,099
-681,495	35,589	-0,141	-0,091
-680,481	79,686	0,027	-0,022
-679,466	-5,635	-0,090	0,045
-678,451	-75,951	-0,076	0,020
-677,437	800,000	-0,044	0,124
-676,422	-75,775	0,073	-0,019
-675,408	90,819	0,126	0,103
-674,393	-87,444	0,089	-0,020
-673,378	-157,862	-0,051	0,002
-672,364	187,634	-0,070	-0,077
-671,349	-147,429	-0,015	-0,001
-670,335	800,000	-0,030	-0,066
-669,320	542,102	-0,048	-0,085
-668,305	-200,000	0,012	-0,062
-667,291	-200,000	-0,004	-0,028
-666,276	152,243	-0,153	-0,153
-665,262	800,000	-0,043	-0,097
-664,247	16,930	-0,112	0,065
-663,232	-200,000	0,037	-0,148
-662,218	800,000	-0,030	-0,087
-661,203	-12,985	-0,055	-0,026
-660,189	197,221	0,038	0,042
-659,174	190,332	-0,023	0,025
-658,159	35,851	0,047	0,031
-657,145	355,754	-0,009	0,013
-656,130	144,206	0,070	-0,069
-655,116	240,738	0,015	-0,019
-654,101	800,000	-0,050	0,103
-653,086	-2,381	-0,014	-0,007
-652,072	65,792	-0,057	-0,042
-651,057	800,000	-0,027	-0,064
-650,043	-90,972	-0,094	0,020
-649,028	52,687	-0,072	0,051
-648,014	-200,000	0,003	-0,085
-646,999	-200,000	-0,015	-0,091
-645,984	800,000	-0,067	0,151
-644,970	-200,000	-0,000	0,058
-643,955	-125,297	-0,183	0,020
-642,941	-97,697	-0,260	-0,049
-641,926	62,601	0,079	-0,058
-640,911	30,466	-0,092	-0,058
-639,897	-200,000	0,011	0,079
-638,882	-200,000	0,031	0,124
-637,868	368,051	-0,037	-0,055
-636,853	99,785	-0,128	-0,109
-635,838	-200,000	0,005	-0,049
-634,824	-200,000	-0,015	-0,112
-633,809	-0,259	0,081	0,042
-632,795	-200,000	0,011	0,089
-631,780	800,000	0,042	-0,094
-630,765	57,332	-0,070	0,050
-629,751	-63,746	0,192	-0,057
-628,736	5,229	-0,035	0,019
-627,722	659,380	-0,040	-0,075
-626,707	303,611	-0,064	-0,087
-625,692	-25,388	-0,091	0,039
-624,678	152,407	-0,071	0,071
-623,663	526,571	0,012	-0,021
-622,649	-200,000	0,004	-0,030
-621,634	-119,445	-0,032	0,004
-620,619	-200,000	0,003	-0,092
-619,605	297,233	0,049	0,066
-618,590	-135,168	0,147	0,013
-617,576	147,713	-0,020	0,020
-616,561	800,000	0,020	-0,050
-615,546	151,300	-0,118	-0,118
-614,532	528,240	0,082	-0,143
-613,517	160,371	0,135	-0,139
-612,503	373,733	-0,034	-0,051
-611,488	119,937	-0,087	0,079
-610,474	-15,044	0,090	0,042
-609,459	-26,055	0,063	0,027
-608,444	-67,773	-0,035	0,010
-607,430	518,068	0,032	-0,054
-606,415	-97,272	-0,087	0,016
-605,401	-73,325	-0,063	0,017
-604,386	-21,871	-0,024	-0,010
-603,371	-200,000	-0,014	-0,174
-602,357	212,235	0,143	0,165
-601,342	-108,393	0,041	-0,006
-600,328	773,336	-0,081	-0,163
-599,313	-7,219	-0,054	-0,027
-598,298	-200,000	0,005	-0,045
-597,284	528,693	-0,019	-0,033
-596,269	248,531	0,127	0,158
-595,255	800,000	0,011	0,030
-594,240	760,260	-0,050	-0,100
-593,225	20,492	-0,035	0,020
-592,211	-200,000	-0,010	-0,107
-591,196	156,668	0,045	-0,046
-590,182	190,028	0,062	-0,068
-589,167	800,000	-0,030	0,062
-588,152	-200,000	-0,001	0,217
-587,138	161,842	-0,132	0,135
-586,123	-157,233	-0,101	-0,004
-585,109	495,790	0,042	0,071
-584,094	-90,491	-0,117	0,025
-583,079	146,920	0,096	0,094
-582,065	-200,000	0,004	0,029
-581,050	-200,000	-0,016	0,171
-580,036	-94,486	-0,078	-0,016
-579,021	-109,717	-0,148	0,023
-578,006	-200,000	0,008	0,146
-576,992	-32,269	-0,110	-0,045
-575,977	-200,000	0,016	0,062
-574,963	155,362	0,077	0,078
-573,948	-200,000	-0,002	0,041
-572,934	-156,486	-0,021	-0,001
-571,919	341,851	0,092	0,133
-570,904	-200,000	-0,004	-0,186
-569,890	-53,130	0,099	-0,033
-568,875	191,504	-0,053	-0,058
-567,861	359,641	-0,071	-0,105
-566,846	-200,000	0,032	0,197
-565,831	-196,510	0,006	0,000
-564,817	-155,536	-0,133	0,006
-563,802	800,000	0,054	-0,111
-562,788	153,060	-0,113	-0,113
-561,773	161,328	0,035	-0,036
-560,758	-200,000	-0,017	-0,076
-559,744	155,652	0,063	-0,063
-558,729	-200,000	-0,011	-0,172
-557,715	30,808	-0,084	0,053
-556,700	56,004	-0,105	-0,074
-555,685	-22,183	0,041	-0,018
-554,671	-115,539	0,057	0,008
-553,656	800,000	0,028	-0,079
-552,642	409,362	0,011	-0,017
-551,627	117,939	-0,065	-0,058
-550,612	-128,919	0,195	-0,020
-549,598	68,643	-0,126	0,094
-548,583	144,442	-0,041	-0,040
-547,569	-200,000	-0,005	0,089
-546,554	-66,421	0,065	0,019
-545,539	33,653	-0,089	-0,056
-544,525	641,273	0,045	0,083
-543,510	532,471	0,030	0,053
-542,496	543,327	0,044	-0,076
-541,481	-51,302	0,095	0,032
-540,466	5,270	-0,121	0,065
-539,452	32,870	-0,062	-0,039
-538,437	44,882	-0,024	-0,016
-537,423	-200,000	-0,005	0,073
-536,408	298,956	0,037	0,050
-535,393	-13,150	-0,075	0,036
-534,379	800,000	-0,048	-0,138
-533,364	-200,000	0,000	-0,021
-532,350	-21,360	-0,097	-0,043
-531,335	48,488	-0,033	-0,022
-530,321	-54,364	0,006	0,002
-529,306	-36,757	0,117	-0,046
-528,291	184,329	-0,072	0,079
-527,277	800,000	0,028	-0,072
-526,262	-76,832	-0,143	-0,036
-525,248	-108,197	0,090	-0,014
-524,233	160,441	0,129	0,132
-523,218	800,000	0,071	0,163
-522,204	-2,345	-0,161	0,082
-521,189	589,532	-0,034	-0,061
-520,175	-200,000	0,002	-0,047
-519,160	-200,000	0,008	-0,050
-518,145	-200,000	0,011	0,071
-517,131	235,844	-0,011	-0,013
-516,116	-200,000	0,012	0,085
-515,102	105,371	-0,047	0,040
-514,087	-25,209	-0,069	-0,030
-513,072	650,621	0,012	0,023
-512,058	297,503	-0,011	0,014
-511,043	334,272	0,077	-0,109
-510,029	-200,000	-0,000	0,028
-509,014	94,604	0,093	0,077
-507,999	-200,000	-0,025	-0,092
-506,985	-79,143	-0,060	-0,015
-505,970	150,665	-0,039	-0,038
-504,956	-129,366	-0,165	0,017
-503,941	46,458	-0,129	0,087
-502,926	800,000	-0,013	0,032
-501,912	244,166	0,065	0,080
-500,897	112,361	0,018	0,016
-499,883	-200,000	-0,016	-0,081
-498,868	54,762	-0,040	0,028
-497,853	33,301	0,103	0,065
-496,839	487,779	0,039	-0,065
-495,824	800,000	0,016	0,049
-494,810	-200,000	0,031	-0,112
-493,795	-130,425	-0,032	0,003
-492,781	-49,427	0,105	0,036
-491,766	323,126	-0,053	0,073
-490,751	800,000	-0,041	-0,093
-489,737	210,460	0,075	0,086
-488,722	-200,000	0,000	-0,127
-487,708	752,246	-0,022	-0,043
-486,693	-200,000	0,002	0,065
-485,678	702,801	0,026	-0,050
-484,664	344,624	-0,099	-0,142
-483,649	-43,137	0,126	0,046
-482,635	800,000	-0,027	-0,059
-481,620	6,808	-0,054	-0,029
-480,605	-200,000	0,011	0,126
-479,591	10,750	0,120	-0,067
-478,576	674,881	-0,059	-0,113
-477,562	-105,437	-0,043	-0,007
-476,547	636,169	-0,068	-0,127
-475,532	800,000	-0,024	-0,064
-474,518	551,224	0,053	0,093
-473,503	60,905	0,056	-0,041
-472,489	-110,084	-0,090	0,014
-471,474	-200,000	-0,020	-0,112
-470,459	-86,361	-0,145	0,032
-469,445	42,936	0,097	-0,064
-468,430	-200,000	0,020	-0,206
-467,416	800,000	-0,070	0,155
-466,401	14,754	0,073	0,042
-465,386	582,981	0,031	0,055
-464,372	194,914	0,034	0,038
-463,357	235,768	0,020	-0,025
-462,343	-142,354	0,090	0,006
-461,328	693,022	-0,022	-0,041
-460,313	225,206	0,080	0,094
-459,299	-200,000	0,012	-0,045
-458,284	183,375	-0,070	-0,076
-457,270	-200,000	-0,012	-0,104
-456,255	-200,000	0,013	0,074
-455,241	800,000	0,030	-0,085
-454,226	-200,000	0,020	-0,166
-453,211	52,562	0,142	0,098
-452,197	-135,140	-0,056	-0,005
-451,182	196,471	-0,073	0,081
-450,168	120,031	0,101	-0,091
-449,153	-95,683	0,050	0,010
-448,138	159,951	-0,089	-0,090
-447,124	-200,000	0,007	-0,126
-446,109	-81,295	-0,053	-0,013
-445,095	147,137	0,084	0,082
-444,080	447,382	0,030	-0,048
-443,065	283,653	0,054	0,070
-442,051	538,989	-0,086	-0,149
-441,036	-82,346	0,021	-0,005
-440,022	800,000	0,036	-0,084
-439,007	-162,367	0,066	-0,002
-437,992	-200,000	-0,010	0,065
-436,978	-31,488	0,169	0,069
-435,963	177,428	-0,159	0,168
-434,949	-55,471	-0,042	-0,013
-433,934	-200,000	-0,002	0,012
-432,919	-48,449	-0,046	0,016
-431,905	-200,000	0,015	-0,050
-430,890	15,164	0,031	0,018
-429,876	380,298	0,023	0,035
-428,861	800,000	-0,023	0,069
-427,846	51,433	-0,042	-0,029
-426,832	406,740	-0,013	0,021
-425,817	800,000	0,022	0,051
-424,803	-103,765	0,043	-0,007
-423,788	800,000	-0,035	0,079
-422,773	-149,321	-0,065	0,004
-421,759	15,668	0,075	0,043
-420,744	-200,000	0,018	-0,062
-419,730	73,788	-0,086	-0,066
-418,715	-200,000	0,009	-0,071
-417,701	52,646	0,016	-0,011
-416,686	74,061	-0,057	-0,043
-415,671	21,370	-0,015	-0,009
-414,657	197,686	0,050	0,055
-413,642	270,154	0,043	-0,054
-412,628	800,000	0,040	-0,086
-411,613	122,245	0,055	-0,050
-410,598	560,044	-0,063	-0,111
-409,584	-200,000	0,020	0,190
-408,569	291,929	-0,028	0,037
-407,555	60,483	0,058	0,042
-406,540	344,925	0,039	0,057
-405,525	21,144	0,080	-0,047
-404,511	-200,000	-0,007	-0,034
-403,496	-111,484	-0,078	0,011
-402,482	-200,000	0,005	0,085
-401,467	-88,156	0,082	-0,018
-400,452	-114,705	0,053	0,007
-399,438	-200,000	-0,014	0,088
-398,423	88,434	0,051	-0,041
-397,409	-26,859	0,031	-0,013
-396,394	-200,000	-0,006	-0,070
-395,379	-200,000	0,021	-0,128
-394,365	127,058	0,057	0,053
-393,350	39,955	0,089	-0,058
-392,336	800,000	0,049	-0,138
-391,321	-200,000	0,007	-0,126
-390,306	163,034	0,066	-0,067
-389,292	145,946	-0,051	0,049
-388,277	-35,671	0,023	0,009
-387,263	-200,000	0,009	-0,031
-386,248	-109,174	-0,075	-0,012
-385,233	27,352	0,065	0,039
-384,219	571,609	0,055	-0,098
-383,204	59,899	-0,093	-0,066
-382,190	19,610	0,073	-0,043
-381,175	-200,000	0,032	0,139
-380,160	-145,606	0,079	-0,005
-379,146	204,110	0,089	0,100
-378,131	302,296	-0,049	0,065
-377,117	460,387	-0,044	0,071
-376,102	800,000	0,030	-0,089
-375,088	340,125	0,049	0,069
-374,073	325,562	0,085	0,119
-373,058	-187,262	-0,127	0,001
-372,044	-57,613	-0,077	0,024
-371,029	120,038	0,065	0,058
-370,015	188,006	-0,045	0,049
-369,000	-200,000	0,045	-0,196
-367,985	-200,000	-0,040	-0,155
-366,971	69,219	0,038	0,028
-365,956	-200,000	0,040	-0,137
-364,942	33,287	-0,094	0,059
-363,927	255,973	-0,004	-0,005
-362,912	116,291	0,114	-0,102
-361,898	78,737	0,036	0,028
-360,883	-200,000	0,007	-0,046
-359,869	158,755	-0,048	0,048
-358,854	-200,000	0,043	0,169
-357,839	76,943	-0,022	-0,017
-356,825	114,023	0,042	-0,037
-355,810	-63,096	0,163	0,048
-354,796	148,804	0,112	-0,110
-353,781	193,938	-0,100	-0,111
-352,766	550,601	0,031	0,054
-351,752	24,572	0,089	-0,054
-350,737	-175,105	0,103	-0,002
-349,723	800,000	0,044	-0,093
-348,708	-52,547	0,142	0,047
-347,693	-200,000	-0,020	0,077
-346,679	-92,567	-0,097	0,020
-345,664	800,000	0,043	-0,104
-344,650	-25,920	-0,034	0,014
-343,635	343,471	0,122	0,174
-342,620	239,362	0,045	-0,055
-341,606	265,663	-0,038	0,048
-340,591	-200,000	-0,017	0,095
-339,577	209,596	0,020	-0,022
-338,562	273,942	-0,010	-0,013
-337,548	-18,990	-0,074	0,033
-336,533	617,652	0,021	0,037
-335,518	87,446	0,060	0,048
-334,504	-199,938	0,085	-0,000
-333,489	-200,000	0,014	0,000
-332,475	158,042	-0,126	-0,127
-331,460	356,805	-0,096	-0,140
-330,445	-200,000	0,002	-0,081
-329,431	-145,414	-0,141	-0,009
-328,416	20,396	0,110	0,064
-327,402	800,000	-0,037	0,078
-326,387	-200,000	0,011	0,048
-325,372	193,421	-0,027	0,030
-324,358	-200,000	-0,014	0,091
-323,343	-200,000	-0,006	0,066
-322,329	800,000	-0,039	-0,090
-321,314	-200,000	0,032	0,180
-320,299	349,783	0,044	0,063
-319,285	-200,000	-0,002	0,162
-318,270	-200,000	0,012	0,205
-317,256	48,922	-0,158	-0,107
-316,241	103,063	-0,145	0,123
-315,226	-200,000	-0,031	0,160
-314,212	127,669	0,067	-0,062
-313,197	-96,684	0,026	-0,005
-312,183	-200,000	-0,015	-0,053
-311,168	30,646	-0,196	-0,121
-310,153	-200,000	-0,017	0,085
-309,139	-200,000	0,011	-0,049
-308,124	-44,478	0,096	-0,035
-307,110	-200,000	0,001	0,045
-306,095	291,343	-0,058	0,076
-305,080	-64,696	-0,132	0,038
-304,066	89,990	-0,065	0,052
-303,051	-200,000	0,021	0,087
-302,037	-56,712	0,027	0,009
-301,022	-200,000	0,005	0,081
-300,008	7,423	0,027	0,014
-298,993	113,299	-0,100	0,087
-297,978	-153,605	0,249	0,012
-296,964	64,584	-0,093	0,068
-295,949	-32,775	0,131	-0,053
-294,935	800,000	-0,009	-0,028
-293,920	-61,751	0,060	-0,018
-292,905	-200,000	-0,002	-0,122
-291,891	11,100	-0,046	0,026
-290,876	-51,743	0,117	0,039
-289,862	-200,000	-0,006	0,086
-288,847	-57,251	-0,086	-0,027
-287,832	572,007	-0,047	-0,083
-286,818	-200,000	-0,009	-0,087
-285,803	405,167	-0,004	-0,006
-284,789	294,214	-0,107	-0,142
-283,774	-117,196	0,090	0,012
-282,759	-200,000	-0,044	-0,160
-281,745	-79,825	-0,086	0,021
-280,730	800,000	-0,029	-0,080
-279,716	-6,584	0,027	-0,013
-278,701	-105,636	0,249	-0,040
-277,686	-200,000	-0,004	0,076
-276,672	-32,006	0,075	0,030
-275,657	-200,000	0,001	0,147
-274,643	-153,507	-0,053	0,003
-273,628	800,000	0,023	0,055
-272,613	800,000	-0,007	-0,017
-271,599	-45,411	0,108	0,038
-270,584	553,131	-0,057	-0,100
-269,570	290,520	0,052	-0,069
-268,555	-200,000	-0,008	-0,121
-267,540	140,521	-0,149	0,142
-266,526	-200,000	0,010	-0,155
-265,511	88,984	-0,135	-0,109
-264,497	800,000	0,057	0,127
-263,482	800,000	-0,053	-0,144
-262,467	-139,181	0,081	-0,006
-261,453	-200,000	-0,028	-0,097
-260,438	74,601	-0,046	-0,035
-259,424	-200,000	0,012	-0,047
-258,409	434,381	0,044	-0,070
-257,395	-121,132	0,086	-0,010
-256,380	-200,000	0,027	-0,087
-255,365	97,282	-0,079	0,065
-254,351	-101,948	0,050	0,009
-253,336	800,000	-0,039	-0,091
-252,322	36,724	-0,072	0,046
-251,307	800,000	0,054	0,130
-250,292	73,945	0,057	0,043
-249,278	410,358	0,037	-0,057
-248,263	121,372	0,049	0,044
-247,249	162,494	0,006	-0,006
-246,234	149,533	0,090	0,088
-245,219	-70,355	-0,110	-0,030
-244,205	162,951	-0,104	0,106
-243,190	800,000	-0,030	-0,067
-242,176	800,000	0,049	-0,107
-241,161	60,068	0,025	0,018
-240,146	-92,894	0,053	-0,011
-239,132	167,676	-0,067	0,069
-238,117	77,410	-0,081	-0,062
-237,103	-65,518	-0,079	-0,023
-236,088	535,579	0,032	-0,055
-235,073	-41,845	0,053	0,020
-234,059	-166,414	0,112	-0,003
-233,044	189,817	0,036	0,039
-232,030	-200,000	-0,005	-0,041
-231,015	-70,983	-0,159	-0,043
-230,000	-64,419	0,057	0,017
-228,986	230,520	-0,066	-0,079
-227,971	24,081	-0,030	0,018
-226,957	-7,958	-0,013	0,006
-225,942	-200,000	0,011	0,074
-224,927	-1,423	-0,031	0,016
-223,913	61,624	-0,142	-0,102
-222,898	800,000	-0,052	0,151
-221,884	-200,000	-0,058	0,218
-220,869	-200,000	0,012	0,102
-219,855	-64,789	0,060	0,017
-218,840	198,041	0,163	0,180
-217,825	-134,989	-0,042	0,004
-216,811	575,682	0,028	-0,049
-215,796	46,549	-0,154	-0,103
-214,782	141,207	0,069	0,066
-213,767	726,270	-0,058	0,112
-212,752	119,902	0,010	-0,009
-211,738	104,910	-0,028	0,023
-210,723	800,000	0,024	-0,063
-209,709	-61,060	0,158	-0,048
-208,694	-33,672	-0,022	0,009
-207,679	-47,967	-0,138	0,048
-206,665	131,905	0,075	0,070
-205,650	-40,474	-0,011	0,004
-204,636	742,796	-0,031	0,061
-203,621	-200,000	0,024	-0,111
-202,606	-72,185	-0,202	-0,054
-201,592	-188,145	0,208	0,002
-200,577	-200,000	-0,012	0,058
-199,563	299,707	0,076	0,101
-198,548	92,259	0,075	0,061
-197,533	-65,268	0,044	-0,013
-196,519	800,000	0,028	0,063
-195,504	-63,409	-0,093	-0,028
-194,490	-109,056	-0,055	-0,008
-193,475	21,953	-0,118	-0,069
-192,460	-200,000	-0,009	-0,030
-191,446	800,000	0,039	0,087
-190,431	-200,000	0,025	0,086
-189,417	800,000	-0,033	0,085
-188,402	359,396	-0,086	-0,125
-187,387	3,923	-0,105	-0,055
-186,373	-200,000	0,014	-0,085
-185,358	-200,000	-0,003	0,042
-184,344	108,788	0,084	-0,073
-183,329	12,045	-0,047	-0,026
-182,315	536,471	0,064	0,110
-181,300	800,000	0,055	0,152
-180,285	281,431	-0,032	-0,041
-179,271	646,315	-0,040	0,073
-178,256	274,267	0,055	-0,070
-177,242	-200,000	0,025	0,168
-176,227	60,037	0,078	0,056
-175,212	800,000	-0,023	0,051
-174,198	800,000	-0,038	0,079
-173,183	800,000	0,008	-0,019
-172,169	-159,320	0,048	-0,002
-171,154	-200,000	-0,002	-0,144
-170,139	190,733	0,022	0,024
-169,125	177,935	0,096	0,100
-168,110	-200,000	0,020	0,082
-167,096	431,438	-0,108	0,170
-166,081	-200,000	-0,005	-0,199
-165,066	-200,000	0,025	-0,128
-164,052	800,000	0,034	-0,072
-163,037	-200,000	0,009	0,038
-162,023	-200,000	0,014	0,049
-161,008	19,983	0,072	0,041
-159,993	156,826	-0,020	0,020
-158,979	331,855	0,074	0,103
-157,964	-39,380	-0,121	-0,046
-156,950	57,794	0,051	-0,036
-155,935	-200,000	0,007	-0,056
-154,920	-200,000	0,016	0,072
-153,906	800,000	-0,006	0,019
-152,891	-59,180	0,215	0,066
-151,877	-136,820	0,096	-0,008
-150,862	87,960	-0,057	-0,046
-149,847	90,334	0,035	-0,028
-148,833	-200,000	-0,047	0,151
-147,818	509,103	0,032	0,055
-146,804	241,998	0,056	0,068
-145,789	63,045	0,109	-0,079
-144,775	285,612	-0,037	-0,048
-143,760	64,172	0,052	-0,037
-142,745	800,000	-0,050	-0,104
-141,731	-200,000	-0,038	0,213
-140,716	-128,237	-0,137	0,014
-139,702	34,504	-0,031	0,020
-138,687	800,000	0,043	0,102
-137,672	800,000	-0,013	-0,040
-136,658	-139,996	-0,086	-0,006
-135,643	31,015	-0,120	-0,074
-134,629	-200,000	-0,004	0,046
-133,614	-200,000	-0,011	0,136
-132,599	-200,000	-0,002	0,135
-131,585	-87,678	0,060	0,013
-130,570	800,000	-0,020	-0,049
-129,556	652,601	-0,067	-0,123
-128,541	58,303	-0,094	-0,066
-127,526	-200,000	-0,016	-0,111
-126,512	-23,870	0,059	-0,025
-125,497	-44,758	0,158	-0,056
-124,483	622,235	-0,032	0,058
-123,468	-200,000	0,016	-0,246
-122,453	463,385	0,077	-0,125
-121,439	800,000	0,021	-0,063
-120,424	-200,000	-0,017	-0,150
-119,410	69,912	0,058	-0,043
-118,395	497,839	0,012	-0,019
-117,380	800,000	0,070	0,151
-116,366	265,711	0,068	0,086
-115,351	-136,837	-0,088	-0,007
-114,337	800,000	-0,019	-0,056
-113,322	97,282	-0,047	0,039
-112,307	-144,011	0,210	0,014
-111,293	-119,120	-0,098	-0,012
-110,278	779,080	0,025	0,049
-109,264	-1,234	0,014	0,007
-108,249	58,361	-0,111	-0,078
-107,234	313,788	0,049	0,066
-106,220	139,049	0,082	-0,078
-105,205	701,094	-0,054	-0,102
-104,191	-200,000	-0,022	0,124
-103,176	-200,000	0,006	-0,107
-102,162	171,858	0,106	0,110
-101,147	26,756	0,068	0,041
-100,132	-64,737	-0,055	0,016
-99,118	-200,000	0,003	-0,165
-98,103	314,207	0,072	0,097
-97,089	-200,000	0,003	0,013
-96,074	-200,000	0,010	-0,139
-95,059	455,755	0,056	-0,090
-94,045	-179,917	-0,091	-0,001
-93,030	476,095	0,063	-0,103
-92,016	347,643	-0,080	0,114
-91,001	214,106	-0,012	0,014
-89,986	-129,390	0,045	-0,004
-88,972	67,320	0,034	-0,025
-87,957	140,654	-0,011	0,010
-86,943	466,060	0,032	-0,051
-85,928	800,000	0,006	0,016
-84,913	360,006	0,062	-0,089
-83,899	-75,670	-0,033	0,008
-82,884	259,619	0,026	-0,033
-81,870	670,494	-0,021	-0,040
-80,855	-96,760	0,129	-0,024
-79,840	240,183	-0,060	0,072
-78,826	-21,743	0,054	0,023
-77,811	-200,000	0,027	-0,152
-76,797	-35,358	0,092	0,036
-75,782	70,888	-0,084	0,063
-74,767	-200,000	0,001	0,013
-73,753	-139,948	-0,027	-0,002
-72,738	-200,000	0,009	0,062
-71,724	-200,000	-0,003	-0,140
-70,709	552,323	-0,091	-0,157
-69,694	800,000	0,039	-0,107
-68,680	-129,666	0,110	0,011
-67,665	35,930	0,056	-0,035
-66,651	62,012	-0,123	0,088
-65,636	-19,162	-0,074	0,033
-64,622	295,495	-0,088	-0,116
-63,607	-24,665	-0,080	0,034
-62,592	-200,000	0,042	0,180
-61,578	-72,209	0,095	0,025
-60,563	800,000	-0,072	-0,164
-59,549	499,423	-0,119	0,198
-58,534	39,848	-2,346	-1,508
-57,519	-200,000	-0,013	-0,760
-56,505	-200,000	-1,500	-5,173
-55,490	275,804	0,893	1,138
-54,476	800,000	5,426	12,043
-53,461	-200,000	19,815	324,204
-52,446	800,000	752,730	2314,526
-51,432	535,994	1664,038	2842,675
-50,417	116,277	1640,443	1441,236
-49,403	85,418	1287,677	1013,102
-48,388	31,514	1027,481	631,869
-47,373	19,975	990,615	571,124
-46,359	16,221	978,577	551,831
-45,344	12,633	975,173	538,111
-44,330	13,086	973,337	538,563
-43,315	12,238	971,356	534,666
-42,300	12,151	970,492	533,884
-41,286	12,131	969,269	533,127
-40,271	12,151	968,442	532,715
-39,257	12,204	967,376	532,280
-38,242	12,135	966,676	531,648
-37,227	12,162	965,808	531,238
-36,213	12,129	964,805	530,559
-35,198	12,148	963,828	530,060
-34,184	12,182	963,197	529,803
-33,169	12,190	962,098	529,205
-32,154	12,158	961,375	528,682
-31,140	12,179	960,453	528,221
-30,125	12,157	959,877	527,812
-29,111	12,214	958,759	527,363
-28,096	12,263	958,262	527,225
-27,082	12,139	957,728	526,512
-26,067	12,211	956,787	526,205
-25,052	12,172	956,070	525,663
-24,038	12,151	955,501	525,263
-23,023	12,131	954,896	524,844
-22,009	12,216	954,040	524,626
-20,994	12,196	953,446	524,214
-19,979	12,238	952,981	524,072
-18,965	12,162	952,462	523,523
-17,950	12,257	951,549	523,304
-16,936	12,108	951,006	522,507
-15,921	12,170	950,232	522,260
-14,906	12,068	949,478	521,499
-13,892	12,106	948,922	521,296
-12,877	12,082	948,165	520,781
-11,863	12,043	947,595	520,323
-10,848	12,100	947,247	520,292
-9,833	12,133	946,609	520,029
-8,819	12,125	945,903	519,594
-7,804	12,113	945,137	519,113
-6,790	12,070	944,761	518,749
-5,775	12,144	944,078	518,590
-4,760	12,081	943,441	518,020
-3,746	12,049	942,961	517,633
-2,731	11,955	942,302	516,952
-1,717	11,873	941,596	516,284
-0,702	11,901	941,020	516,038
0,313	11,719	940,342	515,867
1,327	15,333	937,922	525,914
2,342	24,660	790,255	467,747
3,356	20,250	456,161	263,259
4,371	-7,839	315,606	152,104
5,386	-12,149	297,629	139,039
6,400	-14,258	291,513	134,065
7,415	-14,071	289,058	133,109
8,429	-14,251	287,469	132,189
9,444	-14,424	286,607	131,610
10,459	-14,277	285,912	131,424
11,473	-14,423	285,485	131,073
12,488	-14,417	284,812	130,758
13,502	-14,310	284,297	130,614
14,517	-14,153	283,952	130,596
15,531	-13,794	283,606	130,775
16,546	-13,629	283,308	130,786
17,561	-13,502	282,755	130,641
18,575	-13,686	282,479	130,324
19,590	-13,653	282,168	130,201
20,604	-13,439	281,852	130,250
21,619	-13,705	281,642	129,885
22,634	-13,766	281,131	129,579
23,648	-13,733	280,930	129,507
24,663	-13,755	280,702	129,369
25,677	-13,501	280,125	129,335
26,692	-13,551	280,063	129,246
27,707	-13,638	279,768	129,015
28,721	-13,431	279,335	129,003
29,736	-13,606	279,195	128,759
30,750	-13,656	278,898	128,563
31,765	-13,514	278,600	128,549
32,780	-13,639	278,576	128,408
33,794	-13,666	278,149	128,174
34,809	-13,446	277,944	128,277
35,823	-13,586	277,639	127,992
36,838	-13,418	277,265	127,967
37,853	-13,619	277,032	127,659
38,867	-13,490	276,827	127,674
39,882	-13,627	276,642	127,448
40,896	-13,458	276,390	127,480
41,911	-13,546	276,082	127,244
42,926	-13,652	275,810	127,007
43,940	-13,652	275,683	126,938
44,955	-13,566	275,377	126,866
45,969	-13,564	275,185	126,768
46,984	-13,562	275,003	126,675
47,999	-13,657	274,696	126,432
49,013	-13,510	274,451	126,447
50,028	-13,572	274,301	126,308
51,042	-13,607	273,995	126,123
52,057	-13,811	273,907	125,881
53,071	-13,718	273,640	125,834
54,086	-13,778	273,404	125,659
55,101	-13,648	273,146	125,650
56,115	-13,710	272,829	125,435
57,130	-13,608	272,685	125,452
58,144	-13,862	272,449	125,096
59,159	-13,856	272,170	124,963
60,174	-13,726	272,061	125,023
61,188	-13,735	271,642	124,810
62,203	-13,628	271,457	124,813
63,217	-13,587	271,288	124,762
64,232	-13,875	270,997	124,352
65,247	-13,745	270,638	124,295
66,261	-13,625	270,491	124,327
67,276	-13,612	270,309	124,244
68,290	-13,784	270,135	123,995
69,305	-13,597	269,798	124,001
70,320	-13,667	269,766	123,911
71,334	-13,661	269,455	123,763
72,349	-13,594	269,222	123,706
73,363	-13,614	268,851	123,507
74,378	-13,470	268,610	123,516
75,393	-13,590	268,583	123,383
76,407	-13,631	268,373	123,238
77,422	-13,838	268,071	122,899
78,436	-13,627	267,830	122,971
79,451	-13,744	267,647	122,769
80,466	-13,742	267,334	122,616
81,480	-13,681	267,266	122,630
82,495	-13,418	266,922	122,700
83,509	-13,633	266,865	122,467
84,524	-13,861	266,733	122,189
85,539	-13,631	266,349	122,210
86,553	-13,585	266,284	122,212
87,568	-13,468	265,824	122,096
88,582	-13,540	265,641	121,935
89,597	-13,661	265,522	121,760
90,611	-13,718	265,322	121,607
91,626	-13,748	265,192	121,510
92,641	-13,628	264,956	121,498
93,655	-13,512	264,720	121,483
94,670	-13,667	264,593	121,275
95,684	-13,617	264,243	121,149
96,699	-13,716	264,139	121,002
97,714	-13,691	264,063	120,978
98,728	-13,500	263,594	120,923
99,743	-13,513	263,526	120,870
100,757	-13,541	263,122	120,648
101,772	-13,581	263,056	120,572
102,787	-13,794	262,942	120,319
103,801	-13,711	262,629	120,239
104,816	-13,741	262,314	120,057
105,830	-13,631	262,294	120,135
106,845	-13,727	262,252	120,020
107,860	-13,664	261,913	119,911
108,874	-13,693	261,507	119,688
109,889	-13,708	261,380	119,606
110,903	-13,777	261,232	119,466
111,918	-13,830	261,006	119,305
112,933	-13,729	260,807	119,293
113,947	-13,718	260,653	119,222
114,962	-13,763	260,392	119,052
115,976	-13,633	260,182	119,060
116,991	-13,732	260,080	118,915
118,006	-13,529	259,785	118,948
119,020	-13,796	259,807	118,714
120,035	-13,627	259,572	118,744
121,049	-13,744	259,388	118,546
122,064	-13,751	259,262	118,472
123,079	-13,732	258,979	118,349
124,093	-13,756	258,641	118,163
125,108	-13,657	258,558	118,200
126,122	-13,682	258,458	118,123
127,137	-13,466	258,190	118,178
128,151	-13,618	258,069	117,980
129,166	-13,609	257,815	117,861
130,181	-13,452	257,428	117,811
131,195	-13,598	257,393	117,657
132,210	-13,749	257,057	117,362
133,224	-13,646	256,936	117,386
134,239	-13,640	256,662	117,255
135,254	-13,845	256,585	117,031
136,268	-13,630	256,310	117,082
137,283	-13,521	256,050	117,047
138,297	-13,740	256,070	116,855
139,312	-13,780	255,713	116,648
140,327	-13,702	255,569	116,639
141,341	-13,625	255,444	116,639
142,356	-13,707	255,150	116,423
143,370	-13,721	255,005	116,334
144,385	-13,492	254,937	116,491
145,400	-13,345	254,645	116,473
146,414	-13,485	254,329	116,198
147,429	-13,638	254,204	115,999
148,443	-13,709	254,212	115,932
149,458	-13,699	253,929	115,801
150,473	-13,546	253,828	115,875
151,487	-13,586	253,440	115,653
152,502	-13,673	253,321	115,514
153,516	-13,616	253,063	115,435
154,531	-13,711	252,996	115,313
155,546	-13,781	252,827	115,166
156,560	-13,611	252,531	115,166
157,575	-13,752	252,366	114,960
158,589	-13,705	252,074	114,857
159,604	-13,703	251,904	114,770
160,619	-13,568	251,812	114,833
161,633	-13,570	251,709	114,774
162,648	-13,617	251,540	114,647
163,662	-13,626	251,320	114,530
164,677	-13,683	251,139	114,389
165,692	-13,711	250,953	114,270
166,706	-13,398	250,772	114,442
167,721	-13,396	250,542	114,329
168,735	-13,624	250,428	114,074
169,750	-13,600	250,415	114,078
170,764	-13,384	250,035	114,077
171,779	-13,615	250,010	113,860
172,794	-13,549	249,852	113,834
173,808	-13,616	249,593	113,650
174,823	-13,630	249,420	113,548
175,837	-13,636	249,220	113,443
176,852	-13,725	249,059	113,284
177,867	-13,709	248,935	113,231
178,881	-13,435	248,774	113,377
179,896	-13,491	248,558	113,222
180,910	-13,518	248,485	113,156
181,925	-13,539	248,191	112,995
182,940	-13,573	248,047	112,891
183,954	-13,698	247,832	112,678
184,969	-13,687	247,845	112,683
185,983	-13,536	247,655	112,713
186,998	-13,520	247,474	112,634
188,013	-13,238	247,093	112,685
189,027	-13,513	246,888	112,353
190,042	-13,932	246,757	111,935
191,056	-14,064	246,690	111,785
192,071	-14,085	246,430	111,640
193,086	-13,671	246,191	111,865
194,100	-13,742	246,044	111,729
195,115	-13,622	245,917	111,761
196,129	-13,438	245,568	111,745
197,144	-13,727	245,475	111,453
198,159	-13,777	245,138	111,249
199,173	-13,892	245,130	111,140
200,188	-14,134	244,840	110,800
201,202	-14,086	244,621	110,731
202,217	-14,026	244,698	110,804
203,232	-13,748	244,434	110,904
204,246	-14,022	244,127	110,530
205,261	-15,075	243,550	109,395
206,275	-14,857	243,756	109,657
207,290	-10,722	245,062	113,643
208,304	-3,718	247,335	120,501
209,319	0,525	248,664	124,667
210,334	1,814	248,799	125,795
211,348	2,404	248,793	126,271
212,363	2,499	248,859	126,372
213,377	3,161	248,853	126,907
214,392	3,471	248,898	127,176
215,407	3,514	248,692	127,095
216,421	3,462	248,503	126,944
217,436	3,465	248,377	126,871
218,450	3,490	248,089	126,733
219,465	3,367	247,996	126,572
220,480	3,294	247,730	126,365
221,494	3,169	247,487	126,127
222,509	2,718	247,399	125,699
223,523	2,483	247,047	125,316
224,538	2,518	246,737	125,175
225,553	2,094	246,583	124,738
226,567	2,444	246,228	124,834
227,582	2,225	246,216	124,638
228,596	2,186	246,080	124,526
229,611	2,119	245,958	124,398
230,626	2,044	245,690	124,189
231,640	2,050	245,649	124,163
232,655	2,108	245,479	124,113
233,669	2,100	245,233	123,971
234,684	1,901	245,079	123,720
235,699	2,170	245,003	123,890
236,713	2,315	244,858	123,924
237,728	2,300	244,646	123,793
238,742	2,274	244,446	123,660
239,757	2,321	244,316	123,621
240,772	2,157	244,141	123,389
241,786	2,166	243,950	123,288
242,801	1,919	243,875	123,040
243,815	1,927	243,774	122,984
244,830	1,963	243,712	122,971
245,844	2,390	243,315	123,105
246,859	2,125	243,159	122,801
247,874	2,199	243,050	122,795
248,888	2,225	242,789	122,673
249,903	2,203	242,742	122,620
250,917	2,415	242,623	122,720
251,932	2,443	242,507	122,673
252,947	2,387	242,289	122,507
253,961	2,398	242,088	122,403
254,976	2,382	241,932	122,300
255,990	2,403	241,809	122,244
257,005	2,285	241,690	122,078
258,020	2,287	241,601	122,024
259,034	2,172	241,293	121,765
260,049	2,178	241,242	121,734
261,063	2,246	240,862	121,586
262,078	2,308	240,813	121,599
263,093	2,258	240,643	121,463
264,107	2,384	240,551	121,507
265,122	2,036	240,410	121,147
266,136	2,211	240,262	121,201
267,151	2,456	240,068	121,287
268,166	2,184	239,978	121,014
269,180	2,371	239,544	120,933
270,195	2,351	239,542	120,906
271,209	2,117	239,446	120,660
272,224	2,404	239,179	120,742
273,239	2,313	239,199	120,670
274,253	2,178	238,959	120,431
275,268	2,200	238,792	120,354
276,282	2,233	238,703	120,324
277,297	1,951	238,472	119,974
278,312	2,157	238,359	120,070
279,326	2,384	238,331	120,224
280,341	2,303	238,050	120,007
281,355	2,232	237,853	119,842
282,370	2,308	237,745	119,836
283,384	2,392	237,709	119,874
284,399	2,137	237,380	119,496
285,414	2,588	237,106	119,703
286,428	2,360	237,141	119,530
287,443	2,188	236,966	119,296
288,457	2,435	236,892	119,442
289,472	2,177	236,810	119,188
290,487	2,305	236,626	119,185
291,501	2,236	236,295	118,953
292,516	2,226	236,243	118,909
293,530	2,192	236,163	118,831
294,545	2,081	236,082	118,693
295,560	2,426	235,753	118,787
296,574	2,286	235,635	118,607
297,589	2,393	235,539	118,632
298,603	2,569	235,272	118,623
299,618	2,446	235,246	118,504
300,633	2,446	234,920	118,330
301,647	2,221	234,911	118,140
302,662	2,634	234,720	118,354
303,676	2,438	234,698	118,180
304,691	2,435	234,389	118,011
305,706	2,478	234,359	118,019
306,720	2,550	234,193	117,981
307,735	2,520	233,980	117,840
308,749	2,399	233,855	117,672
309,764	2,399	233,691	117,580
310,779	2,264	233,456	117,347
311,793	2,249	233,310	117,251
312,808	2,380	233,243	117,308
313,822	2,336	233,118	117,201
314,837	2,503	232,848	117,183
315,852	2,427	232,802	117,091
316,866	2,466	232,705	117,063
317,881	2,509	232,591	117,027
318,895	2,385	232,471	116,861
319,910	2,298	232,320	116,708
320,925	2,394	231,953	116,587
321,939	2,207	231,979	116,446
322,954	2,237	231,740	116,339
323,968	2,153	231,682	116,235
324,983	2,241	231,595	116,249
325,997	2,332	231,333	116,176
327,012	2,443	231,207	116,187
328,027	2,169	231,096	115,912
329,041	2,425	230,834	115,966
330,056	2,453	230,818	115,968
331,070	2,527	230,629	115,919
332,085	2,490	230,388	115,760
333,100	2,427	230,144	115,579
334,114	2,403	230,042	115,499
335,129	2,340	229,855	115,347
336,143	2,376	229,826	115,350
337,158	2,454	229,746	115,358
338,173	2,567	229,438	115,279
339,187	2,405	229,335	115,095
340,202	2,319	229,214	114,958
341,216	2,321	229,190	114,937
342,231	2,523	229,000	114,984
343,246	2,561	228,860	114,933
344,260	2,494	228,687	114,785
345,275	2,438	228,555	114,666
346,289	2,427	228,475	114,608
347,304	2,502	228,218	114,525
348,319	2,574	228,092	114,505
349,333	2,423	227,761	114,216
350,348	2,355	227,823	114,186
351,362	2,166	227,775	114,010
352,377	2,396	227,483	114,026
353,392	2,218	227,269	113,775
354,406	2,317	227,118	113,763
355,421	194,332	1316,330	1387,831
356,435	155,783	1448,970	1387,761
