DTS Sentinel unit serial number:	SN410029Multiplexer serial number:	ORYXHardware model number:	OX2-SRSoftware version number:	ORYX F/W v4,00 Oryx Data Collector v3.7.2.0data status	okinstallation	B5 Nyhavnadifferential loss correction	single-endedforward channel	channel 2reverse channel	N/Adate	2023/12/14time	07:07:13forward acquisition time	300,00reverse acquisition time	0,00gamma	499,1914k internal	0,3159k external	0,3159temperature offset calibration	1,0000default loss term (dB/km)	0,3820temperature slope calibration	1,0000multiplexer offset coefficient	1,0000multiplexer slope coefficient	1,0000fibre end	0,00T internal ref (°C)	7,26T ext. ref 1 (°C)	-9,19T ext. ref 2 (°C)	-9,29length (m)	temperature (°C)	Stokes	anti-Stokes-744,400	-99,621	0,261	0,048
-743,385	-69,434	-0,461	-0,130
-742,371	571,098	0,103	0,186
-741,356	-33,503	-0,453	-0,184
-740,342	-4,690	0,146	0,074
-739,327	-127,830	-0,359	-0,038
-738,312	-41,969	-0,019	0,007
-737,298	-97,206	-0,391	-0,074
-736,283	-112,589	0,182	-0,026
-735,269	-64,353	-0,351	-0,104
-734,254	-24,744	0,111	0,048
-733,239	-61,666	-0,521	-0,160
-732,225	106,052	0,257	0,224
-731,210	-200,000	0,009	0,067
-730,196	800,000	-0,054	-0,134
-729,181	2,802	-0,079	-0,042
-728,167	800,000	0,050	-0,127
-727,152	1,548	-0,199	-0,105
-726,137	204,292	-0,023	-0,026
-725,123	-200,000	0,025	-0,127
-724,108	-6,695	-0,134	-0,067
-723,094	-200,000	-0,039	-0,197
-722,079	-91,485	-0,093	-0,019
-721,064	-0,377	0,008	-0,004
-720,050	800,000	0,033	0,078
-719,035	800,000	-0,017	0,052
-718,021	800,000	0,060	-0,150
-717,006	-87,463	-0,131	-0,029
-715,991	800,000	-0,031	-0,091
-714,977	135,271	-0,048	0,046
-713,962	180,134	-0,019	-0,021
-712,948	135,042	0,011	0,010
-711,933	485,249	-0,019	-0,032
-710,918	-200,000	-0,012	-0,057
-709,904	-200,000	0,021	0,112
-708,889	800,000	0,028	0,068
-707,875	164,841	-0,162	-0,169
-706,860	-200,000	-0,004	-0,097
-705,845	-89,337	-0,086	-0,019
-704,831	-49,872	0,061	-0,021
-703,816	-200,000	-0,002	0,066
-702,802	158,279	0,009	-0,009
-701,787	800,000	0,045	-0,093
-700,772	140,585	-0,015	0,014
-699,758	245,526	-0,074	0,092
-698,743	41,132	-0,072	0,047
-697,729	273,503	0,041	0,054
-696,714	219,816	0,029	-0,034
-695,699	-58,174	-0,165	0,053
-694,685	-177,292	-0,131	-0,002
-693,670	176,787	-0,045	-0,048
-692,656	-200,000	0,004	-0,088
-691,641	-154,686	-0,045	0,002
-690,627	154,311	0,094	-0,095
-689,612	-200,000	-0,009	0,075
-688,597	272,489	-0,041	0,053
-687,583	800,000	0,045	-0,096
-686,568	323,055	0,006	0,008
-685,554	12,217	-0,046	-0,026
-684,539	240,358	0,046	-0,057
-683,524	97,026	-0,169	0,142
-682,510	383,256	0,077	0,116
-681,495	800,000	0,024	0,055
-680,481	121,101	-0,124	-0,114
-679,466	-143,375	0,123	0,009
-678,451	452,701	-0,038	-0,062
-677,437	800,000	-0,050	0,104
-676,422	28,447	-0,123	-0,076
-675,408	-200,000	0,000	0,139
-674,393	40,261	0,026	-0,017
-673,378	-158,358	-0,124	-0,005
-672,364	-200,000	-0,005	0,103
-671,349	800,000	-0,053	-0,110
-670,335	-44,138	0,131	0,048
-669,320	534,921	0,031	0,054
-668,305	210,477	-0,030	-0,035
-667,291	174,402	-0,100	-0,106
-666,276	9,940	0,066	-0,037
-665,262	90,992	-0,079	0,065
-664,247	-200,000	0,018	-0,101
-663,232	90,886	0,080	-0,066
-662,218	86,431	-0,044	0,036
-661,203	-200,000	-0,006	0,134
-660,189	686,847	-0,053	-0,102
-659,174	-95,504	-0,096	-0,019
-658,159	-55,720	-0,210	-0,069
-657,145	128,535	-0,092	-0,086
-656,130	-200,000	0,002	0,127
-655,116	186,913	-0,104	0,114
-654,101	-47,118	0,196	0,070
-653,086	-200,000	-0,021	0,080
-652,072	-200,000	-0,028	0,179
-651,057	79,586	-0,133	-0,105
-650,043	-200,000	-0,006	-0,171
-649,028	800,000	0,045	-0,130
-648,014	-120,284	0,109	0,013
-646,999	-200,000	0,021	0,070
-645,984	-139,322	-0,058	0,004
-644,970	800,000	-0,024	-0,077
-643,955	-42,241	-0,056	-0,021
-642,941	149,754	-0,110	-0,110
-641,926	224,620	-0,073	-0,087
-640,911	472,612	-0,066	0,110
-639,897	95,510	0,086	-0,072
-638,882	58,968	-0,059	0,043
-637,868	-82,403	-0,027	-0,006
-636,853	-112,795	-0,125	-0,018
-635,838	-200,000	0,002	-0,012
-634,824	-200,000	0,018	-0,180
-633,809	-200,000	-0,021	-0,074
-632,795	-152,818	0,123	-0,006
-631,780	-114,305	0,085	0,012
-630,765	97,647	-0,042	-0,036
-629,751	180,921	0,004	-0,004
-628,736	800,000	0,050	-0,113
-627,722	-110,103	-0,094	-0,014
-626,707	-38,982	-0,148	0,057
-625,692	105,240	0,034	-0,029
-624,678	-200,000	-0,002	0,026
-623,663	20,398	-0,036	-0,021
-622,649	800,000	-0,020	-0,065
-621,634	-18,705	0,015	-0,007
-620,619	223,993	-0,054	-0,064
-619,605	93,162	0,039	0,033
-618,590	-128,009	0,164	-0,017
-617,576	-96,490	-0,063	-0,012
-616,561	-5,467	-0,042	0,021
-615,546	-48,004	-0,039	0,014
-614,532	800,000	0,070	-0,146
-613,517	209,087	-0,064	-0,073
-612,503	-102,286	0,089	-0,016
-611,488	678,879	-0,061	-0,117
-610,474	-131,673	-0,187	0,018
-609,459	76,015	-0,076	0,059
-608,444	540,374	0,044	-0,076
-607,430	800,000	-0,033	0,092
-606,415	-200,000	0,060	0,195
-605,401	-48,178	0,083	-0,029
-604,386	-43,119	0,131	0,048
-603,371	190,516	-0,040	0,044
-602,357	63,370	-0,036	-0,027
-601,342	-200,000	-0,024	-0,135
-600,328	-200,000	0,017	-0,117
-599,313	312,750	-0,088	-0,122
-598,298	273,489	0,014	-0,018
-597,284	-89,703	0,010	-0,002
-596,269	800,000	-0,040	-0,102
-595,255	603,634	-0,031	-0,057
-594,240	-61,368	-0,012	-0,004
-593,225	-130,493	-0,054	-0,005
-592,211	106,437	-0,070	-0,061
-591,196	-119,772	0,137	-0,017
-590,182	-90,248	0,113	-0,024
-589,167	-200,000	0,025	0,138
-588,152	-200,000	-0,004	0,079
-587,138	54,464	0,066	-0,047
-586,123	800,000	0,029	0,078
-585,109	35,433	-0,129	-0,083
-584,094	800,000	0,036	-0,085
-583,079	-85,254	0,090	-0,020
-582,065	-104,812	0,055	0,009
-581,050	16,999	-0,108	-0,063
-580,036	127,984	-0,091	-0,084
-579,021	227,724	0,045	-0,054
-578,006	-200,000	0,001	-0,056
-576,992	-84,549	-0,070	0,016
-575,977	-167,844	0,283	-0,008
-574,963	336,842	-0,076	0,108
-573,948	800,000	-0,057	0,116
-572,934	519,343	-0,031	-0,053
-571,919	730,909	-0,023	0,045
-570,904	-78,863	-0,026	0,007
-569,890	-72,623	-0,046	0,012
-568,875	800,000	-0,049	-0,113
-567,861	72,888	0,145	-0,111
-566,846	-200,000	0,023	-0,095
-565,831	-118,362	-0,230	-0,029
-564,817	-93,503	0,137	0,028
-563,802	163,111	0,024	0,025
-562,788	800,000	-0,054	-0,123
-561,773	272,286	0,099	0,128
-560,758	32,475	0,058	-0,037
-559,744	-200,000	0,001	-0,007
-558,729	-16,481	0,062	-0,029
-557,715	185,627	-0,193	-0,210
-556,700	800,000	0,036	-0,088
-555,685	161,252	-0,053	-0,054
-554,671	-48,690	-0,085	-0,030
-553,656	-164,339	0,201	-0,007
-552,642	-159,645	-0,020	-0,001
-551,627	800,000	0,040	0,099
-550,612	87,731	0,043	0,035
-549,598	-157,747	-0,089	-0,004
-548,583	-200,000	0,020	0,095
-547,569	64,867	0,073	-0,054
-546,554	600,053	0,068	-0,125
-545,539	73,711	0,047	0,036
-544,525	-150,882	0,104	-0,006
-543,510	167,157	-0,095	-0,099
-542,496	-200,000	-0,018	-0,210
-541,481	-200,000	0,010	0,040
-540,466	204,756	0,061	0,069
-539,452	-132,236	0,045	0,004
-538,437	364,286	0,079	0,116
-537,423	800,000	-0,016	0,039
-536,408	-45,566	-0,033	0,012
-535,393	-200,000	-0,019	-0,164
-534,379	-68,661	-0,089	0,025
-533,364	271,920	-0,078	-0,100
-532,350	-53,192	-0,017	0,006
-531,335	800,000	-0,024	0,057
-530,321	-91,695	0,080	0,017
-529,306	313,612	-0,053	-0,073
-528,291	397,544	-0,053	-0,081
-527,277	-168,442	-0,099	-0,003
-526,262	-105,209	0,101	-0,017
-525,248	60,159	0,086	0,062
-524,233	800,000	0,015	0,045
-523,218	275,204	-0,055	-0,072
-522,204	-57,633	-0,111	-0,035
-521,189	-200,000	0,001	0,012
-520,175	-7,762	-0,008	-0,004
-519,160	3,816	-0,037	-0,019
-518,145	800,000	-0,015	0,043
-517,131	-89,814	-0,053	-0,011
-516,116	536,044	0,031	0,054
-515,102	317,399	0,055	-0,076
-514,087	-200,000	0,031	-0,135
-513,072	297,378	-0,072	-0,096
-512,058	800,000	-0,073	0,158
-511,043	10,748	-0,106	0,059
-510,029	-200,000	-0,001	-0,035
-509,014	-200,000	-0,024	0,116
-507,999	10,629	-0,071	-0,039
-506,985	94,288	-0,149	-0,124
-505,970	36,248	0,065	-0,042
-504,956	-36,012	-0,032	0,012
-503,941	800,000	0,015	-0,048
-502,926	147,974	0,048	0,047
-501,912	-200,000	0,022	0,084
-500,897	-93,207	0,056	-0,011
-499,883	-53,496	0,038	0,013
-498,868	-62,820	-0,054	0,016
-497,853	800,000	0,044	0,134
-496,839	-200,000	0,020	0,088
-495,824	-97,917	-0,021	-0,004
-494,810	-200,000	0,002	0,070
-493,795	-200,000	0,007	0,195
-492,781	-6,198	0,108	0,054
-491,766	237,776	0,102	0,123
-490,751	-49,835	-0,200	-0,069
-489,737	-101,030	0,113	-0,020
-488,722	348,567	0,088	0,126
-487,708	-99,643	0,084	-0,015
-486,693	-108,718	-0,047	-0,007
-485,678	-57,318	-0,211	0,067
-484,664	-21,173	-0,160	0,071
-483,649	-70,799	0,062	-0,017
-482,635	45,634	-0,039	0,026
-481,620	457,561	0,053	0,087
-480,605	620,305	-0,036	0,066
-479,591	-45,662	-0,030	-0,011
-478,576	-200,000	0,003	0,048
-477,562	187,335	-0,017	-0,019
-476,547	-146,593	-0,099	-0,006
-475,532	-200,000	0,023	0,078
-474,518	-200,000	0,048	0,160
-473,503	-200,000	-0,023	0,085
-472,489	800,000	0,047	0,145
-471,474	800,000	0,019	-0,045
-470,459	-162,165	-0,088	-0,003
-469,445	156,120	-0,021	-0,021
-468,430	-200,000	0,008	0,116
-467,416	-140,634	0,120	-0,009
-466,401	-10,640	0,034	-0,017
-465,386	-42,612	-0,039	-0,015
-464,372	800,000	0,042	-0,127
-463,357	-6,579	-0,128	0,063
-462,343	-200,000	0,017	-0,098
-461,328	-108,626	0,101	-0,016
-460,313	183,230	-0,050	0,054
-459,299	-31,688	-0,126	0,051
-458,284	-85,923	0,064	-0,014
-457,270	9,662	-0,054	0,030
-456,255	-200,000	-0,006	-0,133
-455,241	-126,111	-0,146	-0,016
-454,226	-165,661	0,018	-0,001
-453,211	137,126	-0,151	0,144
-452,197	116,588	0,052	0,047
-451,182	-200,000	-0,039	0,135
-450,168	-200,000	0,014	0,106
-449,153	-4,043	-0,043	0,022
-448,138	-200,000	0,027	-0,098
-447,124	502,661	0,011	-0,018
-446,109	-200,000	-0,011	0,074
-445,095	259,760	-0,027	-0,034
-444,080	-200,000	-0,020	0,112
-443,065	67,367	0,111	-0,083
-442,051	-200,000	0,019	-0,105
-441,036	-92,494	-0,032	-0,007
-440,022	64,349	-0,084	0,062
-439,007	143,451	0,055	0,054
-437,992	-200,000	-0,015	0,131
-436,978	-14,086	0,117	0,055
-435,963	-164,716	-0,144	0,005
-434,949	560,900	-0,031	0,055
-433,934	-200,000	-0,009	-0,040
-432,919	-200,000	-0,007	-0,122
-431,905	-200,000	-0,133	-0,000
-430,890	124,927	0,054	0,049
-429,876	721,601	0,052	0,102
-428,861	-175,052	0,139	-0,003
-427,846	144,226	-0,071	-0,069
-426,832	36,856	-0,103	-0,066
-425,817	435,659	0,031	0,048
-424,803	800,000	0,038	-0,083
-423,788	-176,644	0,125	-0,002
-422,773	-200,000	0,000	0,073
-421,759	-200,000	0,000	0,032
-420,744	182,937	-0,030	0,033
-419,730	-72,764	-0,032	0,009
-418,715	-81,658	-0,127	-0,030
-417,701	-200,000	0,007	0,083
-416,686	-17,304	0,076	0,034
-415,671	234,348	-0,034	-0,041
-414,657	-200,000	0,028	0,096
-413,642	-85,219	0,195	0,044
-412,628	29,944	-0,125	-0,077
-411,613	23,452	-0,049	0,029
-410,598	150,204	-0,060	-0,060
-409,584	800,000	0,014	0,043
-408,569	-24,795	-0,107	0,046
-407,555	656,627	-0,072	0,136
-406,540	-200,000	-0,003	0,021
-405,525	-200,000	0,009	-0,059
-404,511	-67,481	0,092	0,026
-403,496	-13,516	-0,107	-0,050
-402,482	-58,540	-0,080	-0,025
-401,467	-120,225	0,091	0,011
-400,452	195,109	0,108	0,119
-399,438	636,543	0,024	0,044
-398,423	-37,153	-0,005	0,002
-397,409	111,261	-0,074	0,065
-396,394	-18,405	-0,047	0,021
-395,379	19,209	-0,034	-0,020
-394,365	-200,000	-0,043	0,214
-393,350	355,574	-0,055	0,080
-392,336	-51,724	-0,063	0,021
-391,321	-161,563	0,112	0,004
-390,306	395,029	-0,087	0,132
-389,292	647,390	-0,031	-0,057
-388,277	51,819	-0,154	-0,107
-387,263	-200,000	-0,023	0,112
-386,248	800,000	0,022	0,066
-385,233	6,863	0,020	-0,011
-384,219	-200,000	-0,014	-0,071
-383,204	800,000	-0,035	-0,110
-382,190	800,000	0,019	-0,039
-381,175	-200,000	0,013	-0,105
-380,160	-200,000	0,020	0,069
-379,146	800,000	0,020	0,055
-378,131	373,752	-0,047	0,070
-377,117	800,000	-0,051	0,117
-376,102	800,000	0,038	0,111
-375,088	-200,000	0,025	-0,133
-374,073	-75,808	-0,113	0,029
-373,058	-2,580	0,131	-0,067
-372,044	-200,000	-0,038	0,159
-371,029	-6,967	0,017	0,008
-370,015	773,386	0,022	0,043
-369,000	270,467	0,095	0,122
-367,985	-135,962	-0,070	0,006
-366,971	503,505	-0,084	-0,142
-365,956	26,500	0,030	-0,018
-364,942	796,944	-0,018	0,036
-363,927	-200,000	0,002	0,029
-362,912	-46,231	-0,090	-0,032
-361,898	348,524	0,031	-0,045
-360,883	-129,850	-0,105	0,010
-359,869	-169,161	0,059	-0,002
-358,854	52,698	-0,055	0,038
-357,839	-200,000	-0,018	-0,058
-356,825	105,990	0,091	-0,078
-355,810	-151,773	-0,131	0,007
-354,796	72,229	0,032	0,024
-353,781	-105,130	0,027	-0,004
-352,766	-200,000	-0,016	-0,089
-351,752	-200,000	0,039	-0,133
-350,737	356,166	0,044	0,063
-349,723	39,080	0,131	0,085
-348,708	593,228	0,030	0,054
-347,693	-200,000	-0,002	-0,104
-346,679	100,868	-0,042	-0,036
-345,664	205,828	0,134	0,152
-344,650	108,092	-0,111	-0,096
-343,635	-100,230	0,160	0,029
-342,620	-200,000	0,099	0,000
-341,606	242,811	-0,072	-0,087
-340,591	156,741	-0,050	0,050
-339,577	-200,000	-0,028	-0,137
-338,562	800,000	-0,035	-0,111
-337,548	232,796	-0,012	-0,014
-336,533	-200,000	0,001	-0,047
-335,518	800,000	-0,049	0,119
-334,504	-92,083	0,032	-0,007
-333,489	-33,219	-0,151	-0,060
-332,475	25,035	-0,116	0,070
-331,460	-200,000	0,003	-0,075
-330,445	800,000	0,022	0,057
-329,431	103,485	0,113	0,096
-328,416	-200,000	-0,024	0,117
-327,402	-35,483	-0,048	-0,019
-326,387	144,758	0,112	0,109
-325,372	800,000	0,029	-0,064
-324,358	201,261	0,089	0,100
-323,343	18,268	-0,095	0,055
-322,329	140,854	0,024	-0,023
-321,314	405,831	0,072	0,110
-320,299	459,026	0,041	-0,067
-319,285	-200,000	0,006	0,033
-318,270	-25,375	-0,091	0,039
-317,256	269,149	-0,031	-0,040
-316,241	-200,000	0,041	-0,195
-315,226	-69,925	0,071	0,019
-314,212	-124,018	0,121	0,014
-313,197	-26,492	0,105	0,044
-312,183	507,173	0,035	0,059
-311,168	-5,906	-0,114	-0,056
-310,153	800,000	0,018	-0,043
-309,139	-133,171	-0,032	-0,003
-308,124	-200,000	0,002	0,109
-307,110	406,663	0,071	0,108
-306,095	-43,077	0,018	-0,006
-305,080	-200,000	0,039	0,143
-304,066	11,820	-0,137	0,076
-303,051	12,073	-0,051	0,028
-302,037	48,881	0,029	0,020
-301,022	130,543	-0,016	-0,015
-300,008	-49,568	0,040	-0,014
-298,993	-46,108	-0,111	-0,039
-297,978	-21,667	-0,054	0,024
-296,964	41,617	-0,097	-0,064
-295,949	-113,251	0,151	-0,021
-294,935	-80,916	-0,107	0,025
-293,920	17,883	0,063	-0,036
-292,905	237,092	0,091	-0,109
-291,891	580,532	0,020	-0,035
-290,876	81,037	-0,019	0,015
-289,862	134,115	-0,045	-0,042
-288,847	-170,784	0,038	-0,001
-287,832	800,000	-0,037	-0,106
-286,818	234,973	0,085	-0,102
-285,803	76,782	-0,008	0,006
-284,789	536,695	0,040	-0,069
-283,774	-159,303	0,117	-0,005
-282,759	800,000	-0,016	0,050
-281,745	-200,000	-0,146	-0,000
-280,730	-24,101	0,115	0,050
-279,716	800,000	0,030	0,066
-278,701	800,000	-0,017	0,050
-277,686	-16,138	-0,001	0,000
-276,672	-200,000	0,008	-0,044
-275,657	-90,490	-0,147	0,031
-274,643	257,261	0,021	0,026
-273,628	651,453	-0,059	-0,109
-272,613	-26,486	-0,105	-0,044
-271,599	800,000	0,039	-0,088
-270,584	47,112	0,093	-0,062
-269,570	-200,000	0,003	0,059
-268,555	44,462	0,031	-0,021
-267,540	-200,000	-0,017	0,084
-266,526	-200,000	0,027	-0,113
-265,511	1,649	0,110	0,057
-264,497	-49,453	0,029	0,010
-263,482	3,678	0,047	-0,025
-262,467	42,738	0,087	-0,057
-261,453	181,754	0,066	0,071
-260,438	-60,164	-0,033	0,010
-259,424	-200,000	-0,004	-0,015
-258,409	-200,000	-0,004	-0,037
-257,395	178,230	0,112	-0,118
-256,380	-45,507	0,084	-0,030
-255,365	-200,000	0,009	-0,093
-254,351	503,980	-0,037	-0,062
-253,336	-200,000	0,004	0,173
-252,322	44,876	0,029	-0,019
-251,307	-200,000	-0,013	0,054
-250,292	125,360	0,121	0,110
-249,278	-200,000	0,011	0,082
-248,263	-200,000	-0,010	0,085
-247,249	-83,060	0,065	0,015
-246,234	167,493	0,042	0,043
-245,219	49,058	-0,052	-0,035
-244,205	-200,000	0,039	-0,177
-243,190	-116,964	0,176	0,023
-242,176	44,696	-0,103	-0,069
-241,161	350,856	0,083	-0,118
-240,146	232,495	0,031	0,037
-239,132	187,879	-0,064	-0,069
-238,117	-200,000	0,003	0,013
-237,103	136,554	0,020	0,019
-236,088	67,463	0,070	0,051
-235,073	-200,000	-0,011	0,059
-234,059	70,974	-0,062	0,046
-233,044	-152,256	0,158	-0,008
-232,030	-84,966	-0,107	0,024
-231,015	594,989	-0,039	0,069
-230,000	-63,345	-0,118	0,035
-228,986	77,786	0,102	-0,079
-227,971	-112,187	0,048	-0,007
-226,957	26,669	-0,045	0,027
-225,942	36,094	0,089	0,057
-224,927	-16,107	0,116	0,053
-223,913	-200,000	0,024	-0,108
-222,898	-158,906	-0,099	0,004
-221,884	567,031	-0,045	0,079
-220,869	-70,429	0,053	-0,014
-219,855	339,157	-0,017	-0,024
-218,840	-16,104	-0,067	-0,031
-217,825	209,419	0,060	-0,068
-216,811	-200,000	0,001	0,009
-215,796	166,957	0,067	0,069
-214,782	800,000	0,025	-0,069
-213,767	148,497	-0,048	-0,047
-212,752	-96,175	0,066	-0,013
-211,738	79,129	0,044	0,034
-210,723	-200,000	-0,016	-0,065
-209,709	800,000	0,006	0,014
-208,694	800,000	-0,030	-0,083
-207,679	800,000	0,022	-0,059
-206,665	278,963	0,045	0,058
-205,650	800,000	-0,025	-0,054
-204,636	529,067	-0,019	0,033
-203,621	758,196	-0,033	0,065
-202,606	400,896	-0,037	0,056
-201,592	-23,179	-0,189	-0,082
-200,577	800,000	-0,034	-0,076
-199,563	800,000	0,044	0,132
-198,548	-200,000	-0,036	0,151
-197,533	-65,852	0,164	0,047
-196,519	-38,555	0,063	-0,024
-195,504	165,571	-0,104	0,106
-194,490	-31,687	-0,076	0,031
-193,475	-200,000	0,011	0,103
-192,460	267,757	0,073	0,093
-191,446	-154,887	-0,110	0,005
-190,431	23,550	0,103	0,061
-189,417	39,235	0,008	0,005
-188,402	-64,700	0,160	0,046
-187,387	453,367	0,022	0,036
-186,373	-92,041	-0,066	-0,013
-185,358	-200,000	0,017	0,100
-184,344	-6,023	0,064	-0,031
-183,329	-68,180	0,097	-0,027
-182,315	279,055	0,041	0,053
-181,300	229,202	0,161	-0,190
-180,285	-36,065	-0,118	-0,046
-179,271	-200,000	0,024	-0,138
-178,256	-200,000	-0,015	0,080
-177,242	171,734	-0,063	-0,065
-176,227	-200,000	-0,005	0,031
-175,212	-88,232	0,126	-0,027
-174,198	8,751	-0,060	0,032
-173,183	82,647	0,061	0,047
-172,169	-139,936	-0,171	0,013
-171,154	-134,021	0,120	0,011
-170,139	177,713	0,085	0,089
-169,125	4,464	0,027	-0,014
-168,110	267,142	0,068	-0,086
-167,096	-200,000	-0,010	-0,058
-166,081	-10,214	-0,146	-0,070
-165,066	-125,927	0,047	0,005
-164,052	64,748	0,014	0,010
-163,037	107,713	0,087	-0,075
-162,023	-137,537	0,135	0,011
-161,008	-30,941	-0,120	0,048
-159,993	124,797	0,053	-0,048
-158,979	-200,000	0,001	-0,009
-157,964	800,000	-0,029	-0,067
-156,950	800,000	-0,085	-0,186
-155,935	61,401	-0,081	-0,058
-154,920	800,000	0,033	0,078
-153,906	246,852	0,058	-0,071
-152,891	800,000	-0,029	-0,083
-151,877	-200,000	-0,004	0,053
-150,862	-38,056	-0,111	-0,042
-149,847	207,586	-0,127	-0,143
-148,833	-125,023	-0,149	0,016
-147,818	70,393	0,100	-0,074
-146,804	800,000	-0,043	0,099
-145,789	-168,417	0,020	0,001
-144,775	17,527	-0,020	0,011
-143,760	-31,372	-0,115	-0,046
-142,745	-200,000	-0,019	0,070
-141,731	36,385	-0,089	0,056
-140,716	800,000	-0,011	-0,026
-139,702	-147,965	0,113	0,007
-138,687	-28,942	0,022	0,009
-137,672	366,594	-0,050	0,074
-136,658	357,183	-0,094	-0,136
-135,643	800,000	0,028	-0,057
-134,629	-200,000	0,001	-0,003
-133,614	42,518	0,083	0,054
-132,599	410,281	-0,050	-0,076
-131,585	-67,475	0,061	0,017
-130,570	-138,892	-0,135	-0,010
-129,556	-2,679	-0,083	-0,041
-128,541	-200,000	0,008	-0,233
-127,526	-200,000	0,027	-0,099
-126,512	415,436	0,053	-0,082
-125,497	51,245	0,106	-0,072
-124,483	800,000	-0,007	-0,022
-123,468	456,824	0,034	-0,055
-122,453	-129,325	-0,065	0,006
-121,439	-200,000	-0,006	0,024
-120,424	-9,166	-0,097	-0,047
-119,410	-200,000	-0,001	-0,043
-118,395	-32,397	0,097	0,039
-117,380	159,039	0,111	0,111
-116,366	-200,000	0,003	0,079
-115,351	-85,614	-0,156	0,035
-114,337	-87,480	-0,059	0,013
-113,322	77,593	0,063	-0,048
-112,307	-126,766	-0,098	0,010
-111,293	800,000	0,043	0,108
-110,278	12,808	-0,050	0,027
-109,264	-200,000	0,010	-0,087
-108,249	58,954	-0,069	-0,049
-107,234	352,454	-0,078	-0,112
-106,220	-200,000	0,003	-0,063
-105,205	800,000	0,024	-0,066
-104,191	264,767	-0,037	-0,047
-103,176	-51,826	0,041	0,013
-102,162	136,356	0,058	0,054
-101,147	-38,528	-0,160	0,060
-100,132	-200,000	0,022	-0,117
-99,118	260,024	-0,102	0,127
-98,103	-24,186	-0,042	0,018
-97,089	-33,270	0,078	0,031
-96,074	-200,000	0,004	-0,058
-95,059	-51,173	-0,092	-0,031
-94,045	-38,073	-0,081	0,031
-93,030	-200,000	0,010	-0,104
-92,016	-171,347	-0,222	0,005
-91,001	800,000	0,079	-0,184
-89,986	-177,565	0,142	0,002
-88,972	-114,560	-0,065	-0,009
-87,957	637,833	0,009	0,017
-86,943	-57,160	-0,089	0,028
-85,928	800,000	-0,050	-0,112
-84,913	-96,996	-0,172	0,032
-83,899	323,871	-0,078	0,107
-82,884	-37,328	-0,090	0,034
-81,870	127,926	0,041	0,038
-80,855	7,764	-0,090	0,048
-79,840	-173,965	0,081	0,002
-78,826	18,576	-0,185	-0,106
-77,811	-92,838	0,150	-0,030
-76,797	427,982	-0,041	-0,064
-75,782	611,710	-0,048	0,087
-74,767	-127,823	-0,088	0,009
-73,753	800,000	0,009	-0,026
-72,738	147,275	-0,129	-0,125
-71,724	-200,000	-0,016	0,081
-70,709	-152,160	-0,133	-0,007
-69,694	-117,156	0,155	0,020
-68,680	49,116	0,090	0,061
-67,665	146,011	0,012	-0,012
-66,651	311,036	-0,047	0,063
-65,636	625,000	-0,048	0,087
-64,622	-200,000	0,039	-0,189
-63,607	-200,000	-0,040	-0,245
-62,592	118,322	0,068	0,060
-61,578	-38,146	-0,101	0,038
-60,563	-93,957	0,118	-0,023
-59,549	128,146	-0,178	0,162
-58,534	88,827	-2,713	-2,164
-57,519	-35,242	0,469	-0,182
-56,505	800,000	-1,750	-5,442
-55,490	417,329	1,348	2,072
-54,476	800,000	5,218	11,211
-53,461	-200,000	22,863	347,553
-52,446	800,000	764,636	2268,140
-51,432	499,353	1644,025	2728,707
-50,417	93,534	1601,379	1299,965
-49,403	61,570	1257,514	896,342
-48,388	21,411	1009,746	587,290
-47,373	18,572	977,236	559,061
-46,359	12,015	964,178	530,290
-45,344	7,918	961,011	515,211
-44,330	8,279	958,927	515,245
-43,315	7,369	956,912	511,193
-42,300	7,337	956,051	510,609
-41,286	7,283	955,041	509,874
-40,271	7,316	953,866	509,334
-39,257	7,300	953,372	508,998
-38,242	7,305	952,278	508,409
-37,227	7,266	951,522	507,861
-36,213	7,241	950,858	507,404
-35,198	7,254	949,981	506,960
-34,184	7,381	948,855	506,747
-33,169	7,265	948,140	505,969
-32,154	7,358	947,239	505,767
-31,140	7,405	946,536	505,525
-30,125	7,327	945,805	504,862
-29,111	7,290	944,901	504,243
-28,096	7,308	944,467	504,049
-27,082	7,287	943,745	503,575
-26,067	7,286	942,966	503,136
-25,052	7,295	942,060	502,663
-24,038	7,225	941,346	502,037
-23,023	7,225	940,812	501,733
-22,009	7,326	940,057	501,632
-20,994	7,302	939,513	501,245
-19,979	7,288	938,957	500,884
-18,965	7,253	938,267	500,384
-17,950	7,255	937,612	500,024
-16,936	7,246	937,037	499,667
-15,921	7,278	936,377	499,399
-14,906	7,214	935,644	498,783
-13,892	7,174	935,200	498,401
-12,877	7,203	934,475	498,086
-11,863	7,206	933,851	497,743
-10,848	7,249	933,206	497,518
-9,833	7,247	933,029	497,395
-8,819	7,213	932,253	496,854
-7,804	7,144	931,641	496,293
-6,790	7,106	931,214	495,926
-5,775	7,245	930,336	495,876
-4,760	7,241	929,938	495,631
-3,746	7,185	929,199	495,042
-2,731	7,027	928,469	494,137
-1,717	7,009	928,029	493,825
-0,702	7,026	927,275	493,458
0,313	6,872	926,656	493,389
1,327	10,338	924,177	502,869
2,342	19,024	772,449	442,860
3,356	13,985	442,757	246,321
4,371	-12,230	309,081	144,380
5,386	-15,995	291,996	132,620
6,400	-18,137	285,887	127,734
7,415	-18,096	283,173	126,550
8,429	-18,863	281,445	125,027
9,444	-18,918	280,618	124,595
10,459	-18,941	280,077	124,321
11,473	-18,989	279,405	123,967
12,488	-18,709	278,818	123,963
13,502	-19,035	278,479	123,489
14,517	-18,902	277,982	123,385
15,531	-18,678	277,581	123,409
16,546	-18,672	277,236	123,250
17,561	-18,740	276,778	122,971
18,575	-18,746	276,508	122,835
19,590	-18,657	276,213	122,776
20,604	-18,606	275,867	122,660
21,619	-18,758	275,608	122,391
22,634	-18,520	275,220	122,431
23,648	-18,686	275,012	122,173
24,663	-18,438	274,566	122,196
25,677	-18,659	274,372	121,892
26,692	-18,681	274,054	121,718
27,707	-18,666	273,815	121,616
28,721	-18,690	273,585	121,480
29,736	-18,635	273,214	121,356
30,750	-18,546	273,110	121,383
31,765	-18,656	272,750	121,109
32,780	-18,552	272,556	121,108
33,794	-18,622	272,397	120,962
34,809	-18,587	272,117	120,859
35,823	-18,647	271,754	120,632
36,838	-18,629	271,523	120,535
37,853	-18,478	271,139	120,493
38,867	-18,710	271,032	120,221
39,882	-18,635	270,739	120,150
40,896	-18,585	270,513	120,084
41,911	-18,578	270,306	119,988
42,926	-18,533	269,993	119,881
43,940	-18,530	269,871	119,818
44,955	-18,435	269,475	119,719
45,969	-18,416	269,303	119,650
46,984	-18,612	269,161	119,396
47,999	-18,394	269,023	119,524
49,013	-18,216	268,604	119,491
50,028	-18,438	268,489	119,225
51,042	-18,207	268,304	119,345
52,057	-18,330	268,013	119,091
53,071	-18,525	267,916	118,859
54,086	-18,392	267,630	118,843
55,101	-18,440	267,427	118,699
56,115	-18,431	267,242	118,614
57,130	-18,578	266,892	118,315
58,144	-18,519	266,548	118,205
59,159	-18,823	266,346	117,829
60,174	-18,531	266,172	118,007
61,188	-18,735	266,036	117,750
62,203	-18,539	265,812	117,819
63,217	-18,611	265,532	117,619
64,232	-18,613	265,309	117,508
65,247	-18,656	265,064	117,350
66,261	-18,644	264,754	117,213
67,276	-18,658	264,564	117,106
68,290	-18,637	264,383	117,034
69,305	-18,439	264,190	117,116
70,320	-18,582	264,019	116,901
71,334	-18,354	263,661	116,938
72,349	-18,522	263,340	116,634
73,363	-18,567	263,304	116,567
74,378	-18,723	262,998	116,282
75,393	-18,508	262,808	116,380
76,407	-18,490	262,494	116,247
77,422	-18,490	262,376	116,184
78,436	-18,583	262,122	115,978
79,451	-18,598	261,971	115,888
80,466	-18,725	261,569	115,586
81,480	-18,483	261,304	115,674
82,495	-18,525	261,151	115,558
83,509	-18,568	261,139	115,505
84,524	-18,444	260,796	115,452
85,539	-18,439	260,564	115,344
86,553	-18,394	260,343	115,276
87,568	-18,452	260,338	115,212
88,582	-18,302	259,816	115,104
89,597	-18,448	259,771	114,945
90,611	-18,486	259,767	114,899
91,626	-18,481	259,365	114,715
92,641	-18,539	259,078	114,527
93,655	-18,572	258,967	114,438
94,670	-18,565	258,881	114,396
95,684	-18,653	258,494	114,138
96,699	-18,633	258,342	114,078
97,714	-18,599	258,245	114,055
98,728	-18,322	257,983	114,172
99,743	-18,515	257,770	113,899
100,757	-18,185	257,532	114,072
101,772	-18,439	257,271	113,724
102,787	-18,483	257,182	113,636
103,801	-18,586	256,930	113,425
104,816	-18,541	256,613	113,313
105,830	-18,399	256,476	113,367
106,845	-18,579	256,312	113,128
107,860	-18,394	256,106	113,188
108,874	-18,260	255,773	113,147
109,889	-18,410	255,586	112,924
110,903	-18,528	255,472	112,761
111,918	-18,473	255,269	112,709
112,933	-18,449	255,001	112,601
113,947	-18,390	254,851	112,576
114,962	-18,572	254,650	112,320
115,976	-18,593	254,599	112,269
116,991	-18,510	254,146	112,131
118,006	-18,567	254,063	112,035
119,020	-18,646	253,954	111,910
120,035	-18,523	253,717	111,901
121,049	-18,551	253,626	111,827
122,064	-18,456	253,423	111,808
123,079	-18,348	253,116	111,756
124,093	-18,402	252,779	111,551
125,108	-18,475	252,804	111,489
126,122	-18,428	252,717	111,482
127,137	-18,363	252,409	111,391
128,151	-18,291	252,248	111,372
129,166	-18,296	251,951	111,227
130,181	-18,306	251,844	111,161
131,195	-18,414	251,691	110,992
132,210	-18,286	251,321	110,927
133,224	-18,424	251,103	110,704
134,239	-18,460	251,018	110,625
135,254	-18,180	250,713	110,720
136,268	-18,320	250,634	110,556
137,283	-18,317	250,366	110,430
138,297	-18,309	250,173	110,342
139,312	-18,402	249,995	110,175
140,327	-18,424	249,752	110,039
141,341	-18,586	249,557	109,806
142,356	-18,570	249,370	109,728
143,370	-18,466	249,137	109,704
144,385	-18,440	249,080	109,690
145,400	-18,183	248,794	109,771
146,414	-18,391	248,553	109,480
147,429	-18,420	248,364	109,362
148,443	-18,472	248,217	109,244
149,458	-18,310	248,012	109,281
150,473	-18,496	247,787	109,016
151,487	-18,465	247,684	108,987
152,502	-18,283	247,541	109,067
153,516	-18,382	247,205	108,826
154,531	-18,358	247,095	108,788
155,546	-18,301	246,868	108,726
156,560	-18,420	246,791	108,583
157,575	-18,541	246,572	108,376
158,589	-18,463	246,396	108,354
159,604	-18,388	246,156	108,302
160,619	-18,183	245,864	108,334
161,633	-18,542	245,872	108,029
162,648	-18,398	245,707	108,067
163,662	-18,402	245,605	108,009
164,677	-18,463	245,454	107,882
165,692	-18,478	245,184	107,741
166,706	-18,456	244,966	107,654
167,721	-18,372	244,818	107,649
168,735	-18,400	244,696	107,562
169,750	-18,661	244,539	107,268
170,764	-18,480	244,361	107,330
171,779	-18,285	244,080	107,357
172,794	-18,379	244,028	107,248
173,808	-18,498	243,902	107,085
174,823	-18,301	243,732	107,163
175,837	-18,299	243,504	107,054
176,852	-18,362	243,269	106,890
177,867	-18,401	243,202	106,819
178,881	-18,179	243,020	106,912
179,896	-18,435	242,878	106,630
180,910	-18,290	242,580	106,608
181,925	-18,578	242,408	106,288
182,940	-18,333	242,352	106,454
183,954	-18,444	242,152	106,266
184,969	-18,269	241,878	106,279
185,983	-18,264	241,788	106,234
186,998	-18,297	241,629	106,128
188,013	-18,274	241,282	105,985
189,027	-18,443	241,253	105,825
190,042	-18,273	240,954	105,823
191,056	-18,537	240,826	105,542
192,071	-18,409	240,735	105,597
193,086	-18,536	240,589	105,420
194,100	-18,417	240,235	105,353
195,115	-18,310	240,024	105,337
196,129	-18,483	239,820	105,099
197,144	-18,464	239,794	105,093
198,159	-18,255	239,508	105,127
199,173	-18,320	239,416	105,024
200,188	-18,494	239,232	104,794
201,202	-18,356	238,968	104,781
202,217	-18,222	238,820	104,815
203,232	-18,188	238,702	104,780
204,246	-18,488	238,546	104,461
205,261	-18,732	238,287	104,143
206,275	-17,109	238,733	105,634
207,290	-12,569	240,366	110,021
208,304	-5,903	242,369	116,358
209,319	-1,994	243,370	120,016
210,334	-0,904	243,670	121,043
211,348	-0,271	243,812	121,618
212,363	0,108	243,765	121,893
213,377	0,342	243,750	122,066
214,392	0,642	243,676	122,262
215,407	0,929	243,656	122,474
216,421	1,014	243,536	122,473
217,436	1,148	243,272	122,437
218,450	1,115	243,169	122,348
219,465	1,166	243,080	122,333
220,480	1,198	242,920	122,268
221,494	1,084	242,738	122,073
222,509	0,946	242,366	121,764
223,523	0,754	242,061	121,444
224,538	0,468	242,123	121,233
225,553	0,325	241,811	120,951
226,567	0,446	241,697	120,981
227,582	0,341	241,598	120,836
228,596	0,576	241,270	120,851
229,611	0,513	241,278	120,792
230,626	0,558	241,042	120,700
231,640	0,591	240,766	120,578
232,655	0,445	240,636	120,384
233,669	0,504	240,433	120,320
234,684	0,575	240,281	120,290
235,699	0,604	240,171	120,247
236,713	0,517	240,066	120,114
237,728	0,425	239,936	119,965
238,742	0,723	239,605	120,026
239,757	0,474	239,613	119,821
240,772	0,391	239,478	119,676
241,786	0,533	239,347	119,713
242,801	0,564	238,966	119,537
243,815	0,500	238,962	119,474
244,830	0,322	238,938	119,309
245,844	0,404	238,671	119,230
246,859	0,403	238,462	119,115
247,874	0,783	238,354	119,351
248,888	0,355	238,110	118,879
249,903	0,674	238,056	119,095
250,917	0,588	237,988	118,982
251,932	0,810	237,724	119,015
252,947	0,609	237,581	118,773
253,961	0,713	237,245	118,677
254,976	0,505	237,245	118,503
255,990	0,615	237,124	118,518
257,005	0,454	236,930	118,284
258,020	0,894	236,719	118,514
259,034	0,508	236,599	118,140
260,049	0,779	236,516	118,301
261,063	0,426	236,491	118,000
262,078	0,514	236,199	117,913
263,093	0,434	235,870	117,676
264,107	0,408	235,977	117,698
265,122	0,545	235,705	117,660
266,136	0,467	235,573	117,523
267,151	0,377	235,508	117,409
268,166	0,627	235,157	117,419
269,180	0,532	235,268	117,390
270,195	0,465	234,974	117,180
271,209	0,546	234,789	117,141
272,224	0,390	234,677	116,953
273,239	0,428	234,536	116,901
274,253	0,517	234,334	116,860
275,268	0,437	234,129	116,685
276,282	0,409	234,036	116,606
277,297	0,540	233,683	116,521
278,312	0,396	233,849	116,482
279,326	0,377	233,574	116,320
280,341	0,570	233,472	116,409
281,355	0,688	233,321	116,415
282,370	0,704	233,224	116,368
283,384	0,462	233,032	116,075
284,399	0,615	232,848	116,091
285,414	0,352	232,758	115,832
286,428	0,670	232,548	115,963
287,443	0,734	232,351	115,903
288,457	0,757	232,278	115,875
289,472	0,669	232,052	115,683
290,487	0,892	231,967	115,803
291,501	0,749	231,647	115,523
292,516	0,602	231,702	115,427
293,530	0,731	231,563	115,446
294,545	0,785	231,384	115,389
295,560	0,745	231,223	115,267
296,574	0,687	231,052	115,127
297,589	0,522	231,051	114,990
298,603	0,643	230,704	114,900
299,618	0,774	230,610	114,943
300,633	0,853	230,529	114,953
301,647	0,670	230,493	114,784
302,662	1,069	230,262	114,963
303,676	1,067	230,071	114,857
304,691	0,867	229,887	114,603
305,706	0,724	229,857	114,468
306,720	0,927	229,549	114,458
307,735	0,734	229,550	114,303
308,749	0,737	229,546	114,293
309,764	0,710	229,226	114,103
310,779	0,698	229,068	114,004
311,793	0,849	228,970	114,060
312,808	0,837	228,754	113,933
313,822	0,859	228,705	113,915
314,837	0,707	228,430	113,653
315,852	0,793	228,505	113,746
316,866	0,995	228,168	113,721
317,881	0,682	228,088	113,434
318,895	1,042	227,769	113,536
319,910	0,943	227,591	113,363
320,925	1,038	227,443	113,351
321,939	0,724	227,513	113,140
322,954	0,748	227,317	113,050
323,968	0,871	227,196	113,071
324,983	0,843	227,011	112,948
325,997	0,729	227,020	112,857
327,012	0,797	226,798	112,788
328,027	0,739	226,632	112,652
329,041	0,898	226,394	112,642
330,056	0,989	226,330	112,669
331,070	1,068	226,136	112,621
332,085	0,943	225,998	112,449
333,100	0,932	225,772	112,318
334,114	1,009	225,651	112,305
335,129	0,831	225,617	112,146
336,143	0,974	225,463	112,166
337,158	0,953	225,292	112,056
338,173	0,982	225,255	112,048
339,187	0,865	225,168	111,908
340,202	0,987	224,744	111,778
341,216	0,804	224,739	111,630
342,231	1,026	224,547	111,689
343,246	1,002	224,415	111,596
344,260	0,820	224,364	111,425
345,275	0,936	224,120	111,380
346,289	0,968	224,046	111,357
347,304	1,143	223,815	111,362
348,319	0,953	223,768	111,188
349,333	1,002	223,598	111,130
350,348	0,968	223,441	111,016
351,362	1,246	223,309	111,147
352,377	0,754	223,263	110,751
353,392	1,275	222,919	110,954
354,406	0,976	222,904	110,716
355,421	192,241	1312,001	1377,258
356,435	153,910	1444,541	1377,086
