DTS Sentinel unit serial number:	SN410029Multiplexer serial number:	ORYXHardware model number:	OX2-SRSoftware version number:	ORYX F/W v4,00 Oryx Data Collector v3.7.2.0data status	okinstallation	B5 Nyhavnadifferential loss correction	single-endedforward channel	channel 2reverse channel	N/Adate	2023/12/12time	09:42:13forward acquisition time	300,00reverse acquisition time	0,00gamma	499,1914k internal	0,3158k external	0,3158temperature offset calibration	1,0000default loss term (dB/km)	0,3820temperature slope calibration	1,0000multiplexer offset coefficient	1,0000multiplexer slope coefficient	1,0000fibre end	0,00T internal ref (°C)	15,00T ext. ref 1 (°C)	-1,28T ext. ref 2 (°C)	-1,59length (m)	temperature (°C)	Stokes	anti-Stokes-744,400	-176,350	0,138	0,003
-743,385	-103,680	-0,439	-0,075
-742,371	36,862	0,107	0,070
-741,356	-110,841	-0,275	0,041
-740,342	-84,634	0,128	0,030
-739,327	-99,918	-0,366	-0,067
-738,312	-13,081	0,086	0,041
-737,298	-154,109	-0,364	-0,018
-736,283	-39,766	0,115	0,044
-735,269	-19,908	-0,215	-0,097
-734,254	-54,513	0,176	-0,058
-733,239	74,441	-0,333	-0,257
-732,225	-53,277	0,138	-0,046
-731,210	-49,664	-0,090	0,031
-730,196	-69,341	0,086	-0,024
-729,181	-200,000	0,022	0,091
-728,167	-200,000	0,012	0,066
-727,152	306,159	-0,041	0,057
-726,137	800,000	-0,080	-0,165
-725,123	155,892	0,034	-0,034
-724,108	-126,387	-0,160	-0,017
-723,094	-69,802	0,078	0,022
-722,079	-35,698	-0,173	-0,069
-721,064	-200,000	-0,007	0,029
-720,050	-14,307	-0,152	-0,072
-719,035	-163,885	-0,037	0,001
-718,021	210,991	-0,058	-0,068
-717,006	-21,696	-0,103	0,046
-715,991	138,063	-0,113	-0,109
-714,977	-11,897	0,036	0,018
-713,962	-89,759	-0,050	0,011
-712,948	29,409	-0,035	0,022
-711,933	-73,966	-0,038	-0,010
-710,918	45,038	-0,080	-0,054
-709,904	2,334	0,019	0,010
-708,889	576,501	0,057	-0,103
-707,875	-123,716	0,055	-0,006
-706,860	-26,813	-0,076	-0,032
-705,845	285,509	0,074	-0,098
-704,831	-32,910	0,062	0,025
-703,816	295,894	-0,093	0,125
-702,802	429,153	0,071	-0,113
-701,787	-200,000	-0,001	-0,133
-700,772	-200,000	0,016	-0,068
-699,758	-200,000	0,001	0,011
-698,743	52,644	-0,067	-0,047
-697,729	-200,000	0,006	0,037
-696,714	-200,000	0,012	0,042
-695,699	800,000	-0,065	-0,162
-694,685	76,803	-0,160	-0,124
-693,670	800,000	-0,027	-0,072
-692,656	-134,410	-0,064	0,006
-691,641	-33,670	0,061	-0,025
-690,627	-200,000	-0,004	-0,073
-689,612	219,551	-0,020	-0,024
-688,597	316,726	-0,038	-0,053
-687,583	229,479	0,088	-0,106
-686,568	-200,000	0,015	-0,081
-685,554	4,435	-0,071	-0,038
-684,539	-35,074	-0,014	0,006
-683,524	-73,377	-0,089	0,024
-682,510	-86,351	-0,117	-0,026
-681,495	-200,000	0,024	-0,122
-680,481	-17,878	0,058	-0,027
-679,466	289,649	-0,075	0,100
-678,451	-200,000	-0,015	-0,074
-677,437	-143,940	-0,010	-0,001
-676,422	-24,875	0,069	-0,030
-675,408	800,000	-0,022	0,056
-674,393	66,534	0,060	-0,045
-673,378	-43,030	-0,197	-0,073
-672,364	17,476	0,049	-0,029
-671,349	800,000	-0,008	-0,022
-670,335	-37,426	-0,038	-0,015
-669,320	327,934	0,044	0,062
-668,305	-200,000	0,053	0,188
-667,291	-200,000	-0,022	0,084
-666,276	-60,048	-0,014	-0,004
-665,262	241,642	-0,046	-0,057
-664,247	800,000	-0,040	-0,120
-663,232	626,803	-0,078	-0,145
-662,218	80,507	0,127	0,100
-661,203	238,665	-0,038	-0,046
-660,189	800,000	-0,020	0,052
-659,174	-107,113	-0,045	-0,007
-658,159	-5,049	0,048	-0,024
-657,145	-200,000	0,044	-0,173
-656,130	-200,000	-0,023	0,106
-655,116	-75,941	0,066	0,017
-654,101	-140,817	0,083	0,006
-653,086	-30,925	0,069	0,029
-652,072	-70,063	0,025	0,007
-651,057	-131,604	-0,041	0,004
-650,043	-193,362	0,059	0,000
-649,028	-160,244	-0,111	-0,004
-648,014	58,764	0,024	-0,018
-646,999	34,247	0,126	0,081
-645,984	-200,000	0,025	-0,096
-644,970	610,488	0,073	-0,134
-643,955	-200,000	-0,013	-0,261
-642,941	256,923	0,025	-0,031
-641,926	672,221	0,055	0,105
-640,911	-200,000	0,038	-0,187
-639,897	-143,074	0,033	0,002
-638,882	483,030	-0,056	0,095
-637,868	-200,000	-0,066	0,000
-636,853	191,667	-0,018	-0,020
-635,838	107,062	0,100	-0,087
-634,824	-79,881	-0,009	-0,002
-633,809	50,720	-0,087	0,060
-632,795	513,583	-0,017	-0,029
-631,780	-71,992	-0,026	-0,007
-630,765	93,651	-0,192	0,160
-629,751	730,103	-0,030	-0,058
-628,736	-160,774	-0,045	0,002
-627,722	800,000	0,023	-0,058
-626,707	800,000	0,046	-0,136
-625,692	800,000	0,041	0,117
-624,678	352,621	0,043	0,062
-623,663	-38,526	-0,023	0,009
-622,649	127,417	-0,109	-0,101
-621,634	-118,383	0,097	0,012
-620,619	-200,000	0,000	-0,134
-619,605	101,348	0,080	0,068
-618,590	67,537	0,045	-0,034
-617,576	-157,503	0,021	0,001
-616,561	276,313	0,099	-0,129
-615,546	457,988	0,106	0,173
-614,532	13,559	-0,148	-0,084
-613,517	-200,000	-0,003	-0,043
-612,503	161,035	0,054	0,056
-611,488	800,000	0,045	0,108
-610,474	-75,196	-0,041	-0,011
-609,459	-156,056	0,058	0,003
-608,444	320,946	0,071	0,099
-607,430	-91,214	-0,101	-0,021
-606,415	-6,942	0,077	0,038
-605,401	-109,603	-0,132	-0,020
-604,386	-200,000	0,016	0,114
-603,371	-200,000	0,018	0,067
-602,357	-200,000	0,010	-0,095
-601,342	-162,740	-0,029	-0,001
-600,328	-200,000	-0,007	0,099
-599,313	-124,600	-0,066	-0,007
-598,298	106,124	0,013	0,011
-597,284	-200,000	0,003	-0,084
-596,269	-60,116	0,099	0,031
-595,255	-78,204	-0,046	-0,012
-594,240	-47,543	0,080	0,028
-593,225	800,000	0,040	-0,113
-592,211	-47,209	-0,188	0,067
-591,196	351,779	-0,056	0,082
-590,182	-124,564	0,159	0,018
-589,167	25,684	-0,027	0,016
-588,152	283,072	-0,106	-0,140
-587,138	668,270	-0,033	0,063
-586,123	800,000	-0,026	-0,076
-585,109	-187,367	-0,142	-0,001
-584,094	54,110	-0,116	0,082
-583,079	-106,967	-0,066	-0,011
-582,065	-86,529	0,116	-0,026
-581,050	10,962	-0,080	0,045
-580,036	-19,678	0,009	0,004
-579,021	222,924	0,065	0,077
-578,006	235,320	0,112	-0,136
-576,992	-200,000	0,024	0,122
-575,977	-58,813	0,021	-0,007
-574,963	800,000	-0,019	-0,050
-573,948	-200,000	0,037	0,143
-572,934	800,000	-0,029	-0,073
-571,919	-94,661	0,107	-0,021
-570,904	389,258	-0,025	-0,038
-569,890	-149,717	0,050	-0,003
-568,875	-200,000	0,012	-0,049
-567,861	230,664	-0,031	0,037
-566,846	177,553	-0,102	0,109
-565,831	-52,361	0,077	0,026
-564,817	-62,329	-0,139	-0,042
-563,802	-200,000	-0,011	-0,058
-562,788	-71,683	-0,143	0,039
-561,773	-14,563	0,032	0,015
-560,758	-200,000	0,008	0,074
-559,744	-200,000	0,012	0,045
-558,729	-60,377	-0,145	-0,045
-557,715	-62,057	0,084	0,025
-556,700	67,320	0,073	-0,054
-555,685	-200,000	-0,011	0,161
-554,671	-114,598	0,069	0,010
-553,656	800,000	0,002	-0,004
-552,642	800,000	0,018	-0,041
-551,627	32,955	0,069	-0,044
-550,612	800,000	0,034	0,092
-549,598	52,768	-0,062	-0,043
-548,583	116,576	0,026	-0,024
-547,569	-16,438	-0,112	0,052
-546,554	-131,392	0,211	-0,020
-545,539	-200,000	0,007	-0,077
-544,525	7,889	0,047	-0,026
-543,510	413,008	-0,096	-0,150
-542,496	-118,447	0,101	0,013
-541,481	341,576	-0,094	-0,135
-540,466	226,015	0,062	-0,073
-539,452	49,300	0,081	0,055
-538,437	-200,000	-0,040	0,136
-537,423	-200,000	0,003	0,000
-536,408	29,326	-0,071	-0,044
-535,393	17,475	-0,054	0,031
-534,379	-200,000	-0,006	-0,041
-533,364	139,647	-0,068	0,065
-532,350	800,000	-0,023	-0,062
-531,335	288,964	-0,031	-0,041
-530,321	-200,000	0,002	0,045
-529,306	557,571	-0,035	0,061
-528,291	-200,000	0,007	-0,067
-527,277	-123,297	-0,075	-0,009
-526,262	585,470	-0,018	0,032
-525,248	-136,041	-0,074	-0,006
-524,233	-81,265	-0,088	0,021
-523,218	129,548	0,062	-0,058
-522,204	429,420	0,051	-0,080
-521,189	99,813	-0,036	0,031
-520,175	234,825	0,069	0,083
-519,160	-47,660	-0,097	0,034
-518,145	176,727	0,042	-0,045
-517,131	-71,276	0,072	-0,020
-516,116	302,432	0,043	0,058
-515,102	-44,984	-0,107	-0,039
-514,087	-64,553	-0,097	0,029
-513,072	800,000	0,013	-0,034
-512,058	-45,084	0,070	0,025
-511,043	-200,000	-0,015	0,048
-510,029	-200,000	0,011	0,045
-509,014	-146,687	0,059	-0,004
-507,999	136,820	0,090	-0,086
-506,985	-33,783	-0,112	-0,045
-505,970	386,894	-0,036	-0,054
-504,956	-11,008	-0,047	0,022
-503,941	71,647	-0,082	-0,062
-502,926	-94,032	0,139	-0,028
-501,912	-200,000	-0,037	0,129
-500,897	-9,508	0,111	0,054
-499,883	429,478	-0,047	0,074
-498,868	39,600	-0,088	-0,058
-497,853	261,609	-0,052	-0,066
-496,839	-200,000	0,036	-0,207
-495,824	-198,367	-0,042	-0,000
-494,810	195,801	-0,087	0,097
-493,795	-20,921	-0,136	-0,060
-492,781	269,547	0,101	-0,129
-491,766	-140,880	-0,031	0,002
-490,751	-53,561	0,021	-0,007
-489,737	-200,000	0,014	0,237
-488,722	-200,000	-0,012	0,111
-487,708	86,185	0,131	0,105
-486,693	-95,056	-0,068	-0,013
-485,678	-200,000	-0,011	-0,047
-484,664	594,179	-0,076	-0,137
-483,649	-176,299	-0,089	0,002
-482,635	-200,000	0,021	0,073
-481,620	514,872	-0,084	-0,144
-480,605	51,869	0,106	0,073
-479,591	-100,418	0,038	0,007
-478,576	800,000	0,032	-0,090
-477,562	114,287	-0,033	0,029
-476,547	-200,000	0,025	-0,113
-475,532	-200,000	0,004	-0,039
-474,518	-200,000	0,001	-0,040
-473,503	-11,278	0,030	0,014
-472,489	59,811	0,071	0,051
-471,474	107,391	0,090	0,078
-470,459	-200,000	0,021	-0,198
-469,445	800,000	0,031	-0,085
-468,430	-200,000	-0,051	-0,187
-467,416	87,246	0,050	-0,040
-466,401	800,000	-0,047	0,106
-465,386	-200,000	-0,026	0,102
-464,372	-155,954	-0,059	-0,003
-463,357	33,207	-0,086	-0,054
-462,343	139,331	-0,115	-0,110
-461,328	459,205	-0,010	0,016
-460,313	3,387	-0,112	0,059
-459,299	115,279	-0,078	-0,069
-458,284	35,121	0,085	0,054
-457,270	-129,669	0,010	-0,001
-456,255	-37,663	0,051	0,020
-455,241	-93,803	-0,115	-0,023
-454,226	142,912	-0,102	-0,099
-453,211	44,892	-0,029	0,019
-452,197	-108,543	0,123	0,019
-451,182	-3,724	0,110	0,055
-450,168	-54,385	0,140	-0,046
-449,153	800,000	0,020	-0,063
-448,138	172,745	0,062	-0,065
-447,124	-137,338	-0,080	-0,007
-446,109	240,116	-0,081	-0,099
-445,095	800,000	0,076	0,180
-444,080	37,673	0,066	-0,043
-443,065	-200,000	0,006	0,044
-442,051	-92,278	0,076	0,015
-441,036	-141,914	-0,087	-0,006
-440,022	-98,430	-0,072	0,013
-439,007	-133,889	-0,088	-0,008
-437,992	-200,000	0,009	0,082
-436,978	48,685	-0,085	-0,058
-435,963	800,000	-0,008	-0,024
-434,949	-200,000	-0,014	0,061
-433,934	-16,435	-0,072	0,033
-432,919	50,043	0,078	0,053
-431,905	278,174	-0,048	-0,063
-430,890	108,666	0,105	0,092
-429,876	800,000	-0,011	0,032
-428,861	-29,970	-0,068	0,028
-427,846	-70,521	-0,113	-0,031
-426,832	577,185	0,028	0,050
-425,817	318,461	-0,107	0,148
-424,803	-19,533	-0,104	-0,047
-423,788	-200,000	0,015	0,051
-422,773	-200,000	0,015	0,050
-421,759	228,970	0,056	0,066
-420,744	49,813	0,091	-0,062
-419,730	800,000	-0,006	0,015
-418,715	247,864	-0,129	0,159
-417,701	2,288	0,024	0,012
-416,686	49,578	0,134	-0,092
-415,671	-200,000	0,010	0,097
-414,657	20,665	0,086	0,051
-413,642	383,651	-0,045	0,067
-412,628	800,000	-0,012	0,038
-411,613	-42,726	-0,073	0,027
-410,598	421,244	-0,071	0,111
-409,584	-200,000	-0,012	-0,090
-408,569	800,000	0,036	-0,092
-407,555	273,900	-0,047	0,061
-406,540	30,759	-0,100	-0,062
-405,525	394,849	0,035	-0,054
-404,511	-200,000	0,004	0,068
-403,496	-200,000	-0,001	-0,147
-402,482	181,148	0,064	0,069
-401,467	-200,000	0,002	0,028
-400,452	-200,000	-0,019	0,076
-399,438	-200,000	0,006	0,029
-398,423	622,777	0,047	0,086
-397,409	-200,000	0,005	-0,076
-396,394	38,407	0,042	0,027
-395,379	-200,000	0,019	0,172
-394,365	-19,273	0,066	0,030
-393,350	547,250	-0,016	0,028
-392,336	138,994	0,062	0,059
-391,321	98,591	0,057	0,048
-390,306	-200,000	-0,020	-0,077
-389,292	800,000	0,033	-0,086
-388,277	800,000	0,032	-0,071
-387,263	269,483	0,015	-0,019
-386,248	-200,000	0,016	-0,069
-385,233	361,141	-0,024	-0,036
-384,219	-200,000	0,011	-0,179
-383,204	654,312	0,014	-0,026
-382,190	-184,922	-0,035	-0,000
-381,175	366,898	-0,065	-0,095
-380,160	322,321	0,009	0,013
-379,146	-56,774	0,236	0,075
-378,131	-71,040	-0,020	-0,005
-377,117	622,572	-0,015	0,027
-376,102	-200,000	0,006	-0,075
-375,088	108,380	-0,130	0,113
-374,073	-200,000	0,000	-0,135
-373,058	328,151	0,091	-0,127
-372,044	33,434	0,042	0,026
-371,029	800,000	0,061	0,153
-370,015	800,000	-0,026	0,064
-369,000	-96,956	-0,128	0,024
-367,985	-136,970	0,224	0,018
-366,971	12,038	-0,023	-0,013
-365,956	74,155	0,047	-0,036
-364,942	-200,000	-0,015	0,108
-363,927	111,503	0,077	0,067
-362,912	-200,000	-0,001	-0,058
-361,898	-200,000	0,017	-0,085
-360,883	35,121	0,064	0,041
-359,869	-117,264	-0,073	-0,010
-358,854	-88,555	-0,040	0,009
-357,839	126,289	-0,033	0,031
-356,825	-10,289	0,092	0,044
-355,810	398,999	0,077	-0,118
-354,796	28,230	0,120	-0,073
-353,781	-50,185	-0,151	0,052
-352,766	-200,000	0,002	-0,060
-351,752	-100,804	0,113	0,020
-350,737	800,000	0,018	0,048
-349,723	136,009	0,046	-0,044
-348,708	800,000	0,057	0,145
-347,693	83,023	-0,078	0,061
-346,679	503,742	-0,059	-0,099
-345,664	-9,970	-0,068	-0,033
-344,650	-51,469	0,011	-0,004
-343,635	-200,000	-0,027	0,158
-342,620	-200,000	0,005	0,088
-341,606	88,117	-0,026	0,021
-340,591	111,229	0,019	-0,017
-339,577	756,126	-0,056	-0,110
-338,562	-27,015	0,102	-0,043
-337,548	585,067	-0,031	-0,056
-336,533	-200,000	0,013	0,086
-335,518	7,297	0,073	0,039
-334,504	-98,234	0,133	0,025
-333,489	-200,000	0,011	0,075
-332,475	527,182	-0,031	0,054
-331,460	-149,415	-0,028	-0,002
-330,445	139,590	0,092	-0,088
-329,431	139,306	0,091	0,087
-328,416	-14,338	0,019	0,009
-327,402	39,441	-0,057	-0,037
-326,387	159,272	0,090	0,091
-325,372	355,305	-0,070	-0,101
-324,358	800,000	-0,020	0,049
-323,343	-155,186	-0,078	0,004
-322,329	-200,000	-0,025	0,098
-321,314	2,719	0,114	0,060
-320,299	168,439	-0,051	0,053
-319,285	-200,000	0,017	0,108
-318,270	-62,273	-0,102	0,031
-317,256	106,671	-0,065	-0,056
-316,241	400,176	0,043	-0,066
-315,226	-106,074	0,044	-0,007
-314,212	-188,296	-0,098	-0,001
-313,197	-200,000	-0,040	-0,216
-312,183	-200,000	-0,003	-0,031
-311,168	-200,000	-0,011	-0,055
-310,153	-125,753	0,077	-0,008
-309,139	14,526	-0,075	-0,042
-308,124	-137,131	0,101	-0,008
-307,110	52,845	0,086	-0,060
-306,095	-136,197	-0,067	-0,006
-305,080	779,387	0,032	-0,064
-304,066	-47,069	0,047	0,016
-303,051	-195,069	-0,109	0,001
-302,037	800,000	-0,015	-0,046
-301,022	-168,634	-0,070	-0,002
-300,008	216,679	-0,004	0,005
-298,993	113,778	0,134	0,118
-297,978	800,000	-0,067	0,145
-296,964	-23,353	-0,024	0,010
-295,949	800,000	-0,053	-0,154
-294,935	192,251	0,025	0,027
-293,920	800,000	-0,040	0,119
-292,905	800,000	-0,037	-0,079
-291,891	400,388	0,076	0,116
-290,876	-53,204	0,093	0,031
-289,862	-200,000	-0,019	-0,088
-288,847	-200,000	0,007	0,025
-287,832	-129,714	-0,138	0,014
-286,818	296,209	-0,082	-0,110
-285,803	492,591	0,061	0,102
-284,789	4,447	-0,043	0,023
-283,774	-136,883	0,099	0,008
-282,759	800,000	0,034	0,074
-281,745	-200,000	-0,029	-0,143
-280,730	185,979	-0,041	-0,044
-279,716	753,823	-0,034	-0,067
-278,701	-200,000	-0,003	-0,116
-277,686	169,539	-0,016	0,016
-276,672	-17,916	-0,057	-0,026
-275,657	282,018	-0,045	0,058
-274,643	-200,000	-0,002	-0,012
-273,628	92,721	-0,125	0,102
-272,613	-23,584	-0,094	-0,041
-271,599	-76,477	0,151	0,038
-270,584	-75,896	0,100	0,025
-269,570	-200,000	0,023	0,085
-268,555	800,000	0,022	0,070
-267,540	800,000	0,054	-0,139
-266,526	-89,384	0,055	0,012
-265,511	-67,395	0,084	0,024
-264,497	108,446	0,096	0,083
-263,482	-83,026	-0,089	-0,021
-262,467	-96,264	0,053	-0,010
-261,453	-113,857	-0,203	0,028
-260,438	57,894	-0,088	-0,062
-259,424	-115,172	-0,064	0,009
-258,409	106,011	-0,127	-0,108
-257,395	435,697	0,042	-0,066
-256,380	-178,955	0,125	0,002
-255,365	113,627	0,111	0,098
-254,351	-200,000	0,006	0,076
-253,336	484,146	-0,045	0,074
-252,322	-120,861	0,095	0,011
-251,307	73,597	-0,111	-0,084
-250,292	-150,756	0,153	0,008
-249,278	800,000	-0,034	0,105
-248,263	0,396	0,085	0,044
-247,249	65,180	-0,030	-0,022
-246,234	-18,310	-0,032	0,014
-245,219	275,362	0,033	-0,043
-244,205	762,767	0,056	0,110
-243,190	202,649	-0,061	0,069
-242,176	-15,366	0,161	-0,074
-241,161	190,837	0,123	0,134
-240,146	-200,000	0,013	0,000
-239,132	-144,786	-0,096	-0,006
-238,117	130,667	0,058	0,054
-237,103	-143,246	-0,104	-0,007
-236,088	406,670	0,051	-0,078
-235,073	83,373	-0,024	0,019
-234,059	131,936	0,033	0,031
-233,044	199,632	-0,067	0,074
-232,030	800,000	-0,035	0,088
-231,015	-168,696	-0,096	0,003
-230,000	160,796	0,033	-0,033
-228,986	20,247	0,074	-0,043
-227,971	-89,525	0,092	0,019
-226,957	53,595	0,135	-0,094
-225,942	441,428	-0,019	0,030
-224,927	-200,000	0,039	0,146
-223,913	-27,133	-0,091	0,038
-222,898	52,790	-0,037	-0,025
-221,884	135,553	0,067	-0,063
-220,869	158,751	-0,056	0,057
-219,855	800,000	-0,035	0,100
-218,840	-56,757	0,022	-0,007
-217,825	-71,008	0,147	-0,040
-216,811	800,000	-0,034	-0,070
-215,796	191,451	0,075	0,082
-214,782	152,280	-0,100	-0,099
-213,767	438,492	-0,033	0,051
-212,752	-107,174	0,045	-0,007
-211,738	-124,258	-0,122	0,014
-210,723	800,000	-0,028	0,078
-209,709	800,000	0,029	-0,087
-208,694	11,338	-0,090	-0,049
-207,679	-200,000	-0,006	-0,042
-206,665	-116,933	0,104	0,014
-205,650	-171,431	-0,121	0,003
-204,636	-1,317	0,182	0,093
-203,621	-8,131	0,086	0,042
-202,606	800,000	0,069	-0,188
-201,592	53,574	-0,103	-0,071
-200,577	57,122	-0,042	-0,030
-199,563	599,899	-0,008	-0,015
-198,548	559,506	-0,052	-0,092
-197,533	573,401	0,049	-0,086
-196,519	-93,878	0,151	-0,030
-195,504	-200,000	0,025	0,149
-194,490	-152,427	0,106	-0,005
-193,475	527,284	0,014	-0,024
-192,460	497,915	-0,013	0,022
-191,446	-117,865	-0,009	0,001
-190,431	23,410	-0,074	-0,044
-189,417	-82,145	0,025	-0,006
-188,402	125,974	-0,160	0,146
-187,387	800,000	-0,030	0,064
-186,373	-125,336	0,054	0,006
-185,358	-11,445	-0,050	-0,024
-184,344	-132,498	-0,104	-0,010
-183,329	171,765	-0,094	0,097
-182,315	-200,000	0,012	0,041
-181,300	-200,000	0,002	0,033
-180,285	6,506	-0,070	-0,037
-179,271	800,000	-0,010	-0,030
-178,256	-58,272	-0,092	0,029
-177,242	800,000	-0,021	-0,051
-176,227	-84,486	0,122	-0,027
-175,212	800,000	0,057	0,164
-174,198	-200,000	0,019	0,081
-173,183	-200,000	-0,019	-0,124
-172,169	-22,202	-0,130	-0,057
-171,154	139,848	0,050	0,048
-170,139	4,662	-0,035	0,018
-169,125	182,166	0,060	-0,064
-168,110	255,276	0,069	0,086
-167,096	-200,000	-0,021	-0,120
-166,081	-200,000	-0,002	0,052
-165,066	-200,000	-0,001	-0,137
-164,052	421,739	0,060	0,093
-163,037	25,810	-0,167	-0,100
-162,023	-46,251	0,105	-0,037
-161,008	662,533	0,037	-0,069
-159,993	72,087	-0,073	0,055
-158,979	-200,000	-0,054	-0,202
-157,964	-200,000	0,022	-0,196
-156,950	-39,946	-0,103	-0,039
-155,935	-138,404	0,122	-0,010
-154,920	181,134	0,068	0,072
-153,906	10,082	0,033	-0,018
-152,891	97,781	-0,048	0,040
-151,877	-169,777	0,098	-0,002
-150,862	104,730	0,161	-0,136
-149,847	473,470	-0,038	0,061
-148,833	642,859	-0,050	0,092
-147,818	562,879	0,055	0,095
-146,804	-200,000	0,008	0,082
-145,789	567,135	-0,078	0,137
-144,775	133,726	-0,041	-0,038
-143,760	800,000	-0,018	-0,038
-142,745	59,089	0,108	-0,076
-141,731	-90,134	0,043	0,009
-140,716	800,000	-0,045	0,098
-139,702	-200,000	0,009	0,114
-138,687	473,417	0,034	0,055
-137,672	59,264	-0,081	-0,058
-136,658	87,024	-0,132	-0,105
-135,643	-200,000	-0,020	-0,092
-134,629	292,029	-0,045	0,059
-133,614	-200,000	0,028	0,114
-132,599	-48,646	-0,171	-0,059
-131,585	355,724	-0,029	-0,041
-130,570	800,000	-0,015	0,037
-129,556	-200,000	0,003	-0,063
-128,541	61,476	-0,067	-0,048
-127,526	84,144	0,129	-0,101
-126,512	-71,800	0,076	0,020
-125,497	-149,435	0,036	0,002
-124,483	122,629	-0,068	0,061
-123,468	-17,363	0,092	0,042
-122,453	800,000	0,050	0,105
-121,439	149,647	-0,039	0,038
-120,424	119,023	-0,116	-0,103
-119,410	26,941	0,077	0,046
-118,395	-200,000	-0,007	0,056
-117,380	-11,953	0,102	0,048
-116,366	800,000	-0,031	-0,067
-115,351	-119,889	-0,110	0,013
-114,337	800,000	-0,047	-0,109
-113,322	-70,401	-0,059	-0,016
-112,307	-200,000	0,010	-0,042
-111,293	-200,000	0,010	0,040
-110,278	800,000	0,011	0,025
-109,264	-200,000	-0,009	0,084
-108,249	417,782	-0,099	-0,153
-107,234	-20,002	0,059	-0,026
-106,220	-200,000	-0,014	-0,060
-105,205	-146,330	-0,178	-0,011
-104,191	-59,267	0,139	0,043
-103,176	104,294	0,034	0,029
-102,162	800,000	-0,090	0,230
-101,147	251,635	0,115	-0,141
-100,132	58,541	-0,054	-0,038
-99,118	800,000	-0,047	-0,131
-98,103	-15,918	-0,037	0,017
-97,089	89,110	-0,006	0,005
-96,074	800,000	0,059	0,123
-95,059	161,479	0,120	0,121
-94,045	189,139	0,059	0,064
-93,030	-200,000	0,022	-0,085
-92,016	6,367	0,004	0,002
-91,001	-200,000	0,007	-0,107
-89,986	68,083	0,035	0,026
-88,972	-200,000	-0,009	0,087
-87,957	-200,000	-0,025	-0,097
-86,943	72,418	-0,088	0,066
-85,928	800,000	0,067	-0,141
-84,913	793,171	0,032	-0,063
-83,899	-200,000	-0,056	-0,232
-82,884	-12,793	-0,025	-0,012
-81,870	38,443	-0,096	-0,062
-80,855	800,000	-0,079	0,194
-79,840	-7,631	0,085	-0,041
-78,826	261,598	-0,029	-0,036
-77,811	198,502	-0,134	-0,147
-76,797	244,631	0,092	-0,111
-75,782	-80,866	-0,121	-0,029
-74,767	-144,593	0,063	-0,004
-73,753	346,120	-0,030	-0,043
-72,738	-62,113	0,098	-0,029
-71,724	-122,910	-0,106	0,012
-70,709	-200,000	-0,002	-0,086
-69,694	179,035	0,015	-0,016
-68,680	42,872	-0,092	-0,060
-67,665	655,562	0,029	0,054
-66,651	56,630	-0,148	-0,103
-65,636	-94,759	0,039	-0,008
-64,622	-178,036	0,162	0,003
-63,607	800,000	-0,029	0,058
-62,592	800,000	-0,027	0,082
-61,578	-200,000	0,023	0,079
-60,563	-74,564	0,085	0,022
-59,549	-48,093	0,071	0,024
-58,534	18,002	-1,939	-1,106
-57,519	-200,000	-0,173	-0,819
-56,505	-200,000	-1,417	-4,939
-55,490	33,753	0,768	0,478
-54,476	800,000	5,410	12,275
-53,461	-200,000	17,714	289,139
-52,446	800,000	729,578	2232,238
-51,432	538,084	1645,587	2817,241
-50,417	109,502	1635,768	1405,685
-49,403	75,390	1287,197	973,518
-48,388	31,692	1027,447	632,817
-47,373	20,080	989,192	570,979
-46,359	18,343	976,806	558,115
-45,344	15,353	972,936	546,104
-44,330	15,580	971,281	545,893
-43,315	15,082	969,474	543,232
-42,300	14,962	968,586	542,323
-41,286	14,967	967,466	541,689
-40,271	15,049	966,519	541,404
-39,257	15,056	965,555	540,865
-38,242	15,002	964,694	540,188
-37,227	15,041	963,845	539,815
-36,213	15,026	963,035	539,292
-35,198	15,023	962,090	538,732
-34,184	15,025	961,471	538,372
-33,169	15,032	960,210	537,665
-32,154	15,025	959,437	537,190
-31,140	15,095	958,412	536,819
-30,125	15,085	957,906	536,484
-29,111	15,040	957,077	535,854
-28,096	15,115	956,504	535,750
-27,082	15,065	955,741	535,142
-26,067	15,023	955,006	534,574
-25,052	15,013	954,213	534,077
-24,038	15,009	953,648	533,728
-23,023	15,029	952,831	533,312
-22,009	15,035	952,419	533,081
-20,994	14,999	951,753	532,571
-19,979	15,065	951,033	532,357
-18,965	15,104	950,370	532,091
-17,950	15,036	949,737	531,498
-16,936	15,021	949,029	531,032
-15,921	14,966	948,491	530,534
-14,906	14,928	947,599	529,895
-13,892	14,912	947,102	529,545
-12,877	14,901	946,366	529,078
-11,863	14,905	945,792	528,746
-10,848	14,856	945,307	528,301
-9,833	15,006	944,779	528,459
-8,819	14,968	944,058	527,916
-7,804	14,932	943,501	527,468
-6,790	14,911	943,000	527,100
-5,775	15,016	942,293	527,016
-4,760	14,953	941,776	526,508
-3,746	14,921	940,938	525,919
-2,731	14,793	940,403	525,192
-1,717	14,730	939,912	524,698
-0,702	14,785	939,040	524,364
0,313	14,584	938,336	524,130
1,327	17,854	936,217	533,192
2,342	26,709	792,682	474,863
3,356	23,469	457,498	269,104
4,371	-3,692	313,753	155,743
5,386	-7,715	295,482	142,600
6,400	-9,552	289,255	137,765
7,415	-10,054	286,894	136,135
8,429	-10,282	285,353	135,169
9,444	-10,238	284,478	134,786
10,459	-10,157	283,865	134,562
11,473	-10,154	283,193	134,234
12,488	-10,325	282,860	133,899
13,502	-10,327	282,152	133,550
14,517	-10,162	281,800	133,530
15,531	-10,263	281,402	133,233
16,546	-10,157	280,869	133,070
17,561	-10,219	280,637	132,890
18,575	-10,061	280,322	132,879
19,590	-10,156	279,826	132,542
20,604	-10,060	279,538	132,485
21,619	-10,434	279,333	132,020
22,634	-10,206	278,932	132,035
23,648	-10,264	278,637	131,829
24,663	-10,410	278,459	131,593
25,677	-10,067	278,006	131,693
26,692	-10,180	277,815	131,484
27,707	-10,359	277,557	131,181
28,721	-10,389	277,335	131,035
29,736	-10,329	276,893	130,872
30,750	-10,227	276,621	130,828
31,765	-10,275	276,402	130,668
32,780	-10,294	276,286	130,583
33,794	-10,218	275,889	130,455
34,809	-10,309	275,734	130,285
35,823	-10,262	275,444	130,180
36,838	-10,434	275,178	129,882
37,853	-10,138	274,991	130,059
38,867	-10,097	274,682	129,940
39,882	-10,432	274,514	129,535
40,896	-10,344	274,249	129,481
41,911	-10,251	274,052	129,463
42,926	-10,388	273,803	129,206
43,940	-10,258	273,484	129,165
44,955	-10,238	273,176	129,027
45,969	-10,338	272,978	128,829
46,984	-10,480	272,822	128,611
47,999	-10,748	272,439	128,171
49,013	-10,635	272,300	128,199
50,028	-10,862	271,934	127,804
51,042	-10,868	271,576	127,620
52,057	-11,031	271,566	127,452
53,071	-10,845	271,209	127,445
54,086	-10,997	271,233	127,305
55,101	-10,721	270,877	127,381
56,115	-10,638	270,878	127,447
57,130	-10,333	270,756	127,660
58,144	-10,149	270,363	127,632
59,159	-10,121	270,153	127,548
60,174	-9,957	269,840	127,539
61,188	-10,018	269,689	127,401
62,203	-10,235	269,696	127,193
63,217	-10,103	269,391	127,159
64,232	-10,276	269,244	126,919
65,247	-10,259	268,896	126,759
66,261	-10,066	268,390	126,687
67,276	-10,338	268,439	126,450
68,290	-10,546	268,063	126,071
69,305	-10,488	267,809	125,993
70,320	-10,414	267,669	125,984
71,334	-10,171	267,455	126,093
72,349	-10,385	267,323	125,824
73,363	-10,040	267,007	125,979
74,378	-10,373	266,980	125,652
75,393	-10,265	266,737	125,625
76,407	-10,173	266,527	125,597
77,422	-9,985	266,213	125,608
78,436	-10,156	265,975	125,330
79,451	-10,152	265,833	125,256
80,466	-10,150	265,414	125,050
81,480	-10,252	265,213	124,851
82,495	-10,323	264,931	124,644
83,509	-10,236	264,848	124,672
84,524	-10,281	264,598	124,502
85,539	-10,502	264,508	124,251
86,553	-10,387	264,207	124,202
87,568	-10,286	263,956	124,162
88,582	-10,273	263,789	124,085
89,597	-10,411	263,637	123,878
90,611	-10,254	263,489	123,939
91,626	-10,137	263,271	123,930
92,641	-10,221	263,009	123,720
93,655	-10,261	262,964	123,652
94,670	-10,164	262,670	123,589
95,684	-10,043	262,467	123,591
96,699	-10,291	262,334	123,296
97,714	-10,205	261,978	123,194
98,728	-10,353	261,901	123,016
99,743	-10,351	261,652	122,889
100,757	-10,383	261,343	122,705
101,772	-10,421	261,212	122,598
102,787	-10,057	261,086	122,852
103,801	-10,229	260,895	122,598
104,816	-10,125	260,750	122,611
105,830	-10,160	260,442	122,424
106,845	-10,283	260,315	122,245
107,860	-10,279	260,121	122,147
108,874	-10,018	259,930	122,276
109,889	-10,214	259,801	122,032
110,903	-10,252	259,551	121,870
111,918	-10,053	259,082	121,814
112,933	-10,074	259,185	121,833
113,947	-10,134	259,005	121,685
114,962	-10,187	258,746	121,506
115,976	-10,379	258,573	121,246
116,991	-10,215	258,484	121,336
118,006	-10,264	258,388	121,238
119,020	-10,033	258,033	121,263
120,035	-10,120	258,005	121,163
121,049	-10,163	257,764	121,001
122,064	-10,213	257,589	120,865
123,079	-10,256	257,342	120,700
124,093	-10,374	257,300	120,567
125,108	-10,450	256,866	120,287
126,122	-10,661	256,708	120,018
127,137	-10,606	256,354	119,890
128,151	-10,602	256,397	119,903
129,166	-10,409	256,042	119,893
130,181	-10,483	255,875	119,741
131,195	-10,497	255,714	119,643
132,210	-10,372	255,463	119,622
133,224	-10,112	255,399	119,807
134,239	-10,057	255,026	119,668
135,254	-10,167	255,104	119,600
136,268	-10,388	254,829	119,269
137,283	-10,372	254,520	119,128
138,297	-10,692	254,247	118,714
139,312	-10,631	254,097	118,686
140,327	-10,243	253,917	118,924
141,341	-10,095	253,826	118,999
142,356	-10,201	253,748	118,860
143,370	-10,049	253,742	118,977
144,385	-10,073	253,387	118,779
145,400	-10,077	253,269	118,710
146,414	-9,964	252,934	118,639
147,429	-9,919	252,735	118,574
148,443	-10,056	252,692	118,426
149,458	-10,148	252,591	118,289
150,473	-9,853	252,334	118,410
151,487	-10,090	251,997	118,040
152,502	-10,123	251,891	117,951
153,516	-9,918	251,717	118,034
154,531	-9,901	251,600	117,982
155,546	-9,875	251,348	117,876
156,560	-10,006	251,317	117,740
157,575	-10,110	250,784	117,392
158,589	-10,106	250,687	117,340
159,604	-10,083	250,528	117,274
160,619	-9,976	250,444	117,314
161,633	-10,224	250,267	117,012
162,648	-10,017	250,174	117,132
163,662	-10,067	250,011	117,003
164,677	-9,955	249,786	116,982
165,692	-9,925	249,509	116,868
166,706	-9,970	249,401	116,769
167,721	-9,947	249,176	116,672
168,735	-9,985	249,001	116,548
169,750	-10,185	248,993	116,365
170,764	-9,918	248,783	116,481
171,779	-9,792	248,623	116,501
172,794	-9,872	248,422	116,330
173,808	-10,031	248,146	116,057
174,823	-10,429	248,004	115,648
175,837	-10,522	247,722	115,428
176,852	-9,982	247,767	115,889
177,867	-9,857	247,680	115,944
178,881	-9,909	247,476	115,794
179,896	-10,016	247,314	115,619
180,910	-9,917	247,082	115,582
181,925	-10,083	246,970	115,381
182,940	-9,885	246,763	115,440
183,954	-10,043	246,509	115,179
184,969	-9,984	246,381	115,158
185,983	-9,959	246,186	115,077
186,998	-9,924	246,096	115,053
188,013	-9,798	245,837	115,027
189,027	-9,820	245,809	114,985
190,042	-9,985	245,557	114,721
191,056	-9,930	245,463	114,712
192,071	-10,120	245,256	114,448
193,086	-9,957	244,932	114,422
194,100	-10,040	244,880	114,318
195,115	-9,928	244,779	114,353
196,129	-9,673	244,453	114,400
197,144	-9,890	244,318	114,149
198,159	-9,827	244,091	114,084
199,173	-10,093	244,008	113,816
200,188	-10,042	243,772	113,738
201,202	-10,130	243,406	113,485
202,217	-10,499	243,287	113,118
203,232	-10,564	243,034	112,937
204,246	-10,016	242,992	113,355
205,261	-9,786	242,953	113,515
206,275	-10,396	242,759	112,916
207,290	-5,512	244,690	117,819
208,304	1,714	246,808	124,800
209,319	3,815	247,178	126,709
210,334	4,033	247,213	126,896
211,348	4,150	246,990	126,867
212,363	4,130	246,806	126,744
213,377	4,150	246,794	126,743
214,392	4,239	246,614	126,713
215,407	4,094	246,481	126,514
216,421	4,096	246,331	126,427
217,436	4,134	246,206	126,383
218,450	4,376	245,867	126,396
219,465	4,163	245,709	126,129
220,480	3,770	245,616	125,749
221,494	3,654	245,423	125,543
222,509	3,881	245,191	125,599
223,523	3,925	244,820	125,434
224,538	3,824	244,820	125,340
225,553	3,674	244,625	125,107
226,567	3,619	244,526	125,000
227,582	3,777	244,365	125,035
228,596	3,853	244,296	125,051
229,611	3,703	244,076	124,804
230,626	3,567	243,808	124,547
231,640	3,654	243,621	124,510
232,655	3,794	243,575	124,589
233,669	3,718	243,382	124,418
234,684	3,601	243,041	124,138
235,699	3,827	243,128	124,354
236,713	3,940	242,899	124,317
237,728	3,818	242,801	124,157
238,742	3,440	242,475	123,675
239,757	3,570	242,447	123,754
240,772	3,881	242,213	123,875
241,786	4,004	241,959	123,832
242,801	3,685	241,848	123,508
243,815	3,757	241,823	123,542
244,830	4,052	241,633	123,671
245,844	4,006	241,371	123,489
246,859	3,552	241,388	123,122
247,874	3,842	241,185	123,240
248,888	3,866	241,029	123,169
249,903	3,956	240,892	123,160
250,917	3,920	240,833	123,090
251,932	3,930	240,574	122,955
252,947	3,761	240,420	122,730
253,961	3,584	240,230	122,481
254,976	3,699	239,982	122,435
255,990	3,473	239,873	122,188
257,005	3,749	239,782	122,351
258,020	3,451	239,685	122,053
259,034	3,819	239,479	122,230
260,049	3,692	239,214	121,983
261,063	3,699	239,014	121,876
262,078	3,794	239,024	121,946
263,093	3,848	238,840	121,884
264,107	3,741	238,781	121,758
265,122	3,771	238,574	121,665
266,136	3,950	238,454	121,734
267,151	3,751	238,439	121,559
268,166	3,715	238,006	121,299
269,180	3,719	237,887	121,230
270,195	3,616	237,921	121,155
271,209	3,891	237,664	121,231
272,224	3,806	237,351	120,993
273,239	3,654	237,284	120,829
274,253	3,819	237,177	120,893
275,268	3,837	236,857	120,734
276,282	3,765	236,746	120,610
277,297	3,440	236,564	120,251
278,312	3,692	236,531	120,421
279,326	3,814	236,418	120,449
280,341	3,852	236,201	120,357
281,355	3,735	236,193	120,251
282,370	3,634	235,988	120,057
283,384	3,557	235,854	119,917
284,399	3,573	235,716	119,850
285,414	3,668	235,377	119,740
286,428	3,660	235,259	119,664
287,443	3,604	235,148	119,553
288,457	3,721	235,124	119,621
289,472	3,657	234,908	119,451
290,487	3,805	234,549	119,373
291,501	3,433	234,506	119,051
292,516	3,453	234,322	118,962
293,530	3,603	234,120	118,966
294,545	3,862	234,308	119,251
295,560	3,971	234,102	119,220
296,574	3,581	233,860	118,785
297,589	3,847	233,863	118,981
298,603	4,201	233,686	119,155
299,618	3,954	233,524	118,870
300,633	3,811	233,462	118,718
301,647	4,010	233,381	118,819
302,662	4,250	233,070	118,835
303,676	4,167	233,001	118,726
304,691	3,990	232,674	118,413
305,706	3,907	232,572	118,286
306,720	3,762	232,396	118,075
307,735	3,766	232,295	118,016
308,749	3,755	232,018	117,856
309,764	3,372	232,023	117,554
310,779	3,589	231,708	117,551
311,793	3,606	231,474	117,435
312,808	3,539	231,457	117,365
313,822	3,829	231,291	117,491
314,837	3,567	231,140	117,204
315,852	3,700	231,155	117,303
316,866	3,663	231,063	117,217
317,881	3,838	230,799	117,206
318,895	3,702	230,755	117,070
319,910	3,766	230,519	116,988
320,925	3,798	230,143	116,811
321,939	3,733	229,996	116,677
322,954	3,984	230,111	116,916
323,968	3,869	229,950	116,736
324,983	4,006	229,758	116,732
325,997	3,970	229,651	116,640
327,012	3,778	229,438	116,376
328,027	3,573	229,444	116,213
329,041	4,432	229,309	116,785
330,056	4,357	229,236	116,681
331,070	4,286	229,075	116,535
332,085	4,103	228,851	116,272
333,100	4,214	228,556	116,195
334,114	4,092	228,430	116,029
335,129	3,924	228,501	115,928
336,143	4,178	228,174	115,943
337,158	4,094	228,058	115,811
338,173	3,672	227,996	115,452
339,187	3,913	227,756	115,501
340,202	4,085	227,657	115,569
341,216	4,136	227,389	115,461
342,231	3,874	227,176	115,146
343,246	3,818	227,320	115,167
344,260	3,910	227,085	115,107
345,275	4,149	226,920	115,192
346,289	4,290	226,739	115,195
347,304	4,167	226,783	115,115
348,319	4,048	226,494	114,869
349,333	3,923	226,195	114,615
350,348	3,836	226,017	114,450
351,362	3,832	225,955	114,404
352,377	3,504	225,745	114,044
353,392	3,491	225,598	113,950
354,406	3,467	225,290	113,766
355,421	196,104	1320,926	1399,107
356,435	157,195	1454,402	1399,094
