DTS Sentinel unit serial number:	SN410029Multiplexer serial number:	ORYXHardware model number:	OX2-SRSoftware version number:	ORYX F/W v4,00 Oryx Data Collector v3.7.2.0data status	okinstallation	B5 Nyhavnadifferential loss correction	single-endedforward channel	channel 2reverse channel	N/Adate	2023/12/12time	07:52:13forward acquisition time	300,00reverse acquisition time	0,00gamma	499,1914k internal	0,3158k external	0,3158temperature offset calibration	1,0000default loss term (dB/km)	0,3820temperature slope calibration	1,0000multiplexer offset coefficient	1,0000multiplexer slope coefficient	1,0000fibre end	0,00T internal ref (°C)	15,13T ext. ref 1 (°C)	-1,22T ext. ref 2 (°C)	-1,52length (m)	temperature (°C)	Stokes	anti-Stokes-744,400	109,169	0,116	-0,102
-743,385	-82,075	-0,334	0,080
-742,371	172,911	0,049	0,052
-741,356	-44,196	-0,281	0,103
-740,342	-81,150	0,125	0,030
-739,327	-102,148	-0,294	-0,052
-738,312	109,741	-0,004	-0,004
-737,298	-189,995	-0,336	-0,003
-736,283	-8,484	0,070	0,035
-735,269	-38,081	-0,170	0,066
-734,254	-89,300	0,143	-0,031
-733,239	7,772	-0,477	-0,262
-732,225	-20,376	0,046	0,021
-731,210	-72,771	0,053	-0,014
-730,196	-142,984	0,109	-0,008
-729,181	122,184	0,060	-0,055
-728,167	186,698	-0,054	0,060
-727,152	800,000	-0,066	0,151
-726,137	800,000	0,011	0,035
-725,123	-200,000	0,014	0,085
-724,108	800,000	-0,040	-0,094
-723,094	800,000	-0,051	-0,113
-722,079	-147,834	-0,119	-0,007
-721,064	-139,252	0,050	-0,004
-720,050	39,606	-0,111	-0,073
-719,035	246,174	-0,065	-0,081
-718,021	800,000	-0,052	0,110
-717,006	800,000	-0,089	-0,198
-715,991	45,262	-0,098	-0,066
-714,977	-169,781	-0,087	-0,002
-713,962	-200,000	-0,029	-0,136
-712,948	41,610	-0,036	0,024
-711,933	4,436	0,064	0,035
-710,918	432,542	-0,018	-0,028
-709,904	-167,816	-0,053	-0,001
-708,889	55,244	-0,069	-0,049
-707,875	-148,016	-0,027	-0,002
-706,860	0,867	0,060	0,032
-705,845	-200,000	-0,014	0,108
-704,831	410,968	-0,051	0,080
-703,816	419,423	0,057	0,090
-702,802	-62,808	-0,144	0,044
-701,787	-200,000	0,009	-0,073
-700,772	273,329	-0,153	-0,199
-699,758	-200,000	0,002	0,054
-698,743	505,382	0,078	0,134
-697,729	93,974	-0,032	-0,027
-696,714	-200,000	0,008	0,091
-695,699	-200,000	-0,001	0,096
-694,685	-22,316	-0,068	-0,030
-693,670	-200,000	-0,024	-0,083
-692,656	84,015	0,056	-0,045
-691,641	-95,509	0,069	0,013
-690,627	54,292	-0,070	0,050
-689,612	800,000	-0,041	0,088
-688,597	-96,188	0,037	0,007
-687,583	439,000	0,040	-0,065
-686,568	-117,990	-0,070	-0,009
-685,554	-180,554	0,043	-0,001
-684,539	800,000	0,052	-0,111
-683,524	-200,000	-0,019	0,096
-682,510	-103,356	0,062	-0,011
-681,495	-4,778	-0,044	-0,022
-680,481	101,701	-0,073	-0,063
-679,466	-200,000	-0,004	-0,103
-678,451	-104,384	-0,109	0,018
-677,437	-200,000	-0,004	-0,032
-676,422	71,378	-0,079	0,060
-675,408	409,306	0,014	0,022
-674,393	109,807	-0,047	0,042
-673,378	-118,407	-0,218	-0,028
-672,364	60,823	0,106	-0,078
-671,349	24,077	-0,047	0,029
-670,335	377,691	-0,047	-0,070
-669,320	394,505	0,022	0,034
-668,305	3,134	-0,122	0,065
-667,291	55,688	-0,085	0,061
-666,276	800,000	0,019	-0,054
-665,262	11,046	-0,094	-0,053
-664,247	174,488	0,044	0,046
-663,232	-10,552	-0,070	-0,034
-662,218	-77,345	-0,087	-0,022
-661,203	-12,934	-0,038	-0,018
-660,189	383,372	0,040	0,061
-659,174	46,665	-0,076	0,052
-658,159	-30,396	-0,027	-0,011
-657,145	120,457	-0,129	-0,118
-656,130	-90,462	-0,113	0,024
-655,116	800,000	-0,036	0,097
-654,101	800,000	0,029	0,072
-653,086	-20,179	-0,104	-0,047
-652,072	-3,400	0,033	-0,017
-651,057	800,000	-0,046	-0,099
-650,043	-200,000	-0,004	-0,051
-649,028	79,159	-0,046	0,036
-648,014	100,875	0,068	0,058
-646,999	136,573	-0,019	0,018
-645,984	-64,103	0,062	-0,018
-644,970	-1,023	-0,038	-0,019
-643,955	322,741	-0,046	0,065
-642,941	800,000	-0,082	-0,182
-641,926	-200,000	0,022	-0,088
-640,911	147,312	-0,054	-0,053
-639,897	-59,204	0,027	0,009
-638,882	-104,111	0,080	0,014
-637,868	470,838	0,044	-0,072
-636,853	24,356	0,066	-0,040
-635,838	123,881	-0,025	0,023
-634,824	-34,193	0,087	0,035
-633,809	800,000	-0,034	-0,105
-632,795	101,194	-0,015	-0,013
-631,780	334,515	0,125	0,179
-630,765	-93,585	-0,042	-0,009
-629,751	109,127	0,020	-0,018
-628,736	64,078	-0,061	-0,045
-627,722	513,712	0,023	-0,040
-626,707	-200,000	-0,007	-0,039
-625,692	-200,000	-0,014	0,049
-624,678	-200,000	0,007	-0,124
-623,663	15,219	-0,202	-0,116
-622,649	-200,000	0,005	-0,100
-621,634	-200,000	-0,003	-0,073
-620,619	152,744	-0,049	-0,050
-619,605	-101,911	-0,104	-0,018
-618,590	800,000	0,049	-0,103
-617,576	339,143	-0,103	-0,148
-616,561	767,389	-0,049	-0,099
-615,546	559,343	0,020	-0,035
-614,532	-87,717	0,082	0,018
-613,517	-200,000	-0,009	-0,160
-612,503	-133,246	-0,074	-0,007
-611,488	121,799	0,089	-0,081
-610,474	294,855	0,053	0,071
-609,459	-129,278	-0,117	-0,012
-608,444	-200,000	0,003	0,064
-607,430	232,864	-0,028	0,033
-606,415	-139,872	0,003	-0,000
-605,401	-200,000	0,001	-0,007
-604,386	-200,000	-0,002	-0,120
-603,371	800,000	0,048	-0,153
-602,357	337,199	0,016	0,022
-601,342	199,198	0,060	-0,068
-600,328	-30,386	0,069	-0,029
-599,313	-200,000	-0,016	0,062
-598,298	26,066	-0,060	0,036
-597,284	-200,000	0,014	0,110
-596,269	-153,591	0,150	-0,007
-595,255	800,000	0,035	0,094
-594,240	-50,527	-0,028	0,010
-593,225	289,382	-0,055	-0,073
-592,211	-143,688	0,117	0,008
-591,196	88,969	-0,144	-0,117
-590,182	333,081	0,062	-0,088
-589,167	-200,000	-0,009	0,092
-588,152	274,022	0,027	-0,036
-587,138	42,736	-0,074	0,049
-586,123	800,000	-0,056	0,124
-585,109	-200,000	-0,011	-0,126
-584,094	-39,171	-0,122	-0,047
-583,079	-108,344	-0,050	-0,008
-582,065	800,000	-0,034	0,088
-581,050	-157,897	0,076	0,003
-580,036	66,607	-0,049	-0,037
-579,021	702,513	-0,023	-0,044
-578,006	800,000	-0,028	-0,083
-576,992	-13,304	-0,094	-0,044
-575,977	90,909	0,170	0,140
-574,963	-113,189	0,073	-0,010
-573,948	-47,074	-0,081	0,029
-572,934	-8,035	-0,141	0,069
-571,919	28,618	-0,091	0,056
-570,904	-28,099	-0,074	-0,031
-569,890	-200,000	-0,005	-0,076
-568,875	30,905	-0,067	0,042
-567,861	-200,000	-0,033	0,269
-566,846	800,000	0,022	0,063
-565,831	217,020	0,056	-0,066
-564,817	-169,138	0,016	-0,000
-563,802	-200,000	0,032	-0,147
-562,788	-103,378	0,072	0,012
-561,773	165,104	0,091	-0,094
-560,758	-46,653	-0,084	-0,030
-559,744	180,763	0,094	0,102
-558,729	171,533	-0,025	-0,027
-557,715	-200,000	0,003	-0,098
-556,700	-200,000	0,020	-0,093
-555,685	-200,000	-0,006	-0,060
-554,671	-200,000	-0,003	-0,045
-553,656	469,064	0,072	0,118
-552,642	-134,101	0,167	0,015
-551,627	495,004	-0,108	0,182
-550,612	800,000	0,019	0,055
-549,598	-30,778	0,105	-0,043
-548,583	-200,000	-0,007	0,059
-547,569	0,669	-0,121	0,063
-546,554	-200,000	-0,023	0,152
-545,539	-200,000	-0,002	-0,089
-544,525	-23,075	-0,062	0,027
-543,510	-200,000	0,010	0,037
-542,496	15,031	-0,030	-0,017
-541,481	-200,000	-0,033	0,109
-540,466	271,079	0,065	-0,084
-539,452	-200,000	0,017	0,128
-538,437	704,223	-0,059	0,114
-537,423	-30,582	0,063	0,026
-536,408	-102,768	-0,130	0,022
-535,393	87,275	-0,073	-0,059
-534,379	194,293	0,024	-0,026
-533,364	-44,344	-0,104	-0,038
-532,350	55,608	0,028	0,020
-531,335	262,802	0,086	0,110
-530,321	-25,617	-0,127	0,054
-529,306	683,798	0,048	0,092
-528,291	-88,983	-0,075	0,016
-527,277	-137,099	-0,122	0,010
-526,262	2,445	-0,038	-0,020
-525,248	669,589	0,087	-0,166
-524,233	173,172	-0,040	0,042
-523,218	-200,000	0,004	0,019
-522,204	800,000	-0,036	0,074
-521,189	-200,000	-0,023	-0,115
-520,175	10,544	-0,215	-0,119
-519,160	-82,348	-0,034	-0,008
-518,145	566,464	0,066	0,117
-517,131	19,345	0,029	-0,017
-516,116	366,393	-0,034	0,050
-515,102	174,208	0,056	0,059
-514,087	-21,461	-0,050	-0,022
-513,072	-200,000	-0,014	-0,089
-512,058	77,194	-0,091	-0,071
-511,043	800,000	0,014	0,030
-510,029	240,592	0,101	0,124
-509,014	310,995	-0,035	0,048
-507,999	380,459	-0,063	0,095
-506,985	-200,000	0,001	-0,014
-505,970	-85,215	-0,104	-0,024
-504,956	1,216	0,024	-0,013
-503,941	307,803	0,073	0,100
-502,926	-14,364	-0,074	0,035
-501,912	280,766	-0,039	0,051
-500,897	38,582	0,033	0,021
-499,883	66,954	0,145	0,108
-498,868	-103,346	-0,176	0,030
-497,853	-90,766	-0,100	0,021
-496,839	-200,000	0,041	-0,138
-495,824	-70,570	-0,074	0,020
-494,810	144,166	0,070	0,069
-493,795	547,349	-0,093	-0,163
-492,781	-146,435	-0,045	0,003
-491,766	-200,000	-0,037	0,126
-490,751	286,603	0,019	0,025
-489,737	-149,297	0,109	0,006
-488,722	-48,927	0,074	-0,026
-487,708	-48,023	0,018	-0,006
-486,693	205,193	0,024	0,028
-485,678	-200,000	-0,016	-0,078
-484,664	-54,167	-0,090	0,030
-483,649	800,000	-0,051	-0,123
-482,635	-51,596	0,094	0,032
-481,620	-200,000	-0,002	0,081
-480,605	800,000	0,022	0,045
-479,591	680,845	0,029	0,055
-478,576	800,000	0,025	0,053
-477,562	-63,852	0,028	-0,008
-476,547	-44,282	-0,128	-0,047
-475,532	-66,377	0,123	-0,036
-474,518	-176,278	-0,086	-0,002
-473,503	-200,000	-0,004	0,087
-472,489	-200,000	0,008	0,066
-471,474	-113,097	0,088	-0,013
-470,459	48,109	-0,060	0,041
-469,445	-146,622	0,045	-0,003
-468,430	48,027	0,071	-0,048
-467,416	-21,573	0,132	0,059
-466,401	-200,000	0,083	0,000
-465,386	-34,831	0,024	-0,010
-464,372	211,079	-0,051	-0,058
-463,357	562,911	0,029	-0,051
-462,343	256,660	-0,076	0,095
-461,328	-88,969	-0,054	-0,012
-460,313	800,000	0,019	0,044
-459,299	-132,130	0,139	0,013
-458,284	-39,401	0,025	-0,010
-457,270	800,000	-0,025	0,057
-456,255	-164,246	-0,078	-0,003
-455,241	209,109	0,139	-0,159
-454,226	33,187	-0,069	-0,044
-453,211	-200,000	-0,008	0,102
-452,197	800,000	0,041	0,101
-451,182	800,000	0,055	0,167
-450,168	267,397	0,086	0,110
-449,153	297,564	-0,116	-0,156
-448,138	26,968	0,052	-0,032
-447,124	-200,000	0,018	-0,108
-446,109	-115,030	-0,139	0,019
-445,095	-67,229	0,163	0,046
-444,080	315,623	0,074	-0,102
-443,065	-100,913	0,220	-0,039
-442,051	94,216	-0,076	0,062
-441,036	57,297	0,050	-0,035
-440,022	14,876	0,107	-0,061
-439,007	165,691	0,062	0,063
-437,992	-56,400	0,112	-0,036
-436,978	122,805	0,025	-0,022
-435,963	-3,236	0,046	-0,023
-434,949	52,824	-0,073	-0,051
-433,934	-81,474	0,051	-0,012
-432,919	-200,000	-0,001	-0,052
-431,905	800,000	-0,047	0,116
-430,890	800,000	0,077	0,229
-429,876	-200,000	-0,009	0,095
-428,861	-127,409	0,120	0,013
-427,846	800,000	0,012	-0,035
-426,832	-200,000	-0,009	-0,099
-425,817	345,269	-0,068	-0,097
-424,803	99,553	-0,148	-0,124
-423,788	295,275	-0,072	0,096
-422,773	167,669	0,123	0,127
-421,759	306,631	0,035	-0,048
-420,744	409,184	0,041	0,064
-419,730	128,676	0,138	-0,128
-418,715	-200,000	0,009	0,035
-417,701	800,000	-0,016	0,052
-416,686	353,372	-0,069	-0,100
-415,671	-200,000	0,011	0,110
-414,657	800,000	0,019	0,048
-413,642	800,000	-0,038	-0,085
-412,628	800,000	-0,068	-0,156
-411,613	593,581	0,050	0,090
-410,598	-200,000	-0,004	-0,123
-409,584	700,545	0,023	-0,045
-408,569	-81,839	0,191	0,045
-407,555	-40,319	-0,037	-0,014
-406,540	-128,821	0,073	0,007
-405,525	-200,000	0,015	-0,100
-404,511	23,574	-0,067	-0,040
-403,496	-192,005	0,081	0,001
-402,482	800,000	0,016	-0,033
-401,467	23,279	-0,037	0,022
-400,452	800,000	0,027	-0,085
-399,438	-200,000	0,022	0,070
-398,423	-33,278	-0,054	0,022
-397,409	409,478	-0,019	0,030
-396,394	-200,000	0,002	-0,028
-395,379	800,000	0,031	-0,086
-394,365	57,749	0,016	-0,012
-393,350	-200,000	-0,012	0,062
-392,336	158,546	-0,053	0,054
-391,321	800,000	0,017	-0,039
-390,306	-200,000	0,008	-0,055
-389,292	336,514	-0,074	-0,105
-388,277	-200,000	-0,007	-0,234
-387,263	97,898	0,121	0,101
-386,248	-83,355	0,191	0,044
-385,233	281,288	0,100	0,131
-384,219	-200,000	-0,005	0,084
-383,204	-200,000	-0,001	0,086
-382,190	-173,246	-0,090	-0,002
-381,175	26,092	-0,183	0,111
-380,160	800,000	0,037	0,084
-379,146	800,000	-0,029	-0,061
-378,131	-34,024	0,137	0,055
-377,117	122,369	-0,076	0,069
-376,102	800,000	-0,029	-0,070
-375,088	-92,763	-0,042	-0,008
-374,073	-38,283	0,069	0,027
-373,058	-27,582	0,067	0,028
-372,044	-200,000	0,003	0,139
-371,029	-93,698	-0,129	-0,026
-370,015	-6,285	0,037	-0,018
-369,000	99,684	0,100	-0,084
-367,985	140,400	-0,056	0,053
-366,971	-57,333	0,014	-0,004
-365,956	66,298	-0,041	-0,030
-364,942	-107,991	-0,090	0,014
-363,927	144,889	-0,023	0,022
-362,912	12,127	0,089	-0,050
-361,898	283,380	-0,081	0,106
-360,883	107,481	-0,069	0,060
-359,869	-11,305	-0,103	-0,049
-358,854	-64,994	-0,099	-0,029
-357,839	800,000	0,031	0,097
-356,825	222,986	0,050	-0,059
-355,810	-200,000	0,025	0,139
-354,796	136,820	-0,079	-0,075
-353,781	-28,504	0,115	-0,048
-352,766	-108,055	0,087	0,014
-351,752	126,252	-0,102	-0,094
-350,737	409,797	0,011	-0,017
-349,723	87,320	-0,040	-0,032
-348,708	-200,000	-0,029	-0,190
-347,693	230,288	0,018	0,021
-346,679	66,471	0,089	0,065
-345,664	154,678	0,105	-0,105
-344,650	-80,803	0,005	0,001
-343,635	-6,302	-0,092	0,046
-342,620	800,000	-0,021	-0,065
-341,606	-144,598	-0,047	0,003
-340,591	-38,342	0,061	-0,023
-339,577	-1,848	-0,032	-0,016
-338,562	-200,000	-0,031	0,164
-337,548	147,740	-0,065	0,064
-336,533	-111,112	-0,053	-0,008
-335,518	81,335	-0,125	-0,098
-334,504	-72,590	-0,019	-0,005
-333,489	-200,000	-0,010	-0,037
-332,475	-44,405	-0,102	-0,037
-331,460	-15,288	-0,078	-0,036
-330,445	542,217	0,022	0,039
-329,431	113,052	-0,025	-0,022
-328,416	-102,454	0,143	0,025
-327,402	-28,837	0,176	-0,073
-326,387	700,215	0,053	-0,102
-325,372	-200,000	-0,007	-0,079
-324,358	-200,000	0,011	-0,039
-323,343	1,807	-0,021	-0,011
-322,329	-68,408	0,052	0,014
-321,314	797,910	-0,026	0,052
-320,299	-7,747	0,079	0,039
-319,285	-124,049	-0,105	0,012
-318,270	74,850	0,063	-0,048
-317,256	-13,364	0,026	-0,012
-316,241	-86,114	-0,027	0,006
-315,226	-112,578	-0,145	0,021
-314,212	-32,995	0,149	-0,060
-313,197	87,163	-0,040	-0,032
-312,183	-200,000	-0,016	0,129
-311,168	-50,851	0,149	0,050
-310,153	26,083	-0,197	-0,119
-309,139	-200,000	-0,005	-0,022
-308,124	74,551	0,076	0,058
-307,110	365,742	0,052	0,075
-306,095	535,073	-0,043	-0,074
-305,080	670,678	0,097	-0,183
-304,066	158,930	0,059	-0,059
-303,051	194,316	-0,086	-0,094
-302,037	426,759	-0,109	-0,170
-301,022	25,618	-0,062	0,037
-300,008	-76,356	-0,044	-0,011
-298,993	-93,106	-0,050	0,010
-297,978	57,437	-0,015	-0,011
-296,964	-74,357	-0,087	-0,023
-295,949	-200,000	0,008	0,055
-294,935	-119,516	-0,038	-0,005
-293,920	-57,568	-0,168	0,053
-292,905	29,131	0,071	-0,044
-291,891	-95,604	0,017	0,003
-290,876	-200,000	0,002	0,019
-289,862	-47,603	0,206	0,072
-288,847	800,000	0,058	-0,157
-287,832	-200,000	0,012	-0,183
-286,818	76,179	-0,026	-0,020
-285,803	-61,604	0,034	0,010
-284,789	-16,906	0,122	-0,056
-283,774	-72,410	-0,056	0,015
-282,759	-200,000	-0,017	0,087
-281,745	-42,248	0,031	0,011
-280,730	183,861	0,098	0,105
-279,716	243,493	0,107	-0,131
-278,701	515,925	-0,079	0,133
-277,686	-25,524	0,094	0,040
-276,672	-200,000	-0,009	0,128
-275,657	-96,142	-0,038	0,007
-274,643	-200,000	0,040	-0,144
-273,628	100,078	-0,085	-0,072
-272,613	1,410	0,081	-0,042
-271,599	154,849	0,042	-0,042
-270,584	-34,001	0,046	-0,018
-269,570	-96,002	-0,057	-0,011
-268,555	-200,000	-0,016	0,108
-267,540	112,315	0,063	-0,055
-266,526	119,490	-0,056	-0,050
-265,511	16,199	-0,048	-0,027
-264,497	-200,000	-0,001	-0,052
-263,482	-200,000	0,015	0,072
-262,467	800,000	0,061	0,146
-261,453	-200,000	-0,017	0,078
-260,438	-34,327	0,078	-0,031
-259,424	-75,267	-0,257	-0,066
-258,409	229,982	0,086	-0,101
-257,395	800,000	0,037	0,076
-256,380	402,953	-0,017	-0,026
-255,365	-200,000	-0,013	0,076
-254,351	328,643	-0,052	0,073
-253,336	362,990	-0,047	0,069
-252,322	-172,829	0,083	0,002
-251,307	443,826	0,046	-0,073
-250,292	-200,000	0,001	0,153
-249,278	164,262	0,018	-0,018
-248,263	164,105	0,078	-0,079
-247,249	-200,000	-0,010	0,091
-246,234	-200,000	-0,006	0,025
-245,219	8,927	-0,137	-0,074
-244,205	-49,772	-0,039	0,013
-243,190	-200,000	-0,010	0,040
-242,176	-41,337	0,121	-0,045
-241,161	-200,000	-0,012	-0,166
-240,146	129,422	0,126	-0,116
-239,132	58,707	-0,134	0,095
-238,117	800,000	0,014	0,030
-237,103	-64,603	0,097	0,028
-236,088	17,683	0,067	-0,038
-235,073	384,850	0,021	-0,031
-234,059	180,871	0,074	0,078
-233,044	194,328	-0,031	-0,034
-232,030	75,848	0,127	0,097
-231,015	800,000	0,035	-0,086
-230,000	-100,465	0,124	0,022
-228,986	-53,946	0,059	-0,019
-227,971	-34,574	-0,158	-0,062
-226,957	364,103	0,026	0,038
-225,942	44,846	0,051	-0,034
-224,927	730,845	0,053	0,102
-223,913	-200,000	0,006	-0,056
-222,898	74,610	0,052	-0,039
-221,884	-200,000	-0,014	-0,088
-220,869	-200,000	0,008	0,061
-219,855	800,000	-0,071	0,149
-218,840	286,368	0,111	0,146
-217,825	269,801	0,070	0,089
-216,811	38,779	-0,119	-0,076
-215,796	-200,000	-0,013	-0,064
-214,782	203,424	0,074	0,083
-213,767	270,618	-0,089	0,113
-212,752	800,000	-0,012	0,037
-211,738	-51,777	0,026	0,009
-210,723	128,183	0,073	0,067
-209,709	546,308	-0,069	-0,120
-208,694	36,738	-0,100	0,064
-207,679	16,619	0,022	-0,012
-206,665	-82,219	-0,092	-0,021
-205,650	-200,000	0,016	0,075
-204,636	-200,000	0,010	0,131
-203,621	133,307	0,055	0,052
-202,606	223,171	-0,112	-0,130
-201,592	-200,000	-0,027	-0,139
-200,577	38,078	-0,021	0,014
-199,563	495,925	0,032	-0,053
-198,548	-200,000	0,050	0,000
-197,533	-16,356	-0,139	0,063
-196,519	-185,482	0,082	0,001
-195,504	258,072	-0,028	-0,035
-194,490	-131,656	-0,041	0,004
-193,475	531,204	-0,083	0,142
-192,460	-6,150	-0,050	0,024
-191,446	-200,000	0,002	-0,023
-190,431	108,672	-0,136	0,117
-189,417	-48,367	-0,071	-0,024
-188,402	-72,901	-0,035	-0,009
-187,387	-48,510	0,069	0,024
-186,373	-79,947	-0,030	-0,007
-185,358	-72,291	0,035	-0,009
-184,344	529,590	-0,030	0,052
-183,329	313,958	-0,020	-0,028
-182,315	303,911	-0,024	0,032
-181,300	58,451	-0,034	0,024
-180,285	-200,000	-0,040	-0,185
-179,271	-200,000	-0,002	-0,054
-178,256	340,190	-0,018	0,025
-177,242	543,751	0,065	0,113
-176,227	257,741	0,064	0,079
-175,212	114,684	-0,127	0,111
-174,198	800,000	-0,043	-0,087
-173,183	10,803	-0,065	0,036
-172,169	95,676	-0,048	-0,040
-171,154	-200,000	-0,023	-0,102
-170,139	323,065	0,036	0,050
-169,125	-200,000	-0,008	0,077
-168,110	-200,000	0,012	0,088
-167,096	435,916	-0,085	0,134
-166,081	68,436	0,003	-0,002
-165,066	1,001	-0,051	-0,026
-164,052	-200,000	0,042	-0,229
-163,037	125,313	0,086	-0,078
-162,023	800,000	0,026	0,070
-161,008	800,000	0,034	0,077
-159,993	-200,000	-0,001	0,049
-158,979	-200,000	0,002	0,135
-157,964	-68,078	0,105	0,029
-156,950	178,233	-0,060	-0,063
-155,935	6,344	0,068	-0,036
-154,920	39,305	-0,078	0,051
-153,906	401,947	0,065	0,098
-152,891	800,000	0,021	-0,045
-151,877	662,494	-0,074	0,137
-150,862	-83,199	0,031	0,007
-149,847	518,703	-0,027	-0,046
-148,833	-200,000	-0,011	0,151
-147,818	35,051	0,052	0,033
-146,804	-200,000	-0,003	0,119
-145,789	191,083	0,054	0,059
-144,775	-158,374	-0,076	0,003
-143,760	800,000	-0,060	-0,128
-142,745	528,354	-0,051	-0,086
-141,731	67,211	0,145	-0,106
-140,716	-200,000	-0,005	0,024
-139,702	800,000	-0,011	0,032
-138,687	334,994	-0,074	0,104
-137,672	123,798	0,077	-0,070
-136,658	-52,172	-0,029	0,010
-135,643	-200,000	-0,014	0,115
-134,629	14,733	0,109	-0,061
-133,614	83,186	-0,031	-0,024
-132,599	433,096	0,042	0,066
-131,585	800,000	-0,069	0,156
-130,570	518,688	-0,041	-0,069
-129,556	-72,588	-0,134	-0,035
-128,541	-200,000	0,007	-0,075
-127,526	-200,000	0,006	0,115
-126,512	-200,000	-0,008	0,056
-125,497	-200,000	0,028	0,138
-124,483	-200,000	-0,010	-0,090
-123,468	31,932	-0,035	-0,022
-122,453	800,000	0,027	0,058
-121,439	-200,000	-0,019	0,117
-120,424	800,000	-0,028	0,059
-119,410	800,000	-0,015	0,032
-118,395	-200,000	-0,006	-0,047
-117,380	800,000	0,019	-0,045
-116,366	-94,220	-0,087	-0,017
-115,351	136,730	-0,087	-0,082
-114,337	-118,450	-0,137	-0,017
-113,322	-200,000	-0,011	-0,096
-112,307	-107,585	0,088	0,014
-111,293	-7,365	0,074	-0,036
-110,278	-184,990	0,039	0,000
-109,264	421,652	0,035	0,054
-108,249	800,000	-0,020	-0,048
-107,234	-0,202	-0,141	0,072
-106,220	16,083	-0,116	0,066
-105,205	-35,687	0,098	0,038
-104,191	141,925	0,019	0,018
-103,176	558,912	0,064	-0,111
-102,162	39,060	-0,084	-0,054
-101,147	-200,000	-0,005	-0,032
-100,132	314,671	0,004	0,005
-99,118	431,077	0,051	-0,080
-98,103	-200,000	0,019	0,078
-97,089	-59,655	0,261	0,080
-96,074	377,999	-0,044	-0,064
-95,059	25,275	0,018	-0,011
-94,045	-200,000	0,032	-0,134
-93,030	-200,000	0,038	0,136
-92,016	-200,000	0,021	-0,149
-91,001	-121,184	-0,062	-0,007
-89,986	-200,000	0,018	0,081
-88,972	206,530	-0,063	-0,071
-87,957	14,340	0,129	0,072
-86,943	-46,906	-0,077	0,027
-85,928	-119,641	-0,081	0,010
-84,913	-200,000	-0,032	0,132
-83,899	800,000	0,019	-0,057
-82,884	-200,000	-0,002	-0,025
-81,870	342,884	-0,052	0,073
-80,855	-200,000	0,007	0,154
-79,840	-200,000	0,017	0,085
-78,826	-60,030	0,122	0,037
-77,811	-125,120	-0,144	-0,016
-76,797	138,040	0,083	0,078
-75,782	222,491	0,076	-0,088
-74,767	-123,807	-0,045	0,005
-73,753	-19,106	-0,066	0,029
-72,738	800,000	0,034	-0,090
-71,724	744,833	-0,025	-0,049
-70,709	-200,000	0,021	0,093
-69,694	-200,000	0,036	-0,237
-68,680	800,000	-0,057	0,126
-67,665	-30,027	0,032	-0,013
-66,651	-200,000	0,018	0,072
-65,636	689,023	0,025	0,047
-64,622	-11,988	0,069	-0,032
-63,607	-39,389	-0,082	-0,031
-62,592	155,961	-0,092	0,091
-61,578	-8,509	0,098	0,047
-60,563	-25,033	0,167	0,071
-59,549	137,059	-0,089	0,084
-58,534	-9,345	-2,001	-0,956
-57,519	-200,000	-0,215	-0,883
-56,505	-200,000	-1,350	-5,093
-55,490	30,583	0,672	0,412
-54,476	800,000	5,391	12,191
-53,461	-200,000	17,697	287,148
-52,446	800,000	728,991	2225,153
-51,432	536,740	1644,753	2813,399
-50,417	109,875	1635,110	1407,138
-49,403	75,850	1287,149	975,481
-48,388	31,963	1027,399	633,812
-47,373	20,144	989,320	571,356
-46,359	18,363	976,970	558,366
-45,344	15,469	973,107	546,668
-44,330	15,699	971,691	546,603
-43,315	15,177	969,718	543,768
-42,300	15,094	968,707	542,909
-41,286	15,137	967,500	542,350
-40,271	15,107	966,617	541,738
-39,257	15,152	965,680	541,336
-38,242	15,164	964,840	540,882
-37,227	15,188	963,989	540,462
-36,213	15,151	962,934	539,729
-35,198	15,113	962,340	539,251
-34,184	15,213	961,562	539,120
-33,169	15,169	960,514	538,368
-32,154	15,166	959,556	537,798
-31,140	15,171	958,602	537,260
-30,125	15,173	958,053	536,937
-29,111	15,172	957,271	536,475
-28,096	15,224	956,543	536,213
-27,082	15,186	955,833	535,670
-26,067	15,187	955,045	535,212
-25,052	15,124	954,392	534,622
-24,038	15,179	953,750	534,418
-23,023	15,182	953,074	534,028
-22,009	15,214	952,367	533,710
-20,994	15,187	951,810	533,293
-19,979	15,185	951,077	532,852
-18,965	15,183	950,549	532,529
-17,950	15,138	950,000	532,057
-16,936	15,084	949,244	531,439
-15,921	15,098	948,649	531,131
-14,906	15,014	947,905	530,424
-13,892	15,065	947,140	530,141
-12,877	15,025	946,706	529,748
-11,863	15,039	945,913	529,327
-10,848	15,014	945,567	529,032
-9,833	15,140	944,829	529,001
-8,819	15,114	944,250	528,572
-7,804	15,056	943,647	528,031
-6,790	15,102	943,003	527,794
-5,775	15,048	942,634	527,396
-4,760	15,078	941,973	527,100
-3,746	15,080	941,222	526,664
-2,731	14,957	940,497	525,849
-1,717	14,936	939,769	525,355
-0,702	14,895	939,167	524,868
0,313	14,687	938,733	524,763
1,327	18,082	936,371	534,084
2,342	27,274	793,271	476,783
3,356	23,957	458,541	270,508
4,371	-3,580	314,609	156,314
5,386	-7,661	296,421	143,131
6,400	-9,523	290,149	138,242
7,415	-9,980	287,942	136,728
8,429	-10,015	286,262	135,883
9,444	-10,296	285,488	135,229
10,459	-10,232	284,827	134,967
11,473	-9,988	284,155	134,874
12,488	-10,196	283,685	134,436
13,502	-10,197	283,181	134,185
14,517	-10,115	282,697	134,023
15,531	-10,198	282,247	133,717
16,546	-9,968	281,744	133,689
17,561	-10,098	281,386	133,382
18,575	-10,104	281,199	133,276
19,590	-10,124	280,615	132,968
20,604	-10,066	280,484	132,950
21,619	-10,135	280,127	132,702
22,634	-10,026	279,815	132,647
23,648	-10,147	279,501	132,371
24,663	-9,991	279,130	132,332
25,677	-10,063	278,896	132,141
26,692	-10,310	278,743	131,821
27,707	-10,010	278,311	131,890
28,721	-10,213	278,101	131,586
29,736	-10,248	277,895	131,444
30,750	-10,311	277,627	131,245
31,765	-10,110	277,497	131,363
32,780	-10,295	277,165	131,019
33,794	-9,959	276,803	131,154
34,809	-10,034	276,521	130,937
35,823	-10,186	276,301	130,678
36,838	-10,135	276,083	130,611
37,853	-10,221	275,815	130,392
38,867	-10,181	275,623	130,327
39,882	-9,984	275,369	130,381
40,896	-10,334	275,233	129,976
41,911	-10,123	274,810	129,963
42,926	-10,313	274,565	129,657
43,940	-10,268	274,333	129,578
44,955	-10,197	274,010	129,480
45,969	-10,235	273,836	129,351
46,984	-10,476	273,598	129,002
47,999	-10,640	273,313	128,704
49,013	-10,703	272,960	128,467
50,028	-10,848	272,767	128,230
51,042	-10,895	272,691	128,140
52,057	-10,817	272,270	128,002
53,071	-10,621	272,061	128,074
54,086	-10,599	271,777	127,950
55,101	-10,601	271,661	127,882
56,115	-10,438	271,560	127,973
57,130	-10,308	271,641	128,121
58,144	-10,112	271,106	128,038
59,159	-10,006	270,928	128,040
60,174	-9,963	270,779	127,999
61,188	-9,952	270,602	127,914
62,203	-10,137	270,490	127,679
63,217	-9,965	270,012	127,600
64,232	-10,074	269,882	127,427
65,247	-9,888	269,667	127,484
66,261	-9,965	269,413	127,283
67,276	-10,185	269,262	126,998
68,290	-10,508	269,014	126,574
69,305	-10,304	268,608	126,559
70,320	-10,410	268,590	126,442
71,334	-10,051	268,282	126,614
72,349	-10,053	268,012	126,473
73,363	-9,960	267,817	126,454
74,378	-10,139	267,585	126,170
75,393	-9,913	267,526	126,337
76,407	-10,225	267,400	125,983
77,422	-10,032	267,055	125,984
78,436	-10,008	266,738	125,845
79,451	-10,017	266,602	125,761
80,466	-10,046	266,256	125,560
81,480	-10,062	265,993	125,411
82,495	-10,110	265,880	125,304
83,509	-10,193	265,707	125,136
84,524	-10,135	265,452	125,057
85,539	-10,293	265,283	124,824
86,553	-10,096	264,940	124,828
87,568	-10,338	264,861	124,562
88,582	-10,150	264,608	124,601
89,597	-10,241	264,495	124,454
90,611	-10,161	264,439	124,490
91,626	-10,030	264,147	124,458
92,641	-10,027	263,962	124,363
93,655	-10,142	263,664	124,109
94,670	-10,224	263,639	124,013
95,684	-10,083	263,179	123,911
96,699	-10,094	263,125	123,865
97,714	-10,185	262,834	123,635
98,728	-10,328	262,754	123,459
99,743	-10,250	262,419	123,360
100,757	-10,255	262,105	123,197
101,772	-10,278	262,136	123,180
102,787	-10,173	261,749	123,080
103,801	-10,059	261,687	123,142
104,816	-9,992	261,586	123,142
105,830	-10,081	261,446	122,987
106,845	-9,961	261,106	122,922
107,860	-9,958	260,988	122,858
108,874	-10,027	260,737	122,668
109,889	-10,094	260,434	122,455
110,903	-10,210	260,418	122,335
111,918	-10,083	259,911	122,197
112,933	-10,089	259,863	122,158
113,947	-10,177	259,773	122,028
114,962	-10,100	259,558	121,984
115,976	-10,186	259,390	121,818
116,991	-10,110	259,154	121,763
118,006	-10,105	259,029	121,699
119,020	-9,963	258,984	121,791
120,035	-10,016	258,708	121,603
121,049	-9,953	258,567	121,582
122,064	-10,123	258,508	121,394
123,079	-10,100	258,075	121,200
124,093	-10,074	257,921	121,139
125,108	-10,257	257,670	120,852
126,122	-10,520	257,475	120,520
127,137	-10,479	257,255	120,442
128,151	-10,496	257,072	120,331
129,166	-10,540	256,930	120,215
130,181	-10,193	256,563	120,334
131,195	-10,342	256,559	120,192
132,210	-10,189	256,227	120,158
133,224	-10,150	256,270	120,201
134,239	-10,012	256,001	120,184
135,254	-10,051	255,857	120,072
136,268	-10,181	255,434	119,750
137,283	-10,365	255,213	119,478
138,297	-10,399	255,124	119,396
139,312	-10,435	254,865	119,233
140,327	-10,198	254,777	119,385
141,341	-9,962	254,652	119,520
142,356	-9,893	254,338	119,421
143,370	-9,852	254,207	119,384
144,385	-9,861	254,229	119,375
145,400	-9,768	254,022	119,348
146,414	-9,860	253,813	119,160
147,429	-10,020	253,615	118,920
148,443	-9,857	253,390	118,943
149,458	-9,966	253,288	118,791
150,473	-10,058	253,217	118,669
151,487	-9,923	252,826	118,590
152,502	-9,923	252,639	118,491
153,516	-9,854	252,464	118,458
154,531	-9,889	252,379	118,378
155,546	-9,814	252,004	118,255
156,560	-9,877	252,117	118,244
157,575	-10,000	251,729	117,947
158,589	-10,030	251,465	117,787
159,604	-10,007	251,383	117,758
160,619	-9,837	251,222	117,817
161,633	-9,991	250,942	117,544
162,648	-9,713	251,006	117,799
163,662	-10,093	250,860	117,398
164,677	-10,031	250,716	117,373
165,692	-9,755	250,387	117,441
166,706	-9,920	250,289	117,245
167,721	-9,868	250,093	117,187
168,735	-9,665	249,843	117,231
169,750	-9,882	249,654	116,949
170,764	-9,759	249,659	117,044
171,779	-9,913	249,524	116,841
172,794	-9,903	249,276	116,723
173,808	-9,725	249,012	116,738
174,823	-10,136	248,768	116,269
175,837	-10,320	248,593	116,022
176,852	-10,227	248,670	116,126
177,867	-10,037	248,417	116,156
178,881	-9,764	248,270	116,306
179,896	-9,807	247,994	116,131
180,910	-9,718	247,877	116,140
181,925	-9,841	247,579	115,886
182,940	-9,954	247,555	115,771
183,954	-9,857	247,358	115,749
184,969	-9,852	247,152	115,646
185,983	-9,606	246,933	115,739
186,998	-9,751	246,769	115,531
188,013	-9,893	246,764	115,400
189,027	-9,717	246,504	115,414
190,042	-9,918	246,470	115,221
191,056	-9,914	246,241	115,108
192,071	-9,810	245,959	115,051
193,086	-9,696	245,800	115,062
194,100	-9,681	245,530	114,937
195,115	-9,692	245,341	114,829
196,129	-9,587	245,184	114,832
197,144	-9,754	245,102	114,646
198,159	-9,947	244,908	114,385
199,173	-9,953	244,738	114,291
200,188	-9,994	244,432	114,104
201,202	-10,129	244,302	113,922
202,217	-10,257	244,069	113,699
203,232	-10,247	243,784	113,564
204,246	-9,867	243,750	113,849
205,261	-9,454	243,552	114,085
206,275	-10,627	243,227	112,963
207,290	-7,203	244,713	116,459
208,304	-0,128	246,974	123,383
209,319	3,328	247,697	126,593
210,334	3,850	247,727	127,030
211,348	3,968	247,773	127,139
212,363	4,370	247,514	127,327
213,377	4,272	247,515	127,235
214,392	4,320	247,200	127,101
215,407	4,323	247,021	127,000
216,421	3,999	247,001	126,712
217,436	4,372	246,804	126,906
218,450	4,417	246,700	126,879
219,465	4,057	246,457	126,447
220,480	4,039	246,171	126,274
221,494	3,904	246,034	126,082
222,509	4,053	245,903	126,125
223,523	4,021	245,684	125,975
224,538	3,604	245,408	125,482
225,553	3,393	245,384	125,286
226,567	3,742	245,108	125,419
227,582	3,776	245,022	125,391
228,596	3,891	244,849	125,385
229,611	3,548	244,586	124,960
230,626	3,412	244,463	124,775
231,640	3,550	244,328	124,807
232,655	3,676	244,253	124,861
233,669	3,577	244,057	124,669
234,684	3,520	243,878	124,520
235,699	3,891	243,773	124,756
236,713	4,064	243,599	124,796
237,728	3,787	243,296	124,406
238,742	3,393	243,148	124,000
239,757	3,502	242,929	123,966
240,772	3,573	243,052	124,075
241,786	3,736	242,776	124,054
242,801	3,554	242,684	123,850
243,815	3,378	242,399	123,551
244,830	3,742	242,350	123,808
245,844	3,774	242,230	123,762
246,859	3,683	241,891	123,504
247,874	3,402	241,817	123,229
248,888	3,323	241,757	123,125
249,903	3,771	241,594	123,391
250,917	3,847	241,445	123,365
251,932	4,046	241,252	123,415
252,947	3,725	241,168	123,103
253,961	3,506	240,770	122,714
254,976	3,725	240,926	122,958
255,990	3,967	240,611	122,979
257,005	3,493	240,295	122,429
258,020	3,457	240,168	122,324
259,034	3,543	240,106	122,350
260,049	3,796	239,971	122,472
261,063	3,619	239,679	122,171
262,078	3,663	239,574	122,142
263,093	3,625	239,608	122,118
264,107	3,926	239,359	122,220
265,122	3,682	239,182	121,925
266,136	3,585	239,106	121,798
267,151	3,890	238,897	121,922
268,166	3,694	238,669	121,640
269,180	3,498	238,580	121,428
270,195	4,132	238,562	121,911
271,209	4,085	238,515	121,838
272,224	3,818	238,039	121,373
273,239	3,512	237,805	121,002
274,253	3,500	237,744	120,950
275,268	3,518	237,754	120,959
276,282	3,837	237,483	121,061
277,297	3,467	237,205	120,618
278,312	3,498	237,225	120,642
279,326	3,762	237,139	120,795
280,341	3,720	236,964	120,662
281,355	3,493	236,744	120,361
282,370	3,669	236,742	120,487
283,384	3,555	236,478	120,253
284,399	3,359	236,351	120,024
285,414	3,297	236,162	119,869
286,428	3,592	236,037	120,026
287,443	3,458	235,845	119,813
288,457	3,807	235,603	119,951
289,472	3,809	235,642	119,962
290,487	3,688	235,433	119,751
291,501	3,647	235,232	119,605
292,516	3,424	235,060	119,334
293,530	3,597	234,889	119,371
294,545	3,843	234,922	119,569
295,560	3,663	234,617	119,263
296,574	3,457	234,339	118,951
297,589	3,496	234,251	118,926
298,603	3,830	234,367	119,233
299,618	3,884	234,120	119,139
300,633	3,629	234,080	118,910
301,647	4,039	233,915	119,133
302,662	4,048	233,814	119,078
303,676	4,218	233,626	119,104
304,691	3,969	233,403	118,787
305,706	4,044	233,355	118,810
306,720	3,876	233,215	118,598
307,735	4,015	232,927	118,548
308,749	3,559	232,857	118,151
309,764	3,581	232,591	118,022
310,779	3,672	232,299	117,934
311,793	3,430	232,154	117,664
312,808	3,498	232,122	117,689
313,822	3,408	231,820	117,456
314,837	3,313	231,850	117,388
315,852	3,342	231,583	117,265
316,866	3,761	231,631	117,600
317,881	3,749	231,393	117,459
318,895	3,920	231,327	117,546
319,910	4,226	231,130	117,669
320,925	3,756	230,880	117,173
321,939	3,386	230,778	116,829
322,954	3,201	230,677	116,626
323,968	3,497	230,472	116,737
324,983	3,791	230,484	116,957
325,997	3,931	230,380	117,000
327,012	3,861	229,982	116,734
328,027	3,641	229,785	116,457
329,041	3,396	229,772	116,254
330,056	4,077	229,946	116,848
331,070	4,639	229,743	117,161
332,085	4,248	229,463	116,712
333,100	4,039	229,103	116,360
334,114	3,832	229,166	116,225
335,129	3,851	229,029	116,160
336,143	4,198	228,838	116,315
337,158	4,062	228,742	116,153
338,173	3,775	228,583	115,845
339,187	3,806	228,388	115,760
340,202	3,884	228,359	115,793
341,216	3,951	228,092	115,698
342,231	3,753	227,902	115,442
343,246	3,980	227,754	115,527
344,260	3,933	227,721	115,465
345,275	4,114	227,695	115,578
346,289	4,111	227,542	115,487
347,304	4,336	227,171	115,457
348,319	4,190	227,182	115,343
349,333	4,046	227,102	115,185
350,348	3,831	226,796	114,859
351,362	4,093	226,590	114,940
352,377	3,528	226,514	114,469
353,392	3,654	226,308	114,449
354,406	3,632	226,174	114,354
355,421	194,281	1323,971	1396,756
356,435	155,673	1457,705	1396,741
