DTS Sentinel unit serial number:	SN410029Multiplexer serial number:	ORYXHardware model number:	OX2-SRSoftware version number:	ORYX F/W v4,00 Oryx Data Collector v3.7.2.0data status	okinstallation	B5 Nyhavnadifferential loss correction	single-endedforward channel	channel 2reverse channel	N/Adate	2023/12/13time	23:37:14forward acquisition time	300,00reverse acquisition time	0,00gamma	499,1914k internal	0,3154k external	0,3154temperature offset calibration	1,0000default loss term (dB/km)	0,3820temperature slope calibration	1,0000multiplexer offset coefficient	1,0000multiplexer slope coefficient	1,0000fibre end	0,00T internal ref (°C)	8,84T ext. ref 1 (°C)	-7,54T ext. ref 2 (°C)	-7,56length (m)	temperature (°C)	Stokes	anti-Stokes-744,400	582,970	0,075	0,137
-743,385	-4,966	-0,328	-0,166
-742,371	222,198	0,142	0,169
-741,356	-86,570	-0,388	-0,087
-740,342	-66,897	0,208	0,060
-739,327	-73,054	-0,405	-0,109
-738,312	-63,738	0,135	0,040
-737,298	-27,391	-0,273	-0,117
-736,283	-99,320	0,179	0,033
-735,269	-38,715	-0,337	-0,130
-734,254	-82,778	0,301	0,071
-733,239	-69,303	-0,484	-0,136
-732,225	263,887	0,160	0,206
-731,210	-200,000	0,000	0,200
-730,196	-170,520	-0,143	0,004
-729,181	-72,540	0,088	-0,024
-728,167	-200,000	-0,056	-0,219
-727,152	800,000	-0,026	0,054
-726,137	-200,000	0,002	-0,039
-725,123	-7,068	-0,123	0,061
-724,108	-0,759	-0,093	-0,049
-723,094	-91,879	-0,192	-0,040
-722,079	-200,000	-0,025	-0,132
-721,064	-200,000	0,025	-0,129
-720,050	-119,700	-0,175	0,022
-719,035	221,235	-0,044	-0,052
-718,021	-200,000	-0,003	0,063
-717,006	-35,958	-0,172	-0,068
-715,991	21,567	-0,104	-0,062
-714,977	-50,122	0,078	-0,027
-713,962	-51,036	-0,112	-0,039
-712,948	-146,531	0,143	-0,009
-711,933	211,973	-0,074	0,086
-710,918	217,089	-0,065	-0,076
-709,904	324,310	-0,025	0,036
-708,889	608,177	0,028	-0,052
-707,875	-142,277	0,067	0,005
-706,860	-52,870	0,090	0,031
-705,845	-80,946	0,059	0,014
-704,831	39,992	0,081	-0,054
-703,816	-129,115	0,112	-0,011
-702,802	747,878	-0,024	-0,049
-701,787	-163,401	-0,098	0,003
-700,772	450,077	0,050	-0,082
-699,758	800,000	-0,018	0,038
-698,743	800,000	0,013	0,036
-697,729	800,000	-0,018	0,051
-696,714	-200,000	0,034	-0,117
-695,699	-200,000	0,018	-0,078
-694,685	390,449	-0,067	-0,102
-693,670	95,543	0,040	0,033
-692,656	-108,138	-0,054	-0,008
-691,641	773,933	0,054	0,110
-690,627	800,000	0,041	0,086
-689,612	-200,000	0,018	0,155
-688,597	52,974	-0,146	0,103
-687,583	302,289	0,085	0,116
-686,568	-52,897	0,038	-0,013
-685,554	27,127	-0,033	0,021
-684,539	800,000	-0,043	-0,126
-683,524	-200,000	0,027	0,092
-682,510	92,353	-0,025	0,021
-681,495	-200,000	-0,007	-0,056
-680,481	26,992	-0,174	-0,107
-679,466	651,448	-0,054	-0,102
-678,451	627,984	-0,022	0,041
-677,437	-105,690	0,075	0,012
-676,422	324,577	-0,037	-0,052
-675,408	-200,000	-0,038	-0,151
-674,393	64,877	-0,097	0,072
-673,378	-100,101	-0,010	-0,002
-672,364	29,786	-0,053	-0,033
-671,349	-200,000	0,042	-0,215
-670,335	144,462	0,051	-0,050
-669,320	-169,885	-0,126	0,003
-668,305	-200,000	-0,013	-0,061
-667,291	38,377	-0,012	-0,008
-666,276	225,553	-0,063	-0,075
-665,262	531,941	0,045	0,079
-664,247	-32,783	0,182	0,074
-663,232	129,748	-0,029	0,027
-662,218	-200,000	-0,056	-0,186
-661,203	-200,000	0,001	0,096
-660,189	-69,769	0,126	0,035
-659,174	-186,776	0,143	0,001
-658,159	800,000	0,019	-0,048
-657,145	0,747	-0,118	-0,062
-656,130	-200,000	0,014	-0,129
-655,116	141,402	0,121	-0,118
-654,101	255,342	0,040	0,050
-653,086	-16,033	0,051	-0,024
-652,072	-18,208	-0,147	-0,068
-651,057	-37,676	0,060	0,023
-650,043	-99,916	0,140	-0,026
-649,028	-50,581	0,063	0,022
-648,014	-200,000	-0,022	0,116
-646,999	-200,000	0,016	-0,167
-645,984	327,841	0,058	-0,081
-644,970	747,854	-0,030	-0,060
-643,955	-200,000	-0,020	-0,150
-642,941	406,071	-0,076	0,119
-641,926	-138,585	0,089	-0,007
-640,911	-102,719	0,117	-0,020
-639,897	-200,000	-0,012	-0,062
-638,882	-200,000	0,006	0,078
-637,868	425,181	0,011	0,018
-636,853	800,000	-0,032	-0,082
-635,838	-110,605	0,089	-0,013
-634,824	-104,129	-0,106	-0,018
-633,809	800,000	0,039	-0,128
-632,795	-200,000	-0,004	0,053
-631,780	-102,498	-0,057	0,010
-630,765	106,297	-0,095	-0,082
-629,751	5,578	-0,177	-0,096
-628,736	-57,854	0,050	-0,016
-627,722	-200,000	-0,024	-0,112
-626,707	-33,698	0,094	0,038
-625,692	800,000	-0,016	-0,032
-624,678	-12,166	-0,033	-0,016
-623,663	11,315	0,109	0,061
-622,649	-145,844	-0,042	0,003
-621,634	-200,000	0,002	0,031
-620,619	-200,000	-0,043	-0,159
-619,605	-200,000	0,028	-0,092
-618,590	59,519	-0,044	0,032
-617,576	300,771	0,036	-0,048
-616,561	-3,186	-0,086	0,044
-615,546	-108,667	-0,149	0,023
-614,532	-200,000	-0,001	-0,044
-613,517	-200,000	0,007	0,175
-612,503	-50,926	0,056	0,019
-611,488	477,588	-0,032	-0,053
-610,474	-23,601	-0,121	0,053
-609,459	-156,337	-0,126	0,006
-608,444	-59,710	-0,097	-0,030
-607,430	-200,000	0,033	0,126
-606,415	76,179	-0,068	-0,053
-605,401	10,565	0,083	-0,047
-604,386	143,121	-0,028	0,027
-603,371	-32,475	-0,087	0,035
-602,357	-73,042	-0,167	0,045
-601,342	-200,000	-0,005	-0,027
-600,328	-49,852	-0,063	-0,022
-599,313	353,264	-0,115	0,168
-598,298	214,051	-0,057	0,066
-597,284	-73,197	-0,050	-0,013
-596,269	38,512	-0,054	0,035
-595,255	800,000	0,013	0,034
-594,240	-200,000	-0,005	-0,031
-593,225	131,950	-0,073	-0,069
-592,211	-200,000	0,015	-0,116
-591,196	59,914	0,027	0,020
-590,182	-200,000	0,042	-0,137
-589,167	800,000	0,044	0,121
-588,152	169,475	-0,054	0,056
-587,138	-200,000	-0,002	-0,020
-586,123	-165,288	-0,137	0,004
-585,109	-63,768	-0,253	-0,075
-584,094	-200,000	-0,004	-0,064
-583,079	-200,000	0,002	0,094
-582,065	-41,874	0,034	0,013
-581,050	-134,457	0,087	0,008
-580,036	-150,608	0,009	-0,001
-579,021	-200,000	0,002	0,051
-578,006	370,006	-0,027	-0,040
-576,992	97,258	-0,072	-0,061
-575,977	-38,401	-0,128	-0,050
-574,963	80,459	0,037	-0,029
-573,948	800,000	-0,026	-0,062
-572,934	-200,000	0,008	-0,053
-571,919	-29,902	-0,047	0,019
-570,904	35,627	0,072	-0,047
-569,890	88,815	0,065	0,053
-568,875	800,000	0,048	0,124
-567,861	239,761	0,085	0,104
-566,846	-200,000	-0,028	0,119
-565,831	45,155	0,061	0,041
-564,817	337,223	0,053	0,076
-563,802	41,492	0,093	-0,061
-562,788	236,116	0,052	0,063
-561,773	-200,000	-0,038	0,126
-560,758	-200,000	-0,035	0,156
-559,744	256,140	-0,055	-0,069
-558,729	-200,000	0,009	0,048
-557,715	-42,526	-0,095	0,035
-556,700	-30,208	-0,047	-0,020
-555,685	-25,102	0,039	-0,017
-554,671	75,331	0,058	0,045
-553,656	72,992	0,069	0,053
-552,642	-200,000	0,001	0,037
-551,627	320,640	0,059	0,083
-550,612	208,035	-0,034	-0,039
-549,598	-200,000	-0,006	-0,089
-548,583	62,046	0,039	-0,029
-547,569	-141,418	0,114	0,008
-546,554	26,616	0,043	-0,027
-545,539	-145,951	0,147	-0,009
-544,525	295,153	0,044	-0,059
-543,510	-16,688	-0,043	-0,020
-542,496	800,000	0,044	-0,113
-541,481	116,742	0,051	-0,046
-540,466	800,000	0,037	-0,103
-539,452	202,012	-0,012	0,013
-538,437	30,623	0,103	0,064
-537,423	132,255	-0,069	0,065
-536,408	96,866	0,037	-0,031
-535,393	82,093	-0,178	-0,141
-534,379	604,520	0,059	-0,108
-533,364	90,131	-0,166	-0,136
-532,350	-16,268	-0,067	-0,031
-531,335	-12,085	0,169	0,081
-530,321	-193,968	0,029	0,000
-529,306	-54,929	-0,082	-0,027
-528,291	241,107	-0,087	-0,106
-527,277	-61,653	0,078	0,024
-526,262	8,202	-0,092	-0,051
-525,248	172,238	-0,038	-0,040
-524,233	29,594	0,071	-0,044
-523,218	800,000	-0,054	-0,121
-522,204	490,528	0,047	-0,079
-521,189	-46,008	-0,050	-0,018
-520,175	-76,658	-0,079	0,020
-519,160	800,000	-0,023	0,068
-518,145	-200,000	0,001	0,169
-517,131	317,819	0,048	0,066
-516,116	-200,000	0,008	0,132
-515,102	57,452	-0,058	0,041
-514,087	119,004	0,072	-0,065
-513,072	250,946	0,016	-0,020
-512,058	-200,000	-0,012	-0,128
-511,043	507,003	0,088	-0,150
-510,029	-52,839	0,096	0,032
-509,014	43,650	0,058	0,039
-507,999	8,631	-0,102	-0,056
-506,985	30,107	0,131	0,082
-505,970	-200,000	0,004	-0,041
-504,956	248,929	0,067	-0,083
-503,941	-119,454	-0,084	-0,011
-502,926	176,206	0,091	-0,096
-501,912	81,870	0,025	0,020
-500,897	408,877	0,072	-0,111
-499,883	737,800	0,076	-0,150
-498,868	102,986	0,060	-0,051
-497,853	30,503	-0,179	-0,112
-496,839	262,971	-0,026	-0,033
-495,824	-200,000	0,006	-0,039
-494,810	800,000	-0,042	0,102
-493,795	-48,930	0,030	0,010
-492,781	-20,563	-0,026	-0,012
-491,766	364,359	0,079	-0,116
-490,751	448,566	-0,102	-0,165
-489,737	800,000	0,004	0,013
-488,722	389,112	0,064	-0,098
-487,708	-200,000	0,020	0,077
-486,693	-13,719	-0,096	0,045
-485,678	21,000	-0,081	0,048
-484,664	-200,000	-0,032	0,137
-483,649	-200,000	-0,021	-0,168
-482,635	112,795	-0,053	0,047
-481,620	800,000	-0,021	0,046
-480,605	249,553	-0,051	-0,064
-479,591	-200,000	0,014	-0,053
-478,576	106,132	-0,052	0,045
-477,562	501,183	-0,065	-0,109
-476,547	12,966	-0,148	-0,084
-475,532	34,008	0,114	-0,072
-474,518	-53,343	0,113	-0,038
-473,503	-80,205	-0,060	0,015
-472,489	-68,676	0,024	0,007
-471,474	-200,000	-0,024	0,081
-470,459	416,941	0,064	-0,100
-469,445	-200,000	-0,003	0,103
-468,430	397,317	-0,038	-0,058
-467,416	96,550	-0,080	0,067
-466,401	800,000	0,047	-0,108
-465,386	-200,000	-0,002	0,024
-464,372	-0,208	-0,139	0,072
-463,357	168,103	-0,075	-0,078
-462,343	-200,000	0,017	-0,121
-461,328	-200,000	0,023	-0,166
-460,313	401,368	-0,022	-0,033
-459,299	-200,000	-0,007	0,056
-458,284	-200,000	-0,014	-0,061
-457,270	312,850	-0,103	-0,141
-456,255	-154,540	-0,112	-0,005
-455,241	-200,000	-0,002	-0,016
-454,226	20,086	0,027	-0,016
-453,211	131,563	0,065	-0,061
-452,197	18,076	-0,059	0,034
-451,182	42,409	0,043	-0,029
-450,168	-110,699	-0,153	-0,023
-449,153	205,553	-0,037	0,042
-448,138	60,576	-0,081	-0,058
-447,124	800,000	0,039	0,124
-446,109	131,494	-0,043	-0,040
-445,095	-200,000	0,023	0,169
-444,080	325,394	-0,067	0,094
-443,065	53,650	-0,047	-0,033
-442,051	302,659	-0,057	-0,077
-441,036	66,437	-0,103	-0,076
-440,022	351,439	0,030	0,044
-439,007	122,334	-0,072	0,066
-437,992	-178,815	0,165	-0,003
-436,978	-200,000	0,003	0,058
-435,963	-109,026	0,160	-0,025
-434,949	800,000	0,013	0,039
-433,934	389,019	-0,029	-0,044
-432,919	-100,922	-0,130	0,023
-431,905	103,648	0,039	0,034
-430,890	21,658	-0,123	0,073
-429,876	583,790	0,053	0,095
-428,861	-114,316	-0,058	0,008
-427,846	-200,000	-0,006	-0,087
-426,832	-71,655	-0,108	-0,029
-425,817	652,296	-0,037	-0,070
-424,803	110,273	0,018	-0,016
-423,788	-1,321	-0,035	0,018
-422,773	494,899	0,065	0,109
-421,759	280,823	0,023	0,030
-420,744	-200,000	-0,003	-0,035
-419,730	325,071	-0,030	-0,042
-418,715	800,000	-0,069	-0,187
-417,701	-107,268	-0,096	0,015
-416,686	308,304	-0,086	-0,118
-415,671	800,000	0,045	0,105
-414,657	214,568	-0,040	0,046
-413,642	-147,615	-0,128	-0,008
-412,628	-28,197	0,057	-0,024
-411,613	-200,000	0,001	0,025
-410,598	210,515	-0,011	-0,012
-409,584	800,000	-0,006	0,016
-408,569	-65,250	0,202	0,059
-407,555	-200,000	0,009	0,050
-406,540	264,070	0,093	0,119
-405,525	-200,000	-0,013	0,080
-404,511	-200,000	0,003	-0,068
-403,496	393,691	0,064	0,097
-402,482	-33,365	-0,052	0,021
-401,467	13,651	-0,052	0,029
-400,452	-200,000	0,018	-0,090
-399,438	-200,000	0,044	0,155
-398,423	-63,160	-0,104	0,031
-397,409	-40,035	-0,076	-0,029
-396,394	-172,752	0,105	0,002
-395,379	-82,157	0,080	-0,019
-394,365	38,803	0,083	0,054
-393,350	42,359	0,069	-0,046
-392,336	34,295	0,088	-0,056
-391,321	-200,000	-0,018	-0,176
-390,306	183,590	-0,081	0,087
-389,292	205,664	-0,041	-0,047
-388,277	231,271	0,047	0,057
-387,263	800,000	-0,039	-0,082
-386,248	-72,363	-0,096	-0,026
-385,233	-67,245	0,135	-0,038
-384,219	153,501	-0,046	0,046
-383,204	14,654	-0,056	0,032
-382,190	-75,863	-0,094	0,024
-381,175	216,689	0,083	0,096
-380,160	758,210	-0,059	0,117
-379,146	-200,000	-0,021	0,109
-378,131	78,164	0,126	0,098
-377,117	134,077	-0,072	0,068
-376,102	800,000	-0,019	-0,053
-375,088	-34,223	0,108	-0,043
-374,073	196,984	-0,017	-0,019
-373,058	-26,894	0,082	-0,035
-372,044	360,339	-0,099	0,144
-371,029	312,408	-0,075	-0,102
-370,015	800,000	0,018	0,057
-369,000	43,000	0,039	0,026
-367,985	39,543	0,072	0,047
-366,971	643,035	-0,040	-0,075
-365,956	-200,000	-0,026	-0,088
-364,942	-200,000	-0,004	0,170
-363,927	-200,000	0,011	0,148
-362,912	-200,000	0,079	0,000
-361,898	-92,112	0,104	-0,021
-360,883	234,566	-0,080	-0,096
-359,869	-119,658	-0,087	0,011
-358,854	140,144	0,057	0,055
-357,839	32,279	0,024	-0,015
-356,825	-110,771	0,040	-0,006
-355,810	407,863	-0,058	-0,090
-354,796	-200,000	0,015	-0,085
-353,781	51,804	0,087	0,060
-352,766	102,000	-0,043	0,037
-351,752	-50,321	-0,026	0,009
-350,737	-200,000	-0,016	-0,059
-349,723	800,000	0,073	0,183
-348,708	43,878	0,110	-0,073
-347,693	352,681	0,076	0,109
-346,679	-200,000	-0,006	0,096
-345,664	-200,000	0,003	-0,072
-344,650	184,262	0,061	0,065
-343,635	-200,000	-0,012	0,107
-342,620	-74,794	-0,114	0,030
-341,606	55,271	0,170	0,119
-340,591	-178,311	0,031	-0,001
-339,577	-200,000	-0,014	-0,101
-338,562	-47,956	0,050	-0,017
-337,548	-200,000	-0,026	0,107
-336,533	800,000	-0,096	0,223
-335,518	125,323	0,022	-0,020
-334,504	27,480	0,087	-0,053
-333,489	800,000	0,014	0,034
-332,475	-200,000	-0,014	-0,089
-331,460	14,302	-0,157	-0,089
-330,445	-14,404	-0,096	0,045
-329,431	-200,000	-0,002	0,046
-328,416	-151,285	0,194	-0,010
-327,402	208,085	0,083	0,094
-326,387	-200,000	0,001	0,055
-325,372	-200,000	0,004	-0,041
-324,358	168,488	0,021	-0,022
-323,343	775,290	-0,038	-0,075
-322,329	242,373	0,050	0,061
-321,314	750,334	0,058	0,113
-320,299	-200,000	0,046	0,198
-319,285	264,164	-0,037	0,047
-318,270	364,757	0,078	-0,115
-317,256	800,000	-0,029	-0,083
-316,241	45,717	-0,046	-0,031
-315,226	-78,471	0,078	-0,019
-314,212	800,000	-0,032	0,092
-313,197	59,888	0,038	-0,027
-312,183	-48,914	0,069	0,024
-311,168	759,143	0,018	-0,036
-310,153	80,571	-0,077	0,060
-309,139	26,513	0,070	-0,043
-308,124	29,099	0,080	-0,049
-307,110	71,088	-0,119	0,089
-306,095	608,386	0,109	0,197
-305,080	155,323	-0,021	0,021
-304,066	159,166	0,005	0,005
-303,051	226,707	0,077	-0,091
-302,037	-40,382	0,062	0,023
-301,022	246,213	-0,089	0,109
-300,008	476,866	-0,058	0,095
-298,993	800,000	-0,028	-0,066
-297,978	-200,000	0,001	0,106
-296,964	-200,000	0,002	0,036
-295,949	-12,645	0,035	-0,016
-294,935	261,353	0,100	-0,126
-293,920	62,947	0,088	-0,064
-292,905	261,862	0,063	0,079
-291,891	-117,669	0,114	-0,015
-290,876	800,000	0,005	-0,011
-289,862	185,084	-0,035	0,038
-288,847	284,251	0,023	-0,030
-287,832	129,578	-0,122	-0,113
-286,818	-200,000	0,001	-0,066
-285,803	-58,440	0,097	-0,030
-284,789	-155,679	-0,124	0,006
-283,774	-142,829	0,202	-0,014
-282,759	49,397	-0,073	-0,050
-281,745	-200,000	0,022	0,070
-280,730	434,596	-0,018	0,028
-279,716	800,000	0,056	-0,139
-278,701	-95,620	0,059	-0,011
-277,686	-36,600	0,091	-0,035
-276,672	230,753	0,047	0,056
-275,657	-200,000	-0,021	-0,073
-274,643	14,827	-0,103	-0,058
-273,628	-39,312	-0,125	-0,047
-272,613	182,973	0,077	0,082
-271,599	333,692	-0,078	0,110
-270,584	-50,718	0,077	0,026
-269,570	800,000	-0,036	0,081
-268,555	130,215	0,116	0,108
-267,540	152,014	-0,052	-0,051
-266,526	800,000	-0,060	-0,122
-265,511	-200,000	0,003	-0,118
-264,497	208,586	-0,089	0,101
-263,482	17,851	0,069	0,040
-262,467	800,000	0,032	0,076
-261,453	-200,000	0,007	-0,053
-260,438	74,128	0,087	-0,066
-259,424	-188,341	-0,070	-0,001
-258,409	-200,000	-0,009	0,132
-257,395	-200,000	0,037	0,141
-256,380	-155,315	0,153	-0,007
-255,365	27,425	-0,043	0,026
-254,351	-200,000	-0,006	0,054
-253,336	-115,740	0,086	0,012
-252,322	128,163	-0,044	0,041
-251,307	91,776	-0,071	0,058
-250,292	-200,000	-0,020	-0,172
-249,278	651,473	-0,113	0,210
-248,263	-25,139	0,070	0,030
-247,249	-165,868	-0,059	-0,002
-246,234	-200,000	-0,004	-0,147
-245,219	-92,289	-0,069	0,014
-244,205	174,848	-0,057	-0,060
-243,190	457,457	-0,076	0,123
-242,176	563,355	0,045	-0,080
-241,161	800,000	-0,020	-0,039
-240,146	-106,885	-0,070	-0,011
-239,132	567,247	0,023	0,041
-238,117	-200,000	-0,004	-0,136
-237,103	-200,000	0,003	-0,080
-236,088	800,000	0,010	-0,020
-235,073	-200,000	-0,012	0,064
-234,059	326,171	-0,063	0,087
-233,044	-200,000	-0,015	0,056
-232,030	216,539	0,108	-0,125
-231,015	-100,250	-0,127	-0,023
-230,000	-200,000	0,003	0,025
-228,986	800,000	0,016	-0,035
-227,971	548,558	-0,007	0,013
-226,957	642,407	0,035	-0,065
-225,942	10,782	-0,056	-0,031
-224,927	-1,412	0,029	0,015
-223,913	800,000	0,023	-0,049
-222,898	-200,000	0,003	-0,033
-221,884	37,080	0,030	0,019
-220,869	-53,022	0,062	-0,020
-219,855	167,009	-0,106	-0,109
-218,840	137,219	-0,064	0,060
-217,825	65,992	-0,046	-0,034
-216,811	134,690	0,057	0,054
-215,796	273,405	0,041	-0,052
-214,782	-120,440	0,076	-0,009
-213,767	479,229	0,031	0,051
-212,752	-200,000	0,004	0,196
-211,738	82,485	0,045	-0,035
-210,723	-52,610	0,051	0,017
-209,709	518,026	-0,045	0,076
-208,694	43,804	-0,036	-0,024
-207,679	42,806	-0,035	-0,023
-206,665	-20,642	0,033	-0,015
-205,650	65,476	0,054	-0,040
-204,636	134,470	-0,053	0,050
-203,621	408,976	0,054	-0,083
-202,606	-11,700	-0,021	-0,010
-201,592	800,000	-0,025	-0,078
-200,577	26,153	0,094	-0,056
-199,563	45,511	0,123	-0,082
-198,548	-200,000	-0,009	0,047
-197,533	99,263	0,080	0,067
-196,519	293,042	0,051	0,067
-195,504	800,000	0,021	-0,050
-194,490	-200,000	-0,016	-0,059
-193,475	139,509	-0,085	0,081
-192,460	-31,946	0,148	-0,060
-191,446	-22,857	0,097	-0,042
-190,431	639,372	0,065	0,119
-189,417	5,064	0,164	0,087
-188,402	800,000	0,006	0,018
-187,387	571,639	-0,019	0,033
-186,373	-30,119	-0,133	-0,054
-185,358	231,379	0,078	0,093
-184,344	-55,041	-0,055	0,018
-183,329	-160,839	0,163	0,006
-182,315	-169,759	-0,096	-0,002
-181,300	-130,222	0,061	-0,006
-180,285	-200,000	-0,001	-0,076
-179,271	67,529	-0,062	-0,046
-178,256	-55,747	0,138	0,044
-177,242	-143,805	-0,174	0,012
-176,227	32,502	0,092	0,057
-175,212	585,247	-0,032	0,056
-174,198	200,496	-0,050	0,055
-173,183	351,445	-0,033	0,047
-172,169	-200,000	-0,001	-0,087
-171,154	-200,000	-0,013	-0,064
-170,139	257,305	-0,028	-0,035
-169,125	-200,000	0,042	0,142
-168,110	-71,349	0,088	0,024
-167,096	-55,918	0,050	0,016
-166,081	69,702	-0,141	0,105
-165,066	-200,000	-0,008	-0,031
-164,052	574,972	0,067	-0,119
-163,037	-58,133	-0,035	-0,011
-162,023	-60,430	0,132	-0,040
-161,008	-200,000	-0,014	0,076
-159,993	-200,000	-0,000	0,054
-158,979	-200,000	-0,002	-0,137
-157,964	-8,956	0,138	-0,066
-156,950	-84,652	-0,127	0,029
-155,935	250,815	0,045	0,055
-154,920	13,955	0,078	0,043
-153,906	-59,254	0,095	0,029
-152,891	730,093	-0,056	0,108
-151,877	603,045	0,027	0,049
-150,862	120,478	-0,049	0,044
-149,847	102,249	-0,058	0,049
-148,833	-200,000	0,003	0,016
-147,818	291,141	0,037	-0,048
-146,804	-200,000	-0,072	0,230
-145,789	-200,000	0,071	0,000
-144,775	-86,614	-0,094	0,021
-143,760	-112,548	-0,098	-0,014
-142,745	89,378	-0,115	-0,093
-141,731	-200,000	-0,043	-0,230
-140,716	624,660	0,077	-0,141
-139,702	35,203	-0,130	0,082
-138,687	76,233	-0,027	-0,021
-137,672	-66,658	-0,086	-0,024
-136,658	157,963	-0,059	0,059
-135,643	-200,000	-0,054	-0,213
-134,629	283,445	-0,029	0,037
-133,614	-24,438	0,073	0,031
-132,599	800,000	0,088	-0,193
-131,585	63,087	0,029	0,021
-130,570	800,000	0,032	-0,102
-129,556	800,000	0,013	-0,041
-128,541	-200,000	-0,033	-0,123
-127,526	173,497	0,093	-0,097
-126,512	-200,000	-0,022	0,113
-125,497	76,917	0,027	-0,021
-124,483	57,134	0,075	0,053
-123,468	30,493	-0,083	0,051
-122,453	-14,306	0,011	-0,005
-121,439	-200,000	0,024	-0,093
-120,424	195,254	-0,072	-0,079
-119,410	373,733	0,052	0,077
-118,395	76,086	0,116	0,088
-117,380	800,000	-0,051	0,131
-116,366	-200,000	0,004	-0,058
-115,351	221,803	-0,106	-0,123
-114,337	384,592	0,066	-0,098
-113,322	202,803	-0,048	-0,053
-112,307	79,240	-0,018	0,014
-111,293	34,956	0,110	0,069
-110,278	-200,000	0,013	0,071
-109,264	56,242	-0,063	0,044
-108,249	800,000	-0,047	-0,131
-107,234	-1,070	-0,096	-0,049
-106,220	800,000	0,031	-0,071
-105,205	1,592	0,031	-0,016
-104,191	-200,000	-0,003	-0,015
-103,176	17,520	0,158	0,090
-102,162	-155,098	-0,141	0,007
-101,147	33,098	0,035	0,022
-100,132	-2,202	-0,095	-0,048
-99,118	-94,336	-0,069	-0,013
-98,103	-61,808	-0,166	-0,050
-97,089	-133,745	-0,070	0,006
-96,074	-200,000	0,004	0,049
-95,059	3,753	0,072	-0,038
-94,045	-200,000	-0,025	-0,197
-93,030	-200,000	-0,034	-0,152
-92,016	-53,190	-0,083	-0,027
-91,001	47,314	0,067	-0,045
-89,986	-87,485	-0,018	0,004
-88,972	190,804	-0,053	0,058
-87,957	53,001	0,058	0,040
-86,943	157,262	-0,101	0,101
-85,928	-94,964	-0,102	0,020
-84,913	92,439	-0,057	-0,046
-83,899	-2,438	-0,049	-0,025
-82,884	193,838	0,006	-0,006
-81,870	141,626	0,078	-0,074
-80,855	800,000	0,027	-0,070
-79,840	-77,046	0,043	-0,011
-78,826	540,509	0,025	-0,042
-77,811	81,256	0,089	-0,069
-76,797	-200,000	-0,001	0,163
-75,782	-200,000	-0,012	0,079
-74,767	800,000	-0,035	-0,073
-73,753	215,462	0,056	-0,064
-72,738	99,978	0,035	0,029
-71,724	-50,840	-0,047	-0,016
-70,709	585,625	-0,019	-0,035
-69,694	-200,000	-0,019	-0,109
-68,680	-200,000	-0,012	0,074
-67,665	-187,534	-0,017	-0,000
-66,651	-200,000	0,017	0,108
-65,636	-82,252	0,143	-0,033
-64,622	-155,010	-0,077	0,004
-63,607	-10,074	-0,042	-0,020
-62,592	-200,000	-0,011	0,046
-61,578	32,052	-0,028	0,017
-60,563	199,963	0,054	0,060
-59,549	-200,000	-0,015	0,084
-58,534	78,046	-2,505	-1,919
-57,519	117,424	0,419	-0,370
-56,505	-200,000	-1,552	-5,343
-55,490	268,187	1,198	1,511
-54,476	800,000	5,148	11,536
-53,461	-200,000	21,663	343,444
-52,446	800,000	761,042	2309,352
-51,432	517,812	1653,992	2790,867
-50,417	104,274	1619,781	1368,759
-49,403	74,111	1274,934	960,389
-48,388	25,652	1023,049	610,369
-47,373	19,406	989,072	569,395
-46,359	13,605	976,530	543,080
-45,344	9,490	973,320	527,727
-44,330	9,994	971,244	528,239
-43,315	8,917	969,443	523,700
-42,300	8,881	968,072	522,821
-41,286	8,885	967,053	522,265
-40,271	8,857	966,191	521,685
-39,257	8,894	964,982	521,133
-38,242	8,873	964,266	520,658
-37,227	8,842	963,545	520,147
-36,213	8,829	962,821	519,692
-35,198	8,840	961,898	519,211
-34,184	8,940	961,115	519,092
-33,169	8,875	960,130	518,327
-32,154	8,925	959,285	518,015
-31,140	8,879	958,321	517,322
-30,125	8,893	957,508	516,908
-29,111	8,949	956,673	516,619
-28,096	8,928	956,081	516,210
-27,082	8,875	955,405	515,654
-26,067	8,885	954,752	515,315
-25,052	8,810	954,089	514,693
-24,038	8,849	953,213	514,327
-23,023	8,862	952,595	514,014
-22,009	8,845	952,088	513,665
-20,994	8,870	951,549	513,434
-19,979	8,902	950,780	513,103
-18,965	8,900	950,197	512,761
-17,950	8,888	949,634	512,399
-16,936	8,806	949,071	511,811
-15,921	8,864	948,133	511,471
-14,906	8,789	947,423	510,828
-13,892	8,812	946,807	510,547
-12,877	8,742	946,369	510,068
-11,863	8,736	945,695	509,664
-10,848	8,778	945,039	509,427
-9,833	8,833	944,605	509,347
-8,819	8,807	943,923	508,875
-7,804	8,803	943,082	508,390
-6,790	8,731	942,689	507,926
-5,775	8,774	942,110	507,733
-4,760	8,794	941,439	507,414
-3,746	8,756	941,038	507,057
-2,731	8,684	940,122	506,315
-1,717	8,602	939,620	505,765
-0,702	8,586	938,855	505,280
0,313	8,482	938,082	505,297
1,327	11,868	935,915	514,813
2,342	20,490	784,930	454,506
3,356	15,508	451,318	253,752
4,371	-10,788	314,071	148,471
5,386	-14,482	296,469	136,380
6,400	-16,821	290,404	131,247
7,415	-16,958	287,683	129,870
8,429	-17,572	285,927	128,463
9,444	-17,425	284,988	128,173
10,459	-17,385	284,452	127,960
11,473	-17,345	283,958	127,766
12,488	-17,263	283,379	127,574
13,502	-17,409	282,772	127,147
14,517	-17,250	282,529	127,180
15,531	-17,280	282,109	126,951
16,546	-17,128	281,599	126,858
17,561	-17,139	281,254	126,680
18,575	-16,899	280,857	126,721
19,590	-17,215	280,551	126,268
20,604	-17,124	280,460	126,302
21,619	-17,279	280,119	125,989
22,634	-17,006	279,510	125,966
23,648	-17,235	279,265	125,624
24,663	-17,068	278,947	125,630
25,677	-17,204	278,838	125,440
26,692	-16,986	278,569	125,515
27,707	-16,926	278,114	125,357
28,721	-17,151	277,941	125,053
29,736	-17,092	277,566	124,930
30,750	-17,072	277,365	124,847
31,765	-17,067	277,128	124,734
32,780	-17,029	277,002	124,702
33,794	-17,115	276,540	124,402
34,809	-16,948	276,383	124,478
35,823	-17,070	276,034	124,195
36,838	-17,083	275,911	124,116
37,853	-16,991	275,633	124,067
38,867	-17,070	275,319	123,840
39,882	-17,352	275,244	123,529
40,896	-17,141	274,955	123,587
41,911	-16,999	274,672	123,582
42,926	-17,043	274,405	123,410
43,940	-17,210	274,299	123,195
44,955	-17,051	273,935	123,169
45,969	-16,969	273,576	123,073
46,984	-17,195	273,635	122,877
47,999	-16,911	273,384	123,019
49,013	-16,822	273,222	123,018
50,028	-17,028	273,086	122,754
51,042	-16,999	272,577	122,541
52,057	-16,862	272,337	122,550
53,071	-16,895	272,235	122,462
54,086	-17,059	271,926	122,160
55,101	-16,853	271,771	122,271
56,115	-16,984	271,548	122,038
57,130	-16,965	271,277	121,923
58,144	-17,226	271,177	121,625
59,159	-17,090	270,652	121,505
60,174	-16,942	270,488	121,557
61,188	-17,168	270,286	121,247
62,203	-17,002	270,005	121,263
63,217	-17,006	269,763	121,139
64,232	-17,095	269,569	120,960
65,247	-17,017	269,331	120,914
66,261	-17,060	269,080	120,751
67,276	-16,855	268,720	120,767
68,290	-17,300	268,734	120,354
69,305	-16,982	268,488	120,525
70,320	-17,091	268,304	120,331
71,334	-16,914	268,077	120,381
72,349	-17,084	267,836	120,107
73,363	-17,159	267,519	119,885
74,378	-17,303	267,313	119,651
75,393	-17,096	267,016	119,696
76,407	-17,061	266,826	119,632
77,422	-16,875	266,729	119,747
78,436	-17,095	266,469	119,420
79,451	-16,832	266,020	119,447
80,466	-16,928	265,823	119,260
81,480	-16,999	265,758	119,156
82,495	-16,984	265,378	118,989
83,509	-17,031	265,285	118,894
84,524	-16,904	265,063	118,898
85,539	-16,783	264,996	118,967
86,553	-17,040	264,603	118,549
87,568	-16,937	264,325	118,506
88,582	-17,040	264,207	118,350
89,597	-17,019	264,064	118,294
90,611	-17,088	263,886	118,142
91,626	-16,906	263,758	118,237
92,641	-17,112	263,462	117,909
93,655	-16,898	263,334	118,034
94,670	-16,915	262,895	117,811
95,684	-17,026	262,736	117,630
96,699	-17,121	262,665	117,503
97,714	-17,126	262,425	117,380
98,728	-16,954	262,324	117,479
99,743	-17,086	262,201	117,294
100,757	-16,859	261,834	117,322
101,772	-16,876	261,673	117,225
102,787	-16,947	261,280	116,975
103,801	-17,070	261,188	116,815
104,816	-16,895	260,919	116,839
105,830	-17,125	260,861	116,599
106,845	-17,130	260,535	116,438
107,860	-16,813	260,216	116,565
108,874	-17,213	260,173	116,182
109,889	-16,957	259,848	116,253
110,903	-17,086	259,691	116,058
111,918	-16,984	259,627	116,109
112,933	-16,929	259,300	116,001
113,947	-17,021	259,183	115,857
114,962	-16,972	258,899	115,763
115,976	-17,045	258,670	115,587
116,991	-17,163	258,577	115,430
118,006	-17,011	258,377	115,464
119,020	-16,832	258,152	115,511
120,035	-17,129	258,172	115,249
121,049	-16,895	257,769	115,263
122,064	-16,868	257,652	115,225
123,079	-16,897	257,434	115,091
124,093	-17,174	257,330	114,793
125,108	-16,937	256,990	114,837
126,122	-16,916	257,131	114,909
127,137	-16,768	256,827	114,891
128,151	-16,767	256,511	114,741
129,166	-16,833	256,269	114,565
130,181	-16,834	256,024	114,445
131,195	-16,883	255,805	114,293
132,210	-16,999	255,643	114,111
133,224	-16,777	255,394	114,182
134,239	-16,969	255,242	113,937
135,254	-16,821	254,916	113,910
136,268	-16,998	254,859	113,721
137,283	-16,668	254,549	113,857
138,297	-16,789	254,490	113,716
139,312	-16,984	254,151	113,387
140,327	-16,878	253,985	113,394
141,341	-16,937	253,881	113,286
142,356	-17,221	253,622	112,917
143,370	-16,956	253,382	113,027
144,385	-16,949	253,322	112,997
145,400	-16,837	252,933	112,909
146,414	-16,867	252,668	112,755
147,429	-16,843	252,564	112,719
148,443	-16,885	252,452	112,623
149,458	-17,070	252,389	112,427
150,473	-16,885	252,043	112,421
151,487	-16,938	251,997	112,345
152,502	-17,027	251,744	112,146
153,516	-16,865	251,472	112,153
154,531	-17,013	251,424	111,995
155,546	-16,839	251,196	112,032
156,560	-16,951	250,992	111,836
157,575	-16,881	250,788	111,794
158,589	-16,970	250,546	111,601
159,604	-16,890	250,179	111,495
160,619	-17,053	250,267	111,386
161,633	-17,003	249,890	111,251
162,648	-16,931	250,073	111,384
163,662	-16,831	249,601	111,248
164,677	-16,860	249,611	111,218
165,692	-17,061	249,473	110,977
166,706	-16,867	249,184	111,002
167,721	-16,832	249,075	110,973
168,735	-16,932	248,974	110,833
169,750	-16,725	248,783	110,913
170,764	-16,894	248,631	110,693
171,779	-17,008	248,452	110,508
172,794	-16,947	248,266	110,467
173,808	-16,697	248,029	110,561
174,823	-16,896	247,997	110,370
175,837	-16,781	247,639	110,298
176,852	-16,941	247,569	110,122
177,867	-16,893	247,272	110,020
178,881	-16,776	247,141	110,050
179,896	-16,967	246,964	109,802
180,910	-16,787	246,755	109,849
181,925	-16,854	246,513	109,676
182,940	-16,781	246,320	109,641
183,954	-17,051	246,273	109,386
184,969	-16,802	246,069	109,492
185,983	-16,844	245,978	109,408
186,998	-16,828	245,791	109,327
188,013	-16,867	245,612	109,205
189,027	-16,855	245,250	109,045
190,042	-16,982	245,213	108,914
191,056	-16,911	244,920	108,833
192,071	-17,167	244,915	108,609
193,086	-17,112	244,768	108,580
194,100	-16,893	244,452	108,610
195,115	-16,764	244,422	108,693
196,129	-17,035	244,128	108,330
197,144	-16,998	243,873	108,238
198,159	-16,936	243,656	108,183
199,173	-16,885	243,564	108,174
200,188	-16,951	243,333	108,008
201,202	-16,890	243,241	108,007
202,217	-16,749	243,080	108,041
203,232	-16,708	242,868	107,972
204,246	-16,949	242,549	107,623
205,261	-17,154	242,235	107,307
206,275	-15,847	242,953	108,686
207,290	-10,650	244,704	113,746
208,304	-4,472	246,728	119,803
209,319	-1,730	247,324	122,356
210,334	-0,882	247,481	123,126
211,348	0,363	247,804	124,309
212,363	1,057	247,773	124,858
213,377	1,192	247,792	124,968
214,392	1,621	247,604	125,218
215,407	1,704	247,665	125,306
216,421	1,963	247,515	125,433
217,436	1,835	247,535	125,327
218,450	2,023	247,234	125,318
219,465	1,845	247,069	125,076
220,480	1,669	246,765	124,766
221,494	1,542	246,580	124,557
222,509	1,092	246,388	124,078
223,523	0,993	246,186	123,883
224,538	1,058	245,882	123,773
225,553	0,892	245,655	123,512
226,567	0,892	245,500	123,423
227,582	0,896	245,399	123,364
228,596	0,966	245,228	123,324
229,611	1,073	245,030	123,301
230,626	0,856	244,945	123,070
231,640	0,837	244,607	122,874
232,655	1,020	244,484	122,951
233,669	0,715	244,403	122,650
234,684	0,751	244,286	122,609
235,699	0,869	244,158	122,631
236,713	0,684	243,923	122,351
237,728	0,821	243,836	122,408
238,742	0,840	243,539	122,263
239,757	0,867	243,430	122,220
240,772	0,953	243,324	122,225
241,786	1,191	243,029	122,259
242,801	0,775	242,984	121,888
243,815	0,950	242,850	121,952
244,830	0,893	242,643	121,791
245,844	0,862	242,526	121,697
246,859	0,719	242,325	121,469
247,874	0,714	242,311	121,447
248,888	1,165	241,929	121,609
249,903	0,818	241,970	121,339
250,917	1,026	241,759	121,390
251,932	0,939	241,608	121,233
252,947	1,017	241,462	121,212
253,961	0,895	241,189	120,966
254,976	0,924	240,994	120,880
255,990	0,752	240,984	120,727
257,005	0,863	240,943	120,785
258,020	1,106	240,652	120,822
259,034	0,965	240,480	120,613
260,049	1,134	240,238	120,615
261,063	0,832	240,208	120,348
262,078	1,029	239,999	120,390
263,093	1,044	239,850	120,316
264,107	1,001	239,760	120,227
265,122	0,934	239,348	119,956
266,136	1,063	239,305	120,027
267,151	1,030	239,127	119,900
268,166	1,043	239,010	119,841
269,180	0,919	238,954	119,704
270,195	0,931	238,696	119,573
271,209	0,900	238,593	119,486
272,224	0,745	238,502	119,307
273,239	0,736	238,284	119,180
274,253	0,870	238,158	119,213
275,268	0,707	238,008	118,998
276,282	0,992	237,847	119,132
277,297	0,764	237,650	118,843
278,312	0,835	237,559	118,843
279,326	0,811	237,485	118,777
280,341	0,864	237,277	118,703
281,355	1,047	237,056	118,726
282,370	0,825	236,967	118,496
283,384	1,008	236,834	118,563
284,399	0,865	236,645	118,346
285,414	0,750	236,544	118,194
286,428	0,855	236,315	118,152
287,443	0,987	236,172	118,173
288,457	0,975	235,959	118,047
289,472	1,294	235,698	118,156
290,487	0,965	235,754	117,916
291,501	0,966	235,620	117,839
292,516	1,014	235,349	117,730
293,530	1,067	235,194	117,684
294,545	1,092	235,106	117,649
295,560	1,045	235,118	117,607
296,574	0,968	234,909	117,432
297,589	1,076	234,724	117,413
298,603	1,087	234,551	117,326
299,618	1,004	234,402	117,175
300,633	1,177	234,205	117,201
301,647	1,077	234,155	117,088
302,662	1,100	234,006	117,021
303,676	1,218	233,703	116,950
304,691	1,187	233,563	116,846
305,706	1,177	233,397	116,745
306,720	1,153	233,357	116,696
307,735	1,433	233,017	116,731
308,749	1,323	233,067	116,661
309,764	1,182	232,832	116,424
310,779	1,467	232,520	116,478
311,793	1,207	232,491	116,252
312,808	1,020	232,480	116,093
313,822	1,065	232,390	116,072
314,837	1,311	232,077	116,095
315,852	1,061	232,038	115,872
316,866	1,164	231,943	115,893
317,881	1,085	231,703	115,703
318,895	1,315	231,572	115,804
319,910	1,066	231,322	115,477
320,925	1,195	231,240	115,524
321,939	0,966	231,019	115,228
322,954	1,220	231,028	115,417
323,968	1,157	230,936	115,313
324,983	1,305	230,563	115,230
325,997	1,164	230,556	115,108
327,012	1,223	230,377	115,054
328,027	1,220	230,104	114,904
329,041	0,935	230,126	114,688
330,056	1,175	230,018	114,806
331,070	1,435	229,763	114,867
332,085	0,966	229,615	114,426
333,100	0,924	229,487	114,320
334,114	1,162	229,227	114,361
335,129	1,273	229,078	114,361
336,143	1,344	228,958	114,344
337,158	1,247	228,787	114,175
338,173	1,268	228,833	114,204
339,187	1,318	228,523	114,077
340,202	1,339	228,400	114,021
341,216	1,426	228,432	114,093
342,231	1,058	228,161	113,670
343,246	1,125	227,907	113,584
344,260	1,334	227,787	113,671
345,275	1,432	227,899	113,790
346,289	1,465	227,552	113,632
347,304	1,273	227,529	113,466
348,319	1,303	227,280	113,355
349,333	1,293	227,171	113,282
350,348	1,108	227,074	113,085
351,362	1,511	226,871	113,276
352,377	1,248	226,726	112,997
353,392	1,035	226,718	112,823
354,406	1,318	226,455	112,894
355,421	191,621	1314,826	1380,181
356,435	153,487	1447,292	1380,040
