DTS Sentinel unit serial number:	SN410029Multiplexer serial number:	ORYXHardware model number:	OX2-SRSoftware version number:	ORYX F/W v4,00 Oryx Data Collector v3.7.2.0data status	okinstallation	B5 Nyhavnadifferential loss correction	single-endedforward channel	channel 2reverse channel	N/Adate	2023/12/12time	22:27:13forward acquisition time	300,00reverse acquisition time	0,00gamma	499,1914k internal	0,3158k external	0,3158temperature offset calibration	1,0000default loss term (dB/km)	0,3820temperature slope calibration	1,0000multiplexer offset coefficient	1,0000multiplexer slope coefficient	1,0000fibre end	0,00T internal ref (°C)	14,66T ext. ref 1 (°C)	-1,92T ext. ref 2 (°C)	-2,24length (m)	temperature (°C)	Stokes	anti-Stokes-744,400	-200,000	0,121	0,000
-743,385	-107,407	-0,280	0,045
-742,371	4,761	0,172	0,093
-741,356	-165,814	-0,266	-0,008
-740,342	-69,894	0,202	-0,056
-739,327	-156,830	-0,423	-0,019
-738,312	34,453	0,119	0,077
-737,298	-162,945	-0,346	0,012
-736,283	-166,321	0,130	0,004
-735,269	-90,849	-0,355	0,075
-734,254	-130,431	0,055	-0,005
-733,239	-81,922	-0,523	-0,125
-732,225	35,890	0,116	-0,075
-731,210	-200,000	-0,020	0,069
-730,196	-200,000	0,006	-0,051
-729,181	615,473	-0,030	0,055
-728,167	800,000	-0,017	0,035
-727,152	-200,000	-0,003	-0,020
-726,137	-160,949	-0,129	-0,005
-725,123	726,408	0,026	-0,052
-724,108	-59,363	-0,125	-0,039
-723,094	121,212	0,069	-0,063
-722,079	75,252	-0,111	-0,086
-721,064	-8,845	0,092	0,045
-720,050	-140,132	-0,197	-0,015
-719,035	800,000	0,015	-0,036
-718,021	-19,571	0,021	-0,009
-717,006	-113,664	-0,045	-0,006
-715,991	-200,000	-0,005	-0,081
-714,977	-124,998	-0,161	-0,018
-713,962	800,000	0,015	0,045
-712,948	746,547	-0,054	0,107
-711,933	800,000	0,042	-0,100
-710,918	800,000	-0,029	0,071
-709,904	-200,000	-0,023	-0,133
-708,889	27,129	0,037	-0,023
-707,875	-200,000	-0,017	-0,082
-706,860	-200,000	0,002	0,075
-705,845	-200,000	-0,005	0,065
-704,831	603,292	-0,035	0,064
-703,816	-200,000	0,003	-0,099
-702,802	310,725	-0,046	0,063
-701,787	-112,628	-0,074	0,011
-700,772	448,122	0,013	0,021
-699,758	-200,000	0,006	-0,056
-698,743	202,657	0,072	-0,082
-697,729	182,131	0,006	-0,007
-696,714	473,339	-0,046	0,076
-695,699	-114,621	0,100	0,014
-694,685	-200,000	-0,046	-0,211
-693,670	-200,000	0,010	-0,119
-692,656	628,064	0,019	-0,035
-691,641	595,380	-0,033	-0,060
-690,627	141,835	0,017	-0,017
-689,612	483,126	-0,055	0,093
-688,597	-11,365	-0,047	-0,023
-687,583	-143,647	-0,100	0,007
-686,568	225,294	-0,056	0,067
-685,554	164,677	-0,039	-0,040
-684,539	16,800	-0,046	0,027
-683,524	-200,000	0,013	0,193
-682,510	-62,316	0,038	-0,012
-681,495	-33,231	-0,052	-0,021
-680,481	-156,174	-0,049	-0,002
-679,466	664,323	0,034	0,064
-678,451	-61,504	-0,087	0,027
-677,437	800,000	-0,008	0,021
-676,422	194,626	0,046	-0,052
-675,408	22,866	-0,069	0,042
-674,393	-200,000	0,006	0,131
-673,378	-160,741	-0,095	0,004
-672,364	-27,112	0,095	-0,040
-671,349	-44,205	-0,071	-0,026
-670,335	794,322	-0,046	0,094
-669,320	-153,949	-0,021	0,001
-668,305	-74,732	0,022	0,006
-667,291	112,553	0,048	0,042
-666,276	52,163	-0,052	-0,037
-665,262	769,864	0,037	-0,074
-664,247	-200,000	0,003	0,040
-663,232	-154,381	-0,081	-0,004
-662,218	-200,000	-0,034	0,205
-661,203	-58,966	-0,089	-0,028
-660,189	275,624	-0,035	-0,046
-659,174	88,623	-0,034	-0,028
-658,159	-109,076	-0,049	0,008
-657,145	800,000	0,013	-0,034
-656,130	121,774	0,052	0,048
-655,116	363,700	-0,080	0,119
-654,101	195,948	0,019	-0,021
-653,086	345,699	0,029	-0,042
-652,072	-200,000	-0,007	0,034
-651,057	-4,219	-0,042	-0,021
-650,043	800,000	-0,029	0,068
-649,028	74,203	-0,104	0,080
-648,014	11,699	0,051	0,028
-646,999	-138,876	0,057	-0,004
-645,984	-50,056	-0,163	0,056
-644,970	-115,562	-0,076	-0,010
-643,955	162,237	-0,014	0,014
-642,941	759,646	0,081	-0,162
-641,926	800,000	-0,038	-0,081
-640,911	-19,483	-0,040	-0,018
-639,897	-200,000	0,016	-0,173
-638,882	-200,000	-0,040	-0,189
-637,868	-37,664	-0,065	-0,025
-636,853	-200,000	0,015	-0,091
-635,838	15,128	-0,111	0,064
-634,824	-200,000	-0,027	0,136
-633,809	7,899	0,058	0,032
-632,795	-34,260	0,104	0,042
-631,780	800,000	0,021	0,045
-630,765	360,398	0,087	0,128
-629,751	75,868	0,095	-0,074
-628,736	501,755	0,036	-0,061
-627,722	-135,910	0,051	-0,004
-626,707	115,401	0,119	0,107
-625,692	-45,499	-0,111	-0,040
-624,678	800,000	0,058	0,171
-623,663	-11,911	0,138	0,066
-622,649	-198,499	0,068	0,000
-621,634	-10,812	-0,022	0,011
-620,619	-200,000	0,037	0,000
-619,605	706,612	0,049	0,096
-618,590	-102,873	0,034	-0,006
-617,576	130,622	0,046	0,043
-616,561	-138,078	-0,105	0,008
-615,546	152,203	0,077	-0,077
-614,532	73,657	-0,187	-0,143
-613,517	-109,901	-0,096	0,015
-612,503	-91,722	-0,092	-0,019
-611,488	118,165	0,081	0,074
-610,474	-61,533	-0,069	-0,021
-609,459	800,000	0,028	0,081
-608,444	-102,884	-0,148	0,026
-607,430	68,218	0,161	-0,121
-606,415	-146,932	-0,147	-0,009
-605,401	-200,000	0,009	-0,073
-604,386	53,984	-0,051	0,036
-603,371	-15,547	0,081	0,038
-602,357	362,431	0,070	0,103
-601,342	-19,177	0,093	-0,042
-600,328	135,439	-0,075	0,072
-599,313	-200,000	-0,006	0,085
-598,298	800,000	-0,036	0,084
-597,284	23,640	-0,024	0,015
-596,269	88,923	0,136	0,111
-595,255	-200,000	0,061	-0,246
-594,240	716,140	-0,027	-0,054
-593,225	365,698	-0,040	0,059
-592,211	800,000	-0,048	-0,116
-591,196	54,547	-0,141	-0,100
-590,182	262,083	-0,050	-0,063
-589,167	-72,241	0,053	0,014
-588,152	-59,198	-0,028	-0,009
-587,138	-95,984	0,160	0,031
-586,123	156,528	-0,104	-0,105
-585,109	121,158	-0,045	-0,041
-584,094	800,000	0,054	0,133
-583,079	-200,000	0,018	0,114
-582,065	567,537	0,028	0,050
-581,050	-200,000	0,014	0,080
-580,036	10,788	-0,074	-0,042
-579,021	-127,132	-0,162	-0,017
-578,006	354,121	0,081	-0,118
-576,992	208,853	-0,091	0,105
-575,977	-100,732	0,058	0,010
-574,963	621,705	-0,010	-0,019
-573,948	-200,000	0,009	0,077
-572,934	-124,251	-0,113	-0,013
-571,919	-200,000	0,001	-0,035
-570,904	394,360	-0,072	-0,110
-569,890	-26,649	-0,112	-0,048
-568,875	72,808	0,067	0,051
-567,861	175,809	0,060	-0,064
-566,846	466,584	0,080	0,131
-565,831	255,220	-0,158	0,198
-564,817	73,993	-0,079	-0,061
-563,802	65,350	-0,078	-0,058
-562,788	-8,608	-0,080	-0,039
-561,773	325,184	0,086	0,121
-560,758	-200,000	0,001	0,129
-559,744	-200,000	0,011	0,081
-558,729	204,343	0,080	0,091
-557,715	229,419	-0,124	-0,149
-556,700	189,927	-0,078	-0,086
-555,685	-57,821	-0,024	0,008
-554,671	23,374	-0,059	0,036
-553,656	124,184	-0,014	-0,013
-552,642	-102,852	0,130	0,022
-551,627	-200,000	-0,008	0,119
-550,612	474,891	0,022	-0,036
-549,598	-64,618	-0,110	0,033
-548,583	800,000	0,052	-0,122
-547,569	103,276	0,014	0,012
-546,554	220,651	0,017	-0,020
-545,539	361,351	-0,066	0,097
-544,525	73,980	-0,036	-0,027
-543,510	-128,140	0,020	-0,002
-542,496	-200,000	-0,015	-0,071
-541,481	-120,846	-0,149	0,018
-540,466	800,000	0,038	-0,115
-539,452	-35,907	-0,042	-0,016
-538,437	128,320	0,102	0,095
-537,423	84,960	0,186	0,149
-536,408	-69,425	0,063	0,018
-535,393	-200,000	0,013	-0,071
-534,379	-115,638	0,125	0,017
-533,364	293,976	0,045	-0,060
-532,350	800,000	0,055	0,114
-531,335	66,935	0,076	-0,056
-530,321	-190,774	-0,081	-0,001
-529,306	192,011	0,120	0,132
-528,291	165,952	-0,091	0,094
-527,277	800,000	-0,053	-0,138
-526,262	-200,000	0,011	-0,050
-525,248	475,427	-0,049	-0,082
-524,233	-37,750	0,103	0,040
-523,218	394,053	-0,068	-0,103
-522,204	208,641	0,011	0,013
-521,189	101,704	-0,070	-0,060
-520,175	800,000	-0,018	0,045
-519,160	-119,400	-0,123	0,015
-518,145	117,462	0,118	-0,106
-517,131	83,766	-0,077	0,061
-516,116	200,614	0,048	0,054
-515,102	54,787	-0,086	0,061
-514,087	-79,561	-0,068	0,017
-513,072	-69,589	0,031	0,009
-512,058	-200,000	-0,017	-0,070
-511,043	696,762	0,011	0,021
-510,029	743,770	0,027	-0,053
-509,014	29,857	-0,113	-0,070
-507,999	-200,000	0,008	0,096
-506,985	-99,241	0,054	-0,010
-505,970	-156,959	-0,088	-0,004
-504,956	-200,000	0,006	-0,106
-503,941	-200,000	-0,007	-0,068
-502,926	800,000	-0,023	-0,056
-501,912	800,000	0,054	0,110
-500,897	-200,000	-0,007	0,057
-499,883	800,000	-0,056	0,130
-498,868	477,778	0,032	0,053
-497,853	53,796	0,033	-0,023
-496,839	-34,965	0,094	-0,037
-495,824	155,994	-0,086	0,087
-494,810	203,089	0,087	0,099
-493,795	-165,688	-0,048	-0,001
-492,781	800,000	-0,030	0,062
-491,766	-200,000	0,012	-0,047
-490,751	-200,000	-0,012	-0,125
-489,737	-67,664	0,082	-0,023
-488,722	502,323	0,017	-0,029
-487,708	-200,000	-0,027	-0,096
-486,693	470,037	-0,052	0,085
-485,678	186,049	-0,005	0,005
-484,664	86,862	-0,040	-0,032
-483,649	568,801	-0,048	-0,085
-482,635	500,508	0,006	0,010
-481,620	271,110	0,091	0,117
-480,605	-39,692	0,049	0,019
-479,591	75,254	0,032	-0,024
-478,576	-151,525	-0,023	-0,001
-477,562	199,472	-0,042	0,047
-476,547	175,930	0,036	0,038
-475,532	-130,033	0,041	0,004
-474,518	-101,335	-0,022	0,004
-473,503	108,707	0,058	-0,050
-472,489	559,266	-0,105	-0,186
-471,474	27,466	-0,092	0,056
-470,459	-200,000	0,003	0,021
-469,445	11,370	0,068	0,038
-468,430	2,287	-0,152	0,080
-467,416	242,709	0,041	-0,050
-466,401	1,593	0,062	0,032
-465,386	539,661	0,014	-0,024
-464,372	40,783	0,090	-0,059
-463,357	80,173	0,066	-0,052
-462,343	-15,742	0,050	-0,023
-461,328	-129,610	0,071	0,007
-460,313	70,679	-0,068	0,051
-459,299	-200,000	-0,009	0,052
-458,284	99,132	0,064	0,054
-457,270	-89,435	-0,124	0,026
-456,255	-200,000	0,017	-0,070
-455,241	-10,580	0,047	0,023
-454,226	-130,439	-0,008	-0,001
-453,211	-200,000	-0,000	-0,027
-452,197	6,106	0,016	0,009
-451,182	-200,000	0,006	0,078
-450,168	-58,999	-0,065	0,020
-449,153	659,676	0,037	0,070
-448,138	-0,515	-0,025	-0,013
-447,124	460,911	-0,034	-0,055
-446,109	-33,673	-0,072	0,029
-445,095	-120,137	0,118	0,015
-444,080	253,051	0,064	0,079
-443,065	-143,154	0,072	0,005
-442,051	-200,000	0,018	-0,113
-441,036	-86,198	-0,099	0,022
-440,022	-107,486	-0,079	-0,012
-439,007	-200,000	-0,012	0,139
-437,992	-200,000	-0,003	0,086
-436,978	-200,000	0,001	0,065
-435,963	485,189	0,055	0,091
-434,949	-88,031	0,169	-0,037
-433,934	-85,750	-0,119	0,027
-432,919	193,986	-0,014	0,016
-431,905	16,134	0,056	0,032
-430,890	123,171	0,064	-0,058
-429,876	-42,832	0,098	-0,036
-428,861	34,477	0,025	0,016
-427,846	65,070	0,102	-0,075
-426,832	138,315	-0,115	0,110
-425,817	-31,240	-0,039	-0,016
-424,803	626,694	0,082	0,152
-423,788	800,000	0,027	0,059
-422,773	210,991	-0,051	0,058
-421,759	-103,140	-0,178	0,030
-420,744	-120,161	-0,162	0,020
-419,730	-200,000	-0,020	-0,072
-418,715	188,466	0,048	-0,053
-417,701	800,000	0,058	-0,129
-416,686	-72,426	-0,102	0,027
-415,671	144,909	0,139	0,135
-414,657	63,871	0,061	0,045
-413,642	-72,294	0,010	-0,003
-412,628	-200,000	0,021	0,096
-411,613	52,307	-0,090	-0,062
-410,598	800,000	-0,066	-0,134
-409,584	256,582	0,025	-0,031
-408,569	-200,000	-0,026	0,090
-407,555	800,000	-0,061	0,147
-406,540	17,887	-0,112	0,065
-405,525	-200,000	0,031	-0,133
-404,511	-200,000	0,014	-0,044
-403,496	533,824	0,060	-0,104
-402,482	-200,000	-0,002	-0,035
-401,467	247,687	-0,065	-0,080
-400,452	-11,184	-0,032	-0,015
-399,438	104,435	-0,007	-0,006
-398,423	-200,000	0,026	0,122
-397,409	240,220	-0,052	-0,063
-396,394	-67,943	-0,105	-0,030
-395,379	58,869	0,154	0,110
-394,365	92,550	0,025	0,020
-393,350	800,000	0,045	-0,096
-392,336	-200,000	-0,031	-0,134
-391,321	-50,138	-0,120	0,041
-390,306	-200,000	0,001	-0,018
-389,292	328,199	-0,062	-0,087
-388,277	-39,182	-0,083	-0,032
-387,263	800,000	0,035	-0,096
-386,248	-152,007	0,144	-0,008
-385,233	-118,010	0,213	0,027
-384,219	-60,017	0,044	-0,014
-383,204	-74,501	-0,066	0,017
-382,190	-21,387	-0,245	-0,108
-381,175	-144,416	0,159	0,011
-380,160	800,000	-0,013	0,027
-379,146	-55,634	0,035	0,011
-378,131	451,668	-0,066	-0,106
-377,117	-32,461	-0,047	-0,019
-376,102	256,977	-0,081	0,101
-375,088	-39,452	-0,084	-0,032
-374,073	764,754	-0,015	-0,031
-373,058	260,451	-0,061	0,077
-372,044	739,297	0,076	0,149
-371,029	-200,000	-0,008	-0,069
-370,015	-200,000	-0,002	-0,096
-369,000	173,238	-0,098	0,103
-367,985	173,333	-0,023	-0,024
-366,971	8,083	0,102	-0,056
-365,956	800,000	0,072	0,150
-364,942	-200,000	0,002	0,044
-363,927	-200,000	-0,022	-0,086
-362,912	83,748	-0,079	0,062
-361,898	158,647	-0,095	-0,096
-360,883	800,000	-0,010	-0,025
-359,869	436,234	0,059	-0,093
-358,854	-200,000	-0,008	0,119
-357,839	-39,307	0,085	-0,032
-356,825	254,315	-0,009	0,012
-355,810	47,041	0,103	-0,069
-354,796	-200,000	0,022	-0,118
-353,781	800,000	0,019	0,057
-352,766	-200,000	-0,020	-0,083
-351,752	800,000	-0,043	-0,119
-350,737	36,955	0,090	-0,058
-349,723	-29,342	0,135	-0,056
-348,708	-200,000	0,004	0,090
-347,693	0,263	0,044	0,023
-346,679	-158,047	-0,027	-0,001
-345,664	410,382	0,086	-0,132
-344,650	-66,509	-0,067	-0,019
-343,635	312,587	0,022	0,030
-342,620	160,209	0,112	0,113
-341,606	800,000	0,049	-0,109
-340,591	22,938	0,083	0,049
-339,577	485,621	0,063	-0,104
-338,562	-200,000	-0,042	-0,145
-337,548	32,988	-0,083	0,052
-336,533	-30,997	0,056	0,023
-335,518	-17,872	0,222	0,100
-334,504	-115,869	0,074	-0,010
-333,489	-17,938	-0,042	0,019
-332,475	-200,000	0,010	-0,166
-331,460	71,460	-0,158	-0,119
-330,445	800,000	0,040	0,127
-329,431	-113,361	0,192	-0,027
-328,416	219,522	0,013	-0,015
-327,402	99,347	-0,085	-0,072
-326,387	-200,000	-0,005	0,143
-325,372	186,433	-0,036	0,039
-324,358	-38,624	-0,064	-0,024
-323,343	223,844	-0,072	-0,084
-322,329	800,000	0,040	0,113
-321,314	-62,388	0,046	-0,014
-320,299	395,375	-0,022	-0,034
-319,285	400,341	-0,037	-0,057
-318,270	37,215	0,168	0,108
-317,256	-110,037	0,047	-0,007
-316,241	800,000	-0,004	-0,013
-315,226	-200,000	-0,005	-0,059
-314,212	-142,126	0,187	0,013
-313,197	-200,000	0,012	0,067
-312,183	6,040	0,040	-0,022
-311,168	-7,193	-0,116	0,057
-310,153	-200,000	-0,002	0,123
-309,139	-118,683	0,075	-0,009
-308,124	784,843	0,067	0,134
-307,110	110,625	-0,040	0,035
-306,095	800,000	0,005	0,015
-305,080	-82,953	0,031	0,007
-304,066	28,030	-0,030	0,018
-303,051	-117,304	0,064	-0,008
-302,037	-200,000	0,010	-0,033
-301,022	-32,853	0,037	-0,015
-300,008	-167,427	0,070	-0,002
-298,993	43,104	-0,128	0,084
-297,978	-94,174	-0,122	0,024
-296,964	144,314	-0,063	-0,061
-295,949	-77,177	0,110	0,027
-294,935	-95,725	-0,060	0,012
-293,920	94,642	0,082	0,068
-292,905	800,000	0,079	0,189
-291,891	-200,000	0,006	-0,052
-290,876	436,615	-0,015	-0,024
-289,862	-43,476	-0,075	-0,027
-288,847	-170,371	-0,055	-0,001
-287,832	800,000	0,039	0,084
-286,818	-46,457	-0,102	-0,036
-285,803	56,381	0,078	-0,055
-284,789	-33,269	0,084	-0,033
-283,774	-200,000	-0,009	-0,118
-282,759	-200,000	0,002	-0,039
-281,745	225,655	-0,043	0,050
-280,730	-200,000	-0,032	-0,103
-279,716	33,250	-0,035	-0,022
-278,701	85,516	-0,062	0,049
-277,686	-200,000	-0,009	0,035
-276,672	-100,359	0,149	-0,027
-275,657	-54,238	-0,039	0,013
-274,643	614,274	-0,068	-0,123
-273,628	-17,190	-0,069	-0,031
-272,613	-134,370	-0,055	0,005
-271,599	-200,000	-0,001	-0,115
-270,584	-155,067	0,082	0,004
-269,570	800,000	-0,039	0,104
-268,555	170,634	0,037	0,038
-267,540	355,808	-0,056	-0,080
-266,526	86,131	0,044	-0,035
-265,511	272,849	-0,054	-0,069
-264,497	247,450	-0,065	0,079
-263,482	159,468	0,045	0,045
-262,467	800,000	0,057	0,129
-261,453	36,581	0,096	0,061
-260,438	233,697	-0,031	0,037
-259,424	-2,029	-0,108	-0,055
-258,409	13,120	0,020	0,011
-257,395	-200,000	0,012	-0,042
-256,380	-59,649	0,124	0,038
-255,365	-136,639	-0,071	-0,006
-254,351	800,000	-0,049	0,111
-253,336	-23,046	0,061	-0,026
-252,322	-116,941	0,037	-0,005
-251,307	-130,237	0,163	-0,016
-250,292	-200,000	0,013	0,067
-249,278	83,244	-0,056	-0,044
-248,263	-66,294	-0,072	-0,020
-247,249	-44,701	0,125	0,045
-246,234	-200,000	-0,011	-0,111
-245,219	22,152	-0,093	-0,055
-244,205	-83,567	0,161	-0,037
-243,190	-200,000	-0,029	-0,092
-242,176	8,811	0,117	-0,063
-241,161	800,000	-0,045	0,116
-240,146	88,502	-0,071	0,057
-239,132	-118,272	0,102	0,013
-238,117	263,672	-0,050	-0,062
-237,103	800,000	0,036	-0,077
-236,088	-200,000	0,010	0,054
-235,073	134,643	0,085	-0,080
-234,059	283,513	-0,036	0,047
-233,044	-200,000	-0,127	-0,000
-232,030	-172,407	-0,088	0,002
-231,015	640,044	0,030	-0,055
-230,000	-200,000	-0,002	-0,030
-228,986	-200,000	-0,025	0,086
-227,971	-113,851	0,071	0,010
-226,957	-161,399	0,066	0,002
-225,942	-5,215	0,095	0,047
-224,927	21,533	0,099	0,058
-223,913	-25,587	-0,094	-0,040
-222,898	232,500	-0,096	-0,114
-221,884	800,000	-0,052	-0,107
-220,869	-39,051	0,084	0,032
-219,855	-200,000	-0,010	0,188
-218,840	156,143	-0,040	-0,039
-217,825	800,000	-0,040	-0,117
-216,811	387,262	0,064	0,095
-215,796	2,647	-0,160	-0,084
-214,782	178,877	-0,019	-0,020
-213,767	-200,000	0,010	-0,095
-212,752	229,295	-0,022	0,026
-211,738	-7,271	-0,008	0,004
-210,723	-200,000	0,016	0,127
-209,709	-70,492	-0,121	-0,033
-208,694	-3,282	0,062	-0,031
-207,679	-112,895	-0,110	0,016
-206,665	711,221	-0,027	-0,051
-205,650	-200,000	-0,006	-0,083
-204,636	800,000	-0,024	-0,054
-203,621	-200,000	-0,015	0,101
-202,606	-200,000	0,026	0,101
-201,592	-34,868	-0,146	-0,057
-200,577	10,161	-0,134	0,074
-199,563	29,272	0,119	-0,073
-198,548	-200,000	0,004	-0,113
-197,533	7,579	-0,108	-0,058
-196,519	-125,317	0,038	-0,004
-195,504	65,527	-0,037	-0,027
-194,490	800,000	-0,064	-0,178
-193,475	-53,798	-0,104	-0,034
-192,460	347,220	0,123	-0,175
-191,446	-200,000	-0,014	-0,066
-190,431	-161,959	-0,026	-0,001
-189,417	-93,271	0,071	0,014
-188,402	800,000	0,059	0,145
-187,387	-28,048	-0,109	-0,045
-186,373	-150,335	-0,096	0,005
-185,358	-13,301	-0,057	0,027
-184,344	-200,000	-0,027	-0,180
-183,329	60,354	0,137	0,097
-182,315	800,000	0,053	0,119
-181,300	-22,565	0,040	0,017
-180,285	-200,000	0,007	-0,148
-179,271	734,848	-0,079	0,153
-178,256	77,963	0,066	-0,051
-177,242	213,735	0,079	0,090
-176,227	295,347	0,011	-0,015
-175,212	-200,000	-0,004	0,081
-174,198	86,954	-0,171	0,136
-173,183	800,000	-0,077	0,176
-172,169	-200,000	-0,002	-0,058
-171,154	42,208	0,080	0,052
-170,139	145,845	0,036	-0,034
-169,125	-200,000	0,022	-0,090
-168,110	30,232	0,092	0,056
-167,096	-79,433	-0,137	0,033
-166,081	-186,547	-0,060	0,001
-165,066	-145,070	-0,124	0,008
-164,052	-200,000	0,010	-0,074
-163,037	209,184	-0,029	-0,033
-162,023	60,629	0,120	0,086
-161,008	-200,000	-0,009	-0,175
-159,993	174,093	0,057	0,059
-158,979	84,187	0,029	-0,023
-157,964	-62,672	-0,154	0,046
-156,950	-171,724	0,064	-0,001
-155,935	-129,580	0,113	-0,011
-154,920	697,719	0,045	-0,085
-153,906	36,853	0,130	0,083
-152,891	-59,999	0,071	0,022
-151,877	-46,378	-0,081	0,029
-150,862	-43,913	-0,039	0,014
-149,847	-68,542	-0,264	0,073
-148,833	800,000	0,042	0,093
-147,818	18,957	-0,026	0,015
-146,804	800,000	0,005	0,015
-145,789	-200,000	-0,007	0,046
-144,775	328,482	-0,060	-0,083
-143,760	800,000	-0,011	-0,035
-142,745	-200,000	0,003	-0,124
-141,731	-167,781	-0,115	0,003
-140,716	-108,228	-0,158	0,024
-139,702	22,647	0,160	-0,094
-138,687	156,393	0,119	0,118
-137,672	-82,997	-0,058	-0,013
-136,658	-200,000	-0,045	-0,172
-135,643	-200,000	0,011	-0,042
-134,629	-65,709	0,129	-0,037
-133,614	-115,484	0,117	-0,016
-132,599	-121,305	0,098	0,012
-131,585	-23,044	-0,105	-0,045
-130,570	40,110	-0,102	-0,066
-129,556	163,853	0,009	0,009
-128,541	227,599	0,044	0,052
-127,526	161,955	-0,096	-0,097
-126,512	-72,686	-0,056	0,015
-125,497	186,175	0,050	-0,053
-124,483	579,175	0,090	0,160
-123,468	800,000	0,002	0,004
-122,453	580,509	-0,021	-0,038
-121,439	-121,250	-0,072	0,009
-120,424	-200,000	0,023	0,075
-119,410	-200,000	0,005	0,028
-118,395	8,612	-0,100	0,054
-117,380	-5,129	0,138	0,068
-116,366	107,126	0,065	-0,056
-115,351	-36,603	-0,105	0,041
-114,337	343,496	-0,040	0,057
-113,322	-200,000	-0,022	-0,122
-112,307	800,000	-0,022	-0,048
-111,293	-200,000	0,015	0,135
-110,278	-73,501	0,087	0,023
-109,264	10,826	0,102	-0,056
-108,249	800,000	-0,010	-0,027
-107,234	-28,045	0,042	0,018
-106,220	-200,000	0,002	-0,064
-105,205	-200,000	0,010	0,086
-104,191	-72,359	0,078	-0,021
-103,176	-9,784	0,088	0,042
-102,162	129,485	-0,098	-0,090
-101,147	-167,595	0,071	-0,002
-100,132	520,414	0,023	-0,039
-99,118	98,598	-0,040	-0,034
-98,103	-29,706	-0,057	-0,023
-97,089	-6,600	0,099	0,048
-96,074	-148,442	0,107	-0,006
-95,059	-200,000	0,003	0,056
-94,045	-11,532	0,033	0,015
-93,030	43,511	-0,214	-0,141
-92,016	-68,570	0,161	-0,044
-91,001	-200,000	0,004	0,096
-89,986	545,577	0,054	0,093
-88,972	-200,000	0,007	0,041
-87,957	-200,000	0,005	0,052
-86,943	800,000	0,015	0,046
-85,928	-20,225	-0,052	0,023
-84,913	-36,588	-0,005	0,002
-83,899	10,936	0,065	-0,035
-82,884	-200,000	-0,006	0,061
-81,870	680,338	-0,045	-0,085
-80,855	800,000	-0,024	0,058
-79,840	83,348	0,074	-0,058
-78,826	259,710	-0,076	-0,094
-77,811	-200,000	0,004	-0,026
-76,797	800,000	0,045	0,141
-75,782	52,297	-0,039	-0,027
-74,767	51,386	-0,154	0,105
-73,753	-148,174	-0,101	-0,006
-72,738	-21,844	-0,074	0,032
-71,724	-115,398	0,041	0,006
-70,709	-21,522	-0,111	0,048
-69,694	800,000	0,029	0,073
-68,680	198,217	0,107	0,117
-67,665	800,000	0,073	0,149
-66,651	560,903	0,093	0,162
-65,636	368,560	0,038	0,055
-64,622	-46,989	0,145	-0,051
-63,607	800,000	0,026	-0,065
-62,592	68,369	0,057	0,042
-61,578	800,000	-0,026	0,081
-60,563	-200,000	0,014	0,097
-59,549	-23,271	0,072	0,031
-58,534	8,314	-1,984	-1,067
-57,519	800,000	-0,345	-0,889
-56,505	-200,000	-1,261	-4,971
-55,490	60,279	0,721	0,512
-54,476	800,000	5,362	11,982
-53,461	-200,000	18,077	297,201
-52,446	800,000	732,301	2256,919
-51,432	541,691	1648,888	2830,915
-50,417	109,244	1637,423	1406,031
-49,403	74,305	1288,059	969,933
-48,388	31,147	1028,028	631,392
-47,373	20,153	989,775	571,620
-46,359	18,129	977,617	557,940
-45,344	14,972	973,781	545,390
-44,330	15,265	972,391	545,549
-43,315	14,690	970,248	542,446
-42,300	14,666	969,271	541,802
-41,286	14,715	968,211	541,348
-40,271	14,628	967,245	540,503
-39,257	14,655	966,287	540,033
-38,242	14,704	965,400	539,674
-37,227	14,680	964,718	539,193
-36,213	14,663	963,720	538,559
-35,198	14,687	962,740	538,069
-34,184	14,691	962,214	537,766
-33,169	14,641	961,208	537,021
-32,154	14,691	960,326	536,667
-31,140	14,705	959,357	536,152
-30,125	14,757	958,607	535,880
-29,111	14,708	957,905	535,306
-28,096	14,751	956,968	534,901
-27,082	14,748	956,369	534,535
-26,067	14,718	955,717	534,053
-25,052	14,764	954,840	533,690
-24,038	14,696	954,183	533,081
-23,023	14,653	953,794	532,706
-22,009	14,654	953,125	532,315
-20,994	14,651	952,488	531,929
-19,979	14,724	951,459	531,564
-18,965	14,706	951,142	531,311
-17,950	14,681	950,352	530,769
-16,936	14,655	949,827	530,371
-15,921	14,663	949,190	530,018
-14,906	14,561	948,533	529,306
-13,892	14,571	947,679	528,839
-12,877	14,589	946,978	528,484
-11,863	14,547	946,416	528,016
-10,848	14,527	945,928	527,659
-9,833	14,675	945,613	527,935
-8,819	14,647	944,933	527,443
-7,804	14,624	944,132	526,905
-6,790	14,628	943,672	526,638
-5,775	14,660	943,007	526,349
-4,760	14,657	942,273	525,909
-3,746	14,578	941,772	525,358
-2,731	14,444	941,298	524,646
-1,717	14,441	940,418	524,126
-0,702	14,456	939,846	523,835
0,313	14,248	939,061	523,531
1,327	17,449	936,915	532,375
2,342	26,347	793,345	474,357
3,356	22,738	458,776	268,767
4,371	-4,068	315,031	155,991
5,386	-8,222	297,013	142,840
6,400	-10,237	290,835	137,851
7,415	-10,385	288,102	136,398
8,429	-10,600	286,874	135,593
9,444	-10,716	285,841	134,979
10,459	-10,667	285,270	134,746
11,473	-10,502	284,627	134,590
12,488	-10,634	284,239	134,267
13,502	-10,445	283,678	134,173
14,517	-10,591	283,196	133,792
15,531	-10,609	282,851	133,600
16,546	-10,571	282,378	133,401
17,561	-10,681	282,136	133,169
18,575	-10,473	281,796	133,196
19,590	-10,601	281,382	132,866
20,604	-10,499	281,028	132,785
21,619	-10,508	280,632	132,577
22,634	-10,479	280,282	132,428
23,648	-10,759	280,218	132,117
24,663	-10,745	279,772	131,909
25,677	-10,740	279,516	131,781
26,692	-10,699	279,328	131,720
27,707	-10,500	278,923	131,707
28,721	-10,674	278,739	131,442
29,736	-10,519	278,327	131,384
30,750	-10,530	278,131	131,269
31,765	-10,526	277,901	131,153
32,780	-10,472	277,555	131,029
33,794	-10,519	277,335	130,869
34,809	-10,459	277,075	130,791
35,823	-10,599	276,960	130,593
36,838	-10,648	276,660	130,394
37,853	-10,665	276,278	130,186
38,867	-10,528	275,997	130,171
39,882	-10,599	275,924	130,058
40,896	-10,685	275,550	129,789
41,911	-10,658	275,254	129,664
42,926	-10,726	275,245	129,584
43,940	-10,602	274,873	129,514
44,955	-10,808	274,791	129,271
45,969	-10,666	274,388	129,202
46,984	-10,967	274,318	128,875
47,999	-10,841	273,802	128,740
49,013	-10,969	273,664	128,544
50,028	-10,975	273,386	128,396
51,042	-11,208	273,156	128,060
52,057	-11,317	272,913	127,833
53,071	-11,274	272,615	127,722
54,086	-11,092	272,504	127,828
55,101	-10,716	272,180	128,013
56,115	-10,804	272,173	127,917
57,130	-10,552	272,081	128,096
58,144	-10,466	271,776	128,020
59,159	-10,452	271,496	127,890
60,174	-10,432	271,336	127,822
61,188	-10,456	271,110	127,682
62,203	-10,508	270,895	127,521
63,217	-10,370	270,726	127,558
64,232	-10,354	270,453	127,432
65,247	-10,402	270,130	127,225
66,261	-10,465	270,018	127,102
67,276	-10,521	269,708	126,894
68,290	-10,823	269,541	126,527
69,305	-10,950	269,280	126,277
70,320	-10,833	269,046	126,262
71,334	-10,591	269,002	126,452
72,349	-10,459	268,751	126,444
73,363	-10,512	268,516	126,273
74,378	-10,437	268,248	126,205
75,393	-10,372	268,095	126,181
76,407	-10,484	267,883	125,967
77,422	-10,336	267,572	125,945
78,436	-10,235	267,256	125,877
79,451	-10,395	267,140	125,665
80,466	-10,610	266,878	125,336
81,480	-10,474	266,616	125,325
82,495	-10,756	266,522	125,014
83,509	-10,708	266,322	124,953
84,524	-10,500	266,004	124,981
85,539	-10,446	265,830	124,936
86,553	-10,774	265,526	124,486
87,568	-10,635	265,301	124,495
88,582	-10,756	265,212	124,333
89,597	-10,692	264,879	124,223
90,611	-10,614	264,988	124,334
91,626	-10,494	264,649	124,271
92,641	-10,463	264,415	124,178
93,655	-10,432	264,306	124,144
94,670	-10,428	263,883	123,938
95,684	-10,464	263,726	123,820
96,699	-10,601	263,672	123,662
97,714	-10,673	263,547	123,527
98,728	-10,890	263,411	123,259
99,743	-10,824	262,863	123,050
100,757	-10,993	262,767	122,844
101,772	-10,734	262,605	122,987
102,787	-10,586	262,399	123,012
103,801	-10,523	262,112	122,923
104,816	-10,535	261,942	122,821
105,830	-10,329	261,908	122,978
106,845	-10,399	261,714	122,813
107,860	-10,544	261,443	122,547
108,874	-10,520	261,171	122,429
109,889	-10,523	260,987	122,330
110,903	-10,649	260,728	122,086
111,918	-10,543	260,650	122,132
112,933	-10,359	260,297	122,118
113,947	-10,508	260,352	122,001
114,962	-10,442	260,011	121,890
115,976	-10,516	259,880	121,752
116,991	-10,611	259,806	121,623
118,006	-10,587	259,658	121,563
119,020	-10,380	259,429	121,627
120,035	-10,546	259,298	121,409
121,049	-10,310	258,974	121,454
122,064	-10,549	258,959	121,226
123,079	-10,433	258,576	121,138
124,093	-10,579	258,459	120,945
125,108	-10,631	258,102	120,721
126,122	-10,988	258,006	120,354
127,137	-11,063	257,710	120,139
128,151	-10,719	257,539	120,349
129,166	-10,728	257,416	120,273
130,181	-10,649	257,030	120,151
131,195	-10,671	256,854	120,038
132,210	-10,484	256,783	120,157
133,224	-10,532	256,487	119,966
134,239	-10,501	256,538	120,006
135,254	-10,683	256,411	119,778
136,268	-10,502	255,992	119,729
137,283	-10,827	255,760	119,328
138,297	-10,961	255,676	119,162
139,312	-10,827	255,290	119,087
140,327	-10,646	255,326	119,250
141,341	-10,426	255,047	119,299
142,356	-10,447	254,876	119,190
143,370	-10,373	254,801	119,209
144,385	-10,341	254,756	119,204
145,400	-10,313	254,393	119,048
146,414	-10,402	254,251	118,894
147,429	-10,413	253,979	118,747
148,443	-10,346	253,925	118,769
149,458	-10,142	253,815	118,882
150,473	-10,390	253,474	118,499
151,487	-10,613	253,383	118,255
152,502	-10,542	253,166	118,203
153,516	-10,384	252,865	118,188
154,531	-10,207	252,820	118,307
155,546	-10,364	252,688	118,100
156,560	-10,437	252,482	117,932
157,575	-10,648	252,237	117,627
158,589	-10,555	252,019	117,594
159,604	-10,374	251,748	117,611
160,619	-10,519	251,691	117,451
161,633	-10,353	251,457	117,472
162,648	-10,268	251,380	117,498
163,662	-10,243	251,185	117,417
164,677	-10,313	250,995	117,258
165,692	-10,330	250,926	117,202
166,706	-10,469	250,675	116,956
167,721	-10,401	250,471	116,908
168,735	-10,194	250,360	117,021
169,750	-10,314	250,119	116,796
170,764	-10,292	250,077	116,784
171,779	-10,402	249,954	116,625
172,794	-10,270	249,699	116,606
173,808	-10,420	249,586	116,417
174,823	-10,754	249,133	115,914
175,837	-10,585	248,784	115,884
176,852	-10,613	249,009	115,955
177,867	-10,414	248,876	116,049
178,881	-10,276	248,791	116,115
179,896	-10,153	248,438	116,043
180,910	-10,338	248,292	115,809
181,925	-10,066	248,091	115,933
182,940	-10,148	247,954	115,790
183,954	-10,180	247,739	115,652
184,969	-10,298	247,564	115,462
185,983	-10,244	247,519	115,476
186,998	-10,267	247,418	115,399
188,013	-10,353	247,082	115,160
189,027	-10,326	246,936	115,105
190,042	-10,241	246,804	115,104
191,056	-10,312	246,573	114,927
192,071	-10,164	246,372	114,945
193,086	-10,352	246,197	114,698
194,100	-10,303	246,045	114,657
195,115	-10,191	245,946	114,694
196,129	-10,108	245,552	114,568
197,144	-10,310	245,416	114,327
198,159	-10,228	245,301	114,331
199,173	-10,414	245,041	114,047
200,188	-10,330	244,871	114,026
201,202	-10,529	244,633	113,742
202,217	-10,733	244,462	113,485
203,232	-10,922	244,125	113,163
204,246	-10,367	244,331	113,704
205,261	-10,190	244,066	113,717
206,275	-11,149	243,648	112,725
207,290	-6,390	245,503	117,500
208,304	1,195	247,915	124,944
209,319	4,067	248,703	127,715
210,334	4,543	248,629	128,060
211,348	4,638	248,592	128,108
212,363	5,002	248,567	128,386
213,377	5,145	248,269	128,338
214,392	5,120	248,162	128,251
215,407	4,784	247,964	127,860
216,421	4,753	247,725	127,700
217,436	5,072	247,692	127,934
218,450	5,213	247,563	127,973
219,465	4,807	247,327	127,505
220,480	4,720	247,163	127,337
221,494	4,494	246,990	127,051
222,509	4,641	246,797	127,061
223,523	4,642	246,729	127,016
224,538	4,209	246,343	126,450
225,553	4,301	246,276	126,480
226,567	4,563	246,034	126,559
227,582	4,504	246,027	126,495
228,596	4,595	245,656	126,369
229,611	4,126	245,540	125,914
230,626	4,241	245,304	125,876
231,640	4,287	245,199	125,848
232,655	4,236	245,054	125,721
233,669	4,448	244,694	125,698
234,684	4,351	244,636	125,577
235,699	4,415	244,601	125,601
236,713	4,801	244,490	125,846
237,728	4,351	244,205	125,323
238,742	4,075	243,985	124,974
239,757	3,878	243,849	124,734
240,772	4,195	243,488	124,795
241,786	4,449	243,589	125,041
242,801	4,376	243,391	124,869
243,815	4,127	243,286	124,603
244,830	4,429	243,085	124,733
245,844	4,378	242,999	124,637
246,859	4,321	242,800	124,478
247,874	4,173	242,603	124,246
248,888	4,488	242,462	124,417
249,903	4,398	242,405	124,303
250,917	4,556	242,393	124,413
251,932	4,826	242,065	124,451
252,947	4,765	241,898	124,305
253,961	4,393	241,699	123,894
254,976	4,492	241,488	123,853
255,990	4,571	241,319	123,820
257,005	4,295	241,263	123,558
258,020	4,173	241,051	123,342
259,034	4,460	240,822	123,442
260,049	4,503	240,795	123,452
261,063	4,141	240,574	123,038
262,078	4,104	240,505	122,963
263,093	4,449	240,490	123,219
264,107	4,583	240,280	123,208
265,122	4,437	239,977	122,925
266,136	4,179	239,959	122,700
267,151	4,591	239,880	122,977
268,166	4,163	239,589	122,475
269,180	4,143	239,415	122,360
270,195	4,673	239,535	122,831
271,209	4,877	239,280	122,852
272,224	4,351	238,992	122,276
273,239	4,080	238,705	121,904
274,253	3,891	238,706	121,743
275,268	4,230	238,611	121,953
276,282	4,605	238,430	122,146
277,297	4,100	238,120	121,577
278,312	4,213	238,075	121,633
279,326	4,490	237,871	121,736
280,341	4,307	237,789	121,539
281,355	4,352	237,724	121,530
282,370	4,513	237,388	121,474
283,384	4,300	237,337	121,270
284,399	4,189	237,145	121,073
285,414	3,983	236,946	120,800
286,428	4,182	236,872	120,907
287,443	4,248	236,586	120,802
288,457	4,424	236,581	120,927
289,472	4,555	236,497	120,976
290,487	4,613	236,189	120,853
291,501	4,251	236,069	120,498
292,516	4,025	235,845	120,196
293,530	4,112	235,621	120,139
294,545	4,339	235,709	120,350
295,560	4,247	235,562	120,193
296,574	3,960	235,138	119,743
297,589	4,157	235,139	119,886
298,603	4,406	235,046	120,021
299,618	4,558	235,007	120,109
300,633	4,262	234,837	119,781
301,647	4,658	234,715	120,016
302,662	4,828	234,721	120,140
303,676	4,908	234,446	120,050
304,691	4,906	234,212	119,919
305,706	4,818	234,140	119,803
306,720	4,616	234,003	119,566
307,735	4,675	233,720	119,456
308,749	4,416	233,612	119,190
309,764	4,195	233,299	118,850
310,779	4,076	233,238	118,716
311,793	4,132	232,872	118,562
312,808	3,829	232,711	118,236
313,822	3,703	232,644	118,095
314,837	3,790	232,507	118,081
315,852	4,064	232,473	118,265
316,866	4,564	232,425	118,613
317,881	4,757	232,141	118,605
318,895	4,592	232,072	118,434
319,910	4,634	231,952	118,394
320,925	3,974	231,815	117,808
321,939	4,115	231,527	117,759
322,954	4,405	231,632	118,024
323,968	4,703	231,436	118,141
324,983	4,430	231,198	117,801
325,997	4,530	231,190	117,863
327,012	4,704	231,025	117,900
328,027	4,433	230,815	117,577
329,041	4,673	230,579	117,628
330,056	5,214	230,647	118,064
331,070	5,061	230,567	117,896
332,085	4,725	230,192	117,439
333,100	4,752	230,009	117,356
334,114	4,503	229,882	117,092
335,129	4,733	229,914	117,272
336,143	4,906	229,772	117,320
337,158	4,627	229,582	117,002
338,173	4,520	229,258	116,745
339,187	4,416	229,179	116,616
340,202	4,776	229,059	116,816
341,216	4,641	228,860	116,603
342,231	4,254	228,733	116,236
343,246	4,387	228,611	116,264
344,260	4,659	228,497	116,400
345,275	4,548	228,406	116,259
346,289	4,855	228,268	116,410
347,304	4,646	228,176	116,196
348,319	4,774	227,870	116,125
349,333	4,380	227,735	115,751
350,348	4,464	227,536	115,702
351,362	4,292	227,411	115,499
352,377	4,016	227,232	115,192
353,392	3,759	227,098	114,921
354,406	4,110	226,990	115,119
355,421	194,258	1321,297	1393,792
356,435	155,697	1454,593	1393,781
