DTS Sentinel unit serial number:	SN410029Multiplexer serial number:	ORYXHardware model number:	OX2-SRSoftware version number:	ORYX F/W v4,00 Oryx Data Collector v3.7.2.0data status	okinstallation	B5 Nyhavnadifferential loss correction	single-endedforward channel	channel 2reverse channel	N/Adate	2023/12/14time	00:12:13forward acquisition time	300,00reverse acquisition time	0,00gamma	499,1914k internal	0,3154k external	0,3154temperature offset calibration	1,0000default loss term (dB/km)	0,3820temperature slope calibration	1,0000multiplexer offset coefficient	1,0000multiplexer slope coefficient	1,0000fibre end	0,00T internal ref (°C)	8,69T ext. ref 1 (°C)	-7,47T ext. ref 2 (°C)	-7,50length (m)	temperature (°C)	Stokes	anti-Stokes-744,400	-87,612	0,191	-0,042
-743,385	-117,090	-0,406	-0,054
-742,371	-200,000	0,027	0,187
-741,356	-146,134	-0,296	0,019
-740,342	800,000	0,075	0,190
-739,327	-141,658	-0,325	-0,024
-738,312	81,952	0,103	0,082
-737,298	-86,504	-0,419	-0,094
-736,283	253,997	0,051	0,064
-735,269	-107,885	-0,344	-0,055
-734,254	-27,629	0,176	0,075
-733,239	-67,696	-0,515	-0,148
-732,225	-100,206	0,281	0,051
-731,210	30,773	-0,089	0,056
-730,196	27,000	0,112	-0,069
-729,181	-43,544	0,019	0,007
-728,167	78,049	0,025	-0,020
-727,152	-200,000	0,004	-0,057
-726,137	-94,733	-0,157	-0,031
-725,123	199,443	-0,058	-0,065
-724,108	342,633	-0,094	0,137
-723,094	-38,859	-0,060	-0,023
-722,079	-73,826	-0,119	-0,032
-721,064	-200,000	0,012	-0,133
-720,050	-28,685	-0,119	0,050
-719,035	-200,000	0,005	-0,101
-718,021	27,659	-0,159	-0,099
-717,006	-104,240	-0,018	0,003
-715,991	-27,009	-0,128	-0,055
-714,977	103,924	-0,018	-0,016
-713,962	176,529	0,127	-0,136
-712,948	-95,862	-0,012	0,002
-711,933	800,000	0,046	-0,130
-710,918	122,153	-0,032	0,029
-709,904	800,000	0,022	0,054
-708,889	-46,467	-0,195	-0,070
-707,875	151,984	-0,042	-0,042
-706,860	800,000	-0,018	-0,040
-705,845	800,000	-0,035	0,097
-704,831	-2,172	0,103	-0,053
-703,816	-102,355	0,098	0,017
-702,802	-125,252	-0,098	0,011
-701,787	466,975	-0,046	0,076
-700,772	92,982	-0,043	-0,036
-699,758	800,000	0,061	-0,138
-698,743	-200,000	-0,002	0,063
-697,729	-159,024	-0,056	0,002
-696,714	-200,000	0,019	0,063
-695,699	319,980	0,025	0,035
-694,685	-200,000	0,016	-0,060
-693,670	-99,447	-0,142	0,026
-692,656	-150,636	-0,113	0,006
-691,641	122,742	0,133	0,122
-690,627	-40,601	-0,091	0,035
-689,612	29,895	0,068	-0,042
-688,597	-200,000	0,008	-0,055
-687,583	437,789	-0,130	-0,209
-686,568	800,000	-0,015	0,048
-685,554	800,000	-0,030	0,076
-684,539	-200,000	-0,001	0,122
-683,524	800,000	-0,012	0,026
-682,510	-200,000	-0,010	-0,086
-681,495	370,103	0,052	0,078
-680,481	32,165	0,069	-0,044
-679,466	-21,984	-0,146	-0,065
-678,451	98,542	-0,076	-0,064
-677,437	-80,095	0,157	0,038
-676,422	-70,269	-0,012	0,003
-675,408	-200,000	0,015	-0,157
-674,393	149,971	-0,117	0,117
-673,378	130,746	-0,049	0,047
-672,364	-200,000	-0,009	0,130
-671,349	-4,430	0,030	0,015
-670,335	-100,482	0,096	-0,017
-669,320	800,000	0,037	0,095
-668,305	79,058	-0,080	-0,063
-667,291	800,000	0,057	-0,118
-666,276	-41,749	-0,100	0,038
-665,262	11,996	-0,155	0,087
-664,247	800,000	0,022	-0,054
-663,232	82,330	-0,012	-0,009
-662,218	-40,806	0,063	0,024
-661,203	41,083	-0,085	0,056
-660,189	93,098	0,027	-0,023
-659,174	299,460	-0,065	-0,088
-658,159	-200,000	-0,045	0,168
-657,145	800,000	0,032	-0,095
-656,130	99,935	0,073	-0,062
-655,116	800,000	-0,024	0,059
-654,101	615,678	-0,041	0,076
-653,086	-33,467	0,085	0,034
-652,072	-50,285	-0,126	-0,044
-651,057	5,437	0,069	-0,037
-650,043	-128,163	-0,106	0,011
-649,028	800,000	0,009	-0,027
-648,014	484,682	-0,026	-0,044
-646,999	-33,831	0,167	-0,067
-645,984	800,000	-0,031	0,093
-644,970	-200,000	-0,021	-0,075
-643,955	-200,000	0,021	0,079
-642,941	-79,757	-0,081	0,020
-641,926	-200,000	0,004	0,052
-640,911	-200,000	-0,028	0,105
-639,897	-200,000	-0,017	-0,119
-638,882	537,457	-0,086	0,151
-637,868	-200,000	-0,035	0,213
-636,853	-200,000	-0,023	0,138
-635,838	-90,050	-0,103	-0,022
-634,824	-100,307	-0,187	-0,034
-633,809	800,000	-0,021	0,058
-632,795	-123,408	-0,046	0,005
-631,780	388,984	0,091	0,139
-630,765	800,000	-0,009	-0,025
-629,751	34,550	-0,100	-0,064
-628,736	800,000	0,039	-0,117
-627,722	800,000	-0,035	-0,106
-626,707	197,689	0,146	-0,164
-625,692	553,879	-0,034	-0,060
-624,678	-43,432	0,014	-0,005
-623,663	-200,000	0,007	0,068
-622,649	-200,000	-0,014	0,064
-621,634	-200,000	-0,006	-0,037
-620,619	-108,457	-0,147	0,023
-619,605	-14,936	0,069	-0,032
-618,590	173,664	0,035	0,037
-617,576	495,818	-0,012	0,021
-616,561	299,455	0,018	-0,024
-615,546	-194,447	0,144	0,001
-614,532	142,320	0,102	-0,099
-613,517	19,048	-0,083	-0,049
-612,503	287,517	-0,047	0,062
-611,488	-200,000	-0,021	0,189
-610,474	59,287	-0,001	0,001
-609,459	52,430	0,094	0,066
-608,444	-200,000	0,015	0,072
-607,430	-200,000	-0,005	-0,062
-606,415	172,570	-0,033	0,035
-605,401	167,947	0,058	0,061
-604,386	-64,234	0,088	-0,026
-603,371	20,852	-0,124	0,074
-602,357	-133,622	0,050	0,005
-601,342	-200,000	0,006	-0,135
-600,328	-200,000	0,008	-0,041
-599,313	481,512	0,054	-0,091
-598,298	-81,982	0,063	-0,015
-597,284	14,036	0,075	0,043
-596,269	-93,414	0,089	0,018
-595,255	68,492	0,088	0,066
-594,240	800,000	0,029	0,059
-593,225	-49,747	-0,116	-0,040
-592,211	-200,000	-0,026	0,099
-591,196	217,816	-0,025	-0,030
-590,182	-200,000	0,001	0,041
-589,167	642,501	0,066	0,124
-588,152	61,454	-0,047	-0,034
-587,138	-200,000	0,013	-0,091
-586,123	67,037	-0,083	-0,062
-585,109	800,000	-0,063	-0,199
-584,094	-200,000	-0,004	-0,103
-583,079	-96,752	0,119	-0,023
-582,065	-200,000	0,028	-0,093
-581,050	261,456	-0,058	-0,074
-580,036	-200,000	-0,019	-0,136
-579,021	-96,155	0,040	0,008
-578,006	414,855	-0,073	-0,114
-576,992	512,068	-0,059	-0,101
-575,977	-65,963	-0,011	-0,003
-574,963	97,298	0,027	0,023
-573,948	-51,628	0,061	-0,021
-572,934	108,618	-0,071	0,062
-571,919	-200,000	0,027	0,159
-570,904	-84,831	-0,040	0,009
-569,890	245,331	0,048	0,059
-568,875	-200,000	-0,001	0,038
-567,861	-200,000	0,004	0,062
-566,846	-18,883	-0,093	0,042
-565,831	101,774	-0,067	-0,057
-564,817	11,095	-0,117	0,065
-563,802	-191,139	-0,130	-0,001
-562,788	-200,000	0,015	-0,136
-561,773	240,620	0,041	-0,050
-560,758	211,417	0,095	0,110
-559,744	4,351	0,109	-0,058
-558,729	125,004	0,038	-0,035
-557,715	800,000	0,010	0,028
-556,700	-100,297	-0,060	0,011
-555,685	-78,000	0,100	-0,025
-554,671	452,660	0,064	0,104
-553,656	800,000	0,024	0,060
-552,642	398,666	0,007	0,010
-551,627	152,594	-0,124	0,124
-550,612	-114,565	-0,031	-0,004
-549,598	221,394	-0,088	-0,104
-548,583	-200,000	-0,025	-0,086
-547,569	588,946	0,013	-0,023
-546,554	-200,000	-0,008	0,087
-545,539	-200,000	-0,026	-0,158
-544,525	144,760	-0,044	-0,043
-543,510	800,000	-0,061	-0,154
-542,496	800,000	-0,040	-0,124
-541,481	-102,688	0,072	-0,012
-540,466	515,439	-0,026	0,044
-539,452	116,853	0,061	-0,055
-538,437	-150,863	0,118	-0,006
-537,423	-60,341	-0,210	0,065
-536,408	-73,671	-0,124	0,033
-535,393	800,000	-0,024	0,072
-534,379	800,000	-0,014	-0,038
-533,364	-200,000	0,016	-0,058
-532,350	80,307	0,036	-0,029
-531,335	-80,753	0,109	-0,026
-530,321	325,200	0,014	0,020
-529,306	-200,000	-0,015	-0,190
-528,291	87,041	-0,076	-0,061
-527,277	113,531	-0,083	0,074
-526,262	-165,970	-0,121	-0,004
-525,248	48,869	-0,069	0,047
-524,233	57,662	-0,048	-0,034
-523,218	-200,000	0,019	0,082
-522,204	342,094	-0,033	-0,048
-521,189	356,088	0,041	-0,060
-520,175	-200,000	0,007	0,065
-519,160	188,626	0,058	0,064
-518,145	-24,376	-0,088	0,038
-517,131	-200,000	-0,017	0,081
-516,116	-143,155	0,094	-0,007
-515,102	-26,208	-0,080	0,034
-514,087	72,377	0,009	0,007
-513,072	800,000	-0,037	0,110
-512,058	-14,130	-0,114	-0,053
-511,043	629,720	-0,015	0,027
-510,029	176,429	0,080	0,085
-509,014	95,675	-0,064	-0,053
-507,999	800,000	0,025	0,051
-506,985	119,516	0,080	0,073
-505,970	800,000	-0,030	-0,080
-504,956	553,342	0,055	-0,097
-503,941	195,435	0,044	-0,049
-502,926	29,161	0,083	0,051
-501,912	-200,000	-0,023	-0,101
-500,897	-200,000	-0,004	-0,040
-499,883	33,296	0,049	0,031
-498,868	7,974	-0,120	-0,066
-497,853	493,832	-0,055	0,092
-496,839	334,265	0,069	0,098
-495,824	-116,316	0,101	0,013
-494,810	-200,000	0,042	-0,157
-493,795	-200,000	0,034	-0,122
-492,781	-50,514	0,019	0,007
-491,766	-200,000	-0,030	-0,121
-490,751	-79,572	-0,047	0,012
-489,737	-176,984	-0,088	0,002
-488,722	65,670	0,044	0,033
-487,708	-150,286	0,112	0,006
-486,693	-16,898	-0,041	0,019
-485,678	-200,000	0,015	-0,063
-484,664	-51,271	-0,143	0,049
-483,649	-200,000	-0,007	0,242
-482,635	-175,427	-0,139	0,003
-481,620	-200,000	-0,014	0,116
-480,605	-200,000	-0,021	0,083
-479,591	-163,596	0,130	0,004
-478,576	125,726	-0,153	-0,141
-477,562	-8,211	-0,098	-0,048
-476,547	-82,034	0,097	0,023
-475,532	89,665	-0,072	0,058
-474,518	-69,798	0,057	-0,016
-473,503	17,297	0,043	0,025
-472,489	-200,000	-0,009	0,056
-471,474	-23,370	0,100	-0,044
-470,459	-200,000	-0,013	-0,065
-469,445	800,000	-0,012	-0,034
-468,430	800,000	-0,045	0,113
-467,416	592,630	-0,041	-0,075
-466,401	447,738	0,028	0,046
-465,386	-92,477	0,062	0,013
-464,372	141,089	-0,056	-0,054
-463,357	-200,000	-0,035	-0,185
-462,343	11,088	0,029	0,016
-461,328	-139,036	-0,098	0,008
-460,313	80,893	-0,136	0,107
-459,299	800,000	-0,032	0,084
-458,284	-200,000	0,044	0,162
-457,270	643,158	-0,055	0,103
-456,255	-200,000	-0,029	-0,108
-455,241	800,000	-0,050	-0,149
-454,226	132,153	-0,106	0,099
-453,211	-106,707	0,084	0,013
-452,197	800,000	0,056	-0,142
-451,182	-83,155	0,111	0,026
-450,168	174,411	0,162	0,171
-449,153	70,381	-0,056	0,042
-448,138	-104,063	-0,111	-0,019
-447,124	105,053	0,020	0,017
-446,109	-200,000	0,004	-0,124
-445,095	-78,810	-0,148	-0,036
-444,080	-200,000	-0,053	0,184
-443,065	162,662	0,126	0,129
-442,051	-136,498	-0,132	-0,011
-441,036	-200,000	0,010	0,037
-440,022	-122,886	0,086	-0,010
-439,007	-200,000	-0,019	0,122
-437,992	244,309	0,076	-0,093
-436,978	-200,000	0,004	0,130
-435,963	-200,000	0,010	0,043
-434,949	275,540	-0,075	-0,097
-433,934	140,564	0,028	-0,027
-432,919	5,125	-0,194	0,104
-431,905	-106,141	0,053	0,009
-430,890	-188,204	-0,029	-0,000
-429,876	-21,553	0,120	0,053
-428,861	50,305	0,022	-0,015
-427,846	51,519	-0,072	0,050
-426,832	-47,336	-0,210	0,074
-425,817	240,330	0,100	-0,121
-424,803	102,483	-0,092	-0,079
-423,788	-10,915	0,028	-0,013
-422,773	98,147	0,077	-0,065
-421,759	-200,000	-0,010	0,074
-420,744	-47,528	-0,159	0,056
-419,730	-31,263	0,068	0,028
-418,715	-33,824	-0,101	-0,040
-417,701	-37,008	-0,168	-0,065
-416,686	12,869	-0,061	0,034
-415,671	105,617	-0,031	0,026
-414,657	286,382	-0,023	0,030
-413,642	667,169	0,022	0,041
-412,628	0,770	0,065	0,034
-411,613	-34,635	-0,050	0,020
-410,598	113,784	0,062	-0,055
-409,584	-200,000	0,010	-0,108
-408,569	108,750	0,086	-0,074
-407,555	-103,055	-0,073	0,012
-406,540	-29,246	0,074	0,031
-405,525	-145,555	-0,200	-0,013
-404,511	800,000	-0,057	-0,137
-403,496	31,561	0,064	0,040
-402,482	-112,958	0,062	-0,009
-401,467	32,216	0,048	-0,030
-400,452	166,598	0,063	0,065
-399,438	-15,433	-0,119	0,055
-398,423	-117,692	0,043	0,006
-397,409	800,000	-0,051	-0,125
-396,394	-200,000	-0,014	0,081
-395,379	377,541	-0,097	-0,144
-394,365	-177,798	0,187	0,003
-393,350	800,000	0,057	0,146
-392,336	-2,301	0,085	0,043
-391,321	23,617	0,091	0,054
-390,306	-200,000	0,027	0,088
-389,292	188,569	0,034	0,038
-388,277	-200,000	-0,024	0,162
-387,263	800,000	-0,076	0,168
-386,248	-89,596	0,095	0,020
-385,233	328,259	-0,003	0,004
-384,219	-200,000	-0,028	0,182
-383,204	-200,000	0,034	-0,130
-382,190	800,000	-0,041	0,088
-381,175	-75,649	-0,098	-0,025
-380,160	78,767	-0,084	-0,065
-379,146	800,000	-0,017	0,043
-378,131	-77,893	-0,147	0,037
-377,117	15,664	-0,054	0,031
-376,102	-89,165	0,104	-0,022
-375,088	-200,000	0,012	-0,039
-374,073	378,194	0,062	-0,093
-373,058	68,024	0,073	-0,055
-372,044	-200,000	0,028	-0,104
-371,029	765,086	0,021	-0,042
-370,015	-87,116	-0,100	-0,022
-369,000	565,341	-0,035	0,063
-367,985	284,483	-0,027	-0,036
-366,971	380,631	-0,025	0,037
-365,956	-200,000	0,032	0,152
-364,942	109,147	0,023	0,020
-363,927	800,000	0,079	0,161
-362,912	279,902	0,050	0,066
-361,898	-86,882	-0,116	0,026
-360,883	62,368	0,050	-0,037
-359,869	-76,005	0,128	-0,033
-358,854	-140,915	-0,166	0,012
-357,839	-50,261	0,017	-0,006
-356,825	175,228	0,095	-0,100
-355,810	-115,397	-0,117	-0,016
-354,796	791,903	-0,020	-0,040
-353,781	-58,139	-0,035	0,011
-352,766	70,560	-0,067	-0,050
-351,752	31,942	0,092	0,057
-350,737	-97,378	0,111	-0,021
-349,723	-54,887	0,064	0,021
-348,708	303,242	0,069	-0,093
-347,693	260,835	-0,017	-0,022
-346,679	-134,683	-0,104	0,009
-345,664	118,187	-0,055	-0,050
-344,650	-200,000	0,011	0,120
-343,635	530,250	0,067	0,115
-342,620	344,298	0,010	0,014
-341,606	175,596	0,114	0,120
-340,591	98,587	-0,056	-0,047
-339,577	323,417	-0,068	-0,095
-338,562	314,633	-0,057	0,078
-337,548	239,305	0,062	-0,075
-336,533	-50,771	0,107	-0,036
-335,518	520,927	-0,014	-0,024
-334,504	800,000	0,052	0,121
-333,489	210,534	0,013	-0,015
-332,475	-200,000	0,040	0,158
-331,460	-155,175	-0,098	-0,005
-330,445	96,049	-0,122	-0,101
-329,431	-200,000	0,011	0,119
-328,416	-129,356	0,157	-0,016
-327,402	11,100	-0,056	-0,031
-326,387	8,110	-0,055	0,030
-325,372	-200,000	0,019	-0,081
-324,358	700,256	-0,108	-0,207
-323,343	171,802	-0,092	-0,096
-322,329	800,000	0,023	0,056
-321,314	90,833	0,102	0,083
-320,299	736,234	0,099	0,193
-319,285	41,918	0,075	0,049
-318,270	118,960	-0,053	0,048
-317,256	342,811	0,055	-0,079
-316,241	-117,630	0,048	-0,006
-315,226	-46,249	0,126	-0,045
-314,212	315,848	-0,008	-0,011
-313,197	-129,829	0,117	-0,011
-312,183	-35,821	-0,086	0,034
-311,168	800,000	-0,032	-0,070
-310,153	-83,401	0,102	0,024
-309,139	753,771	0,051	-0,100
-308,124	-200,000	-0,003	-0,031
-307,110	800,000	0,046	0,095
-306,095	-44,205	0,141	0,051
-305,080	-193,516	-0,078	-0,000
-304,066	800,000	-0,012	-0,031
-303,051	123,850	-0,048	-0,044
-302,037	-64,727	-0,024	0,007
-301,022	111,224	0,062	-0,054
-300,008	-27,565	0,129	-0,054
-298,993	470,462	-0,090	0,148
-297,978	-200,000	0,002	0,059
-296,964	800,000	-0,093	0,200
-295,949	800,000	-0,050	-0,107
-294,935	-92,859	0,144	-0,029
-293,920	110,122	0,016	0,014
-292,905	-106,080	0,063	0,010
-291,891	-200,000	0,000	-0,005
-290,876	-174,258	-0,039	-0,001
-289,862	-19,188	-0,046	-0,021
-288,847	303,856	0,067	-0,090
-287,832	-200,000	0,008	-0,029
-286,818	-14,176	-0,008	-0,004
-285,803	-76,131	0,054	-0,014
-284,789	646,855	0,031	0,057
-283,774	399,879	0,041	-0,063
-282,759	34,473	0,105	-0,066
-281,745	456,079	0,051	0,082
-280,730	356,194	-0,077	0,111
-279,716	-126,867	-0,142	-0,015
-278,701	-8,198	0,063	0,031
-277,686	222,436	0,115	0,134
-276,672	-173,678	-0,293	-0,006
-275,657	-7,391	0,207	0,101
-274,643	59,260	-0,071	-0,050
-273,628	-200,000	-0,012	-0,103
-272,613	271,752	-0,063	-0,081
-271,599	800,000	0,063	-0,179
-270,584	800,000	0,043	0,136
-269,570	166,116	0,092	0,095
-268,555	-137,113	0,025	0,002
-267,540	800,000	0,008	-0,024
-266,526	-200,000	0,015	0,105
-265,511	496,538	-0,029	-0,049
-264,497	-75,009	0,052	-0,013
-263,482	-200,000	-0,015	0,096
-262,467	-200,000	-0,011	0,062
-261,453	266,574	0,099	0,126
-260,438	-200,000	-0,020	-0,162
-259,424	800,000	0,067	0,139
-258,409	-200,000	-0,002	-0,065
-257,395	-200,000	0,012	-0,066
-256,380	-200,000	0,121	-0,000
-255,365	329,936	0,076	0,106
-254,351	800,000	0,024	0,072
-253,336	-200,000	-0,033	0,149
-252,322	-1,218	-0,128	0,065
-251,307	-34,089	-0,177	-0,070
-250,292	-200,000	0,029	-0,123
-249,278	800,000	-0,050	-0,143
-248,263	-200,000	-0,019	-0,083
-247,249	-147,520	0,074	0,004
-246,234	-30,085	0,034	-0,014
-245,219	58,158	0,066	0,047
-244,205	-200,000	-0,007	-0,044
-243,190	-200,000	0,022	-0,145
-242,176	-200,000	-0,038	0,134
-241,161	800,000	-0,030	0,073
-240,146	4,765	0,073	-0,039
-239,132	-200,000	-0,003	-0,045
-238,117	-200,000	0,012	-0,210
-237,103	-75,229	-0,153	-0,039
-236,088	800,000	0,032	-0,065
-235,073	-200,000	0,004	0,024
-234,059	463,047	0,049	0,080
-233,044	32,918	-0,049	0,031
-232,030	398,655	-0,029	-0,043
-231,015	-127,945	0,014	-0,001
-230,000	591,020	-0,039	-0,070
-228,986	-25,444	0,091	-0,039
-227,971	15,297	0,065	-0,037
-226,957	-200,000	0,014	0,099
-225,942	-37,098	0,072	0,028
-224,927	7,991	-0,027	-0,014
-223,913	163,804	0,088	-0,090
-222,898	800,000	0,035	-0,097
-221,884	-200,000	-0,000	0,009
-220,869	-31,945	0,071	0,029
-219,855	219,865	0,031	-0,035
-218,840	455,481	-0,094	0,151
-217,825	7,643	0,041	-0,022
-216,811	800,000	-0,014	-0,036
-215,796	130,101	-0,099	-0,092
-214,782	98,601	0,070	-0,059
-213,767	-200,000	-0,013	-0,049
-212,752	-31,288	0,111	-0,045
-211,738	-62,705	-0,164	-0,049
-210,723	546,966	0,047	-0,082
-209,709	-200,000	0,003	0,069
-208,694	-96,132	0,050	0,010
-207,679	-200,000	-0,025	-0,087
-206,665	800,000	-0,009	-0,022
-205,650	354,630	0,033	0,047
-204,636	-200,000	-0,013	-0,059
-203,621	537,564	-0,019	-0,033
-202,606	185,410	-0,082	0,088
-201,592	-54,655	0,141	0,046
-200,577	-125,836	-0,066	-0,007
-199,563	116,218	0,075	-0,066
-198,548	-200,000	0,002	0,047
-197,533	143,702	0,066	0,064
-196,519	800,000	0,025	-0,070
-195,504	15,593	0,047	0,027
-194,490	74,428	-0,138	-0,104
-193,475	-8,558	-0,058	0,028
-192,460	1,129	0,045	0,023
-191,446	800,000	0,042	-0,111
-190,431	-200,000	-0,001	-0,069
-189,417	800,000	-0,048	0,137
-188,402	-200,000	-0,014	0,068
-187,387	688,062	-0,022	0,042
-186,373	592,069	0,038	0,068
-185,358	-83,222	-0,097	0,022
-184,344	-200,000	-0,006	0,035
-183,329	5,413	0,068	0,036
-182,315	-200,000	0,008	-0,055
-181,300	78,597	0,167	-0,129
-180,285	63,200	-0,105	0,076
-179,271	7,445	-0,136	-0,073
-178,256	-125,733	-0,106	-0,011
-177,242	143,152	-0,059	0,056
-176,227	800,000	-0,007	-0,020
-175,212	-87,828	0,061	0,013
-174,198	-200,000	0,014	-0,121
-173,183	455,604	-0,098	-0,158
-172,169	500,148	0,049	-0,081
-171,154	-200,000	0,000	0,050
-170,139	300,259	0,008	-0,011
-169,125	6,291	0,127	-0,068
-168,110	800,000	0,036	-0,114
-167,096	220,717	-0,017	-0,019
-166,081	7,011	0,037	0,020
-165,066	488,109	0,023	-0,039
-164,052	-39,111	0,060	-0,023
-163,037	-126,948	0,092	-0,010
-162,023	-200,000	0,003	0,070
-161,008	207,358	0,038	-0,043
-159,993	-32,071	0,118	0,047
-158,979	1,009	-0,100	-0,052
-157,964	800,000	-0,017	-0,047
-156,950	-48,964	0,035	-0,012
-155,935	-28,834	0,194	-0,080
-154,920	-200,000	-0,004	-0,046
-153,906	25,692	-0,087	0,052
-152,891	-200,000	-0,004	0,031
-151,877	-7,391	-0,091	0,044
-150,862	358,807	-0,041	-0,059
-149,847	-200,000	0,020	0,100
-148,833	-200,000	0,010	0,049
-147,818	200,511	0,097	0,108
-146,804	-200,000	0,042	-0,173
-145,789	770,966	-0,029	0,058
-144,775	21,259	0,097	0,057
-143,760	-200,000	-0,008	-0,120
-142,745	-125,004	0,086	-0,009
-141,731	-200,000	-0,006	0,061
-140,716	-32,393	0,066	0,026
-139,702	-131,083	-0,086	0,008
-138,687	-0,192	0,107	0,055
-137,672	-200,000	0,051	0,215
-136,658	-5,049	-0,068	-0,034
-135,643	-63,038	-0,077	-0,023
-134,629	-27,617	0,144	-0,060
-133,614	-59,641	0,016	-0,005
-132,599	-139,777	-0,070	0,005
-131,585	-16,355	0,133	0,061
-130,570	-107,692	-0,029	-0,004
-129,556	279,348	0,062	0,080
-128,541	-99,978	-0,037	0,007
-127,526	-62,353	-0,106	-0,032
-126,512	-200,000	0,019	-0,138
-125,497	-200,000	0,012	0,086
-124,483	148,941	0,135	0,131
-123,468	495,773	-0,063	-0,104
-122,453	-150,547	-0,145	0,008
-121,439	-200,000	-0,012	-0,084
-120,424	458,009	0,067	0,108
-119,410	363,417	0,038	0,055
-118,395	316,940	0,044	0,060
-117,380	24,154	-0,191	0,113
-116,366	425,125	0,074	0,114
-115,351	65,431	-0,120	-0,087
-114,337	33,068	0,040	-0,025
-113,322	10,787	-0,068	-0,037
-112,307	-200,000	0,022	-0,079
-111,293	181,553	0,053	0,056
-110,278	206,896	0,005	0,005
-109,264	-172,150	0,076	-0,002
-108,249	10,962	0,038	0,021
-107,234	252,813	0,091	-0,112
-106,220	-64,685	-0,159	-0,046
-105,205	234,058	-0,049	-0,058
-104,191	-73,309	0,209	-0,055
-103,176	174,212	0,047	0,049
-102,162	86,757	0,048	-0,038
-101,147	-30,161	-0,030	-0,012
-100,132	-155,155	0,072	0,003
-99,118	800,000	-0,017	-0,042
-98,103	270,658	0,044	-0,056
-97,089	-200,000	0,011	0,084
-96,074	454,383	0,009	-0,014
-95,059	51,901	0,058	-0,040
-94,045	800,000	0,052	-0,110
-93,030	344,819	-0,070	-0,099
-92,016	37,168	0,084	-0,054
-91,001	244,508	0,075	-0,091
-89,986	-200,000	0,005	0,173
-88,972	143,849	-0,095	0,091
-87,957	-200,000	0,020	-0,134
-86,943	800,000	-0,002	0,005
-85,928	-200,000	-0,054	-0,171
-84,913	272,984	-0,056	-0,072
-83,899	-135,078	0,140	-0,012
-82,884	-200,000	-0,018	0,138
-81,870	-87,685	-0,057	0,012
-80,855	120,197	-0,040	0,035
-79,840	-98,618	-0,091	0,017
-78,826	10,678	-0,092	-0,050
-77,811	-200,000	0,038	0,169
-76,797	20,183	0,145	0,084
-75,782	241,845	0,026	0,031
-74,767	19,469	0,017	0,010
-73,753	292,935	-0,075	0,098
-72,738	-62,139	-0,132	-0,039
-71,724	157,372	-0,084	-0,083
-70,709	-105,184	-0,167	-0,027
-69,694	141,454	-0,035	-0,033
-68,680	800,000	0,043	0,108
-67,665	-200,000	-0,014	0,049
-66,651	-49,553	-0,112	-0,038
-65,636	132,656	-0,038	-0,035
-64,622	445,658	0,023	0,036
-63,607	-110,985	0,065	-0,010
-62,592	-68,842	-0,120	-0,033
-61,578	800,000	0,048	-0,113
-60,563	412,779	-0,022	0,034
-59,549	800,000	-0,059	0,130
-58,534	66,315	-2,587	-1,886
-57,519	8,950	0,476	-0,257
-56,505	-200,000	-1,683	-5,483
-55,490	389,165	1,201	1,793
-54,476	800,000	5,246	11,469
-53,461	-200,000	21,927	343,877
-52,446	800,000	760,646	2311,447
-51,432	519,620	1652,283	2791,865
-50,417	103,837	1617,697	1364,838
-49,403	73,455	1273,125	956,375
-48,388	25,404	1022,034	608,885
-47,373	19,245	988,347	568,419
-46,359	13,518	975,425	542,154
-45,344	9,361	972,384	526,768
-44,330	9,816	970,172	527,045
-43,315	8,830	968,222	522,731
-42,300	8,681	967,397	521,776
-41,286	8,700	966,262	521,204
-40,271	8,673	965,327	520,592
-39,257	8,711	964,256	520,117
-38,242	8,714	963,793	519,858
-37,227	8,749	962,663	519,341
-36,213	8,672	961,916	518,668
-35,198	8,687	961,095	518,253
-34,184	8,770	960,249	518,047
-33,169	8,683	959,314	517,238
-32,154	8,764	958,484	517,035
-31,140	8,709	957,660	516,389
-30,125	8,786	956,604	516,050
-29,111	8,773	955,891	515,603
-28,096	8,825	955,162	515,357
-27,082	8,772	954,530	514,823
-26,067	8,650	954,005	514,127
-25,052	8,761	952,832	513,831
-24,038	8,718	952,224	513,344
-23,023	8,661	951,768	512,896
-22,009	8,732	951,173	512,784
-20,994	8,757	950,372	512,413
-19,979	8,730	950,027	512,117
-18,965	8,718	949,176	511,602
-17,950	8,685	948,946	511,351
-16,936	8,689	948,011	510,838
-15,921	8,667	947,280	510,355
-14,906	8,651	946,479	509,851
-13,892	8,609	945,874	509,370
-12,877	8,578	945,286	508,934
-11,863	8,528	944,985	508,591
-10,848	8,580	944,297	508,367
-9,833	8,714	943,688	508,449
-8,819	8,649	942,971	507,832
-7,804	8,599	942,303	507,293
-6,790	8,529	941,820	506,789
-5,775	8,688	941,203	506,945
-4,760	8,725	940,378	506,597
-3,746	8,641	939,963	506,087
-2,731	8,474	939,207	505,131
-1,717	8,447	938,554	504,672
-0,702	8,418	938,047	504,289
0,313	8,316	937,091	504,211
1,327	11,673	935,137	513,743
2,342	20,328	783,758	453,379
3,356	15,497	450,195	253,091
4,371	-10,875	313,128	147,924
5,386	-14,498	295,490	135,907
6,400	-16,472	289,275	131,076
7,415	-16,781	286,857	129,665
8,429	-17,456	285,092	128,195
9,444	-17,461	284,008	127,692
10,459	-17,331	283,399	127,533
11,473	-17,418	282,736	127,139
12,488	-17,154	282,260	127,169
13,502	-17,433	281,943	126,745
14,517	-17,253	281,478	126,699
15,531	-17,215	280,921	126,472
16,546	-17,233	280,670	126,331
17,561	-17,305	280,143	126,013
18,575	-17,071	279,903	126,119
19,590	-17,123	279,408	125,835
20,604	-17,133	279,158	125,702
21,619	-17,212	278,766	125,439
22,634	-17,297	278,566	125,257
23,648	-17,169	278,186	125,196
24,663	-17,294	277,967	124,968
25,677	-17,086	277,642	125,008
26,692	-17,122	277,429	124,867
27,707	-17,155	277,033	124,646
28,721	-17,108	276,999	124,664
29,736	-17,180	276,553	124,384
30,750	-17,190	276,315	124,256
31,765	-17,076	275,986	124,205
32,780	-17,334	275,813	123,873
33,794	-17,151	275,633	123,954
34,809	-17,096	275,335	123,860
35,823	-17,179	275,038	123,637
36,838	-17,257	274,933	123,506
37,853	-17,254	274,504	123,305
38,867	-17,247	274,469	123,285
39,882	-17,003	274,037	123,309
40,896	-16,970	273,753	123,201
41,911	-17,095	273,670	123,036
42,926	-17,064	273,315	122,894
43,940	-17,141	273,166	122,744
44,955	-17,057	272,901	122,693
45,969	-17,187	272,879	122,550
46,984	-17,200	272,563	122,385
47,999	-17,277	272,514	122,280
49,013	-17,256	272,184	122,141
50,028	-16,948	271,878	122,279
51,042	-17,126	271,558	121,959
52,057	-17,020	271,356	121,956
53,071	-17,032	271,198	121,863
54,086	-17,105	271,004	121,698
55,101	-17,026	270,738	121,640
56,115	-17,028	270,481	121,512
57,130	-17,113	270,125	121,263
58,144	-17,109	269,814	121,116
59,159	-17,300	269,589	120,828
60,174	-17,082	269,382	120,926
61,188	-16,953	269,150	120,929
62,203	-17,112	268,984	120,697
63,217	-17,227	268,856	120,524
64,232	-16,958	268,536	120,616
65,247	-17,062	268,288	120,399
66,261	-17,045	268,040	120,292
67,276	-17,109	267,878	120,150
68,290	-17,180	267,722	120,005
69,305	-17,093	267,493	119,971
70,320	-17,073	267,304	119,894
71,334	-17,033	266,879	119,728
72,349	-17,105	266,720	119,581
73,363	-17,236	266,628	119,410
74,378	-17,217	266,196	119,223
75,393	-17,065	266,109	119,311
76,407	-17,031	265,894	119,236
77,422	-17,107	265,622	119,034
78,436	-17,095	265,424	118,946
79,451	-17,206	265,249	118,756
80,466	-17,165	264,984	118,664
81,480	-17,246	264,739	118,471
82,495	-16,979	264,575	118,628
83,509	-17,035	264,329	118,456
84,524	-17,141	264,248	118,314
85,539	-16,988	264,057	118,355
86,553	-17,110	263,686	118,068
87,568	-17,093	263,569	118,021
88,582	-17,271	263,281	117,722
89,597	-17,106	263,026	117,745
90,611	-17,004	262,919	117,778
91,626	-16,877	262,717	117,792
92,641	-17,210	262,513	117,391
93,655	-17,046	262,267	117,417
94,670	-17,262	262,091	117,135
95,684	-17,121	261,918	117,173
96,699	-16,966	261,685	117,197
97,714	-16,953	261,322	117,035
98,728	-16,955	261,232	116,983
99,743	-17,024	261,090	116,847
100,757	-17,019	260,818	116,719
101,772	-17,091	260,640	116,565
102,787	-17,073	260,318	116,427
103,801	-16,930	260,196	116,489
104,816	-16,919	259,900	116,356
105,830	-17,063	259,864	116,202
106,845	-17,039	259,547	116,071
107,860	-16,914	259,338	116,077
108,874	-17,199	259,171	115,741
109,889	-17,118	258,902	115,682
110,903	-16,953	258,575	115,671
111,918	-17,016	258,626	115,628
112,933	-17,144	258,373	115,392
113,947	-16,961	258,201	115,465
114,962	-16,913	257,762	115,301
115,976	-17,033	257,675	115,147
116,991	-16,995	257,540	115,110
118,006	-16,994	257,227	114,960
119,020	-17,005	257,150	114,906
120,035	-17,152	256,924	114,666
121,049	-17,109	256,835	114,654
122,064	-17,044	256,720	114,649
123,079	-17,193	256,631	114,469
124,093	-17,061	256,173	114,369
125,108	-17,002	255,935	114,304
126,122	-17,115	256,020	114,233
127,137	-17,066	255,744	114,143
128,151	-16,901	255,569	114,198
129,166	-16,921	255,293	114,047
130,181	-16,976	255,257	113,973
131,195	-17,121	254,875	113,667
132,210	-17,197	254,682	113,505
133,224	-17,173	254,455	113,415
134,239	-16,867	254,344	113,619
135,254	-16,960	254,031	113,388
136,268	-16,938	253,778	113,285
137,283	-16,961	253,607	113,178
138,297	-16,801	253,363	113,198
139,312	-16,833	253,054	113,021
140,327	-16,872	252,968	112,940
141,341	-17,066	252,943	112,752
142,356	-16,941	252,610	112,701
143,370	-16,866	252,471	112,693
144,385	-16,742	252,171	112,655
145,400	-16,895	252,067	112,467
146,414	-17,050	251,853	112,229
147,429	-16,837	251,595	112,287
148,443	-17,017	251,496	112,078
149,458	-16,875	251,256	112,083
150,473	-16,877	251,115	112,008
151,487	-16,973	250,982	111,857
152,502	-17,033	250,858	111,740
153,516	-17,024	250,623	111,634
154,531	-16,902	250,206	111,542
155,546	-16,917	250,220	111,525
156,560	-16,778	249,907	111,493
157,575	-16,933	249,823	111,315
158,589	-16,964	249,691	111,220
159,604	-16,803	249,351	111,194
160,619	-16,850	249,215	111,084
161,633	-16,956	249,079	110,924
162,648	-17,038	249,133	110,869
163,662	-16,887	248,812	110,844
164,677	-16,935	248,763	110,772
165,692	-17,022	248,470	110,558
166,706	-16,982	248,437	110,567
167,721	-16,996	248,054	110,375
168,735	-16,910	247,935	110,384
169,750	-16,977	247,734	110,229
170,764	-16,878	247,635	110,258
171,779	-17,035	247,456	110,037
172,794	-16,979	247,431	110,063
173,808	-17,042	247,182	109,890
174,823	-16,900	246,907	109,876
175,837	-16,999	246,771	109,723
176,852	-17,122	246,756	109,604
177,867	-16,997	246,347	109,516
178,881	-16,898	246,231	109,538
179,896	-16,890	245,998	109,431
180,910	-17,043	245,795	109,204
181,925	-17,084	245,827	109,175
182,940	-16,904	245,420	109,133
183,954	-16,998	245,218	108,955
184,969	-17,123	245,295	108,877
185,983	-17,043	245,143	108,866
186,998	-17,019	244,888	108,762
188,013	-16,828	244,652	108,806
189,027	-17,093	244,524	108,520
190,042	-17,080	244,164	108,362
191,056	-16,996	244,058	108,374
192,071	-16,951	243,893	108,328
193,086	-17,053	243,887	108,232
194,100	-17,177	243,644	108,013
195,115	-16,858	243,173	108,056
196,129	-17,168	243,302	107,849
197,144	-16,939	242,966	107,879
198,159	-16,989	242,738	107,727
199,173	-16,875	242,564	107,733
200,188	-16,988	242,448	107,579
201,202	-16,954	242,272	107,519
202,217	-16,918	242,161	107,490
203,232	-16,827	242,005	107,486
204,246	-17,061	241,710	107,154
205,261	-17,219	241,465	106,907
206,275	-15,663	242,037	108,421
207,290	-10,631	243,809	113,340
208,304	-4,371	245,703	119,382
209,319	-1,699	246,304	121,871
210,334	-0,835	246,591	122,716
211,348	0,105	246,906	123,639
212,363	0,860	246,886	124,242
213,377	1,177	246,824	124,461
214,392	1,405	246,930	124,692
215,407	1,730	246,756	124,862
216,421	1,968	246,620	124,977
217,436	2,040	246,376	124,902
218,450	1,787	246,227	124,607
219,465	1,845	246,117	124,588
220,480	1,854	245,879	124,463
221,494	1,551	245,726	124,126
222,509	1,153	245,413	123,631
223,523	0,918	245,180	123,310
224,538	0,924	244,870	123,148
225,553	0,974	244,772	123,129
226,567	0,899	244,569	122,954
227,582	1,067	244,389	122,990
228,596	0,955	244,261	122,823
229,611	0,848	244,204	122,696
230,626	0,850	243,976	122,572
231,640	0,904	243,680	122,457
232,655	0,967	243,483	122,398
233,669	0,946	243,339	122,298
234,684	0,901	243,168	122,164
235,699	0,548	243,292	121,929
236,713	0,961	242,954	122,084
237,728	1,003	242,861	122,060
238,742	0,843	242,675	121,826
239,757	1,039	242,529	121,900
240,772	0,995	242,409	121,794
241,786	0,910	242,184	121,601
242,801	0,753	242,032	121,387
243,815	0,971	241,851	121,462
244,830	0,878	241,688	121,294
245,844	0,907	241,678	121,302
246,859	1,041	241,414	121,266
247,874	0,727	241,260	120,925
248,888	0,882	241,020	120,919
249,903	0,858	240,891	120,824
250,917	0,923	240,899	120,870
251,932	1,029	240,750	120,869
252,947	1,096	240,416	120,744
253,961	0,929	240,278	120,530
254,976	0,738	240,262	120,359
255,990	1,050	240,055	120,494
257,005	0,921	239,771	120,237
258,020	1,008	239,724	120,273
259,034	0,874	239,661	120,123
260,049	0,978	239,474	120,102
261,063	0,898	239,304	119,942
262,078	1,116	239,060	119,982
263,093	0,776	238,901	119,622
264,107	1,117	238,765	119,814
265,122	0,944	238,665	119,616
266,136	0,892	238,584	119,523
267,151	0,890	238,413	119,425
268,166	1,026	238,035	119,333
269,180	0,899	237,932	119,170
270,195	0,865	237,895	119,114
271,209	1,173	237,640	119,219
272,224	0,982	237,465	118,970
273,239	0,915	237,465	118,906
274,253	0,801	237,357	118,752
275,268	0,821	236,993	118,575
276,282	0,748	237,002	118,511
277,297	1,023	236,865	118,649
278,312	1,106	236,535	118,538
279,326	0,981	236,404	118,364
280,341	1,027	236,272	118,323
281,355	0,947	236,196	118,211
282,370	1,067	236,047	118,221
283,384	0,954	235,787	117,991
284,399	0,815	235,783	117,870
285,414	0,827	235,476	117,715
286,428	1,081	235,397	117,864
287,443	0,988	235,238	117,701
288,457	1,018	235,024	117,607
289,472	0,805	235,034	117,435
290,487	0,906	234,714	117,344
291,501	0,830	234,668	117,251
292,516	1,078	234,393	117,296
293,530	0,998	234,413	117,233
294,545	1,019	234,414	117,240
295,560	0,984	234,102	117,046
296,574	0,933	234,077	116,984
297,589	0,889	233,775	116,788
298,603	0,864	233,729	116,735
299,618	0,951	233,514	116,685
300,633	1,334	233,356	116,892
301,647	1,209	233,243	116,729
302,662	1,256	233,051	116,659
303,676	1,154	232,937	116,512
304,691	0,908	232,787	116,236
305,706	1,105	232,568	116,269
306,720	1,341	232,377	116,345
307,735	1,155	232,269	116,137
308,749	1,053	232,238	116,032
309,764	1,118	232,127	116,017
310,779	1,349	231,812	116,027
311,793	1,037	231,755	115,748
312,808	1,105	231,727	115,776
313,822	1,086	231,512	115,643
314,837	0,982	231,386	115,491
315,852	1,253	231,073	115,531
316,866	1,267	230,932	115,461
317,881	1,373	230,801	115,467
318,895	0,999	230,714	115,127
319,910	1,318	230,398	115,203
320,925	0,998	230,371	114,935
321,939	0,931	230,211	114,793
322,954	1,229	230,040	114,925
323,968	1,267	229,936	114,891
324,983	1,118	229,899	114,750
325,997	1,289	229,537	114,689
327,012	1,234	229,420	114,578
328,027	1,175	229,317	114,472
329,041	1,269	229,125	114,437
330,056	1,304	229,021	114,401
331,070	1,139	228,912	114,212
332,085	1,099	228,724	114,077
333,100	1,435	228,397	114,158
334,114	1,185	228,361	113,941
335,129	1,066	228,317	113,819
336,143	1,229	228,148	113,848
337,158	1,317	227,954	113,808
338,173	1,245	227,873	113,702
339,187	1,201	227,725	113,585
340,202	1,309	227,476	113,532
341,216	1,234	227,274	113,365
342,231	1,426	227,128	113,426
343,246	1,394	227,135	113,395
344,260	1,333	226,997	113,270
345,275	1,497	226,919	113,345
346,289	1,369	226,630	113,094
347,304	1,363	226,655	113,092
348,319	1,295	226,394	112,901
349,333	1,236	226,190	112,745
350,348	1,344	226,062	112,751
351,362	1,325	226,003	112,698
352,377	1,302	225,928	112,633
353,392	1,344	225,815	112,598
354,406	1,355	225,591	112,485
355,421	191,750	1312,405	1377,983
356,435	153,580	1444,684	1377,840
