DTS Sentinel unit serial number:	SN410029Multiplexer serial number:	ORYXHardware model number:	OX2-SRSoftware version number:	ORYX F/W v4,00 Oryx Data Collector v3.7.2.0data status	okinstallation	B5 Nyhavnadifferential loss correction	single-endedforward channel	channel 2reverse channel	N/Adate	2023/12/12time	00:17:13forward acquisition time	300,00reverse acquisition time	0,00gamma	499,1914k internal	0,3156k external	0,3156temperature offset calibration	1,0000default loss term (dB/km)	0,3820temperature slope calibration	1,0000multiplexer offset coefficient	1,0000multiplexer slope coefficient	1,0000fibre end	0,00T internal ref (°C)	16,13T ext. ref 1 (°C)	-0,30T ext. ref 2 (°C)	-0,56length (m)	temperature (°C)	Stokes	anti-Stokes-744,400	-200,000	0,001	0,090
-743,385	-122,840	-0,280	0,033
-742,371	-4,131	0,202	0,103
-741,356	-151,961	-0,419	-0,022
-740,342	-69,243	0,254	-0,072
-739,327	-109,246	-0,243	0,038
-738,312	150,705	0,056	-0,056
-737,298	-121,905	-0,315	-0,038
-736,283	-63,244	0,109	-0,033
-735,269	-161,896	-0,284	-0,010
-734,254	800,000	-0,058	0,134
-733,239	59,144	-0,305	-0,221
-732,225	-111,293	0,213	0,032
-731,210	-33,233	-0,099	0,040
-730,196	-114,693	-0,091	-0,013
-729,181	67,093	0,034	-0,026
-728,167	-200,000	-0,040	-0,224
-727,152	-200,000	-0,001	0,048
-726,137	-200,000	0,009	-0,049
-725,123	160,056	-0,097	-0,100
-724,108	147,637	-0,184	-0,182
-723,094	-133,885	-0,224	-0,020
-722,079	800,000	-0,041	-0,098
-721,064	-200,000	0,017	-0,082
-720,050	54,429	0,085	0,060
-719,035	-200,000	-0,033	0,162
-718,021	-51,624	-0,101	-0,034
-717,006	-27,533	-0,161	-0,069
-715,991	-200,000	-0,019	-0,066
-714,977	-72,189	-0,194	-0,053
-713,962	-200,000	0,008	0,041
-712,948	111,626	-0,037	-0,033
-711,933	-157,538	-0,088	0,004
-710,918	435,402	-0,010	-0,016
-709,904	-150,201	-0,161	0,009
-708,889	-131,693	-0,131	0,012
-707,875	-200,000	-0,030	-0,144
-706,860	800,000	0,056	-0,125
-705,845	6,279	0,090	0,049
-704,831	-200,000	0,009	0,164
-703,816	187,387	-0,095	0,105
-702,802	-158,058	-0,068	0,003
-701,787	8,215	-0,094	-0,052
-700,772	-146,155	-0,060	-0,004
-699,758	108,182	-0,027	0,024
-698,743	145,509	-0,169	0,167
-697,729	-19,921	0,063	-0,028
-696,714	160,164	-0,093	0,095
-695,699	475,348	0,060	-0,100
-694,685	669,956	0,065	0,125
-693,670	800,000	-0,011	-0,034
-692,656	-200,000	0,023	0,124
-691,641	44,728	-0,072	-0,049
-690,627	-42,224	0,041	0,015
-689,612	-45,825	-0,038	-0,014
-688,597	-158,220	0,027	-0,001
-687,583	-200,000	0,006	0,144
-686,568	-169,463	-0,071	-0,002
-685,554	300,622	0,014	-0,019
-684,539	166,015	0,036	-0,038
-683,524	15,010	-0,074	0,042
-682,510	465,023	0,065	-0,107
-681,495	36,939	0,026	-0,017
-680,481	348,400	0,032	0,047
-679,466	-27,930	-0,160	-0,068
-678,451	-115,686	-0,024	0,003
-677,437	800,000	0,013	0,026
-676,422	146,410	-0,156	0,154
-675,408	-35,569	-0,032	0,013
-674,393	800,000	0,026	-0,058
-673,378	-114,908	-0,079	0,011
-672,364	800,000	0,034	-0,104
-671,349	-6,068	-0,105	-0,053
-670,335	45,734	-0,085	0,057
-669,320	155,278	-0,120	0,122
-668,305	376,530	0,080	0,121
-667,291	-121,373	-0,061	0,007
-666,276	360,910	0,029	0,042
-665,262	-200,000	0,016	-0,058
-664,247	-162,014	-0,058	0,002
-663,232	-200,000	0,008	0,088
-662,218	-200,000	0,026	0,095
-661,203	-200,000	0,012	0,043
-660,189	-72,263	0,164	-0,044
-659,174	92,596	-0,064	0,053
-658,159	232,742	-0,132	-0,160
-657,145	800,000	-0,086	-0,205
-656,130	800,000	0,041	-0,111
-655,116	-88,120	0,100	-0,022
-654,101	108,835	0,015	0,013
-653,086	-128,938	-0,149	-0,015
-652,072	-34,595	-0,087	0,035
-651,057	-200,000	-0,010	0,044
-650,043	-200,000	-0,005	0,081
-649,028	101,387	-0,050	-0,043
-648,014	-144,838	-0,073	0,005
-646,999	-81,715	-0,084	-0,020
-645,984	163,772	-0,026	0,027
-644,970	-200,000	-0,033	0,144
-643,955	-69,419	-0,107	-0,030
-642,941	-11,763	0,069	-0,033
-641,926	-144,608	-0,098	-0,007
-640,911	-33,408	0,093	0,038
-639,897	319,068	-0,069	-0,096
-638,882	265,324	0,072	0,092
-637,868	15,057	-0,172	0,099
-636,853	-21,200	-0,228	-0,102
-635,838	800,000	0,029	-0,061
-634,824	-136,882	-0,117	0,010
-633,809	-72,352	0,034	0,009
-632,795	255,214	-0,088	-0,110
-631,780	288,537	0,088	-0,117
-630,765	195,299	-0,097	0,108
-629,751	-50,907	-0,109	0,037
-628,736	21,899	-0,071	-0,043
-627,722	23,209	0,077	0,046
-626,707	119,325	0,017	0,016
-625,692	-116,954	0,073	0,010
-624,678	214,140	-0,037	-0,043
-623,663	-63,773	-0,059	0,018
-622,649	274,505	-0,056	-0,073
-621,634	2,702	-0,044	0,023
-620,619	206,705	-0,118	0,135
-619,605	-28,648	0,135	0,057
-618,590	-200,000	-0,040	0,159
-617,576	800,000	0,038	0,086
-616,561	167,238	-0,076	0,079
-615,546	-200,000	-0,007	0,126
-614,532	271,681	-0,077	-0,100
-613,517	800,000	0,053	-0,122
-612,503	-28,171	-0,047	-0,020
-611,488	-200,000	-0,006	-0,131
-610,474	-152,830	0,125	0,006
-609,459	45,128	0,006	-0,004
-608,444	50,864	0,046	0,032
-607,430	-107,955	-0,093	-0,015
-606,415	157,397	-0,037	-0,038
-605,401	237,745	0,028	0,034
-604,386	-126,655	-0,048	0,005
-603,371	362,296	-0,021	0,031
-602,357	-91,887	0,093	0,019
-601,342	215,684	-0,037	0,043
-600,328	-200,000	0,038	-0,205
-599,313	-176,457	-0,120	0,002
-598,298	-51,224	0,027	0,009
-597,284	-24,699	0,043	0,019
-596,269	62,906	-0,042	0,031
-595,255	-200,000	-0,012	-0,063
-594,240	131,621	-0,148	-0,140
-593,225	440,870	-0,083	0,133
-592,211	-16,747	-0,131	-0,061
-591,196	-200,000	0,006	0,083
-590,182	-72,656	-0,006	-0,002
-589,167	693,477	0,039	0,074
-588,152	-40,227	0,101	0,038
-587,138	-200,000	0,016	-0,066
-586,123	15,903	-0,200	-0,115
-585,109	-43,230	0,089	0,033
-584,094	-200,000	0,000	0,019
-583,079	-200,000	-0,007	-0,121
-582,065	33,819	0,084	-0,054
-581,050	-15,571	-0,057	0,027
-580,036	-78,066	0,039	0,010
-579,021	359,914	0,027	0,040
-578,006	14,031	-0,182	-0,103
-576,992	-92,695	0,093	-0,019
-575,977	-200,000	-0,028	0,097
-574,963	40,942	0,061	-0,040
-573,948	-200,000	-0,006	-0,028
-572,934	-75,569	-0,058	-0,015
-571,919	7,245	0,103	-0,056
-570,904	180,990	-0,123	-0,132
-569,890	-137,179	0,096	0,008
-568,875	-75,370	-0,024	0,006
-567,861	380,903	-0,046	0,069
-566,846	-200,000	-0,015	0,096
-565,831	55,630	-0,030	0,021
-564,817	-20,990	0,047	-0,021
-563,802	-200,000	0,015	-0,126
-562,788	-200,000	-0,005	0,149
-561,773	-58,775	-0,102	0,032
-560,758	365,711	0,036	-0,053
-559,744	-95,332	-0,109	-0,021
-558,729	-4,481	-0,107	-0,054
-557,715	-126,744	-0,045	-0,005
-556,700	800,000	-0,031	-0,085
-555,685	-200,000	0,002	0,111
-554,671	-200,000	-0,013	0,045
-553,656	800,000	-0,007	0,021
-552,642	-13,335	0,196	0,093
-551,627	198,202	-0,037	0,041
-550,612	239,678	-0,006	0,007
-549,598	-200,000	0,011	0,075
-548,583	-67,882	-0,131	0,037
-547,569	-31,319	0,160	0,066
-546,554	575,735	-0,012	0,021
-545,539	-200,000	0,003	0,105
-544,525	800,000	0,090	0,184
-543,510	-1,433	-0,047	0,024
-542,496	305,482	-0,034	-0,047
-541,481	-82,396	0,074	0,017
-540,466	800,000	0,026	-0,068
-539,452	184,884	0,092	-0,100
-538,437	800,000	-0,080	0,177
-537,423	222,617	-0,093	0,110
-536,408	-69,753	-0,126	0,035
-535,393	33,186	0,025	-0,016
-534,379	-144,921	-0,086	-0,006
-533,364	-4,880	0,130	-0,065
-532,350	-91,330	0,038	-0,008
-531,335	800,000	0,028	0,068
-530,321	-5,822	0,074	-0,037
-529,306	-200,000	-0,003	-0,083
-528,291	-120,983	0,029	-0,004
-527,277	-200,000	0,015	-0,082
-526,262	129,503	-0,096	-0,089
-525,248	84,543	0,100	-0,080
-524,233	-200,000	-0,017	0,060
-523,218	-85,550	0,125	-0,028
-522,204	32,497	-0,036	0,023
-521,189	723,118	-0,076	0,149
-520,175	-200,000	-0,007	-0,027
-519,160	-100,900	-0,151	-0,027
-518,145	437,385	-0,016	0,026
-517,131	357,285	0,032	-0,046
-516,116	69,220	0,061	-0,046
-515,102	-44,651	-0,083	0,030
-514,087	-44,077	-0,044	0,016
-513,072	-200,000	0,006	-0,120
-512,058	204,496	-0,105	-0,119
-511,043	-200,000	0,021	-0,083
-510,029	-200,000	0,032	0,151
-509,014	800,000	0,040	0,084
-507,999	-200,000	-0,011	0,079
-506,985	-67,844	0,147	0,042
-505,970	682,244	-0,042	-0,081
-504,956	-164,081	0,031	0,001
-503,941	-200,000	0,015	0,097
-502,926	-43,540	0,168	0,062
-501,912	800,000	0,012	-0,025
-500,897	-200,000	-0,007	0,082
-499,883	-181,771	-0,082	-0,001
-498,868	154,951	0,113	-0,114
-497,853	141,475	-0,042	-0,041
-496,839	800,000	0,056	0,121
-495,824	-42,187	0,130	0,048
-494,810	-30,054	-0,051	-0,021
-493,795	727,801	-0,094	0,183
-492,781	423,512	0,030	0,047
-491,766	-200,000	0,001	-0,017
-490,751	50,543	-0,122	-0,084
-489,737	5,535	0,055	0,029
-488,722	-111,129	0,083	-0,012
-487,708	-147,826	-0,103	-0,006
-486,693	-16,607	0,037	-0,017
-485,678	31,767	-0,106	0,067
-484,664	-200,000	-0,028	-0,112
-483,649	44,680	-0,069	-0,046
-482,635	96,101	0,101	-0,085
-481,620	68,483	0,046	0,034
-480,605	-200,000	0,011	-0,114
-479,591	-151,528	-0,052	-0,003
-478,576	800,000	0,025	-0,070
-477,562	-159,976	0,169	-0,007
-476,547	-200,000	0,008	-0,059
-475,532	-200,000	-0,012	-0,068
-474,518	800,000	-0,014	-0,041
-473,503	18,295	0,047	-0,027
-472,489	-200,000	-0,027	-0,115
-471,474	1,904	-0,133	0,070
-470,459	-200,000	-0,015	-0,086
-469,445	131,108	0,097	0,091
-468,430	52,512	0,060	-0,042
-467,416	335,824	-0,103	0,146
-466,401	-200,000	-0,004	0,098
-465,386	-200,000	-0,020	0,131
-464,372	19,823	-0,076	0,044
-463,357	775,531	-0,032	0,063
-462,343	389,536	-0,081	-0,122
-461,328	800,000	-0,043	0,116
-460,313	-153,536	-0,106	-0,005
-459,299	-152,188	0,067	-0,004
-458,284	261,098	0,055	-0,069
-457,270	-200,000	-0,006	0,141
-456,255	352,170	-0,052	-0,076
-455,241	-200,000	0,069	-0,279
-454,226	-79,540	0,045	0,011
-453,211	634,220	0,035	-0,066
-452,197	800,000	0,050	-0,120
-451,182	-200,000	0,007	0,064
-450,168	-11,510	0,112	-0,053
-449,153	96,286	-0,098	-0,082
-448,138	-200,000	0,026	0,102
-447,124	-200,000	-0,009	0,039
-446,109	62,734	0,058	0,042
-445,095	-200,000	-0,035	0,161
-444,080	65,822	0,040	0,029
-443,065	-200,000	-0,000	-0,023
-442,051	-39,643	-0,102	-0,039
-441,036	-200,000	-0,012	-0,118
-440,022	578,059	-0,061	-0,108
-439,007	800,000	-0,064	-0,153
-437,992	47,827	0,085	-0,058
-436,978	590,744	0,048	0,087
-435,963	-200,000	-0,003	0,129
-434,949	-21,567	-0,094	-0,042
-433,934	35,679	0,025	-0,016
-432,919	-200,000	-0,028	-0,150
-431,905	-70,796	0,009	-0,002
-430,890	-200,000	0,042	0,143
-429,876	-54,917	-0,031	0,010
-428,861	-200,000	-0,008	-0,026
-427,846	203,209	-0,106	0,120
-426,832	-4,439	0,079	-0,040
-425,817	136,054	-0,072	-0,068
-424,803	78,324	-0,076	-0,059
-423,788	-97,397	0,139	-0,026
-422,773	-156,953	-0,070	0,003
-421,759	501,548	0,124	0,210
-420,744	800,000	-0,037	-0,078
-419,730	-30,000	-0,047	-0,019
-418,715	73,465	0,045	-0,034
-417,701	800,000	-0,050	-0,106
-416,686	618,543	-0,013	0,024
-415,671	-70,017	0,041	-0,011
-414,657	-200,000	-0,001	0,032
-413,642	21,566	-0,014	0,008
-412,628	-71,699	0,109	-0,029
-411,613	65,130	-0,075	0,055
-410,598	-6,761	0,066	0,033
-409,584	-200,000	-0,007	0,076
-408,569	-154,686	0,067	0,003
-407,555	111,530	0,061	0,053
-406,540	13,953	0,069	-0,039
-405,525	-21,641	0,101	-0,045
-404,511	782,965	-0,010	-0,019
-403,496	371,470	0,003	0,005
-402,482	535,356	0,025	-0,042
-401,467	-24,923	0,094	0,040
-400,452	-33,273	0,121	-0,049
-399,438	261,164	-0,043	-0,055
-398,423	451,473	0,012	-0,019
-397,409	-200,000	-0,020	0,076
-396,394	-72,763	-0,117	-0,031
-395,379	-200,000	0,012	0,119
-394,365	-4,314	0,088	-0,044
-393,350	318,731	-0,039	-0,054
-392,336	319,797	0,091	0,127
-391,321	-200,000	-0,033	-0,121
-390,306	7,541	-0,177	0,096
-389,292	73,113	-0,084	0,064
-388,277	19,551	-0,041	0,024
-387,263	-200,000	-0,004	-0,060
-386,248	273,250	-0,027	0,035
-385,233	142,292	-0,052	0,051
-384,219	9,391	0,175	0,096
-383,204	-200,000	0,013	-0,059
-382,190	334,267	0,031	0,044
-381,175	-58,348	0,115	0,036
-380,160	200,507	0,051	-0,057
-379,146	305,901	0,008	0,011
-378,131	277,298	-0,036	-0,047
-377,117	800,000	0,026	0,072
-376,102	-200,000	0,005	0,085
-375,088	-133,772	0,049	-0,004
-374,073	85,628	-0,125	-0,100
-373,058	-87,085	0,062	0,014
-372,044	333,374	0,075	-0,105
-371,029	-159,874	0,115	-0,004
-370,015	-14,347	0,048	-0,023
-369,000	-179,162	-0,180	0,003
-367,985	800,000	-0,089	-0,188
-366,971	20,582	-0,029	-0,017
-365,956	800,000	0,029	-0,079
-364,942	800,000	-0,066	0,162
-363,927	-200,000	0,004	0,042
-362,912	-71,858	0,101	-0,027
-361,898	-59,776	-0,111	0,034
-360,883	39,459	-0,098	0,064
-359,869	-12,842	0,086	-0,040
-358,854	70,198	-0,138	0,104
-357,839	-200,000	-0,001	0,096
-356,825	32,927	0,090	0,057
-355,810	-133,848	0,067	-0,006
-354,796	-113,722	-0,235	-0,033
-353,781	-56,989	0,134	-0,043
-352,766	138,084	0,067	-0,064
-351,752	-200,000	-0,001	0,046
-350,737	-67,372	-0,014	0,004
-349,723	354,064	-0,062	-0,089
-348,708	-200,000	0,029	0,113
-347,693	435,728	0,122	0,193
-346,679	-200,000	0,006	-0,049
-345,664	-105,365	-0,208	-0,034
-344,650	-200,000	0,026	-0,085
-343,635	-91,228	0,166	0,034
-342,620	63,843	-0,061	0,044
-341,606	13,664	-0,084	0,047
-340,591	40,998	-0,126	0,083
-339,577	-109,597	0,094	0,014
-338,562	87,051	-0,044	-0,036
-337,548	-200,000	0,002	-0,049
-336,533	-200,000	0,030	0,154
-335,518	-200,000	0,035	0,149
-334,504	399,141	0,059	0,089
-333,489	18,833	-0,092	-0,053
-332,475	-81,472	-0,059	0,014
-331,460	-74,065	-0,123	-0,032
-330,445	-159,523	-0,026	0,001
-329,431	228,072	0,033	0,039
-328,416	-8,565	-0,156	0,076
-327,402	-56,790	0,096	0,031
-326,387	174,677	0,056	-0,059
-325,372	-15,986	-0,084	-0,039
-324,358	-170,249	0,089	-0,002
-323,343	-200,000	0,020	0,064
-322,329	47,744	0,147	0,100
-321,314	12,230	-0,149	-0,083
-320,299	800,000	0,041	0,089
-319,285	-200,000	-0,021	0,115
-318,270	-130,895	-0,066	-0,006
-317,256	618,407	0,038	-0,069
-316,241	800,000	-0,060	-0,135
-315,226	-46,084	0,069	-0,024
-314,212	-25,949	0,118	0,050
-313,197	800,000	0,006	0,017
-312,183	800,000	-0,027	0,058
-311,168	-159,687	-0,070	0,003
-310,153	-70,932	-0,134	-0,036
-309,139	-37,292	0,093	0,036
-308,124	15,004	0,119	0,068
-307,110	79,540	0,059	-0,046
-306,095	184,853	-0,081	0,087
-305,080	66,453	0,122	-0,090
-304,066	279,067	-0,058	-0,075
-303,051	-113,681	0,037	-0,005
-302,037	-200,000	-0,035	-0,157
-301,022	-200,000	-0,020	-0,133
-300,008	-6,666	-0,071	-0,035
-298,993	-155,616	-0,037	0,002
-297,978	75,544	0,163	0,125
-296,964	-3,216	-0,119	0,060
-295,949	-171,890	0,137	0,003
-294,935	2,349	-0,028	-0,015
-293,920	-200,000	0,009	0,097
-292,905	73,518	0,100	-0,076
-291,891	336,499	0,033	0,046
-290,876	-5,726	-0,044	-0,022
-289,862	-53,366	-0,065	0,022
-288,847	-79,385	-0,095	-0,023
-287,832	180,321	-0,055	-0,058
-286,818	-157,310	0,021	-0,001
-285,803	88,704	0,151	0,121
-284,789	-22,896	0,072	0,031
-283,774	-200,000	-0,009	0,099
-282,759	25,211	-0,041	0,025
-281,745	294,387	-0,137	-0,182
-280,730	382,554	-0,039	-0,059
-279,716	-54,873	0,074	-0,024
-278,701	-104,953	0,019	-0,003
-277,686	-35,080	0,098	-0,039
-276,672	345,037	0,082	0,117
-275,657	-7,996	-0,060	-0,029
-274,643	11,698	0,091	-0,051
-273,628	377,971	-0,082	-0,122
-272,613	172,576	-0,034	0,035
-271,599	-68,526	0,074	-0,021
-270,584	-140,084	0,116	0,009
-269,570	-64,626	0,133	0,039
-268,555	72,345	0,059	0,044
-267,540	-200,000	-0,018	-0,072
-266,526	14,611	-0,068	-0,038
-265,511	-200,000	0,005	0,039
-264,497	800,000	-0,022	-0,058
-263,482	158,481	-0,123	0,124
-262,467	744,086	0,024	-0,046
-261,453	-110,485	-0,103	0,015
-260,438	122,066	-0,023	0,021
-259,424	163,899	0,018	0,019
-258,409	800,000	0,038	0,092
-257,395	140,174	0,047	0,045
-256,380	33,155	0,098	0,062
-255,365	276,876	0,036	-0,047
-254,351	-200,000	0,019	0,068
-253,336	-108,345	-0,054	0,008
-252,322	-40,661	0,128	-0,048
-251,307	138,379	0,083	-0,079
-250,292	567,823	-0,014	0,026
-249,278	-135,471	-0,010	-0,001
-248,263	100,665	0,088	-0,074
-247,249	587,999	0,077	0,137
-246,234	278,157	0,011	0,015
-245,219	-200,000	-0,040	-0,139
-244,205	353,752	0,064	0,093
-243,190	610,352	-0,024	-0,043
-242,176	161,584	0,096	0,097
-241,161	70,580	-0,116	-0,087
-240,146	283,332	-0,046	0,060
-239,132	-93,644	-0,009	0,002
-238,117	-163,185	-0,014	0,000
-237,103	678,781	-0,124	-0,235
-236,088	313,965	0,122	-0,166
-235,073	45,866	0,147	-0,098
-234,059	-200,000	0,009	-0,093
-233,044	800,000	0,063	0,197
-232,030	16,939	-0,111	0,064
-231,015	291,283	-0,049	-0,065
-230,000	-23,808	0,107	-0,046
-228,986	-200,000	-0,004	-0,036
-227,971	574,325	-0,030	-0,052
-226,957	137,431	0,077	-0,073
-225,942	800,000	0,037	-0,097
-224,927	218,635	-0,019	-0,022
-223,913	175,625	0,043	-0,045
-222,898	-68,476	-0,058	0,016
-221,884	-200,000	0,006	-0,098
-220,869	-35,120	0,136	0,053
-219,855	-11,544	-0,106	0,050
-218,840	184,010	0,083	0,089
-217,825	381,528	0,062	-0,092
-216,811	636,456	-0,041	-0,075
-215,796	800,000	0,021	-0,059
-214,782	37,866	0,037	-0,024
-213,767	-11,540	0,028	0,013
-212,752	80,463	-0,059	-0,046
-211,738	246,644	0,100	0,123
-210,723	-148,794	0,153	-0,009
-209,709	228,625	0,061	-0,072
-208,694	-85,313	0,084	-0,019
-207,679	-101,904	-0,126	-0,022
-206,665	-65,599	-0,086	-0,025
-205,650	-45,078	0,036	0,013
-204,636	-30,057	-0,111	0,046
-203,621	223,947	0,095	-0,111
-202,606	65,780	-0,052	0,038
-201,592	-156,924	-0,044	0,002
-200,577	5,753	0,083	-0,044
-199,563	800,000	-0,035	0,080
-198,548	-200,000	-0,006	-0,219
-197,533	90,982	0,035	-0,028
-196,519	-187,463	0,133	-0,001
-195,504	-10,002	-0,067	0,032
-194,490	567,365	0,059	0,104
-193,475	107,038	-0,089	0,076
-192,460	221,334	0,038	0,044
-191,446	30,343	-0,029	0,018
-190,431	539,593	0,103	0,178
-189,417	-200,000	0,026	0,122
-188,402	370,098	-0,075	0,110
-187,387	-83,328	-0,065	0,015
-186,373	800,000	-0,020	0,044
-185,358	-200,000	-0,001	-0,028
-184,344	-3,961	-0,055	0,027
-183,329	800,000	0,048	-0,102
-182,315	800,000	0,053	-0,106
-181,300	9,607	0,068	0,037
-180,285	-200,000	0,011	-0,044
-179,271	-116,848	-0,091	0,012
-178,256	92,947	0,034	0,027
-177,242	-104,544	0,176	0,029
-176,227	188,669	-0,103	0,112
-175,212	800,000	-0,027	-0,057
-174,198	216,212	0,101	-0,116
-173,183	4,025	0,034	0,018
-172,169	-200,000	0,016	-0,062
-171,154	268,458	-0,008	0,010
-170,139	-200,000	-0,055	0,178
-169,125	-37,574	0,091	-0,035
-168,110	267,777	-0,064	-0,082
-167,096	237,017	-0,105	-0,126
-166,081	-113,511	-0,082	0,011
-165,066	-200,000	-0,001	-0,028
-164,052	159,733	0,030	0,030
-163,037	-79,019	-0,034	-0,008
-162,023	349,099	-0,013	0,019
-161,008	1,486	-0,063	-0,032
-159,993	322,814	0,056	-0,077
-158,979	-44,443	-0,072	-0,026
-157,964	-70,092	-0,057	-0,016
-156,950	-200,000	-0,023	-0,135
-155,935	216,031	0,174	0,200
-154,920	314,184	0,048	-0,065
-153,906	-191,324	0,097	0,001
-152,891	-200,000	0,012	-0,088
-151,877	-68,749	0,128	-0,035
-150,862	800,000	-0,035	-0,092
-149,847	173,898	-0,009	0,009
-148,833	-61,531	0,025	0,007
-147,818	-200,000	0,022	-0,072
-146,804	-149,075	0,029	-0,002
-145,789	-33,998	-0,128	0,051
-144,775	181,446	-0,056	0,059
-143,760	321,591	-0,102	0,141
-142,745	-200,000	0,022	-0,121
-141,731	-103,265	-0,046	0,008
-140,716	174,569	0,049	-0,051
-139,702	-200,000	-0,029	-0,126
-138,687	-44,021	0,076	0,027
-137,672	549,429	0,029	0,050
-136,658	59,089	0,085	0,060
-135,643	207,966	-0,030	0,034
-134,629	-200,000	0,008	0,190
-133,614	-200,000	0,030	-0,098
-132,599	117,181	0,134	0,119
-131,585	545,155	0,063	0,109
-130,570	-200,000	-0,024	0,107
-129,556	-200,000	0,058	0,000
-128,541	-77,822	0,058	0,014
-127,526	-153,752	-0,110	0,005
-126,512	-137,608	0,083	0,007
-125,497	-93,969	-0,083	-0,016
-124,483	-200,000	-0,019	-0,128
-123,468	-200,000	-0,014	0,150
-122,453	-200,000	-0,034	-0,220
-121,439	714,916	-0,078	-0,150
-120,424	800,000	-0,017	-0,038
-119,410	438,535	0,044	-0,069
-118,395	-200,000	-0,035	-0,162
-117,380	5,063	0,089	0,047
-116,366	429,743	0,030	0,046
-115,351	-40,397	-0,079	-0,029
-114,337	111,277	-0,093	-0,080
-113,322	-200,000	0,004	-0,048
-112,307	567,726	0,032	-0,055
-111,293	-200,000	0,011	0,111
-110,278	286,846	-0,065	-0,085
-109,264	-130,218	0,082	-0,008
-108,249	-50,289	-0,077	0,026
-107,234	-29,777	-0,116	-0,047
-106,220	133,894	0,021	-0,020
-105,205	304,149	0,055	0,073
-104,191	666,824	-0,056	-0,105
-103,176	-137,032	0,091	-0,007
-102,162	420,812	0,105	-0,163
-101,147	278,425	-0,151	-0,195
-100,132	-107,597	-0,203	-0,032
-99,118	170,213	0,023	-0,024
-98,103	148,352	0,052	-0,050
-97,089	153,828	0,060	-0,059
-96,074	-167,772	-0,130	-0,004
-95,059	-94,163	-0,109	0,021
-94,045	636,402	0,020	-0,036
-93,030	113,008	-0,039	-0,034
-92,016	-16,797	-0,029	-0,013
-91,001	98,652	-0,055	-0,046
-89,986	-52,976	0,128	-0,042
-88,972	-88,727	0,053	0,011
-87,957	49,901	-0,122	-0,082
-86,943	71,105	0,017	0,012
-85,928	-196,021	-0,145	0,001
-84,913	612,539	-0,035	-0,063
-83,899	-49,900	-0,038	-0,013
-82,884	-93,732	-0,042	0,008
-81,870	-116,690	0,086	0,011
-80,855	-200,000	-0,020	0,082
-79,840	-200,000	-0,005	-0,076
-78,826	-200,000	-0,014	-0,092
-77,811	-85,618	-0,096	-0,021
-76,797	-106,346	0,063	0,010
-75,782	-200,000	0,022	0,075
-74,767	144,828	0,082	0,079
-73,753	68,450	0,083	-0,061
-72,738	326,151	-0,017	-0,023
-71,724	98,503	0,123	0,102
-70,709	800,000	0,017	0,046
-69,694	-42,848	0,069	0,025
-68,680	779,381	0,040	0,080
-67,665	800,000	0,017	-0,036
-66,651	-3,433	0,039	0,019
-65,636	-200,000	-0,017	0,082
-64,622	48,827	-0,127	0,085
-63,607	-93,011	-0,057	-0,011
-62,592	-149,599	0,032	-0,002
-61,578	800,000	0,046	-0,103
-60,563	-200,000	-0,000	-0,055
-59,549	456,867	-0,018	0,028
-58,534	-13,709	-2,046	-0,947
-57,519	800,000	-0,389	-1,027
-56,505	-200,000	-1,269	-4,864
-55,490	-54,039	0,884	0,287
-54,476	800,000	5,304	12,107
-53,461	-200,000	17,206	282,321
-52,446	800,000	721,234	2227,734
-51,432	546,179	1636,844	2821,731
-50,417	112,865	1630,728	1418,560
-49,403	76,630	1287,529	979,546
-48,388	33,227	1030,025	640,170
-47,373	20,364	991,766	573,888
-46,359	18,915	980,004	562,295
-45,344	16,395	976,056	551,741
-44,330	16,697	974,319	551,725
-43,315	16,222	972,578	549,163
-42,300	16,133	971,774	548,396
-41,286	16,098	970,789	547,704
-40,271	16,137	969,677	547,182
-39,257	16,209	968,672	546,827
-38,242	16,240	967,779	546,403
-37,227	16,158	967,187	545,782
-36,213	16,185	966,096	545,232
-35,198	16,172	965,134	544,625
-34,184	16,169	964,597	544,289
-33,169	16,106	963,541	543,468
-32,154	16,154	962,677	543,115
-31,140	16,181	961,686	542,620
-30,125	16,200	961,057	542,306
-29,111	16,201	960,248	541,833
-28,096	16,176	959,624	541,377
-27,082	16,179	958,986	541,005
-26,067	16,135	958,057	540,319
-25,052	16,198	957,148	539,988
-24,038	16,109	956,725	539,440
-23,023	16,099	956,091	539,029
-22,009	16,196	955,405	538,935
-20,994	16,203	954,772	538,578
-19,979	16,212	954,035	538,170
-18,965	16,154	953,643	537,742
-17,950	16,121	953,106	537,311
-16,936	16,116	952,233	536,783
-15,921	16,069	951,624	536,268
-14,906	16,039	950,910	535,746
-13,892	15,963	950,586	535,299
-12,877	16,075	949,468	535,005
-11,863	15,944	948,943	534,271
-10,848	16,043	948,375	534,247
-9,833	16,194	947,768	534,365
-8,819	16,120	947,181	533,777
-7,804	16,077	946,517	533,244
-6,790	16,049	945,925	532,801
-5,775	16,069	945,626	532,674
-4,760	16,089	944,743	532,219
-3,746	16,026	944,299	531,748
-2,731	15,943	943,623	531,084
-1,717	15,886	942,973	530,517
-0,702	15,922	942,235	530,195
0,313	15,641	941,816	529,867
1,327	18,934	939,402	538,862
2,342	27,901	796,855	480,922
3,356	24,549	461,252	273,204
4,371	-2,800	315,360	157,632
5,386	-6,844	297,055	144,365
6,400	-8,892	291,106	139,421
7,415	-9,272	288,637	137,850
8,429	-9,487	287,169	136,926
9,444	-9,527	286,206	136,415
10,459	-9,407	285,679	136,269
11,473	-9,321	285,011	136,023
12,488	-9,320	284,496	135,765
13,502	-9,296	283,867	135,476
14,517	-9,289	283,505	135,298
15,531	-9,233	283,100	135,147
16,546	-9,203	282,610	134,930
17,561	-9,135	282,349	134,859
18,575	-9,318	282,099	134,551
19,590	-9,456	281,687	134,210
20,604	-9,431	281,350	134,061
21,619	-9,405	281,014	133,914
22,634	-9,518	280,650	133,620
23,648	-9,271	280,273	133,666
24,663	-9,131	279,832	133,577
25,677	-9,452	279,837	133,261
26,692	-9,311	279,493	133,220
27,707	-9,363	279,308	133,070
28,721	-9,496	279,131	132,846
29,736	-9,499	278,867	132,707
30,750	-9,486	278,528	132,546
31,765	-9,475	278,191	132,384
32,780	-9,355	278,030	132,410
33,794	-9,331	277,712	132,269
34,809	-9,392	277,446	132,073
35,823	-9,495	277,163	131,829
36,838	-9,570	276,987	131,663
37,853	-9,428	276,745	131,669
38,867	-9,400	276,411	131,526
39,882	-9,313	276,308	131,547
40,896	-9,229	275,952	131,445
41,911	-9,376	275,838	131,241
42,926	-9,580	275,469	130,861
43,940	-9,470	275,323	130,884
44,955	-9,485	274,907	130,660
45,969	-9,471	274,841	130,631
46,984	-9,780	274,691	130,258
47,999	-9,915	274,447	130,004
49,013	-9,894	274,051	129,825
50,028	-9,875	273,630	129,631
51,042	-10,132	273,490	129,314
52,057	-9,929	272,983	129,251
53,071	-10,044	273,105	129,191
54,086	-10,133	273,071	129,081
55,101	-9,874	272,760	129,162
56,115	-9,672	272,593	129,259
57,130	-9,329	272,306	129,430
58,144	-9,203	272,174	129,473
59,159	-9,320	272,093	129,314
60,174	-9,283	271,684	129,143
61,188	-9,292	271,547	129,057
62,203	-9,452	271,307	128,784
63,217	-9,389	271,030	128,700
64,232	-9,457	270,829	128,530
65,247	-9,061	270,459	128,707
66,261	-9,244	270,248	128,427
67,276	-9,361	270,047	128,213
68,290	-9,555	269,885	127,946
69,305	-9,537	269,506	127,771
70,320	-9,585	269,415	127,673
71,334	-9,462	269,350	127,744
72,349	-9,492	269,211	127,638
73,363	-9,404	268,975	127,596
74,378	-9,223	268,676	127,609
75,393	-9,259	268,341	127,405
76,407	-9,241	268,151	127,320
77,422	-9,216	267,859	127,193
78,436	-9,111	267,636	127,170
79,451	-9,276	267,580	126,983
80,466	-9,436	267,451	126,765
81,480	-9,520	267,142	126,531
82,495	-9,357	266,695	126,456
83,509	-9,317	266,852	126,555
84,524	-9,508	266,456	126,183
85,539	-9,529	266,247	126,054
86,553	-9,463	265,873	125,925
87,568	-9,411	265,871	125,960
88,582	-9,276	265,547	125,917
89,597	-9,590	265,437	125,570
90,611	-9,178	265,296	125,864
91,626	-9,316	265,197	125,681
92,641	-9,186	264,937	125,663
93,655	-9,279	264,752	125,481
94,670	-9,359	264,450	125,255
95,684	-9,423	264,329	125,129
96,699	-9,421	264,052	124,989
97,714	-9,180	263,668	125,012
98,728	-9,454	263,679	124,760
99,743	-9,580	263,339	124,475
100,757	-9,495	263,019	124,389
101,772	-9,592	262,971	124,269
102,787	-9,433	262,889	124,361
103,801	-9,620	262,709	124,097
104,816	-9,325	262,449	124,227
105,830	-9,509	262,491	124,072
106,845	-9,252	262,139	124,122
107,860	-9,195	261,903	124,050
108,874	-9,441	261,736	123,742
109,889	-9,367	261,454	123,663
110,903	-9,176	261,215	123,709
111,918	-9,518	261,089	123,334
112,933	-9,127	260,782	123,524
113,947	-9,393	260,818	123,295
114,962	-9,383	260,607	123,193
115,976	-9,530	260,575	123,037
116,991	-9,389	260,198	122,973
118,006	-9,448	260,079	122,853
119,020	-9,105	259,725	122,977
120,035	-9,199	259,848	122,942
121,049	-9,255	259,560	122,746
122,064	-9,360	259,344	122,540
123,079	-9,184	259,022	122,531
124,093	-9,284	258,834	122,344
125,108	-9,581	258,708	122,013
126,122	-9,783	258,412	121,686
127,137	-9,792	258,286	121,607
128,151	-9,805	258,240	121,563
129,166	-9,521	257,896	121,639
130,181	-9,643	257,778	121,467
131,195	-9,534	257,405	121,374
132,210	-9,400	257,195	121,382
133,224	-9,273	257,128	121,450
134,239	-9,381	257,063	121,314
135,254	-9,334	256,737	121,190
136,268	-9,542	256,667	120,965
137,283	-9,728	256,323	120,631
138,297	-9,636	256,085	120,588
139,312	-9,890	255,931	120,285
140,327	-9,471	255,752	120,553
141,341	-9,182	255,694	120,765
142,356	-9,268	255,553	120,613
143,370	-9,214	255,261	120,512
144,385	-9,120	255,184	120,545
145,400	-8,933	254,865	120,544
146,414	-8,952	254,734	120,456
147,429	-9,164	254,604	120,201
148,443	-9,300	254,417	119,985
149,458	-9,090	254,260	120,080
150,473	-9,203	254,088	119,891
151,487	-9,175	253,864	119,800
152,502	-9,250	253,698	119,646
153,516	-9,163	253,494	119,614
154,531	-9,260	253,402	119,477
155,546	-9,336	253,224	119,317
156,560	-9,160	252,990	119,347
157,575	-9,354	252,886	119,121
158,589	-9,131	252,522	119,129
159,604	-9,151	252,269	118,982
160,619	-9,313	252,215	118,808
161,633	-9,104	252,040	118,894
162,648	-9,103	251,886	118,810
163,662	-9,165	251,734	118,676
164,677	-9,138	251,671	118,659
165,692	-9,241	251,469	118,465
166,706	-9,199	251,216	118,371
167,721	-9,119	251,055	118,352
168,735	-9,099	250,906	118,288
169,750	-9,274	250,898	118,126
170,764	-8,985	250,596	118,218
171,779	-9,122	250,484	118,038
172,794	-9,216	250,305	117,864
173,808	-8,932	249,969	117,935
174,823	-9,602	249,876	117,316
175,837	-9,624	249,538	117,128
176,852	-9,312	249,545	117,383
177,867	-9,055	249,291	117,470
178,881	-9,069	249,156	117,384
179,896	-9,180	249,121	117,264
180,910	-9,170	249,001	117,205
181,925	-9,056	248,732	117,164
182,940	-9,166	248,546	116,974
183,954	-9,067	248,396	116,975
184,969	-9,107	248,195	116,837
185,983	-8,928	248,045	116,905
186,998	-8,963	247,932	116,813
188,013	-9,042	247,788	116,668
189,027	-9,039	247,509	116,529
190,042	-9,137	247,348	116,361
191,056	-9,097	247,192	116,311
192,071	-9,128	247,043	116,204
193,086	-9,185	246,752	116,010
194,100	-9,235	246,708	115,937
195,115	-8,821	246,485	116,166
196,129	-9,075	246,258	115,837
197,144	-9,198	246,076	115,640
198,159	-9,196	245,941	115,568
199,173	-9,119	245,877	115,591
200,188	-9,187	245,556	115,374
201,202	-9,234	245,241	115,177
202,217	-9,776	245,044	114,626
203,232	-9,665	244,927	114,653
204,246	-9,243	244,910	114,983
205,261	-8,991	244,646	115,056
206,275	-10,159	244,267	113,908
207,290	-7,078	245,460	116,997
208,304	-0,617	247,485	123,316
209,319	2,388	248,093	126,102
210,334	2,836	248,273	126,554
211,348	2,898	248,289	126,603
212,363	3,388	247,989	126,844
213,377	3,420	247,955	126,842
214,392	3,273	247,790	126,625
215,407	3,512	247,534	126,680
216,421	3,331	247,344	126,422
217,436	3,477	247,375	126,547
218,450	3,521	247,248	126,507
219,465	3,268	246,809	126,063
220,480	3,245	246,665	125,959
221,494	3,204	246,616	125,889
222,509	3,348	246,457	125,915
223,523	3,175	246,227	125,645
224,538	2,852	245,839	125,170
225,553	2,853	245,766	125,123
226,567	3,068	245,654	125,231
227,582	2,856	245,660	125,049
228,596	2,899	245,448	124,965
229,611	2,733	245,304	124,745
230,626	2,827	244,789	124,549
231,640	2,847	244,857	124,589
232,655	3,142	244,476	124,624
233,669	2,766	244,443	124,290
234,684	2,874	244,303	124,295
235,699	3,214	244,281	124,550
236,713	3,170	244,345	124,535
237,728	3,071	244,083	124,311
238,742	3,016	243,586	124,001
239,757	2,741	243,495	123,721
240,772	2,910	243,375	123,786
241,786	3,024	243,266	123,812
242,801	2,689	243,159	123,476
243,815	2,837	242,835	123,419
244,830	3,056	242,847	123,591
245,844	3,054	242,634	123,470
246,859	2,977	242,509	123,334
247,874	2,912	242,230	123,129
248,888	2,939	242,118	123,082
249,903	3,054	242,112	123,161
250,917	3,008	241,985	123,048
251,932	3,342	241,920	123,273
252,947	3,141	241,562	122,918
253,961	3,184	241,268	122,792
254,976	2,989	241,215	122,597
255,990	3,182	241,132	122,699
257,005	3,070	240,779	122,419
258,020	2,694	240,600	122,017
259,034	2,635	240,563	121,939
260,049	2,946	240,427	122,108
261,063	2,736	240,363	121,897
262,078	2,592	240,130	121,653
263,093	3,132	239,879	121,946
264,107	3,012	239,812	121,805
265,122	2,851	239,705	121,611
266,136	3,083	239,527	121,696
267,151	3,358	239,488	121,883
268,166	3,140	239,145	121,525
269,180	2,674	238,995	121,067
270,195	3,445	239,030	121,686
271,209	3,461	238,840	121,592
272,224	3,039	238,603	121,126
273,239	2,735	238,356	120,748
274,253	2,777	238,198	120,692
275,268	2,908	238,124	120,746
276,282	3,202	237,997	120,904
277,297	3,015	237,808	120,650
278,312	2,967	237,631	120,511
279,326	3,132	237,508	120,568
280,341	3,003	237,559	120,482
281,355	2,822	237,336	120,215
282,370	3,096	237,204	120,353
283,384	2,967	236,945	120,110
284,399	2,733	236,797	119,840
285,414	2,650	236,576	119,652
286,428	2,675	236,490	119,618
287,443	2,975	236,333	119,763
288,457	3,150	236,191	119,818
289,472	3,275	236,167	119,892
290,487	2,910	235,967	119,494
291,501	2,750	235,723	119,236
292,516	2,483	235,485	118,896
293,530	2,701	235,360	118,992
294,545	2,874	235,460	119,167
295,560	2,891	235,211	119,044
296,574	2,705	234,958	118,760
297,589	2,938	234,810	118,856
298,603	3,295	234,778	119,107
299,618	3,189	234,644	118,946
300,633	3,082	234,488	118,773
301,647	3,121	234,465	118,781
302,662	3,505	234,288	118,979
303,676	3,332	234,154	118,766
304,691	3,209	233,928	118,546
305,706	3,259	233,829	118,524
306,720	3,412	233,590	118,510
307,735	3,271	233,469	118,330
308,749	3,195	233,210	118,129
309,764	2,843	232,992	117,736
310,779	2,802	232,881	117,639
311,793	2,740	232,568	117,422
312,808	2,851	232,468	117,446
313,822	2,686	232,349	117,249
314,837	2,672	232,026	117,065
315,852	2,551	232,288	117,094
316,866	2,996	232,001	117,280
317,881	3,161	232,027	117,410
318,895	3,231	231,742	117,308
319,910	3,408	231,668	117,396
320,925	3,197	231,530	117,154
321,939	3,059	231,404	116,974
322,954	2,941	231,299	116,821
323,968	3,108	230,928	116,751
324,983	3,006	230,753	116,574
325,997	2,774	230,676	116,347
327,012	3,020	230,409	116,389
328,027	3,185	230,549	116,576
329,041	3,489	230,409	116,726
330,056	3,609	230,486	116,846
331,070	3,837	230,332	116,931
332,085	3,321	229,934	116,326
333,100	3,007	229,810	116,015
334,114	3,242	229,683	116,119
335,129	3,370	229,584	116,155
336,143	3,440	229,313	116,061
337,158	3,483	229,236	116,044
338,173	3,346	229,099	115,861
339,187	3,225	228,963	115,690
340,202	3,455	228,672	115,706
341,216	3,499	228,589	115,687
342,231	3,107	228,430	115,301
343,246	3,229	228,446	115,391
344,260	3,029	228,311	115,162
345,275	3,483	228,118	115,396
346,289	3,404	227,892	115,212
347,304	3,388	227,762	115,124
348,319	3,460	227,633	115,103
349,333	3,482	227,335	114,958
350,348	3,255	227,192	114,705
351,362	3,306	227,210	114,742
352,377	3,323	227,054	114,666
353,392	3,164	226,797	114,407
354,406	3,146	226,673	114,321
355,421	196,252	1321,478	1401,336
356,435	157,363	1454,870	1401,354
