DTS Sentinel unit serial number:	SN410029Multiplexer serial number:	ORYXHardware model number:	OX2-SRSoftware version number:	ORYX F/W v4,00 Oryx Data Collector v3.7.2.0data status	okinstallation	B5 Nyhavnadifferential loss correction	single-endedforward channel	channel 2reverse channel	N/Adate	2023/12/12time	21:27:13forward acquisition time	300,00reverse acquisition time	0,00gamma	499,1914k internal	0,3158k external	0,3158temperature offset calibration	1,0000default loss term (dB/km)	0,3820temperature slope calibration	1,0000multiplexer offset coefficient	1,0000multiplexer slope coefficient	1,0000fibre end	0,00T internal ref (°C)	14,91T ext. ref 1 (°C)	-1,71T ext. ref 2 (°C)	-2,00length (m)	temperature (°C)	Stokes	anti-Stokes-744,400	-29,371	0,186	0,078
-743,385	-114,844	-0,352	0,049
-742,371	-145,592	0,240	0,016
-741,356	-106,250	-0,265	-0,043
-740,342	119,995	0,081	0,074
-739,327	-94,648	-0,277	0,055
-738,312	-200,000	0,021	-0,123
-737,298	-113,048	-0,328	-0,047
-736,283	79,190	-0,013	0,010
-735,269	-77,374	-0,198	-0,050
-734,254	-200,000	-0,008	-0,039
-733,239	-5,474	-0,462	-0,233
-732,225	-72,880	0,209	0,056
-731,210	-29,062	0,156	-0,066
-730,196	757,487	0,021	-0,041
-729,181	37,961	-0,106	-0,069
-728,167	-200,000	-0,005	-0,038
-727,152	-161,530	-0,097	0,004
-726,137	91,739	0,027	-0,023
-725,123	255,010	0,046	-0,058
-724,108	800,000	-0,062	-0,146
-723,094	-89,897	-0,055	-0,012
-722,079	-141,068	-0,161	-0,012
-721,064	-200,000	0,020	-0,145
-720,050	-200,000	-0,041	0,166
-719,035	254,765	0,062	0,079
-718,021	42,311	-0,081	-0,054
-717,006	-48,209	-0,074	0,026
-715,991	-73,697	-0,111	-0,029
-714,977	-200,000	0,022	-0,076
-713,962	-200,000	-0,033	-0,130
-712,948	755,804	-0,044	0,088
-711,933	-138,410	0,108	0,009
-710,918	800,000	-0,035	0,096
-709,904	2,469	-0,057	-0,030
-708,889	191,357	-0,014	0,015
-707,875	-63,678	0,088	-0,027
-706,860	800,000	-0,014	0,045
-705,845	-200,000	0,015	-0,099
-704,831	800,000	-0,023	-0,060
-703,816	321,686	0,059	0,083
-702,802	800,000	0,036	0,093
-701,787	74,268	-0,109	-0,084
-700,772	83,166	-0,040	-0,032
-699,758	99,895	0,015	0,013
-698,743	-149,448	0,044	0,003
-697,729	800,000	-0,029	-0,066
-696,714	-200,000	-0,000	0,051
-695,699	-163,464	0,043	-0,001
-694,685	94,871	-0,068	-0,057
-693,670	341,049	-0,096	-0,138
-692,656	56,737	-0,022	0,015
-691,641	-58,037	-0,063	0,020
-690,627	504,678	-0,035	-0,060
-689,612	-58,603	-0,025	-0,008
-688,597	41,580	0,098	0,065
-687,583	-57,897	-0,105	-0,034
-686,568	-63,398	-0,117	-0,035
-685,554	-120,788	-0,094	-0,012
-684,539	800,000	-0,044	0,094
-683,524	376,450	0,037	0,056
-682,510	71,677	-0,056	0,043
-681,495	-55,878	0,047	-0,015
-680,481	23,488	0,125	-0,075
-679,466	56,787	0,049	-0,035
-678,451	-50,833	-0,267	-0,092
-677,437	-107,383	0,103	-0,016
-676,422	800,000	0,054	0,134
-675,408	-200,000	-0,010	0,042
-674,393	800,000	-0,017	-0,046
-673,378	24,960	-0,089	-0,054
-672,364	-53,083	0,086	0,029
-671,349	280,975	-0,016	0,021
-670,335	800,000	-0,025	0,068
-669,320	463,735	0,047	-0,078
-668,305	800,000	-0,019	0,051
-667,291	-47,299	0,116	-0,041
-666,276	413,602	-0,047	-0,074
-665,262	-153,100	-0,171	0,009
-664,247	-200,000	0,006	-0,077
-663,232	-200,000	-0,028	-0,227
-662,218	-200,000	-0,024	0,135
-661,203	8,513	0,008	0,005
-660,189	48,983	0,030	-0,021
-659,174	172,991	0,006	0,007
-658,159	-200,000	-0,045	-0,149
-657,145	117,929	-0,054	0,049
-656,130	800,000	-0,010	-0,028
-655,116	608,384	0,036	-0,065
-654,101	164,653	-0,033	-0,034
-653,086	-10,230	-0,049	-0,024
-652,072	287,927	0,078	0,104
-651,057	114,897	-0,059	0,053
-650,043	44,188	-0,074	-0,050
-649,028	60,909	0,041	0,030
-648,014	-36,187	-0,092	-0,036
-646,999	-200,000	0,027	0,135
-645,984	800,000	0,012	-0,032
-644,970	-82,270	-0,082	-0,019
-643,955	-126,232	-0,159	-0,017
-642,941	-200,000	-0,012	0,045
-641,926	-29,304	-0,068	-0,029
-640,911	-114,732	0,133	0,019
-639,897	257,095	0,043	-0,054
-638,882	39,466	-0,087	0,057
-637,868	-52,061	0,058	0,020
-636,853	-112,280	-0,060	0,009
-635,838	800,000	0,024	0,074
-634,824	-5,611	0,093	0,047
-633,809	125,858	0,064	-0,060
-632,795	800,000	-0,038	0,095
-631,780	702,769	-0,037	0,072
-630,765	479,577	-0,070	-0,116
-629,751	541,712	0,078	0,136
-628,736	281,214	0,023	-0,031
-627,722	-52,263	0,002	0,001
-626,707	-56,092	-0,083	-0,027
-625,692	-200,000	0,031	-0,149
-624,678	26,942	0,089	-0,054
-623,663	-200,000	-0,021	-0,106
-622,649	148,265	-0,139	-0,138
-621,634	-58,825	-0,122	0,038
-620,619	163,993	-0,064	0,066
-619,605	711,619	-0,044	-0,086
-618,590	-47,211	0,104	0,037
-617,576	17,022	0,086	0,050
-616,561	-200,000	-0,030	-0,168
-615,546	404,534	-0,018	-0,027
-614,532	-181,323	0,041	0,001
-613,517	-136,654	0,096	-0,008
-612,503	127,134	-0,077	0,072
-611,488	-200,000	-0,023	0,076
-610,474	-57,431	-0,148	-0,047
-609,459	152,317	-0,060	0,060
-608,444	185,071	0,066	0,072
-607,430	-52,705	-0,091	-0,031
-606,415	347,947	-0,058	0,085
-605,401	216,099	0,035	0,040
-604,386	-110,329	0,030	0,005
-603,371	-96,190	-0,179	0,035
-602,357	170,860	-0,044	0,047
-601,342	-38,446	-0,054	0,021
-600,328	643,707	-0,034	-0,064
-599,313	800,000	-0,075	-0,213
-598,298	228,891	-0,026	0,031
-597,284	-200,000	0,034	0,123
-596,269	82,887	-0,096	-0,076
-595,255	-32,478	-0,041	0,017
-594,240	-165,352	-0,211	-0,007
-593,225	10,991	-0,147	-0,082
-592,211	-200,000	0,003	-0,022
-591,196	720,190	0,032	-0,064
-590,182	28,361	0,068	0,042
-589,167	-200,000	-0,005	-0,044
-588,152	515,923	0,087	0,149
-587,138	450,873	0,016	0,027
-586,123	-81,021	0,159	-0,038
-585,109	-20,033	0,070	-0,031
-584,094	-78,718	0,020	0,005
-583,079	800,000	0,054	0,148
-582,065	-47,240	-0,062	0,022
-581,050	-159,026	-0,059	0,002
-580,036	-50,569	-0,011	0,004
-579,021	-59,158	-0,119	-0,037
-578,006	69,079	0,048	-0,036
-576,992	260,224	0,024	-0,030
-575,977	362,646	-0,026	-0,039
-574,963	-156,734	0,011	-0,001
-573,948	51,818	0,032	-0,022
-572,934	369,937	0,024	0,036
-571,919	-200,000	-0,009	-0,095
-570,904	250,081	-0,115	0,144
-569,890	-200,000	-0,004	-0,096
-568,875	-18,655	0,044	0,020
-567,861	-200,000	0,011	-0,128
-566,846	-53,767	0,024	0,008
-565,831	445,396	-0,043	0,070
-564,817	-45,754	-0,109	-0,039
-563,802	234,539	-0,054	0,065
-562,788	-54,107	0,073	0,024
-561,773	800,000	-0,044	0,140
-560,758	279,542	0,046	-0,060
-559,744	-200,000	-0,041	0,177
-558,729	-200,000	-0,010	0,047
-557,715	-200,000	-0,013	-0,046
-556,700	-123,995	-0,043	0,005
-555,685	216,294	-0,060	-0,070
-554,671	-139,372	-0,062	0,005
-553,656	800,000	0,019	0,045
-552,642	637,396	-0,064	-0,119
-551,627	48,218	0,126	-0,086
-550,612	242,511	-0,032	0,040
-549,598	-200,000	-0,001	-0,108
-548,583	87,964	-0,024	-0,020
-547,569	102,226	-0,042	0,036
-546,554	274,991	-0,056	0,072
-545,539	-23,797	0,074	0,032
-544,525	49,634	-0,034	0,024
-543,510	111,893	0,093	0,082
-542,496	71,602	0,046	-0,035
-541,481	-200,000	-0,018	-0,096
-540,466	-200,000	-0,006	0,100
-539,452	-6,379	0,096	0,048
-538,437	-40,417	-0,072	0,027
-537,423	800,000	0,058	-0,139
-536,408	-200,000	0,003	-0,155
-535,393	-200,000	0,022	-0,100
-534,379	-200,000	0,003	0,026
-533,364	153,026	0,104	-0,104
-532,350	-200,000	0,005	0,056
-531,335	-6,931	-0,075	-0,037
-530,321	424,311	-0,075	0,118
-529,306	106,277	-0,096	0,083
-528,291	800,000	-0,003	-0,009
-527,277	-200,000	-0,009	0,036
-526,262	-200,000	0,001	0,041
-525,248	-98,270	-0,040	-0,007
-524,233	-200,000	-0,034	0,151
-523,218	-128,493	0,191	0,020
-522,204	-200,000	-0,020	-0,089
-521,189	484,978	-0,020	-0,033
-520,175	-200,000	-0,021	-0,076
-519,160	138,764	0,107	-0,103
-518,145	-178,132	0,085	0,001
-517,131	9,992	0,090	-0,050
-516,116	2,368	-0,060	-0,032
-515,102	-93,931	-0,171	0,034
-514,087	-140,026	-0,083	0,006
-513,072	-41,362	-0,107	-0,040
-512,058	172,965	0,089	-0,093
-511,043	800,000	0,006	-0,013
-510,029	-200,000	0,038	0,164
-509,014	286,972	0,050	0,066
-507,999	800,000	-0,017	-0,039
-506,985	-200,000	0,013	-0,152
-505,970	270,505	-0,107	0,137
-504,956	9,116	0,102	0,056
-503,941	800,000	-0,014	0,042
-502,926	525,153	-0,035	-0,060
-501,912	-200,000	-0,001	-0,025
-500,897	-200,000	-0,012	0,115
-499,883	-68,385	-0,142	0,040
-498,868	32,380	-0,063	-0,040
-497,853	334,855	0,023	0,032
-496,839	242,365	0,047	-0,058
-495,824	-200,000	-0,017	0,144
-494,810	235,554	0,089	0,108
-493,795	186,271	0,006	0,006
-492,781	-200,000	-0,025	-0,164
-491,766	-200,000	-0,017	-0,070
-490,751	-200,000	-0,000	0,080
-489,737	-100,654	0,112	-0,020
-488,722	-200,000	-0,009	0,073
-487,708	500,399	-0,061	-0,104
-486,693	-200,000	0,034	0,176
-485,678	646,048	0,014	0,027
-484,664	-68,811	0,049	0,014
-483,649	39,514	-0,080	0,052
-482,635	189,805	0,027	-0,029
-481,620	-200,000	0,035	0,114
-480,605	-200,000	-0,002	-0,005
-479,591	133,319	-0,025	0,023
-478,576	-85,819	-0,152	0,034
-477,562	800,000	0,031	-0,076
-476,547	6,818	-0,073	0,040
-475,532	-200,000	-0,032	-0,148
-474,518	-200,000	0,015	0,092
-473,503	-125,948	0,013	0,001
-472,489	-126,610	-0,138	-0,015
-471,474	-68,917	0,051	0,014
-470,459	443,450	0,072	-0,115
-469,445	-174,970	-0,115	0,002
-468,430	516,729	-0,065	-0,112
-467,416	761,480	0,050	-0,100
-466,401	411,823	0,045	0,070
-465,386	-125,389	0,162	-0,018
-464,372	224,798	-0,027	0,032
-463,357	9,518	0,176	0,097
-462,343	367,694	-0,022	-0,033
-461,328	800,000	0,043	-0,104
-460,313	-200,000	-0,022	0,098
-459,299	0,671	0,042	-0,022
-458,284	-176,030	-0,134	0,003
-457,270	800,000	0,032	0,069
-456,255	-57,206	-0,239	-0,076
-455,241	404,289	-0,062	-0,095
-454,226	86,710	-0,095	-0,076
-453,211	176,710	0,085	-0,090
-452,197	16,381	0,060	-0,035
-451,182	145,081	0,108	0,105
-450,168	800,000	-0,035	-0,089
-449,153	-107,279	-0,189	0,030
-448,138	163,962	0,130	0,133
-447,124	-112,916	-0,066	-0,009
-446,109	339,933	-0,032	0,046
-445,095	180,203	0,084	0,090
-444,080	-69,750	0,047	-0,013
-443,065	272,868	0,043	0,056
-442,051	-36,959	-0,117	-0,045
-441,036	-200,000	-0,001	-0,221
-440,022	-72,239	0,089	0,024
-439,007	-74,954	0,050	-0,013
-437,992	316,087	0,009	0,013
-436,978	-87,588	0,131	0,029
-435,963	-200,000	-0,007	0,055
-434,949	-129,541	-0,068	0,007
-433,934	455,361	0,043	0,070
-432,919	-84,083	-0,068	0,016
-431,905	28,754	0,093	0,057
-430,890	6,486	0,172	0,093
-429,876	-109,402	-0,095	0,015
-428,861	-8,428	0,112	0,054
-427,846	113,886	0,048	0,043
-426,832	-23,385	-0,093	0,041
-425,817	434,526	0,056	0,089
-424,803	128,930	0,101	0,094
-423,788	545,264	0,041	-0,071
-422,773	259,140	0,121	-0,152
-421,759	800,000	-0,011	0,028
-420,744	-112,695	-0,079	0,011
-419,730	-200,000	-0,027	0,093
-418,715	-146,704	-0,105	0,007
-417,701	-200,000	0,012	-0,047
-416,686	-200,000	-0,002	0,026
-415,671	12,939	0,122	0,069
-414,657	-8,914	-0,157	-0,076
-413,642	-200,000	0,002	0,056
-412,628	-26,384	0,062	-0,026
-411,613	118,942	0,097	-0,087
-410,598	-50,143	0,032	0,011
-409,584	800,000	0,053	0,149
-408,569	-65,336	0,130	-0,038
-407,555	-100,189	-0,126	0,023
-406,540	372,152	0,035	0,052
-405,525	209,965	0,110	-0,126
-404,511	-129,681	-0,125	0,012
-403,496	223,130	0,004	-0,004
-402,482	800,000	0,018	-0,053
-401,467	-43,300	0,113	-0,041
-400,452	-72,708	0,110	-0,029
-399,438	800,000	0,032	-0,077
-398,423	141,296	0,068	0,066
-397,409	117,385	-0,056	0,050
-396,394	-139,259	-0,150	0,012
-395,379	271,983	0,089	-0,114
-394,365	800,000	-0,057	0,128
-393,350	-104,393	-0,064	0,011
-392,336	-200,000	0,014	0,047
-391,321	266,643	-0,024	-0,030
-390,306	-87,292	0,082	-0,018
-389,292	185,716	-0,035	0,038
-388,277	-129,143	0,057	0,006
-387,263	11,663	0,120	0,067
-386,248	800,000	-0,012	-0,028
-385,233	800,000	-0,025	-0,066
-384,219	-200,000	-0,015	0,152
-383,204	-34,387	-0,048	-0,019
-382,190	378,389	-0,050	-0,074
-381,175	-22,048	-0,042	0,019
-380,160	48,736	0,115	0,078
-379,146	214,703	-0,025	0,029
-378,131	-47,343	0,162	0,057
-377,117	-200,000	0,009	0,173
-376,102	-200,000	-0,029	-0,116
-375,088	146,731	-0,045	-0,044
-374,073	800,000	0,034	0,081
-373,058	55,867	0,032	0,022
-372,044	115,402	0,089	0,079
-371,029	-20,177	0,064	0,029
-370,015	-129,055	-0,099	-0,010
-369,000	-178,268	-0,036	-0,001
-367,985	-200,000	-0,001	-0,023
-366,971	800,000	-0,013	-0,033
-365,956	800,000	0,001	-0,003
-364,942	-19,417	0,089	0,040
-363,927	-200,000	-0,019	0,083
-362,912	-48,947	0,107	-0,037
-361,898	216,013	0,063	-0,073
-360,883	493,195	0,052	-0,086
-359,869	154,233	0,080	-0,079
-358,854	-169,858	-0,082	0,002
-357,839	17,322	0,100	0,057
-356,825	-3,051	0,062	0,032
-355,810	-139,337	0,178	-0,014
-354,796	-200,000	-0,017	-0,198
-353,781	800,000	0,065	-0,152
-352,766	-80,357	-0,167	0,040
-351,752	58,878	-0,029	-0,021
-350,737	-122,503	0,101	0,012
-349,723	800,000	0,015	-0,049
-348,708	344,870	-0,022	-0,031
-347,693	-200,000	-0,024	0,152
-346,679	41,813	-0,254	-0,167
-345,664	-200,000	-0,047	-0,166
-344,650	-25,853	-0,160	-0,068
-343,635	800,000	0,041	-0,098
-342,620	149,811	0,115	0,113
-341,606	535,189	0,017	-0,030
-340,591	-200,000	0,028	0,134
-339,577	222,616	0,068	-0,080
-338,562	-200,000	-0,012	-0,137
-337,548	-200,000	0,020	0,083
-336,533	-38,134	0,038	0,015
-335,518	-1,518	0,080	-0,041
-334,504	800,000	-0,038	-0,118
-333,489	-200,000	0,013	0,079
-332,475	19,576	-0,101	-0,059
-331,460	123,893	-0,080	-0,073
-330,445	-200,000	0,013	0,154
-329,431	71,194	0,037	0,028
-328,416	-200,000	0,023	0,079
-327,402	50,402	-0,071	0,048
-326,387	-84,842	0,121	0,027
-325,372	119,559	-0,057	0,052
-324,358	-60,646	0,185	0,056
-323,343	-85,512	-0,165	0,037
-322,329	93,954	0,071	-0,058
-321,314	457,543	-0,037	-0,059
-320,299	800,000	-0,010	0,022
-319,285	25,070	-0,145	0,087
-318,270	-131,140	-0,053	0,005
-317,256	800,000	-0,013	0,027
-316,241	-200,000	-0,003	0,052
-315,226	-195,908	0,123	-0,001
-314,212	-90,813	-0,054	-0,011
-313,197	68,092	0,097	-0,072
-312,183	-1,982	0,088	0,045
-311,168	-200,000	-0,006	0,145
-310,153	-72,780	0,077	0,020
-309,139	26,210	0,078	0,047
-308,124	-106,686	0,038	-0,006
-307,110	-165,342	0,146	0,005
-306,095	-200,000	-0,011	0,055
-305,080	19,500	0,006	-0,004
-304,066	-10,480	0,085	0,041
-303,051	-58,061	0,071	-0,022
-302,037	-25,132	-0,071	0,030
-301,022	-107,494	-0,061	-0,010
-300,008	-26,715	-0,050	-0,021
-298,993	-74,930	-0,105	-0,027
-297,978	-169,179	-0,055	0,001
-296,964	350,963	-0,082	0,117
-295,949	118,712	0,075	0,068
-294,935	-51,213	-0,094	0,032
-293,920	313,632	-0,020	0,028
-292,905	800,000	-0,019	-0,048
-291,891	-200,000	0,027	0,134
-290,876	0,362	-0,045	-0,023
-289,862	143,005	0,064	0,062
-288,847	-200,000	0,014	-0,068
-287,832	392,979	-0,039	0,059
-286,818	800,000	-0,031	-0,082
-285,803	800,000	0,007	0,015
-284,789	-200,000	0,005	0,072
-283,774	760,305	-0,015	0,030
-282,759	800,000	0,033	0,072
-281,745	-200,000	-0,021	-0,084
-280,730	-200,000	-0,016	-0,141
-279,716	760,781	-0,071	0,139
-278,701	493,105	0,071	0,118
-277,686	-80,379	-0,077	-0,018
-276,672	0,775	0,077	0,040
-275,657	-0,589	-0,098	0,050
-274,643	-65,193	-0,107	0,031
-273,628	-200,000	-0,025	-0,097
-272,613	74,708	0,020	0,015
-271,599	261,080	0,041	0,052
-270,584	800,000	0,080	0,169
-269,570	-33,877	-0,068	0,027
-268,555	800,000	0,014	-0,039
-267,540	800,000	-0,032	-0,084
-266,526	11,857	-0,076	-0,042
-265,511	-95,858	-0,087	0,017
-264,497	-69,106	-0,098	0,027
-263,482	-12,587	0,172	-0,081
-262,467	-200,000	-0,034	-0,151
-261,453	129,659	0,091	-0,084
-260,438	-165,673	0,068	0,002
-259,424	486,749	0,070	-0,115
-258,409	4,694	0,047	-0,025
-257,395	-200,000	0,034	-0,138
-256,380	653,204	0,072	-0,134
-255,365	-45,661	0,128	-0,045
-254,351	-200,000	-0,002	-0,016
-253,336	-200,000	-0,018	-0,067
-252,322	77,139	0,166	-0,128
-251,307	-183,429	-0,127	0,002
-250,292	-200,000	0,007	0,033
-249,278	-200,000	0,024	0,183
-248,263	158,323	0,125	0,125
-247,249	-200,000	0,001	0,094
-246,234	-96,740	-0,106	-0,020
-245,219	43,725	-0,037	0,024
-244,205	-200,000	-0,004	0,030
-243,190	-39,594	-0,074	0,028
-242,176	-200,000	-0,047	-0,231
-241,161	-108,628	-0,072	-0,011
-240,146	-200,000	0,000	0,137
-239,132	-31,432	-0,072	-0,029
-238,117	-100,191	-0,105	0,019
-237,103	-200,000	0,014	-0,105
-236,088	-115,174	-0,055	-0,007
-235,073	493,741	0,068	0,113
-234,059	29,488	-0,032	-0,020
-233,044	77,659	0,067	0,051
-232,030	-200,000	-0,003	-0,061
-231,015	-105,379	-0,175	-0,028
-230,000	423,851	0,060	0,094
-228,986	143,776	-0,082	-0,079
-227,971	6,782	-0,054	-0,029
-226,957	3,443	0,139	0,073
-225,942	-200,000	-0,009	-0,053
-224,927	-17,021	0,026	-0,012
-223,913	-200,000	-0,012	-0,115
-222,898	800,000	0,051	-0,148
-221,884	282,451	0,053	0,069
-220,869	735,703	0,026	0,051
-219,855	75,896	-0,036	0,027
-218,840	86,193	-0,055	0,043
-217,825	28,783	-0,026	0,016
-216,811	4,063	-0,216	-0,114
-215,796	35,104	-0,107	-0,067
-214,782	-141,618	0,111	0,008
-213,767	-71,683	-0,039	-0,010
-212,752	-49,440	-0,071	-0,024
-211,738	-200,000	-0,020	0,078
-210,723	-116,266	-0,044	-0,006
-209,709	800,000	-0,024	0,067
-208,694	240,055	0,086	-0,103
-207,679	800,000	-0,079	-0,182
-206,665	22,937	-0,033	0,020
-205,650	-179,836	0,081	0,001
-204,636	-74,844	-0,031	-0,008
-203,621	-200,000	-0,026	-0,133
-202,606	11,968	-0,085	0,047
-201,592	312,030	0,047	-0,064
-200,577	800,000	-0,043	-0,088
-199,563	42,663	0,041	-0,027
-198,548	9,095	0,046	0,025
-197,533	23,869	-0,105	-0,062
-196,519	800,000	-0,022	0,050
-195,504	-200,000	0,006	0,065
-194,490	1,822	0,055	0,028
-193,475	29,780	-0,093	-0,057
-192,460	-49,700	-0,082	0,028
-191,446	125,776	0,098	0,089
-190,431	-200,000	0,015	0,068
-189,417	314,748	-0,003	0,004
-188,402	800,000	-0,067	-0,155
-187,387	174,868	0,087	0,091
-186,373	19,577	-0,110	-0,064
-185,358	69,544	0,056	-0,042
-184,344	205,166	0,032	-0,036
-183,329	613,324	0,064	0,117
-182,315	-114,189	0,116	0,016
-181,300	-34,744	-0,071	-0,028
-180,285	507,816	0,035	-0,059
-179,271	366,021	-0,012	-0,018
-178,256	-120,977	-0,093	-0,011
-177,242	-127,137	0,094	-0,010
-176,227	-10,337	0,121	-0,058
-175,212	-200,000	0,041	-0,136
-174,198	-78,421	-0,071	0,018
-173,183	-135,508	0,013	0,001
-172,169	-32,199	0,069	0,028
-171,154	351,241	0,098	-0,140
-170,139	-120,733	0,110	0,013
-169,125	-28,835	0,140	0,058
-168,110	-4,365	0,071	0,035
-167,096	-10,501	0,054	0,026
-166,081	-59,145	0,069	0,021
-165,066	-150,690	-0,139	0,007
-164,052	800,000	0,017	0,054
-163,037	-64,109	0,102	0,030
-162,023	90,410	0,041	-0,033
-161,008	608,410	-0,037	-0,066
-159,993	-56,842	0,077	0,024
-158,979	800,000	-0,022	0,052
-157,964	800,000	-0,079	-0,160
-156,950	250,529	-0,031	-0,038
-155,935	-60,970	0,059	0,018
-154,920	-200,000	-0,033	0,127
-153,906	-5,816	0,129	0,064
-152,891	-58,358	-0,113	-0,035
-151,877	-80,271	-0,034	0,008
-150,862	-200,000	-0,000	-0,142
-149,847	800,000	-0,052	-0,144
-148,833	-33,666	-0,074	0,029
-147,818	-18,008	0,066	-0,030
-146,804	-200,000	-0,002	0,023
-145,789	100,435	0,059	-0,050
-144,775	-52,609	-0,005	0,002
-143,760	-200,000	0,002	-0,128
-142,745	-160,764	-0,197	0,007
-141,731	-74,659	0,074	0,019
-140,716	-200,000	-0,002	-0,040
-139,702	-66,525	0,059	0,017
-138,687	-106,462	-0,127	-0,020
-137,672	-118,164	-0,155	0,020
-136,658	-200,000	0,005	-0,055
-135,643	256,311	0,043	-0,054
-134,629	80,438	-0,099	0,076
-133,614	-77,396	-0,053	0,013
-132,599	194,779	-0,023	0,025
-131,585	-200,000	0,021	-0,111
-130,570	421,648	0,074	0,114
-129,556	-36,952	-0,181	-0,069
-128,541	-200,000	0,003	-0,081
-127,526	800,000	-0,061	-0,158
-126,512	-200,000	0,017	-0,076
-125,497	43,156	0,041	0,027
-124,483	-200,000	0,001	-0,081
-123,468	-200,000	0,024	-0,151
-122,453	-200,000	0,002	0,066
-121,439	354,518	0,023	-0,033
-120,424	72,004	-0,097	-0,072
-119,410	13,302	0,067	0,037
-118,395	-100,684	-0,025	0,004
-117,380	-200,000	-0,044	0,158
-116,366	21,421	-0,058	0,034
-115,351	-42,708	0,104	-0,038
-114,337	-200,000	-0,013	-0,272
-113,322	-43,150	0,093	-0,034
-112,307	281,578	0,048	-0,062
-111,293	-80,112	-0,019	-0,005
-110,278	-200,000	-0,017	0,059
-109,264	188,075	-0,075	-0,080
-108,249	132,674	0,038	-0,035
-107,234	175,960	-0,066	0,068
-106,220	244,775	0,154	-0,186
-105,205	47,037	0,075	0,050
-104,191	-200,000	0,024	0,079
-103,176	514,650	0,021	-0,035
-102,162	35,237	-0,102	0,064
-101,147	73,094	-0,132	0,099
-100,132	-200,000	-0,004	-0,028
-99,118	121,603	0,043	-0,039
-98,103	-106,718	0,065	0,010
-97,089	5,933	-0,032	-0,017
-96,074	-64,289	-0,062	0,018
-95,059	-149,133	-0,026	-0,001
-94,045	-30,772	-0,143	0,058
-93,030	352,284	-0,104	0,149
-92,016	-50,360	-0,106	0,036
-91,001	-54,247	0,023	0,007
-89,986	800,000	0,004	-0,010
-88,972	-200,000	-0,006	0,063
-87,957	-200,000	-0,008	-0,047
-86,943	24,053	0,055	-0,033
-85,928	168,957	-0,119	-0,122
-84,913	800,000	-0,043	0,119
-83,899	-104,805	0,097	0,016
-82,884	21,445	0,051	0,030
-81,870	219,228	0,030	0,034
-80,855	784,925	-0,046	0,090
-79,840	181,788	-0,101	0,107
-78,826	49,050	0,048	0,033
-77,811	-200,000	0,012	-0,154
-76,797	-42,165	-0,021	0,008
-75,782	-63,834	0,111	0,032
-74,767	800,000	-0,036	-0,111
-73,753	233,087	-0,056	-0,067
-72,738	800,000	-0,035	-0,094
-71,724	129,646	-0,056	-0,052
-70,709	-91,095	-0,084	0,017
-69,694	-200,000	0,017	-0,131
-68,680	133,273	-0,041	-0,039
-67,665	82,634	-0,055	0,043
-66,651	-109,112	-0,091	-0,014
-65,636	-200,000	-0,037	0,166
-64,622	-13,268	-0,115	-0,053
-63,607	-71,697	-0,183	-0,049
-62,592	800,000	-0,054	0,114
-61,578	800,000	0,093	-0,203
-60,563	-200,000	0,001	-0,022
-59,549	47,327	0,139	0,093
-58,534	-5,155	-2,023	-0,995
-57,519	-200,000	-0,216	-0,711
-56,505	-200,000	-1,241	-4,881
-55,490	-0,729	0,843	0,427
-54,476	800,000	5,257	11,988
-53,461	-200,000	17,776	290,843
-52,446	800,000	729,397	2239,733
-51,432	539,755	1646,247	2822,583
-50,417	109,333	1636,377	1405,716
-49,403	74,863	1287,595	971,931
-48,388	31,559	1027,363	632,456
-47,373	20,102	989,278	571,232
-46,359	18,247	976,871	557,965
-45,344	15,267	972,983	545,971
-44,330	15,494	971,614	545,924
-43,315	14,974	969,652	543,104
-42,300	14,913	968,444	542,207
-41,286	14,879	967,675	541,642
-40,271	14,921	966,566	541,136
-39,257	14,941	965,540	540,606
-38,242	14,883	964,910	540,043
-37,227	14,968	963,929	539,748
-36,213	14,978	962,944	539,208
-35,198	14,867	962,100	538,355
-34,184	14,984	961,549	538,404
-33,169	14,876	960,480	537,436
-32,154	14,984	959,570	537,253
-31,140	14,978	958,493	536,611
-30,125	14,974	958,049	536,326
-29,111	14,976	956,965	535,706
-28,096	14,975	956,419	535,377
-27,082	14,961	955,684	534,898
-26,067	14,991	955,073	534,631
-25,052	14,914	954,279	533,917
-24,038	14,870	953,770	533,470
-23,023	14,912	952,983	533,144
-22,009	14,947	952,383	532,900
-20,994	14,996	951,707	532,658
-19,979	14,987	950,925	532,170
-18,965	14,933	950,399	531,682
-17,950	14,883	949,766	531,147
-16,936	14,881	949,102	530,747
-15,921	14,859	948,368	530,247
-14,906	14,784	947,670	529,596
-13,892	14,800	947,134	529,324
-12,877	14,837	946,480	529,056
-11,863	14,776	945,867	528,498
-10,848	14,803	945,449	528,331
-9,833	14,894	944,916	528,300
-8,819	14,893	944,096	527,818
-7,804	14,895	943,650	527,555
-6,790	14,866	943,002	527,078
-5,775	14,897	942,287	526,757
-4,760	14,880	941,706	526,356
-3,746	14,870	941,133	525,983
-2,731	14,731	940,368	525,097
-1,717	14,674	939,753	524,552
-0,702	14,699	939,055	524,222
0,313	14,526	938,340	524,067
1,327	17,587	936,360	532,555
2,342	26,491	792,961	474,564
3,356	22,963	458,029	268,705
4,371	-4,043	314,057	155,553
5,386	-8,138	295,834	142,375
6,400	-9,967	289,731	137,611
7,415	-10,153	287,201	136,215
8,429	-10,396	285,852	135,325
9,444	-10,470	284,867	134,775
10,459	-10,538	284,359	134,456
11,473	-10,434	283,616	134,193
12,488	-10,343	283,228	134,086
13,502	-10,468	282,588	133,650
14,517	-10,436	282,331	133,548
15,531	-10,394	281,752	133,302
16,546	-10,310	281,453	133,230
17,561	-10,361	281,055	132,981
18,575	-10,262	280,729	132,910
19,590	-10,360	280,303	132,602
20,604	-10,120	279,977	132,666
21,619	-10,302	279,597	132,300
22,634	-10,462	279,370	132,028
23,648	-10,267	278,952	132,005
24,663	-10,252	278,690	131,883
25,677	-10,404	278,508	131,641
26,692	-10,395	278,167	131,476
27,707	-10,299	277,969	131,462
28,721	-10,472	277,695	131,156
29,736	-10,487	277,550	131,062
30,750	-10,441	277,016	130,842
31,765	-10,416	276,885	130,792
32,780	-10,371	276,636	130,705
33,794	-10,161	276,296	130,731
34,809	-10,211	276,128	130,593
35,823	-10,447	276,023	130,309
36,838	-10,769	275,729	129,855
37,853	-10,428	275,500	130,058
38,867	-10,265	275,095	130,007
39,882	-10,478	275,009	129,755
40,896	-10,556	274,732	129,540
41,911	-10,499	274,541	129,491
42,926	-10,544	274,205	129,279
43,940	-10,418	273,968	129,275
44,955	-10,307	273,646	129,214
45,969	-10,582	273,599	128,923
46,984	-10,618	273,291	128,733
47,999	-10,791	272,965	128,408
49,013	-10,894	272,719	128,184
50,028	-10,922	272,392	127,993
51,042	-11,009	272,084	127,756
52,057	-10,950	271,966	127,745
53,071	-11,099	271,763	127,499
54,086	-10,874	271,613	127,626
55,101	-10,825	271,395	127,558
56,115	-10,695	271,223	127,586
57,130	-10,393	271,004	127,750
58,144	-10,371	270,673	127,603
59,159	-10,261	270,602	127,659
60,174	-10,288	270,442	127,548
61,188	-10,297	270,230	127,428
62,203	-10,399	269,971	127,201
63,217	-10,317	269,671	127,124
64,232	-10,257	269,574	127,122
65,247	-10,330	269,147	126,842
66,261	-10,282	268,953	126,784
67,276	-10,414	268,744	126,552
68,290	-10,596	268,477	126,249
69,305	-10,592	268,303	126,160
70,320	-10,545	268,119	126,104
71,334	-10,571	268,032	126,029
72,349	-10,394	267,710	126,028
73,363	-10,448	267,575	125,903
74,378	-10,426	267,332	125,798
75,393	-10,356	267,210	125,793
76,407	-10,123	266,818	125,809
77,422	-10,281	266,552	125,529
78,436	-10,276	266,409	125,455
79,451	-10,262	266,220	125,367
80,466	-10,290	265,860	125,161
81,480	-10,323	265,649	125,021
82,495	-10,388	265,472	124,868
83,509	-10,463	265,396	124,754
84,524	-10,387	265,068	124,657
85,539	-10,435	264,871	124,509
86,553	-10,578	264,624	124,254
87,568	-10,601	264,458	124,144
88,582	-10,641	264,316	124,030
89,597	-10,365	264,035	124,135
90,611	-10,371	264,031	124,116
91,626	-10,162	263,877	124,221
92,641	-10,227	263,448	123,950
93,655	-10,345	263,329	123,777
94,670	-10,441	263,226	123,631
95,684	-10,326	262,854	123,549
96,699	-10,257	262,730	123,541
97,714	-10,418	262,459	123,259
98,728	-10,456	262,305	123,142
99,743	-10,328	261,964	123,084
100,757	-10,563	261,998	122,880
101,772	-10,546	261,660	122,726
102,787	-10,471	261,482	122,698
103,801	-10,361	261,254	122,678
104,816	-10,536	261,068	122,424
105,830	-10,266	260,990	122,616
106,845	-10,514	260,923	122,355
107,860	-10,354	260,439	122,258
108,874	-10,433	260,361	122,140
109,889	-10,511	260,196	121,983
110,903	-10,457	259,831	121,849
111,918	-10,473	259,716	121,770
112,933	-10,551	259,525	121,601
113,947	-10,594	259,486	121,533
114,962	-10,389	259,288	121,610
115,976	-10,271	258,916	121,529
116,991	-10,592	258,905	121,231
118,006	-10,269	258,638	121,378
119,020	-10,312	258,694	121,356
120,035	-10,298	258,224	121,137
121,049	-10,484	258,108	120,909
122,064	-10,379	257,946	120,915
123,079	-10,385	257,680	120,774
124,093	-10,389	257,526	120,687
125,108	-10,394	257,297	120,565
126,122	-10,706	257,053	120,168
127,137	-10,742	256,778	119,997
128,151	-10,666	256,674	120,004
129,166	-10,849	256,531	119,768
130,181	-10,578	256,200	119,838
131,195	-10,603	256,036	119,729
132,210	-10,288	255,904	119,929
133,224	-10,398	255,910	119,826
134,239	-10,394	255,786	119,761
135,254	-10,486	255,410	119,494
136,268	-10,561	255,245	119,341
137,283	-10,720	254,845	119,007
138,297	-10,816	254,634	118,815
139,312	-10,786	254,445	118,742
140,327	-10,528	254,415	118,940
141,341	-10,250	254,355	119,140
142,356	-10,148	254,150	119,121
143,370	-10,162	253,926	118,993
144,385	-10,309	253,865	118,828
145,400	-10,124	253,448	118,781
146,414	-10,239	253,480	118,687
147,429	-10,198	253,280	118,618
148,443	-10,250	253,072	118,465
149,458	-10,165	252,958	118,474
150,473	-10,174	252,651	118,312
151,487	-10,233	252,581	118,218
152,502	-10,195	252,402	118,156
153,516	-10,188	252,083	118,002
154,531	-10,211	251,965	117,917
155,546	-10,142	251,777	117,877
156,560	-10,138	251,512	117,746
157,575	-10,237	251,394	117,596
158,589	-10,235	251,143	117,470
159,604	-10,134	250,943	117,452
160,619	-10,180	250,791	117,331
161,633	-10,268	250,600	117,156
162,648	-10,127	250,570	117,251
163,662	-10,161	250,507	117,182
164,677	-10,284	250,144	116,899
165,692	-9,988	250,113	117,124
166,706	-10,029	249,749	116,908
167,721	-9,938	249,675	116,940
168,735	-10,280	249,666	116,637
169,750	-10,162	249,367	116,587
170,764	-10,135	249,228	116,534
171,779	-10,203	249,074	116,394
172,794	-9,935	248,779	116,471
173,808	-10,090	248,654	116,272
174,823	-10,501	248,324	115,763
175,837	-10,666	248,204	115,558
176,852	-10,327	248,118	115,792
177,867	-10,135	247,933	115,855
178,881	-10,015	247,871	115,917
179,896	-10,142	247,694	115,718
180,910	-10,031	247,517	115,717
181,925	-10,263	247,306	115,414
182,940	-10,144	247,155	115,433
183,954	-10,086	246,942	115,371
184,969	-10,074	246,894	115,349
185,983	-9,903	246,576	115,332
186,998	-9,976	246,550	115,249
188,013	-10,243	246,406	114,950
189,027	-10,105	246,139	114,929
190,042	-10,238	245,952	114,722
191,056	-10,193	245,677	114,620
192,071	-10,108	245,580	114,635
193,086	-10,172	245,409	114,493
194,100	-10,104	245,227	114,454
195,115	-10,066	245,003	114,370
196,129	-10,120	244,803	114,222
197,144	-10,463	244,674	113,868
198,159	-10,300	244,590	113,954
199,173	-10,349	244,408	113,819
200,188	-10,227	244,052	113,742
201,202	-10,413	243,897	113,507
202,217	-10,561	243,711	113,290
203,232	-10,623	243,445	113,106
204,246	-10,303	243,442	113,356
205,261	-10,091	243,170	113,392
206,275	-11,016	242,829	112,468
207,290	-6,899	244,428	116,581
208,304	0,511	247,001	123,932
209,319	3,901	247,801	127,129
210,334	4,473	247,806	127,592
211,348	4,751	247,711	127,762
212,363	4,933	247,552	127,819
213,377	4,984	247,453	127,798
214,392	4,776	247,346	127,560
215,407	4,918	246,969	127,471
216,421	4,749	246,854	127,261
217,436	4,954	246,842	127,412
218,450	5,056	246,559	127,339
219,465	4,954	246,280	127,100
220,480	4,496	246,386	126,768
221,494	4,688	245,926	126,677
222,509	4,412	245,924	126,438
223,523	4,647	245,686	126,497
224,538	4,193	245,373	125,953
225,553	4,316	245,357	126,035
226,567	4,271	245,236	125,925
227,582	4,418	245,176	126,002
228,596	4,517	245,018	125,990
229,611	4,165	244,681	125,519
230,626	3,929	244,464	125,205
231,640	4,355	244,137	125,372
232,655	4,128	244,163	125,190
233,669	4,297	243,902	125,182
234,684	4,090	243,816	124,959
235,699	4,423	243,750	125,184
236,713	4,722	243,694	125,387
237,728	4,303	243,344	124,856
238,742	4,182	243,174	124,660
239,757	4,036	242,985	124,434
240,772	4,268	242,766	124,498
241,786	4,169	242,642	124,343
242,801	4,211	242,456	124,271
243,815	4,143	242,387	124,170
244,830	4,478	242,280	124,373
245,844	4,422	242,181	124,267
246,859	4,330	241,931	124,053
247,874	4,205	241,721	123,834
248,888	4,199	241,744	123,830
249,903	4,188	241,523	123,697
250,917	4,336	241,528	123,808
251,932	4,686	241,328	123,974
252,947	4,691	241,009	123,803
253,961	4,362	240,882	123,464
254,976	4,367	240,687	123,356
255,990	4,564	240,525	123,420
257,005	4,304	240,411	123,144
258,020	4,120	240,117	122,835
259,034	4,192	240,161	122,904
260,049	4,385	240,010	122,969
261,063	3,964	239,764	122,498
262,078	4,105	239,581	122,505
263,093	4,568	239,508	122,825
264,107	4,524	239,399	122,723
265,122	4,300	239,063	122,362
266,136	4,345	239,021	122,366
267,151	4,546	239,026	122,516
268,166	3,954	238,701	121,870
269,180	4,073	238,628	121,916
270,195	4,897	238,543	122,514
271,209	4,901	238,415	122,441
272,224	4,455	238,053	121,892
273,239	4,038	237,738	121,391
274,253	3,943	237,684	121,277
275,268	4,329	237,545	121,499
276,282	4,543	237,473	121,621
277,297	4,302	237,078	121,218
278,312	4,237	237,190	121,213
279,326	4,238	237,063	121,138
280,341	4,296	236,799	121,038
281,355	4,264	236,701	120,952
282,370	4,423	236,731	121,081
283,384	4,365	236,443	120,878
284,399	4,116	236,232	120,564
285,414	4,047	236,042	120,403
286,428	4,119	236,023	120,438
287,443	4,256	235,867	120,455
288,457	4,268	235,705	120,371
289,472	4,410	235,505	120,369
290,487	4,405	235,328	120,264
291,501	4,355	235,074	120,084
292,516	4,075	234,877	119,755
293,530	3,932	234,949	119,669
294,545	4,208	234,830	119,813
295,560	4,380	234,621	119,830
296,574	3,972	234,425	119,402
297,589	4,100	234,305	119,430
298,603	4,293	234,328	119,581
299,618	4,545	234,106	119,652
300,633	4,197	234,110	119,374
301,647	4,525	233,771	119,443
302,662	4,611	233,813	119,521
303,676	4,455	233,644	119,303
304,691	4,463	233,577	119,265
305,706	4,846	233,272	119,394
306,720	4,676	232,992	119,109
307,735	4,529	232,902	118,939
308,749	4,485	232,734	118,809
309,764	4,199	232,509	118,464
310,779	4,098	232,323	118,281
311,793	4,141	232,088	118,184
312,808	3,955	231,980	117,976
313,822	3,864	231,888	117,849
314,837	3,830	231,749	117,741
315,852	3,933	231,674	117,771
316,866	4,559	231,559	118,182
317,881	4,799	231,445	118,296
318,895	4,762	231,391	118,229
319,910	4,730	231,111	118,051
320,925	4,252	230,845	117,541
321,939	3,605	230,752	116,990
322,954	4,241	230,740	117,458
323,968	4,622	230,639	117,687
324,983	4,461	230,559	117,512
325,997	4,684	230,289	117,534
327,012	4,519	230,150	117,327
328,027	4,248	230,047	117,058
329,041	4,695	229,862	117,292
330,056	4,892	229,944	117,474
331,070	4,914	229,842	117,428
332,085	4,586	229,460	116,974
333,100	4,424	229,187	116,702
334,114	4,524	229,003	116,673
335,129	4,665	228,974	116,755
336,143	4,824	228,907	116,829
337,158	4,759	228,710	116,670
338,173	4,390	228,506	116,277
339,187	4,285	228,415	116,142
340,202	4,489	228,280	116,216
341,216	4,318	228,085	115,978
342,231	4,196	227,926	115,795
343,246	4,337	227,669	115,760
344,260	4,489	227,658	115,858
345,275	4,779	227,552	116,012
346,289	4,557	227,583	115,850
347,304	4,694	227,372	115,835
348,319	4,966	227,086	115,882
349,333	4,578	226,881	115,478
350,348	4,270	226,750	115,171
351,362	4,498	226,545	115,226
352,377	4,129	226,409	114,872
353,392	3,855	226,210	114,557
354,406	3,988	226,133	114,606
355,421	195,482	1320,543	1397,045
356,435	156,701	1453,865	1397,034
