DTS Sentinel unit serial number:	SN410029Multiplexer serial number:	ORYXHardware model number:	OX2-SRSoftware version number:	ORYX F/W v4,00 Oryx Data Collector v3.7.2.0data status	okinstallation	B5 Nyhavnadifferential loss correction	single-endedforward channel	channel 2reverse channel	N/Adate	2023/12/11time	16:07:13forward acquisition time	300,00reverse acquisition time	0,00gamma	499,1914k internal	0,3166k external	0,3166temperature offset calibration	1,0000default loss term (dB/km)	0,3820temperature slope calibration	1,0000multiplexer offset coefficient	1,0000multiplexer slope coefficient	1,0000fibre end	0,00T internal ref (°C)	13,78T ext. ref 1 (°C)	-1,19T ext. ref 2 (°C)	-1,28length (m)	temperature (°C)	Stokes	anti-Stokes-744,400	408,286	0,143	0,223
-743,385	-63,049	-0,340	0,103
-742,371	-73,582	0,204	0,054
-741,356	-44,870	-0,232	0,085
-740,342	-118,733	0,192	0,025
-739,327	-144,724	-0,383	-0,026
-738,312	-200,000	0,003	0,088
-737,298	-54,170	-0,228	0,076
-736,283	387,645	-0,010	0,015
-735,269	25,289	-0,215	0,131
-734,254	120,502	0,161	0,147
-733,239	13,480	-0,425	-0,242
-732,225	-127,916	0,085	0,009
-731,210	210,852	0,050	0,058
-730,196	88,341	0,088	-0,072
-729,181	-29,899	-0,035	-0,014
-728,167	471,784	0,036	-0,060
-727,152	30,027	-0,067	-0,042
-726,137	-200,000	-0,024	-0,119
-725,123	-45,947	-0,091	0,033
-724,108	-200,000	0,013	-0,230
-723,094	-48,107	-0,132	-0,047
-722,079	202,927	0,035	-0,040
-721,064	-88,056	-0,082	-0,018
-720,050	-162,769	-0,103	0,004
-719,035	352,351	-0,016	-0,023
-718,021	-200,000	-0,007	-0,065
-717,006	-70,563	-0,144	-0,040
-715,991	-200,000	0,005	-0,038
-714,977	-34,309	0,049	-0,019
-713,962	-16,477	-0,105	-0,049
-712,948	35,369	0,149	-0,096
-711,933	661,173	-0,075	0,143
-710,918	-89,761	-0,116	-0,025
-709,904	276,098	-0,071	-0,092
-708,889	800,000	-0,025	-0,056
-707,875	672,241	-0,072	-0,138
-706,860	800,000	0,048	0,150
-705,845	-6,583	0,049	-0,025
-704,831	-110,026	0,122	-0,019
-703,816	-200,000	0,017	-0,072
-702,802	84,209	-0,063	-0,051
-701,787	348,792	0,020	0,029
-700,772	-168,297	0,124	0,003
-699,758	60,395	-0,061	-0,044
-698,743	-200,000	-0,012	-0,130
-697,729	-87,517	-0,068	0,015
-696,714	410,929	-0,053	-0,083
-695,699	800,000	-0,049	-0,103
-694,685	-200,000	0,027	-0,151
-693,670	-72,072	-0,091	0,025
-692,656	38,812	0,007	0,005
-691,641	-200,000	0,007	-0,167
-690,627	16,106	-0,047	0,027
-689,612	-200,000	-0,004	0,061
-688,597	0,568	0,061	-0,032
-687,583	116,400	0,101	-0,091
-686,568	-52,904	-0,107	0,036
-685,554	-40,260	-0,058	0,022
-684,539	113,902	0,025	-0,022
-683,524	274,401	-0,066	0,086
-682,510	-200,000	-0,002	0,084
-681,495	699,372	-0,059	-0,115
-680,481	-195,778	-0,121	0,001
-679,466	-15,409	-0,170	-0,080
-678,451	-79,715	-0,197	0,048
-677,437	-10,447	-0,067	-0,032
-676,422	628,688	0,022	0,041
-675,408	-200,000	-0,019	-0,087
-674,393	-84,083	-0,091	0,021
-673,378	-18,656	-0,113	-0,052
-672,364	800,000	0,080	-0,170
-671,349	-200,000	-0,021	-0,070
-670,335	-48,256	0,112	-0,039
-669,320	368,447	0,006	-0,010
-668,305	12,372	0,131	0,074
-667,291	-108,967	-0,085	-0,013
-666,276	-200,000	-0,006	0,099
-665,262	-58,260	-0,080	-0,026
-664,247	-54,668	-0,018	-0,006
-663,232	-50,841	-0,138	-0,047
-662,218	-111,231	0,090	0,013
-661,203	-13,963	0,140	0,066
-660,189	160,100	-0,127	-0,130
-659,174	-200,000	0,002	-0,045
-658,159	800,000	-0,063	-0,167
-657,145	447,035	0,043	-0,070
-656,130	414,263	-0,046	0,072
-655,116	128,580	0,050	0,046
-654,101	135,581	0,109	0,104
-653,086	-200,000	-0,023	0,120
-652,072	609,738	0,010	0,018
-651,057	-90,802	-0,074	-0,016
-650,043	-57,089	-0,131	-0,042
-649,028	-133,573	-0,022	-0,002
-648,014	800,000	-0,036	-0,080
-646,999	800,000	-0,016	-0,044
-645,984	-87,280	-0,190	-0,042
-644,970	-43,706	-0,167	0,061
-643,955	111,916	-0,161	0,142
-642,941	-200,000	-0,044	-0,145
-641,926	-90,920	-0,133	0,028
-640,911	-88,200	-0,168	-0,037
-639,897	-200,000	-0,018	-0,173
-638,882	-51,349	-0,113	-0,038
-637,868	202,045	0,018	0,020
-636,853	661,929	0,007	0,012
-635,838	-78,026	-0,171	-0,043
-634,824	-200,000	-0,014	-0,132
-633,809	-7,931	0,097	0,048
-632,795	-200,000	0,008	0,058
-631,780	105,958	0,038	0,033
-630,765	800,000	-0,067	-0,168
-629,751	-200,000	0,005	0,048
-628,736	124,791	-0,102	-0,094
-627,722	86,237	0,106	-0,085
-626,707	800,000	0,006	-0,015
-625,692	147,732	-0,087	-0,086
-624,678	-200,000	-0,005	0,040
-623,663	-200,000	0,005	-0,051
-622,649	118,833	-0,076	-0,069
-621,634	13,686	-0,085	0,048
-620,619	3,926	0,061	0,032
-619,605	-89,784	-0,126	0,027
-618,590	42,339	0,017	-0,011
-617,576	-63,680	0,100	0,030
-616,561	47,754	0,130	0,089
-615,546	-127,351	-0,139	-0,015
-614,532	333,927	0,072	-0,102
-613,517	-146,423	-0,128	0,008
-612,503	-200,000	0,001	0,070
-611,488	423,446	-0,020	0,031
-610,474	-200,000	-0,004	0,175
-609,459	-200,000	-0,018	-0,078
-608,444	-200,000	-0,007	-0,091
-607,430	800,000	-0,037	-0,112
-606,415	533,509	0,051	-0,089
-605,401	-30,760	0,106	0,044
-604,386	-200,000	-0,004	0,030
-603,371	-200,000	-0,005	-0,198
-602,357	152,836	0,070	-0,070
-601,342	-110,308	0,057	-0,009
-600,328	476,980	0,068	0,112
-599,313	800,000	-0,014	-0,036
-598,298	800,000	-0,062	-0,131
-597,284	-200,000	-0,027	0,090
-596,269	-55,843	0,075	-0,024
-595,255	-200,000	-0,040	0,145
-594,240	682,957	-0,040	-0,077
-593,225	231,160	0,047	-0,056
-592,211	40,242	-0,059	0,038
-591,196	-49,566	-0,127	-0,044
-590,182	88,103	0,013	0,011
-589,167	-200,000	-0,028	0,126
-588,152	-88,845	-0,110	-0,024
-587,138	264,921	0,089	0,113
-586,123	49,621	0,059	0,041
-585,109	-200,000	0,004	-0,099
-584,094	150,712	-0,082	-0,081
-583,079	-200,000	-0,012	-0,165
-582,065	-92,833	-0,081	-0,016
-581,050	-200,000	-0,056	0,186
-580,036	800,000	0,042	-0,133
-579,021	-200,000	-0,004	0,093
-578,006	-200,000	-0,019	-0,129
-576,992	91,924	-0,100	-0,082
-575,977	-64,271	0,070	-0,021
-574,963	-200,000	-0,006	-0,026
-573,948	-200,000	0,003	0,137
-572,934	800,000	0,015	0,043
-571,919	800,000	-0,006	-0,018
-570,904	-136,986	-0,103	0,009
-569,890	70,321	-0,029	-0,022
-568,875	-27,648	0,084	-0,036
-567,861	-93,638	-0,074	0,015
-566,846	800,000	0,025	0,052
-565,831	90,270	-0,117	0,095
-564,817	-38,135	0,119	0,046
-563,802	-20,243	0,049	0,022
-562,788	44,367	-0,101	-0,068
-561,773	409,597	-0,013	0,020
-560,758	-56,113	0,175	0,056
-559,744	-200,000	-0,020	0,070
-558,729	-160,085	0,026	-0,001
-557,715	108,142	-0,064	-0,056
-556,700	-200,000	-0,008	-0,069
-555,685	-107,573	-0,116	-0,018
-554,671	-200,000	0,028	-0,141
-553,656	88,456	0,059	0,048
-552,642	-200,000	0,005	0,044
-551,627	-200,000	0,015	0,068
-550,612	43,902	0,117	0,078
-549,598	-124,245	-0,126	-0,014
-548,583	545,682	0,082	-0,144
-547,569	60,088	-0,121	-0,087
-546,554	800,000	0,022	-0,060
-545,539	185,937	0,106	0,115
-544,525	-28,195	-0,111	0,046
-543,510	135,627	-0,033	0,031
-542,496	-200,000	-0,011	-0,082
-541,481	-91,894	-0,066	0,014
-540,466	137,082	-0,088	-0,084
-539,452	132,574	0,097	-0,091
-538,437	348,451	-0,048	-0,069
-537,423	-65,503	-0,140	-0,041
-536,408	-33,009	-0,060	-0,024
-535,393	-64,653	-0,078	-0,023
-534,379	-200,000	0,019	-0,129
-533,364	-200,000	0,009	0,031
-532,350	63,042	0,124	0,090
-531,335	54,574	0,058	0,041
-530,321	-122,112	0,074	0,009
-529,306	-87,804	0,043	-0,009
-528,291	-29,818	-0,101	-0,042
-527,277	63,923	0,027	-0,020
-526,262	-200,000	-0,029	-0,118
-525,248	-1,470	0,054	-0,027
-524,233	4,032	0,295	0,157
-523,218	197,708	0,012	-0,014
-522,204	520,819	0,017	-0,030
-521,189	34,371	-0,143	0,091
-520,175	800,000	0,013	0,041
-519,160	-64,547	0,143	0,042
-518,145	-200,000	0,010	-0,071
-517,131	-200,000	-0,010	0,071
-516,116	-19,571	-0,077	0,035
-515,102	68,447	0,113	0,084
-514,087	-200,000	0,009	0,096
-513,072	800,000	-0,015	0,045
-512,058	476,310	-0,029	0,048
-511,043	146,906	0,040	0,040
-510,029	-200,000	-0,029	0,239
-509,014	800,000	0,059	0,135
-507,999	-200,000	-0,009	0,146
-506,985	-39,091	-0,052	-0,020
-505,970	-142,542	-0,076	-0,005
-504,956	2,638	0,123	0,065
-503,941	284,785	-0,025	-0,033
-502,926	13,104	0,113	0,063
-501,912	391,129	0,046	0,069
-500,897	-200,000	-0,000	0,037
-499,883	12,747	0,049	-0,027
-498,868	-58,490	-0,132	0,042
-497,853	62,415	0,078	-0,057
-496,839	164,288	-0,070	0,072
-495,824	-59,919	-0,111	0,034
-494,810	-89,899	0,086	0,018
-493,795	-66,889	-0,046	-0,013
-492,781	60,890	-0,020	0,014
-491,766	203,929	-0,051	-0,058
-490,751	-200,000	0,017	-0,065
-489,737	172,307	0,075	0,078
-488,722	800,000	-0,041	0,095
-487,708	511,160	0,037	-0,062
-486,693	491,701	0,067	0,112
-485,678	800,000	0,024	-0,060
-484,664	-20,500	-0,016	-0,007
-483,649	-168,681	0,017	-0,000
-482,635	-85,993	-0,118	-0,026
-481,620	3,237	0,043	0,023
-480,605	221,660	-0,079	-0,093
-479,591	185,531	0,092	-0,099
-478,576	800,000	0,027	0,083
-477,562	800,000	-0,035	0,093
-476,547	-59,388	0,124	0,039
-475,532	557,401	-0,089	0,158
-474,518	8,601	0,054	-0,030
-473,503	94,193	-0,075	0,062
-472,489	-49,945	0,113	0,039
-471,474	-200,000	-0,006	-0,117
-470,459	800,000	-0,097	-0,278
-469,445	-200,000	0,032	-0,164
-468,430	-200,000	-0,016	-0,145
-467,416	-160,681	-0,097	-0,004
-466,401	152,361	0,057	0,057
-465,386	141,314	0,044	-0,043
-464,372	800,000	0,035	0,088
-463,357	-123,766	-0,067	0,008
-462,343	-118,865	-0,083	-0,011
-461,328	-68,705	-0,098	0,028
-460,313	-200,000	-0,009	-0,092
-459,299	-189,289	0,146	-0,001
-458,284	282,922	-0,105	0,138
-457,270	64,235	0,111	0,081
-456,255	-18,248	0,078	0,035
-455,241	-200,000	-0,011	-0,049
-454,226	-38,325	-0,025	0,009
-453,211	-200,000	-0,026	0,086
-452,197	549,709	-0,033	0,058
-451,182	-97,927	0,156	0,029
-450,168	-200,000	-0,027	0,144
-449,153	291,418	0,015	0,020
-448,138	223,656	0,029	-0,034
-447,124	-200,000	0,007	-0,134
-446,109	262,979	0,110	0,139
-445,095	360,548	0,021	-0,030
-444,080	-8,058	0,116	-0,057
-443,065	159,526	0,069	-0,070
-442,051	798,614	0,066	0,133
-441,036	-200,000	-0,022	-0,174
-440,022	213,374	0,051	-0,058
-439,007	-200,000	-0,011	0,088
-437,992	31,393	0,048	0,030
-436,978	-200,000	0,006	0,053
-435,963	154,224	-0,057	0,057
-434,949	291,645	0,054	-0,071
-433,934	178,482	-0,038	0,040
-432,919	-100,217	-0,070	0,013
-431,905	800,000	0,035	-0,083
-430,890	800,000	0,048	0,152
-429,876	-100,754	0,017	0,003
-428,861	266,710	-0,075	0,095
-427,846	-86,036	0,081	-0,018
-426,832	603,854	-0,052	-0,094
-425,817	278,681	-0,044	-0,057
-424,803	188,186	-0,080	0,087
-423,788	-93,702	0,128	0,025
-422,773	36,871	-0,020	-0,013
-421,759	2,292	-0,061	0,032
-420,744	-200,000	0,009	-0,070
-419,730	-200,000	-0,031	-0,122
-418,715	174,993	0,085	0,090
-417,701	-4,321	-0,042	0,021
-416,686	729,014	0,052	0,101
-415,671	-64,666	0,064	0,019
-414,657	-0,628	0,114	0,059
-413,642	-200,000	-0,013	-0,093
-412,628	-143,441	-0,077	0,005
-411,613	220,926	-0,058	-0,067
-410,598	-25,018	0,125	-0,054
-409,584	196,999	0,008	-0,009
-408,569	-200,000	-0,011	0,140
-407,555	31,266	0,037	-0,023
-406,540	-200,000	-0,001	0,024
-405,525	45,488	0,109	-0,073
-404,511	800,000	-0,034	-0,094
-403,496	-15,404	-0,100	-0,046
-402,482	6,232	-0,126	-0,068
-401,467	-16,502	-0,017	-0,008
-400,452	-93,287	-0,026	-0,005
-399,438	-99,836	0,015	-0,003
-398,423	262,634	0,040	-0,050
-397,409	709,440	0,046	-0,088
-396,394	156,895	0,125	-0,125
-395,379	800,000	-0,017	0,040
-394,365	17,652	0,235	0,135
-393,350	-19,261	-0,017	0,008
-392,336	499,546	-0,033	0,056
-391,321	-200,000	0,022	-0,104
-390,306	22,214	-0,101	-0,060
-389,292	125,039	-0,104	-0,095
-388,277	-140,770	-0,126	0,009
-387,263	800,000	-0,029	0,060
-386,248	50,026	0,103	0,070
-385,233	800,000	0,005	-0,017
-384,219	-79,306	0,118	-0,029
-383,204	-66,602	0,130	0,037
-382,190	-200,000	0,005	-0,048
-381,175	-92,953	0,171	-0,034
-380,160	582,716	-0,031	-0,056
-379,146	-98,465	0,066	-0,012
-378,131	-200,000	-0,009	0,131
-377,117	35,269	-0,058	0,037
-376,102	-200,000	-0,016	-0,118
-375,088	-98,024	-0,125	-0,023
-374,073	-31,519	0,038	-0,015
-373,058	467,647	-0,067	0,109
-372,044	800,000	-0,019	0,051
-371,029	-200,000	-0,015	0,053
-370,015	208,388	0,080	0,090
-369,000	7,759	0,116	0,063
-367,985	-60,598	0,007	0,002
-366,971	525,977	-0,048	0,081
-365,956	-200,000	-0,038	0,138
-364,942	97,191	-0,050	-0,041
-363,927	364,311	0,032	-0,047
-362,912	-200,000	0,001	0,034
-361,898	21,303	-0,041	-0,024
-360,883	-131,093	0,047	0,005
-359,869	2,490	0,144	-0,075
-358,854	53,200	-0,072	0,050
-357,839	78,129	0,057	-0,044
-356,825	-200,000	0,005	0,101
-355,810	-146,582	0,066	0,004
-354,796	-74,123	0,044	0,011
-353,781	15,720	-0,049	-0,028
-352,766	800,000	-0,031	-0,066
-351,752	135,484	0,041	-0,039
-350,737	-200,000	0,005	-0,023
-349,723	-200,000	-0,011	-0,060
-348,708	239,978	0,059	0,071
-347,693	-200,000	0,002	0,013
-346,679	-200,000	0,006	0,106
-345,664	269,880	0,115	-0,147
-344,650	-130,150	0,104	0,010
-343,635	11,419	-0,063	0,035
-342,620	124,800	-0,111	-0,101
-341,606	-200,000	-0,019	0,256
-340,591	-142,263	-0,041	0,003
-339,577	431,281	-0,061	0,095
-338,562	-66,404	-0,053	0,015
-337,548	377,191	0,053	0,079
-336,533	132,402	0,059	0,055
-335,518	800,000	-0,090	0,211
-334,504	-140,889	-0,112	-0,008
-333,489	-28,892	-0,044	0,018
-332,475	-200,000	0,010	-0,040
-331,460	473,155	0,060	-0,098
-330,445	-200,000	0,030	-0,106
-329,431	-118,269	-0,068	0,009
-328,416	50,192	0,060	0,041
-327,402	423,206	-0,034	-0,053
-326,387	-200,000	-0,009	-0,056
-325,372	15,642	-0,035	-0,020
-324,358	-200,000	-0,016	-0,069
-323,343	-31,438	-0,028	0,011
-322,329	35,791	0,062	0,039
-321,314	-63,050	0,160	0,047
-320,299	46,011	-0,089	0,059
-319,285	-14,356	-0,134	-0,062
-318,270	211,773	0,032	-0,036
-317,256	800,000	0,070	-0,165
-316,241	540,236	0,047	0,081
-315,226	-200,000	-0,001	-0,043
-314,212	209,089	0,118	-0,134
-313,197	162,857	-0,081	0,082
-312,183	689,396	-0,043	0,081
-311,168	800,000	-0,021	-0,063
-310,153	800,000	-0,058	-0,129
-309,139	-200,000	0,022	-0,138
-308,124	800,000	0,012	-0,037
-307,110	-143,930	0,066	-0,004
-306,095	-200,000	-0,004	0,100
-305,080	36,708	0,054	-0,034
-304,066	800,000	0,037	-0,079
-303,051	-65,776	-0,022	-0,006
-302,037	-200,000	0,004	0,035
-301,022	-200,000	-0,008	-0,087
-300,008	-200,000	0,009	-0,048
-298,993	-84,235	0,101	-0,023
-297,978	50,235	0,050	-0,034
-296,964	-15,749	-0,154	0,070
-295,949	118,846	0,086	-0,077
-294,935	-200,000	-0,063	-0,203
-293,920	800,000	0,035	-0,071
-292,905	75,827	0,051	0,039
-291,891	94,314	-0,044	0,036
-290,876	-200,000	-0,010	-0,081
-289,862	800,000	0,029	0,092
-288,847	-149,787	0,060	0,003
-287,832	119,035	-0,086	-0,076
-286,818	159,193	0,060	-0,060
-285,803	-67,133	0,140	0,040
-284,789	601,855	0,005	0,009
-283,774	800,000	0,012	0,039
-282,759	159,098	-0,080	-0,081
-281,745	528,715	0,036	-0,062
-280,730	393,426	-0,031	-0,047
-279,716	409,244	-0,043	0,067
-278,701	-200,000	0,025	0,084
-277,686	-10,871	0,113	0,054
-276,672	-4,940	0,137	-0,068
-275,657	607,997	-0,026	0,046
-274,643	-200,000	-0,005	0,051
-273,628	-200,000	0,032	-0,144
-272,613	419,615	-0,064	-0,100
-271,599	-73,694	0,029	0,008
-270,584	52,672	-0,047	0,032
-269,570	-70,103	0,068	-0,018
-268,555	-200,000	-0,011	0,123
-267,540	46,236	-0,030	-0,020
-266,526	-41,176	-0,063	-0,023
-265,511	526,828	-0,033	0,056
-264,497	-31,078	0,110	0,045
-263,482	-101,394	-0,134	0,023
-262,467	-30,091	0,086	-0,035
-261,453	-24,000	0,109	-0,047
-260,438	225,820	0,062	0,073
-259,424	81,858	-0,026	0,020
-258,409	800,000	0,062	-0,162
-257,395	-200,000	0,020	0,081
-256,380	41,319	-0,042	0,028
-255,365	83,213	-0,083	0,066
-254,351	0,414	0,151	0,077
-253,336	43,808	0,094	0,062
-252,322	-200,000	-0,001	-0,026
-251,307	167,739	-0,095	-0,097
-250,292	51,469	0,016	-0,011
-249,278	-200,000	0,020	0,099
-248,263	-200,000	0,023	0,190
-247,249	800,000	-0,037	-0,097
-246,234	-200,000	-0,002	0,089
-245,219	51,361	-0,033	-0,023
-244,205	10,425	-0,078	0,043
-243,190	95,817	-0,027	0,022
-242,176	352,281	0,032	0,046
-241,161	-200,000	0,008	0,051
-240,146	-200,000	0,001	0,129
-239,132	46,785	0,086	0,058
-238,117	800,000	0,023	0,050
-237,103	20,957	0,062	0,036
-236,088	72,682	-0,086	0,064
-235,073	-200,000	0,019	0,082
-234,059	800,000	-0,026	0,079
-233,044	198,229	-0,066	-0,073
-232,030	-187,398	0,100	0,001
-231,015	72,503	-0,007	-0,005
-230,000	209,161	-0,020	0,023
-228,986	-109,654	-0,232	-0,035
-227,971	-152,625	0,184	-0,009
-226,957	-200,000	-0,009	0,035
-225,942	-65,057	-0,056	0,016
-224,927	309,306	-0,020	0,027
-223,913	-127,099	-0,138	-0,014
-222,898	703,122	-0,045	-0,087
-221,884	800,000	0,017	-0,051
-220,869	-200,000	0,018	-0,109
-219,855	194,118	0,045	-0,049
-218,840	-200,000	0,024	0,117
-217,825	88,853	0,108	0,086
-216,811	16,576	-0,043	0,024
-215,796	647,132	-0,077	-0,143
-214,782	-200,000	-0,032	-0,221
-213,767	157,253	0,023	0,023
-212,752	-75,029	-0,005	-0,001
-211,738	-159,672	0,028	-0,001
-210,723	666,546	0,067	-0,125
-209,709	-135,671	-0,104	-0,009
-208,694	14,286	0,055	-0,031
-207,679	-125,983	0,068	0,007
-206,665	800,000	-0,034	-0,079
-205,650	100,637	-0,081	0,068
-204,636	35,151	0,053	0,034
-203,621	-200,000	-0,113	0,000
-202,606	-132,985	0,141	0,013
-201,592	632,431	-0,008	-0,014
-200,577	65,343	-0,093	-0,068
-199,563	715,785	0,056	-0,108
-198,548	-200,000	0,006	0,054
-197,533	3,734	-0,045	0,024
-196,519	-21,962	-0,094	-0,041
-195,504	-172,041	0,058	-0,001
-194,490	212,137	0,145	-0,164
-193,475	-82,887	-0,116	-0,027
-192,460	-200,000	-0,011	0,052
-191,446	128,668	0,111	0,101
-190,431	800,000	-0,054	0,154
-189,417	493,950	0,045	0,075
-188,402	31,447	-0,075	-0,047
-187,387	80,340	-0,080	-0,062
-186,373	295,288	-0,007	0,010
-185,358	-200,000	-0,015	-0,060
-184,344	-200,000	0,011	0,071
-183,329	-200,000	-0,010	0,047
-182,315	-141,903	0,052	-0,004
-181,300	15,237	-0,105	0,059
-180,285	-1,400	-0,132	-0,067
-179,271	220,666	0,069	-0,080
-178,256	621,866	0,033	0,061
-177,242	219,506	-0,110	0,127
-176,227	200,578	0,115	0,127
-175,212	-73,071	-0,039	0,010
-174,198	800,000	0,032	0,076
-173,183	427,066	-0,036	-0,056
-172,169	-200,000	-0,002	0,042
-171,154	-89,387	-0,120	0,025
-170,139	800,000	0,066	0,177
-169,125	-200,000	0,017	0,096
-168,110	218,580	0,078	-0,089
-167,096	-200,000	0,001	-0,026
-166,081	16,805	-0,059	-0,033
-165,066	277,225	0,110	-0,140
-164,052	-200,000	0,004	0,043
-163,037	200,711	0,014	0,015
-162,023	151,128	0,022	0,021
-161,008	745,111	0,007	-0,013
-159,993	-200,000	0,010	-0,077
-158,979	-200,000	-0,010	0,088
-157,964	450,312	-0,050	-0,080
-156,950	-2,296	-0,084	0,042
-155,935	763,449	0,031	0,061
-154,920	-47,775	0,084	-0,029
-153,906	-200,000	-0,011	-0,066
-152,891	-200,000	-0,016	-0,102
-151,877	800,000	-0,029	-0,060
-150,862	-177,633	-0,081	0,001
-149,847	40,791	-0,051	0,033
-148,833	-48,903	0,033	-0,011
-147,818	81,330	0,042	-0,032
-146,804	-200,000	0,001	-0,023
-145,789	-143,684	0,165	-0,011
-144,775	231,333	-0,049	0,058
-143,760	800,000	-0,032	-0,089
-142,745	9,451	-0,059	0,032
-141,731	800,000	0,054	-0,111
-140,716	124,983	-0,018	0,016
-139,702	-200,000	0,009	0,085
-138,687	-18,032	0,024	0,011
-137,672	800,000	-0,044	-0,136
-136,658	-82,933	-0,069	-0,016
-135,643	-165,160	-0,153	-0,005
-134,629	-200,000	0,005	0,080
-133,614	-61,027	-0,098	0,029
-132,599	-200,000	0,013	-0,078
-131,585	-200,000	0,020	0,094
-130,570	230,887	0,092	-0,108
-129,556	-200,000	0,012	-0,116
-128,541	800,000	-0,015	0,046
-127,526	-200,000	0,020	-0,102
-126,512	800,000	-0,026	0,080
-125,497	359,964	0,060	0,086
-124,483	-126,781	0,056	-0,006
-123,468	358,675	-0,100	0,144
-122,453	-200,000	-0,015	-0,050
-121,439	-200,000	-0,036	0,143
-120,424	5,458	0,067	0,036
-119,410	164,226	-0,016	0,016
-118,395	800,000	0,050	-0,136
-117,380	-200,000	0,025	-0,088
-116,366	-69,163	-0,083	0,023
-115,351	-77,302	0,025	0,006
-114,337	800,000	-0,073	-0,159
-113,322	277,375	0,032	0,041
-112,307	-142,869	-0,056	0,004
-111,293	-200,000	0,008	0,058
-110,278	76,009	0,121	0,092
-109,264	-200,000	-0,015	0,175
-108,249	-200,000	-0,031	0,184
-107,234	7,707	-0,141	-0,075
-106,220	-89,642	0,079	0,016
-105,205	86,929	0,108	0,085
-104,191	-97,015	-0,116	0,022
-103,176	149,181	-0,102	0,099
-102,162	21,574	-0,120	-0,070
-101,147	-200,000	-0,000	0,109
-100,132	-200,000	-0,001	0,051
-99,118	-200,000	0,004	0,023
-98,103	-123,376	0,060	0,007
-97,089	419,908	0,038	0,058
-96,074	800,000	0,023	0,068
-95,059	-200,000	0,002	0,062
-94,045	-115,222	-0,098	-0,013
-93,030	79,130	-0,101	0,077
-92,016	55,600	0,060	0,042
-91,001	-200,000	-0,014	-0,100
-89,986	-200,000	0,007	0,050
-88,972	-200,000	-0,009	0,143
-87,957	6,852	0,035	0,019
-86,943	204,825	-0,093	-0,104
-85,928	-101,345	0,109	-0,019
-84,913	606,946	0,016	-0,028
-83,899	800,000	0,031	0,083
-82,884	20,940	0,148	0,086
-81,870	205,771	-0,052	0,058
-80,855	63,255	0,088	0,063
-79,840	800,000	-0,039	0,106
-78,826	-25,146	-0,063	0,026
-77,811	188,052	0,053	-0,056
-76,797	167,740	-0,059	0,060
-75,782	-147,953	0,029	0,002
-74,767	213,698	-0,051	0,058
-73,753	-26,427	0,054	-0,023
-72,738	-200,000	-0,001	0,028
-71,724	-167,959	-0,138	-0,004
-70,709	83,658	-0,066	0,052
-69,694	-79,722	-0,089	0,021
-68,680	705,892	0,021	0,039
-67,665	-106,051	-0,038	0,006
-66,651	-200,000	-0,011	0,136
-65,636	420,667	0,025	-0,038
-64,622	56,675	0,045	-0,031
-63,607	412,566	-0,029	0,045
-62,592	-200,000	-0,004	-0,158
-61,578	206,772	-0,036	-0,041
-60,563	487,796	0,039	-0,064
-59,549	448,593	-0,012	0,019
-58,534	17,251	-2,148	-1,217
-57,519	-200,000	-0,191	-0,867
-56,505	-200,000	-1,301	-5,069
-55,490	114,122	0,842	0,733
-54,476	800,000	5,348	12,398
-53,461	-200,000	18,577	314,683
-52,446	800,000	739,792	2325,360
-51,432	556,546	1655,821	2867,079
-50,417	110,926	1640,290	1413,072
-49,403	74,668	1290,165	970,576
-48,388	30,382	1030,614	628,813
-47,373	19,891	993,230	571,333
-46,359	17,480	980,911	556,305
-45,344	14,091	977,248	543,087
-44,330	14,496	975,537	543,444
-43,315	13,858	973,723	540,325
-42,300	13,801	972,751	539,575
-41,286	13,772	971,743	538,901
-40,271	13,756	970,939	538,380
-39,257	13,774	969,776	537,772
-38,242	13,817	968,961	537,440
-37,227	13,778	968,134	536,833
-36,213	13,798	967,232	536,376
-35,198	13,783	966,458	535,879
-34,184	13,833	965,643	535,567
-33,169	13,742	964,686	534,719
-32,154	13,820	963,770	534,442
-31,140	13,797	962,865	533,847
-30,125	13,882	962,080	533,664
-29,111	13,828	961,300	533,035
-28,096	13,805	960,616	532,563
-27,082	13,775	959,927	532,061
-26,067	13,747	959,329	531,618
-25,052	13,827	958,371	531,324
-24,038	13,812	957,657	530,858
-23,023	13,857	956,780	530,496
-22,009	13,815	956,372	530,114
-20,994	13,800	955,828	529,742
-19,979	13,846	955,206	529,524
-18,965	13,835	954,588	529,127
-17,950	13,845	954,050	528,839
-16,936	13,775	953,486	528,280
-15,921	13,802	952,685	527,903
-14,906	13,721	951,850	527,160
-13,892	13,729	951,184	526,797
-12,877	13,649	950,885	526,354
-11,863	13,619	950,187	525,853
-10,848	13,673	949,442	525,590
-9,833	13,769	949,055	525,662
-8,819	13,805	948,199	525,281
-7,804	13,769	947,595	524,810
-6,790	13,752	947,209	524,522
-5,775	13,730	946,600	524,093
-4,760	13,729	946,037	523,757
-3,746	13,725	945,357	523,347
-2,731	13,556	944,696	522,424
-1,717	13,535	943,998	521,951
-0,702	13,571	943,238	521,625
0,313	13,351	942,609	521,369
1,327	16,730	940,309	530,719
2,342	25,723	795,320	472,718
3,356	22,399	459,753	268,156
4,371	-4,308	316,787	156,215
5,386	-8,091	298,795	143,475
6,400	-9,909	292,556	138,652
7,415	-10,447	290,157	136,970
8,429	-11,187	288,377	135,389
9,444	-11,106	287,326	134,963
10,459	-11,080	286,858	134,757
11,473	-11,182	286,288	134,377
12,488	-11,390	285,871	133,967
13,502	-11,186	285,349	133,909
14,517	-11,127	284,736	133,666
15,531	-11,270	284,169	133,250
16,546	-11,272	283,710	133,020
17,561	-11,655	283,627	132,599
18,575	-11,362	283,142	132,644
19,590	-11,411	282,717	132,386
20,604	-11,335	282,435	132,315
21,619	-11,473	282,093	132,010
22,634	-11,472	281,857	131,888
23,648	-11,399	281,398	131,732
24,663	-11,462	281,311	131,619
25,677	-11,340	280,798	131,484
26,692	-11,536	280,630	131,207
27,707	-11,592	280,494	131,078
28,721	-11,484	280,010	130,943
29,736	-11,382	279,751	130,907
30,750	-11,386	279,454	130,753
31,765	-11,442	279,287	130,609
32,780	-11,371	278,807	130,441
33,794	-11,425	278,695	130,326
34,809	-11,330	278,336	130,237
35,823	-11,477	278,267	130,053
36,838	-11,485	277,982	129,900
37,853	-11,583	277,664	129,648
38,867	-11,564	277,575	129,613
39,882	-11,514	277,252	129,498
40,896	-11,431	277,018	129,455
41,911	-11,531	276,830	129,261
42,926	-11,349	276,495	129,265
43,940	-11,678	276,436	128,916
44,955	-11,456	276,061	128,939
45,969	-11,446	275,787	128,808
46,984	-11,621	275,614	128,552
47,999	-11,605	275,366	128,440
49,013	-11,442	275,055	128,435
50,028	-11,648	274,827	128,125
51,042	-11,640	274,577	128,004
52,057	-11,803	274,360	127,740
53,071	-11,810	274,256	127,674
54,086	-11,589	274,010	127,753
55,101	-11,473	273,863	127,781
56,115	-11,439	273,590	127,675
57,130	-11,369	273,313	127,599
58,144	-11,272	273,032	127,546
59,159	-11,146	272,776	127,532
60,174	-11,206	272,566	127,367
61,188	-11,266	272,367	127,208
62,203	-11,352	272,059	126,973
63,217	-11,375	271,986	126,906
64,232	-11,365	271,659	126,751
65,247	-11,326	271,478	126,692
66,261	-11,356	271,268	126,554
67,276	-11,285	270,912	126,443
68,290	-11,486	270,883	126,233
69,305	-11,382	270,570	126,172
70,320	-11,376	270,308	126,043
71,334	-11,532	270,157	125,819
72,349	-11,169	269,899	126,020
73,363	-11,340	269,743	125,779
74,378	-11,241	269,506	125,748
75,393	-11,271	269,255	125,592
76,407	-11,324	269,068	125,446
77,422	-11,407	268,937	125,297
78,436	-11,378	268,563	125,139
79,451	-11,288	268,287	125,081
80,466	-11,356	268,013	124,880
81,480	-11,428	267,778	124,694
82,495	-11,377	267,651	124,670
83,509	-11,479	267,701	124,589
84,524	-11,411	267,371	124,486
85,539	-11,397	267,098	124,361
86,553	-11,302	266,919	124,352
87,568	-11,591	266,795	124,022
88,582	-11,370	266,420	124,036
89,597	-11,449	266,318	123,906
90,611	-11,374	266,074	123,850
91,626	-11,336	265,833	123,760
92,641	-11,425	265,773	123,642
93,655	-11,434	265,564	123,525
94,670	-11,290	265,156	123,453
95,684	-11,320	265,064	123,373
96,699	-11,320	264,803	123,240
97,714	-11,443	264,773	123,105
98,728	-11,610	264,441	122,791
99,743	-11,474	264,238	122,807
100,757	-11,377	264,110	122,823
101,772	-11,510	263,991	122,638
102,787	-11,367	263,525	122,538
103,801	-11,102	263,402	122,706
104,816	-11,201	263,229	122,527
105,830	-11,223	262,922	122,353
106,845	-11,365	263,023	122,262
107,860	-11,268	262,700	122,188
108,874	-11,318	262,462	122,022
109,889	-11,344	262,346	121,934
110,903	-11,197	262,073	121,927
111,918	-11,325	261,906	121,725
112,933	-11,164	261,602	121,715
113,947	-11,107	261,454	121,686
114,962	-11,151	261,438	121,628
115,976	-11,338	261,066	121,279
116,991	-11,200	260,843	121,287
118,006	-11,389	260,780	121,080
119,020	-11,556	260,627	120,851
120,035	-11,141	260,319	121,063
121,049	-11,360	260,377	120,886
122,064	-11,186	259,990	120,848
123,079	-11,175	259,779	120,749
124,093	-11,363	259,634	120,506
125,108	-11,225	259,367	120,492
126,122	-11,438	259,183	120,209
127,137	-11,555	258,880	119,956
128,151	-11,535	258,821	119,936
129,166	-11,339	258,605	119,996
130,181	-11,334	258,542	119,961
131,195	-11,407	258,161	119,710
132,210	-11,354	258,110	119,721
133,224	-11,280	257,906	119,680
134,239	-10,916	257,634	119,860
135,254	-11,193	257,407	119,503
136,268	-11,150	257,050	119,364
137,283	-11,501	257,119	119,081
138,297	-11,318	256,818	119,089
139,312	-11,518	256,539	118,776
140,327	-11,314	256,578	118,961
141,341	-11,161	256,272	118,941
142,356	-11,058	256,176	118,975
143,370	-11,165	255,995	118,787
144,385	-11,284	255,868	118,615
145,400	-11,256	255,613	118,510
146,414	-11,304	255,319	118,322
147,429	-11,367	255,186	118,196
148,443	-11,293	255,029	118,175
149,458	-11,229	254,957	118,187
150,473	-11,135	254,765	118,168
151,487	-11,210	254,438	117,941
152,502	-11,312	254,426	117,838
153,516	-11,128	254,135	117,850
154,531	-11,174	253,882	117,683
155,546	-11,153	253,763	117,635
156,560	-11,106	253,565	117,574
157,575	-11,266	253,324	117,315
158,589	-11,056	253,177	117,415
159,604	-11,198	252,977	117,191
160,619	-11,088	252,891	117,234
161,633	-11,138	252,764	117,122
162,648	-11,120	252,452	116,983
163,662	-11,262	252,417	116,835
164,677	-10,998	252,201	116,950
165,692	-10,931	251,915	116,864
166,706	-11,205	251,822	116,577
167,721	-11,221	251,611	116,456
168,735	-11,136	251,346	116,394
169,750	-11,055	251,392	116,474
170,764	-11,224	251,295	116,275
171,779	-11,089	251,145	116,310
172,794	-10,998	250,865	116,247
173,808	-10,974	250,684	116,173
174,823	-11,328	250,338	115,704
175,837	-11,427	250,176	115,536
176,852	-11,135	250,192	115,778
177,867	-11,057	249,984	115,737
178,881	-11,124	249,868	115,617
179,896	-10,928	249,642	115,667
180,910	-10,971	249,373	115,496
181,925	-11,020	249,214	115,370
182,940	-11,219	249,180	115,178
183,954	-11,024	248,958	115,228
184,969	-11,116	248,844	115,088
185,983	-11,088	248,685	115,028
186,998	-10,917	248,445	115,049
188,013	-10,870	248,248	114,987
189,027	-11,006	248,077	114,784
190,042	-10,966	247,816	114,686
191,056	-10,899	247,755	114,704
192,071	-10,981	247,641	114,572
193,086	-11,060	247,346	114,360
194,100	-10,945	247,346	114,445
195,115	-10,875	247,024	114,345
196,129	-10,762	246,811	114,330
197,144	-10,925	246,513	114,046
198,159	-11,040	246,577	113,971
199,173	-11,124	246,319	113,772
200,188	-10,992	246,187	113,809
201,202	-10,853	245,849	113,758
202,217	-11,234	245,643	113,338
203,232	-11,442	245,431	113,059
204,246	-10,602	245,389	113,721
205,261	-10,014	245,774	114,374
206,275	-9,654	245,854	114,699
207,290	-7,960	246,046	116,175
208,304	-5,377	246,756	118,634
209,319	-3,058	247,317	120,813
210,334	-2,253	247,612	121,611
211,348	-1,767	247,622	122,007
212,363	-1,176	247,485	122,417
213,377	-0,849	247,791	122,829
214,392	-0,760	247,695	122,843
215,407	-0,542	247,453	122,893
216,421	-0,265	247,060	122,915
217,436	-0,360	247,010	122,801
218,450	-0,571	246,709	122,466
219,465	-0,766	246,685	122,283
220,480	-0,699	246,587	122,279
221,494	-0,613	246,223	122,158
222,509	-0,680	246,295	122,127
223,523	-0,551	246,048	122,100
224,538	-0,745	245,728	121,772
225,553	-0,809	245,859	121,773
226,567	-0,741	245,550	121,665
227,582	-0,862	245,404	121,482
228,596	-0,655	245,163	121,521
229,611	-0,689	245,071	121,437
230,626	-0,610	244,785	121,350
231,640	-0,354	244,585	121,448
232,655	-0,795	244,555	121,063
233,669	-0,782	244,420	120,996
234,684	-0,707	244,251	120,963
235,699	-0,787	244,094	120,808
236,713	-0,750	244,026	120,794
237,728	-0,811	243,658	120,552
238,742	-0,643	243,507	120,602
239,757	-0,742	243,415	120,467
240,772	-0,777	243,199	120,320
241,786	-0,648	243,007	120,319
242,801	-0,871	243,055	120,152
243,815	-0,622	242,805	120,219
244,830	-0,596	242,537	120,096
245,844	-0,697	242,396	119,934
246,859	-0,556	242,309	119,994
247,874	-0,550	242,095	119,882
248,888	-0,555	241,980	119,811
249,903	-0,764	241,797	119,541
250,917	-0,601	241,599	119,564
251,932	-0,620	241,556	119,516
252,947	-0,845	241,428	119,262
253,961	-0,603	241,080	119,273
254,976	-0,816	240,946	119,026
255,990	-0,740	240,776	118,992
257,005	-0,804	240,848	118,966
258,020	-0,741	240,577	118,871
259,034	-0,682	240,381	118,811
260,049	-0,758	240,224	118,662
261,063	-0,653	240,125	118,687
262,078	-0,784	239,972	118,496
263,093	-0,510	239,744	118,591
264,107	-0,845	239,693	118,288
265,122	-0,762	239,528	118,263
266,136	-0,508	239,253	118,318
267,151	-0,543	239,204	118,256
268,166	-0,706	239,040	118,035
269,180	-0,718	238,790	117,891
270,195	-0,564	238,665	117,941
271,209	-0,647	238,622	117,844
272,224	-0,617	238,470	117,781
273,239	-0,722	238,353	117,630
274,253	-0,448	238,089	117,706
275,268	-0,630	238,023	117,519
276,282	-0,820	237,695	117,196
277,297	-0,656	237,610	117,274
278,312	-0,449	237,521	117,382
279,326	-0,806	237,398	117,030
280,341	-0,728	237,288	117,027
281,355	-0,390	236,978	117,129
282,370	-0,312	236,763	117,073
283,384	-0,582	236,707	116,823
284,399	-0,536	236,593	116,793
285,414	-0,555	236,434	116,689
286,428	-0,492	236,209	116,617
287,443	-0,600	236,220	116,527
288,457	-0,480	235,889	116,448
289,472	-0,403	235,658	116,383
290,487	-0,660	235,721	116,203
291,501	-0,510	235,549	116,225
292,516	-0,619	235,357	116,035
293,530	-0,769	235,361	115,910
294,545	-0,488	235,055	115,968
295,560	-0,580	234,883	115,801
296,574	-0,501	234,740	115,781
297,589	-0,498	234,560	115,685
298,603	-0,445	234,554	115,712
299,618	-0,365	234,283	115,631
300,633	-0,480	234,150	115,465
301,647	-0,364	233,982	115,462
302,662	-0,490	233,857	115,292
303,676	-0,386	233,830	115,350
304,691	-0,400	233,633	115,231
305,706	-0,476	233,458	115,076
306,720	-0,538	233,365	114,971
307,735	-0,533	233,131	114,850
308,749	-0,440	233,064	114,879
309,764	-0,259	232,762	114,859
310,779	-0,392	232,738	114,735
311,793	-0,457	232,660	114,636
312,808	-0,564	232,209	114,321
313,822	-0,541	232,272	114,360
314,837	-0,245	232,010	114,448
315,852	-0,079	231,978	114,549
316,866	-0,411	231,814	114,203
317,881	-0,394	231,718	114,159
318,895	-0,192	231,452	114,172
319,910	-0,472	231,299	113,873
320,925	-0,362	231,169	113,882
321,939	-0,474	231,109	113,757
322,954	-0,278	230,997	113,842
323,968	-0,326	230,931	113,762
324,983	-0,289	230,605	113,619
325,997	-0,440	230,574	113,479
327,012	-0,319	230,299	113,426
328,027	-0,366	230,250	113,356
329,041	-0,227	229,987	113,322
330,056	-0,309	229,922	113,217
331,070	-0,288	229,801	113,163
332,085	-0,221	229,583	113,097
333,100	-0,102	229,497	113,135
334,114	-0,131	229,259	112,985
335,129	-0,240	229,052	112,790
336,143	-0,295	229,146	112,785
337,158	-0,344	229,061	112,697
338,173	-0,199	228,800	112,668
339,187	-0,075	228,575	112,640
340,202	-0,116	228,429	112,528
341,216	-0,156	228,383	112,464
342,231	-0,129	228,163	112,366
343,246	-0,011	228,039	112,384
344,260	-0,131	227,961	112,246
345,275	-0,126	227,764	112,142
346,289	-0,173	227,673	112,051
347,304	-0,275	227,416	111,839
348,319	-0,232	227,256	111,782
349,333	-0,046	227,098	111,834
350,348	-0,312	227,152	111,651
351,362	-0,224	226,878	111,573
352,377	-0,259	226,741	111,469
353,392	-0,114	226,670	111,533
354,406	-0,128	226,631	111,493
355,421	196,381	1318,552	1394,180
356,435	157,481	1451,563	1394,150
