DTS Sentinel unit serial number:	SN410029Multiplexer serial number:	ORYXHardware model number:	OX2-SRSoftware version number:	ORYX F/W v4,00 Oryx Data Collector v3.7.2.0data status	okinstallation	B5 Nyhavnadifferential loss correction	single-endedforward channel	channel 2reverse channel	N/Adate	2023/12/14time	19:07:13forward acquisition time	300,00reverse acquisition time	0,00gamma	499,1914k internal	0,3156k external	0,3156temperature offset calibration	1,0000default loss term (dB/km)	0,3820temperature slope calibration	1,0000multiplexer offset coefficient	1,0000multiplexer slope coefficient	1,0000fibre end	0,00T internal ref (°C)	8,75T ext. ref 1 (°C)	-5,99T ext. ref 2 (°C)	-6,06length (m)	temperature (°C)	Stokes	anti-Stokes-744,400	-24,231	0,103	0,045
-743,385	-128,999	-0,358	0,037
-742,371	-61,244	0,271	0,084
-741,356	-51,647	-0,392	-0,134
-740,342	-115,363	0,177	-0,024
-739,327	-1,569	-0,433	-0,224
-738,312	-200,000	0,133	0,000
-737,298	-97,419	-0,393	-0,075
-736,283	-188,253	0,094	-0,001
-735,269	117,004	-0,197	-0,179
-734,254	301,648	0,105	0,143
-733,239	-19,546	-0,626	-0,285
-732,225	-66,053	0,326	0,095
-731,210	-200,000	-0,033	0,196
-730,196	-200,000	0,001	-0,234
-729,181	-200,000	-0,009	-0,101
-728,167	-80,447	-0,094	-0,023
-727,152	-1,449	-0,073	-0,038
-726,137	-111,359	-0,042	-0,006
-725,123	-150,102	-0,123	0,007
-724,108	-52,133	-0,129	0,044
-723,094	-7,549	-0,089	-0,044
-722,079	-200,000	-0,001	-0,091
-721,064	474,329	0,046	-0,078
-720,050	466,334	-0,015	0,025
-719,035	689,089	0,029	0,057
-718,021	-200,000	-0,006	-0,046
-717,006	-25,266	-0,197	-0,086
-715,991	31,628	-0,026	0,017
-714,977	-24,419	-0,035	-0,015
-713,962	261,256	0,028	-0,035
-712,948	-69,910	-0,055	0,015
-711,933	800,000	0,042	0,125
-710,918	-55,257	-0,097	0,032
-709,904	-52,784	-0,072	-0,024
-708,889	62,450	-0,176	-0,129
-707,875	-4,480	-0,170	0,086
-706,860	-29,985	0,093	-0,039
-705,845	335,668	0,027	-0,039
-704,831	800,000	-0,033	0,103
-703,816	-166,657	0,058	0,002
-702,802	-200,000	0,013	-0,185
-701,787	373,066	-0,100	-0,150
-700,772	-99,960	-0,094	-0,017
-699,758	15,010	0,082	-0,047
-698,743	-104,033	0,116	0,020
-697,729	592,441	0,079	0,145
-696,714	800,000	0,010	-0,023
-695,699	-200,000	-0,002	0,012
-694,685	781,237	-0,035	-0,072
-693,670	800,000	0,051	-0,117
-692,656	92,637	-0,038	-0,031
-691,641	156,845	0,030	-0,030
-690,627	277,898	-0,108	0,143
-689,612	-45,004	0,041	0,015
-688,597	800,000	0,017	-0,047
-687,583	308,096	-0,036	0,049
-686,568	117,073	-0,065	-0,059
-685,554	-142,143	-0,081	0,006
-684,539	361,880	0,063	-0,094
-683,524	214,706	-0,052	-0,061
-682,510	-107,181	-0,058	-0,009
-681,495	-200,000	-0,022	-0,109
-680,481	800,000	-0,035	0,112
-679,466	13,882	-0,208	-0,119
-678,451	-200,000	0,002	-0,029
-677,437	275,896	-0,056	0,073
-676,422	691,115	0,063	0,121
-675,408	-200,000	-0,010	-0,067
-674,393	263,447	-0,044	0,057
-673,378	655,382	-0,053	-0,100
-672,364	-87,173	-0,120	0,027
-671,349	-200,000	-0,015	-0,098
-670,335	-200,000	-0,011	-0,060
-669,320	-32,728	0,169	-0,069
-668,305	-9,082	-0,116	0,057
-667,291	429,900	0,049	0,078
-666,276	-84,619	-0,213	-0,049
-665,262	-95,240	-0,033	-0,006
-664,247	-53,564	-0,097	-0,032
-663,232	192,346	0,082	-0,091
-662,218	-94,236	-0,114	0,023
-661,203	-200,000	0,031	0,115
-660,189	-200,000	-0,057	0,214
-659,174	79,606	-0,119	-0,093
-658,159	22,896	0,081	-0,049
-657,145	-100,372	-0,248	0,045
-656,130	-139,084	0,091	-0,007
-655,116	129,248	0,069	-0,065
-654,101	443,519	-0,066	0,106
-653,086	-200,000	-0,003	0,057
-652,072	96,512	0,089	0,075
-651,057	-130,051	-0,065	-0,006
-650,043	6,168	-0,055	-0,030
-649,028	-98,602	0,233	-0,043
-648,014	800,000	0,075	0,170
-646,999	-200,000	0,003	0,050
-645,984	172,184	-0,107	-0,113
-644,970	121,601	-0,027	0,025
-643,955	710,735	0,082	-0,161
-642,941	-133,245	-0,107	-0,010
-641,926	336,625	-0,031	-0,044
-640,911	199,609	0,121	-0,136
-639,897	161,336	0,046	0,047
-638,882	204,024	0,033	-0,038
-637,868	-37,070	-0,148	-0,058
-636,853	-200,000	-0,020	-0,235
-635,838	-200,000	-0,009	-0,161
-634,824	-200,000	-0,021	-0,076
-633,809	-80,677	0,084	0,020
-632,795	185,711	0,059	-0,065
-631,780	800,000	0,053	0,134
-630,765	145,705	0,064	-0,063
-629,751	18,722	-0,052	-0,031
-628,736	422,300	0,072	0,114
-627,722	800,000	0,008	0,017
-626,707	55,293	-0,132	-0,093
-625,692	55,016	0,082	-0,058
-624,678	26,761	-0,044	-0,027
-623,663	-37,733	0,127	-0,049
-622,649	-70,833	-0,094	0,026
-621,634	12,785	-0,052	0,029
-620,619	120,515	-0,095	-0,086
-619,605	198,250	0,020	0,022
-618,590	-61,791	-0,037	-0,011
-617,576	-200,000	0,001	-0,005
-616,561	-142,283	-0,089	-0,006
-615,546	118,485	0,106	-0,096
-614,532	-144,484	-0,060	-0,004
-613,517	197,278	0,013	-0,015
-612,503	-47,854	0,032	-0,011
-611,488	-128,594	0,099	0,010
-610,474	-200,000	0,007	-0,057
-609,459	239,355	0,017	0,021
-608,444	174,024	-0,088	-0,093
-607,430	578,287	-0,055	-0,098
-606,415	7,399	-0,128	-0,070
-605,401	800,000	0,022	0,060
-604,386	327,987	0,076	0,107
-603,371	-55,841	-0,063	0,021
-602,357	47,665	-0,119	0,081
-601,342	-81,711	-0,037	-0,009
-600,328	452,129	0,046	-0,074
-599,313	42,996	-0,028	-0,019
-598,298	800,000	0,019	0,043
-597,284	-200,000	0,018	0,092
-596,269	-200,000	-0,017	-0,193
-595,255	800,000	-0,032	0,080
-594,240	76,898	-0,085	-0,066
-593,225	357,081	0,071	-0,103
-592,211	-61,698	-0,127	-0,039
-591,196	-74,886	-0,024	0,006
-590,182	-135,330	-0,097	-0,008
-589,167	179,069	0,120	0,129
-588,152	800,000	-0,051	0,105
-587,138	-200,000	0,018	0,110
-586,123	257,799	-0,100	-0,127
-585,109	69,559	0,006	-0,005
-584,094	251,057	-0,052	0,066
-583,079	52,342	-0,075	0,052
-582,065	34,546	0,149	-0,095
-581,050	555,639	0,064	0,113
-580,036	-37,238	-0,081	0,032
-579,021	95,700	-0,042	0,035
-578,006	-97,011	-0,030	-0,006
-576,992	-200,000	-0,016	-0,090
-575,977	-200,000	-0,022	0,088
-574,963	224,840	-0,049	0,058
-573,948	740,198	0,027	0,053
-572,934	-47,306	-0,163	0,058
-571,919	75,713	-0,061	-0,047
-570,904	800,000	-0,020	0,048
-569,890	21,025	0,106	0,063
-568,875	-169,670	0,113	0,003
-567,861	-83,668	0,060	0,014
-566,846	17,238	0,169	-0,098
-565,831	349,865	0,106	-0,154
-564,817	-62,370	-0,041	0,012
-563,802	-200,000	0,016	0,062
-562,788	657,496	0,035	0,066
-561,773	-89,362	-0,145	-0,031
-560,758	800,000	-0,039	0,107
-559,744	-200,000	0,001	-0,015
-558,729	800,000	0,049	-0,154
-557,715	72,488	-0,082	-0,063
-556,700	-158,127	-0,151	0,006
-555,685	535,747	-0,052	-0,092
-554,671	722,607	0,071	-0,140
-553,656	800,000	-0,032	0,090
-552,642	-4,045	-0,083	-0,042
-551,627	-43,109	0,096	0,035
-550,612	38,810	0,045	-0,029
-549,598	800,000	-0,079	-0,170
-548,583	659,247	-0,020	0,037
-547,569	290,731	0,114	-0,152
-546,554	230,476	-0,040	-0,048
-545,539	-84,708	0,095	-0,022
-544,525	-66,309	0,059	-0,017
-543,510	-200,000	-0,031	0,118
-542,496	800,000	0,048	0,110
-541,481	260,491	-0,070	-0,089
-540,466	-63,495	0,097	0,029
-539,452	84,840	-0,038	0,030
-538,437	79,009	0,029	-0,023
-537,423	421,728	0,015	0,023
-536,408	800,000	-0,025	-0,062
-535,393	-50,273	-0,132	0,045
-534,379	-152,885	-0,184	-0,009
-533,364	65,260	0,038	0,028
-532,350	-200,000	-0,006	0,110
-531,335	67,391	0,085	0,064
-530,321	214,180	0,073	0,085
-529,306	0,439	0,027	0,014
-528,291	251,560	0,024	-0,030
-527,277	764,448	0,057	-0,114
-526,262	-200,000	-0,013	-0,052
-525,248	-200,000	-0,019	-0,067
-524,233	23,412	-0,058	-0,035
-523,218	4,148	-0,146	0,078
-522,204	44,628	0,160	0,107
-521,189	-90,764	-0,082	0,017
-520,175	84,750	0,040	-0,032
-519,160	113,894	-0,049	-0,043
-518,145	124,637	0,076	0,070
-517,131	-114,825	0,062	-0,009
-516,116	800,000	-0,017	0,052
-515,102	36,104	-0,033	0,021
-514,087	473,702	-0,037	-0,062
-513,072	-200,000	0,017	0,056
-512,058	-20,525	-0,071	0,032
-511,043	-119,905	0,190	0,024
-510,029	149,311	-0,066	-0,065
-509,014	-200,000	0,021	0,133
-507,999	56,853	-0,044	-0,031
-506,985	111,916	-0,106	0,093
-505,970	75,691	-0,101	0,078
-504,956	-98,334	0,103	-0,019
-503,941	-121,586	-0,041	0,005
-502,926	-200,000	0,000	0,114
-501,912	660,794	-0,057	-0,108
-500,897	-200,000	0,013	0,063
-499,883	800,000	0,008	-0,018
-498,868	-121,685	-0,099	0,012
-497,853	637,207	-0,036	0,068
-496,839	-32,809	0,039	-0,016
-495,824	-138,156	-0,065	-0,005
-494,810	187,810	0,078	0,085
-493,795	-21,396	0,108	0,048
-492,781	-143,230	-0,056	0,004
-491,766	-200,000	0,001	0,006
-490,751	-25,794	-0,127	0,054
-489,737	-200,000	-0,026	-0,127
-488,722	265,932	0,044	0,056
-487,708	-152,293	0,090	0,005
-486,693	-97,142	0,148	-0,028
-485,678	7,518	-0,136	-0,074
-484,664	-200,000	-0,056	0,000
-483,649	-12,492	-0,110	-0,052
-482,635	48,790	0,036	0,025
-481,620	106,052	0,067	0,058
-480,605	483,006	-0,054	0,089
-479,591	268,018	0,065	0,083
-478,576	-200,000	0,023	-0,162
-477,562	800,000	0,044	-0,139
-476,547	62,531	-0,070	-0,051
-475,532	-200,000	-0,011	-0,097
-474,518	248,066	0,074	0,092
-473,503	-200,000	0,010	-0,094
-472,489	-113,129	0,150	-0,021
-471,474	800,000	0,020	-0,057
-470,459	800,000	-0,071	-0,159
-469,445	-200,000	-0,002	-0,041
-468,430	-151,330	0,097	0,005
-467,416	-57,466	-0,023	0,007
-466,401	8,734	-0,047	0,026
-465,386	-166,362	0,050	-0,001
-464,372	-109,384	-0,080	-0,012
-463,357	-200,000	0,016	-0,122
-462,343	-108,156	0,029	-0,005
-461,328	800,000	0,043	0,108
-460,313	57,930	-0,108	0,077
-459,299	1,967	0,116	0,061
-458,284	800,000	-0,047	-0,102
-457,270	800,000	0,023	0,059
-456,255	-170,737	-0,114	-0,003
-455,241	800,000	0,020	-0,049
-454,226	-200,000	0,013	0,088
-453,211	-200,000	0,009	0,072
-452,197	-90,233	-0,041	0,009
-451,182	410,203	0,025	-0,038
-450,168	-136,720	0,075	-0,006
-449,153	-119,986	-0,104	-0,013
-448,138	27,780	-0,030	-0,019
-447,124	800,000	-0,075	-0,183
-446,109	-145,722	0,091	0,006
-445,095	657,410	0,026	0,049
-444,080	144,289	-0,057	0,056
-443,065	-39,358	-0,106	0,040
-442,051	-81,222	0,018	0,004
-441,036	87,285	-0,044	-0,036
-440,022	-200,000	-0,173	-0,001
-439,007	-200,000	0,043	0,160
-437,992	-200,000	-0,015	0,077
-436,978	-102,214	0,045	-0,008
-435,963	135,213	0,017	-0,016
-434,949	-43,786	-0,069	0,025
-433,934	187,091	-0,027	0,029
-432,919	69,240	-0,094	-0,070
-431,905	-166,060	0,107	0,003
-430,890	221,011	0,097	-0,114
-429,876	-14,215	0,096	-0,045
-428,861	125,320	-0,040	0,037
-427,846	31,943	-0,072	-0,045
-426,832	19,826	0,143	-0,083
-425,817	-24,096	-0,173	-0,075
-424,803	800,000	-0,032	0,094
-423,788	-115,073	0,060	-0,008
-422,773	-200,000	0,002	0,041
-421,759	269,269	-0,050	0,064
-420,744	-66,320	-0,082	-0,024
-419,730	-32,628	-0,127	-0,051
-418,715	-200,000	0,008	-0,036
-417,701	189,024	-0,080	-0,087
-416,686	800,000	0,023	0,070
-415,671	-200,000	-0,027	0,109
-414,657	-140,518	0,019	0,001
-413,642	-151,372	-0,033	0,002
-412,628	215,991	-0,019	0,022
-411,613	-200,000	0,019	-0,096
-410,598	-200,000	-0,014	-0,049
-409,584	-43,815	0,135	0,049
-408,569	338,434	0,085	0,121
-407,555	-30,300	-0,076	0,031
-406,540	-200,000	-0,014	-0,051
-405,525	-200,000	0,007	0,024
-404,511	-200,000	-0,025	-0,126
-403,496	800,000	0,025	-0,068
-402,482	800,000	-0,011	0,024
-401,467	-42,185	0,146	-0,054
-400,452	-200,000	0,009	0,059
-399,438	77,181	0,121	-0,093
-398,423	800,000	-0,028	0,066
-397,409	12,523	0,018	-0,010
-396,394	11,600	0,077	-0,043
-395,379	-85,302	0,116	-0,026
-394,365	-17,567	0,041	0,019
-393,350	21,997	0,093	0,055
-392,336	-145,081	0,146	-0,009
-391,321	-49,895	-0,040	0,014
-390,306	5,266	-0,136	-0,073
-389,292	-200,000	0,024	0,110
-388,277	-119,848	-0,096	0,012
-387,263	-51,856	0,038	0,013
-386,248	422,181	0,080	0,125
-385,233	800,000	-0,049	0,103
-384,219	800,000	-0,004	0,011
-383,204	-200,000	-0,011	-0,120
-382,190	-200,000	-0,001	-0,057
-381,175	95,042	-0,082	0,068
-380,160	97,274	0,098	0,082
-379,146	-137,132	0,090	-0,007
-378,131	-142,249	0,056	-0,004
-377,117	677,148	0,031	0,058
-376,102	281,754	-0,072	0,094
-375,088	-200,000	0,068	0,000
-374,073	45,082	-0,095	0,064
-373,058	39,539	0,074	0,048
-372,044	-200,000	0,010	0,177
-371,029	297,320	-0,091	0,122
-370,015	-48,283	0,147	-0,051
-369,000	701,609	0,038	0,072
-367,985	281,645	0,018	-0,023
-366,971	-133,618	0,113	-0,010
-365,956	-114,225	0,091	0,013
-364,942	193,927	0,078	-0,086
-363,927	-0,227	-0,077	-0,040
-362,912	-38,725	-0,084	-0,032
-361,898	86,995	-0,062	-0,050
-360,883	-9,689	-0,102	-0,049
-359,869	-35,858	-0,101	0,040
-358,854	-200,000	-0,015	-0,054
-357,839	210,980	0,106	0,121
-356,825	800,000	-0,018	-0,054
-355,810	799,225	-0,034	0,068
-354,796	402,272	-0,008	-0,012
-353,781	156,430	0,030	0,030
-352,766	800,000	-0,034	-0,091
-351,752	800,000	0,060	-0,174
-350,737	-39,350	0,080	0,030
-349,723	252,382	-0,076	0,095
-348,708	-200,000	0,012	0,054
-347,693	-165,379	-0,038	-0,001
-346,679	594,925	-0,081	-0,146
-345,664	301,114	-0,059	-0,079
-344,650	137,237	0,026	0,024
-343,635	684,655	0,031	-0,059
-342,620	395,781	-0,004	-0,006
-341,606	800,000	-0,013	-0,027
-340,591	364,458	0,072	-0,105
-339,577	-53,654	-0,138	0,045
-338,562	-58,450	-0,138	-0,043
-337,548	-117,377	0,056	0,007
-336,533	-68,326	0,102	-0,029
-335,518	-200,000	-0,010	-0,045
-334,504	800,000	-0,014	0,029
-333,489	257,791	-0,063	0,079
-332,475	17,399	-0,049	0,028
-331,460	678,241	0,061	0,115
-330,445	554,375	-0,066	0,116
-329,431	-150,005	-0,053	0,003
-328,416	-79,622	0,132	-0,032
-327,402	-29,751	0,123	-0,051
-326,387	-57,409	-0,018	-0,006
-325,372	659,106	-0,057	0,107
-324,358	226,213	-0,016	-0,018
-323,343	767,234	-0,050	-0,099
-322,329	-200,000	-0,022	0,078
-321,314	-73,472	-0,064	-0,017
-320,299	-61,168	0,123	-0,037
-319,285	-2,874	-0,071	-0,036
-318,270	-144,287	-0,120	-0,008
-317,256	244,502	0,081	-0,099
-316,241	-83,859	-0,031	-0,007
-315,226	-200,000	-0,033	0,129
-314,212	-25,501	0,182	0,078
-313,197	-55,110	0,129	0,042
-312,183	-111,124	-0,070	-0,010
-311,168	346,652	0,026	-0,038
-310,153	488,367	-0,059	-0,099
-309,139	306,831	0,048	0,065
-308,124	-200,000	-0,014	0,046
-307,110	800,000	0,018	-0,042
-306,095	37,217	-0,048	0,030
-305,080	-29,099	0,018	0,007
-304,066	-171,662	-0,073	-0,002
-303,051	-141,458	-0,072	0,005
-302,037	800,000	-0,028	0,068
-301,022	151,768	0,039	0,038
-300,008	-43,984	0,092	-0,033
-298,993	-130,686	0,068	-0,007
-297,978	39,922	0,120	-0,078
-296,964	471,917	0,045	0,074
-295,949	88,922	-0,077	0,062
-294,935	800,000	0,087	-0,257
-293,920	-99,208	-0,242	-0,044
-292,905	553,656	0,048	0,084
-291,891	-200,000	-0,012	0,050
-290,876	800,000	-0,062	0,151
-289,862	-57,317	0,077	0,024
-288,847	800,000	-0,014	-0,035
-287,832	130,752	0,120	-0,111
-286,818	-200,000	0,008	0,033
-285,803	-17,452	-0,029	0,013
-284,789	800,000	-0,078	-0,160
-283,774	-173,507	0,142	0,003
-282,759	-106,810	0,164	-0,026
-281,745	585,575	0,051	0,091
-280,730	800,000	-0,059	0,138
-279,716	67,108	0,118	0,087
-278,701	-95,675	0,051	-0,010
-277,686	-200,000	0,015	0,087
-276,672	-200,000	0,036	0,120
-275,657	-49,330	-0,108	0,037
-274,643	-200,000	0,033	0,110
-273,628	-108,629	-0,225	0,035
-272,613	-200,000	-0,013	-0,073
-271,599	-195,091	0,180	-0,001
-270,584	674,933	0,085	0,161
-269,570	38,471	0,012	0,008
-268,555	56,515	0,070	0,049
-267,540	-36,543	0,122	-0,047
-266,526	317,422	-0,093	-0,128
-265,511	217,515	0,033	-0,038
-264,497	82,888	0,175	-0,138
-263,482	195,112	-0,031	0,034
-262,467	-30,301	-0,101	0,041
-261,453	-200,000	-0,007	0,171
-260,438	800,000	0,013	-0,040
-259,424	272,286	0,026	-0,034
-258,409	284,850	-0,097	-0,127
-257,395	-200,000	0,030	-0,148
-256,380	-95,973	0,152	0,029
-255,365	366,305	0,067	0,098
-254,351	800,000	0,022	0,051
-253,336	-92,441	0,094	0,019
-252,322	18,940	-0,173	-0,100
-251,307	-39,128	-0,061	-0,023
-250,292	91,411	-0,072	0,058
-249,278	-52,110	0,148	0,049
-248,263	800,000	-0,042	-0,108
-247,249	594,176	-0,039	-0,071
-246,234	-59,542	0,106	0,033
-245,219	170,991	-0,048	-0,049
-244,205	-200,000	-0,005	-0,087
-243,190	177,526	-0,071	0,075
-242,176	-5,759	0,064	-0,032
-241,161	19,974	-0,007	0,004
-240,146	211,959	-0,114	0,130
-239,132	151,970	0,081	0,080
-238,117	-200,000	-0,014	-0,078
-237,103	250,680	-0,052	-0,064
-236,088	331,290	-0,053	-0,075
-235,073	-125,936	0,130	-0,014
-234,059	-69,823	0,071	-0,019
-233,044	-200,000	-0,015	0,104
-232,030	769,186	0,020	0,040
-231,015	521,719	-0,058	-0,098
-230,000	800,000	0,021	-0,048
-228,986	35,436	0,170	-0,108
-227,971	446,021	-0,067	0,107
-226,957	154,841	0,129	0,128
-225,942	-200,000	-0,016	0,101
-224,927	121,777	-0,115	0,104
-223,913	-200,000	-0,014	0,072
-222,898	-97,827	0,033	-0,006
-221,884	-64,368	-0,121	-0,035
-220,869	-200,000	-0,004	0,080
-219,855	140,092	-0,070	-0,066
-218,840	55,235	-0,184	0,128
-217,825	674,108	0,029	0,055
-216,811	-200,000	0,012	-0,048
-215,796	783,299	0,034	-0,068
-214,782	-99,321	-0,118	0,021
-213,767	-200,000	-0,007	0,093
-212,752	-129,792	-0,063	-0,006
-211,738	-17,604	0,071	0,032
-210,723	-200,000	0,019	-0,085
-209,709	234,357	0,089	-0,107
-208,694	204,264	-0,065	0,073
-207,679	-65,607	-0,170	-0,049
-206,665	-200,000	0,012	0,087
-205,650	800,000	-0,046	0,106
-204,636	-9,223	0,045	0,022
-203,621	96,225	0,014	0,011
-202,606	765,233	0,053	-0,105
-201,592	10,707	-0,093	0,051
-200,577	-11,310	0,021	-0,010
-199,563	-133,465	-0,042	0,004
-198,548	-91,929	0,146	0,030
-197,533	-200,000	-0,037	-0,149
-196,519	-38,133	0,124	-0,047
-195,504	-35,736	0,030	-0,012
-194,490	127,133	-0,112	-0,103
-193,475	-29,792	0,055	-0,022
-192,460	11,273	-0,106	-0,059
-191,446	499,434	-0,012	-0,021
-190,431	534,613	0,053	-0,091
-189,417	-131,003	-0,034	0,003
-188,402	-15,821	-0,117	0,054
-187,387	-200,000	-0,007	-0,044
-186,373	800,000	-0,026	-0,079
-185,358	-200,000	-0,000	0,047
-184,344	-131,602	0,015	0,001
-183,329	800,000	0,037	0,091
-182,315	-200,000	0,040	0,175
-181,300	-200,000	0,000	0,079
-180,285	-139,020	0,132	0,010
-179,271	53,812	0,053	-0,036
-178,256	-91,301	-0,081	0,017
-177,242	356,539	-0,074	0,106
-176,227	149,049	-0,015	-0,014
-175,212	-200,000	0,017	0,080
-174,198	-57,641	0,094	-0,030
-173,183	-200,000	0,030	0,125
-172,169	-167,057	-0,026	-0,001
-171,154	-200,000	0,033	-0,137
-170,139	244,225	-0,051	0,062
-169,125	-67,203	-0,063	0,018
-168,110	415,516	0,068	-0,106
-167,096	-16,747	-0,114	-0,052
-166,081	-200,000	-0,039	0,148
-165,066	-200,000	-0,000	-0,013
-164,052	-24,173	0,176	-0,075
-163,037	-200,000	-0,026	-0,117
-162,023	-200,000	0,008	0,173
-161,008	-26,166	-0,013	0,005
-159,993	-42,587	-0,086	-0,032
-158,979	467,873	-0,107	-0,174
-157,964	-35,929	-0,052	-0,020
-156,950	685,723	-0,016	-0,030
-155,935	282,959	0,100	0,130
-154,920	-95,073	-0,087	-0,017
-153,906	527,778	0,087	0,149
-152,891	-43,848	0,106	-0,038
-151,877	563,518	-0,043	-0,075
-150,862	-200,000	0,009	-0,094
-149,847	-148,004	-0,154	0,009
-148,833	-200,000	-0,012	0,120
-147,818	73,327	-0,027	-0,020
-146,804	493,411	-0,037	-0,061
-145,789	164,663	-0,019	0,019
-144,775	-26,907	-0,074	0,031
-143,760	-77,494	0,063	0,016
-142,745	-10,557	-0,097	-0,046
-141,731	-60,634	0,067	-0,020
-140,716	10,745	0,081	0,044
-139,702	-64,595	0,062	0,018
-138,687	-200,000	0,008	0,060
-137,672	-200,000	-0,009	0,070
-136,658	-135,552	-0,113	0,010
-135,643	-124,472	-0,135	-0,015
-134,629	299,064	0,028	0,037
-133,614	-200,000	-0,041	0,160
-132,599	782,140	-0,034	-0,068
-131,585	-200,000	0,002	0,012
-130,570	-40,260	0,196	0,073
-129,556	-84,117	-0,156	-0,035
-128,541	-200,000	0,046	-0,164
-127,526	59,207	-0,061	0,043
-126,512	-200,000	0,002	-0,023
-125,497	105,462	0,014	0,012
-124,483	-200,000	-0,010	0,069
-123,468	800,000	-0,033	0,069
-122,453	159,241	-0,105	-0,105
-121,439	268,704	-0,055	-0,070
-120,424	-76,854	-0,151	-0,038
-119,410	197,781	0,017	0,019
-118,395	71,418	0,123	0,092
-117,380	422,249	-0,081	0,126
-116,366	-47,466	0,048	-0,017
-115,351	-38,064	-0,028	0,011
-114,337	57,182	0,083	0,059
-113,322	26,245	0,036	-0,022
-112,307	247,759	-0,025	0,030
-111,293	-200,000	-0,005	0,024
-110,278	73,534	-0,075	0,056
-109,264	224,669	-0,051	0,059
-108,249	85,691	-0,045	0,035
-107,234	-200,000	-0,008	-0,070
-106,220	10,125	0,045	-0,024
-105,205	46,245	0,074	-0,049
-104,191	560,351	0,031	0,055
-103,176	17,963	-0,080	-0,046
-102,162	-69,109	-0,097	0,027
-101,147	-137,168	-0,052	-0,004
-100,132	-91,727	-0,070	0,014
-99,118	29,889	-0,084	0,052
-98,103	-200,000	0,002	0,060
-97,089	303,880	0,181	0,243
-96,074	158,048	-0,036	0,036
-95,059	-129,143	0,088	0,009
-94,045	-120,085	0,142	-0,017
-93,030	800,000	0,012	-0,033
-92,016	-21,390	-0,116	0,051
-91,001	-61,870	-0,054	0,016
-89,986	800,000	0,033	0,071
-88,972	800,000	0,088	0,219
-87,957	446,135	-0,063	0,100
-86,943	-22,802	-0,150	0,065
-85,928	-102,013	0,092	-0,016
-84,913	-95,117	0,054	-0,010
-83,899	339,616	0,107	-0,151
-82,884	135,180	0,119	0,111
-81,870	800,000	0,047	0,125
-80,855	-200,000	-0,033	-0,116
-79,840	74,398	0,052	0,040
-78,826	-181,866	-0,048	-0,001
-77,811	429,713	-0,071	0,111
-76,797	-45,480	0,027	0,009
-75,782	17,387	-0,052	-0,030
-74,767	800,000	-0,005	-0,013
-73,753	297,435	-0,068	-0,090
-72,738	800,000	-0,007	-0,018
-71,724	-49,814	0,062	-0,021
-70,709	72,245	0,027	0,020
-69,694	189,909	-0,052	0,056
-68,680	236,500	-0,012	-0,015
-67,665	-15,727	0,128	-0,058
-66,651	-200,000	-0,032	0,126
-65,636	116,780	-0,044	0,039
-64,622	47,266	0,055	-0,036
-63,607	162,099	0,142	-0,143
-62,592	-200,000	-0,031	-0,211
-61,578	160,188	-0,049	-0,050
-60,563	-200,000	-0,007	0,093
-59,549	-200,000	-0,012	0,073
-58,534	56,661	-2,517	-1,757
-57,519	1,115	0,416	-0,214
-56,505	-200,000	-1,664	-5,407
-55,490	372,884	1,379	2,018
-54,476	800,000	5,144	11,180
-53,461	-200,000	21,797	338,246
-52,446	800,000	762,479	2288,913
-51,432	508,835	1656,364	2773,280
-50,417	104,115	1621,050	1368,371
-49,403	74,581	1275,541	962,225
-48,388	25,699	1023,007	610,191
-47,373	19,115	989,081	568,145
-46,359	13,414	976,118	541,947
-45,344	9,410	972,909	526,972
-44,330	9,941	970,859	527,587
-43,315	8,887	969,018	523,108
-42,300	8,790	967,825	522,124
-41,286	8,772	966,861	521,525
-40,271	8,749	965,952	520,939
-39,257	8,788	964,999	520,532
-38,242	8,792	964,136	520,059
-37,227	8,787	963,382	519,615
-36,213	8,750	962,674	519,090
-35,198	8,759	961,561	518,499
-34,184	8,812	961,032	518,366
-33,169	8,785	959,970	517,686
-32,154	8,803	959,018	517,210
-31,140	8,804	958,283	516,797
-30,125	8,831	957,510	516,445
-29,111	8,803	956,415	515,743
-28,096	8,805	955,856	515,430
-27,082	8,804	955,170	515,035
-26,067	8,785	954,451	514,564
-25,052	8,736	953,766	514,018
-24,038	8,787	953,010	513,754
-23,023	8,691	952,373	513,080
-22,009	8,764	951,850	513,015
-20,994	8,816	951,063	512,738
-19,979	8,873	950,381	512,534
-18,965	8,726	950,095	511,886
-17,950	8,771	949,415	511,644
-16,936	8,708	948,658	511,012
-15,921	8,761	947,773	510,685
-14,906	8,606	947,412	509,974
-13,892	8,706	946,368	509,711
-12,877	8,659	945,998	509,342
-11,863	8,579	945,472	508,782
-10,848	8,636	944,835	508,603
-9,833	8,734	944,326	508,622
-8,819	8,705	943,713	508,177
-7,804	8,660	942,942	507,599
-6,790	8,700	942,305	507,363
-5,775	8,817	941,665	507,372
-4,760	8,742	941,283	506,906
-3,746	8,684	940,519	506,291
-2,731	8,548	939,782	505,443
-1,717	8,451	939,528	504,975
-0,702	8,527	938,521	504,655
0,313	8,348	937,817	504,470
1,327	11,789	935,835	514,256
2,342	20,470	784,648	454,057
3,356	15,926	451,400	254,304
4,371	-10,171	314,491	149,258
5,386	-13,801	297,128	137,308
6,400	-15,803	291,000	132,466
7,415	-16,423	288,354	130,636
8,429	-17,359	286,271	128,761
9,444	-17,335	285,332	128,350
10,459	-17,440	284,896	128,040
11,473	-17,532	284,240	127,645
12,488	-17,377	283,641	127,515
13,502	-17,333	283,129	127,317
14,517	-17,525	282,715	126,933
15,531	-17,637	282,219	126,590
16,546	-17,474	281,861	126,576
17,561	-17,468	281,378	126,353
18,575	-17,519	281,063	126,152
19,590	-17,665	280,877	125,917
20,604	-17,667	280,587	125,773
21,619	-17,747	280,111	125,472
22,634	-17,448	279,823	125,618
23,648	-17,594	279,362	125,261
24,663	-17,698	279,364	125,151
25,677	-17,665	279,103	125,054
26,692	-17,671	278,646	124,833
27,707	-17,574	278,408	124,807
28,721	-17,814	278,312	124,525
29,736	-17,734	277,882	124,397
30,750	-17,569	277,528	124,385
31,765	-17,632	277,242	124,185
32,780	-17,551	277,050	124,165
33,794	-17,687	276,726	123,880
34,809	-17,736	276,586	123,760
35,823	-17,428	276,204	123,868
36,838	-17,551	276,010	123,655
37,853	-17,654	275,860	123,479
38,867	-17,501	275,464	123,436
39,882	-17,450	275,243	123,373
40,896	-17,495	275,028	123,223
41,911	-17,682	274,845	122,955
42,926	-17,566	274,537	122,915
43,940	-17,513	274,350	122,870
44,955	-17,684	274,042	122,561
45,969	-17,711	273,804	122,418
46,984	-17,659	273,660	122,391
47,999	-17,632	273,545	122,355
49,013	-17,544	273,365	122,346
50,028	-17,478	272,938	122,205
51,042	-17,511	272,815	122,108
52,057	-17,450	272,609	122,062
53,071	-17,387	272,221	121,936
54,086	-17,586	272,110	121,690
55,101	-17,481	271,823	121,649
56,115	-17,438	271,736	121,639
57,130	-17,368	271,334	121,513
58,144	-17,350	270,977	121,359
59,159	-17,644	270,928	121,054
60,174	-17,452	270,585	121,067
61,188	-17,471	270,440	120,975
62,203	-17,499	270,244	120,850
63,217	-17,396	270,103	120,870
64,232	-17,497	269,769	120,618
65,247	-17,520	269,447	120,442
66,261	-17,575	269,178	120,261
67,276	-17,520	269,054	120,244
68,290	-17,603	268,972	120,121
69,305	-17,495	268,661	120,071
70,320	-17,471	268,399	119,965
71,334	-17,512	268,247	119,848
72,349	-17,532	268,100	119,754
73,363	-17,393	267,686	119,685
74,378	-17,439	267,522	119,559
75,393	-17,433	267,263	119,438
76,407	-17,541	267,141	119,275
77,422	-17,413	266,809	119,232
78,436	-17,421	266,581	119,113
79,451	-17,531	266,292	118,873
80,466	-17,464	266,052	118,816
81,480	-17,410	265,819	118,750
82,495	-17,415	265,592	118,633
83,509	-17,441	265,532	118,573
84,524	-17,392	265,283	118,495
85,539	-17,388	265,119	118,415
86,553	-17,365	264,794	118,280
87,568	-17,676	264,756	117,972
88,582	-17,431	264,334	117,994
89,597	-17,507	264,217	117,862
90,611	-17,333	264,041	117,931
91,626	-17,520	263,935	117,704
92,641	-17,598	263,814	117,569
93,655	-17,501	263,483	117,499
94,670	-17,387	263,277	117,499
95,684	-17,624	263,057	117,178
96,699	-17,611	262,797	117,063
97,714	-17,336	262,651	117,233
98,728	-17,641	262,363	116,822
99,743	-17,423	262,132	116,903
100,757	-17,458	261,880	116,749
101,772	-17,541	261,881	116,666
102,787	-17,534	261,516	116,499
103,801	-17,555	261,417	116,426
104,816	-17,555	261,270	116,350
105,830	-17,533	261,155	116,307
106,845	-17,330	260,836	116,336
107,860	-17,526	260,673	116,079
108,874	-17,479	260,261	115,927
109,889	-17,658	260,106	115,689
110,903	-17,387	259,758	115,763
111,918	-17,227	259,657	115,849
112,933	-17,328	259,621	115,734
113,947	-17,423	259,403	115,542
114,962	-17,454	259,194	115,411
115,976	-17,543	259,018	115,244
116,991	-17,574	258,841	115,128
118,006	-17,220	258,497	115,275
119,020	-17,452	258,393	115,015
120,035	-17,559	258,340	114,887
121,049	-17,277	257,954	114,953
122,064	-17,443	257,746	114,704
123,079	-17,421	257,688	114,687
124,093	-17,268	257,306	114,641
125,108	-17,472	257,212	114,411
126,122	-17,451	257,061	114,352
127,137	-17,467	256,900	114,256
128,151	-17,294	256,718	114,316
129,166	-17,225	256,364	114,208
130,181	-17,410	256,214	113,970
131,195	-17,440	256,095	113,881
132,210	-17,428	255,938	113,811
133,224	-17,387	255,663	113,714
134,239	-17,273	255,387	113,680
135,254	-17,093	255,202	113,744
136,268	-17,299	255,155	113,535
137,283	-17,376	254,973	113,376
138,297	-17,375	254,696	113,244
139,312	-17,456	254,542	113,096
140,327	-17,432	254,181	112,946
141,341	-17,278	253,987	112,982
142,356	-17,268	253,788	112,892
143,370	-17,315	253,736	112,819
144,385	-17,277	253,344	112,668
145,400	-17,272	253,193	112,594
146,414	-17,395	253,031	112,407
147,429	-17,349	252,892	112,374
148,443	-17,304	252,742	112,336
149,458	-17,526	252,494	112,026
150,473	-17,227	252,386	112,224
151,487	-17,182	252,164	112,154
152,502	-17,258	251,953	111,984
153,516	-17,284	251,711	111,845
154,531	-17,378	251,593	111,702
155,546	-17,173	251,403	111,783
156,560	-17,302	251,137	111,545
157,575	-17,291	251,007	111,486
158,589	-17,255	250,730	111,384
159,604	-17,077	250,497	111,422
160,619	-17,290	250,533	111,247
161,633	-17,288	250,151	111,069
162,648	-17,198	250,066	111,097
163,662	-17,362	249,980	110,911
164,677	-17,118	249,746	111,003
165,692	-17,193	249,532	110,834
166,706	-17,280	249,388	110,687
167,721	-17,283	249,255	110,616
168,735	-17,297	249,108	110,530
169,750	-17,315	248,959	110,439
170,764	-17,150	248,840	110,514
171,779	-17,224	248,735	110,396
172,794	-17,252	248,450	110,236
173,808	-17,346	248,357	110,106
174,823	-17,212	248,099	110,094
175,837	-17,186	247,714	109,935
176,852	-17,284	247,819	109,890
177,867	-17,395	247,558	109,671
178,881	-17,369	247,529	109,670
179,896	-17,365	247,205	109,521
180,910	-17,203	247,009	109,560
181,925	-17,300	246,804	109,377
182,940	-17,231	246,646	109,356
183,954	-17,231	246,505	109,283
184,969	-17,325	246,479	109,183
185,983	-17,364	246,229	109,031
186,998	-17,226	245,959	109,016
188,013	-17,032	245,714	109,059
189,027	-17,169	245,674	108,917
190,042	-17,080	245,403	108,862
191,056	-17,172	245,456	108,799
192,071	-17,081	245,227	108,764
193,086	-17,166	245,042	108,601
194,100	-16,921	244,911	108,736
195,115	-17,142	244,611	108,410
196,129	-17,119	244,401	108,326
197,144	-16,983	244,146	108,317
198,159	-17,018	243,903	108,170
199,173	-17,191	243,816	107,979
200,188	-17,328	243,904	107,896
201,202	-17,132	243,448	107,845
202,217	-17,001	243,190	107,829
203,232	-17,177	243,009	107,595
204,246	-17,186	242,894	107,527
205,261	-16,859	242,964	107,816
206,275	-15,198	243,574	109,441
207,290	-10,952	244,850	113,507
208,304	-5,820	246,585	118,556
209,319	-2,969	247,241	121,226
210,334	-2,436	247,301	121,687
211,348	-1,815	247,407	122,242
212,363	-1,215	247,340	122,696
213,377	-0,829	247,463	123,065
214,392	-0,200	247,494	123,591
215,407	0,246	247,300	123,852
216,421	0,235	247,318	123,841
217,436	0,033	247,149	123,578
218,450	0,371	246,989	123,766
219,465	0,249	246,900	123,610
220,480	0,361	246,664	123,573
221,494	0,225	246,467	123,351
222,509	-0,039	246,379	123,078
223,523	-0,078	246,209	122,951
224,538	0,183	245,869	122,985
225,553	-0,033	245,619	122,671
226,567	-0,314	245,570	122,405
227,582	-0,262	245,526	122,415
228,596	0,023	245,184	122,467
229,611	-0,045	245,112	122,365
230,626	-0,107	244,804	122,149
231,640	0,082	244,668	122,225
232,655	-0,117	244,518	121,976
233,669	-0,142	244,463	121,918
234,684	-0,083	244,199	121,823
235,699	0,010	244,113	121,845
236,713	-0,163	243,909	121,591
237,728	-0,123	243,738	121,529
238,742	-0,011	243,601	121,541
239,757	-0,073	243,331	121,344
240,772	-0,034	243,153	121,277
241,786	-0,087	243,285	121,289
242,801	-0,312	242,945	120,925
243,815	-0,168	242,787	120,953
244,830	-0,176	242,673	120,879
245,844	-0,131	242,412	120,775
246,859	-0,100	242,154	120,661
247,874	-0,091	242,103	120,631
248,888	-0,096	242,000	120,565
249,903	-0,269	241,946	120,388
250,917	0,078	241,629	120,499
251,932	-0,094	241,588	120,329
252,947	-0,074	241,385	120,234
253,961	-0,109	241,228	120,117
254,976	-0,032	240,871	119,990
255,990	-0,076	240,804	119,910
257,005	-0,219	240,857	119,812
258,020	-0,131	240,599	119,743
259,034	-0,078	240,438	119,694
260,049	-0,099	240,236	119,566
261,063	-0,014	240,134	119,573
262,078	-0,383	240,133	119,266
263,093	-0,081	239,787	119,326
264,107	-0,116	239,717	119,252
265,122	-0,134	239,619	119,179
266,136	-0,054	239,324	119,085
267,151	0,213	239,108	119,179
268,166	0,083	238,861	118,942
269,180	-0,067	238,965	118,864
270,195	-0,163	238,962	118,775
271,209	-0,260	238,603	118,509
272,224	-0,031	238,513	118,636
273,239	-0,170	238,242	118,380
274,253	0,074	238,201	118,543
275,268	-0,088	237,954	118,281
276,282	-0,151	237,770	118,130
277,297	0,115	237,541	118,215
278,312	-0,049	237,488	118,048
279,326	0,079	237,332	118,062
280,341	-0,089	237,391	117,948
281,355	-0,247	237,114	117,675
282,370	0,052	236,994	117,840
283,384	-0,200	236,770	117,520
284,399	-0,225	236,808	117,509
285,414	-0,086	236,450	117,430
286,428	0,076	236,300	117,472
287,443	-0,129	236,245	117,274
288,457	0,180	235,931	117,350
289,472	-0,053	235,887	117,135
290,487	0,199	235,608	117,183
291,501	0,086	235,602	117,081
292,516	-0,174	235,436	116,785
293,530	0,126	235,370	116,976
294,545	0,152	235,135	116,869
295,560	0,277	234,957	116,868
296,574	0,089	234,942	116,704
297,589	0,063	234,651	116,528
298,603	0,066	234,566	116,478
299,618	0,192	234,250	116,408
300,633	0,405	234,189	116,534
301,647	0,356	233,977	116,379
302,662	0,140	234,003	116,214
303,676	0,144	233,874	116,143
304,691	0,084	233,638	115,969
305,706	0,112	233,488	115,906
306,720	0,102	233,534	115,911
307,735	0,321	233,177	115,892
308,749	0,176	233,145	115,754
309,764	0,215	232,947	115,675
310,779	0,396	232,779	115,721
311,793	0,321	232,644	115,586
312,808	0,194	232,379	115,346
313,822	0,217	232,241	115,285
314,837	0,089	232,324	115,218
315,852	0,191	232,127	115,188
316,866	0,369	231,897	115,201
317,881	0,342	231,716	115,080
318,895	0,193	231,651	114,923
319,910	0,247	231,502	114,880
320,925	0,190	231,314	114,733
321,939	0,305	231,094	114,701
322,954	0,280	230,995	114,623
323,968	0,290	230,945	114,596
324,983	0,321	230,724	114,500
325,997	0,160	230,580	114,295
327,012	0,051	230,545	114,184
328,027	0,186	230,157	114,085
329,041	0,323	230,082	114,142
330,056	0,468	229,960	114,182
331,070	0,211	229,859	113,925
332,085	0,359	229,726	113,962
333,100	0,257	229,404	113,714
334,114	0,366	229,339	113,755
335,129	0,265	229,238	113,617
336,143	0,335	229,137	113,611
337,158	0,289	228,961	113,478
338,173	0,495	228,730	113,510
339,187	0,579	228,681	113,539
340,202	0,409	228,616	113,368
341,216	0,397	228,492	113,288
342,231	0,333	228,324	113,145
343,246	0,324	228,105	113,020
344,260	0,297	228,144	113,008
345,275	0,547	227,873	113,053
346,289	0,611	227,575	112,943
347,304	0,295	227,632	112,724
348,319	0,457	227,332	112,687
349,333	0,416	227,209	112,585
350,348	0,421	227,079	112,515
351,362	0,642	226,799	112,531
352,377	0,591	226,800	112,483
353,392	0,462	226,715	112,334
354,406	0,620	226,522	112,347
355,421	192,942	1311,857	1380,560
356,435	154,617	1443,955	1380,417
