DTS Sentinel unit serial number:	SN410029Multiplexer serial number:	ORYXHardware model number:	OX2-SRSoftware version number:	ORYX F/W v4,00 Oryx Data Collector v3.7.2.0data status	okinstallation	B5 Nyhavnadifferential loss correction	single-endedforward channel	channel 2reverse channel	N/Adate	2023/12/12time	22:32:13forward acquisition time	300,00reverse acquisition time	0,00gamma	499,1914k internal	0,3158k external	0,3158temperature offset calibration	1,0000default loss term (dB/km)	0,3820temperature slope calibration	1,0000multiplexer offset coefficient	1,0000multiplexer slope coefficient	1,0000fibre end	0,00T internal ref (°C)	14,63T ext. ref 1 (°C)	-1,94T ext. ref 2 (°C)	-2,27length (m)	temperature (°C)	Stokes	anti-Stokes-744,400	382,322	0,034	0,051
-743,385	-70,652	-0,307	0,085
-742,371	-200,000	-0,002	0,077
-741,356	-104,651	-0,147	0,025
-740,342	-4,621	0,062	-0,032
-739,327	-105,161	-0,270	-0,045
-738,312	98,710	0,168	0,142
-737,298	-2,670	-0,239	0,123
-736,283	800,000	0,103	0,215
-735,269	-106,245	-0,325	-0,053
-734,254	800,000	0,033	-0,070
-733,239	-104,731	-0,550	-0,092
-732,225	-81,811	0,276	0,066
-731,210	261,177	0,061	0,077
-730,196	423,039	0,013	0,021
-729,181	-100,849	-0,094	0,017
-728,167	-23,941	-0,069	-0,030
-727,152	41,859	-0,112	-0,075
-726,137	-126,586	-0,172	-0,019
-725,123	-58,421	-0,130	0,041
-724,108	158,396	-0,126	-0,128
-723,094	-78,109	0,060	0,015
-722,079	577,222	-0,023	0,041
-721,064	39,712	0,094	-0,062
-720,050	-69,317	0,041	0,011
-719,035	479,012	0,067	0,113
-718,021	-137,913	-0,122	-0,010
-717,006	-200,000	-0,019	-0,175
-715,991	-62,213	-0,117	-0,036
-714,977	219,397	0,046	-0,054
-713,962	-200,000	0,027	-0,165
-712,948	-200,000	-0,010	0,054
-711,933	-102,689	0,051	-0,009
-710,918	59,264	-0,147	0,107
-709,904	164,311	-0,139	-0,145
-708,889	800,000	0,036	-0,111
-707,875	397,457	-0,128	-0,198
-706,860	800,000	-0,063	-0,146
-705,845	95,999	-0,043	-0,036
-704,831	188,993	0,046	0,051
-703,816	-101,100	-0,149	0,027
-702,802	-200,000	-0,009	-0,043
-701,787	-43,131	-0,101	0,037
-700,772	-97,958	-0,111	-0,021
-699,758	21,841	-0,078	0,047
-698,743	-48,423	0,143	0,050
-697,729	-41,537	0,131	-0,049
-696,714	71,807	-0,137	0,105
-695,699	23,660	-0,086	-0,052
-694,685	247,529	-0,084	-0,105
-693,670	-105,463	0,017	0,003
-692,656	-200,000	-0,001	-0,010
-691,641	800,000	0,061	-0,131
-690,627	589,937	0,023	0,043
-689,612	181,437	-0,005	0,006
-688,597	20,199	-0,149	-0,088
-687,583	-200,000	0,002	-0,016
-686,568	92,320	0,042	-0,035
-685,554	61,563	0,083	-0,061
-684,539	-200,000	0,005	0,064
-683,524	148,212	-0,062	0,062
-682,510	304,350	-0,030	0,041
-681,495	417,496	-0,032	-0,051
-680,481	67,969	-0,121	-0,091
-679,466	-200,000	0,021	-0,084
-678,451	-200,000	0,021	0,102
-677,437	800,000	0,028	0,074
-676,422	427,031	-0,052	0,083
-675,408	-151,472	-0,104	0,006
-674,393	-36,320	0,030	-0,012
-673,378	53,383	-0,071	0,050
-672,364	-200,000	0,006	-0,119
-671,349	188,998	-0,072	-0,079
-670,335	800,000	-0,028	-0,077
-669,320	-38,274	-0,127	0,049
-668,305	800,000	-0,012	-0,026
-667,291	183,074	0,031	-0,034
-666,276	110,412	-0,025	-0,022
-665,262	461,338	0,029	0,047
-664,247	99,883	-0,039	-0,033
-663,232	139,705	0,041	-0,040
-662,218	336,724	0,084	0,120
-661,203	111,163	0,104	0,092
-660,189	-101,777	0,127	0,022
-659,174	-58,988	-0,098	-0,031
-658,159	-17,775	-0,087	0,040
-657,145	521,876	0,055	-0,096
-656,130	-83,668	-0,146	-0,034
-655,116	-105,630	-0,104	-0,017
-654,101	298,718	0,114	0,154
-653,086	-100,514	-0,098	0,018
-652,072	-68,021	-0,057	-0,016
-651,057	170,970	-0,079	-0,084
-650,043	800,000	-0,060	-0,129
-649,028	94,746	-0,062	-0,052
-648,014	800,000	-0,055	0,126
-646,999	0,172	0,066	0,035
-645,984	117,999	-0,025	0,023
-644,970	800,000	0,053	-0,123
-643,955	287,577	0,111	-0,147
-642,941	800,000	-0,021	-0,047
-641,926	-27,557	-0,007	-0,003
-640,911	-85,986	0,097	0,022
-639,897	-160,490	-0,035	0,001
-638,882	551,755	0,044	0,078
-637,868	-200,000	-0,008	-0,027
-636,853	284,106	-0,115	-0,152
-635,838	-62,657	-0,214	0,065
-634,824	367,677	0,074	-0,110
-633,809	67,834	-0,100	0,075
-632,795	-94,157	0,083	0,017
-631,780	-57,396	0,154	0,049
-630,765	255,312	-0,070	-0,088
-629,751	-27,558	-0,059	0,025
-628,736	800,000	-0,023	-0,069
-627,722	800,000	-0,023	0,054
-626,707	492,334	-0,029	0,048
-625,692	73,984	0,089	0,069
-624,678	800,000	-0,053	0,148
-623,663	-200,000	0,019	0,149
-622,649	-4,355	-0,178	-0,090
-621,634	294,880	0,013	0,017
-620,619	24,227	-0,055	0,033
-619,605	-200,000	0,030	0,115
-618,590	269,675	0,030	0,039
-617,576	-181,921	0,083	0,001
-616,561	40,549	0,096	-0,063
-615,546	82,229	-0,052	-0,041
-614,532	-143,102	0,065	0,005
-613,517	-25,604	-0,143	-0,062
-612,503	69,839	0,129	-0,097
-611,488	-48,318	-0,121	0,042
-610,474	304,207	0,069	0,094
-609,459	-59,195	-0,047	-0,015
-608,444	-200,000	-0,030	-0,114
-607,430	364,103	-0,024	0,035
-606,415	154,588	-0,162	-0,163
-605,401	137,075	-0,084	0,080
-604,386	-55,148	-0,089	0,029
-603,371	-158,469	0,014	-0,001
-602,357	22,510	0,031	-0,019
-601,342	-184,985	-0,063	0,001
-600,328	-200,000	-0,008	-0,099
-599,313	277,783	0,093	-0,122
-598,298	659,661	0,028	-0,053
-597,284	117,229	0,011	0,010
-596,269	93,380	-0,168	-0,139
-595,255	-31,512	0,106	-0,043
-594,240	117,504	0,103	-0,093
-593,225	107,250	-0,020	0,017
-592,211	800,000	0,057	-0,153
-591,196	-106,905	-0,049	0,008
-590,182	64,415	-0,045	-0,033
-589,167	800,000	-0,018	0,042
-588,152	-108,884	0,024	-0,004
-587,138	-200,000	0,014	-0,080
-586,123	720,161	-0,043	-0,084
-585,109	50,233	-0,031	0,021
-584,094	78,014	0,047	-0,037
-583,079	-52,702	-0,095	0,032
-582,065	-200,000	-0,038	0,153
-581,050	-87,765	-0,063	0,014
-580,036	-53,249	0,072	-0,024
-579,021	152,113	0,086	-0,086
-578,006	-200,000	-0,006	-0,057
-576,992	800,000	0,015	0,040
-575,977	231,145	-0,020	0,024
-574,963	-87,366	-0,125	-0,028
-573,948	800,000	0,029	-0,066
-572,934	261,861	0,030	-0,038
-571,919	-200,000	0,006	-0,066
-570,904	-67,363	-0,107	0,031
-569,890	-200,000	-0,008	-0,064
-568,875	-140,351	-0,019	0,001
-567,861	57,311	0,120	-0,086
-566,846	-200,000	-0,051	-0,175
-565,831	90,002	0,069	0,056
-564,817	800,000	-0,026	-0,064
-563,802	-16,929	-0,080	0,037
-562,788	800,000	-0,064	-0,150
-561,773	800,000	0,012	-0,033
-560,758	800,000	-0,026	0,054
-559,744	800,000	0,013	0,035
-558,729	65,408	0,036	-0,027
-557,715	-5,104	-0,114	-0,057
-556,700	77,563	-0,046	-0,036
-555,685	-74,337	-0,062	-0,016
-554,671	235,727	0,047	0,058
-553,656	69,178	0,068	-0,051
-552,642	184,330	0,077	0,084
-551,627	12,583	0,067	0,038
-550,612	-151,581	-0,153	0,008
-549,598	800,000	0,061	0,147
-548,583	-142,762	0,108	-0,008
-547,569	-107,190	-0,095	0,015
-546,554	492,436	0,022	0,036
-545,539	404,625	0,067	0,103
-544,525	41,631	0,113	-0,075
-543,510	-121,273	-0,064	-0,008
-542,496	800,000	-0,045	0,121
-541,481	-200,000	0,011	0,043
-540,466	334,833	0,040	-0,057
-539,452	-35,983	0,030	0,012
-538,437	541,815	-0,015	-0,026
-537,423	-200,000	-0,008	-0,030
-536,408	-111,679	0,064	-0,009
-535,393	507,682	-0,060	-0,102
-534,379	-200,000	0,003	-0,025
-533,364	-8,221	-0,087	0,043
-532,350	-64,657	0,067	-0,020
-531,335	-104,048	0,120	0,020
-530,321	-200,000	0,015	-0,108
-529,306	-200,000	-0,019	-0,075
-528,291	-200,000	-0,008	-0,086
-527,277	-20,538	-0,032	0,014
-526,262	-200,000	0,004	0,123
-525,248	-112,562	0,067	0,010
-524,233	-127,471	0,100	-0,011
-523,218	29,252	0,082	0,051
-522,204	607,661	0,037	0,069
-521,189	282,257	-0,061	-0,080
-520,175	460,048	-0,091	0,149
-519,160	703,052	0,033	0,064
-518,145	-90,028	-0,019	-0,004
-517,131	-200,000	-0,002	-0,063
-516,116	-42,985	0,094	0,035
-515,102	-200,000	-0,003	0,055
-514,087	4,505	-0,166	0,089
-513,072	-105,315	0,034	-0,006
-512,058	73,229	-0,088	-0,068
-511,043	281,424	-0,074	0,097
-510,029	109,393	-0,073	0,064
-509,014	800,000	0,038	0,099
-507,999	-96,426	-0,147	-0,028
-506,985	46,394	-0,162	0,110
-505,970	-138,405	-0,066	0,005
-504,956	-136,648	-0,176	0,015
-503,941	-200,000	0,005	-0,109
-502,926	324,814	0,054	-0,075
-501,912	-2,081	0,083	-0,043
-500,897	17,483	-0,069	-0,040
-499,883	-82,343	0,132	0,031
-498,868	212,923	0,083	-0,096
-497,853	-200,000	-0,016	-0,090
-496,839	386,545	-0,028	-0,043
-495,824	-200,000	0,006	0,159
-494,810	-0,659	-0,030	-0,015
-493,795	350,720	0,042	-0,061
-492,781	-100,589	0,095	0,017
-491,766	-56,428	0,252	-0,081
-490,751	800,000	-0,086	-0,208
-489,737	-123,037	0,082	-0,010
-488,722	445,213	-0,044	0,071
-487,708	800,000	0,013	-0,028
-486,693	-41,444	0,100	-0,038
-485,678	132,612	-0,116	-0,110
-484,664	800,000	0,022	0,056
-483,649	215,108	-0,059	-0,069
-482,635	724,447	0,059	-0,115
-481,620	-200,000	0,027	0,122
-480,605	269,243	0,034	-0,043
-479,591	-178,636	0,109	0,002
-478,576	-200,000	0,024	-0,093
-477,562	205,570	-0,101	-0,115
-476,547	-127,733	0,028	-0,003
-475,532	411,502	0,095	-0,148
-474,518	55,973	0,126	-0,089
-473,503	-200,000	-0,003	-0,073
-472,489	800,000	0,043	-0,109
-471,474	-200,000	0,011	-0,104
-470,459	62,958	-0,082	0,060
-469,445	198,627	-0,050	0,055
-468,430	136,031	0,059	-0,056
-467,416	94,875	-0,082	0,068
-466,401	32,496	0,096	0,060
-465,386	-70,154	-0,131	0,036
-464,372	-74,098	0,043	0,011
-463,357	302,497	-0,043	-0,058
-462,343	-200,000	-0,007	0,029
-461,328	128,706	0,043	-0,040
-460,313	389,824	0,045	0,068
-459,299	41,984	-0,121	0,080
-458,284	800,000	-0,020	-0,042
-457,270	-200,000	-0,002	-0,094
-456,255	-20,612	-0,034	-0,015
-455,241	4,446	-0,027	0,015
-454,226	-200,000	-0,022	-0,165
-453,211	-18,442	0,071	-0,032
-452,197	8,660	-0,015	0,008
-451,182	800,000	0,029	-0,072
-450,168	-26,265	-0,048	0,021
-449,153	-163,411	0,097	0,003
-448,138	-91,802	-0,126	0,026
-447,124	-29,104	-0,028	0,012
-446,109	611,093	-0,086	0,158
-445,095	-4,659	0,157	0,079
-444,080	-82,291	-0,108	0,025
-443,065	800,000	-0,071	-0,149
-442,051	800,000	0,013	0,040
-441,036	225,596	0,017	-0,020
-440,022	335,778	-0,079	0,112
-439,007	-32,261	-0,025	0,010
-437,992	116,651	-0,035	0,032
-436,978	-19,130	0,041	0,019
-435,963	-116,942	-0,063	0,008
-434,949	243,190	0,047	-0,057
-433,934	800,000	0,043	0,097
-432,919	-97,455	0,075	0,014
-431,905	-200,000	0,027	0,207
-430,890	-70,995	0,152	0,041
-429,876	800,000	-0,002	-0,004
-428,861	800,000	-0,094	0,209
-427,846	6,008	-0,061	0,033
-426,832	597,691	0,066	-0,119
-425,817	-30,840	-0,081	-0,033
-424,803	-6,025	-0,088	-0,044
-423,788	179,933	0,146	-0,156
-422,773	95,430	0,067	0,056
-421,759	-200,000	0,019	0,089
-420,744	800,000	0,004	-0,009
-419,730	48,827	-0,129	-0,088
-418,715	116,408	0,039	0,035
-417,701	-200,000	0,016	-0,130
-416,686	800,000	-0,013	-0,027
-415,671	-160,057	0,057	0,002
-414,657	-102,678	0,123	0,021
-413,642	-2,530	0,056	-0,028
-412,628	800,000	-0,055	0,140
-411,613	-36,746	-0,093	0,036
-410,598	-5,614	-0,162	0,080
-409,584	-200,000	0,030	-0,155
-408,569	-27,787	0,081	0,034
-407,555	171,568	-0,104	0,109
-406,540	-97,724	-0,105	-0,020
-405,525	26,713	0,070	0,043
-404,511	-26,140	0,011	0,005
-403,496	-200,000	-0,022	0,076
-402,482	454,063	0,036	0,059
-401,467	150,573	0,169	0,167
-400,452	358,977	0,125	0,183
-399,438	-200,000	-0,013	-0,072
-398,423	-200,000	-0,030	-0,101
-397,409	217,553	0,044	-0,051
-396,394	66,928	-0,123	-0,091
-395,379	531,020	0,034	0,059
-394,365	2,764	0,105	-0,055
-393,350	-45,683	-0,138	0,049
-392,336	132,795	-0,040	0,038
-391,321	166,796	0,065	0,067
-390,306	-200,000	0,002	-0,063
-389,292	-200,000	-0,022	-0,076
-388,277	-200,000	-0,023	-0,144
-387,263	-40,165	0,054	0,020
-386,248	-200,000	0,012	0,065
-385,233	-200,000	-0,010	0,038
-384,219	122,217	-0,035	-0,032
-383,204	-200,000	0,007	0,036
-382,190	471,640	-0,080	0,132
-381,175	83,093	0,049	0,039
-380,160	203,541	-0,017	0,019
-379,146	-35,472	0,100	0,039
-378,131	800,000	0,026	0,076
-377,117	800,000	0,035	0,082
-376,102	-200,000	-0,034	-0,208
-375,088	-125,108	-0,063	0,007
-374,073	71,078	-0,097	-0,073
-373,058	-105,582	0,026	0,004
-372,044	83,196	0,089	0,070
-371,029	-200,000	0,028	0,119
-370,015	-87,921	-0,160	0,035
-369,000	-133,304	-0,096	-0,009
-367,985	-56,071	0,201	0,065
-366,971	-80,597	0,079	-0,019
-365,956	-144,747	-0,032	-0,002
-364,942	-68,306	0,095	0,027
-363,927	-33,521	-0,116	-0,046
-362,912	-167,092	0,068	-0,002
-361,898	65,494	0,087	0,064
-360,883	800,000	0,027	-0,084
-359,869	-113,520	0,136	-0,019
-358,854	160,900	-0,019	-0,019
-357,839	347,812	0,062	0,089
-356,825	558,091	-0,051	0,090
-355,810	-111,306	0,081	0,012
-354,796	-200,000	0,026	-0,131
-353,781	-76,368	-0,072	0,018
-352,766	-31,833	0,076	-0,031
-351,752	101,038	0,023	-0,019
-350,737	-200,000	0,020	0,164
-349,723	162,221	0,100	0,102
-348,708	57,286	-0,067	0,047
-347,693	376,834	0,040	-0,060
-346,679	6,119	0,023	-0,012
-345,664	-200,000	-0,027	0,094
-344,650	-2,306	-0,072	0,036
-343,635	97,260	0,097	0,081
-342,620	-200,000	0,038	0,140
-341,606	800,000	-0,006	-0,013
-340,591	-71,313	-0,110	0,030
-339,577	256,959	-0,047	0,058
-338,562	-57,778	-0,098	0,031
-337,548	800,000	0,025	0,071
-336,533	286,377	-0,060	0,079
-335,518	800,000	-0,022	0,053
-334,504	-200,000	-0,015	0,115
-333,489	800,000	-0,041	0,101
-332,475	324,839	-0,035	0,048
-331,460	64,073	0,025	0,018
-330,445	508,700	0,082	-0,139
-329,431	16,782	-0,129	-0,074
-328,416	232,905	-0,084	-0,100
-327,402	151,470	-0,027	0,027
-326,387	-200,000	0,015	-0,059
-325,372	346,968	0,020	0,028
-324,358	-57,013	0,143	0,046
-323,343	131,147	0,038	-0,035
-322,329	222,744	0,072	-0,084
-321,314	-22,796	-0,011	0,005
-320,299	-41,772	0,106	0,039
-319,285	330,589	0,085	-0,119
-318,270	-81,307	0,067	0,016
-317,256	-112,362	-0,090	-0,013
-316,241	800,000	0,026	-0,072
-315,226	-2,320	-0,061	-0,031
-314,212	-28,102	0,036	0,015
-313,197	-200,000	-0,016	0,084
-312,183	17,212	-0,097	0,056
-311,168	-200,000	0,023	-0,097
-310,153	157,960	0,081	-0,081
-309,139	4,807	0,011	-0,006
-308,124	304,330	0,107	0,144
-307,110	9,778	0,094	0,051
-306,095	3,063	-0,105	0,055
-305,080	301,148	-0,092	-0,123
-304,066	467,914	-0,017	-0,027
-303,051	-200,000	0,017	-0,067
-302,037	576,572	-0,005	-0,010
-301,022	5,926	-0,111	0,059
-300,008	-118,341	0,014	0,002
-298,993	-94,455	0,037	-0,007
-297,978	-9,388	0,039	0,019
-296,964	326,327	0,032	0,045
-295,949	-10,914	-0,114	0,054
-294,935	-200,000	-0,021	0,124
-293,920	-200,000	0,003	0,077
-292,905	-200,000	-0,022	0,125
-291,891	-200,000	-0,005	-0,021
-290,876	-200,000	0,004	0,056
-289,862	-81,372	0,062	0,015
-288,847	-153,414	0,032	0,002
-287,832	-62,837	0,055	-0,016
-286,818	-200,000	0,005	-0,050
-285,803	528,155	-0,036	-0,062
-284,789	800,000	0,007	0,017
-283,774	34,545	0,021	-0,013
-282,759	-95,790	0,111	-0,021
-281,745	464,062	-0,073	0,118
-280,730	170,327	0,067	0,069
-279,716	86,028	-0,087	0,070
-278,701	800,000	0,043	0,099
-277,686	-200,000	-0,022	0,074
-276,672	71,517	0,093	-0,070
-275,657	-122,199	-0,036	-0,004
-274,643	-200,000	-0,002	-0,104
-273,628	-200,000	-0,009	-0,128
-272,613	800,000	0,039	-0,102
-271,599	800,000	-0,016	0,038
-270,584	8,332	0,038	0,020
-269,570	-114,668	-0,046	-0,006
-268,555	420,767	0,056	0,087
-267,540	-185,277	-0,116	0,001
-266,526	-7,241	0,036	0,018
-265,511	785,718	-0,045	0,090
-264,497	89,031	-0,025	0,020
-263,482	-200,000	-0,008	-0,053
-262,467	-108,972	0,058	-0,009
-261,453	48,108	0,038	-0,026
-260,438	-200,000	0,006	-0,059
-259,424	234,746	0,034	0,041
-258,409	0,395	-0,136	-0,070
-257,395	-200,000	0,014	-0,125
-256,380	201,853	0,026	-0,029
-255,365	62,664	0,040	-0,029
-254,351	-200,000	-0,023	-0,133
-253,336	4,306	0,092	0,049
-252,322	381,539	0,045	0,067
-251,307	-74,399	-0,120	0,031
-250,292	74,983	-0,041	0,031
-249,278	-57,972	0,035	0,011
-248,263	800,000	-0,015	0,042
-247,249	-37,319	0,041	-0,016
-246,234	84,227	-0,051	-0,040
-245,219	-200,000	0,003	-0,108
-244,205	-200,000	-0,009	0,068
-243,190	-200,000	0,011	-0,046
-242,176	-72,091	0,056	-0,015
-241,161	160,880	0,041	-0,041
-240,146	-14,048	0,099	-0,046
-239,132	159,274	-0,073	0,073
-238,117	-200,000	-0,003	-0,055
-237,103	-44,634	0,057	-0,020
-236,088	223,617	-0,060	-0,071
-235,073	-200,000	-0,012	0,050
-234,059	-63,676	-0,166	-0,049
-233,044	355,669	-0,047	-0,068
-232,030	114,836	-0,079	0,070
-231,015	502,509	-0,021	-0,035
-230,000	-200,000	-0,029	-0,103
-228,986	-110,642	0,098	0,015
-227,971	-137,408	0,131	-0,011
-226,957	-200,000	-0,054	-0,198
-225,942	-27,208	0,058	0,024
-224,927	695,254	0,044	0,084
-223,913	60,731	-0,157	0,112
-222,898	178,354	-0,102	-0,108
-221,884	265,161	0,081	-0,103
-220,869	-115,814	0,117	0,016
-219,855	188,382	0,027	0,029
-218,840	-61,674	-0,128	-0,038
-217,825	800,000	0,013	-0,028
-216,811	-27,411	-0,079	0,033
-215,796	22,389	-0,048	0,028
-214,782	408,705	-0,095	-0,146
-213,767	800,000	0,038	-0,077
-212,752	800,000	0,013	-0,029
-211,738	800,000	-0,059	0,130
-210,723	-200,000	0,037	0,117
-209,709	640,227	0,086	0,158
-208,694	318,731	-0,070	0,095
-207,679	-132,555	0,134	0,012
-206,665	-73,708	0,114	-0,030
-205,650	800,000	-0,025	0,079
-204,636	-200,000	0,002	0,033
-203,621	-46,827	0,046	-0,016
-202,606	-200,000	0,021	-0,075
-201,592	-200,000	-0,032	-0,119
-200,577	62,487	-0,018	-0,013
-199,563	498,814	-0,069	0,116
-198,548	218,098	0,030	0,034
-197,533	-28,857	-0,024	-0,010
-196,519	-200,000	0,017	0,139
-195,504	598,035	0,057	-0,102
-194,490	278,768	-0,025	-0,033
-193,475	-5,129	0,067	-0,033
-192,460	50,879	0,083	0,057
-191,446	-200,000	0,011	0,078
-190,431	88,464	0,027	0,022
-189,417	-200,000	-0,078	-0,000
-188,402	-70,532	-0,055	0,015
-187,387	800,000	-0,014	-0,034
-186,373	-138,173	-0,035	-0,003
-185,358	588,020	-0,051	-0,090
-184,344	800,000	0,087	0,180
-183,329	-97,277	-0,082	0,015
-182,315	-200,000	-0,025	0,153
-181,300	-112,005	-0,209	0,030
-180,285	244,550	-0,026	-0,031
-179,271	-200,000	-0,021	-0,090
-178,256	208,991	-0,094	-0,106
-177,242	710,968	0,027	0,051
-176,227	710,335	0,028	0,054
-175,212	-155,739	0,080	-0,004
-174,198	800,000	0,042	0,090
-173,183	-200,000	0,068	-0,226
-172,169	192,388	-0,054	0,059
-171,154	800,000	0,006	0,013
-170,139	42,324	0,019	0,012
-169,125	222,112	0,017	0,020
-168,110	-200,000	0,022	0,163
-167,096	-14,028	0,072	0,033
-166,081	219,838	0,045	-0,052
-165,066	28,795	-0,123	-0,075
-164,052	-200,000	0,005	-0,023
-163,037	-80,045	0,015	-0,004
-162,023	-200,000	-0,008	0,034
-161,008	545,294	0,075	0,130
-159,993	-200,000	0,010	0,037
-158,979	22,882	-0,040	-0,023
-157,964	-64,630	-0,039	0,011
-156,950	-127,006	0,114	0,012
-155,935	-90,472	-0,115	-0,024
-154,920	363,536	0,042	-0,060
-153,906	-45,034	0,142	-0,051
-152,891	152,887	-0,074	-0,073
-151,877	743,261	-0,014	-0,027
-150,862	685,623	-0,051	0,097
-149,847	800,000	-0,014	-0,036
-148,833	-43,895	-0,024	0,009
-147,818	36,727	-0,072	0,046
-146,804	-200,000	-0,010	-0,086
-145,789	-36,395	0,082	0,032
-144,775	-7,929	-0,205	0,099
-143,760	191,488	0,048	-0,052
-142,745	6,334	-0,149	0,079
-141,731	107,626	0,082	0,070
-140,716	-200,000	0,000	0,003
-139,702	24,104	0,155	0,092
-138,687	321,295	-0,059	0,082
-137,672	-145,376	-0,076	0,005
-136,658	118,612	0,116	-0,103
-135,643	-38,121	-0,045	0,017
-134,629	800,000	0,026	0,068
-133,614	-142,563	0,138	0,010
-132,599	587,368	-0,031	-0,056
-131,585	-70,624	0,187	0,050
-130,570	425,437	0,046	0,072
-129,556	-200,000	0,003	0,019
-128,541	-28,030	-0,074	0,031
-127,526	11,469	-0,060	0,033
-126,512	669,970	-0,035	0,065
-125,497	-13,868	-0,075	0,035
-124,483	-64,306	0,004	-0,001
-123,468	-200,000	0,051	0,200
-122,453	-28,593	0,070	0,029
-121,439	224,862	-0,019	-0,022
-120,424	215,136	-0,101	0,115
-119,410	185,054	0,133	0,142
-118,395	122,737	-0,046	0,042
-117,380	-200,000	-0,045	-0,151
-116,366	-200,000	-0,010	0,050
-115,351	30,815	0,051	0,031
-114,337	-68,217	-0,008	0,002
-113,322	-200,000	0,013	0,099
-112,307	215,891	-0,050	0,057
-111,293	506,272	0,028	0,048
-110,278	666,424	-0,048	0,090
-109,264	97,866	0,114	-0,094
-108,249	177,871	-0,059	0,062
-107,234	-200,000	-0,012	-0,078
-106,220	43,325	0,048	0,031
-105,205	-200,000	0,008	0,085
-104,191	514,870	0,031	0,052
-103,176	-200,000	-0,003	-0,034
-102,162	-200,000	0,029	0,100
-101,147	557,423	0,058	-0,102
-100,132	800,000	0,053	-0,134
-99,118	209,098	-0,044	-0,049
-98,103	-61,895	-0,030	-0,009
-97,089	-77,696	0,089	0,022
-96,074	363,104	0,080	0,115
-95,059	-200,000	0,003	0,090
-94,045	-39,601	-0,008	-0,003
-93,030	-200,000	-0,005	-0,081
-92,016	-48,085	-0,084	-0,029
-91,001	-4,156	-0,125	0,062
-89,986	-200,000	-0,059	0,188
-88,972	-200,000	0,002	0,021
-87,957	226,270	0,059	0,068
-86,943	-200,000	0,025	0,093
-85,928	134,688	-0,101	-0,094
-84,913	-23,850	0,054	0,023
-83,899	-172,613	0,100	-0,002
-82,884	7,508	0,044	0,024
-81,870	84,698	0,097	-0,077
-80,855	100,785	0,042	-0,035
-79,840	-200,000	-0,001	0,075
-78,826	-47,879	0,046	0,016
-77,811	224,168	-0,056	0,065
-76,797	-166,084	-0,039	0,001
-75,782	-32,891	-0,126	0,050
-74,767	51,076	-0,015	-0,010
-73,753	38,817	0,135	0,086
-72,738	362,490	0,079	0,114
-71,724	515,771	0,043	-0,072
-70,709	-141,258	-0,206	-0,015
-69,694	-1,076	0,145	-0,073
-68,680	-9,451	0,275	0,131
-67,665	405,007	0,075	0,113
-66,651	101,908	-0,159	0,133
-65,636	-24,084	0,101	-0,043
-64,622	-200,000	-0,015	-0,063
-63,607	800,000	0,006	-0,015
-62,592	-72,690	-0,035	-0,009
-61,578	-200,000	0,025	-0,156
-60,563	-110,542	0,057	-0,008
-59,549	549,173	-0,062	0,107
-58,534	1,422	-2,094	-1,077
-57,519	-200,000	-0,241	-0,890
-56,505	-200,000	-1,362	-5,056
-55,490	89,667	0,785	0,628
-54,476	800,000	5,295	12,057
-53,461	-200,000	18,007	296,525
-52,446	800,000	732,245	2257,172
-51,432	542,077	1649,033	2831,823
-50,417	109,348	1637,567	1406,570
-49,403	74,316	1288,343	970,134
-48,388	31,092	1028,142	631,241
-47,373	20,106	990,144	571,647
-46,359	18,083	977,699	557,804
-45,344	14,939	973,804	545,264
-44,330	15,275	972,218	545,453
-43,315	14,739	970,097	542,493
-42,300	14,600	969,266	541,553
-41,286	14,630	968,361	541,123
-40,271	14,674	967,398	540,705
-39,257	14,670	966,256	540,032
-38,242	14,628	965,669	539,548
-37,227	14,683	964,871	539,259
-36,213	14,624	964,045	538,585
-35,198	14,628	962,971	537,976
-34,184	14,714	962,234	537,821
-33,169	14,629	961,215	536,955
-32,154	14,697	960,353	536,673
-31,140	14,631	959,463	535,940
-30,125	14,682	958,770	535,696
-29,111	14,601	957,909	534,932
-28,096	14,715	957,139	534,850
-27,082	14,704	956,478	534,423
-26,067	14,654	955,780	533,852
-25,052	14,692	954,985	533,507
-24,038	14,654	954,466	533,075
-23,023	14,689	953,678	532,725
-22,009	14,670	953,276	532,420
-20,994	14,634	952,437	531,814
-19,979	14,681	951,784	531,581
-18,965	14,687	951,149	531,221
-17,950	14,693	950,583	530,904
-16,936	14,578	950,147	530,271
-15,921	14,621	949,170	529,843
-14,906	14,599	948,320	529,278
-13,892	14,587	947,751	528,899
-12,877	14,553	947,202	528,464
-11,863	14,562	946,557	528,112
-10,848	14,501	946,124	527,656
-9,833	14,632	945,635	527,778
-8,819	14,636	945,061	527,451
-7,804	14,573	944,302	526,806
-6,790	14,536	943,729	526,347
-5,775	14,585	943,110	526,138
-4,760	14,592	942,465	525,778
-3,746	14,558	941,793	525,274
-2,731	14,427	941,127	524,468
-1,717	14,436	940,473	524,112
-0,702	14,447	940,012	523,869
0,313	14,196	939,351	523,497
1,327	17,360	937,086	532,161
2,342	26,293	793,200	474,102
3,356	22,880	458,396	268,746
4,371	-4,177	314,846	155,773
5,386	-8,189	296,666	142,699
6,400	-10,074	290,543	137,867
7,415	-10,364	288,075	136,398
8,429	-10,691	286,827	135,474
9,444	-10,761	285,762	134,890
10,459	-10,702	285,199	134,670
11,473	-10,596	284,490	134,426
12,488	-10,669	284,075	134,148
13,502	-10,706	283,590	133,871
14,517	-10,594	283,172	133,770
15,531	-10,581	282,588	133,495
16,546	-10,624	282,335	133,322
17,561	-10,468	281,909	133,259
18,575	-10,402	281,582	133,156
19,590	-10,557	281,223	132,826
20,604	-10,390	280,814	132,781
21,619	-10,659	280,506	132,365
22,634	-10,462	280,157	132,377
23,648	-10,712	279,896	132,003
24,663	-10,576	279,641	132,001
25,677	-10,557	279,443	131,913
26,692	-10,614	279,124	131,697
27,707	-10,477	278,878	131,700
28,721	-10,559	278,464	131,415
29,736	-10,531	278,352	131,377
30,750	-10,655	278,117	131,137
31,765	-10,641	277,705	130,944
32,780	-10,509	277,628	131,021
33,794	-10,641	277,354	130,755
34,809	-10,457	276,919	130,712
35,823	-10,570	276,759	130,518
36,838	-10,557	276,619	130,453
37,853	-10,724	276,230	130,100
38,867	-10,405	275,880	130,224
39,882	-10,548	275,790	130,036
40,896	-10,590	275,528	129,861
41,911	-10,597	275,291	129,731
42,926	-10,729	275,187	129,547
43,940	-10,592	274,668	129,419
44,955	-10,724	274,654	129,277
45,969	-10,561	274,238	129,222
46,984	-10,729	274,155	129,015
47,999	-10,981	273,797	128,600
49,013	-10,907	273,439	128,488
50,028	-11,316	273,295	128,029
51,042	-11,288	273,059	127,932
52,057	-11,176	272,680	127,847
53,071	-11,423	272,673	127,603
54,086	-11,184	272,433	127,701
55,101	-10,982	272,124	127,733
56,115	-10,841	272,094	127,838
57,130	-10,595	271,911	127,969
58,144	-10,549	271,628	127,866
59,159	-10,485	271,433	127,823
60,174	-10,500	271,184	127,680
61,188	-10,604	271,098	127,532
62,203	-10,486	270,881	127,527
63,217	-10,505	270,569	127,352
64,232	-10,519	270,365	127,232
65,247	-10,459	270,139	127,169
66,261	-10,468	269,940	127,055
67,276	-10,648	269,549	126,696
68,290	-10,887	269,420	126,405
69,305	-11,039	269,107	126,107
70,320	-10,911	268,977	126,152
71,334	-10,753	268,803	126,203
72,349	-10,509	268,415	126,233
73,363	-10,414	268,125	126,172
74,378	-10,483	268,093	126,083
75,393	-10,565	267,870	125,892
76,407	-10,515	267,697	125,845
77,422	-10,442	267,376	125,749
78,436	-10,383	267,210	125,714
79,451	-10,430	267,111	125,613
80,466	-10,576	266,724	125,287
81,480	-10,580	266,370	125,106
82,495	-10,468	266,211	125,122
83,509	-10,629	266,276	124,995
84,524	-10,643	265,791	124,744
85,539	-10,819	265,716	124,538
86,553	-10,708	265,464	124,509
87,568	-10,768	265,284	124,360
88,582	-10,654	265,025	124,330
89,597	-10,807	264,868	124,108
90,611	-10,502	264,621	124,256
91,626	-10,543	264,513	124,157
92,641	-10,493	264,320	124,100
93,655	-10,428	264,006	124,000
94,670	-10,552	263,983	123,867
95,684	-10,500	263,665	123,753
96,699	-10,562	263,510	123,613
97,714	-10,673	263,175	123,346
98,728	-10,745	263,046	123,210
99,743	-10,709	262,824	123,127
100,757	-10,623	262,538	123,059
101,772	-10,828	262,393	122,798
102,787	-10,552	262,202	122,943
103,801	-10,742	262,176	122,751
104,816	-10,518	261,962	122,838
105,830	-10,359	261,773	122,880
106,845	-10,352	261,349	122,676
107,860	-10,677	261,442	122,421
108,874	-10,541	261,187	122,411
109,889	-10,626	261,076	122,273
110,903	-10,549	260,586	122,101
111,918	-10,657	260,534	121,970
112,933	-10,599	260,337	121,918
113,947	-10,520	260,190	121,908
114,962	-10,454	259,991	121,862
115,976	-10,652	259,915	121,641
116,991	-10,304	259,428	121,708
118,006	-10,398	259,341	121,574
119,020	-10,345	259,131	121,512
120,035	-10,510	259,125	121,353
121,049	-10,465	258,864	121,259
122,064	-10,588	258,695	121,062
123,079	-10,516	258,518	121,031
124,093	-10,490	258,265	120,925
125,108	-10,567	258,129	120,782
126,122	-10,783	257,910	120,481
127,137	-10,785	257,338	120,201
128,151	-10,852	257,423	120,172
129,166	-10,536	257,330	120,392
130,181	-10,776	257,066	120,050
131,195	-10,913	256,840	119,814
132,210	-10,508	256,636	120,061
133,224	-10,517	256,596	120,023
134,239	-10,342	256,219	119,988
135,254	-10,283	255,939	119,898
136,268	-10,474	255,736	119,626
137,283	-10,667	255,549	119,361
138,297	-10,894	255,548	119,154
139,312	-10,948	255,274	118,968
140,327	-10,881	255,152	118,959
141,341	-10,544	255,132	119,229
142,356	-10,470	254,663	119,064
143,370	-10,514	254,569	118,972
144,385	-10,560	254,527	118,901
145,400	-10,274	254,301	119,031
146,414	-10,339	254,128	118,884
147,429	-10,388	254,049	118,794
148,443	-10,361	253,769	118,676
149,458	-10,217	253,522	118,673
150,473	-10,337	253,398	118,502
151,487	-10,456	253,219	118,306
152,502	-10,361	252,997	118,273
153,516	-10,414	252,811	118,130
154,531	-10,229	252,679	118,216
155,546	-10,339	252,332	117,949
156,560	-10,436	252,372	117,875
157,575	-10,420	252,029	117,717
158,589	-10,345	251,904	117,712
159,604	-10,235	251,586	117,646
160,619	-10,200	251,462	117,608
161,633	-10,323	251,418	117,473
162,648	-10,333	251,150	117,328
163,662	-10,432	251,137	117,227
164,677	-10,420	250,984	117,156
165,692	-10,282	250,720	117,140
166,706	-10,304	250,600	117,054
167,721	-10,286	250,362	116,948
168,735	-10,254	250,258	116,916
169,750	-10,297	250,123	116,805
170,764	-10,438	250,059	116,647
171,779	-10,275	249,862	116,682
172,794	-10,232	249,675	116,620
173,808	-10,247	249,297	116,421
174,823	-10,493	249,075	116,100
175,837	-10,980	248,944	115,620
176,852	-10,506	248,722	115,904
177,867	-10,263	248,609	116,045
178,881	-10,361	248,667	115,979
179,896	-10,497	248,279	115,674
180,910	-10,162	248,019	115,823
181,925	-10,237	248,011	115,745
182,940	-10,420	247,956	115,557
183,954	-10,501	247,785	115,400
184,969	-10,134	247,423	115,526
185,983	-10,367	247,406	115,313
186,998	-10,203	247,167	115,328
188,013	-10,365	247,041	115,125
189,027	-10,238	246,806	115,111
190,042	-10,300	246,580	114,944
191,056	-10,304	246,291	114,796
192,071	-10,191	246,338	114,900
193,086	-10,404	246,044	114,577
194,100	-10,419	245,832	114,455
195,115	-10,229	245,749	114,564
196,129	-10,427	245,644	114,341
197,144	-10,438	245,392	114,204
198,159	-10,379	245,154	114,132
199,173	-10,306	244,998	114,109
200,188	-10,479	244,842	113,884
201,202	-10,504	244,587	113,734
202,217	-10,674	244,357	113,478
203,232	-10,784	244,098	113,257
204,246	-10,649	244,161	113,387
205,261	-10,071	243,937	113,747
206,275	-11,119	243,621	112,731
207,290	-6,568	245,433	117,313
208,304	1,160	247,918	124,909
209,319	4,263	248,464	127,747
210,334	4,517	248,533	127,982
211,348	4,677	248,394	128,032
212,363	4,892	248,394	128,198
213,377	5,046	248,221	128,224
214,392	4,928	248,075	128,040
215,407	4,907	247,903	127,922
216,421	4,928	247,751	127,850
217,436	4,995	247,654	127,843
218,450	5,209	247,385	127,870
219,465	4,820	247,119	127,401
220,480	4,633	247,042	127,196
221,494	4,484	246,824	126,950
222,509	4,777	246,677	127,104
223,523	4,692	246,456	126,909
224,538	4,096	246,162	126,257
225,553	4,443	246,129	126,514
226,567	4,348	246,089	126,404
227,582	4,632	245,948	126,553
228,596	4,492	245,568	126,232
229,611	4,423	245,373	126,063
230,626	4,209	245,150	125,763
231,640	4,348	245,066	125,822
232,655	4,576	244,924	125,924
233,669	4,231	244,797	125,566
234,684	4,294	244,563	125,486
235,699	4,524	244,583	125,672
236,713	4,692	244,429	125,719
237,728	4,303	244,311	125,331
238,742	4,178	243,965	125,041
239,757	3,785	243,823	124,638
240,772	4,073	243,636	124,765
241,786	4,300	243,554	124,896
242,801	4,377	243,289	124,811
243,815	4,297	243,081	124,628
244,830	4,611	243,029	124,845
245,844	4,488	242,786	124,609
246,859	4,166	242,739	124,314
247,874	4,260	242,452	124,231
248,888	4,394	242,405	124,304
249,903	4,423	242,264	124,245
250,917	4,301	242,274	124,141
251,932	4,679	242,044	124,315
252,947	4,645	241,791	124,147
253,961	4,501	241,459	123,850
254,976	4,547	241,489	123,891
255,990	4,580	241,290	123,804
257,005	4,524	241,069	123,636
258,020	4,080	241,070	123,269
259,034	4,101	240,893	123,184
260,049	4,436	240,732	123,359
261,063	4,199	240,391	122,984
262,078	4,056	240,368	122,848
263,093	4,506	240,244	123,131
264,107	4,585	240,154	123,138
265,122	4,480	239,944	122,936
266,136	4,598	239,719	122,903
267,151	4,668	239,770	122,974
268,166	4,245	239,394	122,434
269,180	4,175	239,302	122,321
270,195	4,603	239,432	122,716
271,209	5,008	239,086	122,849
272,224	4,467	238,836	122,281
273,239	4,169	238,510	121,868
274,253	4,122	238,463	121,796
275,268	4,343	238,418	121,936
276,282	4,553	238,321	122,042
277,297	4,188	238,050	121,604
278,312	3,959	238,006	121,390
279,326	4,204	237,805	121,470
280,341	4,154	237,779	121,406
281,355	4,308	237,579	121,415
282,370	4,485	237,364	121,433
283,384	4,325	237,239	121,233
284,399	4,148	236,952	120,936
285,414	4,154	236,764	120,834
286,428	4,238	236,628	120,819
287,443	4,205	236,550	120,744
288,457	4,392	236,420	120,813
289,472	4,451	236,239	120,755
290,487	4,420	236,187	120,694
291,501	4,246	235,842	120,371
292,516	4,103	235,651	120,151
293,530	4,101	235,640	120,133
294,545	4,448	235,590	120,367
295,560	4,455	235,307	120,218
296,574	3,862	235,102	119,641
297,589	4,175	235,108	119,877
298,603	4,638	234,946	120,143
299,618	4,628	234,801	120,051
300,633	4,451	234,710	119,856
301,647	4,609	234,593	119,908
302,662	4,640	234,646	119,949
303,676	4,764	234,331	119,873
304,691	4,718	234,120	119,719
305,706	4,812	233,985	119,712
306,720	4,848	233,830	119,649
307,735	4,618	233,678	119,384
308,749	4,537	233,505	119,222
309,764	4,454	233,291	119,038
310,779	4,084	232,960	118,574
311,793	3,972	232,969	118,482
312,808	4,064	232,580	118,344
313,822	3,942	232,379	118,137
314,837	3,733	232,417	117,986
315,852	4,409	232,395	118,483
316,866	4,683	232,359	118,665
317,881	4,959	232,153	118,760
318,895	4,559	232,038	118,384
319,910	4,655	231,877	118,365
320,925	4,251	231,468	117,837
321,939	3,749	231,505	117,461
322,954	4,425	231,568	117,999
323,968	4,509	231,270	117,902
324,983	4,594	231,261	117,952
325,997	4,525	231,113	117,813
327,012	4,646	230,912	117,792
328,027	4,500	230,680	117,552
329,041	4,797	230,594	117,724
330,056	5,149	230,524	117,945
331,070	5,099	230,353	117,809
332,085	4,732	230,189	117,436
333,100	4,414	229,987	117,081
334,114	4,533	229,718	117,024
335,129	4,947	229,707	117,322
336,143	4,817	229,609	117,163
337,158	4,724	229,538	117,046
338,173	4,615	229,121	116,740
339,187	4,353	229,052	116,497
340,202	4,577	228,949	116,603
341,216	4,581	228,878	116,560
342,231	4,325	228,638	116,235
343,246	4,097	228,461	115,962
344,260	4,473	228,475	116,241
345,275	4,775	228,304	116,372
346,289	4,630	228,146	116,172
347,304	4,859	228,061	116,290
348,319	4,712	227,878	116,076
349,333	4,521	227,707	115,836
350,348	4,163	227,526	115,465
351,362	4,359	227,247	115,460
352,377	4,172	226,987	115,178
353,392	3,896	226,902	114,918
354,406	4,377	226,830	115,230
355,421	194,201	1321,029	1393,249
356,435	155,644	1454,313	1393,231
