DTS Sentinel unit serial number:	SN410029Multiplexer serial number:	ORYXHardware model number:	OX2-SRSoftware version number:	ORYX F/W v4,00 Oryx Data Collector v3.7.2.0data status	okinstallation	B5 Nyhavnadifferential loss correction	single-endedforward channel	channel 2reverse channel	N/Adate	2023/12/13time	16:52:14forward acquisition time	300,00reverse acquisition time	0,00gamma	499,1914k internal	0,3159k external	0,3159temperature offset calibration	1,0000default loss term (dB/km)	0,3820temperature slope calibration	1,0000multiplexer offset coefficient	1,0000multiplexer slope coefficient	1,0000fibre end	0,00T internal ref (°C)	14,42T ext. ref 1 (°C)	-2,79T ext. ref 2 (°C)	-2,86length (m)	temperature (°C)	Stokes	anti-Stokes-744,400	-28,451	0,104	-0,044
-743,385	-132,270	-0,352	-0,033
-742,371	647,949	0,057	0,107
-741,356	-144,567	-0,404	0,027
-740,342	78,654	0,309	0,244
-739,327	-4,676	-0,138	-0,070
-738,312	800,000	-0,025	-0,064
-737,298	-60,998	-0,316	-0,098
-736,283	-29,341	0,230	0,096
-735,269	-59,872	-0,299	0,094
-734,254	-144,826	0,071	-0,005
-733,239	-43,924	-0,317	-0,117
-732,225	10,472	0,245	-0,137
-731,210	-61,963	-0,105	-0,032
-730,196	-142,897	-0,085	0,006
-729,181	-200,000	0,009	-0,073
-728,167	-200,000	-0,010	-0,074
-727,152	311,278	0,032	0,044
-726,137	97,178	-0,096	-0,081
-725,123	148,803	-0,105	-0,104
-724,108	-200,000	0,005	-0,075
-723,094	733,102	-0,089	-0,176
-722,079	56,607	0,020	0,014
-721,064	42,238	-0,054	-0,036
-720,050	74,643	0,117	-0,091
-719,035	359,726	0,071	0,105
-718,021	-109,539	-0,109	-0,017
-717,006	-184,134	-0,028	-0,000
-715,991	113,224	-0,170	-0,152
-714,977	-200,000	0,001	0,019
-713,962	-23,214	-0,002	0,001
-712,948	-200,000	-0,006	0,031
-711,933	-200,000	-0,014	-0,046
-710,918	-200,000	-0,004	0,123
-709,904	37,398	-0,053	-0,034
-708,889	800,000	0,055	0,115
-707,875	17,102	-0,164	-0,095
-706,860	11,552	0,071	-0,040
-705,845	-29,939	0,134	0,056
-704,831	72,674	0,055	-0,042
-703,816	800,000	-0,032	-0,066
-702,802	-109,742	-0,138	-0,021
-701,787	800,000	-0,006	0,019
-700,772	-200,000	-0,017	-0,073
-699,758	800,000	-0,033	-0,070
-698,743	-3,317	-0,045	0,023
-697,729	800,000	0,040	0,106
-696,714	-128,714	-0,108	0,011
-695,699	557,718	-0,015	-0,026
-694,685	-200,000	0,030	-0,162
-693,670	-55,734	-0,071	-0,023
-692,656	-200,000	-0,018	0,068
-691,641	-102,878	0,092	-0,016
-690,627	-46,464	-0,071	-0,025
-689,612	-200,000	-0,017	0,183
-688,597	116,800	-0,124	0,112
-687,583	-127,663	-0,145	-0,015
-686,568	-151,243	-0,070	0,004
-685,554	-79,377	0,089	-0,022
-684,539	-80,669	-0,049	-0,012
-683,524	-200,000	0,004	-0,085
-682,510	-77,814	0,185	0,047
-681,495	-99,228	-0,037	-0,007
-680,481	800,000	-0,024	-0,075
-679,466	587,968	-0,071	-0,129
-678,451	-72,036	-0,040	-0,011
-677,437	-44,465	0,099	-0,036
-676,422	-71,789	-0,089	-0,024
-675,408	-200,000	-0,006	0,027
-674,393	-136,385	-0,112	-0,009
-673,378	-200,000	-0,009	0,036
-672,364	-17,041	-0,041	-0,019
-671,349	11,542	-0,068	-0,038
-670,335	22,864	0,023	-0,014
-669,320	309,400	-0,016	-0,022
-668,305	9,353	-0,087	-0,048
-667,291	-140,155	-0,146	0,011
-666,276	-200,000	0,020	0,069
-665,262	158,198	-0,052	-0,053
-664,247	55,743	-0,020	-0,014
-663,232	172,849	0,083	-0,088
-662,218	279,897	0,057	0,075
-661,203	-200,000	-0,017	0,102
-660,189	-200,000	0,005	0,048
-659,174	131,893	-0,045	0,042
-658,159	-167,477	-0,233	-0,007
-657,145	51,866	0,111	-0,078
-656,130	-200,000	-0,007	0,050
-655,116	-5,745	0,076	0,038
-654,101	-200,000	-0,014	-0,161
-653,086	212,633	-0,062	-0,071
-652,072	-200,000	-0,020	-0,089
-651,057	62,566	-0,086	-0,063
-650,043	146,269	0,048	-0,047
-649,028	86,187	-0,046	0,037
-648,014	-92,552	-0,087	0,018
-646,999	-65,269	-0,103	0,030
-645,984	-51,932	-0,099	0,034
-644,970	64,732	-0,099	0,073
-643,955	85,850	-0,096	0,078
-642,941	-200,000	-0,013	-0,100
-641,926	234,443	-0,063	-0,076
-640,911	-200,000	0,028	0,183
-639,897	74,727	0,147	0,114
-638,882	-200,000	0,013	-0,059
-637,868	65,525	-0,048	0,036
-636,853	-200,000	0,003	-0,028
-635,838	800,000	0,042	-0,135
-634,824	800,000	0,023	-0,058
-633,809	362,887	0,013	-0,020
-632,795	542,036	-0,029	0,051
-631,780	-100,364	0,056	-0,010
-630,765	-19,440	-0,046	0,021
-629,751	596,025	0,038	0,069
-628,736	308,720	0,065	0,089
-627,722	564,725	0,011	-0,019
-626,707	800,000	-0,045	-0,125
-625,692	-200,000	-0,026	0,103
-624,678	-41,988	0,053	0,020
-623,663	-200,000	-0,004	-0,049
-622,649	114,727	-0,061	-0,054
-621,634	-200,000	0,016	-0,154
-620,619	182,022	0,051	0,055
-619,605	-200,000	0,014	-0,062
-618,590	22,662	0,032	0,019
-617,576	-102,432	-0,094	-0,016
-616,561	800,000	-0,031	0,081
-615,546	169,322	0,076	-0,080
-614,532	28,587	0,044	-0,027
-613,517	69,494	-0,076	-0,058
-612,503	-200,000	-0,007	-0,027
-611,488	101,934	0,079	-0,067
-610,474	693,307	-0,004	-0,008
-609,459	-200,000	-0,020	0,085
-608,444	416,637	-0,057	-0,090
-607,430	375,794	-0,102	-0,153
-606,415	-200,000	-0,031	-0,121
-605,401	256,424	0,060	0,075
-604,386	-200,000	0,020	-0,080
-603,371	25,911	0,055	0,033
-602,357	388,034	-0,038	0,058
-601,342	-200,000	0,006	0,063
-600,328	-200,000	0,027	-0,165
-599,313	-200,000	0,010	-0,078
-598,298	-98,473	-0,049	0,009
-597,284	-200,000	-0,008	0,042
-596,269	-173,746	0,053	-0,001
-595,255	-163,183	-0,041	-0,001
-594,240	-200,000	0,009	-0,037
-593,225	-63,297	-0,059	-0,018
-592,211	120,128	-0,053	-0,048
-591,196	201,742	-0,042	0,048
-590,182	800,000	0,046	-0,112
-589,167	-200,000	-0,030	0,125
-588,152	-83,734	-0,176	0,041
-587,138	-96,412	-0,086	-0,017
-586,123	614,464	-0,077	-0,143
-585,109	422,588	0,058	-0,092
-584,094	-29,305	-0,083	-0,035
-583,079	-160,609	-0,102	-0,004
-582,065	-200,000	0,046	0,193
-581,050	74,863	0,078	0,060
-580,036	18,335	-0,172	0,100
-579,021	-200,000	-0,039	-0,142
-578,006	-200,000	-0,050	-0,184
-576,992	69,575	-0,087	-0,065
-575,977	-43,803	-0,043	-0,016
-574,963	-200,000	-0,009	0,031
-573,948	-41,126	-0,080	0,030
-572,934	508,888	0,075	-0,129
-571,919	800,000	-0,039	-0,084
-570,904	-128,803	0,098	-0,010
-569,890	625,507	-0,041	0,077
-568,875	-147,655	-0,023	-0,001
-567,861	72,771	0,075	-0,057
-566,846	110,099	0,044	0,039
-565,831	-173,353	-0,077	-0,002
-564,817	32,841	-0,046	-0,029
-563,802	-17,767	-0,075	0,034
-562,788	49,335	0,006	0,004
-561,773	142,666	-0,113	-0,110
-560,758	-64,143	0,034	0,010
-559,744	-200,000	-0,031	0,155
-558,729	328,924	-0,034	0,048
-557,715	-57,667	-0,152	0,049
-556,700	800,000	-0,066	-0,151
-555,685	-163,847	-0,066	0,002
-554,671	-200,000	0,002	0,103
-553,656	-7,778	0,049	0,024
-552,642	93,879	-0,017	-0,014
-551,627	334,499	0,054	0,076
-550,612	68,374	-0,067	-0,050
-549,598	396,073	-0,061	0,093
-548,583	-200,000	0,011	-0,075
-547,569	-200,000	0,008	0,073
-546,554	-126,786	0,153	-0,016
-545,539	-200,000	-0,015	-0,102
-544,525	131,450	-0,054	0,051
-543,510	14,167	0,122	-0,069
-542,496	-143,983	-0,148	0,010
-541,481	377,137	-0,071	-0,107
-540,466	-28,407	0,056	0,024
-539,452	-200,000	0,000	0,069
-538,437	800,000	-0,053	0,149
-537,423	-140,222	0,091	0,007
-536,408	124,497	-0,052	-0,048
-535,393	350,840	0,050	0,073
-534,379	79,468	-0,052	0,041
-533,364	32,225	0,070	-0,044
-532,350	-3,119	0,066	-0,034
-531,335	-200,000	0,027	-0,103
-530,321	60,422	0,122	0,088
-529,306	-15,036	-0,031	0,014
-528,291	350,062	0,012	0,018
-527,277	-61,186	-0,169	-0,052
-526,262	-167,605	0,094	0,003
-525,248	-102,525	0,068	-0,012
-524,233	800,000	-0,069	0,155
-523,218	68,937	-0,004	0,003
-522,204	663,940	0,100	0,190
-521,189	210,582	-0,047	-0,054
-520,175	24,640	-0,070	-0,042
-519,160	45,440	0,118	-0,080
-518,145	-156,743	0,058	0,003
-517,131	66,608	0,076	-0,056
-516,116	237,512	-0,095	0,115
-515,102	13,716	-0,101	0,057
-514,087	-61,336	-0,091	0,028
-513,072	610,395	0,051	-0,093
-512,058	36,957	-0,153	-0,099
-511,043	-200,000	-0,030	-0,114
-510,029	-175,354	0,122	-0,002
-509,014	458,472	-0,052	0,085
-507,999	-200,000	-0,033	0,149
-506,985	-192,744	-0,141	-0,001
-505,970	168,407	0,066	-0,068
-504,956	556,567	0,071	-0,125
-503,941	-200,000	0,014	0,052
-502,926	353,405	0,050	-0,072
-501,912	644,446	0,058	0,109
-500,897	330,451	0,059	0,083
-499,883	619,809	0,028	0,051
-498,868	800,000	-0,054	-0,144
-497,853	-70,213	-0,041	0,011
-496,839	64,870	-0,041	-0,030
-495,824	800,000	-0,036	-0,083
-494,810	696,113	0,050	0,096
-493,795	-5,639	-0,042	0,021
-492,781	-200,000	0,013	-0,147
-491,766	545,048	0,041	-0,072
-490,751	-200,000	0,006	0,024
-489,737	409,695	0,076	-0,117
-488,722	630,373	-0,037	-0,068
-487,708	800,000	0,023	-0,072
-486,693	288,458	-0,047	-0,063
-485,678	-200,000	-0,019	-0,147
-484,664	74,860	-0,126	-0,097
-483,649	109,192	-0,018	-0,015
-482,635	-200,000	0,005	0,088
-481,620	82,553	0,086	0,068
-480,605	-67,468	-0,125	0,035
-479,591	409,051	0,029	-0,045
-478,576	611,724	0,070	0,129
-477,562	-91,092	0,070	-0,014
-476,547	79,155	-0,045	-0,035
-475,532	2,023	0,128	-0,067
-474,518	-200,000	0,007	0,084
-473,503	-200,000	-0,029	-0,101
-472,489	-200,000	-0,024	-0,108
-471,474	8,558	-0,066	-0,036
-470,459	170,667	-0,051	0,053
-469,445	-18,623	-0,161	0,073
-468,430	72,499	-0,037	0,028
-467,416	-200,000	0,005	-0,138
-466,401	-127,712	0,024	0,003
-465,386	480,132	0,140	-0,233
-464,372	-14,861	-0,057	0,027
-463,357	-87,730	-0,107	0,023
-462,343	-67,814	0,124	0,035
-461,328	42,368	-0,051	-0,033
-460,313	28,859	0,060	0,037
-459,299	44,396	-0,048	0,032
-458,284	-200,000	0,003	0,088
-457,270	-200,000	-0,017	-0,118
-456,255	-9,715	-0,080	-0,039
-455,241	24,781	-0,092	-0,055
-454,226	74,941	0,072	-0,055
-453,211	800,000	-0,028	-0,078
-452,197	-79,487	0,125	-0,031
-451,182	-200,000	-0,017	0,207
-450,168	-200,000	0,004	0,053
-449,153	-200,000	-0,002	0,019
-448,138	-179,645	-0,080	-0,001
-447,124	-200,000	0,032	0,182
-446,109	246,595	-0,004	-0,005
-445,095	-200,000	0,002	0,048
-444,080	356,964	0,055	0,079
-443,065	-77,973	0,129	-0,032
-442,051	-200,000	0,031	-0,120
-441,036	-102,732	-0,090	-0,015
-440,022	-200,000	-0,027	0,110
-439,007	-200,000	-0,016	-0,117
-437,992	-200,000	-0,009	0,120
-436,978	-65,281	0,040	-0,012
-435,963	420,740	0,055	0,086
-434,949	-200,000	0,022	0,170
-433,934	800,000	0,023	-0,053
-432,919	444,102	0,044	-0,070
-431,905	97,764	0,021	0,017
-430,890	453,951	0,096	0,155
-429,876	-5,712	0,132	-0,066
-428,861	800,000	-0,024	0,049
-427,846	-200,000	-0,002	0,098
-426,832	232,890	-0,032	-0,039
-425,817	800,000	0,021	-0,057
-424,803	142,481	-0,110	-0,107
-423,788	-200,000	-0,014	0,075
-422,773	-200,000	-0,003	0,070
-421,759	-200,000	0,030	0,162
-420,744	-44,237	0,084	-0,030
-419,730	434,710	-0,044	0,070
-418,715	-48,006	0,111	0,039
-417,701	-200,000	0,002	0,122
-416,686	133,723	0,101	0,095
-415,671	-200,000	-0,008	0,070
-414,657	-200,000	0,002	0,017
-413,642	638,976	-0,036	-0,067
-412,628	190,204	-0,137	-0,150
-411,613	73,679	-0,051	-0,039
-410,598	229,721	0,073	-0,087
-409,584	-85,197	0,091	-0,020
-408,569	39,518	-0,061	-0,040
-407,555	694,111	0,045	0,086
-406,540	800,000	-0,035	0,089
-405,525	-200,000	-0,025	-0,102
-404,511	-40,865	0,038	0,014
-403,496	145,743	0,046	0,045
-402,482	490,248	0,049	-0,083
-401,467	459,279	-0,040	-0,064
-400,452	314,834	0,035	0,049
-399,438	-200,000	-0,030	0,102
-398,423	405,045	0,065	-0,100
-397,409	-155,406	0,055	0,003
-396,394	289,764	-0,063	-0,083
-395,379	138,189	-0,060	0,057
-394,365	-157,777	0,120	-0,005
-393,350	-135,143	0,131	-0,011
-392,336	-70,665	-0,051	0,014
-391,321	12,638	0,037	-0,021
-390,306	189,389	-0,018	-0,020
-389,292	259,028	-0,034	-0,043
-388,277	800,000	0,011	-0,036
-387,263	-95,060	0,074	-0,014
-386,248	-179,009	0,041	-0,001
-385,233	-143,954	0,144	0,010
-384,219	800,000	0,055	-0,133
-383,204	-93,983	0,105	-0,021
-382,190	100,638	-0,140	-0,118
-381,175	-41,951	0,020	0,007
-380,160	99,999	0,061	0,051
-379,146	-69,758	0,045	-0,012
-378,131	-200,000	-0,022	0,118
-377,117	217,564	0,072	-0,083
-376,102	406,697	0,045	-0,069
-375,088	-200,000	-0,005	0,044
-374,073	-200,000	-0,001	-0,088
-373,058	42,274	-0,124	-0,081
-372,044	-80,430	0,176	0,042
-371,029	-5,307	0,083	0,041
-370,015	-66,587	-0,120	-0,034
-369,000	230,490	-0,043	-0,052
-367,985	-200,000	-0,013	-0,051
-366,971	-85,607	0,124	-0,028
-365,956	16,426	0,038	0,022
-364,942	166,513	-0,030	0,031
-363,927	-200,000	0,007	0,029
-362,912	76,312	0,045	0,035
-361,898	-200,000	0,014	-0,078
-360,883	-18,828	-0,120	-0,054
-359,869	-200,000	0,003	0,084
-358,854	-6,407	0,081	0,040
-357,839	456,752	0,016	-0,026
-356,825	-76,252	0,075	0,019
-355,810	-102,084	0,026	-0,005
-354,796	800,000	0,017	-0,035
-353,781	78,266	-0,068	0,053
-352,766	-200,000	-0,006	-0,058
-351,752	265,488	0,065	-0,082
-350,737	-120,009	-0,105	-0,013
-349,723	78,878	0,054	0,042
-348,708	-200,000	0,010	-0,052
-347,693	424,526	-0,023	-0,035
-346,679	335,346	-0,041	-0,058
-345,664	-200,000	0,012	-0,182
-344,650	-47,026	0,064	0,022
-343,635	-200,000	0,003	0,028
-342,620	-34,636	0,068	0,027
-341,606	-76,314	0,121	0,031
-340,591	10,174	0,080	-0,044
-339,577	-48,979	-0,140	-0,048
-338,562	318,606	-0,027	-0,037
-337,548	-200,000	0,022	0,079
-336,533	58,163	0,173	0,123
-335,518	-147,846	0,038	0,002
-334,504	12,267	0,028	0,016
-333,489	-200,000	0,018	0,073
-332,475	-84,900	-0,041	0,009
-331,460	-3,836	0,064	-0,032
-330,445	460,509	0,043	-0,069
-329,431	13,214	-0,039	-0,022
-328,416	-200,000	0,018	0,110
-327,402	156,507	0,039	0,039
-326,387	800,000	-0,037	0,119
-325,372	-200,000	-0,007	-0,070
-324,358	192,796	0,044	-0,048
-323,343	85,198	0,022	-0,018
-322,329	-200,000	0,013	0,069
-321,314	0,574	0,076	0,039
-320,299	-93,871	-0,014	0,003
-319,285	800,000	-0,023	0,073
-318,270	800,000	0,043	-0,121
-317,256	-44,501	0,106	-0,038
-316,241	800,000	-0,040	0,103
-315,226	276,534	-0,051	0,066
-314,212	27,254	0,066	0,040
-313,197	-30,733	0,050	0,021
-312,183	-16,923	-0,101	0,046
-311,168	-200,000	0,007	0,128
-310,153	-200,000	0,020	-0,197
-309,139	-200,000	-0,027	0,086
-308,124	37,395	-0,081	-0,052
-307,110	-118,052	0,138	0,018
-306,095	241,579	-0,081	0,098
-305,080	147,986	0,021	0,021
-304,066	800,000	0,011	-0,023
-303,051	145,127	-0,031	-0,030
-302,037	462,008	-0,046	-0,075
-301,022	2,324	0,051	-0,027
-300,008	-200,000	-0,001	0,087
-298,993	-117,251	0,081	-0,011
-297,978	800,000	0,084	0,168
-296,964	-38,453	-0,045	0,017
-295,949	-200,000	-0,014	-0,064
-294,935	134,474	-0,062	-0,058
-293,920	647,814	-0,040	-0,074
-292,905	255,306	-0,054	0,067
-291,891	-122,422	0,072	-0,008
-290,876	-200,000	0,041	0,236
-289,862	-131,924	-0,069	-0,006
-288,847	-113,773	0,033	-0,005
-287,832	687,679	0,063	-0,120
-286,818	178,158	-0,070	0,074
-285,803	-200,000	-0,060	0,209
-284,789	408,834	-0,055	0,085
-283,774	-96,811	0,098	-0,019
-282,759	291,185	-0,107	0,141
-281,745	800,000	-0,012	0,030
-280,730	-200,000	0,002	-0,093
-279,716	-102,986	-0,037	-0,006
-278,701	22,200	0,072	-0,043
-277,686	174,021	0,120	0,125
-276,672	-200,000	0,009	-0,059
-275,657	365,096	-0,014	-0,021
-274,643	-66,355	-0,067	0,019
-273,628	-200,000	-0,029	0,096
-272,613	-200,000	-0,007	0,100
-271,599	-56,209	0,063	-0,020
-270,584	81,397	-0,027	0,021
-269,570	-200,000	-0,001	0,019
-268,555	-200,000	0,006	-0,042
-267,540	-200,000	0,013	-0,075
-266,526	4,717	-0,106	-0,056
-265,511	30,033	-0,071	0,044
-264,497	48,463	0,071	0,048
-263,482	-200,000	0,052	0,166
-262,467	800,000	0,021	0,054
-261,453	-79,014	0,100	0,024
-260,438	-7,450	-0,127	-0,062
-259,424	-200,000	-0,036	-0,202
-258,409	-37,970	-0,051	-0,020
-257,395	184,526	0,042	0,045
-256,380	-200,000	-0,026	0,123
-255,365	800,000	-0,008	0,024
-254,351	122,138	0,062	-0,056
-253,336	-200,000	0,001	-0,053
-252,322	-200,000	-0,023	-0,203
-251,307	18,401	0,068	0,039
-250,292	-28,265	-0,152	0,063
-249,278	-200,000	0,014	0,210
-248,263	-200,000	-0,012	0,060
-247,249	119,889	0,066	-0,059
-246,234	-200,000	-0,019	-0,065
-245,219	45,075	0,049	-0,033
-244,205	-26,653	-0,045	-0,019
-243,190	323,672	-0,078	0,107
-242,176	422,796	-0,050	-0,077
-241,161	195,812	-0,050	-0,055
-240,146	2,270	-0,142	0,074
-239,132	22,418	-0,024	-0,014
-238,117	-67,111	-0,069	0,019
-237,103	-200,000	-0,008	-0,155
-236,088	-200,000	-0,007	-0,035
-235,073	202,906	0,061	-0,068
-234,059	-197,582	0,047	0,000
-233,044	262,963	-0,101	0,127
-232,030	-200,000	-0,016	0,089
-231,015	-147,789	-0,132	0,008
-230,000	216,554	-0,046	0,053
-228,986	-200,000	0,033	-0,106
-227,971	800,000	0,014	0,039
-226,957	-80,187	0,040	0,010
-225,942	800,000	0,052	0,105
-224,927	442,765	-0,055	-0,087
-223,913	-41,961	-0,200	0,074
-222,898	291,347	-0,010	-0,013
-221,884	54,539	-0,096	-0,067
-220,869	396,157	0,074	-0,112
-219,855	437,275	-0,051	0,081
-218,840	746,717	-0,048	0,095
-217,825	-14,182	0,131	0,061
-216,811	-107,020	-0,056	0,009
-215,796	-48,609	0,105	0,036
-214,782	800,000	-0,061	-0,128
-213,767	117,176	0,106	0,094
-212,752	-176,254	-0,021	0,000
-211,738	-200,000	-0,023	-0,088
-210,723	-200,000	0,039	0,192
-209,709	409,094	-0,042	-0,064
-208,694	472,459	-0,030	-0,050
-207,679	800,000	-0,060	-0,129
-206,665	253,199	0,022	-0,028
-205,650	351,897	0,078	0,112
-204,636	34,217	-0,071	-0,045
-203,621	-200,000	0,003	0,074
-202,606	648,989	0,049	-0,091
-201,592	-200,000	-0,002	-0,045
-200,577	800,000	-0,007	-0,015
-199,563	800,000	0,056	0,156
-198,548	800,000	-0,078	-0,167
-197,533	125,856	0,113	0,103
-196,519	-116,554	-0,203	0,027
-195,504	171,043	-0,123	-0,128
-194,490	-200,000	-0,009	-0,098
-193,475	-200,000	0,002	0,016
-192,460	800,000	-0,016	-0,036
-191,446	-65,454	0,158	-0,045
-190,431	-111,558	0,018	0,003
-189,417	-200,000	-0,009	0,100
-188,402	347,541	-0,051	0,073
-187,387	800,000	0,084	-0,223
-186,373	-145,427	0,090	-0,006
-185,358	-82,026	0,062	-0,015
-184,344	-200,000	0,009	0,057
-183,329	80,689	0,038	0,030
-182,315	-105,110	0,172	-0,028
-181,300	-200,000	-0,011	0,116
-180,285	-65,000	-0,080	0,023
-179,271	267,891	0,040	-0,050
-178,256	469,544	-0,034	0,055
-177,242	800,000	0,026	0,075
-176,227	-46,660	0,087	0,031
-175,212	19,625	-0,144	0,083
-174,198	-32,780	0,088	-0,035
-173,183	-200,000	-0,001	-0,051
-172,169	800,000	0,017	0,040
-171,154	185,484	0,080	-0,086
-170,139	-200,000	-0,011	0,145
-169,125	-36,920	-0,080	0,031
-168,110	-71,047	0,165	0,044
-167,096	-200,000	0,024	-0,077
-166,081	-23,577	0,029	0,012
-165,066	-200,000	0,002	0,019
-164,052	443,573	0,029	0,045
-163,037	116,568	-0,043	0,038
-162,023	289,711	0,085	0,112
-161,008	-86,030	0,079	0,017
-159,993	-200,000	0,015	0,094
-158,979	732,323	0,024	-0,047
-157,964	800,000	-0,053	-0,154
-156,950	21,708	0,117	-0,069
-155,935	-80,227	0,022	0,005
-154,920	403,637	-0,083	0,127
-153,906	-200,000	0,015	0,060
-152,891	-200,000	-0,045	-0,163
-151,877	256,938	0,078	-0,097
-150,862	800,000	-0,031	-0,063
-149,847	55,564	0,032	0,022
-148,833	-200,000	-0,010	-0,094
-147,818	-200,000	-0,002	-0,031
-146,804	102,555	0,084	0,071
-145,789	35,429	-0,031	0,020
-144,775	109,804	-0,110	-0,095
-143,760	-23,778	-0,116	0,050
-142,745	104,123	0,087	0,073
-141,731	26,724	-0,062	-0,037
-140,716	-200,000	-0,009	0,088
-139,702	-200,000	0,036	0,131
-138,687	-200,000	0,036	0,146
-137,672	172,056	0,071	-0,074
-136,658	696,127	-0,043	-0,082
-135,643	280,598	0,059	-0,076
-134,629	-200,000	-0,027	0,142
-133,614	-200,000	-0,004	0,193
-132,599	800,000	0,033	0,080
-131,585	-101,365	-0,056	0,010
-130,570	269,992	-0,063	-0,080
-129,556	-200,000	0,030	0,099
-128,541	-200,000	0,005	0,062
-127,526	178,627	0,115	0,121
-126,512	110,121	0,052	-0,045
-125,497	-34,307	0,186	-0,073
-124,483	224,320	0,010	0,011
-123,468	-119,454	0,059	0,007
-122,453	101,802	-0,069	0,058
-121,439	-91,938	-0,088	-0,018
-120,424	119,107	-0,027	0,024
-119,410	265,307	0,053	-0,066
-118,395	-180,376	-0,021	0,000
-117,380	800,000	0,058	0,120
-116,366	-41,197	0,086	0,032
-115,351	-200,000	0,019	-0,063
-114,337	-78,074	0,023	0,006
-113,322	343,484	0,062	-0,088
-112,307	241,889	-0,051	0,062
-111,293	-173,416	-0,145	-0,003
-110,278	-148,702	0,087	-0,005
-109,264	116,882	-0,071	0,063
-108,249	135,014	-0,064	0,060
-107,234	-130,694	0,010	-0,001
-106,220	-39,868	-0,067	-0,025
-105,205	-134,156	0,061	0,005
-104,191	-126,659	0,067	0,007
-103,176	371,534	-0,067	-0,099
-102,162	157,755	0,040	0,040
-101,147	-102,278	-0,068	0,012
-100,132	75,904	-0,032	-0,024
-99,118	80,488	0,035	0,027
-98,103	-162,012	-0,097	0,003
-97,089	-14,059	-0,054	0,025
-96,074	-200,000	0,006	0,121
-95,059	-11,296	-0,186	0,088
-94,045	800,000	0,040	0,114
-93,030	329,757	-0,034	0,047
-92,016	37,062	-0,073	0,046
-91,001	493,509	0,108	0,178
-89,986	-200,000	-0,007	0,242
-88,972	754,149	-0,085	0,166
-87,957	-200,000	-0,024	-0,093
-86,943	-51,906	-0,080	-0,027
-85,928	36,149	0,040	0,025
-84,913	39,591	-0,097	-0,062
-83,899	-200,000	-0,007	0,042
-82,884	-38,696	0,050	-0,019
-81,870	784,205	-0,047	0,093
-80,855	800,000	0,046	0,140
-79,840	43,493	0,108	0,071
-78,826	80,961	-0,054	0,042
-77,811	-41,893	0,128	0,047
-76,797	-52,542	-0,037	0,012
-75,782	-200,000	-0,005	0,043
-74,767	64,220	0,017	-0,012
-73,753	-200,000	0,022	0,109
-72,738	741,897	0,024	0,046
-71,724	-52,370	-0,151	0,050
-70,709	-200,000	0,011	0,126
-69,694	-200,000	0,016	0,089
-68,680	411,096	-0,023	0,035
-67,665	800,000	-0,040	-0,086
-66,651	-2,516	0,154	-0,077
-65,636	800,000	0,025	-0,061
-64,622	-200,000	-0,005	-0,062
-63,607	-25,576	-0,035	0,015
-62,592	177,592	0,045	-0,047
-61,578	64,003	-0,136	-0,098
-60,563	-90,923	0,057	-0,012
-59,549	322,185	-0,052	0,071
-58,534	20,551	-1,846	-1,069
-57,519	800,000	-0,382	-0,810
-56,505	-200,000	-1,321	-5,075
-55,490	158,866	0,810	0,808
-54,476	800,000	5,229	12,000
-53,461	-200,000	18,181	301,508
-52,446	800,000	735,438	2272,924
-51,432	543,065	1651,797	2838,163
-50,417	109,618	1638,384	1408,318
-49,403	74,298	1289,090	970,451
-48,388	30,926	1029,190	631,205
-47,373	20,106	991,024	572,052
-46,359	17,964	978,895	557,996
-45,344	14,711	974,992	545,082
-44,330	15,056	973,378	545,289
-43,315	14,500	971,477	542,384
-42,300	14,425	970,392	541,513
-41,286	14,434	969,577	541,063
-40,271	14,413	968,478	540,362
-39,257	14,409	967,870	539,987
-38,242	14,409	966,828	539,386
-37,227	14,475	965,763	538,984
-36,213	14,414	964,904	538,284
-35,198	14,379	964,126	537,716
-34,184	14,496	963,333	537,631
-33,169	14,437	962,404	536,901
-32,154	14,479	961,460	536,489
-31,140	14,459	960,497	535,865
-30,125	14,450	960,024	535,552
-29,111	14,495	959,024	535,117
-28,096	14,468	958,587	534,765
-27,082	14,459	957,768	534,258
-26,067	14,479	956,913	533,825
-25,052	14,422	956,269	533,262
-24,038	14,430	955,620	532,904
-23,023	14,412	955,102	532,534
-22,009	14,523	954,190	532,361
-20,994	14,436	953,598	531,730
-19,979	14,430	953,024	531,372
-18,965	14,440	952,288	530,970
-17,950	14,482	951,745	530,784
-16,936	14,460	951,097	530,330
-15,921	14,413	950,588	529,876
-14,906	14,331	949,776	529,140
-13,892	14,395	949,014	528,897
-12,877	14,382	948,355	528,467
-11,863	14,282	947,847	527,843
-10,848	14,317	947,269	527,613
-9,833	14,407	946,685	527,555
-8,819	14,397	946,219	527,243
-7,804	14,329	945,616	526,669
-6,790	14,373	944,961	526,421
-5,775	14,419	944,404	526,238
-4,760	14,402	943,770	525,808
-3,746	14,364	943,255	525,380
-2,731	14,145	942,587	524,294
-1,717	14,194	942,009	524,107
-0,702	14,203	941,212	523,670
0,313	14,062	940,395	523,561
1,327	17,241	937,927	532,170
2,342	25,946	793,829	473,476
3,356	21,807	459,169	267,506
4,371	-5,459	315,829	154,850
5,386	-9,759	297,763	141,601
6,400	-11,845	291,499	136,529
7,415	-11,981	289,258	135,332
8,429	-11,914	287,712	134,663
9,444	-11,907	286,903	134,279
10,459	-11,750	286,278	134,128
11,473	-11,643	285,601	133,904
12,488	-11,997	285,109	133,316
13,502	-11,947	284,635	133,131
14,517	-11,777	284,381	133,166
15,531	-11,497	284,044	133,268
16,546	-11,165	283,709	133,421
17,561	-11,152	283,269	133,216
18,575	-11,095	283,040	133,151
19,590	-11,302	282,615	132,739
20,604	-10,994	282,440	132,942
21,619	-11,328	281,861	132,336
22,634	-11,416	281,666	132,148
23,648	-11,349	281,342	132,049
24,663	-11,306	281,080	131,956
25,677	-11,186	280,799	131,926
26,692	-11,278	280,564	131,716
27,707	-11,123	280,230	131,696
28,721	-11,358	279,943	131,325
29,736	-11,148	279,594	131,351
30,750	-11,161	279,336	131,205
31,765	-11,190	279,042	131,027
32,780	-11,169	278,953	130,993
33,794	-11,228	278,585	130,754
34,809	-11,243	278,401	130,641
35,823	-11,157	278,117	130,578
36,838	-11,212	277,866	130,396
37,853	-11,308	277,686	130,209
38,867	-11,205	277,513	130,214
39,882	-11,262	277,141	129,973
40,896	-11,236	276,924	129,885
41,911	-11,320	276,733	129,705
42,926	-11,321	276,421	129,546
43,940	-11,210	276,069	129,474
44,955	-11,202	275,915	129,398
45,969	-11,252	275,639	129,209
46,984	-11,257	275,366	129,066
47,999	-11,547	275,130	128,671
49,013	-11,552	274,886	128,541
50,028	-11,607	274,678	128,380
51,042	-11,655	274,373	128,182
52,057	-11,727	274,086	127,969
53,071	-11,682	273,908	127,917
54,086	-11,656	273,784	127,871
55,101	-11,591	273,512	127,793
56,115	-11,686	273,500	127,688
57,130	-11,381	273,228	127,833
58,144	-11,337	272,904	127,712
59,159	-11,365	272,749	127,601
60,174	-11,462	272,481	127,375
61,188	-11,453	272,365	127,318
62,203	-11,284	272,126	127,351
63,217	-11,236	271,905	127,281
64,232	-11,334	271,778	127,119
65,247	-11,389	271,309	126,838
66,261	-11,258	271,097	126,848
67,276	-11,454	270,993	126,607
68,290	-11,340	270,450	126,447
69,305	-11,681	270,295	126,050
70,320	-11,503	270,278	126,195
71,334	-11,355	270,152	126,261
72,349	-11,312	269,776	126,113
73,363	-11,309	269,565	126,006
74,378	-11,291	269,377	125,924
75,393	-11,362	269,216	125,772
76,407	-11,367	268,907	125,611
77,422	-11,465	268,744	125,434
78,436	-11,338	268,542	125,445
79,451	-11,295	268,222	125,323
80,466	-11,407	268,036	125,123
81,480	-11,459	267,933	125,017
82,495	-11,412	267,623	124,904
83,509	-11,388	267,565	124,888
84,524	-11,500	267,310	124,656
85,539	-11,333	267,075	124,686
86,553	-11,466	266,836	124,443
87,568	-11,370	266,505	124,364
88,582	-11,466	266,387	124,212
89,597	-11,256	266,188	124,297
90,611	-11,477	266,061	124,028
91,626	-11,189	265,742	124,128
92,641	-11,245	265,663	124,029
93,655	-11,441	265,460	123,747
94,670	-11,381	265,191	123,664
95,684	-11,282	265,001	123,654
96,699	-11,320	264,673	123,456
97,714	-11,497	264,655	123,277
98,728	-11,544	264,357	123,085
99,743	-11,545	264,039	122,925
100,757	-11,294	263,795	123,026
101,772	-11,343	263,649	122,902
102,787	-11,423	263,327	122,670
103,801	-11,340	263,225	122,685
104,816	-11,461	263,185	122,548
105,830	-11,393	263,005	122,513
106,845	-11,290	262,685	122,445
107,860	-11,531	262,492	122,130
108,874	-11,560	262,259	121,985
109,889	-11,409	262,043	122,008
110,903	-11,691	261,863	121,663
111,918	-11,796	261,600	121,436
112,933	-11,485	261,441	121,628
113,947	-11,526	261,409	121,566
114,962	-11,341	261,220	121,630
115,976	-11,458	261,073	121,448
116,991	-11,491	260,893	121,324
118,006	-11,542	260,703	121,180
119,020	-11,541	260,615	121,128
120,035	-11,425	260,294	121,072
121,049	-11,296	260,146	121,106
122,064	-11,442	259,901	120,852
123,079	-11,394	259,709	120,794
124,093	-11,625	259,600	120,530
125,108	-11,439	259,166	120,481
126,122	-11,607	259,074	120,279
127,137	-11,595	258,969	120,230
128,151	-11,435	258,591	120,185
129,166	-11,515	258,414	120,022
130,181	-11,487	258,270	119,968
131,195	-11,484	258,023	119,846
132,210	-11,535	257,681	119,632
133,224	-11,441	257,671	119,699
134,239	-11,608	257,422	119,426
135,254	-11,592	257,358	119,400
136,268	-11,529	256,999	119,278
137,283	-11,609	256,903	119,153
138,297	-11,705	256,692	118,961
139,312	-11,723	256,249	118,730
140,327	-11,697	256,275	118,754
141,341	-11,173	256,247	119,185
142,356	-11,462	255,988	118,803
143,370	-11,385	255,815	118,779
144,385	-11,330	255,632	118,730
145,400	-11,092	255,548	118,887
146,414	-11,258	255,465	118,694
147,429	-11,275	255,166	118,530
148,443	-11,271	254,948	118,422
149,458	-11,400	254,746	118,206
150,473	-11,279	254,587	118,226
151,487	-11,529	254,326	117,879
152,502	-11,259	254,272	118,075
153,516	-11,126	253,974	118,041
154,531	-11,093	253,742	117,951
155,546	-11,253	253,613	117,744
156,560	-11,459	253,487	117,498
157,575	-11,715	253,102	117,090
158,589	-11,589	252,890	117,089
159,604	-11,247	252,907	117,379
160,619	-11,275	252,764	117,278
161,633	-11,258	252,613	117,212
162,648	-11,192	252,544	117,225
163,662	-11,372	252,319	116,958
164,677	-11,258	252,065	116,927
165,692	-11,319	251,757	116,721
166,706	-11,131	251,807	116,894
167,721	-11,065	251,501	116,797
168,735	-11,170	251,338	116,622
169,750	-11,194	251,157	116,508
170,764	-11,304	251,097	116,376
171,779	-11,300	250,906	116,281
172,794	-11,048	250,730	116,402
173,808	-11,355	250,538	116,043
174,823	-11,640	250,110	115,594
175,837	-11,832	250,079	115,407
176,852	-11,644	250,082	115,556
177,867	-11,562	249,796	115,484
178,881	-11,346	249,655	115,590
179,896	-11,205	249,454	115,605
180,910	-11,232	249,276	115,490
181,925	-11,250	249,055	115,362
182,940	-11,395	249,051	115,228
183,954	-11,312	248,794	115,168
184,969	-10,989	248,811	115,436
185,983	-11,011	248,479	115,254
186,998	-10,882	248,304	115,271
188,013	-11,118	248,161	114,997
189,027	-11,173	247,914	114,826
190,042	-11,123	247,677	114,748
191,056	-11,404	247,616	114,474
192,071	-11,570	247,293	114,177
193,086	-11,500	246,960	114,071
194,100	-11,624	246,902	113,931
195,115	-11,262	246,829	114,188
196,129	-11,342	246,667	114,037
197,144	-11,518	246,399	113,757
198,159	-11,467	246,136	113,668
199,173	-11,404	246,060	113,674
200,188	-11,712	245,679	113,234
201,202	-11,984	245,624	112,973
202,217	-12,054	245,471	112,835
203,232	-11,830	245,067	112,824
204,246	-12,006	244,867	112,576
205,261	-13,171	244,263	111,331
206,275	-13,635	244,115	110,872
207,290	-9,639	245,798	114,930
208,304	-1,563	248,303	122,819
209,319	2,805	249,456	127,020
210,334	3,670	249,637	127,822
211,348	3,993	249,656	128,089
212,363	4,371	249,419	128,270
213,377	4,641	249,332	128,439
214,392	4,470	249,266	128,252
215,407	4,560	249,194	128,278
216,421	4,590	249,079	128,232
217,436	4,472	248,961	128,061
218,450	4,420	248,539	127,790
219,465	4,341	248,357	127,620
220,480	4,298	248,347	127,568
221,494	4,115	248,223	127,341
222,509	3,870	247,874	126,949
223,523	3,786	247,583	126,719
224,538	3,584	247,313	126,403
225,553	3,448	247,023	126,132
226,567	3,207	246,952	125,886
227,582	3,414	246,737	125,936
228,596	3,405	246,675	125,885
229,611	3,419	246,458	125,775
230,626	3,247	246,246	125,514
231,640	3,235	246,242	125,491
232,655	3,502	245,989	125,569
233,669	3,526	245,756	125,459
234,684	3,381	245,631	125,266
235,699	3,417	245,565	125,250
236,713	3,543	245,498	125,308
237,728	3,541	245,272	125,180
238,742	3,505	245,077	125,039
239,757	3,464	244,856	124,882
240,772	3,394	244,713	124,741
241,786	3,153	244,595	124,474
242,801	3,313	244,354	124,470
243,815	3,289	244,162	124,342
244,830	3,374	244,082	124,359
245,844	3,360	244,011	124,300
246,859	3,315	243,706	124,098
247,874	3,535	243,562	124,191
248,888	3,625	243,423	124,182
249,903	3,430	243,355	123,978
250,917	3,606	243,075	123,966
251,932	3,882	243,004	124,143
252,947	3,723	242,773	123,886
253,961	3,550	242,770	123,733
254,976	3,523	242,488	123,557
255,990	3,572	242,562	123,623
257,005	3,731	242,189	123,550
258,020	3,646	242,035	123,392
259,034	3,497	241,823	123,153
260,049	3,358	241,749	122,992
261,063	3,378	241,600	122,921
262,078	3,504	241,575	122,999
263,093	3,718	241,335	123,038
264,107	3,531	241,146	122,781
265,122	3,377	241,041	122,593
266,136	3,504	240,846	122,584
267,151	3,607	240,658	122,560
268,166	3,331	240,663	122,331
269,180	3,468	240,146	122,167
270,195	3,452	240,272	122,207
271,209	3,617	240,067	122,224
272,224	3,467	239,819	121,967
273,239	3,296	239,620	121,719
274,253	3,225	239,608	121,646
275,268	3,469	239,355	121,700
276,282	3,229	239,334	121,488
277,297	3,319	239,046	121,402
278,312	3,429	238,865	121,386
279,326	3,430	238,879	121,384
280,341	3,468	238,565	121,243
281,355	3,352	238,541	121,128
282,370	3,700	238,357	121,299
283,384	3,511	238,186	121,052
284,399	3,518	238,021	120,963
285,414	3,426	237,874	120,805
286,428	3,566	237,739	120,836
287,443	3,470	237,676	120,718
288,457	3,452	237,472	120,589
289,472	3,516	237,206	120,493
290,487	3,325	237,137	120,297
291,501	3,300	236,892	120,143
292,516	3,278	236,827	120,082
293,530	3,553	236,613	120,178
294,545	3,509	236,580	120,116
295,560	3,512	236,302	119,967
296,574	3,282	236,065	119,656
297,589	3,372	235,940	119,652
298,603	3,479	235,968	119,739
299,618	3,548	235,820	119,708
300,633	3,436	235,640	119,518
301,647	3,624	235,588	119,628
302,662	3,571	235,537	119,550
303,676	3,546	235,387	119,444
304,691	3,606	235,115	119,341
305,706	3,478	234,969	119,157
306,720	3,745	234,779	119,257
307,735	3,614	234,656	119,083
308,749	3,463	234,560	118,906
309,764	3,336	234,461	118,747
310,779	3,368	234,144	118,601
311,793	3,165	233,818	118,268
312,808	3,363	233,779	118,391
313,822	3,623	233,704	118,543
314,837	3,510	233,641	118,413
315,852	3,525	233,397	118,291
316,866	3,724	233,264	118,366
317,881	3,845	233,172	118,403
318,895	3,525	233,040	118,079
319,910	3,626	232,933	118,091
320,925	3,360	232,727	117,772
321,939	3,412	232,487	117,680
322,954	3,457	232,591	117,757
323,968	3,400	232,229	117,519
324,983	3,489	232,153	117,539
325,997	3,544	232,021	117,503
327,012	3,701	231,788	117,495
328,027	3,599	231,686	117,354
329,041	3,395	231,583	117,136
330,056	3,475	231,470	117,129
331,070	3,553	231,338	117,112
332,085	3,556	231,162	117,015
333,100	3,612	230,902	116,915
334,114	3,368	230,821	116,678
335,129	3,540	230,546	116,659
336,143	3,445	230,595	116,602
337,158	3,522	230,497	116,600
338,173	3,610	230,224	116,518
339,187	3,290	230,043	116,173
340,202	3,650	229,900	116,364
341,216	3,598	229,661	116,193
342,231	3,444	229,571	116,020
343,246	3,439	229,406	115,923
344,260	3,395	229,448	115,900
345,275	3,565	229,194	115,890
346,289	3,584	229,088	115,841
347,304	3,436	228,910	115,629
348,319	3,598	228,833	115,702
349,333	3,560	228,547	115,519
350,348	3,480	228,419	115,383
351,362	3,414	228,301	115,264
352,377	3,427	228,103	115,163
353,392	3,305	227,937	114,977
354,406	3,205	227,833	114,839
355,421	194,874	1318,100	1392,045
356,435	156,256	1450,898	1392,017
