DTS Sentinel unit serial number:	SN410029Multiplexer serial number:	ORYXHardware model number:	OX2-SRSoftware version number:	ORYX F/W v4,00 Oryx Data Collector v3.7.2.0data status	okinstallation	B5 Nyhavnadifferential loss correction	single-endedforward channel	channel 2reverse channel	N/Adate	2023/12/14time	12:07:13forward acquisition time	300,00reverse acquisition time	0,00gamma	499,1914k internal	0,3158k external	0,3158temperature offset calibration	1,0000default loss term (dB/km)	0,3820temperature slope calibration	1,0000multiplexer offset coefficient	1,0000multiplexer slope coefficient	1,0000fibre end	0,00T internal ref (°C)	7,68T ext. ref 1 (°C)	-7,84T ext. ref 2 (°C)	-7,86length (m)	temperature (°C)	Stokes	anti-Stokes-744,400	-147,390	0,164	-0,010
-743,385	-158,135	-0,322	-0,014
-742,371	102,955	0,075	0,065
-741,356	-150,163	-0,341	0,019
-740,342	36,716	0,214	0,139
-739,327	-152,883	-0,456	-0,023
-738,312	-82,063	0,070	0,017
-737,298	-2,503	-0,423	-0,218
-736,283	59,461	0,227	0,165
-735,269	-92,406	-0,281	-0,058
-734,254	-112,903	0,202	-0,029
-733,239	27,853	-0,485	-0,300
-732,225	39,628	0,220	0,145
-731,210	2,438	-0,035	0,019
-730,196	233,509	-0,025	0,030
-729,181	-144,962	0,090	0,006
-728,167	-200,000	-0,005	-0,061
-727,152	194,634	0,070	-0,078
-726,137	312,703	-0,052	-0,072
-725,123	641,731	-0,042	-0,079
-724,108	84,522	-0,056	-0,045
-723,094	650,474	-0,043	-0,081
-722,079	98,953	-0,097	0,082
-721,064	800,000	-0,027	-0,062
-720,050	800,000	0,029	-0,072
-719,035	153,455	-0,039	0,040
-718,021	-28,742	-0,036	-0,015
-717,006	324,506	0,056	-0,079
-715,991	-36,791	0,079	0,031
-714,977	116,640	-0,120	-0,109
-713,962	263,085	-0,056	-0,072
-712,948	5,111	0,107	-0,058
-711,933	-75,848	-0,105	0,027
-710,918	671,597	-0,050	-0,096
-709,904	-200,000	0,008	-0,038
-708,889	16,056	0,063	0,037
-707,875	224,404	-0,059	-0,071
-706,860	800,000	-0,005	0,012
-705,845	101,956	-0,067	-0,057
-704,831	222,321	0,059	-0,070
-703,816	-164,067	0,030	0,001
-702,802	771,147	-0,067	-0,134
-701,787	-140,833	-0,085	-0,006
-700,772	137,079	0,027	0,026
-699,758	-200,000	-0,008	-0,113
-698,743	495,371	0,040	0,067
-697,729	800,000	-0,017	-0,048
-696,714	-127,642	-0,033	-0,004
-695,699	-200,000	-0,006	0,037
-694,685	800,000	-0,033	-0,089
-693,670	800,000	0,029	-0,093
-692,656	800,000	0,036	0,114
-691,641	236,543	0,015	-0,019
-690,627	-200,000	-0,008	0,055
-689,612	-200,000	0,000	-0,024
-688,597	-131,260	0,070	0,007
-687,583	115,914	0,109	0,098
-686,568	-200,000	-0,023	-0,126
-685,554	-24,610	-0,131	-0,057
-684,539	-79,343	-0,133	-0,033
-683,524	613,791	-0,065	0,120
-682,510	359,241	-0,112	0,165
-681,495	383,232	0,017	0,026
-680,481	-159,293	0,065	0,003
-679,466	337,315	-0,023	-0,033
-678,451	-166,110	0,051	-0,002
-677,437	525,234	-0,035	0,061
-676,422	73,560	-0,064	0,049
-675,408	34,665	0,090	-0,058
-674,393	800,000	-0,042	-0,092
-673,378	800,000	0,025	-0,071
-672,364	-78,175	-0,123	-0,031
-671,349	-200,000	-0,013	-0,045
-670,335	54,705	-0,072	0,051
-669,320	800,000	0,055	0,150
-668,305	37,740	0,119	0,078
-667,291	168,932	-0,171	-0,179
-666,276	800,000	-0,033	-0,103
-665,262	39,059	0,062	-0,040
-664,247	620,065	-0,027	-0,050
-663,232	-200,000	-0,009	-0,061
-662,218	800,000	0,050	0,112
-661,203	48,654	0,070	0,048
-660,189	800,000	-0,052	0,137
-659,174	103,339	0,107	0,092
-658,159	800,000	-0,049	-0,156
-657,145	800,000	-0,061	-0,197
-656,130	-57,768	-0,161	0,051
-655,116	-27,246	-0,052	-0,022
-654,101	-26,297	-0,018	0,008
-653,086	147,424	0,060	0,059
-652,072	231,512	-0,090	-0,108
-651,057	46,489	-0,121	-0,082
-650,043	128,407	0,079	-0,074
-649,028	-200,000	0,010	-0,049
-648,014	800,000	-0,039	0,121
-646,999	-148,029	-0,040	0,002
-645,984	-200,000	0,009	0,058
-644,970	-200,000	0,001	0,084
-643,955	24,009	-0,069	0,042
-642,941	800,000	-0,023	-0,073
-641,926	-107,419	0,140	0,022
-640,911	-200,000	-0,012	-0,061
-639,897	-200,000	-0,001	0,118
-638,882	-104,210	-0,105	0,018
-637,868	-200,000	0,020	0,102
-636,853	75,350	0,008	0,007
-635,838	-144,399	0,076	-0,005
-634,824	-200,000	-0,003	-0,020
-633,809	-137,306	-0,033	0,003
-632,795	-36,855	-0,063	0,025
-631,780	-134,613	0,031	0,003
-630,765	481,742	-0,037	-0,061
-629,751	47,399	-0,168	-0,115
-628,736	-200,000	-0,025	-0,134
-627,722	-161,889	0,126	0,005
-626,707	83,924	-0,083	-0,066
-625,692	6,724	0,070	0,038
-624,678	800,000	-0,036	-0,112
-623,663	555,622	-0,035	0,062
-622,649	-81,360	-0,163	-0,039
-621,634	-116,935	-0,079	-0,011
-620,619	-200,000	-0,028	-0,134
-619,605	-42,930	0,138	0,051
-618,590	103,551	-0,058	0,050
-617,576	22,691	-0,027	-0,016
-616,561	397,668	-0,059	0,090
-615,546	-147,042	-0,085	0,005
-614,532	-64,084	-0,056	0,017
-613,517	-200,000	0,032	0,151
-612,503	185,150	0,033	0,036
-611,488	800,000	-0,053	-0,118
-610,474	-200,000	0,001	0,102
-609,459	-43,517	-0,144	0,053
-608,444	-200,000	-0,006	0,029
-607,430	-96,077	-0,150	-0,029
-606,415	103,970	-0,105	0,090
-605,401	-133,406	-0,100	-0,009
-604,386	54,667	0,081	0,057
-603,371	-58,620	-0,090	0,029
-602,357	-7,248	0,056	-0,028
-601,342	-138,773	-0,032	-0,003
-600,328	-27,902	0,025	0,010
-599,313	-200,000	-0,013	-0,079
-598,298	-200,000	0,008	-0,044
-597,284	-39,651	0,026	-0,010
-596,269	-200,000	0,003	-0,115
-595,255	800,000	0,039	-0,108
-594,240	-11,830	-0,126	-0,060
-593,225	-0,663	0,093	0,048
-592,211	196,976	-0,051	-0,057
-591,196	800,000	-0,021	0,068
-590,182	-107,713	-0,042	-0,007
-589,167	198,852	0,108	0,121
-588,152	-133,917	-0,087	-0,008
-587,138	-86,608	-0,156	0,035
-586,123	450,235	0,051	0,083
-585,109	-200,000	0,005	-0,185
-584,094	800,000	0,084	-0,188
-583,079	603,753	-0,032	0,059
-582,065	191,295	0,043	0,047
-581,050	3,382	-0,018	-0,010
-580,036	486,416	0,067	0,112
-579,021	-81,740	-0,176	-0,042
-578,006	-6,578	-0,243	0,121
-576,992	-20,118	-0,094	-0,042
-575,977	-200,000	0,008	-0,051
-574,963	-200,000	-0,018	-0,094
-573,948	45,108	0,023	-0,016
-572,934	276,830	0,092	-0,120
-571,919	529,854	-0,034	-0,058
-570,904	430,174	-0,047	-0,074
-569,890	84,642	-0,095	0,076
-568,875	-200,000	0,025	0,137
-567,861	210,805	-0,049	0,056
-566,846	-172,395	0,064	0,001
-565,831	800,000	-0,043	-0,095
-564,817	800,000	-0,093	-0,220
-563,802	-62,907	-0,104	-0,031
-562,788	-200,000	0,001	0,031
-561,773	19,425	0,066	-0,039
-560,758	-200,000	0,006	-0,063
-559,744	493,551	-0,050	0,085
-558,729	-200,000	0,025	0,082
-557,715	800,000	-0,024	-0,061
-556,700	-200,000	-0,004	-0,053
-555,685	-103,174	0,078	-0,013
-554,671	-122,899	-0,061	-0,007
-553,656	-55,817	-0,074	-0,024
-552,642	-98,088	0,121	-0,023
-551,627	159,296	-0,032	0,033
-550,612	123,654	0,080	0,073
-549,598	-200,000	0,026	0,084
-548,583	107,938	-0,073	-0,064
-547,569	-74,436	-0,051	-0,013
-546,554	124,078	0,053	0,048
-545,539	-57,255	0,028	-0,009
-544,525	-200,000	-0,002	0,133
-543,510	-28,437	0,063	-0,027
-542,496	-22,781	0,102	0,045
-541,481	183,696	-0,101	-0,110
-540,466	-32,555	0,023	0,009
-539,452	-48,096	0,097	-0,034
-538,437	63,188	0,075	0,055
-537,423	-51,337	-0,031	-0,010
-536,408	800,000	-0,027	0,074
-535,393	347,804	-0,006	0,008
-534,379	-200,000	-0,030	-0,104
-533,364	-200,000	0,011	-0,059
-532,350	800,000	0,057	0,130
-531,335	88,903	0,101	-0,082
-530,321	-71,316	-0,180	-0,049
-529,306	-11,955	0,153	-0,073
-528,291	-56,366	-0,026	-0,008
-527,277	210,599	-0,058	0,067
-526,262	56,140	0,165	0,117
-525,248	90,124	-0,044	-0,036
-524,233	55,411	0,203	0,144
-523,218	-49,640	-0,056	0,019
-522,204	232,281	-0,065	-0,078
-521,189	800,000	0,037	-0,077
-520,175	129,848	-0,059	-0,055
-519,160	247,980	-0,061	-0,076
-518,145	-200,000	-0,002	-0,018
-517,131	653,985	0,079	0,149
-516,116	396,649	-0,041	0,062
-515,102	-17,082	0,043	0,020
-514,087	-138,092	-0,096	-0,008
-513,072	800,000	0,041	-0,089
-512,058	-40,812	0,047	0,018
-511,043	-31,914	-0,053	-0,022
-510,029	-200,000	-0,005	0,066
-509,014	-90,500	0,046	-0,010
-507,999	-51,650	0,059	-0,020
-506,985	-142,929	-0,055	0,004
-505,970	-20,899	0,069	-0,031
-504,956	-108,857	0,091	-0,014
-503,941	-200,000	-0,004	0,018
-502,926	800,000	0,026	-0,067
-501,912	622,061	0,009	-0,016
-500,897	-200,000	-0,022	0,079
-499,883	-200,000	-0,028	-0,154
-498,868	142,233	-0,044	0,042
-497,853	-200,000	0,023	-0,079
-496,839	-130,873	0,129	0,012
-495,824	-106,808	-0,126	0,020
-494,810	-200,000	0,009	-0,081
-493,795	-108,269	0,105	0,016
-492,781	505,836	-0,038	-0,065
-491,766	-29,385	-0,032	0,013
-490,751	-7,623	-0,125	0,061
-489,737	249,115	0,067	-0,083
-488,722	6,405	-0,179	0,097
-487,708	34,123	0,071	0,045
-486,693	800,000	0,014	0,039
-485,678	800,000	-0,016	0,047
-484,664	129,622	-0,023	-0,022
-483,649	-57,578	0,071	-0,023
-482,635	-159,568	0,091	0,004
-481,620	-200,000	0,033	-0,169
-480,605	-200,000	0,002	0,023
-479,591	325,627	0,060	0,084
-478,576	90,416	0,064	-0,052
-477,562	645,602	0,030	-0,057
-476,547	-200,000	-0,001	-0,118
-475,532	-77,170	0,063	0,016
-474,518	-200,000	-0,001	0,096
-473,503	-200,000	0,024	0,144
-472,489	800,000	0,051	0,136
-471,474	-69,294	0,052	-0,014
-470,459	17,550	-0,075	-0,044
-469,445	-42,010	0,029	0,011
-468,430	-200,000	-0,024	-0,136
-467,416	358,024	0,049	-0,072
-466,401	206,519	-0,072	-0,082
-465,386	-59,027	0,041	-0,013
-464,372	-24,405	-0,120	0,052
-463,357	-102,660	-0,086	0,015
-462,343	525,681	0,044	-0,076
-461,328	-200,000	-0,003	-0,103
-460,313	-99,014	-0,086	-0,016
-459,299	-121,390	0,124	0,015
-458,284	-72,729	0,041	-0,011
-457,270	800,000	0,051	0,120
-456,255	-200,000	-0,001	-0,161
-455,241	-153,258	0,113	0,006
-454,226	205,481	-0,073	-0,083
-453,211	97,221	-0,059	0,049
-452,197	-57,077	0,167	0,053
-451,182	29,908	-0,041	-0,025
-450,168	24,652	-0,039	0,023
-449,153	-200,000	-0,032	0,106
-448,138	526,295	-0,033	-0,057
-447,124	-146,454	0,103	0,006
-446,109	-200,000	0,012	0,062
-445,095	103,086	0,109	-0,093
-444,080	463,217	-0,025	-0,040
-443,065	76,174	-0,103	0,079
-442,051	800,000	0,075	-0,169
-441,036	74,223	0,071	-0,054
-440,022	5,471	0,123	-0,066
-439,007	-59,274	-0,129	-0,040
-437,992	-19,044	-0,101	0,046
-436,978	800,000	-0,026	-0,064
-435,963	-200,000	-0,034	0,121
-434,949	7,297	-0,155	0,084
-433,934	71,919	0,035	-0,027
-432,919	31,249	-0,065	-0,041
-431,905	54,986	-0,052	-0,037
-430,890	230,434	-0,015	0,018
-429,876	237,536	0,012	-0,014
-428,861	234,638	-0,113	0,136
-427,846	-200,000	-0,026	-0,142
-426,832	-200,000	0,003	-0,056
-425,817	103,799	-0,048	-0,041
-424,803	800,000	-0,017	0,034
-423,788	800,000	-0,032	0,064
-422,773	24,066	0,029	-0,017
-421,759	104,380	-0,081	-0,069
-420,744	-167,212	-0,047	-0,001
-419,730	-35,588	-0,121	-0,048
-418,715	800,000	0,078	-0,178
-417,701	-152,685	0,101	-0,005
-416,686	800,000	-0,024	0,055
-415,671	81,263	0,005	0,004
-414,657	121,700	0,083	0,076
-413,642	-45,759	-0,088	-0,032
-412,628	8,036	-0,096	-0,052
-411,613	-112,790	-0,039	-0,006
-410,598	-75,373	-0,119	-0,031
-409,584	-36,080	0,071	0,028
-408,569	652,681	0,062	0,115
-407,555	48,925	0,007	0,005
-406,540	-200,000	0,006	-0,029
-405,525	-11,825	-0,022	0,011
-404,511	-200,000	0,011	-0,074
-403,496	-121,878	-0,114	-0,014
-402,482	-74,416	0,036	0,009
-401,467	800,000	0,064	0,148
-400,452	127,628	0,013	-0,012
-399,438	335,738	0,061	-0,086
-398,423	238,860	0,051	-0,062
-397,409	-200,000	0,006	-0,060
-396,394	-43,410	-0,045	-0,016
-395,379	-143,944	-0,074	0,005
-394,365	183,180	-0,059	-0,064
-393,350	-28,820	0,105	-0,044
-392,336	-200,000	-0,002	0,040
-391,321	60,501	-0,105	0,075
-390,306	-55,525	-0,037	0,012
-389,292	-200,000	0,004	-0,025
-388,277	41,417	-0,118	-0,077
-387,263	-200,000	-0,011	-0,056
-386,248	-22,224	-0,080	-0,035
-385,233	134,763	-0,055	-0,052
-384,219	-200,000	0,000	0,012
-383,204	800,000	-0,077	-0,191
-382,190	69,289	-0,040	-0,030
-381,175	800,000	0,072	-0,163
-380,160	800,000	0,028	0,085
-379,146	800,000	-0,058	0,183
-378,131	13,949	-0,064	0,036
-377,117	-200,000	0,006	0,035
-376,102	-200,000	-0,022	0,076
-375,088	-6,350	-0,087	-0,043
-374,073	-200,000	-0,001	-0,189
-373,058	-5,151	-0,078	-0,039
-372,044	724,629	0,038	0,073
-371,029	712,802	0,072	-0,140
-370,015	94,925	-0,020	-0,017
-369,000	-200,000	-0,011	0,099
-367,985	-16,120	0,039	0,018
-366,971	-19,332	0,153	-0,069
-365,956	-108,274	-0,013	-0,002
-364,942	24,430	0,084	0,050
-363,927	354,230	0,105	-0,152
-362,912	678,689	0,045	-0,086
-361,898	-200,000	0,009	0,040
-360,883	-200,000	0,026	-0,181
-359,869	800,000	-0,010	-0,028
-358,854	-93,218	0,043	0,009
-357,839	800,000	-0,010	-0,030
-356,825	113,174	0,125	0,110
-355,810	-200,000	-0,010	0,097
-354,796	170,202	0,050	0,052
-353,781	800,000	0,034	-0,109
-352,766	35,425	-0,159	-0,101
-351,752	-162,322	0,069	-0,002
-350,737	800,000	0,048	0,126
-349,723	-146,620	-0,069	-0,004
-348,708	123,866	-0,070	-0,064
-347,693	-73,010	-0,153	-0,041
-346,679	263,341	0,044	-0,056
-345,664	143,128	-0,040	0,039
-344,650	-24,436	0,089	0,038
-343,635	433,010	0,046	0,073
-342,620	-20,851	0,020	-0,009
-341,606	10,683	-0,034	-0,019
-340,591	-45,723	0,151	-0,054
-339,577	-47,911	-0,066	-0,023
-338,562	-200,000	-0,002	-0,125
-337,548	-62,915	-0,055	-0,016
-336,533	346,445	0,075	0,107
-335,518	800,000	0,039	0,109
-334,504	-200,000	0,012	0,120
-333,489	-44,114	0,105	0,038
-332,475	-200,000	0,036	-0,152
-331,460	753,956	0,058	-0,114
-330,445	-200,000	-0,018	0,113
-329,431	-36,684	-0,012	-0,005
-328,416	-21,725	0,144	0,064
-327,402	56,969	-0,080	0,056
-326,387	-200,000	0,020	0,174
-325,372	-200,000	-0,021	0,159
-324,358	-157,129	0,131	0,006
-323,343	262,216	-0,053	-0,067
-322,329	289,012	0,056	-0,074
-321,314	-82,244	-0,097	0,023
-320,299	-200,000	0,014	-0,066
-319,285	-200,000	-0,006	-0,018
-318,270	-48,340	-0,103	0,036
-317,256	-200,000	-0,016	-0,109
-316,241	197,976	0,065	0,073
-315,226	36,087	-0,113	0,072
-314,212	-81,412	-0,031	0,007
-313,197	-125,952	0,076	-0,008
-312,183	-200,000	-0,019	-0,096
-311,168	-200,000	0,031	-0,200
-310,153	15,127	-0,005	-0,003
-309,139	800,000	-0,059	-0,126
-308,124	48,170	0,066	-0,045
-307,110	293,166	0,075	-0,099
-306,095	252,930	0,091	0,113
-305,080	-200,000	0,007	-0,046
-304,066	472,122	-0,051	0,083
-303,051	285,992	-0,011	0,015
-302,037	-32,648	0,015	0,006
-301,022	-57,444	0,080	-0,025
-300,008	57,363	0,099	0,070
-298,993	800,000	0,025	-0,075
-297,978	-200,000	-0,010	0,127
-296,964	135,216	0,012	-0,011
-295,949	-141,439	-0,092	-0,007
-294,935	142,902	-0,070	0,067
-293,920	-200,000	0,024	-0,143
-292,905	-200,000	0,124	0,000
-291,891	-200,000	0,026	0,151
-290,876	-200,000	-0,008	-0,129
-289,862	177,493	0,037	0,039
-288,847	615,453	0,051	-0,094
-287,832	186,982	0,037	-0,040
-286,818	-25,549	0,006	0,002
-285,803	565,307	-0,024	0,043
-284,789	62,610	-0,100	0,072
-283,774	-200,000	-0,005	0,057
-282,759	126,395	-0,104	-0,096
-281,745	-42,575	-0,152	0,056
-280,730	-200,000	0,020	0,074
-279,716	178,922	-0,081	0,086
-278,701	-200,000	0,008	-0,084
-277,686	-200,000	-0,002	0,099
-276,672	-200,000	0,009	0,047
-275,657	314,398	-0,069	-0,094
-274,643	163,579	0,038	0,039
-273,628	-200,000	0,016	-0,104
-272,613	-200,000	0,014	0,068
-271,599	800,000	0,057	0,127
-270,584	20,437	0,102	0,060
-269,570	252,932	0,023	-0,029
-268,555	591,547	0,017	0,030
-267,540	-30,042	-0,204	0,084
-266,526	-62,371	0,171	0,051
-265,511	87,812	-0,037	-0,029
-264,497	-200,000	-0,005	0,064
-263,482	116,183	0,183	0,162
-262,467	600,941	0,020	0,036
-261,453	-71,803	-0,064	0,017
-260,438	-26,705	0,102	-0,043
-259,424	68,112	0,075	0,055
-258,409	-135,751	-0,066	-0,006
-257,395	159,378	0,084	-0,085
-256,380	-4,827	0,067	-0,033
-255,365	-88,623	0,069	0,015
-254,351	94,299	-0,060	0,049
-253,336	203,127	0,072	-0,080
-252,322	-65,992	0,067	-0,019
-251,307	29,406	-0,060	0,037
-250,292	-200,000	-0,006	0,021
-249,278	366,804	0,066	0,096
-248,263	-55,906	0,104	-0,033
-247,249	-52,426	0,133	0,044
-246,234	-197,462	-0,037	-0,000
-245,219	177,673	-0,088	-0,093
-244,205	-188,250	0,115	-0,001
-243,190	-104,773	-0,092	-0,015
-242,176	447,863	0,030	-0,048
-241,161	-33,115	0,151	0,060
-240,146	-133,356	0,021	0,002
-239,132	800,000	-0,043	0,110
-238,117	-34,678	-0,203	0,080
-237,103	-11,285	0,080	0,038
-236,088	800,000	-0,026	0,082
-235,073	-200,000	0,017	0,153
-234,059	183,269	0,114	0,122
-233,044	-200,000	-0,007	0,036
-232,030	120,479	0,131	-0,118
-231,015	-37,452	0,067	-0,026
-230,000	800,000	-0,019	-0,047
-228,986	-48,870	0,060	-0,021
-227,971	-200,000	0,001	-0,010
-226,957	148,230	0,016	0,016
-225,942	800,000	0,061	0,193
-224,927	222,345	-0,103	0,120
-223,913	222,891	-0,097	0,113
-222,898	-153,057	-0,057	-0,003
-221,884	-200,000	-0,006	-0,130
-220,869	216,747	0,036	0,041
-219,855	218,491	0,020	-0,023
-218,840	157,606	-0,078	0,078
-217,825	-200,000	0,003	0,026
-216,811	-84,763	-0,083	-0,019
-215,796	800,000	0,027	-0,064
-214,782	800,000	-0,018	-0,036
-213,767	60,987	0,106	-0,076
-212,752	351,374	0,070	0,100
-211,738	148,739	0,139	0,135
-210,723	800,000	-0,013	0,039
-209,709	-84,588	-0,040	0,009
-208,694	27,861	-0,056	-0,034
-207,679	-200,000	0,018	-0,145
-206,665	-200,000	0,003	-0,021
-205,650	83,200	0,070	0,055
-204,636	-77,187	0,259	-0,065
-203,621	16,039	-0,148	-0,084
-202,606	11,479	-0,096	-0,053
-201,592	-200,000	-0,021	0,114
-200,577	16,186	-0,074	-0,042
-199,563	800,000	-0,032	0,073
-198,548	-5,746	0,022	-0,011
-197,533	439,472	0,049	0,077
-196,519	-200,000	-0,018	0,109
-195,504	151,147	-0,035	-0,034
-194,490	99,532	-0,016	0,013
-193,475	-48,431	-0,125	0,043
-192,460	-200,000	-0,012	0,061
-191,446	324,593	-0,032	-0,044
-190,431	800,000	0,082	0,201
-189,417	253,194	-0,050	-0,061
-188,402	800,000	0,055	-0,114
-187,387	-200,000	-0,014	-0,094
-186,373	307,765	0,110	-0,148
-185,358	800,000	-0,039	-0,087
-184,344	273,276	-0,100	0,128
-183,329	152,922	0,059	-0,059
-182,315	-200,000	-0,009	0,104
-181,300	800,000	0,023	0,069
-180,285	-112,220	0,100	0,014
-179,271	-23,221	-0,094	-0,041
-178,256	186,177	0,030	-0,032
-177,242	58,602	0,107	-0,076
-176,227	-200,000	0,036	0,259
-175,212	57,694	0,057	0,040
-174,198	800,000	-0,016	-0,035
-173,183	106,528	-0,120	0,103
-172,169	-200,000	0,017	-0,106
-171,154	800,000	-0,041	0,104
-170,139	9,185	0,246	0,134
-169,125	527,467	-0,052	0,088
-168,110	800,000	0,045	0,135
-167,096	800,000	-0,014	0,043
-166,081	-114,385	-0,073	-0,010
-165,066	-145,585	0,038	0,002
-164,052	-72,387	0,078	0,021
-163,037	135,359	0,094	-0,088
-162,023	75,805	-0,113	0,086
-161,008	67,740	0,076	0,056
-159,993	-200,000	-0,004	-0,125
-158,979	336,266	-0,020	0,028
-157,964	-5,375	0,039	-0,019
-156,950	-25,884	-0,036	0,015
-155,935	2,308	-0,048	-0,025
-154,920	762,439	-0,024	-0,046
-153,906	-132,083	0,083	0,008
-152,891	12,363	-0,068	-0,038
-151,877	-37,300	-0,068	0,026
-150,862	267,539	0,030	0,038
-149,847	-23,402	-0,055	-0,023
-148,833	588,579	-0,036	-0,063
-147,818	45,472	0,092	-0,061
-146,804	-148,673	-0,083	-0,005
-145,789	-50,901	-0,086	0,029
-144,775	-85,517	-0,201	-0,045
-143,760	-200,000	-0,011	-0,064
-142,745	108,455	0,119	0,102
-141,731	-200,000	-0,002	-0,070
-140,716	-5,405	0,028	0,014
-139,702	204,280	0,050	0,056
-138,687	327,877	0,059	-0,082
-137,672	800,000	-0,068	-0,155
-136,658	100,218	-0,052	-0,043
-135,643	68,672	-0,063	-0,047
-134,629	-54,457	0,096	-0,031
-133,614	-200,000	-0,000	0,042
-132,599	-200,000	-0,011	0,098
-131,585	-200,000	-0,000	0,063
-130,570	138,166	0,101	0,096
-129,556	-72,456	-0,081	-0,021
-128,541	800,000	-0,030	-0,066
-127,526	-77,777	0,024	-0,006
-126,512	69,471	0,070	0,051
-125,497	436,198	0,037	0,059
-124,483	-200,000	0,006	0,053
-123,468	407,453	0,046	-0,070
-122,453	340,990	-0,132	-0,186
-121,439	-128,134	-0,163	0,017
-120,424	681,610	-0,030	0,057
-119,410	-200,000	-0,003	0,065
-118,395	67,195	-0,096	0,070
-117,380	-200,000	0,028	0,122
-116,366	9,782	-0,148	-0,081
-115,351	-200,000	-0,023	-0,132
-114,337	-37,876	-0,080	-0,030
-113,322	-96,998	-0,030	0,006
-112,307	323,109	0,044	-0,060
-111,293	349,524	0,018	0,026
-110,278	371,450	0,050	0,073
-109,264	3,800	0,025	-0,013
-108,249	-73,244	0,036	-0,009
-107,234	164,929	-0,086	-0,088
-106,220	-200,000	0,024	-0,089
-105,205	800,000	-0,008	-0,026
-104,191	90,296	0,086	-0,069
-103,176	-4,986	0,100	0,049
-102,162	93,837	-0,046	0,037
-101,147	140,764	-0,025	-0,023
-100,132	-168,959	-0,109	0,003
-99,118	-103,700	-0,070	-0,012
-98,103	-104,056	-0,024	0,004
-97,089	94,409	0,110	-0,089
-96,074	-6,019	-0,043	-0,021
-95,059	46,730	-0,082	0,055
-94,045	-13,781	0,108	-0,050
-93,030	800,000	0,018	0,052
-92,016	-200,000	-0,006	-0,065
-91,001	38,171	-0,019	-0,012
-89,986	30,436	-0,076	-0,047
-88,972	800,000	0,023	-0,051
-87,957	-200,000	0,001	-0,015
-86,943	34,253	-0,039	0,024
-85,928	-200,000	0,010	-0,043
-84,913	3,578	-0,019	0,010
-83,899	800,000	0,024	-0,049
-82,884	338,825	0,033	0,046
-81,870	-67,791	-0,069	0,019
-80,855	237,020	0,057	-0,068
-79,840	168,838	-0,088	-0,090
-78,826	800,000	-0,036	-0,089
-77,811	438,559	0,021	-0,033
-76,797	800,000	0,029	-0,089
-75,782	-200,000	-0,004	0,077
-74,767	800,000	-0,036	0,080
-73,753	-117,792	-0,131	0,017
-72,738	-11,826	-0,088	0,041
-71,724	-96,416	-0,047	0,009
-70,709	-200,000	-0,027	-0,167
-69,694	-96,021	0,116	-0,022
-68,680	-200,000	0,003	-0,022
-67,665	-200,000	0,009	0,087
-66,651	-200,000	-0,117	0,000
-65,636	9,430	0,052	0,028
-64,622	97,409	-0,114	-0,094
-63,607	107,604	-0,051	-0,043
-62,592	-76,822	0,089	0,022
-61,578	-200,000	-0,010	-0,049
-60,563	453,677	0,048	-0,076
-59,549	-12,958	-0,188	0,088
-58,534	81,338	-2,724	-2,111
-57,519	27,755	0,515	-0,311
-56,505	-200,000	-1,700	-5,713
-55,490	431,829	1,287	2,008
-54,476	800,000	5,114	11,152
-53,461	-200,000	22,307	348,467
-52,446	800,000	762,141	2286,329
-51,432	508,551	1645,120	2751,872
-50,417	95,930	1606,444	1315,897
-49,403	63,984	1263,482	910,432
-48,388	22,560	1015,901	594,884
-47,373	19,412	983,604	565,582
-46,359	12,663	970,450	535,960
-45,344	8,331	967,246	520,003
-44,330	8,803	965,270	520,462
-43,315	7,746	963,610	516,096
-42,300	7,717	962,421	515,344
-41,286	7,725	961,347	514,774
-40,271	7,678	960,363	514,075
-39,257	7,773	959,462	513,881
-38,242	7,656	958,860	513,157
-37,227	7,731	957,930	512,883
-36,213	7,722	956,953	512,310
-35,198	7,694	956,246	511,821
-34,184	7,775	955,397	511,609
-33,169	7,727	954,383	510,889
-32,154	7,758	953,680	510,594
-31,140	7,715	952,694	509,907
-30,125	7,772	951,874	509,631
-29,111	7,705	951,326	509,101
-28,096	7,714	950,605	508,726
-27,082	7,741	949,886	508,408
-26,067	7,742	949,042	507,939
-25,052	7,673	948,471	507,392
-24,038	7,658	947,728	506,926
-23,023	7,693	946,972	506,614
-22,009	7,712	946,329	506,311
-20,994	7,722	945,679	505,974
-19,979	7,727	945,040	505,627
-18,965	7,617	944,589	505,014
-17,950	7,688	943,804	504,803
-16,936	7,670	943,257	504,433
-15,921	7,664	942,580	504,030
-14,906	7,518	941,961	503,213
-13,892	7,631	941,187	503,141
-12,877	7,571	940,575	502,603
-11,863	7,541	940,069	502,217
-10,848	7,632	939,489	502,176
-9,833	7,676	938,954	502,011
-8,819	7,602	938,402	501,461
-7,804	7,639	937,512	501,083
-6,790	7,638	936,917	500,742
-5,775	7,694	936,491	500,671
-4,760	7,655	935,981	500,254
-3,746	7,635	935,362	499,841
-2,731	7,487	934,582	498,937
-1,717	7,441	934,173	498,552
-0,702	7,501	933,431	498,326
0,313	7,247	932,859	497,970
1,327	10,696	930,444	507,497
2,342	19,388	778,343	447,271
3,356	14,714	446,640	249,624
4,371	-11,119	311,558	146,750
5,386	-14,779	294,121	134,837
6,400	-16,905	288,186	130,003
7,415	-17,413	285,468	128,268
8,429	-18,036	283,500	126,767
9,444	-18,315	282,543	126,057
10,459	-18,080	282,076	126,065
11,473	-18,203	281,315	125,595
12,488	-18,207	281,044	125,459
13,502	-18,243	280,379	125,116
14,517	-18,292	280,010	124,893
15,531	-18,315	279,438	124,605
16,546	-18,272	279,098	124,483
17,561	-18,367	278,517	124,123
18,575	-18,358	278,448	124,090
19,590	-18,552	278,090	123,734
20,604	-18,357	277,862	123,807
21,619	-18,517	277,424	123,449
22,634	-18,206	277,012	123,550
23,648	-18,322	276,680	123,281
24,663	-18,282	276,352	123,161
25,677	-18,324	276,118	123,006
26,692	-18,341	275,963	122,910
27,707	-18,346	275,618	122,741
28,721	-18,397	275,443	122,604
29,736	-18,449	275,031	122,361
30,750	-18,275	274,709	122,370
31,765	-18,355	274,589	122,230
32,780	-18,347	274,290	122,094
33,794	-18,400	274,256	122,018
34,809	-18,376	274,016	121,923
35,823	-18,201	273,444	121,822
36,838	-18,297	273,342	121,675
37,853	-18,410	273,055	121,431
38,867	-18,199	272,718	121,467
39,882	-18,244	272,577	121,352
40,896	-18,300	272,295	121,164
41,911	-18,255	272,057	121,089
42,926	-18,216	271,853	121,024
43,940	-18,401	271,562	120,711
44,955	-18,526	271,318	120,476
45,969	-18,225	271,095	120,646
46,984	-18,192	270,908	120,582
47,999	-18,129	270,656	120,517
49,013	-18,253	270,594	120,364
50,028	-18,277	270,296	120,199
51,042	-18,265	270,113	120,117
52,057	-18,318	269,733	119,889
53,071	-18,467	269,654	119,706
54,086	-18,324	269,383	119,706
55,101	-18,236	269,211	119,700
56,115	-18,186	268,779	119,544
57,130	-18,354	268,636	119,315
58,144	-18,199	268,347	119,318
59,159	-18,206	268,141	119,210
60,174	-18,249	267,789	119,003
61,188	-18,228	267,647	118,948
62,203	-18,344	267,701	118,856
63,217	-18,223	267,216	118,740
64,232	-18,097	266,975	118,738
65,247	-18,313	266,773	118,441
66,261	-18,210	266,523	118,413
67,276	-18,211	266,298	118,301
68,290	-18,317	266,255	118,176
69,305	-18,362	265,982	118,003
70,320	-18,188	265,687	118,019
71,334	-18,285	265,471	117,825
72,349	-18,225	265,235	117,763
73,363	-18,111	264,854	117,686
74,378	-18,095	264,665	117,607
75,393	-18,099	264,444	117,495
76,407	-18,231	264,251	117,280
77,422	-17,980	263,997	117,383
78,436	-18,192	263,776	117,083
79,451	-18,190	263,698	117,040
80,466	-18,385	263,454	116,746
81,480	-18,273	263,082	116,671
82,495	-18,151	262,737	116,617
83,509	-18,265	262,788	116,527
84,524	-18,210	262,548	116,459
85,539	-18,235	262,262	116,300
86,553	-18,281	262,206	116,224
87,568	-18,253	261,921	116,111
88,582	-18,233	261,636	115,993
89,597	-18,275	261,549	115,907
90,611	-18,181	261,246	115,845
91,626	-18,258	261,195	115,744
92,641	-18,120	260,916	115,733
93,655	-18,235	260,722	115,535
94,670	-18,299	260,488	115,364
95,684	-18,227	260,227	115,301
96,699	-18,145	260,048	115,284
97,714	-18,169	259,843	115,162
98,728	-18,180	259,548	115,011
99,743	-18,221	259,581	114,980
100,757	-18,298	259,211	114,738
101,772	-18,231	259,145	114,757
102,787	-18,168	258,806	114,652
103,801	-18,193	258,641	114,547
104,816	-18,202	258,475	114,455
105,830	-18,170	258,339	114,413
106,845	-18,131	258,017	114,294
107,860	-18,266	257,970	114,145
108,874	-18,394	257,799	113,947
109,889	-18,134	257,323	113,954
110,903	-18,162	257,237	113,881
111,918	-18,209	257,069	113,756
112,933	-18,225	256,905	113,659
113,947	-18,052	256,556	113,646
114,962	-18,207	256,505	113,477
115,976	-18,170	256,212	113,370
116,991	-18,322	256,214	113,228
118,006	-18,336	255,893	113,064
119,020	-18,205	255,811	113,132
120,035	-18,065	255,555	113,130
121,049	-18,077	255,350	113,019
122,064	-18,172	255,145	112,835
123,079	-18,114	254,889	112,762
124,093	-18,248	254,774	112,586
125,108	-18,029	254,514	112,650
126,122	-18,143	254,335	112,462
127,137	-17,984	254,086	112,480
128,151	-18,208	253,958	112,219
129,166	-18,240	253,767	112,097
130,181	-18,035	253,534	112,160
131,195	-18,166	253,261	111,918
132,210	-18,321	253,222	111,757
133,224	-18,147	252,910	111,759
134,239	-18,126	252,825	111,729
135,254	-18,062	252,348	111,563
136,268	-18,115	252,316	111,494
137,283	-18,106	252,095	111,394
138,297	-18,010	251,824	111,346
139,312	-18,201	251,697	111,117
140,327	-17,991	251,569	111,230
141,341	-18,058	251,344	111,064
142,356	-18,011	251,091	110,982
143,370	-18,100	251,076	110,889
144,385	-17,981	250,651	110,793
145,400	-17,972	250,558	110,750
146,414	-18,022	250,370	110,615
147,429	-18,063	250,244	110,514
148,443	-18,084	250,058	110,403
149,458	-18,155	249,899	110,263
150,473	-17,976	249,636	110,289
151,487	-17,908	249,431	110,246
152,502	-18,154	249,297	109,970
153,516	-18,028	249,119	109,988
154,531	-18,056	248,875	109,846
155,546	-18,037	248,672	109,763
156,560	-17,966	248,464	109,721
157,575	-18,018	248,357	109,620
158,589	-18,029	248,165	109,517
159,604	-17,950	247,852	109,435
160,619	-17,982	247,757	109,356
161,633	-17,920	247,455	109,265
162,648	-17,874	247,458	109,296
163,662	-18,027	247,392	109,128
164,677	-17,958	247,181	109,084
165,692	-17,947	246,939	108,976
166,706	-18,006	246,803	108,857
167,721	-18,097	246,480	108,629
168,735	-18,150	246,503	108,585
169,750	-17,978	246,224	108,596
170,764	-17,954	246,099	108,551
171,779	-17,952	246,061	108,526
172,794	-18,052	245,856	108,343
173,808	-18,087	245,522	108,157
174,823	-18,006	245,368	108,147
175,837	-17,870	245,285	108,214
176,852	-18,105	245,255	107,996
177,867	-18,180	245,056	107,836
178,881	-17,987	244,734	107,844
179,896	-18,197	244,741	107,664
180,910	-17,826	244,460	107,837
181,925	-17,830	244,142	107,684
182,940	-18,070	243,992	107,411
183,954	-17,934	243,901	107,474
184,969	-18,111	243,959	107,343
185,983	-18,019	243,635	107,267
186,998	-18,065	243,334	107,087
188,013	-17,872	243,063	107,117
189,027	-17,985	243,129	107,044
190,042	-17,998	242,782	106,871
191,056	-17,830	242,668	106,948
192,071	-17,966	242,475	106,742
193,086	-17,884	242,405	106,770
194,100	-17,991	242,246	106,602
195,115	-17,825	241,917	106,584
196,129	-18,023	241,821	106,371
197,144	-18,044	241,592	106,242
198,159	-17,969	241,329	106,179
199,173	-17,820	241,167	106,219
200,188	-18,027	241,127	106,024
201,202	-17,967	240,909	105,967
202,217	-18,027	240,681	105,808
203,232	-17,870	240,533	105,861
204,246	-18,055	240,453	105,667
205,261	-17,712	240,323	105,878
206,275	-15,783	240,874	107,677
207,290	-10,211	242,907	113,132
208,304	-4,673	244,423	118,374
209,319	-2,921	244,971	120,067
210,334	-2,625	245,044	120,336
211,348	-1,428	245,176	121,372
212,363	-0,802	245,222	121,898
213,377	-0,107	245,126	122,409
214,392	0,379	245,328	122,898
215,407	0,689	245,180	123,066
216,421	0,708	245,011	122,987
217,436	0,676	244,850	122,868
218,450	0,890	244,616	122,915
219,465	0,999	244,569	122,969
220,480	0,672	244,504	122,659
221,494	0,730	244,143	122,514
222,509	0,459	244,063	122,242
223,523	0,176	243,957	121,947
224,538	0,157	243,478	121,681
225,553	0,315	243,474	121,797
226,567	0,353	243,245	121,703
227,582	0,367	243,080	121,621
228,596	0,161	243,032	121,419
229,611	0,268	242,903	121,430
230,626	0,057	242,756	121,175
231,640	0,207	242,437	121,126
232,655	0,156	242,353	121,032
233,669	0,223	242,077	120,937
234,684	0,313	241,985	120,954
235,699	0,318	241,713	120,811
236,713	0,386	241,779	120,888
237,728	0,212	241,502	120,598
238,742	0,049	241,442	120,427
239,757	-0,009	241,261	120,279
240,772	0,168	241,042	120,301
241,786	0,181	240,745	120,152
242,801	0,275	240,582	120,135
243,815	0,184	240,582	120,053
244,830	0,335	240,397	120,070
245,844	0,150	240,257	119,841
246,859	0,134	240,148	119,763
247,874	0,316	239,945	119,797
248,888	0,255	239,680	119,606
249,903	0,156	239,582	119,467
250,917	0,256	239,434	119,462
251,932	0,342	239,420	119,513
252,947	0,218	239,300	119,344
253,961	0,222	239,030	119,202
254,976	0,399	238,685	119,160
255,990	0,268	238,770	119,088
257,005	0,205	238,399	118,842
258,020	0,302	238,403	118,910
259,034	0,072	238,241	118,636
260,049	0,137	238,214	118,663
261,063	0,136	237,902	118,497
262,078	0,037	237,820	118,367
263,093	0,347	237,566	118,475
264,107	0,313	237,427	118,369
265,122	0,126	237,366	118,180
266,136	0,326	237,114	118,202
267,151	0,320	237,022	118,140
268,166	0,425	236,786	118,095
269,180	0,120	236,688	117,796
270,195	0,115	236,523	117,699
271,209	0,129	236,461	117,668
272,224	0,233	236,193	117,606
273,239	0,193	235,860	117,399
274,253	0,367	235,848	117,518
275,268	0,294	235,788	117,421
276,282	0,208	235,573	117,237
277,297	0,171	235,526	117,174
278,312	0,285	235,219	117,099
279,326	0,372	235,062	117,079
280,341	0,193	235,009	116,902
281,355	0,141	234,923	116,809
282,370	0,291	234,737	116,822
283,384	0,208	234,711	116,734
284,399	0,009	234,564	116,496
285,414	0,054	234,215	116,347
286,428	0,262	234,176	116,479
287,443	0,210	234,092	116,387
288,457	0,362	233,727	116,313
289,472	0,313	233,690	116,246
290,487	0,469	233,554	116,288
291,501	0,209	233,390	115,995
292,516	0,244	233,327	115,981
293,530	0,322	233,170	115,953
294,545	0,355	233,064	115,915
295,560	0,396	232,855	115,833
296,574	0,455	232,544	115,713
297,589	0,363	232,465	115,593
298,603	0,367	232,375	115,540
299,618	0,479	232,277	115,567
300,633	0,476	232,096	115,466
301,647	0,424	232,022	115,378
302,662	0,500	231,746	115,289
303,676	0,686	231,490	115,294
304,691	0,554	231,424	115,149
305,706	0,523	231,232	115,020
306,720	0,345	231,298	114,907
307,735	0,386	231,088	114,823
308,749	0,251	230,991	114,661
309,764	0,553	230,678	114,726
310,779	0,609	230,529	114,685
311,793	0,448	230,489	114,531
312,808	0,370	230,323	114,379
313,822	0,344	230,113	114,245
314,837	0,351	230,121	114,245
315,852	0,399	229,904	114,163
316,866	0,618	229,654	114,195
317,881	0,688	229,571	114,197
318,895	0,589	229,368	114,011
319,910	0,596	229,301	113,973
320,925	0,496	229,133	113,803
321,939	0,649	228,873	113,779
322,954	0,553	228,917	113,718
323,968	0,506	228,643	113,536
324,983	0,624	228,660	113,624
325,997	0,389	228,378	113,296
327,012	0,540	228,249	113,337
328,027	0,435	228,147	113,197
329,041	0,607	227,994	113,240
330,056	0,664	227,918	113,235
331,070	0,627	227,648	113,063
332,085	0,675	227,583	113,057
333,100	0,651	227,326	112,901
334,114	0,536	227,262	112,773
335,129	0,499	227,022	112,616
336,143	0,299	226,892	112,392
337,158	0,785	226,720	112,660
338,173	0,629	226,808	112,577
339,187	0,522	226,544	112,356
340,202	0,801	226,283	112,425
341,216	0,591	226,335	112,284
342,231	0,793	225,962	112,239
343,246	0,845	225,926	112,251
344,260	0,647	225,920	112,090
345,275	0,713	225,818	112,079
346,289	0,592	225,635	111,887
347,304	0,700	225,393	111,838
348,319	0,786	225,207	111,800
349,333	0,967	225,032	111,837
350,348	0,778	224,875	111,609
351,362	0,729	224,803	111,527
352,377	0,960	224,596	111,585
353,392	0,805	224,512	111,419
354,406	0,837	224,460	111,407
355,421	191,681	1311,371	1375,075
356,435	153,493	1443,638	1374,910
