DTS Sentinel unit serial number:	SN410029Multiplexer serial number:	ORYXHardware model number:	OX2-SRSoftware version number:	ORYX F/W v4,00 Oryx Data Collector v3.7.2.0data status	okinstallation	B5 Nyhavnadifferential loss correction	single-endedforward channel	channel 2reverse channel	N/Adate	2023/12/12time	03:42:13forward acquisition time	300,00reverse acquisition time	0,00gamma	499,1914k internal	0,3156k external	0,3156temperature offset calibration	1,0000default loss term (dB/km)	0,3820temperature slope calibration	1,0000multiplexer offset coefficient	1,0000multiplexer slope coefficient	1,0000fibre end	0,00T internal ref (°C)	15,63T ext. ref 1 (°C)	-0,84T ext. ref 2 (°C)	-1,16length (m)	temperature (°C)	Stokes	anti-Stokes-744,400	-72,380	0,167	-0,045
-743,385	-67,920	-0,287	-0,082
-742,371	489,361	0,081	0,137
-741,356	-63,021	-0,305	0,092
-740,342	-200,000	0,004	0,062
-739,327	-128,784	-0,307	0,032
-738,312	85,934	0,128	0,103
-737,298	-90,737	-0,339	0,072
-736,283	490,078	-0,024	-0,040
-735,269	-42,275	-0,230	0,086
-734,254	-200,000	0,017	0,136
-733,239	-25,552	-0,501	-0,217
-732,225	-163,273	0,095	0,003
-731,210	-137,565	0,073	0,006
-730,196	-142,569	-0,063	0,004
-729,181	-73,795	-0,115	0,031
-728,167	-200,000	0,016	-0,084
-727,152	-200,000	0,005	-0,064
-726,137	-200,000	0,010	-0,048
-725,123	213,918	-0,036	-0,043
-724,108	237,253	-0,051	-0,062
-723,094	800,000	-0,018	-0,045
-722,079	53,638	-0,103	-0,073
-721,064	157,799	-0,085	0,087
-720,050	570,003	0,080	0,144
-719,035	-39,321	-0,135	-0,052
-718,021	525,968	-0,030	0,053
-717,006	395,676	0,090	-0,139
-715,991	93,325	-0,074	-0,061
-714,977	-105,457	0,063	-0,010
-713,962	90,739	-0,023	-0,019
-712,948	-116,768	0,100	-0,013
-711,933	-102,170	0,062	-0,011
-710,918	68,572	-0,098	0,074
-709,904	12,646	-0,046	-0,026
-708,889	-200,000	0,015	-0,195
-707,875	295,426	-0,096	0,129
-706,860	57,544	0,042	-0,030
-705,845	-146,095	0,078	-0,005
-704,831	13,700	0,128	0,073
-703,816	-118,470	0,033	0,004
-702,802	-200,000	-0,021	-0,085
-701,787	800,000	-0,026	0,061
-700,772	800,000	-0,018	0,054
-699,758	-53,751	-0,069	0,023
-698,743	3,636	-0,059	0,032
-697,729	-200,000	0,007	-0,062
-696,714	-65,867	-0,042	0,012
-695,699	-151,422	-0,127	-0,007
-694,685	-115,631	0,027	0,004
-693,670	800,000	-0,007	0,014
-692,656	-147,931	0,043	-0,003
-691,641	800,000	-0,022	-0,052
-690,627	-200,000	0,033	-0,124
-689,612	79,313	-0,015	0,012
-688,597	-200,000	-0,009	-0,112
-687,583	-1,330	0,058	0,030
-686,568	53,808	0,033	-0,023
-685,554	-200,000	-0,012	-0,048
-684,539	314,896	-0,110	0,154
-683,524	24,860	-0,155	-0,094
-682,510	285,266	-0,004	-0,006
-681,495	232,475	-0,022	0,027
-680,481	417,023	-0,049	-0,078
-679,466	325,477	-0,050	-0,071
-678,451	-26,933	0,053	-0,023
-677,437	279,796	0,039	0,051
-676,422	-114,731	-0,057	0,008
-675,408	-200,000	-0,002	-0,103
-674,393	36,782	-0,098	-0,064
-673,378	-18,931	-0,133	-0,060
-672,364	563,750	0,039	0,070
-671,349	315,719	-0,140	-0,195
-670,335	87,506	-0,093	-0,076
-669,320	-137,765	0,048	-0,004
-668,305	204,924	0,068	0,078
-667,291	-139,522	-0,066	0,005
-666,276	167,436	-0,137	0,144
-665,262	-6,191	-0,075	-0,037
-664,247	-139,809	-0,047	0,004
-663,232	-47,392	-0,149	0,053
-662,218	-200,000	0,008	0,118
-661,203	464,177	-0,028	0,046
-660,189	800,000	-0,028	0,080
-659,174	-101,916	-0,164	-0,029
-658,159	51,638	0,057	0,040
-657,145	35,156	-0,063	0,041
-656,130	-100,717	0,031	0,006
-655,116	374,926	0,103	0,155
-654,101	388,839	-0,086	0,131
-653,086	51,503	0,034	0,024
-652,072	-200,000	-0,009	-0,096
-651,057	-3,978	-0,020	0,010
-650,043	-50,323	-0,047	0,016
-649,028	-200,000	-0,021	-0,172
-648,014	-91,709	-0,122	-0,025
-646,999	-30,946	0,079	0,033
-645,984	518,625	0,018	-0,031
-644,970	118,896	0,029	-0,026
-643,955	-38,871	-0,056	0,022
-642,941	-200,000	-0,012	0,072
-641,926	-22,293	-0,090	0,040
-640,911	-187,515	0,095	-0,001
-639,897	800,000	-0,043	0,089
-638,882	-59,207	-0,032	-0,010
-637,868	-196,962	-0,052	-0,000
-636,853	402,822	-0,060	-0,093
-635,838	3,540	-0,089	-0,048
-634,824	-155,736	0,130	-0,006
-633,809	-42,219	-0,163	0,061
-632,795	-95,566	-0,035	-0,007
-631,780	78,033	0,044	0,034
-630,765	-200,000	0,036	-0,118
-629,751	63,455	-0,060	0,044
-628,736	599,752	-0,019	-0,035
-627,722	-200,000	-0,005	-0,156
-626,707	-200,000	-0,023	0,136
-625,692	114,914	0,048	0,043
-624,678	-150,221	-0,080	0,004
-623,663	509,017	-0,025	-0,043
-622,649	-51,002	-0,072	0,025
-621,634	107,529	-0,006	0,005
-620,619	-200,000	-0,025	-0,158
-619,605	-200,000	0,005	0,032
-618,590	405,824	0,038	0,059
-617,576	-77,585	-0,040	0,010
-616,561	-141,318	-0,079	0,006
-615,546	462,288	-0,051	-0,083
-614,532	50,581	-0,144	-0,100
-613,517	-149,564	-0,081	0,005
-612,503	7,360	-0,124	0,068
-611,488	148,273	-0,022	0,021
-610,474	-32,510	-0,091	0,037
-609,459	-55,492	-0,046	0,015
-608,444	-168,360	-0,053	0,001
-607,430	56,943	-0,013	-0,009
-606,415	-129,297	-0,145	0,015
-605,401	-200,000	-0,017	0,124
-604,386	-10,119	0,017	0,008
-603,371	54,461	0,052	-0,037
-602,357	148,103	0,126	0,124
-601,342	-119,939	0,131	0,016
-600,328	-66,196	-0,043	-0,012
-599,313	-28,902	-0,017	0,007
-598,298	-24,069	-0,102	-0,045
-597,284	-123,210	-0,031	0,004
-596,269	-109,681	-0,124	0,019
-595,255	8,604	0,066	0,036
-594,240	-126,625	0,133	-0,014
-593,225	-186,167	0,033	-0,000
-592,211	163,303	-0,079	-0,082
-591,196	-198,401	0,074	0,000
-590,182	-71,121	0,080	-0,022
-589,167	-132,767	-0,025	0,002
-588,152	556,647	-0,050	0,089
-587,138	143,725	-0,093	-0,091
-586,123	-200,000	0,020	0,086
-585,109	189,596	-0,067	0,074
-584,094	-200,000	-0,006	-0,082
-583,079	-81,014	0,117	-0,028
-582,065	800,000	0,042	0,100
-581,050	150,206	0,085	0,085
-580,036	800,000	-0,056	0,158
-579,021	800,000	-0,028	-0,068
-578,006	147,590	-0,123	-0,122
-576,992	127,154	-0,083	0,077
-575,977	-200,000	-0,014	0,102
-574,963	5,489	0,143	0,077
-573,948	225,520	0,024	0,028
-572,934	800,000	0,045	-0,140
-571,919	-200,000	-0,016	-0,129
-570,904	-104,524	-0,193	-0,032
-569,890	-200,000	-0,017	0,086
-568,875	800,000	0,013	0,029
-567,861	-200,000	0,010	0,072
-566,846	-200,000	-0,008	0,040
-565,831	-200,000	-0,006	0,020
-564,817	-45,532	0,114	0,041
-563,802	-135,202	-0,190	0,016
-562,788	194,790	-0,084	0,094
-561,773	720,051	-0,032	0,062
-560,758	359,950	0,044	0,065
-559,744	95,173	0,080	-0,066
-558,729	45,684	-0,085	0,058
-557,715	-18,839	-0,081	0,037
-556,700	30,254	0,041	-0,026
-555,685	-62,427	-0,054	-0,016
-554,671	143,591	-0,082	-0,080
-553,656	-200,000	-0,006	0,078
-552,642	-43,360	0,057	-0,021
-551,627	191,065	0,084	0,092
-550,612	800,000	0,016	-0,040
-549,598	305,055	-0,028	0,038
-548,583	-200,000	-0,022	-0,085
-547,569	80,755	-0,011	-0,008
-546,554	800,000	0,066	0,134
-545,539	-96,582	-0,146	-0,028
-544,525	-120,385	-0,062	-0,008
-543,510	44,248	-0,032	0,022
-542,496	95,097	0,040	0,033
-541,481	-15,519	-0,149	-0,069
-540,466	-200,000	0,004	0,015
-539,452	800,000	-0,024	0,078
-538,437	-62,916	0,162	0,049
-537,423	800,000	0,040	0,120
-536,408	234,920	-0,120	-0,146
-535,393	-200,000	0,005	-0,145
-534,379	-117,088	0,085	-0,011
-533,364	127,030	0,066	0,062
-532,350	-75,605	0,052	0,013
-531,335	800,000	0,057	0,144
-530,321	60,807	-0,087	0,063
-529,306	-83,709	0,068	-0,016
-528,291	-162,374	-0,079	-0,003
-527,277	-200,000	-0,018	-0,125
-526,262	-200,000	0,010	-0,061
-525,248	-110,015	0,035	0,005
-524,233	251,016	-0,037	0,047
-523,218	155,759	0,100	0,101
-522,204	285,914	0,042	-0,056
-521,189	-180,857	0,079	0,001
-520,175	-93,954	-0,146	0,029
-519,160	158,594	0,052	0,053
-518,145	296,082	-0,068	-0,091
-517,131	800,000	0,045	-0,101
-516,116	-106,919	-0,148	0,024
-515,102	141,306	-0,086	0,083
-514,087	100,904	-0,061	0,052
-513,072	72,608	-0,091	0,069
-512,058	246,443	0,040	0,049
-511,043	655,687	0,028	-0,052
-510,029	-144,555	0,104	-0,007
-509,014	414,969	-0,061	-0,095
-507,999	-93,353	0,016	-0,003
-506,985	-200,000	-0,024	0,094
-505,970	90,510	-0,058	0,047
-504,956	-22,587	0,128	-0,056
-503,941	-33,476	0,232	-0,093
-502,926	-125,069	0,179	-0,020
-501,912	154,160	0,080	0,080
-500,897	253,645	-0,070	-0,088
-499,883	-200,000	-0,018	0,093
-498,868	-157,775	-0,156	-0,007
-497,853	595,203	0,020	-0,036
-496,839	-200,000	-0,022	-0,080
-495,824	534,718	-0,033	0,058
-494,810	127,907	0,154	0,143
-493,795	-128,964	0,110	-0,011
-492,781	-101,432	-0,116	0,020
-491,766	800,000	-0,029	0,064
-490,751	-70,953	-0,082	-0,023
-489,737	-200,000	0,002	-0,016
-488,722	-142,907	0,023	0,002
-487,708	294,802	0,023	0,030
-486,693	-200,000	-0,027	0,170
-485,678	-200,000	0,017	0,087
-484,664	17,464	-0,178	-0,103
-483,649	0,590	0,092	-0,048
-482,635	800,000	-0,049	-0,115
-481,620	-105,702	0,080	0,013
-480,605	-200,000	-0,012	0,130
-479,591	800,000	0,027	0,079
-478,576	0,532	0,121	0,063
-477,562	-200,000	0,003	-0,087
-476,547	-200,000	0,001	-0,105
-475,532	100,291	0,107	-0,090
-474,518	-200,000	-0,022	0,109
-473,503	-53,868	0,087	0,029
-472,489	-173,500	-0,203	-0,004
-471,474	-85,001	-0,119	0,027
-470,459	-200,000	-0,019	-0,097
-469,445	800,000	-0,037	0,094
-468,430	80,125	0,061	-0,048
-467,416	365,511	0,017	-0,025
-466,401	341,246	0,063	0,090
-465,386	-113,386	0,048	-0,007
-464,372	-200,000	0,033	0,124
-463,357	-142,254	0,104	0,007
-462,343	-200,000	0,006	-0,070
-461,328	-200,000	-0,009	0,111
-460,313	56,469	0,037	0,026
-459,299	-94,598	0,082	0,016
-458,284	449,758	0,034	0,055
-457,270	179,972	-0,049	-0,052
-456,255	-91,710	-0,084	-0,017
-455,241	527,359	0,029	-0,049
-454,226	4,450	-0,095	-0,051
-453,211	-120,922	0,100	-0,012
-452,197	-200,000	-0,016	0,062
-451,182	233,629	-0,061	-0,073
-450,168	390,080	-0,079	0,120
-449,153	403,344	-0,055	0,084
-448,138	-125,971	-0,047	0,005
-447,124	-87,573	-0,085	0,019
-446,109	800,000	0,059	0,127
-445,095	-114,046	0,033	-0,005
-444,080	435,498	0,060	-0,095
-443,065	-200,000	-0,010	0,122
-442,051	30,779	0,055	-0,034
-441,036	7,491	-0,153	-0,083
-440,022	800,000	0,013	-0,038
-439,007	800,000	0,064	-0,169
-437,992	270,351	0,033	-0,043
-436,978	-108,607	0,142	-0,022
-435,963	-104,400	0,031	-0,005
-434,949	559,176	-0,026	-0,046
-433,934	36,199	-0,067	-0,043
-432,919	-200,000	-0,112	-0,000
-431,905	-56,027	-0,113	-0,037
-430,890	155,600	-0,056	0,056
-429,876	-69,871	0,079	0,022
-428,861	-35,234	-0,086	0,034
-427,846	-200,000	0,027	-0,107
-426,832	800,000	-0,025	-0,068
-425,817	413,327	0,048	-0,074
-424,803	800,000	-0,041	0,088
-423,788	-34,640	-0,060	-0,024
-422,773	800,000	-0,027	-0,087
-421,759	295,306	-0,086	-0,115
-420,744	-64,074	0,042	-0,013
-419,730	164,058	0,031	-0,031
-418,715	90,039	0,056	0,046
-417,701	800,000	-0,058	-0,169
-416,686	328,860	0,064	0,090
-415,671	157,949	-0,047	0,048
-414,657	-131,147	0,079	-0,008
-413,642	86,349	0,072	0,057
-412,628	-200,000	-0,002	0,024
-411,613	-100,488	-0,061	0,011
-410,598	-152,755	0,075	-0,004
-409,584	350,279	-0,075	-0,108
-408,569	14,607	0,121	0,069
-407,555	327,317	-0,026	0,036
-406,540	109,383	-0,149	0,130
-405,525	-200,000	0,022	-0,087
-404,511	-3,132	-0,080	-0,040
-403,496	39,919	0,045	0,030
-402,482	127,515	0,156	0,144
-401,467	159,093	-0,028	-0,028
-400,452	71,855	-0,067	-0,051
-399,438	-200,000	-0,015	0,121
-398,423	-200,000	-0,003	-0,103
-397,409	136,634	-0,065	-0,061
-396,394	59,681	0,024	-0,017
-395,379	-200,000	0,032	0,119
-394,365	30,964	0,035	0,022
-393,350	-154,005	0,070	0,003
-392,336	92,000	0,155	-0,127
-391,321	-102,930	-0,042	0,007
-390,306	7,156	-0,090	0,049
-389,292	15,332	0,108	-0,062
-388,277	-161,863	0,150	-0,005
-387,263	52,550	-0,094	0,065
-386,248	-178,013	0,107	0,002
-385,233	-200,000	-0,017	0,080
-384,219	69,186	-0,036	-0,027
-383,204	152,535	-0,083	0,083
-382,190	-143,677	-0,150	-0,010
-381,175	452,458	-0,016	0,027
-380,160	-147,579	-0,055	0,003
-379,146	19,057	0,049	0,029
-378,131	-98,439	0,201	-0,037
-377,117	-184,443	-0,071	0,001
-376,102	-200,000	-0,009	0,062
-375,088	-7,725	-0,074	-0,036
-374,073	79,554	0,012	-0,010
-373,058	126,884	0,062	0,058
-372,044	105,887	-0,079	0,068
-371,029	385,817	0,029	0,044
-370,015	-200,000	-0,003	0,017
-369,000	328,005	0,060	-0,084
-367,985	432,836	0,145	-0,230
-366,971	107,703	-0,008	0,007
-365,956	-109,654	-0,061	-0,009
-364,942	-200,000	0,041	0,180
-363,927	-200,000	0,010	0,103
-362,912	451,558	0,006	-0,010
-361,898	800,000	0,031	-0,094
-360,883	177,381	-0,100	-0,106
-359,869	96,373	0,036	0,030
-358,854	-200,000	-0,003	0,096
-357,839	-46,332	0,103	-0,036
-356,825	-39,640	0,139	-0,053
-355,810	-200,000	0,005	0,044
-354,796	159,827	0,124	-0,125
-353,781	-79,286	-0,093	-0,023
-352,766	53,352	-0,069	-0,048
-351,752	-200,000	0,006	-0,090
-350,737	158,295	0,048	0,048
-349,723	729,214	0,038	-0,073
-348,708	-200,000	0,000	-0,081
-347,693	800,000	-0,032	-0,100
-346,679	-200,000	0,001	0,025
-345,664	-198,129	0,177	0,001
-344,650	634,851	0,053	-0,098
-343,635	-200,000	0,021	0,123
-342,620	800,000	0,072	0,175
-341,606	-63,206	-0,060	-0,018
-340,591	653,083	-0,095	-0,177
-339,577	-118,603	0,139	0,018
-338,562	-10,447	0,067	0,032
-337,548	207,226	0,040	-0,045
-336,533	-71,980	-0,078	0,021
-335,518	109,147	0,036	-0,032
-334,504	619,503	-0,006	0,010
-333,489	-27,980	-0,109	-0,046
-332,475	-23,055	0,135	-0,059
-331,460	620,335	-0,046	-0,084
-330,445	183,563	0,107	-0,115
-329,431	-200,000	0,007	-0,117
-328,416	316,135	-0,043	-0,060
-327,402	-200,000	0,019	-0,072
-326,387	133,121	-0,043	0,040
-325,372	62,038	-0,127	-0,092
-324,358	41,084	0,080	-0,052
-323,343	800,000	0,030	-0,084
-322,329	26,918	0,023	0,014
-321,314	-200,000	-0,002	-0,066
-320,299	343,970	-0,038	-0,054
-319,285	18,867	-0,055	-0,032
-318,270	-1,787	-0,024	0,012
-317,256	-200,000	-0,012	-0,056
-316,241	-200,000	-0,002	-0,019
-315,226	800,000	-0,025	-0,075
-314,212	-200,000	0,006	0,100
-313,197	-200,000	0,017	0,054
-312,183	493,085	0,081	-0,135
-311,168	-200,000	-0,006	-0,187
-310,153	-40,934	-0,049	0,018
-309,139	800,000	-0,061	0,151
-308,124	800,000	0,024	0,072
-307,110	109,564	0,089	0,078
-306,095	4,798	-0,079	0,042
-305,080	-200,000	-0,052	0,170
-304,066	146,741	0,062	0,060
-303,051	-50,672	0,104	0,035
-302,037	-74,408	0,152	0,039
-301,022	-111,704	0,043	0,006
-300,008	-95,332	0,143	0,028
-298,993	-200,000	0,019	0,112
-297,978	-67,993	0,018	0,005
-296,964	-151,969	0,072	0,004
-295,949	-55,436	0,069	-0,022
-294,935	10,657	-0,038	0,021
-293,920	-200,000	-0,017	-0,081
-292,905	487,222	-0,059	0,099
-291,891	410,953	-0,021	-0,032
-290,876	-200,000	0,008	-0,040
-289,862	800,000	0,066	0,159
-288,847	800,000	-0,017	-0,054
-287,832	-200,000	0,016	-0,149
-286,818	-187,389	-0,088	0,001
-285,803	800,000	0,066	0,183
-284,789	-22,394	0,022	0,010
-283,774	108,840	-0,035	-0,030
-282,759	120,410	0,059	0,053
-281,745	98,044	0,031	-0,026
-280,730	32,419	0,069	0,043
-279,716	-64,956	-0,123	0,036
-278,701	-65,404	-0,010	0,003
-277,686	264,633	0,062	0,078
-276,672	-200,000	-0,013	0,056
-275,657	-39,058	-0,046	-0,017
-274,643	800,000	-0,049	-0,099
-273,628	-51,406	-0,012	-0,004
-272,613	336,364	0,040	-0,056
-271,599	573,404	-0,064	0,113
-270,584	62,276	-0,069	0,050
-269,570	9,173	0,102	0,056
-268,555	-9,464	-0,087	0,042
-267,540	800,000	0,046	0,094
-266,526	45,610	0,153	0,102
-265,511	-200,000	-0,011	-0,143
-264,497	-94,917	0,042	-0,008
-263,482	190,276	0,028	0,030
-262,467	36,977	0,083	0,053
-261,453	15,141	0,034	-0,019
-260,438	-30,511	-0,074	-0,030
-259,424	-11,383	-0,072	0,034
-258,409	-12,499	0,039	-0,018
-257,395	-24,792	0,146	-0,062
-256,380	211,055	-0,058	-0,067
-255,365	-51,106	0,123	0,041
-254,351	691,586	-0,037	0,070
-253,336	-145,183	-0,058	0,004
-252,322	-200,000	-0,018	-0,122
-251,307	-61,842	0,118	0,035
-250,292	800,000	-0,042	-0,115
-249,278	-48,172	-0,091	0,032
-248,263	392,164	0,052	0,079
-247,249	698,282	0,052	-0,100
-246,234	162,658	-0,069	0,070
-245,219	-200,000	-0,001	-0,047
-244,205	152,902	0,028	0,028
-243,190	800,000	-0,023	-0,054
-242,176	549,691	-0,045	-0,079
-241,161	51,370	-0,031	0,021
-240,146	-135,667	-0,157	-0,013
-239,132	-200,000	0,014	-0,048
-238,117	-200,000	0,001	0,150
-237,103	-200,000	-0,024	-0,082
-236,088	-200,000	0,019	-0,171
-235,073	37,631	-0,084	-0,054
-234,059	153,131	0,018	0,018
-233,044	-200,000	-0,012	0,071
-232,030	-82,053	-0,102	0,024
-231,015	-4,372	0,064	-0,032
-230,000	130,319	-0,083	0,077
-228,986	800,000	-0,039	-0,090
-227,971	-138,956	-0,086	0,007
-226,957	800,000	0,013	0,035
-225,942	287,644	-0,014	0,018
-224,927	-187,508	0,076	0,001
-223,913	56,575	0,146	-0,102
-222,898	-76,534	0,020	0,005
-221,884	-89,772	-0,129	0,027
-220,869	-101,195	0,051	-0,009
-219,855	108,457	0,073	-0,063
-218,840	476,911	-0,046	0,076
-217,825	433,680	-0,051	-0,081
-216,811	55,703	-0,125	-0,087
-215,796	800,000	0,044	-0,100
-214,782	-200,000	0,010	0,071
-213,767	121,047	-0,036	-0,032
-212,752	800,000	0,083	0,192
-211,738	122,104	0,041	-0,037
-210,723	125,262	-0,060	-0,055
-209,709	-200,000	-0,003	-0,099
-208,694	-200,000	-0,027	-0,090
-207,679	263,154	-0,106	-0,134
-206,665	-200,000	0,107	-0,000
-205,650	42,670	-0,105	0,069
-204,636	-45,422	0,122	-0,043
-203,621	-200,000	-0,014	-0,054
-202,606	621,241	0,025	-0,045
-201,592	-200,000	-0,005	0,030
-200,577	13,893	-0,083	-0,047
-199,563	13,412	0,141	-0,079
-198,548	-200,000	-0,033	0,155
-197,533	-83,005	0,136	0,031
-196,519	168,856	0,105	0,109
-195,504	-138,513	-0,113	0,009
-194,490	559,942	0,025	-0,044
-193,475	2,734	-0,025	0,013
-192,460	800,000	0,066	-0,190
-191,446	-8,882	-0,057	0,028
-190,431	-146,635	-0,081	-0,005
-189,417	-200,000	-0,004	0,073
-188,402	283,639	0,066	-0,086
-187,387	183,780	0,088	-0,094
-186,373	-51,090	-0,146	-0,049
-185,358	800,000	0,032	-0,079
-184,344	426,762	-0,055	-0,085
-183,329	684,910	-0,012	0,023
-182,315	-31,792	0,089	-0,036
-181,300	-191,826	0,035	-0,000
-180,285	-200,000	0,041	0,177
-179,271	800,000	0,070	0,159
-178,256	619,418	-0,041	0,076
-177,242	800,000	0,009	-0,023
-176,227	-46,800	0,116	0,041
-175,212	221,602	0,090	0,104
-174,198	-200,000	0,149	0,000
-173,183	502,898	-0,053	-0,089
-172,169	-107,111	0,058	-0,009
-171,154	-64,833	-0,106	-0,031
-170,139	800,000	0,087	0,174
-169,125	800,000	-0,014	0,032
-168,110	-200,000	0,020	-0,081
-167,096	-19,005	-0,096	-0,043
-166,081	-200,000	-0,018	-0,138
-165,066	111,822	-0,148	0,128
-164,052	460,667	0,061	-0,098
-163,037	16,918	0,070	0,040
-162,023	-121,083	-0,057	0,007
-161,008	175,568	0,077	0,081
-159,993	-134,239	0,088	-0,008
-158,979	-119,970	0,077	0,009
-157,964	-51,520	-0,093	0,031
-156,950	-113,190	-0,033	0,005
-155,935	116,637	-0,015	-0,013
-154,920	800,000	0,024	0,059
-153,906	-200,000	0,020	-0,118
-152,891	-37,301	-0,031	-0,012
-151,877	-200,000	-0,009	0,058
-150,862	-132,953	-0,128	-0,012
-149,847	26,757	0,088	-0,053
-148,833	501,126	-0,042	-0,071
-147,818	-178,612	0,056	-0,001
-146,804	401,183	0,040	0,061
-145,789	112,827	0,049	-0,043
-144,775	1,245	-0,027	-0,014
-143,760	25,362	0,039	-0,023
-142,745	-200,000	-0,011	-0,070
-141,731	104,892	0,100	-0,085
-140,716	-200,000	0,086	-0,000
-139,702	-104,879	0,058	0,009
-138,687	8,443	-0,095	0,051
-137,672	536,286	-0,059	0,101
-136,658	-200,000	-0,020	-0,091
-135,643	-106,983	-0,206	-0,032
-134,629	-200,000	0,015	0,054
-133,614	39,792	0,041	-0,026
-132,599	-200,000	0,005	0,107
-131,585	553,347	-0,128	0,223
-130,570	-81,022	-0,132	0,031
-129,556	629,907	0,109	-0,199
-128,541	76,995	-0,100	0,076
-127,526	94,058	-0,036	0,029
-126,512	1,585	-0,051	-0,027
-125,497	-1,889	-0,079	0,040
-124,483	-200,000	0,015	-0,083
-123,468	199,257	-0,031	-0,034
-122,453	71,382	-0,035	0,026
-121,439	-95,768	-0,124	-0,024
-120,424	556,714	-0,052	-0,091
-119,410	800,000	0,025	0,065
-118,395	600,489	-0,016	-0,029
-117,380	100,532	0,026	0,022
-116,366	-200,000	0,011	0,099
-115,351	-55,265	-0,071	0,023
-114,337	-200,000	0,002	-0,146
-113,322	59,421	0,086	0,061
-112,307	298,037	0,045	-0,059
-111,293	-97,168	0,070	-0,013
-110,278	47,901	-0,026	0,018
-109,264	-200,000	0,002	-0,052
-108,249	-161,597	0,153	-0,006
-107,234	264,968	-0,065	0,082
-106,220	-116,438	0,105	0,014
-105,205	-200,000	0,010	0,064
-104,191	30,625	-0,024	-0,014
-103,176	-67,632	0,023	-0,007
-102,162	309,614	0,083	0,112
-101,147	-200,000	0,003	-0,049
-100,132	99,964	0,051	-0,042
-99,118	-200,000	-0,043	0,185
-98,103	800,000	0,034	0,095
-97,089	12,952	-0,087	-0,048
-96,074	-200,000	0,032	0,139
-95,059	-165,091	-0,091	-0,003
-94,045	-200,000	-0,005	-0,069
-93,030	1,818	-0,132	0,068
-92,016	800,000	-0,031	-0,094
-91,001	-200,000	0,039	0,143
-89,986	-16,979	0,055	0,025
-88,972	-200,000	0,019	-0,062
-87,957	-200,000	0,017	0,095
-86,943	-21,176	-0,083	-0,036
-85,928	211,691	0,056	-0,063
-84,913	207,010	0,045	0,050
-83,899	-133,765	0,053	0,005
-82,884	107,838	-0,110	-0,094
-81,870	-98,001	0,205	-0,038
-80,855	-200,000	0,000	0,187
-79,840	54,736	-0,109	-0,075
-78,826	-200,000	0,027	-0,139
-77,811	-142,049	-0,092	0,006
-76,797	737,658	-0,051	0,098
-75,782	-93,699	0,045	-0,009
-74,767	130,559	0,057	-0,052
-73,753	148,181	0,077	-0,075
-72,738	389,702	-0,039	0,058
-71,724	800,000	-0,045	-0,099
-70,709	-2,457	-0,083	-0,041
-69,694	658,137	0,057	-0,105
-68,680	244,957	0,102	0,123
-67,665	-9,250	0,088	-0,042
-66,651	130,483	0,070	-0,065
-65,636	-132,888	0,110	0,010
-64,622	-200,000	0,024	-0,170
-63,607	-38,154	-0,084	-0,032
-62,592	401,337	0,047	-0,072
-61,578	436,040	0,024	-0,038
-60,563	111,795	-0,075	0,065
-59,549	-95,517	0,086	0,016
-58,534	-13,217	-1,902	-0,884
-57,519	-200,000	-0,282	-1,027
-56,505	-200,000	-1,343	-5,050
-55,490	30,656	0,628	0,385
-54,476	800,000	5,358	12,270
-53,461	-200,000	17,433	282,962
-52,446	800,000	724,688	2218,059
-51,432	538,569	1641,141	2812,668
-50,417	110,731	1632,780	1409,995
-49,403	75,250	1286,486	973,116
-48,388	32,314	1028,143	635,815
-47,373	20,177	989,874	572,102
-46,359	18,636	977,889	560,096
-45,344	15,925	974,061	549,001
-44,330	16,172	972,459	548,883
-43,315	15,681	970,704	546,270
-42,300	15,600	969,742	545,441
-41,286	15,627	968,727	544,936
-40,271	15,639	967,699	544,375
-39,257	15,648	966,701	543,823
-38,242	15,680	965,803	543,398
-37,227	15,629	965,006	542,765
-36,213	15,624	964,329	542,343
-35,198	15,644	963,260	541,786
-34,184	15,778	962,402	541,716
-33,169	15,679	961,671	540,962
-32,154	15,693	960,501	540,330
-31,140	15,662	959,881	539,859
-30,125	15,741	959,082	539,643
-29,111	15,669	958,272	538,934
-28,096	15,675	957,805	538,669
-27,082	15,651	957,075	538,159
-26,067	15,651	956,120	537,602
-25,052	15,691	955,322	537,259
-24,038	15,666	954,723	536,821
-23,023	15,692	954,009	536,482
-22,009	15,670	953,532	536,123
-20,994	15,672	952,847	535,721
-19,979	15,617	952,327	535,234
-18,965	15,660	951,482	534,874
-17,950	15,723	950,992	534,777
-16,936	15,602	950,305	533,984
-15,921	15,683	949,464	533,748
-14,906	15,541	948,869	532,940
-13,892	15,567	948,210	532,633
-12,877	15,499	947,776	532,149
-11,863	15,513	947,173	531,835
-10,848	15,539	946,620	531,586
-9,833	15,613	946,097	531,508
-8,819	15,616	945,428	531,118
-7,804	15,525	944,796	530,453
-6,790	15,520	944,335	530,157
-5,775	15,588	943,643	529,965
-4,760	15,537	943,013	529,427
-3,746	15,587	942,394	529,218
-2,731	15,401	941,754	528,249
-1,717	15,372	941,257	527,857
-0,702	15,360	940,535	527,392
0,313	15,192	939,808	527,251
1,327	18,316	937,583	535,806
2,342	27,079	794,697	477,387
3,356	23,748	459,018	270,619
4,371	-3,252	313,949	156,424
5,386	-7,141	295,632	143,354
6,400	-9,363	289,665	138,246
7,415	-9,551	287,264	136,903
8,429	-9,866	285,893	135,929
9,444	-9,797	284,826	135,476
10,459	-9,852	284,318	135,170
11,473	-9,956	283,657	134,743
12,488	-9,747	283,194	134,713
13,502	-9,927	282,746	134,313
14,517	-9,724	282,321	134,296
15,531	-9,553	281,788	134,196
16,546	-9,616	281,500	133,986
17,561	-9,737	281,059	133,648
18,575	-9,477	280,684	133,707
19,590	-9,813	280,345	133,211
20,604	-9,745	280,129	133,161
21,619	-9,743	279,667	132,932
22,634	-9,804	279,413	132,742
23,648	-9,760	278,971	132,562
24,663	-9,795	278,680	132,378
25,677	-10,034	278,701	132,148
26,692	-9,863	278,279	132,099
27,707	-9,602	278,041	132,222
28,721	-9,649	277,736	132,021
29,736	-9,869	277,418	131,650
30,750	-9,670	277,085	131,668
31,765	-9,917	277,053	131,408
32,780	-9,894	276,831	131,313
33,794	-9,777	276,518	131,263
34,809	-9,717	276,215	131,164
35,823	-10,045	276,155	130,814
36,838	-9,881	275,623	130,705
37,853	-9,846	275,551	130,692
38,867	-9,798	275,225	130,571
39,882	-9,816	275,067	130,467
40,896	-9,892	274,780	130,249
41,911	-9,701	274,486	130,276
42,926	-9,713	274,308	130,169
43,940	-9,763	273,912	129,923
44,955	-9,737	273,863	129,912
45,969	-9,884	273,571	129,625
46,984	-10,160	273,170	129,166
47,999	-10,311	273,035	128,950
49,013	-10,199	272,756	128,911
50,028	-10,326	272,498	128,659
51,042	-10,550	272,112	128,258
52,057	-10,599	272,136	128,212
53,071	-10,358	271,756	128,245
54,086	-10,210	271,533	128,266
55,101	-10,198	271,447	128,225
56,115	-10,071	271,224	128,225
57,130	-9,745	271,091	128,452
58,144	-9,826	271,070	128,356
59,159	-9,746	270,647	128,218
60,174	-9,783	270,530	128,117
61,188	-9,729	270,235	128,015
62,203	-9,681	270,000	127,937
63,217	-9,653	269,795	127,854
64,232	-9,721	269,657	127,715
65,247	-9,837	269,372	127,462
66,261	-9,999	269,280	127,259
67,276	-9,931	268,808	127,087
68,290	-10,176	268,664	126,783
69,305	-10,005	268,248	126,732
70,320	-9,937	268,031	126,679
71,334	-9,705	267,964	126,848
72,349	-9,757	267,905	126,761
73,363	-9,850	267,723	126,579
74,378	-9,782	267,346	126,452
75,393	-9,846	267,128	126,279
76,407	-9,723	267,062	126,349
77,422	-9,641	266,741	126,260
78,436	-9,898	266,658	125,976
79,451	-9,798	266,262	125,868
80,466	-9,768	266,061	125,789
81,480	-9,770	265,831	125,668
82,495	-9,980	265,749	125,428
83,509	-9,783	265,455	125,456
84,524	-9,896	265,174	125,210
85,539	-10,002	264,957	125,001
86,553	-10,111	264,773	124,804
87,568	-9,845	264,734	125,014
88,582	-10,065	264,294	124,598
89,597	-10,154	264,225	124,474
90,611	-9,779	264,161	124,770
91,626	-9,820	263,968	124,631
92,641	-9,741	263,753	124,589
93,655	-9,805	263,372	124,341
94,670	-9,871	263,306	124,239
95,684	-9,835	262,979	124,107
96,699	-9,894	262,804	123,959
97,714	-9,854	262,729	123,949
98,728	-9,935	262,470	123,743
99,743	-10,035	262,173	123,504
100,757	-10,100	262,048	123,376
101,772	-9,967	261,816	123,374
102,787	-9,680	261,451	123,446
103,801	-9,824	261,304	123,238
104,816	-9,818	261,302	123,231
105,830	-9,791	261,097	123,147
106,845	-9,714	260,932	123,127
107,860	-9,748	260,658	122,956
108,874	-9,608	260,499	122,994
109,889	-9,892	260,321	122,648
110,903	-9,968	260,075	122,454
111,918	-9,801	259,794	122,459
112,933	-9,803	259,695	122,399
113,947	-9,857	259,619	122,304
114,962	-9,759	259,328	122,243
115,976	-9,630	259,109	122,242
116,991	-10,037	259,039	121,841
118,006	-9,562	258,624	122,051
119,020	-9,799	258,606	121,823
120,035	-9,689	258,586	121,900
121,049	-9,754	258,389	121,739
122,064	-9,600	257,947	121,655
123,079	-9,656	257,769	121,511
124,093	-9,628	257,722	121,503
125,108	-9,779	257,312	121,167
126,122	-10,131	257,203	120,798
127,137	-10,095	256,952	120,700
128,151	-9,979	256,849	120,743
129,166	-9,947	256,566	120,626
130,181	-9,852	256,409	120,624
131,195	-10,135	256,266	120,301
132,210	-9,891	256,037	120,394
133,224	-9,718	255,910	120,474
134,239	-9,772	255,772	120,350
135,254	-9,721	255,404	120,211
136,268	-9,843	255,388	120,087
137,283	-10,022	254,967	119,724
138,297	-10,205	254,806	119,480
139,312	-10,193	254,737	119,447
140,327	-9,914	254,494	119,563
141,341	-9,673	254,383	119,708
142,356	-9,550	254,236	119,734
143,370	-9,700	254,179	119,567
144,385	-9,619	254,040	119,561
145,400	-9,594	253,698	119,410
146,414	-9,746	253,598	119,223
147,429	-9,471	253,334	119,323
148,443	-9,338	253,089	119,311
149,458	-9,582	252,994	119,047
150,473	-9,460	252,853	119,074
151,487	-9,671	252,521	118,728
152,502	-9,726	252,494	118,657
153,516	-9,541	252,220	118,675
154,531	-9,613	252,001	118,501
155,546	-9,649	251,900	118,412
156,560	-9,704	251,828	118,321
157,575	-9,812	251,547	118,086
158,589	-9,552	251,411	118,232
159,604	-9,464	251,112	118,156
160,619	-9,342	250,884	118,142
161,633	-9,761	250,897	117,782
162,648	-9,413	250,559	117,907
163,662	-9,481	250,473	117,799
164,677	-9,578	250,384	117,665
165,692	-9,517	250,127	117,585
166,706	-9,416	249,820	117,515
167,721	-9,580	249,782	117,349
168,735	-9,538	249,537	117,258
169,750	-9,545	249,560	117,253
170,764	-9,445	249,343	117,225
171,779	-9,522	249,295	117,127
172,794	-9,516	248,980	116,973
173,808	-9,487	248,828	116,916
174,823	-9,767	248,472	116,504
175,837	-10,229	248,419	116,081
176,852	-9,618	248,255	116,505
177,867	-9,705	248,405	116,492
178,881	-9,548	247,876	116,366
179,896	-9,631	247,991	116,340
180,910	-9,496	247,645	116,280
181,925	-9,479	247,614	116,269
182,940	-9,458	247,440	116,194
183,954	-9,681	247,240	115,905
184,969	-9,724	247,183	115,831
185,983	-9,658	246,988	115,785
186,998	-9,333	246,578	115,852
188,013	-9,478	246,376	115,627
189,027	-9,538	246,418	115,586
190,042	-9,585	246,082	115,380
191,056	-9,676	246,069	115,288
192,071	-9,333	245,768	115,420
193,086	-9,514	245,626	115,194
194,100	-9,599	245,622	115,111
195,115	-9,376	245,190	115,082
196,129	-9,516	244,949	114,844
197,144	-9,508	244,827	114,783
198,159	-9,678	244,811	114,625
199,173	-9,695	244,478	114,445
200,188	-9,620	244,347	114,435
201,202	-9,594	244,138	114,348
202,217	-10,020	243,765	113,814
203,232	-9,852	243,583	113,856
204,246	-9,803	243,622	113,905
205,261	-9,533	243,592	114,102
206,275	-10,165	243,020	113,307
207,290	-7,572	244,459	116,100
208,304	-0,613	246,396	122,761
209,319	3,040	247,366	126,256
210,334	3,357	247,386	126,517
211,348	3,661	247,370	126,749
212,363	3,928	247,189	126,865
213,377	3,968	247,214	126,900
214,392	3,839	246,845	126,592
215,407	3,705	246,647	126,370
216,421	3,672	246,472	126,241
217,436	3,910	246,517	126,449
218,450	4,105	246,191	126,431
219,465	3,661	245,992	125,952
220,480	3,361	246,016	125,707
221,494	3,499	245,716	125,656
222,509	3,576	245,533	125,614
223,523	3,448	245,356	125,407
224,538	3,322	245,015	125,119
225,553	3,308	244,838	125,006
226,567	3,442	244,634	125,000
227,582	3,660	244,722	125,212
228,596	3,592	244,656	125,112
229,611	3,298	244,277	124,667
230,626	3,154	244,198	124,499
231,640	3,284	243,866	124,424
232,655	3,453	243,850	124,542
233,669	3,385	243,566	124,330
234,684	3,075	243,467	124,017
235,699	3,542	243,360	124,331
236,713	3,735	243,270	124,430
237,728	3,281	243,094	123,961
238,742	3,205	242,701	123,689
239,757	3,109	242,650	123,574
240,772	3,024	242,487	123,410
241,786	3,383	242,281	123,585
242,801	3,164	242,319	123,417
243,815	3,189	242,084	123,306
244,830	3,368	241,949	123,370
245,844	3,482	241,715	123,332
246,859	3,352	241,566	123,140
247,874	3,470	241,385	123,132
248,888	3,398	241,300	123,019
249,903	3,391	241,070	122,886
250,917	3,552	241,023	122,980
251,932	3,647	240,897	122,981
252,947	3,523	240,764	122,803
253,961	3,256	240,556	122,472
254,976	3,472	240,394	122,552
255,990	3,723	240,184	122,633
257,005	3,346	240,098	122,278
258,020	3,196	239,782	121,986
259,034	3,322	239,704	122,037
260,049	3,339	239,763	122,069
261,063	3,125	239,412	121,709
262,078	3,450	239,122	121,810
263,093	3,670	239,032	121,927
264,107	3,478	239,011	121,753
265,122	3,172	238,851	121,418
266,136	3,386	238,778	121,540
267,151	3,673	238,556	121,644
268,166	3,304	238,366	121,243
269,180	3,040	238,226	120,952
270,195	3,718	238,272	121,502
271,209	4,059	238,026	121,635
272,224	3,442	237,851	121,047
273,239	3,019	237,457	120,503
274,253	3,043	237,525	120,546
275,268	3,271	237,272	120,585
276,282	3,405	237,093	120,589
277,297	3,244	236,873	120,341
278,312	3,394	236,741	120,380
279,326	3,510	236,679	120,429
280,341	3,459	236,490	120,282
281,355	3,515	236,373	120,255
282,370	3,690	236,249	120,319
283,384	3,272	236,125	119,918
284,399	3,052	235,975	119,658
285,414	3,007	235,748	119,497
286,428	3,199	235,582	119,553
287,443	3,223	235,451	119,494
288,457	3,379	235,353	119,556
289,472	3,626	235,204	119,662
290,487	3,457	234,961	119,396
291,501	3,240	234,765	119,117
292,516	3,005	234,553	118,816
293,530	2,943	234,574	118,768
294,545	3,221	234,414	118,893
295,560	3,352	234,173	118,861
296,574	3,025	233,914	118,466
297,589	3,113	233,982	118,558
298,603	3,601	233,851	118,859
299,618	3,680	233,625	118,794
300,633	3,528	233,608	118,658
301,647	3,766	233,516	118,785
302,662	3,995	233,384	118,884
303,676	3,845	233,223	118,675
304,691	3,849	232,973	118,540
305,706	3,861	232,891	118,498
306,720	3,743	232,678	118,288
307,735	3,654	232,499	118,118
308,749	3,548	232,382	117,967
309,764	3,403	232,074	117,688
310,779	3,229	232,043	117,529
311,793	3,003	231,798	117,220
312,808	2,966	231,746	117,155
313,822	3,186	231,416	117,146
314,837	2,940	231,359	116,919
315,852	2,775	231,276	116,740
316,866	3,465	231,161	117,199
317,881	3,580	231,024	117,207
318,895	3,669	230,929	117,217
319,910	3,837	230,818	117,278
320,925	3,565	230,491	116,894
321,939	3,225	230,454	116,606
322,954	3,647	230,273	116,825
323,968	3,166	230,121	116,372
324,983	3,111	229,740	116,127
325,997	3,196	229,729	116,175
327,012	3,551	229,797	116,469
328,027	3,321	229,640	116,205
329,041	3,686	229,527	116,414
330,056	4,139	229,468	116,716
331,070	3,934	229,283	116,457
332,085	3,581	228,826	115,948
333,100	3,677	228,865	116,030
334,114	3,575	228,828	115,923
335,129	3,972	228,592	116,093
336,143	3,587	228,448	115,719
337,158	3,566	228,487	115,713
338,173	3,588	228,207	115,577
339,187	3,693	228,006	115,544
340,202	3,847	227,967	115,630
341,216	3,815	227,721	115,471
342,231	3,640	227,612	115,274
343,246	3,500	227,449	115,076
344,260	3,816	227,424	115,290
345,275	3,883	227,238	115,236
346,289	4,001	227,079	115,234
347,304	3,982	226,966	115,152
348,319	4,093	226,620	115,049
349,333	3,723	226,603	114,753
350,348	3,489	226,356	114,444
351,362	3,622	226,416	114,563
352,377	3,450	226,200	114,315
353,392	3,335	225,959	114,097
354,406	3,327	225,792	113,997
355,421	196,360	1322,245	1402,318
356,435	157,415	1455,844	1402,312
