DTS Sentinel unit serial number:	SN410029Multiplexer serial number:	ORYXHardware model number:	OX2-SRSoftware version number:	ORYX F/W v4,00 Oryx Data Collector v3.7.2.0data status	okinstallation	B5 Nyhavnadifferential loss correction	single-endedforward channel	channel 2reverse channel	N/Adate	2023/12/11time	17:47:13forward acquisition time	300,00reverse acquisition time	0,00gamma	499,1914k internal	0,3163k external	0,3163temperature offset calibration	1,0000default loss term (dB/km)	0,3820temperature slope calibration	1,0000multiplexer offset coefficient	1,0000multiplexer slope coefficient	1,0000fibre end	0,00T internal ref (°C)	14,87T ext. ref 1 (°C)	-0,64T ext. ref 2 (°C)	-0,88length (m)	temperature (°C)	Stokes	anti-Stokes-744,400	-128,359	0,106	-0,011
-743,385	-83,430	-0,256	0,060
-742,371	800,000	0,056	0,116
-741,356	-101,320	-0,231	0,041
-740,342	152,375	0,091	-0,091
-739,327	-5,501	-0,232	0,117
-738,312	444,129	-0,053	-0,086
-737,298	9,229	-0,215	0,119
-736,283	214,505	0,073	-0,085
-735,269	-82,101	-0,291	-0,069
-734,254	-167,090	0,153	0,004
-733,239	-25,191	-0,387	-0,168
-732,225	800,000	0,014	0,041
-731,210	120,989	0,061	0,056
-730,196	535,282	0,051	0,090
-729,181	800,000	0,045	0,129
-728,167	-163,027	-0,185	0,006
-727,152	117,003	-0,060	0,054
-726,137	22,297	0,038	0,023
-725,123	-200,000	0,025	-0,140
-724,108	-200,000	0,007	-0,031
-723,094	690,487	-0,066	-0,128
-722,079	-11,967	-0,160	-0,077
-721,064	193,344	0,167	-0,186
-720,050	-64,867	0,075	-0,022
-719,035	-200,000	0,005	0,067
-718,021	46,560	-0,102	-0,069
-717,006	-1,182	-0,082	0,042
-715,991	800,000	-0,054	-0,112
-714,977	-138,265	-0,172	0,014
-713,962	-123,134	0,054	0,006
-712,948	-54,385	0,031	-0,010
-711,933	-59,254	-0,120	-0,038
-710,918	310,796	-0,086	-0,119
-709,904	-200,000	-0,021	0,109
-708,889	-86,117	-0,069	-0,015
-707,875	800,000	-0,042	-0,098
-706,860	-164,420	0,080	0,003
-705,845	-200,000	0,014	0,088
-704,831	800,000	-0,032	-0,098
-703,816	-119,788	0,060	-0,007
-702,802	124,993	0,043	0,040
-701,787	125,875	0,063	-0,058
-700,772	9,451	-0,101	-0,056
-699,758	-131,855	-0,028	0,003
-698,743	800,000	-0,028	0,061
-697,729	10,605	0,041	0,023
-696,714	265,866	0,066	-0,085
-695,699	800,000	0,026	0,053
-694,685	82,132	-0,162	-0,129
-693,670	-57,625	-0,014	-0,005
-692,656	800,000	0,020	-0,050
-691,641	-166,419	0,026	-0,001
-690,627	-200,000	0,006	-0,023
-689,612	-47,000	-0,055	0,020
-688,597	800,000	-0,060	-0,131
-687,583	-121,185	-0,040	-0,005
-686,568	-92,695	-0,107	0,022
-685,554	17,025	-0,022	0,012
-684,539	114,437	-0,084	0,075
-683,524	-200,000	0,031	0,165
-682,510	169,077	-0,013	0,013
-681,495	-27,957	-0,169	-0,071
-680,481	-68,076	-0,064	0,018
-679,466	-200,000	-0,006	-0,077
-678,451	20,071	-0,140	-0,083
-677,437	267,425	0,063	0,082
-676,422	51,435	0,069	-0,048
-675,408	-200,000	0,036	0,128
-674,393	45,967	-0,028	0,019
-673,378	1,591	0,024	-0,013
-672,364	-200,000	0,006	0,083
-671,349	229,701	0,027	-0,033
-670,335	-200,000	0,021	0,198
-669,320	-200,000	-0,015	0,050
-668,305	800,000	0,038	-0,080
-667,291	800,000	0,009	-0,023
-666,276	92,368	-0,146	-0,121
-665,262	44,517	-0,180	-0,121
-664,247	682,182	0,016	0,031
-663,232	-200,000	0,009	0,056
-662,218	413,134	0,083	-0,130
-661,203	68,650	-0,114	-0,086
-660,189	44,063	-0,029	-0,019
-659,174	-71,344	-0,054	0,015
-658,159	-64,729	-0,093	0,027
-657,145	50,372	0,046	0,032
-656,130	800,000	0,029	-0,088
-655,116	800,000	0,066	-0,135
-654,101	-50,680	0,094	-0,032
-653,086	-200,000	-0,034	0,112
-652,072	-188,251	0,090	-0,001
-651,057	460,280	-0,084	-0,138
-650,043	152,351	-0,040	-0,041
-649,028	800,000	-0,057	-0,143
-648,014	197,240	-0,057	-0,064
-646,999	301,825	-0,112	-0,152
-645,984	-39,148	0,139	0,053
-644,970	-97,329	-0,048	0,009
-643,955	167,309	-0,081	-0,084
-642,941	5,813	-0,148	0,080
-641,926	536,363	0,043	0,075
-640,911	-97,263	-0,161	-0,031
-639,897	-39,849	0,058	-0,022
-638,882	71,938	-0,038	0,029
-637,868	23,109	-0,182	0,109
-636,853	202,273	-0,124	0,141
-635,838	-200,000	-0,002	0,071
-634,824	-200,000	0,003	-0,185
-633,809	218,095	0,059	-0,070
-632,795	-66,254	0,171	-0,050
-631,780	800,000	0,032	0,067
-630,765	-145,261	-0,153	-0,010
-629,751	-76,820	-0,043	-0,011
-628,736	-145,451	0,031	0,002
-627,722	655,487	-0,089	-0,169
-626,707	331,295	-0,062	0,088
-625,692	323,812	-0,043	-0,060
-624,678	38,247	-0,075	0,049
-623,663	111,656	-0,042	0,037
-622,649	-200,000	-0,003	-0,018
-621,634	-200,000	0,013	-0,045
-620,619	-59,236	-0,037	-0,012
-619,605	83,899	0,104	0,083
-618,590	105,186	0,182	0,157
-617,576	-60,578	-0,141	-0,043
-616,561	622,264	-0,018	-0,034
-615,546	22,320	-0,065	-0,039
-614,532	-26,848	-0,053	-0,023
-613,517	369,006	-0,088	-0,131
-612,503	-27,948	0,183	0,077
-611,488	-72,493	0,053	-0,014
-610,474	333,058	-0,054	0,076
-609,459	-200,000	0,015	0,160
-608,444	400,422	-0,030	0,046
-607,430	-200,000	-0,005	-0,044
-606,415	136,752	0,053	-0,051
-605,401	800,000	0,045	-0,093
-604,386	-15,986	0,057	-0,026
-603,371	800,000	-0,043	0,089
-602,357	-10,587	-0,071	-0,034
-601,342	-22,182	-0,009	-0,004
-600,328	-23,950	-0,076	-0,033
-599,313	255,036	0,045	-0,057
-598,298	-159,346	0,146	-0,006
-597,284	356,224	-0,035	0,051
-596,269	-200,000	0,024	0,080
-595,255	-200,000	0,014	-0,074
-594,240	800,000	-0,050	-0,125
-593,225	285,047	-0,058	-0,077
-592,211	800,000	-0,060	-0,137
-591,196	-200,000	-0,013	-0,086
-590,182	383,304	-0,008	0,012
-589,167	677,267	-0,010	-0,019
-588,152	-200,000	0,032	0,108
-587,138	800,000	-0,026	0,074
-586,123	-67,391	0,012	-0,003
-585,109	7,506	-0,183	-0,100
-584,094	-128,149	0,085	0,009
-583,079	626,165	0,078	-0,144
-582,065	-55,377	0,101	0,033
-581,050	429,785	-0,014	0,022
-580,036	-21,132	0,079	0,035
-579,021	175,570	0,053	-0,056
-578,006	-141,657	0,114	-0,008
-576,992	28,126	0,072	-0,044
-575,977	-135,291	-0,199	-0,017
-574,963	-49,588	0,082	-0,028
-573,948	-45,377	-0,090	-0,033
-572,934	-46,569	0,041	-0,015
-571,919	800,000	-0,036	-0,090
-570,904	-186,849	-0,081	0,001
-569,890	-120,001	-0,025	0,003
-568,875	-200,000	0,028	0,125
-567,861	-10,392	0,104	-0,050
-566,846	480,442	0,036	0,060
-565,831	112,923	0,027	-0,024
-564,817	-67,397	-0,066	-0,019
-563,802	272,845	0,061	-0,078
-562,788	-52,676	-0,065	0,022
-561,773	9,483	0,075	-0,041
-560,758	135,565	0,075	0,071
-559,744	-89,513	-0,075	0,016
-558,729	516,688	0,024	0,042
-557,715	-20,585	-0,018	0,008
-556,700	100,897	-0,009	0,008
-555,685	566,015	-0,058	-0,104
-554,671	75,894	0,100	0,077
-553,656	-73,846	0,103	-0,027
-552,642	-200,000	0,019	0,136
-551,627	-8,448	0,087	-0,042
-550,612	-200,000	0,016	0,074
-549,598	-200,000	0,002	-0,073
-548,583	231,760	0,107	-0,128
-547,569	-63,204	0,072	0,022
-546,554	64,036	-0,036	0,026
-545,539	-166,090	-0,171	-0,005
-544,525	142,481	0,039	0,038
-543,510	92,465	0,087	-0,072
-542,496	-129,341	-0,055	0,006
-541,481	-0,137	0,125	-0,065
-540,466	317,569	0,046	0,063
-539,452	82,396	-0,124	-0,098
-538,437	321,781	0,104	-0,145
-537,423	-200,000	-0,004	-0,097
-536,408	284,856	0,089	-0,117
-535,393	245,784	0,036	0,044
-534,379	-200,000	-0,005	-0,087
-533,364	43,651	-0,115	-0,076
-532,350	-69,545	-0,115	0,032
-531,335	-200,000	0,167	0,001
-530,321	15,457	0,069	-0,040
-529,306	348,591	0,042	-0,061
-528,291	-35,535	-0,149	0,059
-527,277	800,000	-0,071	-0,187
-526,262	-138,426	0,062	-0,005
-525,248	-200,000	0,002	0,058
-524,233	-145,307	-0,179	0,012
-523,218	800,000	0,042	0,099
-522,204	-200,000	-0,001	0,034
-521,189	-200,000	0,003	-0,054
-520,175	800,000	0,014	0,030
-519,160	424,457	0,020	0,031
-518,145	-22,986	0,067	-0,029
-517,131	70,065	-0,140	0,105
-516,116	-200,000	0,010	0,110
-515,102	-12,281	-0,045	-0,021
-514,087	-29,903	-0,188	-0,078
-513,072	69,287	-0,045	-0,034
-512,058	594,810	0,101	0,183
-511,043	-90,491	-0,064	0,013
-510,029	-200,000	0,017	0,075
-509,014	-200,000	-0,008	-0,033
-507,999	-200,000	-0,010	-0,136
-506,985	422,667	0,073	-0,114
-505,970	76,757	-0,066	0,051
-504,956	800,000	-0,037	-0,085
-503,941	303,086	0,045	0,061
-502,926	31,160	-0,110	-0,069
-501,912	-20,583	0,143	0,064
-500,897	-37,590	0,039	0,015
-499,883	501,962	-0,038	0,064
-498,868	131,509	-0,112	0,105
-497,853	150,415	0,088	-0,087
-496,839	719,750	0,041	-0,080
-495,824	43,705	-0,116	0,078
-494,810	41,372	0,083	-0,055
-493,795	-71,554	0,090	-0,024
-492,781	-200,000	-0,011	-0,070
-491,766	-200,000	-0,020	-0,154
-490,751	231,652	0,021	-0,025
-489,737	166,853	-0,021	0,021
-488,722	-7,027	0,050	0,025
-487,708	59,825	0,063	0,045
-486,693	-39,162	0,056	0,021
-485,678	566,729	0,039	0,070
-484,664	138,853	-0,182	-0,174
-483,649	273,534	-0,015	0,019
-482,635	365,217	-0,071	-0,105
-481,620	-46,981	0,100	0,035
-480,605	-200,000	-0,000	0,052
-479,591	-200,000	-0,031	0,200
-478,576	800,000	0,064	0,175
-477,562	312,207	-0,069	-0,095
-476,547	800,000	0,024	-0,067
-475,532	-114,065	0,026	-0,004
-474,518	-107,219	-0,106	-0,017
-473,503	34,975	0,103	0,066
-472,489	-200,000	0,020	0,086
-471,474	150,909	0,068	-0,067
-470,459	-11,066	-0,017	-0,008
-469,445	800,000	0,032	-0,074
-468,430	-68,211	-0,079	0,022
-467,416	-35,547	-0,007	0,003
-466,401	211,216	0,029	0,033
-465,386	-14,284	0,081	-0,038
-464,372	-200,000	-0,011	-0,070
-463,357	745,279	0,094	-0,185
-462,343	-104,264	-0,052	0,009
-461,328	800,000	0,007	-0,018
-460,313	410,324	-0,020	-0,031
-459,299	-180,752	0,123	0,002
-458,284	-200,000	0,044	-0,148
-457,270	434,250	0,018	0,029
-456,255	-200,000	-0,002	-0,110
-455,241	661,247	0,076	-0,143
-454,226	-94,876	0,085	-0,017
-453,211	255,531	-0,024	-0,030
-452,197	-83,173	0,114	-0,026
-451,182	-200,000	-0,027	-0,094
-450,168	800,000	-0,025	-0,058
-449,153	-200,000	-0,006	-0,047
-448,138	102,508	0,072	-0,061
-447,124	-110,820	0,121	0,018
-446,109	333,065	0,033	0,046
-445,095	115,935	0,014	0,013
-444,080	14,180	-0,094	0,053
-443,065	72,559	-0,029	0,022
-442,051	326,039	-0,059	-0,082
-441,036	-200,000	-0,010	-0,089
-440,022	-150,706	-0,073	0,004
-439,007	-200,000	0,006	-0,022
-437,992	-90,554	-0,036	-0,007
-436,978	-26,119	-0,101	-0,043
-435,963	147,827	-0,040	-0,039
-434,949	-200,000	-0,002	-0,032
-433,934	800,000	-0,106	-0,264
-432,919	-42,747	-0,131	-0,048
-431,905	472,260	0,060	-0,099
-430,890	-84,760	-0,154	0,035
-429,876	-200,000	-0,000	0,121
-428,861	-89,008	-0,093	0,020
-427,846	-200,000	0,025	0,182
-426,832	249,285	0,035	0,043
-425,817	-64,495	-0,116	-0,034
-424,803	800,000	0,013	0,038
-423,788	-125,235	-0,079	-0,009
-422,773	73,010	0,035	0,026
-421,759	-149,577	-0,087	-0,005
-420,744	800,000	-0,058	-0,130
-419,730	-119,441	0,066	0,008
-418,715	-200,000	-0,015	-0,075
-417,701	-200,000	0,013	0,115
-416,686	-121,437	-0,144	-0,017
-415,671	-154,350	0,107	0,005
-414,657	-60,015	-0,152	0,047
-413,642	-200,000	0,041	0,147
-412,628	-90,503	-0,064	0,013
-411,613	248,256	0,046	-0,057
-410,598	-200,000	-0,017	0,103
-409,584	-200,000	-0,024	0,128
-408,569	-40,609	-0,053	-0,020
-407,555	-200,000	0,031	0,246
-406,540	36,790	-0,104	0,067
-405,525	-115,455	0,035	0,005
-404,511	800,000	-0,044	-0,113
-403,496	-151,642	-0,066	-0,003
-402,482	-200,000	0,005	-0,095
-401,467	657,557	-0,029	0,054
-400,452	800,000	0,036	0,088
-399,438	85,223	0,033	0,026
-398,423	-200,000	0,014	0,082
-397,409	433,577	0,030	0,047
-396,394	-200,000	0,009	-0,030
-395,379	18,338	-0,049	-0,028
-394,365	800,000	0,038	-0,090
-393,350	96,842	-0,072	0,060
-392,336	-200,000	0,191	-0,000
-391,321	-200,000	-0,009	0,049
-390,306	-47,966	-0,144	0,050
-389,292	-200,000	-0,004	-0,065
-388,277	-200,000	0,017	0,065
-387,263	27,147	0,066	-0,040
-386,248	-200,000	0,015	-0,152
-385,233	-38,263	-0,122	0,047
-384,219	-65,540	-0,140	0,041
-383,204	-200,000	0,019	-0,084
-382,190	-1,705	0,091	-0,046
-381,175	21,541	0,066	-0,039
-380,160	76,825	-0,099	0,076
-379,146	-200,000	0,011	0,040
-378,131	-150,380	-0,172	0,009
-377,117	-28,300	0,087	-0,036
-376,102	556,194	-0,041	-0,071
-375,088	-15,102	0,075	0,035
-374,073	407,430	0,033	-0,051
-373,058	-29,247	0,027	-0,011
-372,044	-73,132	0,086	-0,023
-371,029	-60,518	-0,101	0,031
-370,015	-200,000	0,003	-0,169
-369,000	84,649	-0,087	0,069
-367,985	79,118	0,008	0,006
-366,971	-200,000	-0,028	-0,164
-365,956	-127,383	0,075	0,008
-364,942	51,184	0,057	0,039
-363,927	-94,511	-0,100	-0,019
-362,912	-200,000	0,001	0,029
-361,898	800,000	-0,049	-0,130
-360,883	-136,109	0,114	0,010
-359,869	139,840	-0,087	0,083
-358,854	167,386	0,054	-0,056
-357,839	-122,800	0,066	0,008
-356,825	131,544	0,050	0,046
-355,810	-28,103	0,069	0,029
-354,796	-200,000	-0,008	0,044
-353,781	-133,583	-0,101	-0,009
-352,766	66,703	-0,121	0,089
-351,752	-200,000	-0,003	0,110
-350,737	800,000	0,089	0,182
-349,723	-200,000	-0,023	0,079
-348,708	172,268	-0,095	0,100
-347,693	52,489	0,066	-0,045
-346,679	309,527	-0,067	-0,091
-345,664	-200,000	-0,024	-0,094
-344,650	754,765	0,055	0,108
-343,635	-200,000	-0,021	0,113
-342,620	800,000	-0,021	0,061
-341,606	-200,000	-0,002	-0,019
-340,591	665,816	-0,036	0,067
-339,577	800,000	0,028	-0,081
-338,562	104,115	-0,105	0,089
-337,548	139,601	-0,060	0,057
-336,533	6,306	0,106	-0,057
-335,518	-200,000	-0,005	-0,068
-334,504	69,516	0,053	0,040
-333,489	800,000	-0,083	-0,170
-332,475	549,396	0,090	-0,158
-331,460	-50,960	-0,146	-0,049
-330,445	-74,556	-0,066	-0,017
-329,431	-72,515	0,094	0,025
-328,416	-200,000	-0,012	0,065
-327,402	154,360	-0,130	0,129
-326,387	16,225	0,124	0,071
-325,372	-200,000	0,008	-0,068
-324,358	800,000	0,014	-0,034
-323,343	104,119	-0,081	-0,069
-322,329	-44,277	0,062	0,022
-321,314	-107,124	0,051	0,008
-320,299	8,576	0,114	0,062
-319,285	391,382	0,009	0,014
-318,270	-200,000	-0,018	0,096
-317,256	-56,791	0,028	-0,009
-316,241	800,000	-0,028	-0,061
-315,226	-99,959	0,108	0,019
-314,212	754,620	0,035	0,068
-313,197	800,000	-0,026	0,078
-312,183	106,756	0,045	-0,038
-311,168	-133,681	0,032	0,003
-310,153	451,299	-0,043	-0,069
-309,139	333,203	0,018	-0,025
-308,124	88,456	0,053	0,042
-307,110	-200,000	0,039	0,171
-306,095	15,050	-0,004	-0,003
-305,080	-99,528	0,048	-0,009
-304,066	800,000	-0,007	0,023
-303,051	184,704	-0,105	0,113
-302,037	40,297	-0,105	-0,068
-301,022	-200,000	-0,002	0,145
-300,008	-38,666	0,098	-0,037
-298,993	-143,342	0,118	0,008
-297,978	544,934	0,050	0,086
-296,964	180,070	0,023	-0,025
-295,949	-200,000	-0,023	0,152
-294,935	-169,270	-0,122	-0,003
-293,920	582,874	-0,030	-0,054
-292,905	800,000	-0,020	-0,046
-291,891	25,863	0,128	-0,077
-290,876	800,000	0,017	0,040
-289,862	80,647	-0,014	0,011
-288,847	-200,000	-0,004	-0,087
-287,832	-159,706	-0,220	0,009
-286,818	-59,876	-0,043	0,013
-285,803	-132,730	0,113	-0,010
-284,789	-200,000	-0,008	0,099
-283,774	-200,000	0,004	0,091
-282,759	125,302	0,057	-0,052
-281,745	43,849	0,072	0,047
-280,730	800,000	-0,034	-0,107
-279,716	800,000	-0,070	0,141
-278,701	-47,500	0,068	0,024
-277,686	-196,697	0,131	0,001
-276,672	320,609	-0,088	-0,121
-275,657	-98,681	-0,149	0,027
-274,643	-85,042	0,171	0,038
-273,628	-200,000	-0,054	-0,181
-272,613	-3,542	0,046	0,023
-271,599	-82,003	-0,071	0,017
-270,584	800,000	0,015	0,032
-269,570	385,329	-0,054	-0,081
-268,555	-200,000	0,014	0,080
-267,540	294,966	-0,095	0,126
-266,526	-135,418	-0,110	0,009
-265,511	-200,000	0,028	-0,103
-264,497	-200,000	-0,006	-0,029
-263,482	66,017	0,123	0,090
-262,467	5,540	0,089	0,048
-261,453	-50,761	-0,045	-0,015
-260,438	-200,000	-0,013	-0,100
-259,424	-200,000	0,013	-0,075
-258,409	-200,000	-0,022	0,158
-257,395	591,645	0,121	-0,217
-256,380	-31,798	-0,119	0,048
-255,365	-200,000	0,003	0,069
-254,351	-42,671	-0,088	0,032
-253,336	-200,000	0,021	-0,074
-252,322	800,000	-0,076	-0,167
-251,307	782,641	-0,043	-0,086
-250,292	96,438	0,056	0,046
-249,278	56,903	0,188	0,132
-248,263	199,545	0,064	0,071
-247,249	-200,000	-0,003	0,034
-246,234	-152,320	-0,060	-0,003
-245,219	-70,810	0,019	-0,005
-244,205	-77,185	0,069	0,017
-243,190	98,135	-0,030	0,025
-242,176	43,320	0,016	-0,011
-241,161	-87,422	0,147	0,032
-240,146	241,829	-0,097	-0,117
-239,132	-200,000	-0,051	-0,193
-238,117	776,479	0,032	-0,064
-237,103	-200,000	-0,004	-0,056
-236,088	225,666	-0,029	-0,034
-235,073	-200,000	-0,010	0,114
-234,059	11,304	0,157	0,086
-233,044	-90,854	0,057	-0,012
-232,030	800,000	0,033	-0,075
-231,015	438,998	-0,068	-0,107
-230,000	43,084	0,075	-0,049
-228,986	-200,000	0,007	-0,066
-227,971	276,994	0,015	0,020
-226,957	800,000	-0,058	0,169
-225,942	595,031	0,073	0,130
-224,927	800,000	-0,013	0,031
-223,913	-43,927	0,158	0,057
-222,898	108,844	0,050	-0,043
-221,884	-70,432	-0,036	-0,010
-220,869	800,000	0,037	0,093
-219,855	-30,457	0,049	0,020
-218,840	800,000	-0,048	0,112
-217,825	-200,000	0,015	0,063
-216,811	-200,000	0,055	-0,191
-215,796	-36,303	-0,203	-0,078
-214,782	663,137	0,043	0,081
-213,767	-11,158	0,019	0,009
-212,752	-200,000	0,020	0,159
-211,738	42,802	0,052	-0,034
-210,723	56,127	0,065	0,046
-209,709	-80,743	-0,037	0,009
-208,694	-31,079	-0,149	-0,060
-207,679	174,852	-0,036	-0,037
-206,665	-51,776	0,105	0,035
-205,650	87,889	-0,039	-0,031
-204,636	-123,432	-0,035	-0,004
-203,621	235,681	0,045	0,054
-202,606	445,414	0,078	0,124
-201,592	243,883	-0,090	-0,109
-200,577	-66,456	-0,053	0,015
-199,563	134,431	0,117	0,110
-198,548	15,021	0,097	-0,055
-197,533	-200,000	0,039	0,176
-196,519	-45,050	0,168	0,060
-195,504	-114,602	0,133	0,018
-194,490	-200,000	0,008	0,087
-193,475	-171,600	0,104	-0,002
-192,460	382,503	0,037	0,054
-191,446	38,358	0,059	-0,038
-190,431	130,553	-0,105	0,097
-189,417	800,000	-0,043	-0,087
-188,402	552,214	-0,036	0,062
-187,387	398,220	-0,021	0,031
-186,373	76,849	0,029	-0,022
-185,358	111,038	-0,110	-0,095
-184,344	800,000	-0,002	-0,004
-183,329	742,727	-0,057	0,112
-182,315	-200,000	-0,021	0,106
-181,300	-200,000	-0,017	0,088
-180,285	65,560	-0,086	0,062
-179,271	-40,684	0,016	-0,006
-178,256	-200,000	0,006	0,035
-177,242	-88,690	0,162	-0,034
-176,227	-200,000	0,003	-0,016
-175,212	504,872	0,084	0,140
-174,198	692,559	-0,037	0,070
-173,183	-53,888	0,024	0,008
-172,169	-200,000	0,003	-0,103
-171,154	99,234	0,067	-0,055
-170,139	-200,000	-0,006	-0,052
-169,125	800,000	-0,052	0,106
-168,110	-200,000	0,021	0,079
-167,096	331,976	0,076	0,105
-166,081	104,732	-0,103	-0,087
-165,066	800,000	-0,043	-0,131
-164,052	683,443	-0,026	0,050
-163,037	96,664	-0,055	0,045
-162,023	-200,000	-0,016	-0,086
-161,008	-200,000	0,046	0,177
-159,993	4,804	-0,050	0,026
-158,979	639,612	0,017	0,032
-157,964	-200,000	0,002	0,110
-156,950	-58,174	-0,027	-0,008
-155,935	184,807	0,068	-0,072
-154,920	690,360	0,070	0,132
-153,906	-128,880	0,112	0,011
-152,891	-200,000	0,012	-0,087
-151,877	800,000	0,052	0,119
-150,862	800,000	-0,043	-0,127
-149,847	800,000	0,043	0,088
-148,833	8,167	-0,076	-0,041
-147,818	-200,000	0,002	-0,030
-146,804	217,913	-0,041	-0,047
-145,789	-77,798	-0,052	0,013
-144,775	167,174	-0,097	0,100
-143,760	800,000	0,026	-0,061
-142,745	-136,507	0,027	0,002
-141,731	-56,050	0,104	-0,033
-140,716	529,386	0,085	-0,145
-139,702	-93,361	0,103	0,020
-138,687	800,000	-0,014	-0,034
-137,672	151,104	0,126	0,124
-136,658	-61,864	-0,170	0,051
-135,643	6,695	0,130	-0,069
-134,629	-95,016	-0,111	-0,021
-133,614	283,974	0,067	0,087
-132,599	177,872	0,051	0,054
-131,585	66,504	0,041	0,030
-130,570	4,181	-0,049	-0,026
-129,556	386,481	0,060	-0,089
-128,541	-200,000	0,007	-0,096
-127,526	-156,543	-0,026	0,001
-126,512	-200,000	0,005	0,045
-125,497	51,888	0,047	-0,032
-124,483	-115,377	0,022	-0,003
-123,468	340,963	-0,066	-0,093
-122,453	437,768	0,066	-0,103
-121,439	35,605	0,014	-0,009
-120,424	-200,000	0,031	-0,121
-119,410	800,000	0,035	-0,075
-118,395	-200,000	0,029	0,174
-117,380	-55,330	0,073	0,023
-116,366	-61,168	0,072	-0,022
-115,351	44,008	-0,195	-0,128
-114,337	-116,096	0,114	0,015
-113,322	-200,000	-0,002	-0,059
-112,307	800,000	-0,019	0,041
-111,293	-22,128	0,084	0,036
-110,278	-200,000	0,004	0,070
-109,264	713,197	-0,049	0,093
-108,249	-135,278	-0,067	-0,006
-107,234	-200,000	0,005	-0,144
-106,220	800,000	-0,045	-0,129
-105,205	-135,838	0,177	-0,015
-104,191	72,429	0,121	0,090
-103,176	800,000	-0,009	-0,018
-102,162	-30,628	0,121	0,049
-101,147	156,012	0,023	0,023
-100,132	-200,000	-0,004	0,094
-99,118	289,588	0,045	-0,058
-98,103	128,977	0,105	-0,096
-97,089	50,207	0,169	-0,114
-96,074	-94,731	0,077	0,015
-95,059	134,125	-0,143	0,133
-94,045	-200,000	0,001	-0,026
-93,030	-95,455	0,109	-0,021
-92,016	-200,000	-0,003	0,118
-91,001	-60,818	0,065	-0,020
-89,986	361,260	-0,062	-0,090
-88,972	-200,000	-0,025	0,084
-87,957	-86,282	0,118	0,026
-86,943	195,793	-0,044	0,048
-85,928	17,146	-0,099	0,056
-84,913	133,423	-0,127	-0,118
-83,899	-200,000	-0,007	-0,075
-82,884	800,000	0,040	0,102
-81,870	-200,000	0,012	0,076
-80,855	800,000	-0,041	0,095
-79,840	-200,000	0,029	-0,102
-78,826	-152,776	-0,092	0,005
-77,811	480,671	0,070	0,114
-76,797	-200,000	0,028	-0,111
-75,782	-181,747	-0,140	0,002
-74,767	-49,507	0,176	-0,060
-73,753	3,315	0,074	0,038
-72,738	-200,000	0,016	-0,133
-71,724	125,780	-0,026	-0,023
-70,709	-200,000	0,005	0,049
-69,694	343,825	0,067	-0,094
-68,680	344,567	0,013	-0,018
-67,665	21,361	0,174	-0,101
-66,651	-10,248	0,117	0,055
-65,636	800,000	-0,017	0,044
-64,622	82,721	-0,069	0,054
-63,607	-200,000	-0,012	-0,093
-62,592	800,000	-0,072	-0,190
-61,578	46,869	-0,114	-0,076
-60,563	765,529	-0,017	0,034
-59,549	-200,000	-0,008	0,106
-58,534	8,094	-1,920	-1,030
-57,519	-200,000	-0,269	-0,927
-56,505	-200,000	-1,293	-5,134
-55,490	11,039	0,841	0,459
-54,476	800,000	5,291	12,114
-53,461	-200,000	17,887	290,075
-52,446	800,000	728,573	2232,047
-51,432	535,797	1645,257	2807,832
-50,417	109,090	1635,996	1401,935
-49,403	73,978	1287,370	966,634
-48,388	31,371	1027,051	630,593
-47,373	20,091	988,778	569,975
-46,359	18,234	976,660	556,892
-45,344	15,238	972,616	544,781
-44,330	15,454	971,068	544,598
-43,315	14,911	969,209	541,763
-42,300	14,896	968,070	541,057
-41,286	14,832	967,213	540,348
-40,271	14,892	966,162	539,933
-39,257	14,872	965,331	539,382
-38,242	14,923	964,405	539,011
-37,227	14,898	963,748	538,540
-36,213	14,913	962,651	537,956
-35,198	14,846	961,772	537,226
-34,184	14,900	961,145	537,027
-33,169	14,866	960,048	536,284
-32,154	14,922	959,141	535,937
-31,140	14,923	958,294	535,446
-30,125	14,889	957,726	534,998
-29,111	14,909	956,737	534,488
-28,096	14,920	956,101	534,147
-27,082	14,936	955,330	533,746
-26,067	14,903	954,648	533,239
-25,052	14,888	953,879	532,741
-24,038	14,923	953,204	532,454
-23,023	14,845	952,510	531,796
-22,009	14,916	951,860	531,640
-20,994	14,946	951,306	531,405
-19,979	14,900	950,866	530,989
-18,965	14,898	950,036	530,499
-17,950	14,950	949,339	530,256
-16,936	14,873	948,698	529,629
-15,921	14,827	948,035	529,094
-14,906	14,810	947,241	528,574
-13,892	14,841	946,850	528,433
-12,877	14,790	946,072	527,815
-11,863	14,730	945,517	527,296
-10,848	14,812	944,941	527,215
-9,833	14,878	944,562	527,189
-8,819	14,927	943,639	526,809
-7,804	14,856	943,285	526,366
-6,790	14,821	942,647	525,877
-5,775	14,861	942,145	525,704
-4,760	14,849	941,417	525,240
-3,746	14,858	940,680	524,835
-2,731	14,648	940,181	523,873
-1,717	14,644	939,406	523,408
-0,702	14,646	938,785	523,049
0,313	14,430	938,248	522,858
1,327	17,620	936,240	531,722
2,342	26,670	792,867	474,204
3,356	23,406	458,121	268,997
4,371	-3,485	314,208	155,971
5,386	-7,489	296,253	142,999
6,400	-9,170	290,243	138,420
7,415	-9,712	287,800	136,710
8,429	-10,088	286,281	135,608
9,444	-10,049	285,385	135,210
10,459	-9,956	284,665	134,947
11,473	-10,023	284,061	134,584
12,488	-10,091	283,488	134,234
13,502	-10,152	283,047	133,954
14,517	-10,068	282,578	133,802
15,531	-10,172	282,030	133,430
16,546	-10,268	281,683	133,162
17,561	-10,255	281,255	132,960
18,575	-10,199	280,884	132,827
19,590	-10,436	280,549	132,430
20,604	-10,236	280,277	132,480
21,619	-10,345	279,856	132,166
22,634	-10,322	279,549	132,030
23,648	-10,336	279,321	131,897
24,663	-10,167	278,964	131,878
25,677	-10,362	278,754	131,582
26,692	-10,430	278,528	131,399
27,707	-10,298	278,087	131,304
28,721	-10,323	277,869	131,166
29,736	-10,307	277,718	131,098
30,750	-10,334	277,324	130,875
31,765	-10,668	277,161	130,470
32,780	-10,381	276,780	130,551
33,794	-10,527	276,714	130,370
34,809	-10,288	276,285	130,382
35,823	-10,534	276,141	130,070
36,838	-10,627	275,797	129,810
37,853	-10,499	275,680	129,863
38,867	-10,439	275,429	129,789
39,882	-10,459	275,122	129,614
40,896	-10,360	274,712	129,503
41,911	-10,455	274,693	129,393
42,926	-10,467	274,502	129,280
43,940	-10,457	274,189	129,131
44,955	-10,483	273,878	128,948
45,969	-10,572	273,758	128,798
46,984	-10,490	273,380	128,684
47,999	-10,662	273,116	128,389
49,013	-10,596	272,849	128,313
50,028	-10,750	272,744	128,109
51,042	-10,778	272,535	127,974
52,057	-11,031	272,151	127,547
53,071	-10,734	272,034	127,756
54,086	-10,782	271,864	127,621
55,101	-10,649	271,700	127,655
56,115	-10,616	271,381	127,525
57,130	-10,384	271,488	127,778
58,144	-10,346	271,141	127,638
59,159	-10,114	270,738	127,651
60,174	-10,276	270,647	127,447
61,188	-10,281	270,434	127,331
62,203	-10,350	270,272	127,180
63,217	-10,171	269,981	127,196
64,232	-10,351	269,842	126,954
65,247	-10,320	269,655	126,883
66,261	-10,297	269,463	126,802
67,276	-10,325	269,031	126,562
68,290	-10,540	268,894	126,290
69,305	-10,422	268,509	126,206
70,320	-10,473	268,477	126,133
71,334	-10,512	268,145	125,930
72,349	-10,467	268,148	125,961
73,363	-10,143	267,799	126,081
74,378	-10,106	267,472	125,950
75,393	-10,162	267,350	125,829
76,407	-10,329	267,207	125,600
77,422	-10,420	266,984	125,401
78,436	-10,326	266,677	125,330
79,451	-10,301	266,497	125,258
80,466	-10,316	266,259	125,122
81,480	-10,471	265,875	124,789
82,495	-10,281	265,744	124,888
83,509	-10,387	265,589	124,709
84,524	-10,471	265,360	124,515
85,539	-10,263	265,032	124,537
86,553	-10,394	264,974	124,381
87,568	-10,528	264,860	124,196
88,582	-10,589	264,574	123,995
89,597	-10,492	264,348	123,965
90,611	-10,471	264,140	123,876
91,626	-10,376	264,036	123,901
92,641	-10,317	263,735	123,802
93,655	-10,390	263,628	123,674
94,670	-10,369	263,247	123,504
95,684	-10,163	263,097	123,606
96,699	-10,250	262,871	123,412
97,714	-10,245	262,685	123,318
98,728	-10,543	262,530	122,968
99,743	-10,641	262,349	122,786
100,757	-10,321	261,909	122,853
101,772	-10,423	261,868	122,733
102,787	-10,431	261,663	122,619
103,801	-10,179	261,469	122,740
104,816	-10,308	261,451	122,606
105,830	-10,545	261,421	122,371
106,845	-10,433	261,063	122,291
107,860	-10,171	260,761	122,370
108,874	-10,265	260,717	122,256
109,889	-10,215	260,520	122,197
110,903	-10,291	260,278	122,006
111,918	-10,242	260,030	121,921
112,933	-10,136	259,782	121,887
113,947	-10,237	259,727	121,762
114,962	-10,294	259,495	121,593
115,976	-10,053	259,229	121,669
116,991	-10,264	259,045	121,386
118,006	-10,391	258,779	121,140
119,020	-10,257	258,794	121,253
120,035	-10,136	258,688	121,299
121,049	-10,322	258,391	120,986
122,064	-10,197	258,101	120,949
123,079	-10,246	257,930	120,815
124,093	-10,193	257,908	120,840
125,108	-10,369	257,445	120,459
126,122	-10,400	257,157	120,287
127,137	-10,580	257,098	120,092
128,151	-10,360	256,907	120,183
129,166	-10,324	256,739	120,125
130,181	-10,441	256,519	119,910
131,195	-10,326	256,217	119,857
132,210	-10,323	256,112	119,800
133,224	-10,111	255,951	119,898
134,239	-10,124	255,700	119,759
135,254	-10,207	255,625	119,641
136,268	-10,226	255,451	119,532
137,283	-10,632	255,193	119,051
138,297	-10,510	255,064	119,085
139,312	-10,379	254,626	118,983
140,327	-10,328	254,635	119,020
141,341	-9,973	254,584	119,291
142,356	-10,109	254,548	119,146
143,370	-10,174	254,308	118,968
144,385	-10,111	254,087	118,908
145,400	-9,930	253,731	118,886
146,414	-9,983	253,656	118,794
147,429	-10,146	253,392	118,521
148,443	-10,040	253,085	118,457
149,458	-10,107	252,950	118,326
150,473	-9,984	252,886	118,390
151,487	-10,151	252,664	118,134
152,502	-10,169	252,534	118,048
153,516	-10,087	252,217	117,959
154,531	-9,915	252,061	118,021
155,546	-9,942	252,016	117,967
156,560	-10,079	251,706	117,695
157,575	-10,327	251,462	117,360
158,589	-10,122	251,408	117,498
159,604	-9,962	251,102	117,480
160,619	-9,874	250,924	117,460
161,633	-10,160	250,869	117,182
162,648	-10,056	250,651	117,158
163,662	-10,065	250,616	117,123
164,677	-9,937	250,423	117,131
165,692	-10,101	250,198	116,877
166,706	-10,018	250,082	116,882
167,721	-10,016	249,827	116,754
168,735	-10,087	249,717	116,632
169,750	-10,065	249,624	116,598
170,764	-9,844	249,454	116,693
171,779	-9,893	249,234	116,538
172,794	-9,808	249,132	116,552
173,808	-9,996	248,789	116,224
174,823	-10,090	248,475	115,988
175,837	-10,472	248,342	115,596
176,852	-10,185	248,375	115,842
177,867	-9,884	248,235	116,017
178,881	-9,949	248,134	115,905
179,896	-9,805	247,961	115,935
180,910	-9,989	247,793	115,692
181,925	-9,952	247,567	115,607
182,940	-9,920	247,412	115,551
183,954	-9,939	247,170	115,412
184,969	-9,917	247,000	115,341
185,983	-10,026	246,976	115,228
186,998	-9,839	246,703	115,246
188,013	-9,914	246,622	115,136
189,027	-9,818	246,372	115,088
190,042	-9,714	246,164	115,067
191,056	-9,833	246,202	114,976
192,071	-9,754	245,801	114,843
193,086	-9,793	245,747	114,776
194,100	-9,793	245,598	114,697
195,115	-9,760	245,298	114,574
196,129	-9,933	245,283	114,413
197,144	-9,957	244,987	114,245
198,159	-9,696	244,806	114,365
199,173	-9,814	244,685	114,201
200,188	-9,823	244,546	114,119
201,202	-10,206	244,245	113,654
202,217	-10,459	243,883	113,268
203,232	-10,369	243,803	113,295
204,246	-9,931	243,871	113,675
205,261	-9,246	243,783	114,185
206,275	-9,718	243,517	113,663
207,290	-8,039	244,234	115,365
208,304	-3,012	245,597	120,134
209,319	-0,042	246,415	122,971
210,334	0,237	246,376	123,170
211,348	0,460	246,311	123,310
212,363	0,802	246,254	123,551
213,377	1,100	246,352	123,834
214,392	1,195	246,146	123,797
215,407	1,147	245,906	123,627
216,421	1,129	245,815	123,555
217,436	1,161	245,550	123,437
218,450	1,236	245,431	123,428
219,465	1,049	245,279	123,187
220,480	1,054	245,081	123,080
221,494	1,049	245,005	123,028
222,509	1,212	244,812	123,053
223,523	1,326	244,562	123,009
224,538	1,029	244,335	122,642
225,553	0,872	244,437	122,554
226,567	1,270	244,139	122,717
227,582	1,407	243,901	122,699
228,596	1,306	243,869	122,589
229,611	1,052	243,603	122,239
230,626	1,181	243,432	122,247
231,640	1,112	243,401	122,164
232,655	1,325	243,168	122,209
233,669	1,201	243,001	122,014
234,684	1,129	242,869	121,878
235,699	1,360	242,813	122,026
236,713	1,508	242,626	122,041
237,728	1,380	242,379	121,803
238,742	1,135	242,391	121,599
239,757	1,050	242,013	121,331
240,772	1,295	241,679	121,350
241,786	1,042	241,694	121,142
242,801	0,960	241,322	120,880
243,815	0,736	241,223	120,640
244,830	1,055	241,206	120,876
245,844	1,367	241,256	121,141
246,859	1,296	240,966	120,927
247,874	1,258	240,743	120,775
248,888	1,220	240,605	120,664
249,903	1,221	240,588	120,645
250,917	1,563	240,464	120,846
251,932	1,667	240,199	120,785
252,947	1,318	240,031	120,412
253,961	0,989	239,750	119,997
254,976	1,005	239,794	120,022
255,990	1,081	239,591	119,970
257,005	1,080	239,305	119,816
258,020	0,916	239,135	119,589
259,034	0,937	239,066	119,561
260,049	1,179	238,880	119,649
261,063	1,063	238,573	119,393
262,078	0,949	238,605	119,307
263,093	1,255	238,404	119,439
264,107	1,463	238,446	119,614
265,122	1,165	238,155	119,221
266,136	0,923	238,190	119,037
267,151	1,534	237,961	119,395
268,166	1,198	237,619	118,948
269,180	0,944	237,499	118,677
270,195	1,717	237,610	119,331
271,209	1,780	237,393	119,261
272,224	1,208	237,104	118,656
273,239	1,045	236,955	118,442
274,253	1,034	236,872	118,382
275,268	1,425	236,609	118,546
276,282	1,067	236,475	118,188
277,297	1,106	236,167	118,053
278,312	1,010	236,126	117,948
279,326	1,184	236,064	118,042
280,341	1,317	235,878	118,043
281,355	1,268	235,751	117,930
282,370	1,503	235,602	118,029
283,384	1,323	235,476	117,815
284,399	1,276	235,217	117,638
285,414	0,990	235,001	117,296
286,428	1,170	234,976	117,414
287,443	1,364	235,000	117,566
288,457	1,529	234,832	117,600
289,472	1,567	234,652	117,529
290,487	1,399	234,276	117,199
291,501	0,929	234,076	116,725
292,516	0,601	233,954	116,399
293,530	0,937	233,745	116,546
294,545	1,455	233,797	116,962
295,560	1,277	233,641	116,736
296,574	0,901	233,490	116,359
297,589	0,979	233,132	116,230
298,603	1,655	233,050	116,701
299,618	1,222	233,113	116,388
300,633	1,380	232,976	116,430
301,647	1,777	232,824	116,651
302,662	1,761	232,942	116,687
303,676	1,908	232,525	116,580
304,691	1,467	232,532	116,235
305,706	1,607	232,367	116,249
306,720	1,572	232,048	116,053
307,735	1,330	231,954	115,810
308,749	1,383	231,848	115,787
309,764	1,049	231,375	115,285
310,779	1,023	231,306	115,220
311,793	0,865	231,288	115,080
312,808	0,975	231,081	115,051
313,822	0,806	230,989	114,866
314,837	1,145	230,596	114,919
315,852	0,766	230,598	114,620
316,866	1,071	230,423	114,755
317,881	1,411	230,511	115,048
318,895	1,726	230,444	115,244
319,910	1,852	230,321	115,269
320,925	1,360	229,981	114,714
321,939	1,212	229,858	114,530
322,954	1,729	229,768	114,867
323,968	1,651	229,606	114,717
324,983	1,794	229,467	114,746
325,997	1,700	229,283	114,572
327,012	1,429	229,142	114,287
328,027	1,204	228,951	114,011
329,041	1,375	228,883	114,096
330,056	1,973	228,797	114,495
331,070	2,015	228,717	114,476
332,085	2,083	228,673	114,495
333,100	1,935	228,393	114,233
334,114	1,820	228,155	114,018
335,129	2,153	228,011	114,186
336,143	1,745	227,922	113,825
337,158	1,726	227,666	113,672
338,173	1,553	227,624	113,511
339,187	1,653	227,259	113,394
340,202	1,518	227,281	113,294
341,216	1,796	227,182	113,443
342,231	1,471	227,005	113,101
343,246	1,643	226,876	113,156
344,260	1,688	226,830	113,156
345,275	1,977	226,647	113,270
346,289	1,733	226,531	113,020
347,304	1,918	226,358	113,062
348,319	2,085	226,277	113,136
349,333	1,711	225,976	112,697
350,348	1,524	225,885	112,502
351,362	1,638	225,673	112,471
352,377	1,576	225,395	112,277
353,392	1,271	225,425	112,055
354,406	1,417	225,469	112,175
355,421	196,081	1319,855	1395,938
356,435	157,188	1453,168	1395,919
