DTS Sentinel unit serial number:	SN410029Multiplexer serial number:	ORYXHardware model number:	OX2-SRSoftware version number:	ORYX F/W v4,00 Oryx Data Collector v3.7.2.0data status	okinstallation	B5 Nyhavnadifferential loss correction	single-endedforward channel	channel 2reverse channel	N/Adate	2023/12/12time	09:02:13forward acquisition time	300,00reverse acquisition time	0,00gamma	499,1914k internal	0,3158k external	0,3158temperature offset calibration	1,0000default loss term (dB/km)	0,3820temperature slope calibration	1,0000multiplexer offset coefficient	1,0000multiplexer slope coefficient	1,0000fibre end	0,00T internal ref (°C)	15,05T ext. ref 1 (°C)	-1,30T ext. ref 2 (°C)	-1,59length (m)	temperature (°C)	Stokes	anti-Stokes-744,400	-200,000	0,001	0,149
-743,385	-189,245	-0,229	-0,002
-742,371	59,565	0,127	0,092
-741,356	-91,073	-0,288	0,060
-740,342	35,704	0,100	0,065
-739,327	-129,462	-0,420	0,042
-738,312	242,914	0,068	0,085
-737,298	-155,808	-0,397	0,018
-736,283	-192,226	0,139	-0,001
-735,269	-118,767	-0,289	0,037
-734,254	53,380	0,114	0,080
-733,239	-50,363	-0,594	-0,206
-732,225	800,000	0,085	0,174
-731,210	126,840	-0,090	0,084
-730,196	-135,414	-0,013	-0,001
-729,181	133,890	-0,066	0,063
-728,167	-200,000	-0,012	0,092
-727,152	-200,000	-0,006	-0,154
-726,137	165,579	-0,093	-0,097
-725,123	-200,000	-0,008	-0,064
-724,108	714,053	-0,029	-0,057
-723,094	199,345	-0,059	-0,066
-722,079	206,163	-0,113	-0,130
-721,064	-127,733	-0,211	0,022
-720,050	-15,029	-0,168	-0,079
-719,035	-200,000	0,009	-0,072
-718,021	800,000	-0,024	0,056
-717,006	-200,000	-0,045	-0,166
-715,991	22,758	-0,139	-0,084
-714,977	-200,000	-0,004	-0,107
-713,962	800,000	-0,024	-0,064
-712,948	-73,466	-0,068	-0,018
-711,933	291,752	-0,069	0,092
-710,918	-200,000	0,005	-0,086
-709,904	11,918	-0,086	-0,049
-708,889	63,191	0,030	0,022
-707,875	-95,711	-0,113	0,022
-706,860	4,329	-0,026	0,014
-705,845	523,526	-0,026	-0,044
-704,831	-64,572	0,084	0,025
-703,816	-38,501	0,045	0,018
-702,802	800,000	-0,009	-0,021
-701,787	-200,000	0,013	-0,123
-700,772	25,200	0,120	0,073
-699,758	363,063	-0,033	-0,049
-698,743	-200,000	-0,004	0,058
-697,729	271,742	-0,062	0,081
-696,714	-200,000	-0,024	0,090
-695,699	-200,000	-0,015	0,125
-694,685	158,407	0,084	-0,086
-693,670	69,678	0,041	-0,031
-692,656	15,449	-0,092	0,053
-691,641	403,013	0,054	0,084
-690,627	-132,948	0,092	0,009
-689,612	-200,000	0,001	0,050
-688,597	-52,579	-0,080	0,027
-687,583	-200,000	0,016	-0,087
-686,568	-75,067	-0,076	-0,020
-685,554	-163,524	0,050	-0,002
-684,539	50,955	0,103	0,072
-683,524	-200,000	0,022	0,125
-682,510	800,000	0,017	0,047
-681,495	-200,000	0,012	-0,194
-680,481	369,792	-0,037	-0,056
-679,466	-60,752	0,071	-0,022
-678,451	-143,776	-0,205	0,014
-677,437	-67,294	0,155	0,045
-676,422	4,616	-0,055	-0,030
-675,408	22,422	-0,098	-0,059
-674,393	800,000	-0,036	0,076
-673,378	-72,362	0,075	-0,020
-672,364	-200,000	0,008	-0,074
-671,349	-95,688	-0,046	0,009
-670,335	-101,872	-0,125	-0,022
-669,320	285,549	0,093	0,123
-668,305	414,724	0,108	0,169
-667,291	356,024	0,043	-0,063
-666,276	75,698	-0,125	-0,097
-665,262	-200,000	0,003	-0,093
-664,247	-200,000	-0,002	-0,133
-663,232	-102,013	-0,049	0,009
-662,218	-8,811	0,132	-0,065
-661,203	-200,000	-0,004	-0,041
-660,189	-200,000	-0,012	-0,058
-659,174	-158,110	-0,043	-0,002
-658,159	-200,000	-0,005	-0,058
-657,145	719,491	0,046	-0,090
-656,130	-200,000	-0,013	-0,142
-655,116	-85,542	0,107	-0,024
-654,101	457,703	-0,008	-0,013
-653,086	-104,852	0,075	-0,013
-652,072	-75,706	-0,076	-0,020
-651,057	-80,215	-0,135	0,033
-650,043	126,966	0,060	-0,056
-649,028	258,127	0,035	-0,044
-648,014	41,296	0,049	-0,032
-646,999	114,490	0,057	-0,051
-645,984	800,000	-0,027	0,073
-644,970	389,207	0,092	-0,141
-643,955	406,784	-0,089	-0,139
-642,941	-200,000	-0,037	-0,163
-641,926	-52,509	0,105	0,035
-640,911	64,747	0,008	-0,006
-639,897	164,484	0,063	0,065
-638,882	411,017	-0,018	-0,029
-637,868	-104,593	0,134	-0,022
-636,853	800,000	-0,068	-0,148
-635,838	-81,195	-0,124	-0,030
-634,824	-200,000	0,025	0,099
-633,809	800,000	-0,015	0,047
-632,795	517,501	-0,016	-0,027
-631,780	66,069	-0,042	-0,031
-630,765	-175,751	-0,130	0,003
-629,751	800,000	-0,067	-0,137
-628,736	-81,318	-0,159	0,038
-627,722	280,633	-0,060	-0,078
-626,707	-28,875	-0,065	-0,027
-625,692	800,000	0,048	-0,101
-624,678	170,364	0,042	-0,044
-623,663	800,000	0,010	-0,025
-622,649	65,712	-0,062	-0,046
-621,634	26,120	-0,157	-0,096
-620,619	-200,000	0,002	0,037
-619,605	145,945	-0,104	0,102
-618,590	92,883	-0,070	0,058
-617,576	726,683	-0,026	0,051
-616,561	311,821	-0,072	0,099
-615,546	396,692	0,010	0,016
-614,532	-200,000	0,005	0,026
-613,517	-6,496	0,058	-0,029
-612,503	-200,000	-0,025	0,158
-611,488	205,610	0,064	0,073
-610,474	-43,761	0,025	-0,009
-609,459	800,000	0,034	-0,101
-608,444	423,442	-0,023	-0,036
-607,430	-200,000	-0,033	-0,139
-606,415	49,325	0,048	-0,033
-605,401	-200,000	-0,000	0,039
-604,386	52,473	0,072	0,051
-603,371	6,222	0,092	0,050
-602,357	200,764	0,048	-0,055
-601,342	800,000	0,009	-0,027
-600,328	-200,000	-0,011	-0,042
-599,313	701,220	0,012	-0,024
-598,298	123,898	0,063	-0,058
-597,284	633,627	0,027	-0,051
-596,269	114,327	0,036	0,032
-595,255	-200,000	0,033	0,123
-594,240	-58,783	-0,099	-0,031
-593,225	-200,000	-0,002	-0,044
-592,211	129,733	-0,099	-0,093
-591,196	124,136	-0,059	0,054
-590,182	473,066	0,025	-0,042
-589,167	-172,378	0,014	-0,000
-588,152	469,018	-0,007	-0,011
-587,138	248,478	0,108	-0,134
-586,123	79,369	-0,022	-0,017
-585,109	211,014	-0,018	-0,020
-584,094	188,216	-0,066	0,073
-583,079	411,371	0,094	0,146
-582,065	483,293	0,017	-0,029
-581,050	509,319	0,022	-0,038
-580,036	415,823	-0,081	-0,128
-579,021	328,361	0,050	-0,071
-578,006	800,000	0,023	-0,062
-576,992	472,505	0,022	0,036
-575,977	517,373	0,048	0,083
-574,963	142,852	-0,146	0,142
-573,948	-200,000	0,019	0,131
-572,934	520,057	0,046	0,079
-571,919	-47,948	-0,145	0,051
-570,904	-200,000	0,008	-0,056
-569,890	-68,991	-0,092	-0,026
-568,875	-50,942	0,138	-0,047
-567,861	800,000	-0,070	0,154
-566,846	800,000	-0,003	0,009
-565,831	-22,734	-0,030	-0,013
-564,817	442,615	-0,103	-0,165
-563,802	59,205	0,046	-0,033
-562,788	-75,544	0,207	-0,054
-561,773	-200,000	0,011	0,063
-560,758	164,594	-0,032	-0,033
-559,744	800,000	0,055	0,159
-558,729	800,000	0,036	-0,087
-557,715	-200,000	0,028	-0,125
-556,700	-200,000	0,002	-0,015
-555,685	102,299	0,043	0,037
-554,671	-108,333	0,073	0,011
-553,656	275,466	0,035	-0,045
-552,642	800,000	-0,028	0,073
-551,627	-200,000	-0,008	0,100
-550,612	-200,000	-0,004	0,027
-549,598	253,259	0,041	-0,051
-548,583	800,000	0,019	0,039
-547,569	-138,049	0,099	-0,008
-546,554	-200,000	-0,008	-0,028
-545,539	-200,000	0,015	-0,129
-544,525	-200,000	-0,011	0,159
-543,510	-98,304	-0,025	-0,005
-542,496	-100,782	-0,123	0,022
-541,481	-200,000	0,039	-0,163
-540,466	689,217	0,042	0,080
-539,452	-200,000	0,012	0,048
-538,437	56,789	0,025	-0,018
-537,423	-21,959	0,114	0,051
-536,408	-200,000	0,003	-0,093
-535,393	800,000	0,064	-0,134
-534,379	-116,044	-0,042	-0,006
-533,364	5,973	0,143	0,077
-532,350	251,210	0,093	0,116
-531,335	82,899	0,012	-0,009
-530,321	-103,881	-0,109	-0,018
-529,306	-42,107	0,055	0,020
-528,291	345,396	-0,091	-0,130
-527,277	363,165	0,073	-0,107
-526,262	661,733	-0,026	0,049
-525,248	800,000	-0,046	0,098
-524,233	116,685	-0,044	-0,040
-523,218	452,891	0,055	0,089
-522,204	104,303	-0,019	-0,017
-521,189	-200,000	0,022	-0,078
-520,175	313,833	-0,053	-0,073
-519,160	-96,378	0,034	-0,006
-518,145	81,329	0,095	0,075
-517,131	242,743	0,056	0,069
-516,116	-50,637	0,117	0,040
-515,102	347,827	-0,042	0,061
-514,087	49,066	0,039	-0,027
-513,072	69,609	-0,041	-0,031
-512,058	408,939	0,039	-0,060
-511,043	-27,374	-0,059	0,025
-510,029	-113,408	0,105	0,015
-509,014	800,000	-0,018	0,046
-507,999	85,984	0,058	-0,047
-506,985	-28,344	-0,056	-0,023
-505,970	-200,000	-0,024	-0,119
-504,956	-117,268	0,044	-0,006
-503,941	-159,176	0,086	0,003
-502,926	-125,498	-0,067	0,007
-501,912	800,000	0,024	0,070
-500,897	-41,680	-0,038	0,014
-499,883	800,000	-0,018	0,041
-498,868	328,388	-0,056	0,079
-497,853	-28,427	-0,039	-0,016
-496,839	800,000	0,049	-0,121
-495,824	-22,841	-0,079	-0,035
-494,810	-200,000	-0,000	-0,041
-493,795	182,171	0,090	0,097
-492,781	-46,080	-0,106	0,038
-491,766	46,577	0,067	0,045
-490,751	374,839	-0,018	0,026
-489,737	168,293	-0,102	-0,106
-488,722	800,000	-0,049	0,155
-487,708	800,000	-0,064	0,135
-486,693	800,000	0,010	-0,024
-485,678	19,885	0,043	0,025
-484,664	-200,000	-0,008	-0,044
-483,649	-200,000	-0,002	0,028
-482,635	-59,846	0,049	0,015
-481,620	-98,254	0,093	-0,017
-480,605	38,093	-0,017	-0,011
-479,591	-200,000	0,024	0,118
-478,576	-200,000	-0,025	-0,105
-477,562	-127,362	-0,141	-0,015
-476,547	-200,000	0,003	0,113
-475,532	57,543	-0,072	0,052
-474,518	-92,982	0,067	0,013
-473,503	80,495	0,039	-0,031
-472,489	800,000	0,023	0,047
-471,474	-18,609	0,052	0,023
-470,459	-90,764	-0,063	0,013
-469,445	368,484	0,044	-0,065
-468,430	25,938	0,130	-0,079
-467,416	-102,806	0,053	0,009
-466,401	-159,811	0,149	0,006
-465,386	800,000	0,061	0,132
-464,372	800,000	0,017	0,035
-463,357	800,000	-0,042	-0,097
-462,343	-200,000	0,019	-0,124
-461,328	243,575	0,049	-0,060
-460,313	-19,239	0,027	-0,012
-459,299	-200,000	0,005	-0,049
-458,284	-128,370	-0,051	0,005
-457,270	164,038	-0,063	0,064
-456,255	-95,939	-0,018	-0,003
-455,241	-16,525	-0,058	0,027
-454,226	110,495	0,090	-0,079
-453,211	211,876	0,025	-0,028
-452,197	-200,000	-0,023	0,099
-451,182	-57,232	0,101	0,032
-450,168	-69,166	0,030	0,008
-449,153	-200,000	0,014	-0,071
-448,138	-131,286	0,005	-0,001
-447,124	-200,000	0,017	-0,104
-446,109	-200,000	-0,001	-0,061
-445,095	-132,744	0,033	0,003
-444,080	51,034	0,046	-0,032
-443,065	-200,000	0,001	0,051
-442,051	478,794	0,014	0,023
-441,036	36,262	-0,077	-0,049
-440,022	73,138	0,050	-0,038
-439,007	-28,522	0,080	-0,034
-437,992	-200,000	-0,031	0,164
-436,978	-68,949	-0,005	-0,002
-435,963	-200,000	-0,002	-0,007
-434,949	-200,000	-0,015	0,069
-433,934	-83,005	-0,109	-0,025
-432,919	-200,000	0,013	-0,062
-431,905	-6,525	0,083	-0,041
-430,890	800,000	0,036	0,113
-429,876	-200,000	-0,048	-0,155
-428,861	800,000	-0,077	0,166
-427,846	283,332	-0,032	-0,042
-426,832	-200,000	-0,029	-0,162
-425,817	800,000	0,050	-0,137
-424,803	-31,709	-0,019	-0,008
-423,788	168,471	0,096	-0,100
-422,773	-200,000	0,032	0,126
-421,759	560,922	-0,017	0,030
-420,744	-168,540	-0,143	-0,004
-419,730	-200,000	-0,009	-0,046
-418,715	-104,628	-0,070	0,012
-417,701	-62,721	-0,036	0,011
-416,686	245,799	0,066	0,081
-415,671	-200,000	-0,010	0,078
-414,657	769,765	0,023	0,045
-413,642	-200,000	0,000	-0,006
-412,628	800,000	-0,055	0,147
-411,613	-66,542	-0,077	0,022
-410,598	207,791	0,101	-0,115
-409,584	-63,068	-0,119	-0,035
-408,569	800,000	-0,015	-0,036
-407,555	-200,000	-0,011	0,093
-406,540	-102,366	0,057	0,010
-405,525	567,912	-0,039	-0,070
-404,511	-38,621	-0,071	-0,027
-403,496	29,735	-0,086	-0,053
-402,482	-85,217	0,057	-0,013
-401,467	800,000	0,052	0,160
-400,452	39,712	0,077	-0,050
-399,438	36,815	-0,024	-0,016
-398,423	-200,000	-0,012	0,106
-397,409	-200,000	-0,015	0,076
-396,394	800,000	-0,018	-0,038
-395,379	346,166	-0,078	0,111
-394,365	462,792	0,060	0,097
-393,350	168,938	-0,016	-0,017
-392,336	126,550	-0,019	-0,018
-391,321	-58,764	0,132	0,041
-390,306	659,999	0,015	0,029
-389,292	198,102	-0,016	0,018
-388,277	15,396	0,150	0,085
-387,263	-200,000	0,029	-0,108
-386,248	80,204	0,069	0,054
-385,233	-200,000	0,017	0,153
-384,219	800,000	-0,023	-0,055
-383,204	-200,000	-0,027	-0,091
-382,190	5,128	-0,112	-0,060
-381,175	-200,000	-0,001	-0,087
-380,160	800,000	-0,030	0,066
-379,146	510,914	0,047	0,080
-378,131	148,071	-0,046	-0,045
-377,117	-200,000	0,022	0,177
-376,102	156,333	-0,058	-0,058
-375,088	37,317	0,014	0,009
-374,073	-70,416	-0,071	-0,019
-373,058	456,551	-0,059	-0,096
-372,044	800,000	-0,030	-0,061
-371,029	800,000	0,039	0,122
-370,015	-12,250	0,142	0,067
-369,000	-22,883	-0,036	0,016
-367,985	-200,000	-0,027	0,110
-366,971	-200,000	-0,002	-0,103
-365,956	-161,205	0,050	0,002
-364,942	422,322	-0,027	0,042
-363,927	90,611	0,037	0,030
-362,912	-78,874	0,201	-0,049
-361,898	800,000	-0,052	-0,140
-360,883	316,226	0,034	0,046
-359,869	-200,000	-0,008	0,033
-358,854	-102,407	0,068	0,012
-357,839	-200,000	0,005	0,073
-356,825	351,920	0,029	0,041
-355,810	-200,000	-0,001	0,015
-354,796	117,998	-0,117	-0,105
-353,781	343,261	0,026	-0,038
-352,766	197,988	-0,083	-0,093
-351,752	20,757	-0,122	-0,072
-350,737	190,394	0,086	0,094
-349,723	-32,265	0,148	0,060
-348,708	-200,000	0,012	0,086
-347,693	-104,909	-0,019	0,003
-346,679	95,469	-0,087	-0,072
-345,664	-200,000	0,014	-0,094
-344,650	-2,624	0,082	-0,042
-343,635	800,000	-0,036	0,091
-342,620	-192,003	0,139	-0,001
-341,606	648,495	-0,030	-0,057
-340,591	800,000	-0,017	0,038
-339,577	-200,000	0,007	-0,074
-338,562	800,000	-0,111	-0,241
-337,548	-200,000	0,009	-0,136
-336,533	-200,000	0,002	0,065
-335,518	177,443	0,054	-0,057
-334,504	-200,000	-0,029	0,101
-333,489	-200,000	0,002	-0,078
-332,475	800,000	-0,016	-0,050
-331,460	-135,118	-0,181	0,016
-330,445	182,737	0,150	0,161
-329,431	108,928	-0,037	-0,033
-328,416	-186,493	0,030	-0,000
-327,402	10,281	0,040	0,022
-326,387	-136,706	-0,188	-0,016
-325,372	138,376	-0,072	-0,069
-324,358	-76,127	0,046	-0,012
-323,343	17,397	-0,066	0,038
-322,329	42,599	0,130	0,086
-321,314	-200,000	0,008	0,074
-320,299	-200,000	-0,015	0,100
-319,285	147,743	-0,088	0,086
-318,270	348,310	-0,064	-0,092
-317,256	-127,880	-0,134	-0,014
-316,241	-159,478	-0,085	0,003
-315,226	242,000	-0,032	0,039
-314,212	-164,360	0,178	-0,006
-313,197	-200,000	-0,025	0,115
-312,183	653,147	-0,065	-0,122
-311,168	613,400	0,060	-0,109
-310,153	351,470	-0,020	-0,029
-309,139	120,586	-0,122	0,110
-308,124	-82,260	0,196	0,046
-307,110	-46,019	0,031	-0,011
-306,095	334,080	-0,107	0,151
-305,080	-200,000	-0,020	-0,084
-304,066	800,000	-0,031	-0,092
-303,051	800,000	0,037	-0,083
-302,037	-200,000	0,022	0,099
-301,022	-105,937	-0,028	0,005
-300,008	399,254	0,040	0,060
-298,993	-17,459	0,108	-0,049
-297,978	43,830	-0,144	0,095
-296,964	-50,340	-0,086	-0,029
-295,949	52,273	0,036	-0,025
-294,935	471,737	-0,043	0,071
-293,920	580,224	0,057	-0,102
-292,905	-200,000	0,016	-0,129
-291,891	-149,750	0,011	-0,001
-290,876	-200,000	-0,001	0,100
-289,862	-19,805	-0,104	-0,046
-288,847	-200,000	-0,016	-0,227
-287,832	-200,000	0,027	-0,108
-286,818	-200,000	-0,018	-0,122
-285,803	72,578	-0,087	-0,066
-284,789	-89,543	0,130	0,027
-283,774	-14,666	0,202	0,094
-282,759	800,000	-0,025	-0,063
-281,745	-53,815	-0,010	0,003
-280,730	800,000	-0,023	-0,057
-279,716	800,000	-0,026	0,071
-278,701	-200,000	-0,000	-0,056
-277,686	163,433	0,140	0,142
-276,672	274,408	-0,134	0,172
-275,657	-101,400	-0,008	-0,001
-274,643	482,206	0,079	-0,131
-273,628	-200,000	-0,008	-0,033
-272,613	529,406	-0,062	0,106
-271,599	-200,000	0,002	-0,041
-270,584	-66,897	0,090	0,026
-269,570	-0,557	-0,056	-0,029
-268,555	-82,717	-0,029	-0,007
-267,540	800,000	0,028	-0,064
-266,526	74,037	0,035	0,027
-265,511	800,000	0,016	-0,049
-264,497	354,678	0,056	0,081
-263,482	-200,000	0,002	-0,102
-262,467	99,788	-0,045	0,038
-261,453	-54,937	-0,051	-0,016
-260,438	53,476	0,064	0,044
-259,424	-152,680	-0,054	0,003
-258,409	211,495	0,135	-0,154
-257,395	800,000	0,034	0,080
-256,380	63,429	0,082	0,059
-255,365	-200,000	-0,002	0,111
-254,351	-17,208	0,136	0,062
-253,336	-94,047	-0,119	-0,023
-252,322	15,694	-0,100	0,057
-251,307	800,000	-0,018	-0,044
-250,292	-94,697	0,078	-0,015
-249,278	-64,196	0,014	-0,004
-248,263	800,000	0,031	0,071
-247,249	-70,365	-0,104	0,028
-246,234	46,024	-0,043	-0,029
-245,219	32,660	-0,056	-0,035
-244,205	-200,000	0,030	-0,192
-243,190	-200,000	0,025	-0,087
-242,176	-43,733	-0,041	-0,015
-241,161	82,101	0,038	0,030
-240,146	-99,719	0,040	0,007
-239,132	800,000	-0,026	-0,060
-238,117	-39,820	0,085	0,032
-237,103	14,413	-0,099	-0,056
-236,088	-113,095	-0,119	0,017
-235,073	-71,153	-0,068	-0,018
-234,059	71,035	0,030	-0,022
-233,044	236,168	0,024	-0,029
-232,030	151,888	-0,092	-0,091
-231,015	-66,285	-0,132	0,038
-230,000	54,865	0,074	-0,051
-228,986	-138,438	0,110	-0,009
-227,971	-200,000	-0,026	0,103
-226,957	123,287	0,154	0,140
-225,942	259,619	-0,022	0,028
-224,927	800,000	-0,048	-0,127
-223,913	-56,663	-0,142	0,045
-222,898	-200,000	0,002	-0,163
-221,884	-200,000	-0,006	0,065
-220,869	-200,000	-0,011	0,128
-219,855	-133,520	0,041	0,004
-218,840	-14,022	0,190	0,088
-217,825	553,581	-0,042	0,073
-216,811	-43,840	0,106	0,038
-215,796	800,000	-0,011	0,026
-214,782	-90,274	0,121	-0,025
-213,767	164,299	-0,081	0,083
-212,752	32,225	0,073	-0,046
-211,738	13,905	-0,034	0,019
-210,723	251,041	-0,045	0,056
-209,709	150,806	0,096	0,094
-208,694	-200,000	-0,029	0,130
-207,679	800,000	-0,016	0,032
-206,665	-158,972	0,070	0,003
-205,650	173,633	0,051	-0,053
-204,636	800,000	-0,030	0,085
-203,621	800,000	-0,034	0,087
-202,606	800,000	0,021	-0,050
-201,592	134,417	-0,042	0,040
-200,577	-158,665	-0,133	0,005
-199,563	-23,426	0,012	0,005
-198,548	6,051	0,069	0,037
-197,533	-200,000	0,008	0,094
-196,519	-91,650	-0,166	-0,034
-195,504	-80,635	0,048	0,011
-194,490	249,759	0,062	0,076
-193,475	155,377	-0,053	0,053
-192,460	-178,873	0,015	0,000
-191,446	76,844	-0,010	-0,008
-190,431	-66,689	0,027	0,008
-189,417	-47,903	0,101	0,035
-188,402	-180,602	-0,061	0,001
-187,387	225,257	-0,081	-0,094
-186,373	116,317	-0,020	0,018
-185,358	154,757	0,092	-0,092
-184,344	420,595	-0,014	0,022
-183,329	146,977	-0,121	0,118
-182,315	270,024	-0,041	0,052
-181,300	-18,825	-0,119	0,053
-180,285	334,544	0,009	-0,012
-179,271	252,289	-0,053	-0,065
-178,256	286,668	0,090	-0,118
-177,242	-200,000	0,002	0,008
-176,227	-27,036	-0,062	-0,026
-175,212	-200,000	-0,011	-0,042
-174,198	374,166	-0,099	0,145
-173,183	-200,000	0,007	-0,090
-172,169	163,811	-0,060	-0,061
-171,154	167,826	0,071	0,072
-170,139	60,057	-0,121	0,086
-169,125	-200,000	-0,022	0,094
-168,110	-52,620	0,040	-0,013
-167,096	150,855	-0,100	-0,098
-166,081	-141,275	-0,135	0,010
-165,066	155,951	-0,115	-0,114
-164,052	501,529	-0,023	0,038
-163,037	-70,468	-0,058	0,016
-162,023	-200,000	0,000	-0,015
-161,008	291,496	0,009	-0,012
-159,993	-41,811	0,148	-0,054
-158,979	347,307	-0,043	0,061
-157,964	-5,102	0,013	-0,006
-156,950	800,000	-0,007	-0,021
-155,935	-135,319	0,038	-0,003
-154,920	-126,368	0,060	-0,006
-153,906	-97,438	-0,068	0,013
-152,891	233,998	0,068	0,080
-151,877	-29,005	-0,078	0,032
-150,862	206,448	0,021	-0,024
-149,847	-119,199	-0,074	0,009
-148,833	-32,538	-0,163	-0,065
-147,818	800,000	-0,020	0,057
-146,804	7,218	0,099	0,053
-145,789	660,801	-0,049	-0,092
-144,775	-200,000	-0,007	-0,100
-143,760	197,807	0,047	-0,051
-142,745	-200,000	0,024	-0,148
-141,731	-64,790	-0,111	-0,032
-140,716	-50,781	0,126	0,042
-139,702	-61,314	0,086	-0,026
-138,687	800,000	0,076	0,174
-137,672	800,000	0,035	0,097
-136,658	298,392	-0,090	-0,120
-135,643	125,487	-0,042	0,038
-134,629	159,767	-0,032	0,032
-133,614	-32,089	-0,002	0,001
-132,599	800,000	0,048	0,102
-131,585	-0,951	0,080	-0,041
-130,570	800,000	-0,041	0,100
-129,556	45,650	-0,179	-0,119
-128,541	-200,000	0,014	-0,060
-127,526	214,244	-0,043	-0,049
-126,512	-83,878	-0,118	0,027
-125,497	552,399	-0,020	0,034
-124,483	-150,538	0,116	0,006
-123,468	-37,544	-0,132	-0,051
-122,453	48,816	-0,118	0,079
-121,439	488,274	-0,064	-0,105
-120,424	-43,546	0,187	-0,068
-119,410	-200,000	-0,000	-0,043
-118,395	800,000	0,017	-0,045
-117,380	639,473	0,030	0,055
-116,366	786,254	0,018	-0,036
-115,351	163,752	0,064	-0,065
-114,337	-200,000	-0,010	-0,159
-113,322	521,271	0,031	-0,052
-112,307	-200,000	0,003	0,148
-111,293	14,216	0,172	-0,096
-110,278	245,769	0,081	0,098
-109,264	800,000	-0,037	0,077
-108,249	-33,931	-0,061	0,024
-107,234	9,483	0,035	0,019
-106,220	782,464	0,045	-0,089
-105,205	800,000	-0,058	-0,115
-104,191	-14,396	-0,107	-0,049
-103,176	35,477	0,118	-0,074
-102,162	-27,294	-0,152	-0,063
-101,147	120,605	0,051	0,046
-100,132	800,000	0,018	-0,057
-99,118	-200,000	0,019	0,066
-98,103	-85,226	0,087	0,019
-97,089	-57,634	0,189	0,059
-96,074	-200,000	-0,034	0,140
-95,059	-120,870	0,058	-0,007
-94,045	-106,976	0,013	0,002
-93,030	92,908	-0,101	-0,082
-92,016	-20,407	-0,056	-0,025
-91,001	-200,000	-0,006	-0,020
-89,986	97,833	-0,097	-0,080
-88,972	-200,000	-0,005	-0,035
-87,957	518,557	-0,099	0,167
-86,943	-200,000	0,003	0,205
-85,928	13,167	-0,046	-0,026
-84,913	-14,196	-0,100	-0,046
-83,899	458,313	-0,026	0,041
-82,884	-123,564	0,090	0,010
-81,870	800,000	0,091	0,243
-80,855	621,029	-0,037	0,068
-79,840	-102,782	-0,008	0,001
-78,826	118,158	0,025	-0,022
-77,811	-200,000	0,003	-0,038
-76,797	-200,000	0,000	-0,006
-75,782	-200,000	-0,018	0,132
-74,767	45,202	0,148	0,098
-73,753	-200,000	0,000	-0,074
-72,738	-4,585	0,164	0,081
-71,724	-42,975	0,105	0,038
-70,709	-109,984	-0,101	0,015
-69,694	228,937	0,093	-0,109
-68,680	-200,000	0,000	-0,184
-67,665	-2,774	0,019	0,010
-66,651	-153,913	0,047	-0,002
-65,636	-200,000	-0,019	0,147
-64,622	-60,875	-0,116	-0,035
-63,607	91,777	0,106	-0,086
-62,592	-125,930	-0,116	0,012
-61,578	745,200	0,066	0,128
-60,563	-200,000	-0,002	0,090
-59,549	233,021	0,013	-0,015
-58,534	0,673	-2,015	-1,032
-57,519	800,000	-0,286	-0,895
-56,505	-200,000	-1,272	-4,897
-55,490	102,568	0,883	0,741
-54,476	800,000	5,322	12,338
-53,461	-200,000	17,771	288,092
-52,446	800,000	728,967	2229,536
-51,432	537,699	1645,370	2816,464
-50,417	109,686	1635,447	1406,498
-49,403	75,552	1287,186	974,303
-48,388	31,794	1027,361	633,206
-47,373	20,119	989,143	571,165
-46,359	18,308	977,135	558,270
-45,344	15,373	972,921	546,242
-44,330	15,611	971,369	546,126
-43,315	15,150	969,579	543,595
-42,300	15,037	968,689	542,705
-41,286	15,051	967,553	542,092
-40,271	15,043	966,549	541,483
-39,257	15,069	965,575	541,000
-38,242	15,091	964,578	540,492
-37,227	15,074	963,911	540,041
-36,213	15,078	963,015	539,531
-35,198	15,044	962,179	538,931
-34,184	15,130	961,432	538,767
-33,169	15,008	960,503	537,831
-32,154	15,135	959,551	537,687
-31,140	15,088	958,679	537,028
-30,125	15,144	957,908	536,753
-29,111	15,114	956,920	536,082
-28,096	15,131	956,495	535,879
-27,082	15,098	955,866	535,398
-26,067	15,101	954,810	534,794
-25,052	15,105	954,056	534,366
-24,038	15,072	953,589	533,977
-23,023	15,049	952,870	533,478
-22,009	15,087	952,301	533,261
-20,994	15,165	951,519	533,049
-19,979	15,086	951,002	532,487
-18,965	15,056	950,459	532,066
-17,950	15,081	949,638	531,664
-16,936	15,010	949,037	531,080
-15,921	15,078	948,301	530,866
-14,906	14,978	947,739	530,211
-13,892	15,003	946,967	529,836
-12,877	14,916	946,500	529,279
-11,863	14,909	945,875	528,885
-10,848	14,969	945,316	528,741
-9,833	15,062	944,769	528,709
-8,819	15,029	944,127	528,225
-7,804	15,016	943,487	527,804
-6,790	14,937	943,163	527,354
-5,775	15,041	942,338	527,199
-4,760	15,024	941,709	526,772
-3,746	14,935	941,059	526,107
-2,731	14,864	940,271	525,422
-1,717	14,851	939,659	525,017
-0,702	14,830	939,015	524,570
0,313	14,638	938,451	524,440
1,327	17,902	936,294	533,465
2,342	27,029	792,882	475,896
3,356	23,823	458,002	269,983
4,371	-3,578	314,350	156,185
5,386	-7,605	295,889	142,928
6,400	-9,597	289,825	138,012
7,415	-10,005	287,280	136,387
8,429	-10,152	286,023	135,634
9,444	-10,291	284,870	134,940
10,459	-10,105	284,285	134,832
11,473	-10,184	283,660	134,446
12,488	-10,114	283,240	134,303
13,502	-10,242	282,767	133,943
14,517	-10,073	282,318	133,881
15,531	-10,231	281,984	133,560
16,546	-10,239	281,465	133,293
17,561	-10,073	280,964	133,204
18,575	-9,964	280,571	133,110
19,590	-10,112	280,269	132,813
20,604	-9,964	280,145	132,884
21,619	-10,344	279,765	132,329
22,634	-10,194	279,223	132,204
23,648	-10,237	278,924	132,009
24,663	-10,122	278,698	132,000
25,677	-10,098	278,497	131,916
26,692	-9,988	278,244	131,889
27,707	-10,113	278,032	131,658
28,721	-10,016	277,681	131,572
29,736	-10,181	277,380	131,261
30,750	-10,072	277,084	131,213
31,765	-10,219	276,819	130,937
32,780	-10,183	276,654	130,881
33,794	-10,116	276,264	130,748
34,809	-9,996	276,145	130,794
35,823	-10,319	275,930	130,376
36,838	-10,142	275,603	130,376
37,853	-10,159	275,246	130,179
38,867	-9,990	274,947	130,185
39,882	-10,276	274,969	129,916
40,896	-10,066	274,666	129,957
41,911	-10,035	274,308	129,805
42,926	-10,007	274,080	129,712
43,940	-10,228	273,926	129,422
44,955	-10,116	273,630	129,375
45,969	-10,544	273,607	128,953
46,984	-10,422	273,263	128,893
47,999	-10,484	272,986	128,693
49,013	-10,758	272,788	128,333
50,028	-10,807	272,449	128,117
51,042	-10,689	271,994	128,001
52,057	-11,112	271,979	127,590
53,071	-10,723	271,719	127,817
54,086	-10,626	271,490	127,788
55,101	-10,768	271,415	127,610
56,115	-10,467	271,294	127,819
57,130	-10,083	271,016	128,032
58,144	-9,900	270,663	128,023
59,159	-9,984	270,606	127,907
60,174	-9,960	270,256	127,752
61,188	-10,020	270,305	127,708
62,203	-10,206	269,885	127,328
63,217	-10,024	269,733	127,412
64,232	-10,027	269,567	127,319
65,247	-9,904	269,300	127,295
66,261	-9,952	268,895	127,048
67,276	-10,341	268,722	126,600
68,290	-10,367	268,522	126,470
69,305	-10,540	268,394	126,240
70,320	-10,433	268,164	126,219
71,334	-10,125	267,875	126,352
72,349	-10,137	267,701	126,248
73,363	-10,034	267,425	126,200
74,378	-9,985	267,310	126,179
75,393	-9,975	266,942	126,003
76,407	-10,216	266,883	125,745
77,422	-10,161	266,723	125,709
78,436	-9,937	266,347	125,723
79,451	-10,110	266,213	125,492
80,466	-10,117	265,895	125,324
81,480	-10,082	265,629	125,219
82,495	-10,170	265,434	125,037
83,509	-10,183	265,279	124,941
84,524	-10,332	265,098	124,710
85,539	-10,387	264,830	124,524
86,553	-10,426	264,630	124,384
87,568	-10,315	264,545	124,433
88,582	-10,245	264,217	124,330
89,597	-10,277	264,035	124,205
90,611	-10,112	263,893	124,274
91,626	-10,009	263,717	124,272
92,641	-10,010	263,474	124,146
93,655	-9,813	263,196	124,180
94,670	-10,063	263,038	123,871
95,684	-10,366	262,941	123,544
96,699	-10,248	262,623	123,489
97,714	-10,367	262,652	123,385
98,728	-10,348	262,192	123,175
99,743	-10,179	261,953	123,203
100,757	-10,525	261,853	122,836
101,772	-10,343	261,679	122,905
102,787	-10,414	261,483	122,740
103,801	-10,101	261,216	122,881
104,816	-10,167	261,092	122,753
105,830	-10,185	261,022	122,693
106,845	-9,944	260,724	122,756
107,860	-10,045	260,448	122,526
108,874	-10,107	260,383	122,429
109,889	-10,084	260,163	122,335
110,903	-10,104	259,816	122,143
111,918	-10,004	259,600	122,119
112,933	-10,091	259,548	122,007
113,947	-10,052	259,279	121,904
114,962	-10,101	259,151	121,790
115,976	-10,095	258,972	121,700
116,991	-10,271	258,849	121,477
118,006	-9,997	258,740	121,655
119,020	-10,205	258,588	121,391
120,035	-10,085	258,377	121,386
121,049	-10,261	258,115	121,098
122,064	-9,976	257,888	121,230
123,079	-10,170	257,817	121,016
124,093	-10,106	257,516	120,920
125,108	-10,393	257,304	120,559
126,122	-10,255	256,943	120,500
127,137	-10,596	256,830	120,139
128,151	-10,444	256,727	120,212
129,166	-10,351	256,495	120,174
130,181	-10,423	256,298	120,009
131,195	-10,325	255,983	119,935
132,210	-10,315	255,987	119,935
133,224	-10,071	255,723	120,012
134,239	-10,147	255,649	119,901
135,254	-10,120	255,420	119,806
136,268	-10,069	255,211	119,742
137,283	-10,080	254,883	119,567
138,297	-10,280	254,576	119,240
139,312	-10,689	254,479	118,832
140,327	-10,435	254,401	119,004
141,341	-10,098	254,274	119,224
142,356	-9,945	254,104	119,264
143,370	-10,037	254,047	119,148
144,385	-9,744	253,624	119,190
145,400	-9,895	253,553	119,017
146,414	-9,779	253,375	119,022
147,429	-9,883	253,113	118,799
148,443	-9,947	253,098	118,727
149,458	-10,000	252,870	118,565
150,473	-10,143	252,800	118,398
151,487	-10,027	252,361	118,281
152,502	-10,035	252,300	118,235
153,516	-9,793	252,038	118,309
154,531	-9,840	251,880	118,184
155,546	-10,056	251,720	117,915
156,560	-9,843	251,380	117,926
157,575	-10,221	251,408	117,607
158,589	-10,027	251,218	117,672
159,604	-9,913	250,923	117,620
160,619	-10,051	250,675	117,377
161,633	-9,868	250,514	117,446
162,648	-9,974	250,441	117,311
163,662	-10,033	250,353	117,210
164,677	-9,887	250,077	117,193
165,692	-9,780	249,940	117,209
166,706	-9,973	249,934	117,033
167,721	-9,886	249,603	116,941
168,735	-9,907	249,579	116,902
169,750	-9,986	249,499	116,786
170,764	-10,067	249,277	116,604
171,779	-9,720	248,972	116,743
172,794	-9,834	248,817	116,564
173,808	-9,809	248,493	116,423
174,823	-10,395	248,455	115,903
175,837	-10,302	248,008	115,762
176,852	-10,163	248,081	115,902
177,867	-10,041	248,006	115,959
178,881	-9,810	247,822	116,056
179,896	-9,806	247,726	116,004
180,910	-9,816	247,428	115,846
181,925	-9,846	247,274	115,738
182,940	-9,879	247,161	115,648
183,954	-10,033	247,000	115,434
184,969	-9,875	246,790	115,457
185,983	-9,996	246,545	115,231
186,998	-9,762	246,543	115,414
188,013	-9,860	246,233	115,178
189,027	-9,709	246,044	115,204
190,042	-9,768	245,944	115,098
191,056	-9,780	245,757	114,991
192,071	-9,880	245,570	114,810
193,086	-9,790	245,378	114,784
194,100	-9,763	245,146	114,688
195,115	-9,652	245,093	114,745
196,129	-9,755	244,916	114,566
197,144	-9,884	244,585	114,296
198,159	-9,768	244,396	114,292
199,173	-9,714	244,162	114,217
200,188	-10,074	244,177	113,918
201,202	-9,933	243,775	113,836
202,217	-10,532	243,680	113,290
203,232	-10,299	243,431	113,355
204,246	-10,148	243,427	113,466
205,261	-9,745	243,324	113,739
206,275	-10,385	242,938	113,025
207,290	-6,326	244,529	117,090
208,304	0,649	246,874	123,973
209,319	3,572	247,425	126,654
210,334	3,871	247,412	126,883
211,348	4,179	247,329	127,084
212,363	4,205	247,158	127,006
213,377	4,189	247,222	127,014
214,392	4,252	246,980	126,930
215,407	4,138	246,757	126,711
216,421	4,061	246,499	126,504
217,436	4,361	246,502	126,740
218,450	4,605	246,188	126,768
219,465	4,173	246,075	126,344
220,480	3,906	245,935	126,041
221,494	4,050	245,778	126,069
222,509	3,950	245,662	125,915
223,523	3,884	245,405	125,718
224,538	3,528	245,161	125,291
225,553	3,608	245,013	125,270
226,567	3,624	244,944	125,237
227,582	4,044	244,739	125,463
228,596	3,780	244,645	125,189
229,611	3,516	244,433	124,854
230,626	3,478	244,162	124,673
231,640	3,755	244,000	124,805
232,655	3,830	243,914	124,811
233,669	3,555	243,727	124,481
234,684	3,506	243,535	124,332
235,699	3,939	243,517	124,662
236,713	4,245	243,382	124,830
237,728	3,844	243,123	124,362
238,742	3,608	242,777	123,983
239,757	3,540	242,761	123,909
240,772	3,598	242,434	123,777
241,786	3,752	242,510	123,929
242,801	3,753	242,167	123,745
243,815	3,492	242,124	123,500
244,830	3,871	241,910	123,685
245,844	3,891	241,766	123,617
246,859	3,756	241,439	123,330
247,874	3,632	241,433	123,216
248,888	3,875	241,309	123,338
249,903	3,691	241,306	123,178
250,917	3,964	241,149	123,305
251,932	4,143	240,949	123,335
252,947	4,121	240,698	123,179
253,961	3,700	240,542	122,751
254,976	3,772	240,480	122,766
255,990	3,993	240,187	122,782
257,005	3,588	240,151	122,428
258,020	3,590	239,976	122,331
259,034	3,666	239,808	122,295
260,049	3,739	239,633	122,252
261,063	3,684	239,417	122,088
262,078	3,573	239,342	121,950
263,093	3,973	239,139	122,153
264,107	3,985	239,221	122,194
265,122	3,769	238,855	121,825
266,136	3,948	238,768	121,912
267,151	4,114	238,527	121,909
268,166	3,774	238,389	121,558
269,180	3,600	238,268	121,349
270,195	4,208	238,324	121,847
271,209	4,331	238,188	121,864
272,224	3,712	237,893	121,214
273,239	3,436	237,452	120,761
274,253	3,479	237,240	120,676
275,268	3,747	237,261	120,887
276,282	3,732	237,205	120,835
277,297	3,378	237,091	120,488
278,312	3,607	236,838	120,529
279,326	3,906	236,603	120,633
280,341	3,764	236,724	120,572
281,355	3,736	236,452	120,402
282,370	4,007	236,355	120,554
283,384	3,722	236,209	120,245
284,399	3,596	235,906	119,982
285,414	3,602	235,706	119,874
286,428	3,616	235,673	119,858
287,443	3,498	235,562	119,698
288,457	3,816	235,493	119,900
289,472	4,020	235,218	119,909
290,487	3,997	235,013	119,776
291,501	3,511	235,003	119,382
292,516	3,598	234,721	119,295
293,530	3,493	234,422	119,051
294,545	3,873	234,523	119,387
295,560	3,564	234,464	119,106
296,574	3,464	234,036	118,801
297,589	3,722	233,893	118,918
298,603	3,985	234,097	119,215
299,618	3,928	233,878	119,048
300,633	3,808	233,702	118,855
301,647	4,069	233,588	118,988
302,662	4,440	233,574	119,257
303,676	4,338	233,338	119,047
304,691	4,249	233,094	118,844
305,706	4,340	232,998	118,855
306,720	4,095	232,937	118,624
307,735	3,910	232,568	118,283
308,749	3,896	232,418	118,186
309,764	3,579	232,303	117,872
310,779	3,400	232,131	117,638
311,793	3,555	231,874	117,616
312,808	3,606	231,732	117,572
313,822	3,453	231,467	117,310
314,837	3,498	231,364	117,282
315,852	3,450	231,322	117,213
316,866	3,728	231,361	117,436
317,881	3,917	231,165	117,470
318,895	3,892	231,002	117,357
319,910	3,917	230,856	117,292
320,925	3,470	230,572	116,797
321,939	3,383	230,305	116,585
322,954	3,954	230,239	116,976
323,968	3,802	230,265	116,862
324,983	3,882	230,138	116,849
325,997	3,899	230,046	116,804
327,012	3,867	229,682	116,585
328,027	3,331	229,409	116,029
329,041	3,986	229,455	116,539
330,056	4,700	229,654	117,171
331,070	4,596	229,521	117,014
332,085	4,093	229,096	116,407
333,100	3,963	228,927	116,212
334,114	3,819	228,844	116,050
335,129	4,043	228,749	116,161
336,143	4,428	228,519	116,324
337,158	4,486	228,422	116,308
338,173	4,140	228,174	115,911
339,187	4,064	228,066	115,789
340,202	4,218	228,013	115,867
341,216	3,987	227,857	115,604
342,231	3,919	227,545	115,385
343,246	3,911	227,421	115,306
344,260	3,931	227,367	115,283
345,275	4,118	227,252	115,354
346,289	4,273	227,134	115,400
347,304	4,387	227,002	115,408
348,319	4,187	226,782	115,137
349,333	4,185	226,563	115,014
350,348	3,935	226,399	114,733
351,362	4,192	226,293	114,861
352,377	3,778	226,081	114,435
353,392	3,604	226,038	114,273
354,406	3,725	225,832	114,249
355,421	196,121	1320,204	1398,605
356,435	157,230	1453,519	1398,585
