DTS Sentinel unit serial number:	SN410029Multiplexer serial number:	ORYXHardware model number:	OX2-SRSoftware version number:	ORYX F/W v4,00 Oryx Data Collector v3.7.2.0data status	okinstallation	B5 Nyhavnadifferential loss correction	single-endedforward channel	channel 2reverse channel	N/Adate	2023/12/11time	16:22:13forward acquisition time	300,00reverse acquisition time	0,00gamma	499,1914k internal	0,3166k external	0,3166temperature offset calibration	1,0000default loss term (dB/km)	0,3820temperature slope calibration	1,0000multiplexer offset coefficient	1,0000multiplexer slope coefficient	1,0000fibre end	0,00T internal ref (°C)	13,96T ext. ref 1 (°C)	-0,97T ext. ref 2 (°C)	-1,03length (m)	temperature (°C)	Stokes	anti-Stokes-744,400	-128,778	0,109	0,011
-743,385	-111,509	-0,320	0,047
-742,371	794,946	0,053	0,107
-741,356	-143,852	-0,254	-0,017
-740,342	295,788	0,064	0,087
-739,327	-139,034	-0,221	-0,017
-738,312	-200,000	-0,018	-0,093
-737,298	-79,375	-0,286	-0,071
-736,283	30,951	-0,130	0,081
-735,269	-34,775	-0,363	0,145
-734,254	-80,780	0,094	0,023
-733,239	-18,814	-0,523	-0,238
-732,225	-142,562	0,215	0,015
-731,210	-200,000	0,024	0,109
-730,196	491,668	0,042	-0,071
-729,181	694,482	-0,041	0,079
-728,167	-200,000	-0,003	-0,027
-727,152	800,000	-0,015	-0,034
-726,137	-124,889	-0,195	0,022
-725,123	465,272	-0,065	-0,107
-724,108	127,963	-0,051	-0,048
-723,094	-74,890	-0,106	-0,028
-722,079	800,000	0,028	-0,082
-721,064	75,277	0,167	0,130
-720,050	42,277	-0,114	-0,076
-719,035	-200,000	0,003	-0,112
-718,021	134,360	-0,033	0,032
-717,006	-179,334	0,058	0,001
-715,991	498,288	-0,084	-0,143
-714,977	132,590	-0,120	-0,114
-713,962	160,139	0,150	-0,154
-712,948	14,192	0,060	0,034
-711,933	281,895	0,005	-0,006
-710,918	-123,386	0,052	0,006
-709,904	100,804	-0,047	-0,040
-708,889	-200,000	0,017	-0,110
-707,875	75,790	-0,125	-0,097
-706,860	-54,296	0,109	0,036
-705,845	48,430	-0,068	0,046
-704,831	-200,000	0,005	0,125
-703,816	-144,373	-0,138	-0,009
-702,802	-200,000	-0,003	0,066
-701,787	32,522	-0,088	-0,056
-700,772	-200,000	0,006	-0,132
-699,758	-200,000	0,017	-0,065
-698,743	-200,000	0,008	-0,164
-697,729	-38,840	-0,033	0,013
-696,714	7,146	0,106	0,058
-695,699	-200,000	-0,008	0,059
-694,685	418,858	0,065	0,102
-693,670	334,643	0,043	0,062
-692,656	-85,272	-0,100	-0,023
-691,641	-200,000	0,007	-0,097
-690,627	11,865	-0,076	0,043
-689,612	800,000	0,030	0,070
-688,597	371,058	-0,020	-0,030
-687,583	-16,880	-0,037	0,017
-686,568	101,063	0,092	-0,079
-685,554	800,000	-0,002	-0,005
-684,539	-200,000	0,006	0,093
-683,524	325,822	0,012	0,016
-682,510	-61,846	0,074	-0,023
-681,495	13,011	-0,114	0,064
-680,481	800,000	0,051	0,112
-679,466	157,327	-0,054	-0,055
-678,451	-156,346	-0,188	-0,008
-677,437	681,083	-0,025	-0,049
-676,422	-41,543	0,053	-0,020
-675,408	182,885	-0,038	0,041
-674,393	-200,000	0,009	-0,029
-673,378	800,000	-0,025	-0,058
-672,364	46,663	-0,099	0,067
-671,349	16,953	-0,117	-0,068
-670,335	800,000	0,043	-0,095
-669,320	22,532	-0,065	0,039
-668,305	-200,000	0,014	0,133
-667,291	-200,000	0,012	-0,074
-666,276	345,366	-0,081	-0,117
-665,262	-200,000	0,001	-0,167
-664,247	-171,162	-0,034	-0,001
-663,232	-119,100	0,083	0,011
-662,218	-200,000	0,011	0,043
-661,203	-37,054	-0,077	-0,030
-660,189	-200,000	-0,023	0,096
-659,174	-50,966	-0,066	-0,022
-658,159	-23,239	0,074	-0,032
-657,145	-200,000	-0,069	-0,278
-656,130	361,439	0,133	-0,197
-655,116	-70,975	-0,047	-0,013
-654,101	355,022	0,036	-0,052
-653,086	-103,261	-0,059	0,010
-652,072	132,759	0,034	0,032
-651,057	93,240	-0,137	-0,114
-650,043	598,936	0,032	-0,059
-649,028	48,182	-0,056	0,038
-648,014	20,537	-0,049	-0,029
-646,999	-200,000	-0,013	-0,053
-645,984	800,000	0,041	0,130
-644,970	-200,000	0,031	0,125
-643,955	-18,801	0,068	0,031
-642,941	506,243	0,061	-0,103
-641,926	776,127	0,007	-0,015
-640,911	-117,391	0,066	-0,009
-639,897	-168,168	0,025	-0,001
-638,882	-200,000	0,043	-0,144
-637,868	204,170	-0,092	-0,104
-636,853	1,404	-0,108	-0,056
-635,838	72,128	-0,024	-0,018
-634,824	800,000	-0,005	-0,012
-633,809	800,000	0,018	0,051
-632,795	-200,000	-0,013	0,071
-631,780	800,000	0,042	0,106
-630,765	-28,190	-0,116	0,049
-629,751	57,048	-0,131	-0,093
-628,736	800,000	0,073	-0,160
-627,722	67,543	-0,064	-0,047
-626,707	107,088	-0,069	-0,060
-625,692	-170,965	0,068	0,002
-624,678	800,000	-0,054	0,167
-623,663	192,836	-0,018	-0,020
-622,649	-44,106	-0,029	0,011
-621,634	-95,079	-0,057	-0,011
-620,619	18,847	0,172	-0,100
-619,605	-200,000	0,004	-0,061
-618,590	103,164	-0,025	0,022
-617,576	-115,091	0,098	0,013
-616,561	377,376	-0,035	-0,053
-615,546	-61,638	0,056	-0,017
-614,532	110,996	0,063	-0,056
-613,517	760,270	0,021	-0,041
-612,503	795,691	0,064	0,130
-611,488	800,000	-0,029	0,064
-610,474	-200,000	-0,037	-0,178
-609,459	-200,000	-0,022	0,091
-608,444	56,675	-0,116	-0,082
-607,430	-200,000	-0,009	0,049
-606,415	-200,000	-0,020	-0,150
-605,401	-200,000	0,026	-0,109
-604,386	-72,790	0,086	0,023
-603,371	273,363	0,092	0,120
-602,357	96,805	-0,013	0,011
-601,342	-145,213	-0,049	-0,003
-600,328	-27,673	-0,170	0,072
-599,313	-29,237	-0,084	0,035
-598,298	800,000	0,052	-0,132
-597,284	141,265	0,060	-0,058
-596,269	-200,000	0,015	0,137
-595,255	192,949	-0,112	0,124
-594,240	-200,000	0,026	-0,159
-593,225	800,000	0,006	-0,014
-592,211	48,604	0,020	-0,013
-591,196	101,707	-0,079	0,067
-590,182	-3,156	-0,017	-0,009
-589,167	-37,069	0,077	-0,030
-588,152	800,000	-0,023	0,053
-587,138	434,453	0,078	0,124
-586,123	-200,000	0,011	-0,122
-585,109	-88,407	-0,028	-0,006
-584,094	-200,000	-0,000	-0,047
-583,079	-200,000	0,010	0,106
-582,065	-200,000	-0,040	0,171
-581,050	-200,000	0,029	0,094
-580,036	-154,589	-0,028	0,001
-579,021	-84,909	0,128	0,029
-578,006	-200,000	-0,006	-0,036
-576,992	-16,162	0,179	0,083
-575,977	669,083	-0,044	0,084
-574,963	-53,541	0,028	-0,009
-573,948	474,517	0,033	0,054
-572,934	549,208	0,049	-0,086
-571,919	-52,513	-0,123	-0,041
-570,904	-3,564	0,065	0,033
-569,890	146,032	-0,057	0,056
-568,875	23,396	0,150	-0,090
-567,861	-78,033	0,074	0,018
-566,846	296,964	-0,061	0,082
-565,831	430,845	-0,031	-0,049
-564,817	79,372	-0,082	0,065
-563,802	-196,977	-0,173	0,001
-562,788	800,000	-0,013	-0,031
-561,773	142,615	0,017	-0,016
-560,758	19,019	0,064	-0,037
-559,744	-121,265	-0,036	0,004
-558,729	-159,959	-0,056	0,002
-557,715	-118,759	0,074	0,009
-556,700	-81,719	-0,130	0,031
-555,685	265,528	-0,034	-0,043
-554,671	-32,454	0,071	-0,029
-553,656	53,548	0,093	-0,065
-552,642	709,387	-0,042	0,081
-551,627	26,274	0,082	0,050
-550,612	-200,000	0,003	-0,103
-549,598	800,000	-0,039	-0,098
-548,583	-153,360	-0,088	0,004
-547,569	236,943	0,006	-0,007
-546,554	-200,000	0,008	0,039
-545,539	88,005	0,054	0,043
-544,525	681,787	0,023	-0,044
-543,510	-200,000	0,013	-0,059
-542,496	57,102	0,096	0,068
-541,481	160,140	-0,082	0,083
-540,466	-200,000	-0,023	-0,077
-539,452	-36,941	0,064	0,025
-538,437	170,517	0,085	0,089
-537,423	-28,473	0,091	0,038
-536,408	-200,000	0,003	-0,080
-535,393	-172,282	-0,162	0,004
-534,379	30,069	-0,016	0,010
-533,364	327,286	0,016	-0,023
-532,350	-200,000	0,013	0,089
-531,335	3,582	0,106	0,056
-530,321	83,151	-0,096	0,076
-529,306	-77,751	-0,097	-0,024
-528,291	-150,909	-0,037	-0,002
-527,277	88,450	-0,093	-0,075
-526,262	-15,300	-0,152	0,070
-525,248	-200,000	-0,015	0,104
-524,233	-155,920	0,115	-0,005
-523,218	-12,699	-0,023	-0,011
-522,204	-64,207	-0,111	0,033
-521,189	-123,606	0,112	-0,013
-520,175	684,433	-0,020	0,039
-519,160	800,000	-0,059	-0,144
-518,145	150,119	-0,043	0,042
-517,131	-200,000	-0,001	0,080
-516,116	-177,823	0,161	-0,003
-515,102	143,847	-0,047	-0,046
-514,087	191,988	-0,170	0,187
-513,072	50,373	0,134	-0,092
-512,058	15,894	0,012	0,007
-511,043	291,543	0,052	0,069
-510,029	-55,659	0,101	-0,033
-509,014	-200,000	0,011	0,000
-507,999	-162,141	-0,047	0,002
-506,985	-54,906	-0,042	-0,014
-505,970	169,773	0,013	-0,014
-504,956	303,709	0,035	0,048
-503,941	-57,136	0,045	-0,014
-502,926	-114,188	0,125	0,017
-501,912	35,152	0,084	0,054
-500,897	-200,000	0,012	-0,055
-499,883	-200,000	0,016	-0,057
-498,868	733,647	-0,113	0,222
-497,853	-200,000	0,020	-0,139
-496,839	-53,921	0,086	0,028
-495,824	171,601	-0,095	0,099
-494,810	736,140	0,086	0,169
-493,795	63,773	-0,116	0,085
-492,781	800,000	-0,037	0,075
-491,766	-59,810	-0,087	-0,027
-490,751	23,518	0,067	-0,040
-489,737	444,573	-0,082	-0,132
-488,722	-3,114	-0,005	-0,002
-487,708	371,203	0,024	-0,036
-486,693	-200,000	0,029	0,102
-485,678	40,913	-0,016	0,010
-484,664	214,731	0,044	0,051
-483,649	800,000	-0,042	0,116
-482,635	28,424	0,099	0,061
-481,620	-200,000	0,006	0,022
-480,605	-157,018	-0,152	-0,007
-479,591	388,894	0,053	0,079
-478,576	800,000	-0,030	-0,091
-477,562	-141,625	-0,020	0,001
-476,547	-89,858	-0,127	-0,027
-475,532	-39,249	-0,135	-0,051
-474,518	3,032	0,129	-0,068
-473,503	-19,982	-0,049	-0,022
-472,489	44,222	-0,107	0,072
-471,474	-200,000	-0,001	-0,077
-470,459	57,385	-0,034	0,024
-469,445	800,000	0,011	0,023
-468,430	-200,000	-0,003	0,062
-467,416	595,184	0,041	-0,074
-466,401	-200,000	-0,007	-0,066
-465,386	-200,000	0,000	0,006
-464,372	-200,000	-0,014	-0,058
-463,357	800,000	-0,059	-0,149
-462,343	800,000	0,076	-0,180
-461,328	-139,040	-0,072	-0,006
-460,313	-12,413	-0,084	-0,040
-459,299	-200,000	0,019	0,137
-458,284	800,000	-0,022	0,059
-457,270	260,534	-0,064	0,081
-456,255	-200,000	-0,010	0,111
-455,241	-90,590	-0,078	0,016
-454,226	800,000	-0,042	-0,098
-453,211	251,541	0,049	0,060
-452,197	-200,000	-0,029	0,104
-451,182	-58,514	0,026	0,008
-450,168	-167,333	-0,137	0,004
-449,153	800,000	0,034	0,096
-448,138	-7,606	0,111	-0,054
-447,124	126,231	-0,139	-0,127
-446,109	172,310	-0,127	-0,133
-445,095	800,000	-0,028	0,074
-444,080	-73,842	0,082	0,022
-443,065	800,000	0,065	0,164
-442,051	-176,217	-0,101	0,002
-441,036	129,708	-0,138	-0,128
-440,022	-27,622	-0,029	-0,012
-439,007	114,082	0,036	-0,032
-437,992	6,957	0,097	0,052
-436,978	-84,887	0,045	0,010
-435,963	800,000	0,038	0,114
-434,949	143,761	0,114	-0,110
-433,934	800,000	-0,050	-0,113
-432,919	800,000	-0,055	-0,137
-431,905	796,104	-0,066	0,132
-430,890	32,651	-0,034	0,021
-429,876	-77,793	0,080	-0,020
-428,861	388,679	0,048	0,072
-427,846	-79,104	-0,065	0,016
-426,832	15,116	0,121	-0,069
-425,817	223,671	-0,033	0,038
-424,803	800,000	0,026	0,062
-423,788	-200,000	-0,041	0,137
-422,773	-20,832	-0,065	-0,029
-421,759	-89,827	0,060	0,013
-420,744	800,000	0,018	0,041
-419,730	-60,685	0,044	-0,013
-418,715	-200,000	-0,046	-0,217
-417,701	780,833	-0,038	0,075
-416,686	164,639	0,026	0,027
-415,671	-200,000	0,004	0,025
-414,657	609,849	0,041	-0,075
-413,642	-200,000	0,010	0,050
-412,628	-200,000	-0,001	0,131
-411,613	-63,287	-0,083	-0,025
-410,598	-200,000	0,001	-0,053
-409,584	800,000	0,043	0,091
-408,569	151,115	0,017	-0,017
-407,555	-200,000	-0,000	-0,002
-406,540	-193,920	-0,045	0,000
-405,525	-200,000	0,009	-0,155
-404,511	-98,242	-0,094	-0,017
-403,496	-113,941	0,081	-0,011
-402,482	-49,724	0,204	0,070
-401,467	-121,961	0,210	0,025
-400,452	126,565	0,113	-0,104
-399,438	605,756	0,040	-0,072
-398,423	52,423	0,010	-0,007
-397,409	-29,448	-0,038	-0,016
-396,394	-200,000	-0,011	-0,084
-395,379	800,000	0,007	0,021
-394,365	800,000	-0,029	0,065
-393,350	130,563	0,085	0,079
-392,336	800,000	-0,023	0,059
-391,321	437,730	0,040	-0,064
-390,306	800,000	-0,091	-0,225
-389,292	-91,530	-0,124	0,026
-388,277	246,254	-0,037	0,046
-387,263	143,670	0,074	0,072
-386,248	-200,000	-0,016	-0,103
-385,233	-77,547	-0,061	-0,015
-384,219	-200,000	-0,021	-0,084
-383,204	438,182	0,009	-0,014
-382,190	-200,000	0,025	-0,091
-381,175	78,865	-0,060	0,046
-380,160	-29,364	-0,102	-0,042
-379,146	-200,000	0,004	0,035
-378,131	-200,000	0,024	0,135
-377,117	-200,000	0,012	0,099
-376,102	88,142	-0,074	-0,060
-375,088	800,000	0,029	-0,088
-374,073	-200,000	0,004	0,021
-373,058	-52,981	0,104	-0,035
-372,044	456,811	-0,043	0,069
-371,029	498,256	-0,037	-0,062
-370,015	-200,000	0,031	0,113
-369,000	-200,000	-0,010	0,035
-367,985	-162,230	-0,038	-0,001
-366,971	-110,205	0,026	-0,004
-365,956	-29,505	0,096	-0,039
-364,942	-26,491	0,107	-0,045
-363,927	13,411	0,062	0,035
-362,912	800,000	0,033	0,102
-361,898	-105,160	0,104	-0,017
-360,883	-90,241	0,021	0,004
-359,869	800,000	-0,013	0,040
-358,854	464,160	0,050	0,082
-357,839	-200,000	0,016	0,120
-356,825	249,012	-0,112	-0,138
-355,810	-200,000	-0,017	0,114
-354,796	329,057	-0,082	-0,115
-353,781	-147,136	-0,054	0,003
-352,766	149,460	-0,082	-0,081
-351,752	6,348	0,101	0,054
-350,737	-200,000	0,007	0,082
-349,723	-16,814	0,233	-0,106
-348,708	529,566	-0,039	-0,067
-347,693	272,404	0,043	0,055
-346,679	99,995	-0,102	-0,086
-345,664	251,592	-0,108	-0,133
-344,650	-200,000	-0,009	-0,042
-343,635	-200,000	0,024	0,169
-342,620	372,572	0,130	0,192
-341,606	-70,094	0,110	0,030
-340,591	64,338	-0,093	-0,067
-339,577	94,395	0,056	-0,046
-338,562	-131,198	-0,071	0,007
-337,548	-23,333	-0,090	0,039
-336,533	-200,000	0,002	0,035
-335,518	-200,000	0,041	0,192
-334,504	-7,258	0,124	0,061
-333,489	-200,000	-0,018	-0,085
-332,475	110,495	0,033	0,029
-331,460	50,537	0,074	0,051
-330,445	89,224	0,044	0,036
-329,431	-65,742	0,063	-0,018
-328,416	397,413	-0,020	0,030
-327,402	-50,348	0,192	-0,065
-326,387	105,891	0,050	0,043
-325,372	-99,300	0,089	0,016
-324,358	700,733	0,078	-0,149
-323,343	577,563	0,018	-0,031
-322,329	40,465	0,034	-0,022
-321,314	258,485	0,099	-0,124
-320,299	800,000	-0,075	-0,156
-319,285	210,970	-0,020	0,023
-318,270	-97,158	-0,076	0,014
-317,256	-200,000	0,050	-0,219
-316,241	-125,282	-0,116	-0,013
-315,226	169,777	0,041	0,042
-314,212	100,999	0,009	0,008
-313,197	-12,094	-0,030	0,014
-312,183	800,000	0,023	-0,069
-311,168	800,000	0,014	-0,031
-310,153	-200,000	-0,000	0,110
-309,139	-200,000	0,020	0,077
-308,124	166,931	-0,022	0,023
-307,110	-14,277	-0,056	-0,026
-306,095	0,780	0,048	-0,025
-305,080	180,364	-0,035	0,037
-304,066	800,000	-0,001	-0,003
-303,051	-66,133	-0,117	0,034
-302,037	158,590	0,054	0,054
-301,022	-73,360	0,056	-0,015
-300,008	-200,000	0,010	0,110
-298,993	800,000	0,029	0,065
-297,978	-95,407	0,129	0,025
-296,964	298,839	0,032	-0,042
-295,949	-52,463	-0,097	-0,032
-294,935	-200,000	-0,010	-0,073
-293,920	142,999	-0,040	-0,038
-292,905	800,000	0,056	0,160
-291,891	25,267	0,075	0,045
-290,876	-200,000	-0,008	-0,038
-289,862	-166,577	-0,072	-0,002
-288,847	269,830	-0,058	-0,074
-287,832	-200,000	0,014	-0,056
-286,818	-200,000	-0,023	0,126
-285,803	-200,000	-0,001	-0,006
-284,789	-200,000	-0,007	-0,067
-283,774	87,953	-0,031	0,025
-282,759	-200,000	0,021	0,092
-281,745	800,000	0,037	-0,083
-280,730	-200,000	0,005	-0,182
-279,716	-200,000	-0,016	0,090
-278,701	97,877	-0,073	0,061
-277,686	800,000	-0,005	0,015
-276,672	-47,976	-0,095	0,033
-275,657	-57,925	0,104	-0,033
-274,643	-81,955	0,129	-0,030
-273,628	11,761	-0,083	-0,046
-272,613	800,000	0,012	-0,030
-271,599	-160,657	-0,070	0,003
-270,584	-110,840	-0,036	-0,005
-269,570	800,000	0,048	0,103
-268,555	-73,120	-0,043	-0,011
-267,540	800,000	-0,029	0,073
-266,526	509,256	-0,106	-0,179
-265,511	-136,319	-0,093	0,008
-264,497	-200,000	-0,013	0,124
-263,482	-35,982	0,072	0,028
-262,467	-122,599	0,100	-0,012
-261,453	800,000	0,034	0,084
-260,438	-116,137	0,097	-0,013
-259,424	233,266	0,062	0,073
-258,409	-91,183	0,064	0,013
-257,395	-58,938	-0,063	0,019
-256,380	154,656	0,079	0,078
-255,365	39,846	0,035	-0,022
-254,351	-93,810	0,041	-0,008
-253,336	-189,328	0,074	-0,001
-252,322	45,992	0,091	-0,061
-251,307	38,632	0,049	0,032
-250,292	-76,092	0,032	0,008
-249,278	80,719	0,076	-0,059
-248,263	154,225	-0,125	0,123
-247,249	198,180	0,108	-0,119
-246,234	-18,772	-0,031	0,014
-245,219	320,603	0,064	-0,088
-244,205	34,459	-0,069	-0,043
-243,190	-2,349	-0,026	0,013
-242,176	718,069	0,022	-0,042
-241,161	-200,000	0,002	0,230
-240,146	-200,000	0,007	-0,063
-239,132	-200,000	-0,007	-0,087
-238,117	800,000	0,045	0,118
-237,103	-200,000	-0,052	-0,231
-236,088	96,392	0,088	-0,073
-235,073	88,550	-0,048	0,039
-234,059	-200,000	-0,002	-0,104
-233,044	-200,000	-0,020	0,085
-232,030	800,000	0,025	-0,069
-231,015	270,910	0,108	-0,137
-230,000	97,409	-0,105	-0,087
-228,986	130,102	0,077	0,071
-227,971	348,732	-0,078	-0,111
-226,957	75,773	-0,042	0,032
-225,942	553,785	0,035	-0,060
-224,927	-67,378	0,010	0,003
-223,913	114,413	-0,125	0,110
-222,898	172,545	-0,013	0,013
-221,884	81,014	-0,106	0,082
-220,869	2,502	0,052	0,027
-219,855	272,406	0,055	-0,070
-218,840	-3,301	0,022	-0,011
-217,825	-30,521	-0,098	-0,040
-216,811	325,796	0,071	-0,098
-215,796	416,089	0,048	-0,073
-214,782	359,122	0,080	0,116
-213,767	242,380	0,058	0,070
-212,752	39,697	0,054	-0,035
-211,738	-200,000	0,034	0,127
-210,723	264,572	-0,074	-0,093
-209,709	-0,248	-0,172	-0,088
-208,694	131,977	0,044	-0,041
-207,679	-200,000	-0,015	-0,143
-206,665	800,000	0,041	-0,101
-205,650	278,379	0,059	0,076
-204,636	-200,000	0,000	0,046
-203,621	-106,909	-0,166	-0,026
-202,606	451,446	-0,015	0,024
-201,592	800,000	-0,073	-0,159
-200,577	800,000	-0,051	-0,106
-199,563	197,524	0,043	-0,047
-198,548	178,209	-0,078	0,082
-197,533	800,000	0,020	-0,043
-196,519	197,402	-0,045	0,049
-195,504	-200,000	-0,010	0,059
-194,490	-200,000	0,003	-0,105
-193,475	28,449	-0,134	0,081
-192,460	-200,000	-0,024	-0,125
-191,446	-200,000	0,015	-0,062
-190,431	-200,000	0,033	0,123
-189,417	92,623	-0,078	0,063
-188,402	-134,158	-0,120	0,011
-187,387	-39,071	-0,102	0,038
-186,373	-200,000	-0,023	0,079
-185,358	-158,050	0,144	0,006
-184,344	800,000	-0,009	0,022
-183,329	329,962	-0,032	-0,045
-182,315	800,000	-0,024	-0,068
-181,300	-200,000	-0,015	-0,079
-180,285	-149,307	-0,141	-0,008
-179,271	-200,000	-0,017	-0,105
-178,256	-200,000	0,000	0,062
-177,242	-200,000	-0,013	-0,109
-176,227	102,761	-0,087	0,073
-175,212	-102,204	0,068	0,012
-174,198	432,907	0,064	-0,100
-173,183	223,959	0,015	-0,018
-172,169	-45,483	-0,173	-0,061
-171,154	383,242	0,069	0,103
-170,139	-200,000	0,016	0,075
-169,125	222,969	0,046	0,054
-168,110	101,417	0,124	-0,104
-167,096	-200,000	-0,007	0,067
-166,081	106,157	0,048	0,041
-165,066	369,750	-0,013	-0,019
-164,052	-57,354	-0,089	-0,028
-163,037	-62,211	-0,084	-0,025
-162,023	-106,382	0,133	0,021
-161,008	-181,930	0,118	-0,002
-159,993	42,029	0,031	0,020
-158,979	-200,000	-0,013	-0,084
-157,964	36,970	-0,036	0,023
-156,950	-34,637	-0,149	0,058
-155,935	-200,000	-0,009	0,061
-154,920	521,592	-0,032	-0,055
-153,906	415,239	0,025	0,039
-152,891	218,575	-0,024	0,028
-151,877	-45,281	-0,111	0,039
-150,862	-200,000	-0,014	-0,102
-149,847	28,817	0,082	0,050
-148,833	39,806	-0,025	0,016
-147,818	522,003	0,068	0,115
-146,804	-26,204	0,095	-0,040
-145,789	-200,000	0,013	0,140
-144,775	151,502	-0,036	-0,035
-143,760	-36,709	-0,021	0,008
-142,745	13,806	0,103	-0,057
-141,731	800,000	-0,051	0,135
-140,716	-105,036	-0,114	-0,019
-139,702	49,517	0,062	-0,042
-138,687	-100,490	0,047	0,008
-137,672	-200,000	-0,021	0,101
-136,658	27,050	-0,072	-0,043
-135,643	-200,000	-0,014	0,065
-134,629	800,000	-0,040	0,084
-133,614	583,690	0,072	0,128
-132,599	229,256	-0,060	0,071
-131,585	-53,327	0,096	-0,031
-130,570	126,413	-0,019	0,017
-129,556	-52,395	-0,119	-0,039
-128,541	-200,000	-0,027	-0,134
-127,526	800,000	-0,019	-0,047
-126,512	158,758	-0,054	0,054
-125,497	-26,904	-0,094	-0,039
-124,483	-99,197	-0,119	0,021
-123,468	30,471	-0,092	-0,056
-122,453	-69,770	0,093	-0,025
-121,439	103,692	0,126	-0,106
-120,424	-200,000	-0,005	-0,031
-119,410	800,000	0,036	0,111
-118,395	73,916	0,089	0,067
-117,380	416,392	0,051	0,078
-116,366	463,906	-0,045	0,072
-115,351	295,900	0,020	0,027
-114,337	154,559	-0,078	-0,077
-113,322	308,011	-0,062	0,083
-112,307	-200,000	-0,009	0,065
-111,293	351,854	0,053	-0,075
-110,278	-17,705	-0,144	0,065
-109,264	220,590	0,136	0,157
-108,249	-200,000	-0,021	0,077
-107,234	176,418	-0,037	-0,039
-106,220	-73,081	-0,157	-0,041
-105,205	-103,757	0,147	-0,024
-104,191	-83,587	-0,126	0,029
-103,176	-200,000	0,025	0,088
-102,162	800,000	-0,007	0,015
-101,147	-200,000	-0,020	-0,131
-100,132	-44,332	-0,020	-0,007
-99,118	-60,220	0,003	-0,001
-98,103	383,535	0,042	-0,062
-97,089	49,973	-0,080	-0,054
-96,074	-200,000	0,009	0,038
-95,059	-200,000	-0,031	0,116
-94,045	800,000	-0,052	-0,106
-93,030	-33,047	-0,141	-0,056
-92,016	-10,763	-0,132	0,062
-91,001	48,084	0,022	-0,015
-89,986	291,666	0,048	0,063
-88,972	-33,814	0,041	-0,016
-87,957	-105,362	-0,069	0,011
-86,943	-200,000	0,006	-0,105
-85,928	-200,000	0,009	-0,115
-84,913	332,334	-0,015	0,021
-83,899	-104,585	0,020	-0,003
-82,884	-153,478	0,034	0,002
-81,870	-200,000	-0,015	-0,094
-80,855	-41,747	-0,090	0,033
-79,840	-54,931	-0,124	-0,040
-78,826	4,849	0,114	-0,060
-77,811	-6,157	-0,148	-0,072
-76,797	-104,014	0,124	0,021
-75,782	-114,122	0,138	-0,019
-74,767	-200,000	0,033	-0,199
-73,753	132,186	-0,008	-0,008
-72,738	502,467	-0,036	0,060
-71,724	800,000	0,052	-0,106
-70,709	70,178	-0,080	0,059
-69,694	-95,329	-0,066	-0,013
-68,680	-55,595	0,176	0,056
-67,665	43,650	-0,106	0,069
-66,651	-200,000	-0,051	0,167
-65,636	-200,000	-0,005	-0,031
-64,622	326,364	-0,016	0,022
-63,607	-9,753	0,042	-0,020
-62,592	262,476	-0,046	0,057
-61,578	36,437	0,040	-0,025
-60,563	-200,000	0,014	0,054
-59,549	-200,000	-0,029	0,146
-58,534	32,534	-2,023	-1,249
-57,519	-200,000	-0,224	-0,840
-56,505	-200,000	-1,359	-5,046
-55,490	33,537	0,896	0,556
-54,476	800,000	5,403	12,164
-53,461	-200,000	18,317	309,680
-52,446	800,000	738,646	2312,641
-51,432	555,072	1654,875	2862,429
-50,417	110,762	1639,677	1411,786
-49,403	74,352	1289,863	969,101
-48,388	30,414	1030,475	628,850
-47,373	19,921	992,795	571,193
-46,359	17,646	980,314	556,524
-45,344	14,348	976,580	543,572
-44,330	14,640	974,914	543,577
-43,315	13,989	973,182	540,460
-42,300	13,992	972,063	539,828
-41,286	13,934	971,265	539,177
-40,271	14,028	970,085	538,804
-39,257	14,037	969,190	538,314
-38,242	13,981	968,442	537,698
-37,227	14,047	967,451	537,340
-36,213	13,923	966,794	536,551
-35,198	13,991	965,656	536,118
-34,184	14,040	964,971	535,876
-33,169	13,957	964,031	535,062
-32,154	13,982	963,236	534,682
-31,140	13,980	962,229	534,096
-30,125	13,948	961,711	533,683
-29,111	13,990	960,626	533,195
-28,096	13,962	960,155	532,822
-27,082	13,966	959,605	532,509
-26,067	14,026	958,664	532,159
-25,052	13,947	957,858	531,438
-24,038	13,993	957,111	531,147
-23,023	13,956	956,646	530,751
-22,009	14,057	955,810	530,591
-20,994	13,998	955,271	530,082
-19,979	13,958	954,595	529,556
-18,965	13,944	953,950	529,133
-17,950	14,030	953,252	529,000
-16,936	13,958	952,768	528,480
-15,921	13,923	952,210	528,036
-14,906	13,929	951,228	527,491
-13,892	13,873	950,776	527,041
-12,877	13,877	950,028	526,619
-11,863	13,846	949,392	526,145
-10,848	13,901	948,896	526,026
-9,833	13,964	948,444	525,955
-8,819	13,925	947,877	525,493
-7,804	13,950	947,023	525,079
-6,790	13,895	946,587	524,643
-5,775	13,904	946,138	524,401
-4,760	13,856	945,511	523,879
-3,746	13,944	944,937	523,820
-2,731	13,749	944,208	522,779
-1,717	13,701	943,488	522,207
-0,702	13,736	942,783	521,905
0,313	13,506	942,176	521,630
1,327	16,764	939,908	530,612
2,342	25,747	795,094	472,654
3,356	22,387	459,387	267,930
4,371	-4,207	316,213	156,043
5,386	-8,134	298,228	143,162
6,400	-9,650	291,757	138,534
7,415	-10,592	289,237	136,395
8,429	-10,922	287,631	135,302
9,444	-11,028	286,752	134,773
10,459	-11,001	286,215	134,534
11,473	-10,941	285,398	134,197
12,488	-11,001	285,046	133,961
13,502	-10,932	284,407	133,716
14,517	-11,149	284,250	133,420
15,531	-11,463	283,427	132,718
16,546	-11,205	283,158	132,829
17,561	-11,398	282,661	132,398
18,575	-11,239	282,452	132,442
19,590	-11,235	281,953	132,200
20,604	-11,169	281,713	132,139
21,619	-11,273	281,183	131,779
22,634	-11,131	280,933	131,785
23,648	-11,189	280,547	131,538
24,663	-11,176	280,484	131,509
25,677	-11,408	280,052	131,073
26,692	-11,307	279,872	131,073
27,707	-11,396	279,581	130,840
28,721	-11,296	279,343	130,813
29,736	-11,287	278,952	130,626
30,750	-11,393	278,714	130,402
31,765	-11,485	278,563	130,232
32,780	-11,382	278,294	130,194
33,794	-11,355	278,139	130,134
34,809	-11,182	277,609	130,039
35,823	-11,333	277,419	129,795
36,838	-11,341	277,131	129,642
37,853	-11,428	276,952	129,464
38,867	-11,252	276,710	129,505
39,882	-11,388	276,604	129,316
40,896	-11,444	276,208	129,067
41,911	-11,362	276,002	129,036
42,926	-11,385	275,789	128,903
43,940	-11,421	275,547	128,745
44,955	-11,573	275,175	128,417
45,969	-11,388	275,106	128,547
46,984	-11,465	274,913	128,373
47,999	-11,535	274,676	128,185
49,013	-11,557	274,454	128,050
50,028	-11,432	274,092	127,986
51,042	-11,618	273,896	127,710
52,057	-11,622	273,709	127,608
53,071	-11,536	273,322	127,496
54,086	-11,556	273,239	127,427
55,101	-11,407	273,118	127,498
56,115	-11,315	272,768	127,409
57,130	-11,130	272,578	127,480
58,144	-11,179	272,297	127,292
59,159	-11,319	272,334	127,168
60,174	-11,088	271,948	127,190
61,188	-11,201	271,799	127,005
62,203	-11,128	271,435	126,890
63,217	-11,212	271,175	126,680
64,232	-11,381	271,100	126,479
65,247	-11,152	270,709	126,495
66,261	-11,392	270,514	126,172
67,276	-11,373	270,293	126,075
68,290	-11,345	270,107	126,003
69,305	-11,298	269,903	125,940
70,320	-11,158	269,615	125,922
71,334	-11,332	269,409	125,655
72,349	-11,261	269,471	125,739
73,363	-11,149	268,997	125,608
74,378	-11,224	268,832	125,451
75,393	-11,120	268,570	125,414
76,407	-11,267	268,366	125,172
77,422	-11,281	268,253	125,096
78,436	-11,191	267,892	124,999
79,451	-10,988	267,628	125,048
80,466	-11,316	267,484	124,672
81,480	-11,338	267,177	124,498
82,495	-11,321	266,951	124,398
83,509	-11,238	266,826	124,403
84,524	-11,221	266,549	124,278
85,539	-11,480	266,467	123,995
86,553	-11,439	266,281	123,934
87,568	-11,288	266,029	123,942
88,582	-11,343	265,887	123,815
89,597	-11,326	265,675	123,721
90,611	-11,163	265,345	123,703
91,626	-11,073	265,326	123,763
92,641	-11,267	265,047	123,448
93,655	-11,210	264,849	123,396
94,670	-11,282	264,611	123,210
95,684	-11,370	264,370	123,007
96,699	-11,347	264,156	122,917
97,714	-11,115	264,017	123,050
98,728	-11,340	263,746	122,712
99,743	-11,458	263,616	122,534
100,757	-11,228	263,315	122,588
101,772	-11,317	263,181	122,436
102,787	-11,183	262,978	122,450
103,801	-11,087	262,742	122,415
104,816	-11,147	262,593	122,281
105,830	-11,117	262,446	122,228
106,845	-11,278	262,342	122,026
107,860	-11,119	262,122	122,053
108,874	-10,965	261,775	122,018
109,889	-11,107	261,555	121,779
110,903	-11,216	261,320	121,562
111,918	-11,130	261,123	121,535
112,933	-11,044	260,971	121,529
113,947	-11,159	260,885	121,377
114,962	-11,173	260,796	121,313
115,976	-11,180	260,416	121,119
116,991	-11,435	260,346	120,851
118,006	-11,193	260,064	120,923
119,020	-11,089	259,871	120,914
120,035	-11,168	259,840	120,818
121,049	-10,970	259,534	120,839
122,064	-11,195	259,404	120,571
123,079	-11,289	259,229	120,396
124,093	-11,273	259,094	120,337
125,108	-11,105	258,704	120,292
126,122	-11,289	258,397	119,978
127,137	-11,346	258,205	119,829
128,151	-11,213	258,000	119,839
129,166	-11,164	257,940	119,843
130,181	-11,125	257,653	119,733
131,195	-11,443	257,554	119,399
132,210	-11,231	257,343	119,474
133,224	-11,176	257,159	119,427
134,239	-11,067	256,901	119,391
135,254	-11,296	256,751	119,112
136,268	-11,164	256,639	119,163
137,283	-11,277	256,397	118,943
138,297	-11,496	256,027	118,571
139,312	-11,339	256,009	118,688
140,327	-11,310	255,846	118,627
141,341	-10,983	255,649	118,807
142,356	-10,858	255,541	118,854
143,370	-10,999	255,419	118,665
144,385	-11,156	255,247	118,439
145,400	-11,019	254,789	118,334
146,414	-10,769	254,642	118,470
147,429	-11,027	254,487	118,165
148,443	-11,091	254,305	118,016
149,458	-10,912	254,240	118,129
150,473	-10,978	254,057	117,977
151,487	-10,793	253,755	117,984
152,502	-10,934	253,656	117,807
153,516	-11,114	253,454	117,549
154,531	-11,020	253,250	117,524
155,546	-11,174	252,984	117,259
156,560	-11,053	252,832	117,281
157,575	-11,000	252,689	117,249
158,589	-11,050	252,514	117,115
159,604	-10,893	252,185	117,086
160,619	-10,990	252,154	116,978
161,633	-11,008	252,048	116,903
162,648	-10,830	251,817	116,936
163,662	-10,982	251,665	116,727
164,677	-10,944	251,627	116,731
165,692	-10,996	251,269	116,511
166,706	-11,059	251,271	116,448
167,721	-10,878	250,929	116,432
168,735	-10,949	250,930	116,362
169,750	-11,026	250,648	116,155
170,764	-11,111	250,577	116,041
171,779	-10,890	250,439	116,153
172,794	-11,104	250,243	115,872
173,808	-11,014	250,224	115,928
174,823	-11,022	249,716	115,676
175,837	-11,426	249,588	115,266
176,852	-11,141	249,447	115,430
177,867	-10,904	249,459	115,625
178,881	-10,793	249,151	115,565
179,896	-10,866	249,008	115,427
180,910	-10,830	248,662	115,287
181,925	-10,719	248,622	115,350
182,940	-10,998	248,407	115,007
183,954	-10,844	248,351	115,100
184,969	-10,713	248,064	115,066
185,983	-10,905	247,984	114,858
186,998	-10,864	247,761	114,779
188,013	-10,747	247,640	114,810
189,027	-10,829	247,456	114,646
190,042	-10,946	247,341	114,486
191,056	-10,802	247,185	114,523
192,071	-10,662	246,980	114,533
193,086	-10,816	246,611	114,225
194,100	-10,683	246,587	114,314
195,115	-10,765	246,486	114,189
196,129	-10,744	246,329	114,124
197,144	-10,790	246,103	113,970
198,159	-10,754	245,840	113,868
199,173	-10,756	245,576	113,734
200,188	-10,785	245,426	113,631
201,202	-10,910	245,229	113,427
202,217	-11,125	244,832	113,056
203,232	-11,271	244,801	112,912
204,246	-10,655	244,945	113,474
205,261	-9,748	244,944	114,209
206,275	-10,062	244,595	113,778
207,290	-8,826	245,144	115,040
208,304	-5,627	246,140	118,135
209,319	-3,070	246,719	120,512
210,334	-2,327	247,044	121,274
211,348	-1,550	247,010	121,887
212,363	-1,111	246,914	122,192
213,377	-0,575	247,008	122,669
214,392	-0,494	246,825	122,633
215,407	-0,563	246,712	122,510
216,421	-0,378	246,529	122,560
217,436	-0,573	246,497	122,373
218,450	-0,549	246,236	122,252
219,465	-0,661	246,017	122,040
220,480	-0,421	245,669	122,053
221,494	-0,417	245,685	122,054
222,509	-0,752	245,423	121,639
223,523	-0,701	245,319	121,618
224,538	-0,682	245,172	121,550
225,553	-0,558	245,023	121,567
226,567	-0,729	244,883	121,346
227,582	-0,662	244,792	121,345
228,596	-0,576	244,537	121,279
229,611	-0,975	244,573	120,960
230,626	-0,762	244,264	120,970
231,640	-0,859	244,086	120,792
232,655	-0,662	243,915	120,857
233,669	-0,822	243,713	120,616
234,684	-0,821	243,637	120,568
235,699	-0,682	243,401	120,553
236,713	-0,764	243,190	120,371
237,728	-0,814	243,083	120,268
238,742	-0,717	242,919	120,254
239,757	-0,884	242,880	120,089
240,772	-0,672	242,516	120,069
241,786	-0,889	242,472	119,862
242,801	-0,703	242,229	119,881
243,815	-0,702	242,235	119,874
244,830	-0,544	241,882	119,816
245,844	-0,806	241,802	119,555
246,859	-0,808	241,578	119,432
247,874	-0,920	241,597	119,341
248,888	-0,768	241,262	119,286
249,903	-0,817	241,204	119,208
250,917	-0,587	240,854	119,209
251,932	-0,833	240,948	119,048
252,947	-0,601	240,562	119,031
253,961	-0,663	240,462	118,922
254,976	-0,789	240,413	118,786
255,990	-0,722	240,259	118,753
257,005	-0,786	240,000	118,563
258,020	-0,560	239,836	118,652
259,034	-0,873	239,825	118,386
260,049	-0,676	239,666	118,455
261,063	-0,753	239,472	118,286
262,078	-0,668	239,301	118,259
263,093	-0,584	239,045	118,189
264,107	-0,733	238,966	118,021
265,122	-0,786	238,792	117,882
266,136	-0,731	238,824	117,931
267,151	-0,571	238,673	117,973
268,166	-0,685	238,328	117,702
269,180	-0,689	238,200	117,625
270,195	-0,580	237,915	117,560
271,209	-0,692	237,905	117,456
272,224	-0,619	237,841	117,471
273,239	-0,720	237,675	117,299
274,253	-0,525	237,507	117,360
275,268	-0,498	237,122	117,180
276,282	-0,635	237,088	117,045
277,297	-0,461	236,915	117,086
278,312	-0,600	236,941	116,979
279,326	-0,770	236,853	116,792
280,341	-0,581	236,616	116,813
281,355	-0,725	236,360	116,563
282,370	-0,682	236,277	116,546
283,384	-0,597	236,237	116,582
284,399	-0,538	235,996	116,498
285,414	-0,699	235,847	116,289
286,428	-0,744	235,736	116,188
287,443	-0,730	235,625	116,135
288,457	-0,452	235,358	116,210
289,472	-0,607	235,131	115,966
290,487	-0,499	235,161	116,054
291,501	-0,690	234,959	115,796
292,516	-0,652	234,783	115,728
293,530	-0,619	234,606	115,657
294,545	-0,533	234,436	115,629
295,560	-0,476	234,170	115,532
296,574	-0,553	234,179	115,467
297,589	-0,392	233,818	115,403
298,603	-0,496	233,710	115,259
299,618	-0,597	233,684	115,157
300,633	-0,478	233,503	115,150
301,647	-0,603	233,416	115,000
302,662	-0,468	233,220	114,998
303,676	-0,247	233,071	115,085
304,691	-0,277	232,922	114,978
305,706	-0,533	232,712	114,666
306,720	-0,516	232,599	114,614
307,735	-0,514	232,553	114,583
308,749	-0,312	232,325	114,615
309,764	-0,420	232,227	114,474
310,779	-0,358	232,146	114,471
311,793	-0,568	231,945	114,200
312,808	-0,504	231,753	114,145
313,822	-0,534	231,543	114,008
314,837	-0,281	231,393	114,118
315,852	-0,342	231,440	114,084
316,866	-0,374	231,230	113,946
317,881	-0,399	231,016	113,811
318,895	-0,396	230,897	113,745
319,910	-0,351	230,690	113,666
320,925	-0,436	230,548	113,522
321,939	-0,227	230,334	113,566
322,954	-0,384	230,367	113,453
323,968	-0,233	230,225	113,487
324,983	-0,358	229,951	113,247
325,997	-0,413	229,912	113,176
327,012	-0,337	229,802	113,169
328,027	-0,286	229,604	113,100
329,041	-0,379	229,379	112,909
330,056	-0,386	229,248	112,829
331,070	-0,346	229,222	112,837
332,085	-0,273	228,968	112,757
333,100	-0,362	228,886	112,639
334,114	-0,258	228,681	112,607
335,129	-0,452	228,644	112,432
336,143	-0,375	228,420	112,370
337,158	-0,253	228,259	112,372
338,173	-0,135	228,072	112,359
339,187	-0,251	228,086	112,269
340,202	-0,449	227,873	112,005
341,216	-0,268	227,737	112,064
342,231	0,009	227,495	112,143
343,246	-0,171	227,444	111,973
344,260	-0,123	227,332	111,944
345,275	-0,224	227,123	111,755
346,289	-0,083	227,098	111,839
347,304	-0,256	226,886	111,595
348,319	-0,114	226,704	111,601
349,333	-0,124	226,631	111,549
350,348	-0,059	226,385	111,465
351,362	-0,304	226,296	111,229
352,377	-0,211	226,185	111,233
353,392	0,159	226,013	111,415
354,406	-0,168	225,927	111,119
355,421	195,517	1320,732	1393,777
356,435	156,723	1454,086	1393,750
