DTS Sentinel unit serial number:	SN410029Multiplexer serial number:	ORYXHardware model number:	OX2-SRSoftware version number:	ORYX F/W v4,00 Oryx Data Collector v3.7.2.0data status	okinstallation	B5 Nyhavnadifferential loss correction	single-endedforward channel	channel 2reverse channel	N/Adate	2023/12/14time	08:42:13forward acquisition time	300,00reverse acquisition time	0,00gamma	499,1914k internal	0,3161k external	0,3161temperature offset calibration	1,0000default loss term (dB/km)	0,3820temperature slope calibration	1,0000multiplexer offset coefficient	1,0000multiplexer slope coefficient	1,0000fibre end	0,00T internal ref (°C)	7,03T ext. ref 1 (°C)	-9,19T ext. ref 2 (°C)	-9,26length (m)	temperature (°C)	Stokes	anti-Stokes-744,400	13,073	0,211	0,120
-743,385	-100,177	-0,332	-0,060
-742,371	295,638	0,184	0,248
-741,356	-61,337	-0,411	-0,127
-740,342	133,481	0,138	0,131
-739,327	-87,134	-0,288	-0,064
-738,312	27,797	0,126	0,078
-737,298	-97,159	-0,292	-0,056
-736,283	360,825	0,060	0,089
-735,269	-65,097	-0,351	0,103
-734,254	22,461	0,158	0,095
-733,239	-41,353	-0,649	-0,245
-732,225	-17,288	0,261	0,121
-731,210	-200,000	-0,032	0,113
-730,196	-24,812	-0,027	-0,012
-729,181	-107,404	0,046	0,007
-728,167	-200,000	-0,015	0,257
-727,152	215,050	0,033	-0,039
-726,137	-114,382	-0,081	-0,011
-725,123	800,000	-0,028	-0,067
-724,108	136,796	-0,098	-0,094
-723,094	-200,000	-0,030	-0,100
-722,079	-200,000	0,006	0,025
-721,064	-200,000	0,013	0,108
-720,050	-93,926	-0,224	-0,045
-719,035	-200,000	-0,024	0,091
-718,021	-72,155	-0,109	-0,030
-717,006	800,000	-0,043	-0,090
-715,991	-200,000	0,019	-0,149
-714,977	-200,000	0,047	-0,201
-713,962	144,639	-0,084	0,083
-712,948	237,388	-0,028	-0,034
-711,933	-200,000	-0,014	0,070
-710,918	-63,852	0,135	0,040
-709,904	-28,481	-0,053	0,022
-708,889	-200,000	0,030	-0,133
-707,875	-102,620	-0,025	0,004
-706,860	36,906	0,073	0,047
-705,845	629,510	-0,049	0,091
-704,831	11,187	0,074	-0,042
-703,816	800,000	0,010	-0,026
-702,802	505,832	-0,061	0,104
-701,787	-200,000	-0,006	-0,078
-700,772	-200,000	0,120	0,000
-699,758	343,467	-0,030	0,043
-698,743	-200,000	-0,010	0,076
-697,729	800,000	-0,016	0,052
-696,714	27,968	0,085	0,053
-695,699	800,000	0,022	0,054
-694,685	800,000	-0,051	0,155
-693,670	87,911	0,023	-0,019
-692,656	-31,243	-0,033	-0,014
-691,641	-92,133	-0,130	-0,027
-690,627	-200,000	0,041	0,137
-689,612	652,064	-0,023	0,043
-688,597	423,883	0,073	0,116
-687,583	-48,800	-0,091	0,032
-686,568	-44,441	0,181	-0,066
-685,554	-13,316	-0,085	0,040
-684,539	800,000	-0,050	0,154
-683,524	154,087	-0,052	0,052
-682,510	496,214	0,038	0,064
-681,495	800,000	0,050	0,128
-680,481	-190,233	-0,105	-0,001
-679,466	800,000	-0,028	-0,088
-678,451	-200,000	-0,009	0,036
-677,437	-200,000	0,012	-0,102
-676,422	-90,615	-0,055	0,011
-675,408	306,205	0,017	0,023
-674,393	-12,801	-0,066	0,031
-673,378	481,548	0,064	-0,108
-672,364	-200,000	-0,022	-0,098
-671,349	70,930	0,113	-0,086
-670,335	800,000	-0,029	0,074
-669,320	94,827	0,031	-0,026
-668,305	-0,948	-0,094	0,049
-667,291	-200,000	0,032	0,168
-666,276	318,269	-0,044	-0,061
-665,262	800,000	-0,032	-0,097
-664,247	-61,236	-0,100	0,031
-663,232	39,321	-0,012	-0,008
-662,218	-200,000	-0,007	-0,035
-661,203	-64,566	-0,088	0,026
-660,189	-110,347	-0,095	0,014
-659,174	129,439	0,122	-0,115
-658,159	3,006	-0,120	0,064
-657,145	-200,000	-0,003	-0,101
-656,130	442,165	0,046	-0,074
-655,116	-31,247	-0,092	0,038
-654,101	-200,000	0,001	0,137
-653,086	800,000	0,061	-0,164
-652,072	-200,000	-0,023	-0,087
-651,057	800,000	-0,052	-0,123
-650,043	-200,000	-0,038	-0,146
-649,028	86,190	-0,103	-0,083
-648,014	372,135	-0,033	0,049
-646,999	-200,000	0,012	-0,070
-645,984	17,661	-0,055	-0,032
-644,970	183,484	-0,019	0,021
-643,955	181,355	-0,111	-0,120
-642,941	-3,309	0,154	-0,079
-641,926	290,265	-0,054	-0,073
-640,911	-7,360	0,103	-0,051
-639,897	-200,000	-0,002	-0,048
-638,882	-95,352	-0,003	-0,001
-637,868	414,087	0,061	-0,095
-636,853	-64,748	-0,067	0,020
-635,838	4,793	-0,080	-0,043
-634,824	508,265	-0,029	0,050
-633,809	-135,389	0,152	-0,013
-632,795	-200,000	0,000	0,114
-631,780	79,997	0,076	0,060
-630,765	-30,417	-0,037	0,015
-629,751	435,069	-0,041	-0,065
-628,736	-41,629	0,084	0,031
-627,722	-200,000	-0,023	-0,128
-626,707	800,000	-0,023	-0,067
-625,692	800,000	0,038	-0,079
-624,678	800,000	-0,038	0,108
-623,663	4,854	-0,165	0,089
-622,649	-107,976	-0,149	0,024
-621,634	-15,968	-0,057	0,026
-620,619	304,221	-0,054	0,073
-619,605	-200,000	-0,040	0,177
-618,590	800,000	-0,014	-0,035
-617,576	-132,540	0,123	-0,011
-616,561	-64,628	0,115	-0,034
-615,546	-50,956	-0,033	-0,011
-614,532	-144,718	0,039	-0,003
-613,517	-69,560	0,086	0,024
-612,503	-200,000	-0,033	0,164
-611,488	92,602	-0,064	0,053
-610,474	-200,000	0,033	0,122
-609,459	-200,000	0,005	-0,018
-608,444	-49,935	-0,138	-0,048
-607,430	800,000	-0,036	-0,074
-606,415	-200,000	-0,020	0,081
-605,401	381,897	-0,055	0,083
-604,386	-200,000	-0,021	-0,096
-603,371	116,849	0,050	-0,045
-602,357	389,884	0,051	0,078
-601,342	-200,000	0,006	-0,020
-600,328	127,944	-0,143	-0,134
-599,313	-200,000	0,004	-0,051
-598,298	-200,000	0,001	-0,041
-597,284	59,983	-0,025	0,018
-596,269	800,000	0,048	-0,123
-595,255	373,301	0,050	0,075
-594,240	-111,491	-0,108	0,016
-593,225	-200,000	-0,014	-0,089
-592,211	800,000	-0,029	-0,095
-591,196	14,641	0,039	0,022
-590,182	760,158	0,064	-0,128
-589,167	796,117	-0,040	-0,081
-588,152	328,560	0,025	-0,035
-587,138	784,212	0,057	-0,115
-586,123	-200,000	0,000	-0,132
-585,109	800,000	-0,098	-0,213
-584,094	84,134	0,032	0,025
-583,079	344,476	0,057	0,082
-582,065	547,520	0,035	-0,061
-581,050	217,285	-0,068	0,080
-580,036	337,736	0,023	-0,033
-579,021	-78,468	-0,158	-0,039
-578,006	497,210	-0,041	0,069
-576,992	205,378	-0,056	0,064
-575,977	121,428	-0,088	-0,080
-574,963	-200,000	-0,005	0,101
-573,948	-4,764	0,067	0,034
-572,934	36,800	0,110	-0,071
-571,919	22,303	-0,045	0,027
-570,904	800,000	-0,045	-0,121
-569,890	46,890	0,086	0,059
-568,875	159,499	0,009	-0,009
-567,861	50,127	0,133	-0,092
-566,846	-200,000	-0,024	0,092
-565,831	-200,000	0,009	0,086
-564,817	-200,000	-0,007	-0,060
-563,802	-103,477	-0,036	-0,006
-562,788	-24,124	0,135	0,059
-561,773	59,226	0,059	0,042
-560,758	-127,220	0,091	0,010
-559,744	57,771	0,028	-0,020
-558,729	800,000	0,045	0,133
-557,715	800,000	-0,027	0,074
-556,700	130,345	-0,149	-0,140
-555,685	800,000	-0,023	-0,051
-554,671	-34,808	0,130	-0,052
-553,656	352,261	-0,081	0,118
-552,642	28,403	-0,092	0,057
-551,627	-120,045	-0,077	-0,010
-550,612	-200,000	-0,041	0,136
-549,598	-200,000	0,027	-0,091
-548,583	-200,000	-0,005	0,052
-547,569	-200,000	0,006	-0,046
-546,554	20,492	0,095	0,056
-545,539	44,024	0,062	-0,041
-544,525	-197,334	-0,041	-0,000
-543,510	258,018	0,097	0,122
-542,496	-34,233	-0,149	-0,059
-541,481	55,673	-0,136	-0,096
-540,466	-107,270	0,084	0,013
-539,452	-161,844	-0,086	0,003
-538,437	126,760	0,062	0,058
-537,423	707,319	-0,063	-0,122
-536,408	304,035	0,065	-0,089
-535,393	84,226	-0,132	-0,106
-534,379	-200,000	-0,013	0,070
-533,364	-114,389	0,100	-0,014
-532,350	-200,000	-0,003	-0,035
-531,335	-86,550	0,102	-0,023
-530,321	-200,000	-0,010	-0,047
-529,306	-131,284	-0,128	0,012
-528,291	721,961	-0,044	-0,086
-527,277	-200,000	-0,039	-0,138
-526,262	688,378	-0,019	-0,036
-525,248	-200,000	0,007	0,081
-524,233	286,633	0,032	-0,043
-523,218	668,420	0,011	0,021
-522,204	59,986	0,043	-0,031
-521,189	-57,866	-0,066	-0,021
-520,175	54,800	-0,026	-0,018
-519,160	-200,000	0,001	0,083
-518,145	800,000	-0,038	0,083
-517,131	731,875	0,044	0,086
-516,116	800,000	-0,045	-0,119
-515,102	-88,734	-0,054	0,012
-514,087	189,576	-0,058	0,063
-513,072	201,276	0,107	-0,120
-512,058	-88,488	0,067	0,015
-511,043	107,865	-0,040	-0,034
-510,029	-200,000	-0,008	0,031
-509,014	213,859	-0,126	0,146
-507,999	152,972	-0,049	0,049
-506,985	191,869	0,083	0,091
-505,970	311,979	0,050	-0,068
-504,956	-200,000	0,003	0,133
-503,941	-200,000	0,016	-0,084
-502,926	182,941	0,042	0,046
-501,912	-66,693	-0,068	-0,019
-500,897	305,446	0,011	0,015
-499,883	353,990	-0,082	0,120
-498,868	-189,058	0,050	0,000
-497,853	543,682	-0,088	-0,154
-496,839	-50,732	0,075	-0,026
-495,824	-200,000	-0,026	0,126
-494,810	-130,044	0,080	-0,008
-493,795	406,806	-0,003	0,005
-492,781	-200,000	0,008	-0,212
-491,766	152,903	-0,112	-0,112
-490,751	136,791	-0,098	0,094
-489,737	14,422	-0,063	-0,036
-488,722	-90,275	0,064	-0,014
-487,708	-130,314	0,095	0,009
-486,693	19,571	-0,057	-0,033
-485,678	45,456	-0,130	-0,087
-484,664	759,035	0,046	-0,091
-483,649	271,023	0,070	0,090
-482,635	518,924	-0,028	-0,048
-481,620	55,298	0,073	-0,051
-480,605	73,775	0,110	0,084
-479,591	-80,854	0,052	-0,013
-478,576	-15,385	0,119	0,055
-477,562	800,000	0,038	-0,083
-476,547	622,723	0,045	0,082
-475,532	-173,454	-0,104	-0,002
-474,518	-26,285	0,163	0,069
-473,503	-39,474	-0,090	0,034
-472,489	-180,194	0,116	-0,002
-471,474	360,876	-0,050	0,073
-470,459	800,000	-0,045	0,099
-469,445	-98,252	-0,096	0,018
-468,430	161,370	-0,028	0,029
-467,416	-79,954	-0,133	-0,032
-466,401	139,579	0,146	0,140
-465,386	-200,000	0,033	0,166
-464,372	85,823	-0,029	-0,023
-463,357	354,059	-0,053	-0,076
-462,343	80,164	-0,065	-0,051
-461,328	34,877	-0,049	0,031
-460,313	285,246	-0,019	0,025
-459,299	800,000	0,004	-0,009
-458,284	-200,000	-0,027	0,091
-457,270	-200,000	0,003	0,057
-456,255	62,463	-0,130	0,095
-455,241	800,000	-0,075	-0,183
-454,226	-200,000	-0,018	0,093
-453,211	488,810	-0,015	0,025
-452,197	262,347	0,081	0,103
-451,182	-200,000	0,024	0,149
-450,168	-131,804	-0,043	-0,004
-449,153	-200,000	0,021	-0,093
-448,138	8,886	0,086	-0,047
-447,124	-200,000	0,030	-0,125
-446,109	-3,293	-0,100	-0,051
-445,095	273,890	-0,053	0,068
-444,080	171,287	0,066	0,069
-443,065	800,000	-0,020	0,046
-442,051	-200,000	-0,000	-0,084
-441,036	531,361	-0,082	-0,142
-440,022	181,427	0,046	-0,050
-439,007	66,779	-0,111	-0,082
-437,992	800,000	0,006	-0,014
-436,978	53,292	0,113	0,079
-435,963	-200,000	-0,015	0,103
-434,949	225,620	0,038	-0,045
-433,934	-78,095	-0,114	0,028
-432,919	-200,000	0,024	-0,097
-431,905	800,000	-0,039	0,103
-430,890	-6,027	-0,016	0,008
-429,876	296,386	0,003	-0,003
-428,861	468,487	0,087	-0,143
-427,846	-116,369	-0,155	-0,021
-426,832	79,337	-0,055	0,043
-425,817	-200,000	0,020	-0,141
-424,803	-64,061	0,102	-0,030
-423,788	401,748	0,010	0,016
-422,773	800,000	-0,016	0,046
-421,759	-200,000	-0,023	0,111
-420,744	800,000	-0,013	0,032
-419,730	263,157	-0,041	-0,052
-418,715	-200,000	-0,005	-0,131
-417,701	255,887	0,052	0,065
-416,686	-200,000	0,024	0,096
-415,671	-83,755	-0,088	0,020
-414,657	520,505	-0,080	-0,137
-413,642	242,842	-0,018	0,022
-412,628	800,000	0,058	0,144
-411,613	-58,500	-0,084	0,026
-410,598	655,691	-0,023	-0,043
-409,584	216,790	-0,014	-0,017
-408,569	-191,119	0,049	0,000
-407,555	-93,506	-0,055	-0,011
-406,540	46,629	0,135	0,091
-405,525	-200,000	0,000	-0,106
-404,511	-200,000	0,013	-0,193
-403,496	299,751	0,015	0,021
-402,482	-200,000	-0,011	-0,071
-401,467	800,000	0,005	0,015
-400,452	480,405	-0,082	0,135
-399,438	-200,000	0,036	-0,217
-398,423	-200,000	-0,038	0,143
-397,409	-200,000	0,003	-0,039
-396,394	250,382	0,085	0,105
-395,379	26,800	0,083	-0,050
-394,365	-87,283	-0,094	-0,021
-393,350	2,782	-0,028	-0,015
-392,336	-200,000	0,006	0,068
-391,321	800,000	0,018	0,049
-390,306	800,000	0,022	-0,048
-389,292	390,230	0,021	-0,032
-388,277	61,041	0,129	-0,093
-387,263	-200,000	0,025	-0,131
-386,248	266,974	0,068	-0,086
-385,233	800,000	0,020	-0,063
-384,219	-0,293	0,100	-0,052
-383,204	-200,000	0,011	0,043
-382,190	800,000	0,023	-0,048
-381,175	-91,451	-0,063	0,013
-380,160	315,533	-0,050	0,068
-379,146	-200,000	-0,021	0,085
-378,131	19,543	-0,044	-0,025
-377,117	-85,134	0,114	-0,026
-376,102	-200,000	-0,029	-0,143
-375,088	-75,337	-0,044	-0,011
-374,073	-82,934	-0,064	0,015
-373,058	-200,000	-0,025	-0,103
-372,044	122,830	0,075	-0,068
-371,029	-126,232	-0,084	0,009
-370,015	283,425	0,058	0,076
-369,000	-17,843	-0,130	-0,059
-367,985	-82,091	0,109	-0,026
-366,971	31,751	0,073	-0,046
-365,956	-51,625	0,262	0,088
-364,942	-200,000	0,009	0,074
-363,927	151,949	0,116	-0,115
-362,912	-14,808	-0,129	0,060
-361,898	-124,115	-0,047	-0,005
-360,883	186,661	0,054	-0,058
-359,869	800,000	-0,062	-0,141
-358,854	-63,030	0,074	-0,022
-357,839	-24,918	0,112	0,048
-356,825	-200,000	-0,019	0,075
-355,810	-20,954	-0,044	0,019
-354,796	372,573	0,064	-0,095
-353,781	-200,000	-0,004	-0,043
-352,766	800,000	-0,069	-0,209
-351,752	-200,000	0,015	-0,116
-350,737	125,289	-0,033	0,030
-349,723	-200,000	0,016	0,126
-348,708	-200,000	0,012	0,060
-347,693	69,911	-0,040	-0,030
-346,679	-200,000	-0,021	-0,138
-345,664	-200,000	-0,000	-0,146
-344,650	-200,000	-0,013	-0,149
-343,635	-147,921	0,147	-0,009
-342,620	-83,010	0,022	-0,005
-341,606	-147,272	0,041	0,003
-340,591	-180,139	-0,080	-0,001
-339,577	-177,538	0,104	-0,002
-338,562	-5,338	-0,028	0,014
-337,548	141,569	0,092	-0,088
-336,533	-69,120	0,055	0,015
-335,518	-55,976	-0,093	0,030
-334,504	-57,740	0,161	0,051
-333,489	789,908	0,098	0,197
-332,475	-200,000	-0,008	-0,051
-331,460	462,473	0,077	0,124
-330,445	44,330	0,082	0,054
-329,431	394,902	0,032	0,048
-328,416	188,946	-0,080	0,087
-327,402	24,082	-0,157	0,094
-326,387	36,258	0,111	0,071
-325,372	-200,000	-0,002	0,016
-324,358	-59,082	0,137	0,043
-323,343	466,022	0,033	0,053
-322,329	226,008	0,018	0,021
-321,314	61,493	0,070	0,050
-320,299	107,265	0,080	-0,068
-319,285	278,260	0,098	0,126
-318,270	-200,000	-0,004	-0,045
-317,256	-200,000	0,017	-0,055
-316,241	800,000	-0,052	0,154
-315,226	-200,000	0,023	0,085
-314,212	800,000	0,010	0,028
-313,197	449,340	0,064	-0,103
-312,183	-196,147	-0,023	-0,000
-311,168	71,021	0,071	-0,054
-310,153	-146,403	-0,045	0,003
-309,139	-200,000	0,021	-0,093
-308,124	-200,000	0,013	0,080
-307,110	-200,000	0,009	0,046
-306,095	46,427	0,118	0,079
-305,080	800,000	-0,050	0,133
-304,066	81,201	0,137	0,107
-303,051	474,209	-0,025	-0,042
-302,037	-49,551	-0,068	0,023
-301,022	721,860	-0,058	0,112
-300,008	-150,730	0,028	-0,002
-298,993	447,263	0,018	0,028
-297,978	-200,000	0,013	0,174
-296,964	102,563	-0,096	-0,081
-295,949	120,143	-0,044	0,040
-294,935	248,205	-0,066	0,081
-293,920	9,883	0,027	0,015
-292,905	44,172	0,039	0,026
-291,891	800,000	-0,029	0,059
-290,876	-200,000	-0,005	0,100
-289,862	-44,727	0,017	-0,006
-288,847	-23,518	-0,064	0,028
-287,832	343,209	0,097	-0,137
-286,818	-48,867	0,173	-0,060
-285,803	399,828	0,031	-0,048
-284,789	-200,000	-0,027	0,139
-283,774	800,000	0,058	-0,147
-282,759	-164,271	0,087	0,003
-281,745	800,000	0,062	-0,164
-280,730	209,826	0,020	0,023
-279,716	257,003	0,061	-0,076
-278,701	15,368	-0,050	0,029
-277,686	800,000	-0,017	0,037
-276,672	-44,972	-0,020	0,007
-275,657	-86,532	-0,083	0,018
-274,643	246,196	0,015	0,019
-273,628	800,000	-0,094	-0,253
-272,613	19,828	-0,060	-0,035
-271,599	800,000	0,013	0,035
-270,584	-168,294	0,082	-0,002
-269,570	-163,904	0,036	0,001
-268,555	-200,000	-0,055	0,200
-267,540	-200,000	0,021	0,119
-266,526	58,916	-0,037	0,026
-265,511	-200,000	0,025	-0,138
-264,497	-118,017	0,117	-0,015
-263,482	-116,725	-0,090	-0,012
-262,467	-36,964	-0,132	-0,051
-261,453	-200,000	-0,043	0,194
-260,438	-12,765	0,059	0,028
-259,424	84,547	-0,109	-0,086
-258,409	800,000	-0,037	-0,082
-257,395	778,610	0,011	0,021
-256,380	305,653	0,038	0,052
-255,365	-154,875	0,023	-0,001
-254,351	-200,000	-0,002	-0,073
-253,336	-81,771	-0,102	0,024
-252,322	-200,000	0,001	-0,202
-251,307	800,000	-0,042	0,085
-250,292	-200,000	0,010	0,085
-249,278	-200,000	0,010	0,062
-248,263	269,795	-0,068	-0,086
-247,249	-200,000	-0,004	0,089
-246,234	-122,336	0,087	0,010
-245,219	-200,000	0,013	0,133
-244,205	800,000	-0,030	-0,096
-243,190	800,000	-0,034	0,089
-242,176	-200,000	-0,007	-0,095
-241,161	-200,000	0,006	0,064
-240,146	-200,000	0,000	0,210
-239,132	-85,214	0,130	0,029
-238,117	-200,000	-0,008	0,100
-237,103	-200,000	-0,006	0,052
-236,088	800,000	-0,029	0,077
-235,073	53,685	0,123	0,085
-234,059	-158,120	-0,017	-0,001
-233,044	27,041	-0,038	-0,023
-232,030	112,719	-0,035	-0,031
-231,015	-68,626	-0,208	0,058
-230,000	-78,373	0,144	0,035
-228,986	800,000	0,020	-0,043
-227,971	62,340	-0,063	0,045
-226,957	-78,583	0,157	-0,038
-225,942	-80,535	-0,059	0,014
-224,927	89,603	-0,066	-0,053
-223,913	-20,021	0,021	0,009
-222,898	459,784	-0,041	-0,065
-221,884	-200,000	-0,001	0,024
-220,869	-143,110	-0,074	0,005
-219,855	-6,129	-0,047	-0,023
-218,840	800,000	0,080	-0,177
-217,825	140,620	0,124	-0,118
-216,811	-200,000	-0,044	-0,158
-215,796	224,322	0,047	-0,055
-214,782	142,727	0,077	-0,074
-213,767	-6,355	-0,075	0,037
-212,752	-4,141	0,147	0,073
-211,738	719,518	0,045	0,087
-210,723	-200,000	0,000	-0,023
-209,709	-141,446	-0,070	-0,005
-208,694	-4,634	-0,010	-0,005
-207,679	125,607	-0,079	-0,072
-206,665	-200,000	0,008	0,045
-205,650	-3,772	0,163	0,081
-204,636	-24,578	-0,097	-0,041
-203,621	122,305	0,058	0,052
-202,606	462,455	0,013	-0,021
-201,592	-200,000	-0,023	0,086
-200,577	-27,224	0,083	-0,035
-199,563	171,946	0,053	0,055
-198,548	-200,000	-0,002	0,108
-197,533	174,319	-0,086	0,089
-196,519	89,713	-0,073	0,059
-195,504	3,957	0,020	0,011
-194,490	-200,000	0,000	-0,016
-193,475	800,000	-0,054	-0,142
-192,460	-200,000	-0,007	-0,026
-191,446	14,800	-0,028	-0,016
-190,431	192,192	0,058	0,063
-189,417	91,403	-0,116	0,094
-188,402	-70,081	-0,081	-0,022
-187,387	-200,000	-0,003	-0,031
-186,373	327,939	0,110	-0,152
-185,358	800,000	-0,068	-0,148
-184,344	-200,000	0,006	-0,024
-183,329	-200,000	0,003	0,130
-182,315	-200,000	-0,024	-0,093
-181,300	-36,526	0,116	-0,045
-180,285	-200,000	0,018	-0,084
-179,271	-200,000	-0,022	-0,102
-178,256	800,000	0,014	-0,035
-177,242	800,000	-0,075	0,198
-176,227	149,146	-0,078	0,076
-175,212	320,868	0,056	0,077
-174,198	69,823	-0,066	0,049
-173,183	800,000	-0,066	0,156
-172,169	800,000	0,036	0,097
-171,154	-77,132	0,107	-0,027
-170,139	660,593	0,048	0,089
-169,125	6,249	-0,066	0,035
-168,110	55,034	-0,117	0,081
-167,096	-15,168	-0,067	-0,031
-166,081	16,240	-0,109	0,062
-165,066	-58,849	-0,028	-0,009
-164,052	-112,202	0,008	-0,001
-163,037	800,000	-0,070	0,148
-162,023	146,165	-0,041	-0,040
-161,008	380,447	-0,009	0,013
-159,993	300,155	-0,004	0,005
-158,979	252,364	0,036	0,044
-157,964	-200,000	-0,007	-0,117
-156,950	615,912	-0,076	-0,137
-155,935	-200,000	0,026	0,148
-154,920	70,593	0,088	0,066
-153,906	-200,000	0,011	-0,094
-152,891	366,450	0,043	-0,063
-151,877	-200,000	0,013	0,065
-150,862	-62,952	-0,170	-0,050
-149,847	800,000	0,064	-0,174
-148,833	60,573	-0,098	-0,070
-147,818	3,896	-0,085	0,044
-146,804	-73,283	0,261	-0,068
-145,789	57,433	-0,024	0,017
-144,775	24,647	-0,047	-0,028
-143,760	418,145	-0,084	-0,129
-142,745	250,524	-0,067	-0,082
-141,731	-92,164	0,015	-0,003
-140,716	118,811	0,054	0,048
-139,702	408,458	-0,067	0,102
-138,687	-63,562	0,083	-0,024
-137,672	575,510	0,042	0,074
-136,658	-121,405	0,166	-0,020
-135,643	325,622	0,040	-0,055
-134,629	315,621	-0,082	-0,112
-133,614	-49,906	0,118	-0,040
-132,599	279,295	-0,066	0,085
-131,585	800,000	-0,013	0,033
-130,570	670,450	0,064	0,120
-129,556	-57,764	-0,163	0,051
-128,541	-6,867	-0,082	-0,040
-127,526	88,258	-0,090	0,071
-126,512	253,066	0,029	0,036
-125,497	-8,393	-0,079	-0,038
-124,483	118,935	-0,083	0,074
-123,468	-78,550	-0,168	-0,041
-122,453	-120,584	-0,080	-0,010
-121,439	-102,475	-0,138	-0,024
-120,424	-200,000	-0,012	-0,126
-119,410	123,599	0,106	0,096
-118,395	-49,151	0,055	0,019
-117,380	153,983	-0,085	-0,083
-116,366	183,573	0,048	-0,051
-115,351	-102,253	0,013	-0,002
-114,337	-200,000	-0,002	-0,112
-113,322	-200,000	0,002	-0,023
-112,307	-94,982	-0,048	-0,009
-111,293	-200,000	0,018	0,062
-110,278	-56,176	0,089	-0,028
-109,264	-20,787	-0,069	-0,030
-108,249	-170,427	0,173	0,004
-107,234	-200,000	-0,031	-0,144
-106,220	157,085	0,026	-0,026
-105,205	53,289	0,091	0,063
-104,191	-200,000	0,009	-0,069
-103,176	-27,875	-0,081	0,034
-102,162	172,510	0,083	-0,085
-101,147	51,475	-0,069	-0,047
-100,132	800,000	0,045	-0,114
-99,118	-11,074	-0,085	0,040
-98,103	240,550	-0,054	0,064
-97,089	197,260	-0,078	0,085
-96,074	-196,842	0,149	0,001
-95,059	800,000	0,050	0,144
-94,045	-128,042	-0,033	-0,003
-93,030	215,961	-0,064	-0,073
-92,016	-10,825	-0,014	0,007
-91,001	-200,000	-0,018	0,073
-89,986	-200,000	-0,013	-0,046
-88,972	156,577	0,072	0,072
-87,957	-63,005	-0,045	-0,013
-86,943	-63,824	0,136	0,040
-85,928	37,114	-0,102	-0,065
-84,913	-200,000	-0,068	-0,215
-83,899	800,000	0,042	-0,118
-82,884	800,000	0,046	-0,125
-81,870	-54,707	0,140	0,045
-80,855	-2,582	-0,075	0,038
-79,840	-50,618	-0,051	-0,017
-78,826	399,353	-0,036	0,054
-77,811	-200,000	0,020	-0,076
-76,797	-35,534	-0,069	-0,027
-75,782	-200,000	0,180	0,000
-74,767	-200,000	0,031	0,114
-73,753	-200,000	0,004	-0,027
-72,738	771,737	-0,029	-0,057
-71,724	165,314	-0,065	-0,066
-70,709	175,590	-0,037	-0,039
-69,694	800,000	0,048	-0,141
-68,680	-103,350	0,145	0,024
-67,665	121,081	0,048	0,043
-66,651	61,774	0,133	-0,095
-65,636	63,183	-0,083	0,060
-64,622	800,000	-0,059	-0,172
-63,607	216,347	0,071	-0,081
-62,592	-200,000	-0,006	-0,022
-61,578	182,912	0,080	-0,085
-60,563	-58,495	-0,025	-0,008
-59,549	-200,000	-0,007	0,084
-58,534	123,117	-2,709	-2,433
-57,519	-59,166	0,529	-0,162
-56,505	800,000	-1,931	-5,578
-55,490	660,916	1,127	2,091
-54,476	800,000	5,140	11,227
-53,461	-200,000	22,993	347,704
-52,446	800,000	765,300	2262,913
-51,432	497,003	1643,177	2720,343
-50,417	93,147	1599,306	1295,665
-49,403	60,911	1254,117	890,775
-48,388	21,136	1006,583	584,183
-47,373	18,341	974,128	556,203
-46,359	11,774	961,192	527,556
-45,344	7,676	957,847	512,431
-44,330	8,056	955,602	512,440
-43,315	7,178	953,776	508,605
-42,300	7,102	952,759	507,794
-41,286	7,128	951,833	507,365
-40,271	7,077	950,956	506,713
-39,257	7,051	950,030	506,116
-38,242	7,100	949,095	505,755
-37,227	7,084	948,230	505,224
-36,213	7,064	947,516	504,758
-35,198	6,988	946,763	504,093
-34,184	7,095	945,922	503,969
-33,169	7,002	945,204	503,267
-32,154	7,107	944,119	503,008
-31,140	7,090	943,307	502,499
-30,125	7,119	942,544	502,165
-29,111	7,081	941,729	501,591
-28,096	7,099	941,124	501,306
-27,082	7,055	940,679	500,908
-26,067	7,046	939,729	500,354
-25,052	7,057	938,971	499,966
-24,038	7,033	938,362	499,547
-23,023	7,052	937,685	499,225
-22,009	7,071	937,101	498,956
-20,994	7,095	936,296	498,584
-19,979	7,107	935,724	498,298
-18,965	7,035	935,244	497,792
-17,950	7,037	934,634	497,455
-16,936	7,025	934,084	497,105
-15,921	7,059	933,209	496,725
-14,906	6,970	932,589	496,095
-13,892	6,971	932,011	495,773
-12,877	6,966	931,369	495,394
-11,863	6,905	930,856	494,910
-10,848	6,896	930,347	494,593
-9,833	7,012	929,735	494,612
-8,819	6,960	929,160	494,123
-7,804	6,934	928,419	493,629
-6,790	6,937	927,880	493,332
-5,775	6,997	927,359	493,221
-4,760	6,988	926,755	492,855
-3,746	7,006	926,084	492,533
-2,731	6,877	925,252	491,669
-1,717	6,779	924,874	491,141
-0,702	6,799	924,146	490,796
0,313	6,696	923,374	490,808
1,327	10,118	921,115	500,226
2,342	18,630	769,885	440,116
3,356	13,569	442,381	245,348
4,371	-12,363	309,717	144,452
5,386	-16,125	292,748	132,754
6,400	-18,133	286,586	127,976
7,415	-18,239	284,008	126,711
8,429	-19,219	282,209	124,949
9,444	-19,078	281,277	124,661
10,459	-19,091	280,813	124,431
11,473	-19,038	279,988	124,106
12,488	-19,003	279,589	123,952
13,502	-18,980	279,046	123,722
14,517	-18,953	278,756	123,608
15,531	-19,020	278,273	123,318
16,546	-18,878	277,927	123,289
17,561	-18,966	277,460	122,987
18,575	-18,836	277,270	123,016
19,590	-18,747	276,749	122,858
20,604	-18,841	276,518	122,656
21,619	-18,816	276,037	122,455
22,634	-18,821	275,800	122,334
23,648	-18,978	275,481	122,034
24,663	-19,033	275,299	121,891
25,677	-18,880	274,876	121,837
26,692	-18,743	274,511	121,792
27,707	-18,795	274,505	121,730
28,721	-18,804	274,183	121,568
29,736	-18,817	273,816	121,382
30,750	-18,909	273,655	121,214
31,765	-18,951	273,376	121,040
32,780	-18,931	273,168	120,956
33,794	-18,758	272,947	121,009
34,809	-18,860	272,583	120,741
35,823	-18,702	272,399	120,796
36,838	-18,707	272,191	120,689
37,853	-18,765	271,672	120,394
38,867	-18,973	271,682	120,194
39,882	-18,595	271,221	120,330
40,896	-18,845	271,222	120,088
41,911	-18,868	270,904	119,915
42,926	-18,832	270,749	119,869
43,940	-18,897	270,441	119,663
44,955	-18,805	270,137	119,602
45,969	-18,891	270,054	119,476
46,984	-18,758	269,779	119,466
47,999	-18,550	269,480	119,514
49,013	-18,580	269,351	119,418
50,028	-18,526	269,168	119,376
51,042	-18,482	268,931	119,300
52,057	-18,559	268,838	119,179
53,071	-18,815	268,544	118,803
54,086	-18,750	268,257	118,725
55,101	-18,771	268,199	118,670
56,115	-18,712	267,886	118,574
57,130	-18,664	267,524	118,447
58,144	-18,673	267,186	118,279
59,159	-18,779	266,991	118,086
60,174	-18,901	266,544	117,766
61,188	-18,708	266,536	117,928
62,203	-18,842	266,276	117,681
63,217	-18,762	266,174	117,697
64,232	-18,724	265,837	117,573
65,247	-18,719	265,574	117,450
66,261	-18,758	265,332	117,297
67,276	-18,737	265,028	117,171
68,290	-18,898	264,928	116,972
69,305	-18,674	264,751	117,085
70,320	-18,744	264,565	116,929
71,334	-18,732	264,325	116,823
72,349	-18,676	263,914	116,681
73,363	-18,618	263,722	116,639
74,378	-18,869	263,519	116,313
75,393	-18,635	263,340	116,434
76,407	-18,735	263,174	116,260
77,422	-18,792	262,984	116,115
78,436	-18,746	262,640	115,994
79,451	-18,694	262,355	115,904
80,466	-18,744	262,190	115,776
81,480	-18,696	261,966	115,709
82,495	-18,649	261,756	115,648
83,509	-18,698	261,612	115,531
84,524	-18,753	261,465	115,406
85,539	-18,669	261,163	115,338
86,553	-18,615	261,039	115,321
87,568	-18,544	260,627	115,191
88,582	-18,607	260,630	115,127
89,597	-18,726	260,285	114,859
90,611	-18,632	260,076	114,839
91,626	-18,502	259,907	114,870
92,641	-18,603	259,651	114,657
93,655	-18,488	259,512	114,686
94,670	-18,679	259,138	114,343
95,684	-18,635	259,081	114,346
96,699	-18,623	258,868	114,252
97,714	-18,672	258,588	114,076
98,728	-18,729	258,510	113,981
99,743	-18,595	258,175	113,941
100,757	-18,794	258,078	113,713
101,772	-18,640	257,909	113,764
102,787	-18,604	257,597	113,647
103,801	-18,792	257,432	113,400
104,816	-18,840	257,213	113,251
105,830	-18,772	257,173	113,283
106,845	-18,517	256,797	113,330
107,860	-18,548	256,628	113,218
108,874	-18,674	256,471	113,029
109,889	-18,674	256,139	112,872
110,903	-18,663	256,085	112,849
111,918	-18,741	255,944	112,708
112,933	-18,683	255,477	112,543
113,947	-18,856	255,400	112,349
114,962	-18,751	255,230	112,355
115,976	-18,723	255,031	112,282
116,991	-18,678	254,799	112,209
118,006	-18,707	254,536	112,057
119,020	-18,655	254,489	112,072
120,035	-18,743	254,283	111,895
121,049	-18,661	254,155	111,900
122,064	-18,992	254,007	111,539
123,079	-18,588	253,584	111,691
124,093	-18,590	253,542	111,661
125,108	-18,711	253,375	111,474
126,122	-18,649	253,176	111,429
127,137	-18,562	252,861	111,355
128,151	-18,294	252,588	111,455
129,166	-18,610	252,464	111,119
130,181	-18,528	252,310	111,112
131,195	-18,594	251,974	110,898
132,210	-18,720	251,894	110,745
133,224	-18,514	251,643	110,801
134,239	-18,780	251,533	110,516
135,254	-18,766	251,392	110,456
136,268	-18,515	251,026	110,498
137,283	-18,554	250,897	110,398
138,297	-18,379	250,741	110,469
139,312	-18,485	250,527	110,274
140,327	-18,517	250,245	110,113
141,341	-18,455	250,092	110,089
142,356	-18,642	250,029	109,893
143,370	-18,692	249,845	109,760
144,385	-18,623	249,538	109,674
145,400	-18,796	249,353	109,437
146,414	-18,660	249,202	109,475
147,429	-18,521	248,974	109,483
148,443	-18,617	248,831	109,329
149,458	-18,539	248,692	109,324
150,473	-18,613	248,440	109,141
151,487	-18,528	248,262	109,124
152,502	-18,474	248,036	109,061
153,516	-18,713	247,999	108,834
154,531	-18,634	247,704	108,761
155,546	-18,636	247,607	108,707
156,560	-18,658	247,386	108,582
157,575	-18,473	246,886	108,508
158,589	-18,511	246,848	108,449
159,604	-18,684	246,858	108,300
160,619	-18,464	246,433	108,287
161,633	-18,736	246,254	107,972
162,648	-18,556	246,193	108,085
163,662	-18,557	245,996	107,989
164,677	-18,310	245,785	108,092
165,692	-18,651	245,741	107,780
166,706	-18,473	245,519	107,821
167,721	-18,704	245,219	107,487
168,735	-18,620	245,147	107,516
169,750	-18,700	245,146	107,440
170,764	-18,450	245,008	107,576
171,779	-18,700	244,759	107,251
172,794	-18,575	244,747	107,339
173,808	-18,444	244,355	107,266
174,823	-18,559	244,338	107,154
175,837	-18,616	243,968	106,935
176,852	-18,552	243,826	106,916
177,867	-18,528	243,786	106,909
178,881	-18,624	243,575	106,728
179,896	-18,633	243,352	106,613
180,910	-18,520	243,282	106,665
181,925	-18,724	242,956	106,346
182,940	-18,848	242,899	106,210
183,954	-18,537	242,673	106,356
184,969	-18,640	242,527	106,199
185,983	-18,481	242,213	106,182
186,998	-18,501	242,077	106,096
188,013	-18,736	242,037	105,877
189,027	-18,834	241,718	105,648
190,042	-18,434	241,485	105,863
191,056	-18,439	241,376	105,801
192,071	-18,646	241,177	105,537
193,086	-18,674	241,026	105,438
194,100	-18,629	240,737	105,339
195,115	-18,618	240,729	105,335
196,129	-18,553	240,519	105,286
197,144	-18,595	240,198	105,102
198,159	-18,547	240,013	105,051
199,173	-18,609	239,898	104,941
200,188	-18,531	239,737	104,924
201,202	-18,607	239,518	104,758
202,217	-18,474	239,492	104,844
203,232	-18,593	239,415	104,705
204,246	-18,507	238,907	104,543
205,261	-18,576	238,922	104,485
206,275	-16,956	239,373	105,979
207,290	-12,306	241,108	110,510
208,304	-5,908	243,117	116,645
209,319	-2,227	244,025	120,079
210,334	-1,156	244,373	121,115
211,348	-0,076	244,374	121,987
212,363	-0,047	244,475	122,050
213,377	0,375	244,365	122,329
214,392	0,528	244,260	122,390
215,407	0,704	244,227	122,506
216,421	0,792	244,089	122,498
217,436	0,963	243,831	122,496
218,450	1,082	243,729	122,532
219,465	1,261	243,603	122,603
220,480	1,042	243,428	122,326
221,494	1,082	243,261	122,263
222,509	0,637	243,006	121,763
223,523	0,366	242,872	121,466
224,538	0,541	242,595	121,458
225,553	0,480	242,387	121,294
226,567	0,470	242,153	121,158
227,582	0,496	242,075	121,129
228,596	0,142	242,017	120,804
229,611	0,346	241,764	120,830
230,626	0,545	241,591	120,894
231,640	0,339	241,328	120,586
232,655	0,183	241,343	120,458
233,669	0,298	241,151	120,443
234,684	0,443	240,834	120,390
235,699	0,517	240,813	120,428
236,713	0,247	240,625	120,108
237,728	0,370	240,422	120,093
238,742	0,411	240,416	120,113
239,757	0,339	240,164	119,919
240,772	0,530	239,999	119,978
241,786	0,403	239,968	119,850
242,801	0,474	239,574	119,700
243,815	0,290	239,569	119,539
244,830	0,194	239,372	119,354
245,844	0,427	239,191	119,439
246,859	0,225	239,036	119,190
247,874	0,316	238,857	119,162
248,888	0,617	238,695	119,311
249,903	0,436	238,589	119,102
250,917	0,271	238,593	118,963
251,932	0,649	238,320	119,116
252,947	0,410	238,192	118,853
253,961	0,501	237,941	118,788
254,976	0,227	237,876	118,528
255,990	0,604	237,694	118,725
257,005	0,247	237,627	118,399
258,020	0,628	237,393	118,573
259,034	0,553	237,237	118,426
260,049	0,377	236,916	118,116
261,063	0,445	236,937	118,170
262,078	0,579	236,642	118,118
263,093	0,463	236,515	117,952
264,107	0,494	236,399	117,908
265,122	0,446	236,341	117,830
266,136	0,490	236,128	117,749
267,151	0,447	235,960	117,621
268,166	0,313	235,890	117,470
269,180	0,282	235,681	117,331
270,195	0,607	235,488	117,479
271,209	0,519	235,328	117,320
272,224	0,413	235,013	117,070
273,239	0,209	235,027	116,906
274,253	0,685	234,618	117,064
275,268	0,416	234,724	116,896
276,282	0,424	234,474	116,768
277,297	0,270	234,375	116,588
278,312	0,426	234,383	116,703
279,326	0,421	234,122	116,560
280,341	0,487	233,883	116,481
281,355	0,467	233,795	116,411
282,370	0,566	233,667	116,414
283,384	0,469	233,522	116,256
284,399	0,336	233,387	116,075
285,414	0,348	233,242	116,002
286,428	0,612	233,084	116,118
287,443	0,566	233,030	116,045
288,457	0,769	232,834	116,094
289,472	0,483	232,726	115,809
290,487	0,457	232,569	115,700
291,501	0,460	232,267	115,542
292,516	0,610	232,247	115,637
293,530	0,625	232,139	115,585
294,545	0,691	231,859	115,486
295,560	0,537	231,903	115,379
296,574	0,631	231,641	115,310
297,589	0,711	231,449	115,266
298,603	0,725	231,312	115,198
299,618	0,725	231,174	115,119
300,633	0,828	231,024	115,113
301,647	0,645	231,008	114,955
302,662	0,788	230,778	114,940
303,676	0,526	230,602	114,641
304,691	0,736	230,424	114,703
305,706	0,691	230,249	114,572
306,720	0,689	230,194	114,532
307,735	0,505	230,039	114,304
308,749	0,971	229,798	114,529
309,764	0,622	229,662	114,187
310,779	0,839	229,500	114,260
311,793	0,782	229,339	114,127
312,808	0,649	229,108	113,901
313,822	0,789	229,073	113,979
314,837	0,876	228,884	113,940
315,852	0,880	228,827	113,905
316,866	0,656	228,758	113,691
317,881	0,731	228,527	113,623
318,895	0,754	228,576	113,654
319,910	0,852	228,250	113,557
320,925	0,838	228,076	113,450
321,939	0,903	227,936	113,418
322,954	1,005	227,856	113,445
323,968	0,836	227,661	113,211
324,983	0,816	227,641	113,176
325,997	0,741	227,380	112,980
327,012	0,862	227,278	113,010
328,027	0,638	227,108	112,747
329,041	0,952	226,865	112,852
330,056	0,604	226,829	112,563
331,070	0,982	226,596	112,720
332,085	1,206	226,620	112,890
333,100	1,012	226,269	112,560
334,114	0,622	226,250	112,249
335,129	0,637	226,134	112,193
336,143	0,963	225,921	112,320
337,158	0,956	225,728	112,209
338,173	0,929	225,696	112,163
339,187	1,066	225,527	112,171
340,202	0,912	225,358	111,962
341,216	0,877	225,243	111,869
342,231	0,773	225,156	111,739
343,246	1,101	224,903	111,846
344,260	0,707	224,986	111,586
345,275	0,946	224,671	111,596
346,289	0,956	224,479	111,499
347,304	0,863	224,508	111,434
348,319	1,024	224,263	111,422
349,333	0,956	224,178	111,319
350,348	0,901	223,957	111,159
351,362	0,966	223,893	111,165
352,377	0,718	223,790	110,921
353,392	1,092	223,621	111,103
354,406	0,999	223,324	110,877
355,421	192,406	1310,216	1375,108
356,435	154,071	1442,478	1374,926
