DTS Sentinel unit serial number:	SN410029Multiplexer serial number:	ORYXHardware model number:	OX2-SRSoftware version number:	ORYX F/W v4,00 Oryx Data Collector v3.7.2.0data status	okinstallation	B5 Nyhavnadifferential loss correction	single-endedforward channel	channel 2reverse channel	N/Adate	2023/12/13time	06:07:13forward acquisition time	300,00reverse acquisition time	0,00gamma	499,1914k internal	0,3160k external	0,3160temperature offset calibration	1,0000default loss term (dB/km)	0,3820temperature slope calibration	1,0000multiplexer offset coefficient	1,0000multiplexer slope coefficient	1,0000fibre end	0,00T internal ref (°C)	13,79T ext. ref 1 (°C)	-2,70T ext. ref 2 (°C)	-3,00length (m)	temperature (°C)	Stokes	anti-Stokes-744,400	301,039	0,066	-0,090
-743,385	-17,971	-0,245	-0,113
-742,371	-200,000	0,029	0,167
-741,356	-30,509	-0,287	0,119
-740,342	-36,317	-0,047	-0,019
-739,327	-162,705	-0,345	0,012
-738,312	-122,755	0,061	-0,007
-737,298	-163,948	-0,356	-0,012
-736,283	-200,000	-0,021	0,083
-735,269	-51,417	-0,213	-0,073
-734,254	232,490	0,133	0,161
-733,239	-14,941	-0,463	-0,218
-732,225	-23,154	0,269	0,119
-731,210	-200,000	-0,006	0,091
-730,196	-200,000	0,015	0,075
-729,181	63,257	-0,052	0,039
-728,167	-200,000	-0,027	-0,089
-727,152	-200,000	-0,006	-0,174
-726,137	19,688	-0,056	-0,033
-725,123	26,289	-0,033	0,021
-724,108	-30,362	-0,121	-0,051
-723,094	-58,041	0,034	-0,011
-722,079	-147,170	-0,141	-0,009
-721,064	376,117	-0,013	-0,020
-720,050	-62,299	0,048	0,015
-719,035	388,286	0,067	0,102
-718,021	-195,889	-0,133	0,001
-717,006	239,030	-0,061	-0,075
-715,991	115,595	-0,147	-0,133
-714,977	40,531	0,045	0,030
-713,962	-57,822	-0,070	-0,023
-712,948	-200,000	0,016	-0,061
-711,933	263,248	-0,052	-0,066
-710,918	181,034	-0,054	0,059
-709,904	22,150	0,082	-0,049
-708,889	2,781	-0,056	0,030
-707,875	-35,457	-0,157	-0,062
-706,860	-59,295	0,038	-0,012
-705,845	215,274	-0,113	0,132
-704,831	-200,000	0,003	0,072
-703,816	122,898	0,022	0,020
-702,802	800,000	-0,057	-0,152
-701,787	22,088	-0,143	-0,086
-700,772	-200,000	-0,029	-0,132
-699,758	-200,000	-0,013	0,094
-698,743	122,344	-0,060	0,055
-697,729	-200,000	0,027	0,111
-696,714	800,000	0,051	0,109
-695,699	-109,373	0,044	-0,007
-694,685	433,586	-0,079	-0,126
-693,670	-78,052	-0,090	-0,023
-692,656	-200,000	0,032	0,136
-691,641	800,000	0,002	0,007
-690,627	274,192	0,050	0,065
-689,612	113,000	0,099	-0,088
-688,597	46,923	-0,157	-0,107
-687,583	100,998	-0,132	-0,112
-686,568	-26,920	-0,170	-0,073
-685,554	-200,000	-0,028	-0,106
-684,539	-200,000	-0,002	0,023
-683,524	-200,000	-0,032	0,145
-682,510	-200,000	-0,034	0,118
-681,495	14,363	-0,035	-0,020
-680,481	-200,000	-0,034	0,144
-679,466	-200,000	-0,027	-0,090
-678,451	332,282	0,083	-0,118
-677,437	-200,000	0,002	-0,024
-676,422	-200,000	0,013	0,056
-675,408	-200,000	0,000	-0,007
-674,393	187,149	0,052	-0,057
-673,378	800,000	-0,040	-0,113
-672,364	111,041	-0,067	-0,059
-671,349	181,745	-0,022	0,023
-670,335	-23,207	-0,101	-0,044
-669,320	393,227	0,107	0,164
-668,305	70,534	-0,028	0,021
-667,291	-119,208	-0,083	0,010
-666,276	473,785	-0,066	-0,110
-665,262	800,000	0,032	-0,083
-664,247	-200,000	0,002	0,065
-663,232	-81,326	-0,152	-0,036
-662,218	3,317	0,100	0,053
-661,203	61,963	0,157	0,114
-660,189	499,522	-0,025	-0,043
-659,174	-186,048	-0,059	-0,001
-658,159	692,591	-0,059	-0,115
-657,145	-59,280	0,043	-0,014
-656,130	-200,000	-0,017	0,067
-655,116	-80,560	-0,054	-0,013
-654,101	-200,000	-0,010	0,091
-653,086	397,881	-0,057	0,087
-652,072	-200,000	-0,006	0,142
-651,057	301,181	-0,065	0,088
-650,043	495,375	-0,053	0,090
-649,028	-191,377	0,078	0,001
-648,014	59,616	-0,037	0,027
-646,999	17,471	-0,047	0,027
-645,984	322,405	-0,034	-0,047
-644,970	307,178	0,016	0,022
-643,955	558,549	0,063	0,113
-642,941	82,914	0,072	-0,057
-641,926	-200,000	0,007	-0,146
-640,911	181,087	-0,102	-0,110
-639,897	-33,819	-0,107	0,043
-638,882	-200,000	-0,008	-0,139
-637,868	7,072	-0,071	-0,039
-636,853	-200,000	0,034	-0,135
-635,838	-154,568	-0,067	-0,003
-634,824	-200,000	-0,001	-0,118
-633,809	-200,000	0,012	0,113
-632,795	-200,000	-0,011	-0,044
-631,780	-200,000	-0,000	0,144
-630,765	-200,000	-0,008	-0,051
-629,751	-91,563	-0,047	0,010
-628,736	23,174	0,063	0,038
-627,722	-108,245	0,132	0,021
-626,707	-8,956	-0,042	-0,020
-625,692	-200,000	0,009	-0,045
-624,678	-92,178	-0,091	-0,019
-623,663	169,059	-0,078	-0,082
-622,649	-17,108	-0,112	-0,051
-621,634	-56,115	0,117	-0,038
-620,619	800,000	-0,018	0,050
-619,605	-200,000	-0,004	-0,030
-618,590	-200,000	0,001	0,018
-617,576	-29,712	-0,114	0,048
-616,561	-200,000	0,000	-0,011
-615,546	-200,000	0,007	-0,122
-614,532	37,979	-0,065	-0,042
-613,517	174,076	-0,044	0,046
-612,503	-200,000	0,001	0,079
-611,488	88,797	0,091	0,074
-610,474	800,000	0,047	0,139
-609,459	81,037	-0,112	-0,089
-608,444	-200,000	0,009	0,039
-607,430	-200,000	0,032	-0,125
-606,415	131,594	-0,127	0,119
-605,401	670,216	0,029	0,056
-604,386	-200,000	0,003	-0,054
-603,371	35,044	0,100	0,064
-602,357	156,951	-0,053	0,053
-601,342	-200,000	0,001	-0,193
-600,328	800,000	-0,025	0,067
-599,313	137,127	-0,056	0,053
-598,298	800,000	0,045	0,096
-597,284	-49,438	0,044	0,015
-596,269	204,411	0,013	0,015
-595,255	122,215	-0,049	-0,045
-594,240	-30,934	-0,088	0,036
-593,225	-200,000	-0,009	-0,086
-592,211	-200,000	-0,027	-0,098
-591,196	577,538	0,032	-0,058
-590,182	174,296	-0,025	0,026
-589,167	50,670	-0,032	-0,022
-588,152	270,186	-0,020	0,026
-587,138	-138,907	0,095	-0,007
-586,123	251,544	-0,062	-0,078
-585,109	-29,286	-0,026	-0,011
-584,094	-135,619	-0,147	-0,013
-583,079	444,467	-0,031	0,050
-582,065	-200,000	0,000	-0,078
-581,050	-15,487	-0,029	0,014
-580,036	-141,470	0,166	0,012
-579,021	28,085	-0,091	-0,056
-578,006	-119,072	0,100	-0,013
-576,992	488,848	-0,067	-0,112
-575,977	-72,571	0,087	0,023
-574,963	800,000	0,015	-0,032
-573,948	-200,000	0,037	-0,122
-572,934	290,209	0,022	0,029
-571,919	71,857	0,058	0,044
-570,904	279,479	-0,099	-0,130
-569,890	800,000	0,024	0,068
-568,875	6,558	-0,023	-0,013
-567,861	311,909	0,024	-0,033
-566,846	800,000	0,053	0,128
-565,831	-58,812	-0,075	0,024
-564,817	121,878	0,040	0,036
-563,802	45,200	-0,027	-0,018
-562,788	9,812	0,030	0,017
-561,773	463,102	0,015	0,024
-560,758	600,237	0,038	0,069
-559,744	47,627	0,116	0,079
-558,729	561,606	-0,014	0,024
-557,715	263,101	0,025	-0,032
-556,700	800,000	0,060	-0,158
-555,685	142,045	-0,105	-0,102
-554,671	-200,000	0,008	0,029
-553,656	607,117	0,116	-0,212
-552,642	-52,079	0,026	0,009
-551,627	370,376	0,045	-0,067
-550,612	-200,000	0,002	-0,067
-549,598	-91,460	0,092	-0,019
-548,583	244,433	-0,040	-0,050
-547,569	-200,000	-0,002	-0,025
-546,554	280,431	-0,068	0,089
-545,539	-200,000	-0,011	0,045
-544,525	-164,844	0,047	0,002
-543,510	-92,929	-0,138	0,028
-542,496	141,091	0,076	0,074
-541,481	3,893	-0,143	-0,076
-540,466	-13,533	-0,149	-0,070
-539,452	574,570	0,014	0,024
-538,437	169,096	-0,114	-0,119
-537,423	-104,333	-0,048	0,008
-536,408	-65,364	-0,088	-0,026
-535,393	101,354	0,099	0,084
-534,379	222,908	0,010	0,011
-533,364	21,265	0,019	-0,012
-532,350	-41,313	-0,050	0,019
-531,335	-200,000	-0,016	0,079
-530,321	-72,818	-0,016	-0,004
-529,306	346,864	0,050	0,072
-528,291	-32,536	0,113	0,046
-527,277	244,042	0,025	-0,030
-526,262	-50,806	-0,087	-0,030
-525,248	-200,000	-0,007	0,059
-524,233	138,927	0,060	0,058
-523,218	47,404	0,172	-0,117
-522,204	86,558	-0,101	-0,082
-521,189	142,583	-0,018	-0,017
-520,175	456,006	-0,080	-0,130
-519,160	91,731	0,113	0,093
-518,145	-17,163	0,084	-0,039
-517,131	789,436	0,028	-0,057
-516,116	219,574	0,031	0,036
-515,102	800,000	-0,023	-0,056
-514,087	-41,030	-0,134	-0,050
-513,072	114,777	0,092	-0,082
-512,058	-53,720	0,129	0,043
-511,043	800,000	0,030	-0,079
-510,029	-200,000	-0,020	0,114
-509,014	800,000	0,049	-0,139
-507,999	347,763	-0,015	-0,022
-506,985	800,000	-0,026	-0,060
-505,970	-193,843	0,074	0,000
-504,956	-200,000	0,001	-0,149
-503,941	-31,804	0,053	0,022
-502,926	244,303	0,062	-0,076
-501,912	-200,000	-0,040	0,151
-500,897	132,742	0,106	0,100
-499,883	-110,912	-0,035	0,005
-498,868	-200,000	-0,007	-0,059
-497,853	-200,000	-0,038	-0,127
-496,839	-200,000	0,003	-0,096
-495,824	-24,237	0,073	0,032
-494,810	-41,357	0,035	-0,013
-493,795	90,120	0,036	-0,030
-492,781	800,000	-0,032	-0,067
-491,766	-200,000	0,008	-0,150
-490,751	800,000	-0,017	-0,044
-489,737	91,488	-0,143	0,117
-488,722	-72,212	0,189	0,051
-487,708	54,138	0,034	0,024
-486,693	-29,938	-0,015	-0,006
-485,678	800,000	0,022	0,061
-484,664	-200,000	0,004	-0,106
-483,649	800,000	-0,040	-0,121
-482,635	-200,000	-0,008	0,076
-481,620	0,447	0,066	-0,034
-480,605	685,176	-0,028	0,054
-479,591	-200,000	0,005	-0,098
-478,576	11,729	0,098	-0,055
-477,562	161,938	-0,031	0,032
-476,547	348,596	-0,030	0,044
-475,532	-200,000	0,001	-0,120
-474,518	-162,743	-0,067	-0,002
-473,503	88,700	0,022	0,018
-472,489	800,000	-0,022	0,070
-471,474	578,696	0,027	0,048
-470,459	259,810	-0,089	-0,113
-469,445	230,503	0,105	-0,125
-468,430	476,706	-0,067	-0,111
-467,416	-200,000	0,004	-0,056
-466,401	-129,423	0,052	0,005
-465,386	800,000	-0,033	0,106
-464,372	-110,340	-0,118	0,018
-463,357	-157,634	-0,048	0,002
-462,343	-111,100	0,054	0,008
-461,328	800,000	0,036	-0,090
-460,313	800,000	-0,043	-0,093
-459,299	163,058	-0,028	0,029
-458,284	-2,584	-0,031	-0,016
-457,270	-74,709	0,152	0,040
-456,255	128,356	0,119	-0,110
-455,241	122,256	0,024	-0,022
-454,226	-66,413	0,039	-0,011
-453,211	311,576	0,052	0,071
-452,197	-178,897	-0,065	-0,001
-451,182	800,000	0,074	-0,156
-450,168	-87,842	0,069	0,015
-449,153	466,945	0,014	0,023
-448,138	89,910	-0,080	-0,065
-447,124	552,123	0,049	-0,085
-446,109	483,169	-0,045	-0,074
-445,095	-87,049	0,087	0,019
-444,080	205,454	0,022	-0,025
-443,065	-135,431	0,117	0,010
-442,051	-172,512	-0,095	-0,002
-441,036	386,658	-0,057	0,085
-440,022	-130,270	0,106	0,010
-439,007	-200,000	-0,019	0,128
-437,992	134,278	0,013	-0,012
-436,978	-112,445	0,061	-0,009
-435,963	746,973	0,003	-0,006
-434,949	103,859	-0,035	0,030
-433,934	625,031	-0,075	-0,138
-432,919	132,333	0,014	0,013
-431,905	-200,000	0,008	-0,100
-430,890	430,216	0,094	-0,148
-429,876	-200,000	0,001	0,099
-428,861	134,116	0,080	0,076
-427,846	-50,969	0,087	0,029
-426,832	5,064	0,066	0,035
-425,817	-45,868	-0,016	-0,006
-424,803	-129,352	0,128	-0,013
-423,788	113,251	0,047	-0,042
-422,773	54,717	-0,094	-0,066
-421,759	-200,000	-0,029	0,140
-420,744	-115,744	-0,037	-0,005
-419,730	50,533	-0,154	-0,105
-418,715	437,278	-0,050	0,079
-417,701	-118,100	0,047	-0,006
-416,686	-58,505	-0,136	0,043
-415,671	563,948	-0,036	0,064
-414,657	-151,011	0,182	-0,010
-413,642	-200,000	-0,020	0,232
-412,628	258,665	0,041	0,051
-411,613	61,579	-0,085	0,061
-410,598	-116,829	-0,028	0,004
-409,584	220,594	0,121	0,141
-408,569	211,727	0,134	0,153
-407,555	25,125	-0,071	0,043
-406,540	-200,000	-0,010	0,104
-405,525	556,120	0,035	0,061
-404,511	68,435	-0,061	-0,046
-403,496	-200,000	-0,001	0,107
-402,482	-39,306	0,087	0,033
-401,467	-63,037	0,112	0,033
-400,452	-185,102	-0,050	0,001
-399,438	48,687	0,136	0,092
-398,423	-200,000	-0,003	-0,086
-397,409	106,878	-0,112	-0,097
-396,394	-33,592	0,103	-0,041
-395,379	-141,545	-0,178	0,013
-394,365	-200,000	-0,009	0,134
-393,350	-200,000	0,027	0,118
-392,336	-45,555	0,036	-0,013
-391,321	-166,113	-0,120	-0,004
-390,306	-200,000	0,002	0,036
-389,292	-33,540	0,152	-0,061
-388,277	-200,000	-0,015	-0,054
-387,263	515,238	0,035	-0,060
-386,248	-17,487	-0,106	-0,048
-385,233	-38,413	-0,052	-0,020
-384,219	-89,327	-0,090	0,019
-383,204	482,233	0,036	-0,060
-382,190	83,855	-0,043	-0,034
-381,175	-200,000	0,017	0,091
-380,160	294,809	-0,079	0,105
-379,146	-200,000	-0,017	0,086
-378,131	-48,181	-0,098	0,034
-377,117	654,244	-0,073	-0,137
-376,102	-188,107	-0,118	-0,001
-375,088	-200,000	0,004	0,179
-374,073	800,000	-0,046	-0,143
-373,058	800,000	0,036	0,085
-372,044	8,089	-0,012	0,006
-371,029	333,735	0,046	0,065
-370,015	-34,787	0,192	-0,076
-369,000	260,237	-0,109	0,137
-367,985	-200,000	-0,021	-0,131
-366,971	-41,057	-0,041	-0,015
-365,956	42,586	-0,092	0,060
-364,942	183,959	-0,050	0,053
-363,927	27,382	-0,047	0,029
-362,912	66,787	-0,061	0,045
-361,898	-200,000	-0,014	-0,092
-360,883	-148,956	-0,089	0,005
-359,869	11,304	0,146	0,081
-358,854	333,466	0,018	0,025
-357,839	-121,158	0,090	-0,011
-356,825	-200,000	0,015	0,086
-355,810	581,146	-0,011	0,020
-354,796	-112,694	0,083	0,012
-353,781	618,191	-0,092	-0,169
-352,766	37,673	-0,074	0,047
-351,752	403,304	-0,079	0,121
-350,737	-82,111	0,100	0,024
-349,723	-129,676	0,096	-0,009
-348,708	-179,535	-0,047	-0,001
-347,693	566,295	0,020	-0,036
-346,679	800,000	0,028	0,086
-345,664	-200,000	0,011	-0,118
-344,650	130,241	0,065	-0,060
-343,635	-98,264	-0,055	0,010
-342,620	202,798	-0,092	0,103
-341,606	376,199	-0,040	-0,059
-340,591	-200,000	-0,016	0,051
-339,577	-49,812	-0,045	0,015
-338,562	-8,229	-0,100	-0,049
-337,548	-76,273	0,144	-0,037
-336,533	-128,445	-0,123	-0,012
-335,518	145,742	0,079	0,076
-334,504	234,576	-0,020	-0,024
-333,489	-22,246	-0,111	-0,049
-332,475	800,000	0,045	-0,141
-331,460	17,502	-0,109	-0,062
-330,445	-21,022	0,084	-0,037
-329,431	144,170	-0,080	-0,077
-328,416	-106,423	0,025	0,004
-327,402	800,000	0,029	0,072
-326,387	-20,337	0,102	-0,045
-325,372	800,000	0,040	0,090
-324,358	800,000	0,069	-0,147
-323,343	-200,000	-0,006	-0,065
-322,329	-200,000	-0,011	-0,035
-321,314	149,814	0,096	0,094
-320,299	-181,514	0,096	0,001
-319,285	289,598	-0,027	0,036
-318,270	-56,472	0,015	0,005
-317,256	-69,836	-0,150	-0,041
-316,241	26,214	-0,057	-0,035
-315,226	-132,968	0,081	0,007
-314,212	-126,779	0,102	-0,011
-313,197	-200,000	0,005	0,019
-312,183	57,176	-0,073	0,052
-311,168	669,468	0,009	-0,017
-310,153	227,491	0,025	0,029
-309,139	800,000	0,026	-0,082
-308,124	-200,000	0,029	0,114
-307,110	49,181	0,006	-0,004
-306,095	-21,307	-0,076	0,033
-305,080	65,105	0,098	0,072
-304,066	314,077	-0,053	0,073
-303,051	427,961	-0,034	-0,054
-302,037	-200,000	0,028	-0,124
-301,022	27,634	0,061	-0,037
-300,008	216,058	0,103	0,118
-298,993	-29,021	0,125	0,052
-297,978	-28,623	-0,142	0,059
-296,964	800,000	-0,013	0,029
-295,949	365,939	0,026	-0,038
-294,935	800,000	0,011	-0,023
-293,920	-200,000	-0,006	-0,072
-292,905	382,600	0,064	0,096
-291,891	-200,000	0,014	0,149
-290,876	-200,000	0,004	0,048
-289,862	-200,000	-0,008	-0,030
-288,847	29,681	-0,056	0,035
-287,832	-200,000	-0,018	-0,067
-286,818	138,498	-0,049	0,047
-285,803	88,151	0,039	-0,031
-284,789	800,000	0,029	0,064
-283,774	-158,487	0,090	0,004
-282,759	-109,978	0,086	-0,013
-281,745	-66,082	0,016	0,005
-280,730	79,597	-0,090	-0,070
-279,716	319,661	0,083	0,114
-278,701	152,020	0,146	0,144
-277,686	25,076	0,121	0,072
-276,672	10,932	-0,036	-0,020
-275,657	666,974	-0,048	-0,091
-274,643	473,077	-0,063	0,103
-273,628	104,919	-0,113	-0,096
-272,613	115,552	-0,005	-0,004
-271,599	-200,000	0,038	0,183
-270,584	-200,000	0,008	-0,154
-269,570	25,517	0,068	-0,041
-268,555	266,950	0,034	-0,043
-267,540	-103,832	-0,070	-0,012
-266,526	-200,000	0,039	-0,169
-265,511	48,985	0,019	0,013
-264,497	432,660	0,075	0,118
-263,482	800,000	-0,029	-0,074
-262,467	-200,000	0,014	0,083
-261,453	-22,320	-0,087	0,038
-260,438	-39,469	-0,089	-0,034
-259,424	7,256	0,106	0,057
-258,409	-107,400	-0,027	-0,004
-257,395	1,928	0,068	-0,036
-256,380	139,435	0,050	-0,048
-255,365	-92,781	0,070	-0,014
-254,351	456,567	0,071	0,115
-253,336	103,841	-0,121	-0,103
-252,322	-93,688	0,026	0,005
-251,307	251,090	0,073	-0,090
-250,292	276,566	0,073	-0,094
-249,278	281,394	0,042	0,055
-248,263	800,000	-0,015	-0,037
-247,249	800,000	0,068	-0,141
-246,234	23,909	-0,048	-0,029
-245,219	417,926	0,076	-0,118
-244,205	-97,525	-0,063	-0,012
-243,190	49,730	-0,094	-0,064
-242,176	800,000	0,030	0,062
-241,161	38,309	0,039	-0,025
-240,146	800,000	-0,027	0,061
-239,132	-200,000	-0,007	0,152
-238,117	156,049	-0,021	0,021
-237,103	-170,082	-0,055	-0,001
-236,088	38,508	-0,057	-0,036
-235,073	-99,611	-0,075	0,013
-234,059	-200,000	0,000	0,077
-233,044	-200,000	0,002	-0,117
-232,030	-200,000	0,010	-0,075
-231,015	7,491	-0,038	0,020
-230,000	800,000	-0,050	0,116
-228,986	-111,338	-0,061	-0,009
-227,971	287,743	-0,043	0,056
-226,957	366,814	-0,017	0,026
-225,942	-71,415	0,072	-0,019
-224,927	-200,000	0,012	0,129
-223,913	-200,000	-0,031	0,120
-222,898	-174,540	-0,149	-0,003
-221,884	99,378	0,048	-0,040
-220,869	-200,000	-0,032	0,170
-219,855	-200,000	-0,016	0,086
-218,840	125,037	0,136	0,124
-217,825	-200,000	0,002	-0,078
-216,811	-138,904	-0,064	-0,005
-215,796	-200,000	0,007	-0,046
-214,782	-200,000	0,009	-0,064
-213,767	-155,896	-0,155	-0,007
-212,752	-57,689	0,145	0,046
-211,738	800,000	-0,092	0,198
-210,723	405,093	-0,084	0,128
-209,709	-49,652	-0,045	-0,015
-208,694	-200,000	0,023	0,107
-207,679	800,000	-0,011	0,029
-206,665	558,024	0,068	0,119
-205,650	377,685	0,038	0,056
-204,636	-4,297	-0,088	0,044
-203,621	-31,260	-0,097	0,039
-202,606	-200,000	0,006	0,044
-201,592	-165,641	-0,113	0,003
-200,577	47,291	-0,117	-0,079
-199,563	749,332	-0,025	0,048
-198,548	-132,897	-0,105	0,010
-197,533	-65,755	0,083	0,024
-196,519	66,942	-0,103	-0,075
-195,504	800,000	-0,054	-0,125
-194,490	-200,000	-0,002	0,057
-193,475	800,000	0,029	0,063
-192,460	-90,914	-0,091	-0,019
-191,446	-200,000	0,006	0,102
-190,431	-200,000	-0,022	-0,102
-189,417	187,551	-0,014	-0,015
-188,402	-200,000	0,007	0,040
-187,387	322,701	-0,060	0,083
-186,373	489,324	-0,081	-0,134
-185,358	424,025	-0,064	-0,100
-184,344	-200,000	0,002	-0,042
-183,329	71,737	-0,027	-0,021
-182,315	-62,306	0,050	-0,015
-181,300	14,450	-0,095	-0,053
-180,285	-56,111	0,117	0,037
-179,271	-200,000	0,001	-0,099
-178,256	-26,524	-0,104	0,044
-177,242	-11,206	0,085	-0,040
-176,227	-184,934	0,134	-0,001
-175,212	97,790	0,087	0,072
-174,198	-124,906	0,055	-0,006
-173,183	-33,100	-0,090	0,036
-172,169	-200,000	-0,009	0,030
-171,154	186,934	0,104	0,111
-170,139	234,863	0,066	0,079
-169,125	403,414	0,009	0,014
-168,110	800,000	-0,025	0,072
-167,096	35,097	0,091	-0,058
-166,081	347,720	-0,027	-0,039
-165,066	142,867	-0,094	-0,090
-164,052	710,929	0,065	0,125
-163,037	193,508	0,086	0,094
-162,023	-124,125	0,096	0,011
-161,008	800,000	-0,026	0,063
-159,993	-58,434	-0,083	-0,026
-158,979	-41,765	0,101	-0,037
-157,964	431,445	0,014	-0,021
-156,950	-52,071	0,098	-0,033
-155,935	-200,000	0,005	-0,105
-154,920	800,000	-0,061	0,165
-153,906	70,614	-0,118	0,088
-152,891	-23,061	-0,081	0,035
-151,877	-114,248	-0,050	0,007
-150,862	-85,773	0,049	-0,011
-149,847	476,806	0,038	0,062
-148,833	429,774	-0,027	-0,041
-147,818	640,402	0,053	0,097
-146,804	-200,000	-0,009	0,159
-145,789	476,357	-0,096	0,156
-144,775	487,878	0,041	0,067
-143,760	48,292	-0,125	-0,084
-142,745	-200,000	-0,115	0,000
-141,731	-128,737	0,119	0,012
-140,716	251,279	-0,068	0,083
-139,702	220,005	-0,039	0,045
-138,687	396,836	-0,141	0,213
-137,672	377,154	-0,094	-0,138
-136,658	-42,507	0,106	-0,039
-135,643	800,000	0,016	0,039
-134,629	101,370	-0,066	-0,055
-133,614	-117,325	0,127	-0,016
-132,599	800,000	0,030	-0,071
-131,585	-56,422	0,042	0,013
-130,570	324,210	-0,082	-0,113
-129,556	17,288	-0,107	-0,061
-128,541	-27,033	0,039	0,016
-127,526	-200,000	0,005	0,028
-126,512	135,545	0,064	0,060
-125,497	-200,000	-0,027	0,109
-124,483	-56,920	0,053	0,017
-123,468	800,000	-0,035	0,072
-122,453	-200,000	-0,023	0,085
-121,439	-200,000	-0,035	0,156
-120,424	-200,000	-0,013	-0,044
-119,410	0,293	0,043	-0,022
-118,395	168,825	-0,076	0,078
-117,380	100,913	-0,009	-0,008
-116,366	1,459	0,063	0,032
-115,351	648,480	0,061	-0,113
-114,337	4,866	-0,060	-0,032
-113,322	-121,582	-0,097	-0,011
-112,307	-118,201	0,106	0,013
-111,293	533,404	-0,082	0,140
-110,278	-200,000	0,003	-0,047
-109,264	-200,000	-0,025	0,139
-108,249	-200,000	-0,137	-0,000
-107,234	54,191	-0,091	0,063
-106,220	476,585	0,066	-0,107
-105,205	800,000	0,025	0,049
-104,191	2,330	0,079	-0,041
-103,176	-200,000	-0,001	-0,069
-102,162	220,707	-0,039	0,045
-101,147	206,013	0,060	-0,067
-100,132	394,634	-0,068	-0,102
-99,118	-122,815	-0,111	0,013
-98,103	800,000	-0,040	-0,083
-97,089	-52,699	-0,093	0,031
-96,074	38,417	0,059	0,037
-95,059	-164,744	-0,040	-0,001
-94,045	254,864	-0,094	-0,115
-93,030	-13,897	-0,082	0,038
-92,016	-111,516	-0,073	0,011
-91,001	167,118	-0,045	0,046
-89,986	-200,000	0,011	0,086
-88,972	-101,075	-0,049	0,009
-87,957	5,770	-0,065	0,034
-86,943	-17,188	0,079	0,036
-85,928	800,000	-0,022	0,044
-84,913	237,907	-0,092	-0,110
-83,899	-200,000	-0,004	0,093
-82,884	503,754	-0,025	0,042
-81,870	72,921	0,036	-0,027
-80,855	-200,000	0,018	0,117
-79,840	26,194	-0,087	0,052
-78,826	-200,000	-0,014	-0,097
-77,811	114,325	0,060	0,052
-76,797	67,309	0,016	-0,012
-75,782	800,000	0,039	-0,094
-74,767	-200,000	0,021	0,136
-73,753	800,000	0,037	0,108
-72,738	405,080	-0,062	-0,094
-71,724	132,344	-0,016	-0,014
-70,709	800,000	-0,032	0,063
-69,694	337,230	-0,036	-0,051
-68,680	-200,000	-0,008	0,065
-67,665	-200,000	0,018	0,196
-66,651	-32,758	0,096	-0,038
-65,636	-131,081	0,073	0,007
-64,622	548,131	0,068	0,117
-63,607	-57,265	-0,130	-0,041
-62,592	-200,000	0,006	0,070
-61,578	12,568	-0,105	-0,058
-60,563	183,984	0,143	0,152
-59,549	800,000	0,012	-0,026
-58,534	14,255	-2,172	-1,211
-57,519	-200,000	-0,217	-0,792
-56,505	-200,000	-1,271	-4,906
-55,490	76,402	0,960	0,729
-54,476	800,000	5,343	12,129
-53,461	-200,000	18,714	316,114
-52,446	800,000	741,295	2330,886
-51,432	557,969	1657,473	2878,089
-50,417	111,128	1641,121	1417,309
-49,403	75,482	1290,878	976,133
-48,388	30,460	1031,529	630,774
-47,373	19,969	994,156	573,157
-46,359	17,512	981,771	557,905
-45,344	14,206	977,904	544,812
-44,330	14,500	976,260	544,842
-43,315	13,887	974,411	541,777
-42,300	13,803	973,469	540,955
-41,286	13,823	972,407	540,411
-40,271	13,834	971,533	539,939
-39,257	13,807	970,839	539,445
-38,242	13,852	969,722	538,947
-37,227	13,787	968,903	538,259
-36,213	13,784	968,047	537,755
-35,198	13,722	967,026	536,962
-34,184	13,807	966,288	536,810
-33,169	13,825	965,408	536,357
-32,154	13,826	964,392	535,773
-31,140	13,813	963,416	535,168
-30,125	13,862	962,902	535,020
-29,111	13,857	961,952	534,454
-28,096	13,849	961,235	534,011
-27,082	13,805	960,727	533,565
-26,067	13,857	959,781	533,186
-25,052	13,749	959,289	532,541
-24,038	13,845	958,498	532,392
-23,023	13,800	957,738	531,803
-22,009	13,817	957,298	531,592
-20,994	13,880	956,521	531,342
-19,979	13,820	955,772	530,713
-18,965	13,850	955,095	530,413
-17,950	13,841	954,727	530,157
-16,936	13,745	954,337	529,611
-15,921	13,752	953,530	529,164
-14,906	13,766	952,587	528,665
-13,892	13,741	952,060	528,274
-12,877	13,759	951,320	527,897
-11,863	13,693	950,715	527,330
-10,848	13,701	950,195	527,046
-9,833	13,793	949,511	526,941
-8,819	13,793	949,023	526,650
-7,804	13,815	948,208	526,244
-6,790	13,789	947,831	525,932
-5,775	13,738	947,425	525,523
-4,760	13,826	946,583	525,316
-3,746	13,811	946,031	524,943
-2,731	13,639	945,278	523,955
-1,717	13,523	944,830	523,319
-0,702	13,597	943,933	523,037
0,313	13,382	943,436	522,868
1,327	16,670	940,918	531,835
2,342	25,630	795,884	473,660
3,356	21,942	460,481	268,364
4,371	-5,128	317,777	156,096
5,386	-8,779	299,529	143,383
6,400	-10,792	293,446	138,439
7,415	-11,330	291,171	136,818
8,429	-11,484	289,306	135,776
9,444	-11,576	288,565	135,326
10,459	-11,295	287,795	135,229
11,473	-11,496	287,319	134,796
12,488	-11,505	286,835	134,548
13,502	-11,571	286,182	134,166
14,517	-11,302	285,784	134,230
15,531	-11,481	285,379	133,853
16,546	-11,306	284,867	133,771
17,561	-11,297	284,460	133,577
18,575	-11,272	284,319	133,523
19,590	-11,361	283,772	133,168
20,604	-11,332	283,604	133,105
21,619	-11,431	283,138	132,779
22,634	-11,444	282,942	132,663
23,648	-11,453	282,568	132,467
24,663	-11,539	282,301	132,247
25,677	-11,512	281,916	132,081
26,692	-11,242	281,700	132,227
27,707	-11,342	281,300	131,932
28,721	-11,407	281,331	131,872
29,736	-11,319	280,826	131,708
30,750	-11,473	280,579	131,433
31,765	-11,358	280,439	131,466
32,780	-11,298	280,070	131,339
33,794	-11,593	279,812	130,924
34,809	-11,449	279,600	130,950
35,823	-11,274	279,253	130,944
36,838	-11,511	279,002	130,588
37,853	-11,511	278,802	130,483
38,867	-11,458	278,456	130,360
39,882	-11,409	278,357	130,348
40,896	-11,444	278,179	130,220
41,911	-11,545	277,909	129,986
42,926	-11,381	277,488	129,934
43,940	-11,511	277,361	129,740
44,955	-11,662	277,063	129,445
45,969	-11,451	276,753	129,488
46,984	-11,737	276,770	129,215
47,999	-11,733	276,290	128,983
49,013	-11,890	276,115	128,742
50,028	-12,120	275,848	128,390
51,042	-12,168	275,578	128,207
52,057	-12,252	275,242	127,961
53,071	-12,221	275,143	127,932
54,086	-11,763	274,885	128,230
55,101	-11,971	274,896	128,029
56,115	-11,729	274,776	128,188
57,130	-11,464	274,518	128,304
58,144	-11,345	274,226	128,267
59,159	-11,206	273,870	128,219
60,174	-11,438	273,854	127,984
61,188	-11,403	273,645	127,908
62,203	-11,468	273,494	127,765
63,217	-11,398	273,174	127,669
64,232	-11,169	272,882	127,735
65,247	-11,255	272,633	127,527
66,261	-11,421	272,341	127,225
67,276	-11,578	272,166	126,986
68,290	-11,626	271,719	126,722
69,305	-11,598	271,547	126,656
70,320	-11,850	271,453	126,368
71,334	-11,783	271,378	126,384
72,349	-11,163	270,950	126,745
73,363	-11,162	270,802	126,665
74,378	-11,421	270,644	126,342
75,393	-11,434	270,321	126,168
76,407	-11,474	270,106	126,019
77,422	-11,338	269,994	126,080
78,436	-11,127	269,713	126,131
79,451	-11,240	269,509	125,922
80,466	-11,409	269,285	125,651
81,480	-11,493	268,991	125,425
82,495	-11,440	268,724	125,338
83,509	-11,468	268,435	125,167
84,524	-11,723	268,449	124,930
85,539	-11,593	268,225	124,933
86,553	-11,591	267,930	124,786
87,568	-11,651	267,810	124,664
88,582	-11,597	267,650	124,628
89,597	-11,342	267,294	124,682
90,611	-11,420	267,229	124,570
91,626	-11,375	267,151	124,564
92,641	-11,405	267,000	124,455
93,655	-11,205	266,485	124,385
94,670	-11,403	266,380	124,146
95,684	-11,439	266,243	124,038
96,699	-11,422	265,923	123,893
97,714	-11,380	265,772	123,850
98,728	-11,664	265,471	123,442
99,743	-11,726	265,393	123,339
100,757	-11,808	265,142	123,138
101,772	-11,416	264,858	123,347
102,787	-11,600	264,701	123,098
103,801	-11,236	264,522	123,330
104,816	-11,447	264,390	123,069
105,830	-11,234	264,289	123,202
106,845	-11,287	264,049	123,032
107,860	-11,369	263,771	122,817
108,874	-11,548	263,657	122,593
109,889	-11,406	263,452	122,614
110,903	-11,413	263,250	122,503
111,918	-11,575	263,034	122,247
112,933	-11,362	262,740	122,290
113,947	-11,386	262,580	122,182
114,962	-11,470	262,425	122,024
115,976	-11,376	262,237	122,010
116,991	-11,272	262,112	122,033
118,006	-11,384	261,932	121,840
119,020	-11,397	261,800	121,755
120,035	-11,232	261,606	121,801
121,049	-11,364	261,391	121,573
122,064	-11,436	261,281	121,447
123,079	-11,499	260,818	121,165
124,093	-11,480	260,737	121,134
125,108	-11,395	260,383	121,034
126,122	-11,530	260,148	120,794
127,137	-11,675	259,883	120,533
128,151	-11,754	259,907	120,464
129,166	-11,529	259,593	120,505
130,181	-11,764	259,592	120,288
131,195	-11,754	259,159	120,085
132,210	-11,442	259,008	120,278
133,224	-11,256	258,869	120,365
134,239	-11,639	258,893	120,030
135,254	-11,363	258,515	120,086
136,268	-11,381	258,218	119,921
137,283	-11,612	257,994	119,605
138,297	-11,834	257,878	119,347
139,312	-11,771	257,591	119,259
140,327	-11,463	257,654	119,545
141,341	-11,127	257,348	119,685
142,356	-11,226	257,214	119,526
143,370	-11,195	257,084	119,482
144,385	-11,134	256,846	119,414
145,400	-11,149	256,597	119,274
146,414	-10,985	256,456	119,340
147,429	-11,369	256,352	118,948
148,443	-11,157	256,139	119,023
149,458	-11,071	256,015	119,029
150,473	-11,329	255,717	118,656
151,487	-11,082	255,430	118,726
152,502	-11,109	255,465	118,708
153,516	-11,170	255,149	118,498
154,531	-11,296	254,905	118,266
155,546	-11,229	254,981	118,349
156,560	-11,265	254,661	118,158
157,575	-11,327	254,410	117,978
158,589	-11,225	254,294	118,001
159,604	-11,097	254,058	117,991
160,619	-11,076	253,963	117,954
161,633	-11,171	253,638	117,711
162,648	-11,261	253,631	117,621
163,662	-11,354	253,410	117,428
164,677	-11,294	253,303	117,419
165,692	-11,052	253,001	117,476
166,706	-11,227	252,816	117,230
167,721	-11,235	252,577	117,102
168,735	-11,227	252,438	117,034
169,750	-10,947	252,262	117,180
170,764	-11,280	252,194	116,855
171,779	-10,965	252,042	117,041
172,794	-10,795	251,920	117,119
173,808	-11,206	251,707	116,661
174,823	-11,616	251,472	116,193
175,837	-11,721	251,107	115,926
176,852	-11,346	251,130	116,244
177,867	-10,999	251,092	116,510
178,881	-11,122	250,921	116,316
179,896	-11,051	250,655	116,242
180,910	-11,127	250,390	116,044
181,925	-11,224	250,484	115,996
182,940	-11,207	250,214	115,875
183,954	-11,213	249,865	115,698
184,969	-11,328	249,881	115,598
185,983	-11,144	249,667	115,643
186,998	-10,946	249,427	115,688
188,013	-11,036	249,313	115,550
189,027	-11,078	249,089	115,400
190,042	-11,110	248,858	115,256
191,056	-11,154	248,729	115,149
192,071	-11,116	248,620	115,121
193,086	-11,258	248,378	114,879
194,100	-11,051	248,250	114,982
195,115	-11,150	247,979	114,764
196,129	-11,133	247,762	114,668
197,144	-11,139	247,658	114,605
198,159	-11,023	247,530	114,632
199,173	-11,181	247,213	114,343
200,188	-11,080	247,035	114,335
201,202	-11,370	246,965	114,051
202,217	-11,799	246,661	113,544
203,232	-11,564	246,351	113,587
204,246	-11,436	246,244	113,633
205,261	-11,114	246,274	113,903
206,275	-11,926	245,875	113,037
207,290	-8,232	247,199	116,705
208,304	-0,081	249,965	124,828
209,319	4,455	251,088	129,179
210,334	4,735	251,270	129,495
211,348	5,188	250,943	129,693
212,363	4,988	251,168	129,631
213,377	5,280	250,906	129,728
214,392	4,874	250,656	129,248
215,407	4,897	250,493	129,172
216,421	4,977	250,380	129,169
217,436	5,064	250,117	129,095
218,450	5,173	249,995	129,110
219,465	5,065	249,718	128,866
220,480	4,689	249,680	128,523
221,494	4,613	249,515	128,363
222,509	4,677	249,279	128,283
223,523	4,525	249,146	128,077
224,538	4,308	248,876	127,747
225,553	4,468	248,676	127,766
226,567	4,655	248,572	127,856
227,582	4,555	248,413	127,680
228,596	4,462	248,283	127,524
229,611	4,254	247,925	127,158
230,626	4,289	247,767	127,095
231,640	4,330	247,587	127,025
232,655	4,301	247,549	126,970
233,669	4,532	247,196	126,967
234,684	4,182	247,046	126,591
235,699	4,697	247,008	126,984
236,713	4,631	246,982	126,905
237,728	4,153	246,755	126,385
238,742	4,297	246,367	126,292
239,757	4,302	246,241	126,221
240,772	4,245	246,040	126,060
241,786	4,348	246,034	126,130
242,801	4,252	245,737	125,888
243,815	4,401	245,682	125,970
244,830	4,478	245,631	125,996
245,844	4,449	245,505	125,897
246,859	4,534	245,238	125,818
247,874	4,309	245,015	125,508
248,888	4,270	244,972	125,444
249,903	4,580	244,733	125,562
250,917	4,566	244,678	125,511
251,932	4,598	244,578	125,474
252,947	4,688	244,355	125,422
253,961	4,234	244,118	124,921
254,976	4,316	244,066	124,950
255,990	4,449	243,861	124,942
257,005	4,294	243,685	124,715
258,020	4,116	243,493	124,461
259,034	4,474	243,202	124,591
260,049	4,439	243,224	124,563
261,063	4,247	243,036	124,301
262,078	4,239	242,836	124,180
263,093	4,653	242,799	124,484
264,107	4,496	242,563	124,226
265,122	4,248	242,363	123,913
266,136	4,381	242,326	123,990
267,151	4,799	242,178	124,239
268,166	4,282	242,067	123,755
269,180	4,281	241,631	123,521
270,195	4,749	241,713	123,927
271,209	4,925	241,592	123,994
272,224	4,423	241,359	123,462
273,239	4,167	240,955	123,040
274,253	4,071	240,910	122,930
275,268	4,386	240,853	123,141
276,282	4,387	240,749	123,077
277,297	4,282	240,418	122,814
278,312	4,357	240,359	122,833
279,326	4,380	240,259	122,789
280,341	4,278	240,045	122,587
281,355	4,326	239,842	122,511
282,370	4,428	239,832	122,576
283,384	4,505	239,646	122,531
284,399	4,063	239,440	122,064
285,414	4,237	239,274	122,107
286,428	4,598	239,033	122,258
287,443	4,471	238,919	122,088
288,457	4,431	238,952	122,063
289,472	4,533	238,886	122,099
290,487	4,316	238,640	121,791
291,501	4,325	238,297	121,612
292,516	4,016	238,060	121,237
293,530	3,869	238,062	121,111
294,545	4,454	237,922	121,490
295,560	4,360	237,724	121,304
296,574	3,965	237,624	120,932
297,589	4,194	237,456	121,015
298,603	4,534	237,390	121,238
299,618	4,441	237,215	121,065
300,633	4,520	237,149	121,082
301,647	4,612	236,897	121,015
302,662	4,834	237,026	121,244
303,676	4,796	236,799	121,087
304,691	4,587	236,583	120,802
305,706	4,930	236,308	120,919
306,720	4,797	236,315	120,808
307,735	4,585	236,088	120,516
308,749	4,367	235,962	120,271
309,764	4,229	235,664	120,001
310,779	4,235	235,421	119,870
311,793	4,082	235,213	119,636
312,808	4,070	235,028	119,521
313,822	4,101	234,911	119,475
314,837	4,096	234,860	119,435
315,852	4,142	234,662	119,359
316,866	4,219	234,594	119,374
317,881	4,583	234,416	119,554
318,895	4,179	234,387	119,216
319,910	4,663	234,259	119,514
320,925	4,625	234,122	119,405
321,939	4,182	233,865	118,920
322,954	4,449	233,762	119,064
323,968	4,244	233,630	118,828
324,983	4,446	233,459	118,886
325,997	4,664	233,380	119,003
327,012	4,659	233,218	118,906
328,027	4,310	233,185	118,611
329,041	4,697	233,085	118,847
330,056	5,245	232,919	119,172
331,070	5,247	232,818	119,111
332,085	4,897	232,576	118,708
333,100	4,499	232,362	118,284
334,114	4,831	232,105	118,396
335,129	4,997	232,134	118,528
336,143	5,019	231,994	118,462
337,158	4,971	231,781	118,306
338,173	4,470	231,561	117,801
339,187	4,436	231,400	117,683
340,202	4,556	231,294	117,709
341,216	4,456	231,094	117,521
342,231	4,352	231,016	117,392
343,246	4,461	230,929	117,421
344,260	4,575	230,827	117,445
345,275	4,793	230,722	117,547
346,289	4,899	230,471	117,489
347,304	4,832	230,387	117,384
348,319	4,783	230,295	117,290
349,333	4,584	230,099	117,029
350,348	4,283	229,788	116,633
351,362	4,644	229,724	116,863
352,377	4,277	229,570	116,497
353,392	4,227	229,244	116,283
354,406	4,106	229,403	116,262
355,421	193,990	1319,918	1390,558
356,435	155,549	1452,738	1390,518
