DTS Sentinel unit serial number:	SN410029Multiplexer serial number:	ORYXHardware model number:	OX2-SRSoftware version number:	ORYX F/W v4,00 Oryx Data Collector v3.7.2.0data status	okinstallation	B5 Nyhavnadifferential loss correction	single-endedforward channel	channel 2reverse channel	N/Adate	2023/12/12time	08:32:13forward acquisition time	300,00reverse acquisition time	0,00gamma	499,1914k internal	0,3158k external	0,3158temperature offset calibration	1,0000default loss term (dB/km)	0,3820temperature slope calibration	1,0000multiplexer offset coefficient	1,0000multiplexer slope coefficient	1,0000fibre end	0,00T internal ref (°C)	15,07T ext. ref 1 (°C)	-1,26T ext. ref 2 (°C)	-1,59length (m)	temperature (°C)	Stokes	anti-Stokes-744,400	-7,254	0,086	-0,043
-743,385	-198,953	-0,320	0,001
-742,371	-166,409	0,060	0,002
-741,356	188,590	-0,241	0,266
-740,342	800,000	0,031	0,101
-739,327	-35,088	-0,232	0,093
-738,312	-15,133	0,073	-0,034
-737,298	-106,765	-0,304	-0,049
-736,283	-54,622	0,188	0,062
-735,269	-151,113	-0,295	0,016
-734,254	1,168	0,056	0,029
-733,239	11,280	-0,452	-0,254
-732,225	-85,315	0,090	0,021
-731,210	-44,953	-0,024	0,009
-730,196	135,093	0,021	-0,020
-729,181	800,000	-0,040	-0,089
-728,167	-94,265	-0,054	-0,011
-727,152	-61,246	0,072	0,022
-726,137	119,890	-0,143	-0,130
-725,123	-124,222	-0,092	0,011
-724,108	-24,833	-0,107	-0,047
-723,094	-200,000	-0,029	-0,177
-722,079	120,021	0,033	0,030
-721,064	-65,712	-0,169	-0,049
-720,050	-200,000	-0,025	0,110
-719,035	-107,940	0,058	0,009
-718,021	-91,410	-0,150	0,031
-717,006	-200,000	0,009	-0,094
-715,991	800,000	-0,036	-0,114
-714,977	-200,000	-0,008	-0,120
-713,962	-200,000	-0,020	-0,168
-712,948	-56,646	-0,206	0,067
-711,933	-39,174	0,082	-0,032
-710,918	800,000	-0,048	0,144
-709,904	-100,731	-0,170	0,031
-708,889	800,000	-0,084	-0,240
-707,875	307,075	0,051	-0,071
-706,860	-135,584	0,024	0,002
-705,845	-79,758	-0,067	-0,016
-704,831	43,085	0,030	-0,020
-703,816	9,048	-0,066	-0,036
-702,802	135,231	0,018	0,017
-701,787	-200,000	-0,009	0,089
-700,772	-172,889	-0,162	0,004
-699,758	329,037	-0,017	0,024
-698,743	-200,000	0,019	0,064
-697,729	-96,588	0,093	0,018
-696,714	-141,581	0,026	-0,002
-695,699	55,385	0,152	-0,108
-694,685	29,143	0,077	0,048
-693,670	226,097	-0,068	-0,081
-692,656	-200,000	-0,009	-0,133
-691,641	32,010	0,009	-0,006
-690,627	800,000	-0,016	0,047
-689,612	-200,000	0,001	-0,052
-688,597	-200,000	0,017	0,062
-687,583	-200,000	0,005	0,040
-686,568	168,329	-0,052	0,054
-685,554	-74,078	-0,159	0,042
-684,539	21,100	0,188	0,112
-683,524	128,006	0,046	0,043
-682,510	-144,519	0,036	0,002
-681,495	33,427	-0,031	0,020
-680,481	-200,000	0,009	0,103
-679,466	-200,000	-0,030	-0,171
-678,451	-200,000	0,016	0,053
-677,437	-200,000	0,026	-0,124
-676,422	-200,000	0,011	0,111
-675,408	147,845	0,151	-0,149
-674,393	384,166	0,038	0,057
-673,378	133,379	-0,067	-0,064
-672,364	77,299	-0,137	-0,107
-671,349	436,196	-0,092	-0,147
-670,335	-200,000	0,022	-0,129
-669,320	-18,256	-0,036	0,016
-668,305	800,000	0,037	0,080
-667,291	-200,000	0,007	0,066
-666,276	-200,000	-0,004	-0,056
-665,262	-70,794	-0,183	-0,050
-664,247	-45,835	0,079	0,029
-663,232	247,770	-0,033	0,041
-662,218	200,161	-0,036	-0,040
-661,203	237,624	-0,050	0,061
-660,189	265,660	0,006	0,008
-659,174	42,048	-0,153	0,102
-658,159	-126,608	-0,117	-0,013
-657,145	-200,000	-0,008	-0,045
-656,130	-175,171	0,078	-0,002
-655,116	-200,000	0,048	0,000
-654,101	69,702	-0,118	0,089
-653,086	-200,000	-0,026	-0,093
-652,072	70,179	-0,157	-0,119
-651,057	-200,000	0,018	-0,183
-650,043	-27,842	-0,063	-0,027
-649,028	-37,754	0,072	0,028
-648,014	305,657	0,020	-0,028
-646,999	8,321	-0,071	-0,039
-645,984	-174,113	-0,059	-0,001
-644,970	-200,000	-0,001	-0,096
-643,955	-50,726	-0,034	-0,012
-642,941	143,424	-0,106	-0,104
-641,926	-172,282	0,045	0,001
-640,911	52,477	0,173	0,121
-639,897	694,231	-0,044	0,085
-638,882	-200,000	-0,010	-0,086
-637,868	-111,701	-0,172	-0,025
-636,853	321,595	0,039	-0,055
-635,838	96,185	-0,135	-0,113
-634,824	27,569	-0,032	-0,020
-633,809	541,140	-0,027	-0,048
-632,795	-66,980	-0,101	-0,029
-631,780	-200,000	0,035	0,168
-630,765	-29,906	0,078	-0,033
-629,751	35,382	-0,039	0,025
-628,736	-200,000	0,020	-0,122
-627,722	-200,000	-0,011	-0,094
-626,707	-75,994	-0,045	0,012
-625,692	-83,224	0,131	-0,031
-624,678	800,000	-0,062	-0,127
-623,663	236,276	-0,090	0,109
-622,649	-138,146	-0,132	-0,011
-621,634	-200,000	-0,019	-0,074
-620,619	64,830	0,028	-0,021
-619,605	10,153	-0,017	0,009
-618,590	235,127	0,015	-0,018
-617,576	-149,468	0,124	-0,007
-616,561	-200,000	-0,016	0,084
-615,546	-146,978	-0,067	-0,004
-614,532	165,655	-0,100	-0,104
-613,517	680,147	-0,043	-0,082
-612,503	-200,000	-0,004	0,026
-611,488	-37,676	-0,038	-0,015
-610,474	-4,122	0,103	0,052
-609,459	265,854	-0,034	0,044
-608,444	-200,000	0,003	-0,112
-607,430	343,112	0,062	-0,089
-606,415	329,567	0,084	0,119
-605,401	32,816	-0,086	0,054
-604,386	90,581	-0,112	0,092
-603,371	-35,626	0,038	0,015
-602,357	-200,000	0,010	0,083
-601,342	-71,627	0,136	0,037
-600,328	800,000	-0,093	-0,254
-599,313	110,452	-0,017	-0,015
-598,298	-200,000	0,021	0,086
-597,284	-200,000	0,008	0,051
-596,269	-200,000	0,017	-0,099
-595,255	13,064	0,114	-0,065
-594,240	-44,958	0,016	-0,006
-593,225	362,166	-0,063	-0,094
-592,211	800,000	-0,039	-0,093
-591,196	785,544	-0,049	0,098
-590,182	-67,434	0,114	0,033
-589,167	-200,000	-0,002	-0,044
-588,152	-200,000	-0,005	-0,135
-587,138	-60,766	-0,046	-0,014
-586,123	-200,000	-0,008	-0,055
-585,109	413,141	-0,046	0,072
-584,094	-180,770	-0,023	-0,000
-583,079	67,515	-0,040	0,030
-582,065	-4,515	-0,058	-0,029
-581,050	-200,000	0,019	0,097
-580,036	-26,438	0,041	0,017
-579,021	193,613	0,065	-0,072
-578,006	-200,000	0,003	0,013
-576,992	-200,000	0,003	-0,057
-575,977	116,583	0,065	0,059
-574,963	-200,000	0,015	0,124
-573,948	266,737	0,074	0,095
-572,934	150,856	0,092	-0,091
-571,919	90,821	-0,161	-0,132
-570,904	-200,000	-0,013	-0,122
-569,890	-97,840	-0,058	-0,011
-568,875	-80,525	0,195	0,047
-567,861	168,156	-0,024	-0,025
-566,846	-200,000	0,010	0,087
-565,831	3,388	-0,080	0,043
-564,817	-73,077	-0,069	-0,018
-563,802	-67,160	0,047	-0,013
-562,788	-88,680	-0,076	-0,016
-561,773	800,000	0,036	0,106
-560,758	-200,000	0,043	0,149
-559,744	800,000	0,038	-0,102
-558,729	60,000	0,035	0,025
-557,715	800,000	-0,071	-0,211
-556,700	241,440	-0,024	-0,029
-555,685	19,890	0,111	0,065
-554,671	166,043	-0,026	-0,027
-553,656	288,700	0,076	-0,101
-552,642	223,979	-0,086	0,102
-551,627	-200,000	0,003	-0,023
-550,612	71,079	-0,030	-0,023
-549,598	538,413	-0,048	-0,084
-548,583	-147,528	0,059	-0,004
-547,569	201,345	0,032	-0,036
-546,554	549,245	0,054	0,096
-545,539	124,439	-0,085	0,078
-544,525	213,571	-0,097	0,112
-543,510	-128,555	-0,112	0,011
-542,496	-123,282	-0,146	0,017
-541,481	45,433	-0,061	-0,041
-540,466	-161,622	-0,090	0,003
-539,452	93,004	-0,109	0,090
-538,437	287,457	-0,020	-0,026
-537,423	-200,000	0,004	-0,042
-536,408	251,091	-0,077	-0,096
-535,393	-154,568	0,139	0,007
-534,379	76,788	-0,079	-0,061
-533,364	159,592	0,060	0,061
-532,350	-200,000	-0,008	0,100
-531,335	216,048	0,054	-0,063
-530,321	347,684	-0,087	0,126
-529,306	-131,382	-0,113	-0,011
-528,291	-159,492	-0,129	0,005
-527,277	-101,278	-0,075	-0,013
-526,262	-200,000	-0,003	-0,118
-525,248	328,094	-0,010	0,014
-524,233	88,987	0,070	-0,057
-523,218	-104,828	-0,027	0,005
-522,204	148,249	-0,058	-0,058
-521,189	52,605	0,087	-0,061
-520,175	389,107	-0,005	0,008
-519,160	-200,000	-0,009	-0,086
-518,145	570,756	-0,031	-0,056
-517,131	-100,969	0,140	-0,025
-516,116	-200,000	0,023	-0,076
-515,102	-82,932	-0,073	-0,017
-514,087	28,418	-0,125	0,077
-513,072	-52,764	-0,133	-0,045
-512,058	297,624	0,051	-0,069
-511,043	800,000	0,050	-0,113
-510,029	296,955	-0,084	-0,114
-509,014	382,443	0,128	-0,193
-507,999	-84,262	0,067	-0,015
-506,985	800,000	0,019	0,043
-505,970	-5,052	-0,085	0,042
-504,956	86,837	-0,013	-0,010
-503,941	-200,000	0,021	-0,087
-502,926	2,748	0,098	-0,052
-501,912	-107,827	-0,098	0,015
-500,897	310,043	-0,039	0,054
-499,883	289,182	0,041	-0,054
-498,868	-196,541	0,087	0,000
-497,853	800,000	0,010	-0,028
-496,839	189,040	0,043	0,047
-495,824	337,880	0,067	0,096
-494,810	-200,000	0,023	0,144
-493,795	466,387	0,042	-0,069
-492,781	563,841	-0,044	-0,079
-491,766	327,349	-0,046	0,064
-490,751	-200,000	0,014	0,081
-489,737	-38,126	0,149	-0,057
-488,722	-35,029	-0,083	0,033
-487,708	16,112	0,122	-0,070
-486,693	-114,614	0,088	-0,012
-485,678	-200,000	-0,036	0,150
-484,664	376,831	-0,076	0,114
-483,649	428,984	-0,078	0,124
-482,635	29,129	0,099	-0,061
-481,620	52,654	-0,125	0,087
-480,605	-117,741	-0,114	0,015
-479,591	361,539	0,047	0,069
-478,576	-200,000	-0,003	-0,055
-477,562	17,170	0,055	0,032
-476,547	-200,000	0,005	-0,059
-475,532	-116,195	0,032	-0,004
-474,518	265,775	0,029	-0,037
-473,503	-16,272	0,127	-0,058
-472,489	-200,000	0,001	0,042
-471,474	-50,006	0,067	-0,023
-470,459	57,349	-0,103	-0,073
-469,445	800,000	-0,089	-0,277
-468,430	-78,180	0,074	0,018
-467,416	5,063	-0,064	0,034
-466,401	53,588	0,077	-0,054
-465,386	76,907	0,067	-0,052
-464,372	-200,000	-0,003	-0,047
-463,357	-200,000	0,011	0,039
-462,343	248,918	-0,054	-0,067
-461,328	-193,557	0,063	0,000
-460,313	262,654	-0,034	0,043
-459,299	800,000	0,008	0,025
-458,284	-132,237	0,164	0,015
-457,270	800,000	0,061	0,152
-456,255	98,175	0,067	0,056
-455,241	-26,465	-0,096	0,041
-454,226	-200,000	-0,027	0,106
-453,211	576,963	0,007	0,012
-452,197	152,940	-0,056	-0,056
-451,182	499,726	-0,045	0,076
-450,168	162,046	-0,047	-0,048
-449,153	-200,000	0,024	-0,126
-448,138	-19,002	0,029	-0,013
-447,124	-64,366	0,078	0,023
-446,109	73,579	0,120	0,092
-445,095	127,229	0,020	0,019
-444,080	499,145	0,086	0,144
-443,065	274,571	-0,004	0,006
-442,051	-72,459	0,128	0,034
-441,036	800,000	-0,052	0,121
-440,022	-200,000	-0,005	-0,062
-439,007	150,697	-0,057	-0,057
-437,992	-101,221	0,164	-0,029
-436,978	800,000	0,055	0,175
-435,963	89,834	0,090	-0,073
-434,949	79,466	-0,065	-0,050
-433,934	60,086	-0,063	-0,045
-432,919	134,710	0,028	0,026
-431,905	-44,454	-0,097	0,035
-430,890	355,390	0,052	-0,075
-429,876	7,859	0,122	0,067
-428,861	-61,731	0,092	0,028
-427,846	-183,112	-0,076	0,001
-426,832	90,260	-0,146	0,119
-425,817	-200,000	-0,024	-0,142
-424,803	381,064	-0,059	0,088
-423,788	88,997	0,087	0,070
-422,773	-200,000	-0,026	0,098
-421,759	800,000	0,042	-0,091
-420,744	113,550	-0,140	0,123
-419,730	132,094	0,091	-0,085
-418,715	257,275	-0,050	-0,063
-417,701	-200,000	-0,009	-0,191
-416,686	155,472	-0,001	-0,001
-415,671	-200,000	0,017	0,057
-414,657	-43,556	0,128	0,047
-413,642	155,839	0,069	0,069
-412,628	-119,959	-0,146	-0,018
-411,613	800,000	-0,033	-0,084
-410,598	725,681	0,048	-0,094
-409,584	-200,000	-0,011	-0,061
-408,569	-61,296	0,103	-0,031
-407,555	-200,000	-0,002	0,099
-406,540	46,462	0,116	-0,078
-405,525	-200,000	-0,004	-0,040
-404,511	79,713	0,059	0,046
-403,496	-19,225	-0,166	-0,075
-402,482	-97,873	-0,036	-0,007
-401,467	134,706	0,083	0,078
-400,452	274,009	-0,028	-0,036
-399,438	-83,650	-0,050	-0,011
-398,423	270,682	-0,057	-0,073
-397,409	183,250	0,002	0,002
-396,394	735,573	-0,050	-0,097
-395,379	-200,000	-0,004	0,077
-394,365	33,788	0,158	0,100
-393,350	-200,000	0,002	0,095
-392,336	57,747	-0,042	-0,030
-391,321	-61,555	0,131	-0,040
-390,306	-55,349	-0,061	-0,020
-389,292	-200,000	0,007	0,144
-388,277	138,328	-0,057	-0,054
-387,263	-200,000	0,002	-0,012
-386,248	800,000	0,062	0,151
-385,233	49,725	-0,038	0,026
-384,219	-200,000	0,025	-0,128
-383,204	113,434	0,070	0,062
-382,190	382,052	0,086	-0,129
-381,175	451,782	-0,036	-0,059
-380,160	-200,000	-0,020	0,099
-379,146	-200,000	0,050	0,216
-378,131	51,909	0,085	0,059
-377,117	-200,000	0,033	0,110
-376,102	-46,517	-0,088	-0,031
-375,088	-35,128	-0,055	-0,022
-374,073	-200,000	-0,038	0,128
-373,058	-128,914	0,119	-0,012
-372,044	-45,893	-0,068	-0,024
-371,029	800,000	-0,016	0,035
-370,015	-200,000	-0,019	0,104
-369,000	800,000	0,016	0,035
-367,985	327,133	-0,038	0,053
-366,971	174,933	0,029	0,031
-365,956	762,628	0,061	-0,120
-364,942	765,190	0,069	-0,137
-363,927	-200,000	0,017	-0,092
-362,912	2,127	0,150	0,079
-361,898	-49,223	0,054	-0,019
-360,883	-200,000	-0,016	-0,064
-359,869	768,913	0,014	-0,027
-358,854	130,555	0,056	0,052
-357,839	176,149	0,056	0,059
-356,825	800,000	-0,042	0,100
-355,810	39,227	0,119	0,077
-354,796	198,232	0,077	-0,086
-353,781	208,956	0,047	-0,053
-352,766	84,718	0,084	-0,067
-351,752	-200,000	0,015	-0,069
-350,737	-200,000	0,017	0,102
-349,723	-33,479	-0,020	-0,008
-348,708	-200,000	0,010	0,188
-347,693	355,529	0,047	-0,069
-346,679	117,946	-0,022	-0,020
-345,664	800,000	-0,053	-0,116
-344,650	181,945	-0,040	0,043
-343,635	74,485	0,025	0,019
-342,620	-126,314	0,139	-0,015
-341,606	397,147	0,040	-0,061
-340,591	91,646	-0,104	0,085
-339,577	36,738	0,096	0,062
-338,562	-41,087	-0,046	-0,017
-337,548	-178,239	0,120	-0,002
-336,533	-64,056	0,029	0,008
-335,518	112,270	0,066	-0,058
-334,504	-98,064	-0,066	0,012
-333,489	-200,000	0,020	-0,086
-332,475	800,000	-0,022	-0,055
-331,460	-200,000	-0,015	-0,089
-330,445	-200,000	-0,008	0,156
-329,431	-200,000	-0,011	0,058
-328,416	215,421	-0,042	0,048
-327,402	-200,000	-0,005	0,017
-326,387	-200,000	0,001	0,040
-325,372	800,000	0,034	-0,103
-324,358	-7,580	-0,073	-0,036
-323,343	800,000	-0,036	-0,084
-322,329	541,926	0,026	0,045
-321,314	-200,000	-0,011	0,041
-320,299	389,086	0,073	-0,109
-319,285	-200,000	0,020	0,095
-318,270	659,194	-0,059	-0,111
-317,256	-200,000	0,038	-0,138
-316,241	-181,205	-0,053	0,001
-315,226	-200,000	0,011	-0,062
-314,212	18,740	-0,134	0,078
-313,197	-41,200	0,038	0,014
-312,183	-81,434	-0,119	0,028
-311,168	-56,846	0,002	0,001
-310,153	-200,000	0,001	0,135
-309,139	-15,723	-0,105	-0,049
-308,124	271,045	-0,097	0,124
-307,110	-200,000	0,006	0,130
-306,095	-35,481	0,036	0,014
-305,080	-200,000	-0,003	-0,037
-304,066	-19,584	0,130	-0,058
-303,051	158,981	-0,069	-0,069
-302,037	-33,025	-0,134	0,053
-301,022	286,764	0,095	0,124
-300,008	-200,000	-0,009	0,041
-298,993	308,119	0,059	0,080
-297,978	24,706	-0,029	-0,018
-296,964	-200,000	0,012	0,122
-295,949	-110,681	-0,095	0,014
-294,935	-200,000	0,007	0,050
-293,920	630,180	-0,024	-0,045
-292,905	-130,808	0,103	0,010
-291,891	408,657	-0,155	0,238
-290,876	693,518	-0,006	0,012
-289,862	396,241	0,026	0,040
-288,847	276,113	-0,043	-0,055
-287,832	800,000	-0,028	0,064
-286,818	-200,000	-0,027	-0,089
-285,803	-157,479	0,071	-0,003
-284,789	269,523	-0,008	0,010
-283,774	190,285	-0,009	-0,010
-282,759	10,646	0,014	0,008
-281,745	-19,829	0,092	-0,041
-280,730	800,000	0,045	-0,143
-279,716	97,373	0,133	0,110
-278,701	320,117	0,137	0,189
-277,686	-200,000	0,046	0,161
-276,672	-191,683	-0,193	-0,001
-275,657	158,447	0,095	-0,095
-274,643	-167,932	-0,057	0,002
-273,628	800,000	0,014	-0,034
-272,613	-69,964	-0,107	0,029
-271,599	-147,759	-0,094	-0,006
-270,584	128,719	0,073	0,067
-269,570	-144,014	0,079	-0,005
-268,555	-70,727	-0,086	0,023
-267,540	-200,000	0,021	-0,102
-266,526	-145,715	-0,162	-0,010
-265,511	308,675	-0,049	-0,067
-264,497	-200,000	-0,004	-0,044
-263,482	-200,000	0,003	-0,067
-262,467	405,535	0,052	-0,080
-261,453	-33,635	-0,150	0,060
-260,438	311,398	-0,074	-0,101
-259,424	16,130	-0,049	0,028
-258,409	-60,911	0,099	0,030
-257,395	186,629	0,079	0,085
-256,380	-107,915	0,122	0,019
-255,365	-88,906	-0,075	0,016
-254,351	461,831	0,092	-0,148
-253,336	-30,323	-0,078	-0,032
-252,322	-200,000	0,033	-0,158
-251,307	61,316	-0,200	-0,144
-250,292	112,249	0,074	-0,065
-249,278	136,941	0,141	0,133
-248,263	800,000	-0,033	0,073
-247,249	-4,412	0,095	-0,047
-246,234	-62,862	-0,179	0,053
-245,219	-50,353	0,125	-0,043
-244,205	448,487	0,047	-0,075
-243,190	-200,000	-0,016	-0,092
-242,176	6,391	0,048	0,026
-241,161	800,000	-0,044	0,121
-240,146	-46,076	-0,078	0,028
-239,132	215,674	-0,114	0,131
-238,117	335,314	-0,027	-0,038
-237,103	155,916	-0,100	0,099
-236,088	-200,000	0,016	0,092
-235,073	-64,882	0,096	-0,028
-234,059	-200,000	0,030	-0,109
-233,044	1,015	-0,085	0,044
-232,030	158,111	-0,119	-0,119
-231,015	68,404	-0,067	-0,049
-230,000	800,000	0,005	-0,014
-228,986	9,402	0,102	0,055
-227,971	258,961	0,050	0,063
-226,957	-200,000	0,027	0,147
-225,942	-200,000	0,015	0,084
-224,927	89,251	0,092	0,074
-223,913	-14,937	-0,041	0,019
-222,898	-54,386	0,046	-0,015
-221,884	53,253	0,082	0,057
-220,869	-200,000	-0,007	0,138
-219,855	-200,000	0,004	0,201
-218,840	-200,000	0,005	0,106
-217,825	-102,670	0,097	-0,016
-216,811	-200,000	0,014	-0,069
-215,796	-16,459	-0,178	-0,081
-214,782	-89,703	-0,169	0,035
-213,767	-76,919	0,146	0,036
-212,752	-183,272	-0,077	0,001
-211,738	496,620	-0,038	-0,063
-210,723	-200,000	-0,037	-0,184
-209,709	-188,853	-0,157	-0,001
-208,694	46,008	-0,101	-0,067
-207,679	93,453	-0,070	-0,057
-206,665	258,999	-0,073	0,090
-205,650	201,140	0,087	0,097
-204,636	-95,549	-0,158	0,030
-203,621	-83,082	0,063	0,015
-202,606	-200,000	-0,014	-0,092
-201,592	-150,133	-0,095	0,005
-200,577	52,043	0,090	-0,062
-199,563	501,954	0,077	0,128
-198,548	84,068	-0,066	-0,052
-197,533	-26,757	0,229	-0,096
-196,519	35,010	-0,040	-0,025
-195,504	-146,548	0,025	0,002
-194,490	318,053	0,066	0,091
-193,475	800,000	-0,021	-0,054
-192,460	-200,000	-0,006	-0,125
-191,446	249,146	0,059	0,072
-190,431	-200,000	0,020	0,117
-189,417	8,727	0,077	-0,042
-188,402	-200,000	-0,013	0,057
-187,387	-44,064	0,092	0,033
-186,373	99,213	-0,019	0,016
-185,358	-200,000	-0,028	0,102
-184,344	140,093	-0,046	0,044
-183,329	-200,000	0,024	0,095
-182,315	22,307	0,134	-0,079
-181,300	-59,177	-0,109	-0,034
-180,285	-52,421	0,068	0,022
-179,271	-56,324	-0,071	-0,023
-178,256	432,766	-0,051	-0,080
-177,242	-63,065	0,081	-0,024
-176,227	289,936	0,053	0,069
-175,212	-200,000	-0,011	0,035
-174,198	-200,000	-0,025	0,094
-173,183	447,908	0,073	-0,117
-172,169	-76,672	0,089	0,022
-171,154	-30,980	-0,046	0,019
-170,139	-200,000	0,031	0,116
-169,125	107,079	0,111	0,095
-168,110	-200,000	0,027	-0,191
-167,096	800,000	-0,032	-0,096
-166,081	-62,211	0,020	-0,006
-165,066	406,543	-0,058	-0,088
-164,052	147,324	-0,053	-0,052
-163,037	-21,476	-0,101	0,044
-162,023	800,000	0,022	-0,057
-161,008	-200,000	0,024	0,128
-159,993	607,199	-0,046	0,083
-158,979	800,000	0,022	-0,050
-157,964	84,845	-0,136	-0,107
-156,950	800,000	-0,048	0,132
-155,935	-105,383	-0,027	0,004
-154,920	142,822	-0,072	-0,069
-153,906	-200,000	-0,005	-0,071
-152,891	265,772	0,077	-0,097
-151,877	-57,416	-0,185	-0,058
-150,862	75,143	-0,148	-0,112
-149,847	-58,589	-0,066	0,021
-148,833	-200,000	0,015	0,085
-147,818	800,000	-0,025	0,057
-146,804	-200,000	0,001	0,051
-145,789	-11,974	0,055	-0,026
-144,775	-200,000	-0,001	0,061
-143,760	-69,473	-0,114	0,031
-142,745	-200,000	-0,033	-0,120
-141,731	-59,037	-0,052	0,016
-140,716	-33,669	-0,064	-0,025
-139,702	-200,000	0,009	-0,062
-138,687	-135,604	-0,177	0,015
-137,672	110,382	-0,101	0,087
-136,658	599,032	-0,038	-0,069
-135,643	800,000	-0,039	-0,099
-134,629	167,882	-0,092	0,094
-133,614	119,673	0,095	0,084
-132,599	-6,336	-0,069	-0,034
-131,585	30,882	0,077	-0,047
-130,570	-200,000	-0,009	0,092
-129,556	800,000	0,037	-0,099
-128,541	99,328	-0,071	-0,059
-127,526	173,304	-0,056	0,059
-126,512	153,761	-0,081	0,080
-125,497	336,159	0,135	0,190
-124,483	800,000	-0,007	0,015
-123,468	351,002	-0,092	0,132
-122,453	800,000	-0,043	-0,101
-121,439	-200,000	-0,008	-0,089
-120,424	-13,074	-0,093	-0,043
-119,410	87,120	0,105	0,083
-118,395	-124,901	0,104	-0,011
-117,380	87,140	-0,123	0,098
-116,366	414,019	-0,040	0,062
-115,351	-128,257	-0,121	0,012
-114,337	-200,000	0,006	-0,050
-113,322	-200,000	0,002	0,084
-112,307	-88,481	-0,096	-0,020
-111,293	-79,385	0,089	-0,021
-110,278	289,331	0,032	-0,042
-109,264	253,532	-0,051	-0,063
-108,249	129,676	0,061	-0,056
-107,234	50,580	-0,072	0,049
-106,220	-200,000	0,005	0,120
-105,205	-3,315	-0,063	0,032
-104,191	-200,000	-0,014	0,212
-103,176	91,197	0,023	-0,019
-102,162	-86,271	-0,090	-0,020
-101,147	-120,074	-0,165	0,020
-100,132	-46,912	-0,089	-0,031
-99,118	-200,000	-0,007	-0,056
-98,103	-200,000	0,011	0,035
-97,089	800,000	-0,050	0,131
-96,074	137,488	0,086	0,081
-95,059	-200,000	0,008	0,029
-94,045	125,820	-0,140	-0,127
-93,030	360,595	0,031	0,045
-92,016	-149,090	-0,153	-0,009
-91,001	-140,689	-0,047	0,003
-89,986	92,799	0,031	-0,025
-88,972	-200,000	0,002	0,070
-87,957	-200,000	-0,001	0,149
-86,943	37,183	-0,086	-0,055
-85,928	488,275	-0,010	0,016
-84,913	-92,436	0,027	-0,005
-83,899	-17,523	0,059	0,027
-82,884	431,050	0,013	-0,021
-81,870	-124,787	-0,112	0,012
-80,855	-200,000	-0,019	-0,070
-79,840	424,143	-0,029	0,045
-78,826	-200,000	-0,029	-0,146
-77,811	-170,193	-0,032	-0,001
-76,797	-60,219	-0,098	0,030
-75,782	-200,000	-0,014	-0,095
-74,767	365,033	0,043	0,063
-73,753	800,000	-0,030	0,063
-72,738	273,693	0,026	0,033
-71,724	-200,000	-0,012	-0,053
-70,709	593,128	-0,030	-0,054
-69,694	800,000	-0,040	0,088
-68,680	94,642	-0,119	0,097
-67,665	355,848	-0,048	0,069
-66,651	800,000	-0,052	0,110
-65,636	635,754	-0,063	0,115
-64,622	2,059	-0,109	-0,056
-63,607	-21,320	-0,049	0,021
-62,592	-172,419	0,048	0,001
-61,578	81,724	-0,043	0,033
-60,563	-115,522	0,057	-0,008
-59,549	800,000	-0,069	0,139
-58,534	-0,771	-1,978	-1,003
-57,519	800,000	-0,283	-0,854
-56,505	-200,000	-1,309	-5,082
-55,490	8,849	0,823	0,444
-54,476	800,000	5,306	12,177
-53,461	-200,000	17,702	287,573
-52,446	800,000	729,022	2226,983
-51,432	537,095	1644,917	2814,520
-50,417	109,704	1635,235	1406,465
-49,403	75,718	1286,870	974,768
-48,388	31,897	1027,216	633,492
-47,373	20,140	988,989	571,168
-46,359	18,320	976,912	558,208
-45,344	15,424	972,859	546,397
-44,330	15,631	971,397	546,231
-43,315	15,140	969,433	543,504
-42,300	15,099	968,412	542,774
-41,286	15,145	967,500	542,391
-40,271	15,059	966,502	541,530
-39,257	15,098	965,499	541,074
-38,242	15,080	964,777	540,591
-37,227	15,070	963,825	540,001
-36,213	15,117	962,904	539,617
-35,198	15,069	962,015	538,943
-34,184	15,152	961,454	538,875
-33,169	15,092	960,375	538,055
-32,154	15,050	959,451	537,381
-31,140	15,075	958,541	536,930
-30,125	15,172	957,823	536,821
-29,111	15,146	956,811	536,147
-28,096	15,101	956,488	535,799
-27,082	15,151	955,547	535,414
-26,067	15,108	954,953	534,921
-25,052	15,106	954,045	534,383
-24,038	15,109	953,537	534,088
-23,023	15,051	952,879	533,511
-22,009	15,141	952,162	533,377
-20,994	15,135	951,552	532,996
-19,979	15,141	950,823	532,585
-18,965	15,111	950,314	532,184
-17,950	15,094	949,674	531,750
-16,936	15,078	949,083	531,345
-15,921	15,047	948,407	530,848
-14,906	15,017	947,600	530,280
-13,892	15,012	946,892	529,846
-12,877	14,963	946,309	529,342
-11,863	14,915	945,894	528,937
-10,848	14,984	945,123	528,705
-9,833	15,095	944,677	528,786
-8,819	15,071	943,973	528,296
-7,804	14,981	943,467	527,707
-6,790	15,015	942,847	527,448
-5,775	15,046	942,370	527,256
-4,760	15,033	941,787	526,868
-3,746	15,013	940,904	526,290
-2,731	14,872	940,177	525,417
-1,717	14,828	939,781	525,035
-0,702	14,802	939,133	524,569
0,313	14,630	938,496	524,465
1,327	18,019	936,129	533,762
2,342	27,163	792,940	476,304
3,356	23,833	458,412	270,251
4,371	-3,341	314,485	156,513
5,386	-7,574	296,382	143,204
6,400	-9,398	290,071	138,332
7,415	-10,102	287,826	136,557
8,429	-10,132	286,445	135,860
9,444	-10,044	285,288	135,384
10,459	-10,073	284,667	135,050
11,473	-10,117	283,991	134,674
12,488	-10,091	283,693	134,546
13,502	-10,224	283,202	134,173
14,517	-10,154	282,649	133,967
15,531	-10,098	282,175	133,783
16,546	-9,973	281,786	133,708
17,561	-10,029	281,316	133,419
18,575	-10,029	281,103	133,306
19,590	-10,112	280,647	132,998
20,604	-10,050	280,484	132,969
21,619	-10,073	280,100	132,753
22,634	-10,088	279,774	132,572
23,648	-10,019	279,367	132,434
24,663	-10,072	279,230	132,306
25,677	-10,087	278,840	132,095
26,692	-9,963	278,598	132,087
27,707	-9,993	278,311	131,910
28,721	-10,191	277,985	131,556
29,736	-10,036	277,728	131,570
30,750	-10,057	277,328	131,349
31,765	-10,245	277,087	131,045
32,780	-10,138	277,086	131,134
33,794	-10,119	276,717	130,966
34,809	-10,216	276,536	130,777
35,823	-10,198	276,244	130,644
36,838	-10,101	275,939	130,579
37,853	-10,127	275,680	130,420
38,867	-10,103	275,580	130,384
39,882	-10,104	275,302	130,240
40,896	-10,252	275,116	130,001
41,911	-10,380	274,826	129,732
42,926	-10,305	274,386	129,584
43,940	-10,241	274,270	129,578
44,955	-10,353	274,046	129,355
45,969	-10,335	273,925	129,303
46,984	-10,381	273,526	129,061
47,999	-10,569	273,260	128,749
49,013	-10,806	273,142	128,460
50,028	-10,598	272,599	128,387
51,042	-10,956	272,638	128,061
52,057	-10,825	272,176	127,955
53,071	-10,835	272,060	127,879
54,086	-10,793	271,876	127,820
55,101	-10,674	271,783	127,876
56,115	-10,432	271,653	128,027
57,130	-10,099	271,434	128,220
58,144	-10,097	271,209	128,104
59,159	-10,074	270,857	127,948
60,174	-10,084	270,641	127,825
61,188	-10,234	270,489	127,604
62,203	-9,986	270,300	127,732
63,217	-9,963	269,969	127,585
64,232	-10,077	269,898	127,435
65,247	-9,977	269,699	127,422
66,261	-10,185	269,379	127,069
67,276	-10,315	269,150	126,830
68,290	-10,300	268,822	126,678
69,305	-10,585	268,682	126,339
70,320	-10,318	268,416	126,447
71,334	-10,150	268,303	126,536
72,349	-9,775	267,946	126,699
73,363	-10,071	267,870	126,382
74,378	-9,927	267,557	126,354
75,393	-10,147	267,355	126,047
76,407	-9,898	267,164	126,172
77,422	-10,023	266,848	125,898
78,436	-10,081	266,774	125,800
79,451	-10,060	266,616	125,732
80,466	-10,125	266,350	125,537
81,480	-10,195	266,069	125,330
82,495	-10,129	265,838	125,270
83,509	-10,246	265,765	125,118
84,524	-10,153	265,490	125,062
85,539	-10,311	265,112	124,730
86,553	-10,462	264,949	124,507
87,568	-10,396	264,922	124,542
88,582	-10,167	264,467	124,523
89,597	-10,304	264,363	124,340
90,611	-10,150	264,174	124,378
91,626	-10,101	264,138	124,394
92,641	-10,169	264,085	124,297
93,655	-10,098	263,693	124,165
94,670	-10,181	263,371	123,928
95,684	-10,089	263,297	123,964
96,699	-10,313	263,153	123,686
97,714	-10,202	262,839	123,626
98,728	-10,196	262,587	123,502
99,743	-10,386	262,428	123,247
100,757	-10,372	262,148	123,117
101,772	-10,200	261,889	123,137
102,787	-10,121	261,589	123,055
103,801	-10,139	261,766	123,112
104,816	-10,095	261,524	123,025
105,830	-10,187	261,403	122,876
106,845	-9,786	260,959	123,011
107,860	-10,022	260,960	122,792
108,874	-10,070	260,619	122,577
109,889	-9,990	260,345	122,508
110,903	-10,083	260,277	122,384
111,918	-10,326	260,075	122,064
112,933	-10,137	259,973	122,172
113,947	-10,123	259,739	122,063
114,962	-10,062	259,493	121,990
115,976	-9,982	259,430	122,020
116,991	-10,008	259,074	121,819
118,006	-9,988	258,756	121,676
119,020	-10,127	258,833	121,580
120,035	-10,108	258,808	121,574
121,049	-9,850	258,413	121,603
122,064	-10,028	258,245	121,357
123,079	-9,943	257,960	121,287
124,093	-9,977	257,852	121,196
125,108	-10,015	257,597	121,032
126,122	-10,479	257,320	120,486
127,137	-10,536	256,994	120,274
128,151	-10,536	256,916	120,226
129,166	-10,229	256,853	120,453
130,181	-10,450	256,610	120,136
131,195	-10,430	256,489	120,086
132,210	-10,118	256,270	120,244
133,224	-10,086	256,120	120,191
134,239	-10,008	255,906	120,147
135,254	-9,980	255,739	120,082
136,268	-10,151	255,563	119,841
137,283	-10,399	255,183	119,438
138,297	-10,464	254,926	119,251
139,312	-10,392	254,701	119,197
140,327	-10,221	254,745	119,354
141,341	-9,915	254,606	119,542
142,356	-9,980	254,545	119,447
143,370	-9,905	254,303	119,387
144,385	-9,777	254,141	119,410
145,400	-9,868	253,815	119,168
146,414	-9,952	253,926	119,138
147,429	-9,912	253,540	118,980
148,443	-10,080	253,385	118,753
149,458	-9,849	253,252	118,878
150,473	-9,946	252,871	118,606
151,487	-9,876	252,683	118,566
152,502	-10,152	252,637	118,299
153,516	-9,885	252,406	118,408
154,531	-9,862	252,139	118,292
155,546	-9,992	251,927	118,071
156,560	-10,023	251,922	118,031
157,575	-9,777	251,567	118,064
158,589	-9,960	251,315	117,780
159,604	-9,977	251,252	117,725
160,619	-9,755	251,073	117,819
161,633	-9,835	250,944	117,680
162,648	-9,952	250,829	117,516
163,662	-9,962	250,778	117,473
164,677	-9,928	250,499	117,362
165,692	-9,813	250,348	117,378
166,706	-9,789	250,150	117,295
167,721	-9,722	249,856	117,203
168,735	-9,846	249,870	117,094
169,750	-9,885	249,680	116,962
170,764	-9,855	249,554	116,918
171,779	-9,635	249,331	116,987
172,794	-9,834	249,182	116,740
173,808	-9,839	248,881	116,585
174,823	-10,300	248,607	116,060
175,837	-10,519	248,551	115,839
176,852	-10,133	248,437	116,099
177,867	-9,998	248,337	116,155
178,881	-9,772	248,065	116,206
179,896	-9,618	247,959	116,275
180,910	-9,876	247,727	115,941
181,925	-9,845	247,582	115,888
182,940	-9,691	247,401	115,921
183,954	-9,760	247,309	115,811
184,969	-9,806	247,152	115,688
185,983	-9,720	246,943	115,652
186,998	-9,870	246,815	115,456
188,013	-9,805	246,518	115,362
189,027	-9,723	246,327	115,330
190,042	-9,802	246,132	115,162
191,056	-9,929	246,003	114,987
192,071	-9,805	245,971	115,065
193,086	-9,910	245,667	114,825
194,100	-9,758	245,573	114,897
195,115	-9,677	245,298	114,825
196,129	-9,859	245,209	114,623
197,144	-9,925	244,951	114,437
198,159	-9,895	244,829	114,395
199,173	-9,821	244,585	114,332
200,188	-9,959	244,437	114,139
201,202	-10,046	244,165	113,930
202,217	-10,176	243,733	113,612
203,232	-10,485	243,707	113,336
204,246	-10,059	243,812	113,724
205,261	-9,695	243,507	113,870
206,275	-10,675	243,274	112,949
207,290	-6,774	244,699	116,809
208,304	0,424	246,947	123,830
209,319	3,440	247,763	126,724
210,334	3,871	247,678	127,025
211,348	4,080	247,682	127,188
212,363	4,402	247,562	127,381
213,377	4,459	247,315	127,290
214,392	4,413	247,154	127,158
215,407	4,114	246,915	126,777
216,421	3,969	246,911	126,644
217,436	4,287	246,747	126,811
218,450	4,439	246,676	126,887
219,465	4,065	246,370	126,412
220,480	4,122	246,145	126,332
221,494	3,839	246,062	126,046
222,509	3,955	245,898	126,046
223,523	3,880	245,603	125,822
224,538	3,698	245,375	125,545
225,553	3,784	245,161	125,495
226,567	3,784	245,130	125,468
227,582	4,078	244,968	125,613
228,596	3,924	244,905	125,445
229,611	3,573	244,689	125,037
230,626	3,488	244,395	124,806
231,640	3,545	244,342	124,814
232,655	3,674	244,314	124,894
233,669	3,628	243,983	124,676
234,684	3,546	243,717	124,463
235,699	3,948	243,850	124,845
236,713	4,120	243,756	124,925
237,728	3,724	243,282	124,351
238,742	3,527	243,104	124,089
239,757	3,478	242,905	123,937
240,772	3,613	242,771	123,967
241,786	3,732	242,809	124,071
242,801	3,564	242,537	123,786
243,815	3,417	242,382	123,577
244,830	3,925	242,303	123,936
245,844	3,928	242,176	123,862
246,859	3,566	242,053	123,497
247,874	3,494	241,937	123,369
248,888	3,831	241,491	123,400
249,903	3,999	241,502	123,530
250,917	4,124	241,279	123,505
251,932	4,093	241,236	123,447
252,947	4,005	241,035	123,263
253,961	3,685	240,665	122,807
254,976	3,983	240,662	123,032
255,990	3,931	240,592	122,944
257,005	3,778	240,374	122,700
258,020	3,482	240,158	122,343
259,034	3,696	240,064	122,454
260,049	3,729	239,896	122,384
261,063	3,692	239,684	122,236
262,078	3,578	239,535	122,058
263,093	3,681	239,516	122,119
264,107	4,036	239,172	122,215
265,122	3,765	239,017	121,910
266,136	3,806	239,002	121,924
267,151	4,142	238,897	122,126
268,166	3,721	238,557	121,608
269,180	3,523	238,501	121,411
270,195	4,199	238,603	121,988
271,209	4,260	238,413	121,928
272,224	3,665	238,074	121,274
273,239	3,203	237,931	120,826
274,253	3,419	237,810	120,924
275,268	3,687	237,696	121,066
276,282	3,964	237,422	121,134
277,297	3,581	237,221	120,719
278,312	3,582	237,110	120,653
279,326	3,846	237,028	120,808
280,341	3,859	236,785	120,683
281,355	3,809	236,632	120,556
282,370	3,988	236,681	120,710
283,384	3,868	236,355	120,439
284,399	3,640	236,238	120,190
285,414	3,550	236,075	120,026
286,428	3,488	236,005	119,932
287,443	3,845	235,864	120,128
288,457	3,756	235,688	119,958
289,472	3,792	235,643	119,952
290,487	3,713	235,461	119,788
291,501	3,715	235,110	119,600
292,516	3,556	234,865	119,341
293,530	3,343	234,748	119,105
294,545	3,663	234,807	119,374
295,560	3,735	234,559	119,293
296,574	3,529	234,250	118,965
297,589	3,706	234,098	119,014
298,603	3,810	234,285	119,180
299,618	3,830	234,177	119,130
300,633	3,624	233,874	118,805
301,647	4,068	233,855	119,129
302,662	4,239	233,737	119,190
303,676	4,162	233,496	118,997
304,691	3,948	233,313	118,728
305,706	4,150	233,292	118,863
306,720	4,036	233,111	118,672
307,735	4,130	232,809	118,580
308,749	3,850	232,665	118,280
309,764	3,673	232,485	118,043
310,779	3,690	232,435	118,020
311,793	3,303	232,149	117,567
312,808	3,576	231,896	117,638
313,822	3,643	231,706	117,582
314,837	3,468	231,736	117,453
315,852	3,458	231,521	117,325
316,866	3,840	231,450	117,572
317,881	4,072	231,414	117,720
318,895	3,915	231,275	117,519
319,910	4,200	231,027	117,600
320,925	3,683	230,868	117,114
321,939	3,427	230,560	116,752
322,954	3,442	230,642	116,795
323,968	3,935	230,379	117,027
324,983	3,927	230,335	116,988
325,997	4,036	230,194	116,989
327,012	3,752	229,919	116,622
328,027	3,430	229,846	116,331
329,041	3,693	229,696	116,445
330,056	4,522	229,840	117,135
331,070	4,728	229,609	117,164
332,085	4,351	229,294	116,707
333,100	3,971	229,175	116,349
334,114	3,793	228,944	116,086
335,129	4,361	228,891	116,478
336,143	4,512	228,850	116,561
337,158	4,222	228,703	116,256
338,173	4,094	228,438	116,016
339,187	3,835	228,319	115,749
340,202	3,993	228,282	115,840
341,216	4,078	228,126	115,814
342,231	3,845	227,816	115,471
343,246	3,816	227,798	115,430
344,260	4,030	227,602	115,481
345,275	4,314	227,613	115,689
346,289	3,952	227,483	115,342
347,304	4,209	227,167	115,364
348,319	4,374	227,074	115,430
349,333	4,200	226,818	115,159
350,348	3,939	226,694	114,890
351,362	3,974	226,571	114,845
352,377	3,987	226,415	114,765
353,392	3,649	226,237	114,412
354,406	3,707	226,086	114,369
355,421	195,152	1321,880	1397,363
356,435	156,422	1455,367	1397,371
