DTS Sentinel unit serial number:	SN410029Multiplexer serial number:	ORYXHardware model number:	OX2-SRSoftware version number:	ORYX F/W v4,00 Oryx Data Collector v3.7.2.0data status	okinstallation	B5 Nyhavnadifferential loss correction	single-endedforward channel	channel 2reverse channel	N/Adate	2023/12/13time	12:12:13forward acquisition time	300,00reverse acquisition time	0,00gamma	499,1914k internal	0,3161k external	0,3161temperature offset calibration	1,0000default loss term (dB/km)	0,3820temperature slope calibration	1,0000multiplexer offset coefficient	1,0000multiplexer slope coefficient	1,0000fibre end	0,00T internal ref (°C)	14,02T ext. ref 1 (°C)	-1,85T ext. ref 2 (°C)	-2,15length (m)	temperature (°C)	Stokes	anti-Stokes-744,400	800,000	-0,028	0,076
-743,385	-143,097	-0,438	-0,031
-742,371	-73,635	0,188	-0,050
-741,356	-138,660	-0,425	-0,034
-740,342	7,710	0,116	0,064
-739,327	-145,547	-0,357	0,023
-738,312	49,978	0,164	-0,114
-737,298	-157,101	-0,371	0,016
-736,283	-4,132	0,139	-0,070
-735,269	-176,981	-0,345	-0,006
-734,254	-117,697	0,071	-0,009
-733,239	65,550	-0,464	-0,346
-732,225	65,677	0,150	-0,112
-731,210	415,783	-0,067	0,105
-730,196	-24,383	-0,030	-0,013
-729,181	-200,000	-0,002	-0,112
-728,167	800,000	-0,031	0,093
-727,152	-112,839	-0,073	0,010
-726,137	-200,000	-0,005	-0,056
-725,123	-200,000	0,001	-0,109
-724,108	-200,000	-0,024	-0,172
-723,094	243,794	-0,137	-0,170
-722,079	-200,000	-0,035	-0,116
-721,064	-200,000	0,031	-0,108
-720,050	-200,000	-0,014	0,072
-719,035	434,772	0,047	0,076
-718,021	-150,280	-0,120	0,007
-717,006	-73,995	-0,072	-0,019
-715,991	800,000	-0,060	-0,177
-714,977	131,963	-0,023	-0,021
-713,962	61,951	-0,018	-0,013
-712,948	-112,519	0,045	0,007
-711,933	-85,729	-0,086	0,020
-710,918	-200,000	0,030	-0,210
-709,904	511,638	0,039	-0,068
-708,889	-200,000	-0,033	-0,132
-707,875	331,759	-0,048	0,068
-706,860	-99,318	0,111	0,020
-705,845	-200,000	-0,004	-0,034
-704,831	589,333	0,015	-0,028
-703,816	-75,860	-0,199	-0,051
-702,802	-200,000	-0,029	-0,148
-701,787	331,781	-0,106	-0,151
-700,772	-200,000	0,006	0,101
-699,758	800,000	0,070	-0,212
-698,743	-200,000	-0,024	0,080
-697,729	-35,208	-0,027	-0,011
-696,714	-17,435	-0,068	-0,031
-695,699	-200,000	-0,034	-0,122
-694,685	800,000	-0,059	-0,147
-693,670	-33,991	-0,093	0,038
-692,656	69,005	-0,054	-0,040
-691,641	386,668	0,116	-0,176
-690,627	-200,000	0,005	-0,073
-689,612	403,365	-0,056	0,086
-688,597	198,795	-0,120	-0,135
-687,583	-73,828	-0,132	0,035
-686,568	-200,000	-0,028	-0,149
-685,554	87,935	-0,122	-0,099
-684,539	35,079	-0,054	0,034
-683,524	-90,214	0,061	0,013
-682,510	-200,000	-0,005	0,078
-681,495	-200,000	0,014	0,121
-680,481	-129,850	-0,062	0,006
-679,466	-118,996	0,073	0,009
-678,451	-2,449	0,027	-0,014
-677,437	-200,000	0,028	0,146
-676,422	56,931	0,044	-0,031
-675,408	-172,710	-0,069	0,002
-674,393	800,000	-0,037	0,087
-673,378	201,447	-0,078	0,089
-672,364	594,346	-0,075	-0,136
-671,349	-200,000	0,011	0,108
-670,335	-95,645	0,094	-0,018
-669,320	-59,495	-0,054	0,017
-668,305	-54,854	0,052	0,017
-667,291	346,127	0,026	-0,038
-666,276	50,722	-0,061	0,043
-665,262	-197,745	-0,132	0,001
-664,247	126,181	0,030	0,028
-663,232	800,000	-0,020	-0,044
-662,218	11,817	0,083	0,047
-661,203	121,462	0,044	-0,040
-660,189	-48,625	0,034	-0,012
-659,174	18,398	0,020	-0,012
-658,159	90,487	-0,118	0,097
-657,145	-200,000	-0,025	-0,162
-656,130	48,376	0,106	0,073
-655,116	-200,000	-0,024	-0,106
-654,101	-126,195	-0,042	-0,005
-653,086	-128,926	-0,058	-0,006
-652,072	381,983	0,045	-0,069
-651,057	-167,100	0,086	0,003
-650,043	20,479	-0,026	0,015
-649,028	-124,434	0,130	0,015
-648,014	800,000	-0,008	-0,025
-646,999	708,840	-0,053	0,104
-645,984	393,840	-0,044	0,068
-644,970	-200,000	0,012	-0,049
-643,955	360,453	-0,151	-0,222
-642,941	232,033	0,025	0,030
-641,926	664,850	0,030	0,057
-640,911	161,248	0,062	0,064
-639,897	-200,000	0,008	-0,035
-638,882	162,410	-0,157	-0,162
-637,868	8,894	0,046	-0,025
-636,853	84,146	-0,112	-0,090
-635,838	-200,000	0,029	-0,100
-634,824	-33,660	0,049	-0,020
-633,809	800,000	0,023	-0,065
-632,795	-14,970	0,028	0,013
-631,780	694,370	-0,047	0,092
-630,765	-15,270	-0,155	0,072
-629,751	-200,000	-0,039	-0,233
-628,736	800,000	0,045	-0,100
-627,722	-41,920	-0,026	0,010
-626,707	-200,000	-0,021	-0,078
-625,692	800,000	0,047	-0,113
-624,678	-200,000	-0,027	0,099
-623,663	130,152	-0,088	0,082
-622,649	-200,000	0,004	-0,094
-621,634	242,574	0,028	-0,034
-620,619	-147,399	0,103	0,006
-619,605	192,133	-0,051	0,056
-618,590	316,859	0,057	-0,079
-617,576	-200,000	0,003	-0,027
-616,561	4,795	-0,078	0,042
-615,546	-200,000	-0,032	0,145
-614,532	-98,171	0,096	0,018
-613,517	162,002	0,011	-0,011
-612,503	-200,000	-0,026	0,091
-611,488	-64,316	-0,123	-0,036
-610,474	800,000	-0,059	0,126
-609,459	88,369	-0,022	0,018
-608,444	46,025	-0,029	0,019
-607,430	180,434	-0,038	-0,041
-606,415	-200,000	0,007	-0,028
-605,401	-145,708	-0,074	0,005
-604,386	800,000	-0,046	-0,094
-603,371	43,938	0,046	0,031
-602,357	280,789	-0,024	-0,031
-601,342	-187,036	-0,097	-0,001
-600,328	404,453	-0,018	-0,028
-599,313	419,137	-0,030	-0,047
-598,298	432,689	0,064	0,102
-597,284	-200,000	0,002	0,046
-596,269	41,168	0,078	0,052
-595,255	-200,000	0,018	-0,068
-594,240	-135,955	0,067	-0,006
-593,225	-200,000	-0,004	-0,112
-592,211	194,343	-0,130	-0,144
-591,196	-121,883	-0,137	0,016
-590,182	-200,000	-0,010	0,094
-589,167	48,266	0,091	-0,062
-588,152	-200,000	-0,029	-0,111
-587,138	648,648	0,005	-0,009
-586,123	251,495	-0,032	-0,040
-585,109	-39,027	-0,060	-0,023
-584,094	58,611	-0,081	0,058
-583,079	-66,245	0,094	-0,027
-582,065	-58,866	0,042	-0,013
-581,050	-140,158	-0,074	-0,006
-580,036	127,179	0,084	0,078
-579,021	198,471	-0,140	-0,157
-578,006	-113,801	0,086	-0,012
-576,992	-200,000	0,009	0,106
-575,977	800,000	-0,074	-0,165
-574,963	91,875	0,049	0,041
-573,948	800,000	-0,044	0,123
-572,934	-101,142	0,052	-0,009
-571,919	291,262	-0,061	-0,082
-570,904	29,485	-0,022	0,014
-569,890	54,760	-0,152	-0,107
-568,875	-24,385	0,027	-0,012
-567,861	-200,000	0,024	-0,090
-566,846	38,698	0,139	0,091
-565,831	124,384	-0,031	-0,029
-564,817	800,000	-0,040	-0,087
-563,802	-94,999	-0,023	-0,005
-562,788	491,388	0,059	0,099
-561,773	249,232	-0,013	0,016
-560,758	197,179	0,078	0,087
-559,744	-200,000	-0,010	0,089
-558,729	800,000	-0,017	-0,053
-557,715	-172,843	-0,163	-0,004
-556,700	800,000	-0,055	-0,167
-555,685	86,470	0,047	-0,038
-554,671	800,000	0,009	-0,020
-553,656	10,001	0,088	0,049
-552,642	-184,449	0,148	-0,002
-551,627	-72,369	-0,034	0,009
-550,612	-7,448	-0,040	-0,020
-549,598	-13,493	-0,082	-0,039
-548,583	-148,803	0,163	0,010
-547,569	73,863	-0,089	-0,068
-546,554	185,298	-0,065	-0,071
-545,539	76,333	0,029	0,022
-544,525	194,322	0,070	0,078
-543,510	-200,000	0,007	-0,117
-542,496	-200,000	-0,009	-0,119
-541,481	-66,183	-0,054	-0,016
-540,466	-42,413	0,039	0,014
-539,452	-200,000	-0,030	0,138
-538,437	-9,564	0,188	0,091
-537,423	-200,000	-0,003	0,057
-536,408	-121,300	0,048	0,006
-535,393	-2,022	0,034	-0,017
-534,379	-84,524	-0,160	-0,037
-533,364	-137,180	0,131	-0,011
-532,350	800,000	-0,013	-0,030
-531,335	-40,960	0,039	0,015
-530,321	-200,000	0,021	0,096
-529,306	-200,000	-0,013	0,088
-528,291	-200,000	-0,016	-0,055
-527,277	800,000	-0,056	0,119
-526,262	70,802	-0,128	0,097
-525,248	-80,724	-0,164	0,040
-524,233	5,406	0,057	0,031
-523,218	-19,239	-0,057	-0,026
-522,204	-200,000	0,013	0,048
-521,189	524,495	-0,043	-0,074
-520,175	-200,000	-0,003	-0,013
-519,160	15,522	0,017	0,010
-518,145	68,782	-0,039	0,029
-517,131	-71,120	0,102	-0,028
-516,116	-116,497	-0,135	0,018
-515,102	502,393	0,030	-0,052
-514,087	800,000	-0,017	0,040
-513,072	-200,000	0,008	-0,081
-512,058	623,794	-0,022	-0,040
-511,043	-139,749	0,051	0,004
-510,029	800,000	-0,015	-0,041
-509,014	123,201	0,199	0,182
-507,999	-145,025	-0,197	0,013
-506,985	-101,078	-0,067	0,012
-505,970	-102,390	0,055	-0,010
-504,956	800,000	-0,026	-0,068
-503,941	128,065	-0,063	-0,059
-502,926	-199,343	0,096	0,000
-501,912	58,747	-0,098	0,070
-500,897	-200,000	-0,007	0,095
-499,883	-200,000	0,004	0,036
-498,868	-68,786	-0,085	0,024
-497,853	373,655	-0,067	0,100
-496,839	193,114	-0,078	0,087
-495,824	-4,556	0,068	-0,034
-494,810	-200,000	-0,017	0,064
-493,795	89,414	0,047	-0,039
-492,781	32,710	-0,077	0,049
-491,766	51,482	-0,066	-0,045
-490,751	-200,000	-0,026	0,096
-489,737	-143,867	0,105	-0,007
-488,722	-160,745	0,062	-0,002
-487,708	-200,000	0,008	0,073
-486,693	135,981	0,104	0,099
-485,678	-123,920	0,107	0,012
-484,664	-154,206	-0,115	-0,006
-483,649	-200,000	-0,007	-0,110
-482,635	800,000	-0,044	-0,092
-481,620	-104,244	-0,123	0,021
-480,605	-200,000	0,002	-0,104
-479,591	800,000	-0,018	-0,045
-478,576	-200,000	0,009	0,055
-477,562	84,981	-0,057	-0,046
-476,547	-158,349	-0,132	-0,005
-475,532	800,000	0,025	-0,071
-474,518	31,368	0,037	-0,023
-473,503	729,380	-0,038	0,074
-472,489	-156,244	0,194	-0,009
-471,474	34,700	-0,097	0,062
-470,459	-107,760	0,072	0,011
-469,445	-11,777	-0,028	-0,013
-468,430	-81,791	-0,027	-0,006
-467,416	431,077	-0,060	-0,096
-466,401	-200,000	-0,011	0,038
-465,386	239,417	0,114	0,139
-464,372	610,730	-0,024	0,044
-463,357	-60,789	0,123	-0,038
-462,343	-16,948	0,138	0,063
-461,328	165,955	0,119	0,123
-460,313	-105,400	-0,106	-0,017
-459,299	-200,000	0,007	0,230
-458,284	-178,844	0,098	-0,002
-457,270	800,000	0,058	0,138
-456,255	414,851	-0,041	0,064
-455,241	-200,000	0,029	0,095
-454,226	-200,000	0,038	0,123
-453,211	-200,000	-0,009	0,094
-452,197	-200,000	0,003	0,166
-451,182	212,899	-0,096	0,110
-450,168	76,813	0,099	0,076
-449,153	179,429	-0,073	0,078
-448,138	149,787	-0,087	-0,086
-447,124	40,932	-0,121	-0,079
-446,109	-200,000	-0,003	0,012
-445,095	-47,663	-0,187	-0,066
-444,080	-51,373	0,134	-0,045
-443,065	94,553	0,048	-0,040
-442,051	-2,439	0,034	-0,017
-441,036	109,798	0,069	-0,060
-440,022	4,266	-0,089	-0,047
-439,007	-110,029	0,022	0,003
-437,992	-200,000	-0,011	0,123
-436,978	611,675	-0,084	0,153
-435,963	-200,000	0,010	0,137
-434,949	125,563	-0,038	0,035
-433,934	1,490	-0,049	-0,025
-432,919	199,898	0,056	0,062
-431,905	-200,000	-0,005	0,144
-430,890	657,514	0,023	0,044
-429,876	-200,000	-0,008	0,047
-428,861	-13,273	0,082	0,039
-427,846	800,000	-0,008	-0,026
-426,832	397,342	-0,065	0,099
-425,817	-129,945	-0,138	0,014
-424,803	-200,000	-0,005	-0,043
-423,788	-200,000	0,012	0,050
-422,773	-200,000	0,009	0,104
-421,759	800,000	-0,010	0,027
-420,744	-200,000	-0,013	-0,135
-419,730	800,000	-0,004	-0,009
-418,715	800,000	-0,015	-0,047
-417,701	148,045	0,049	-0,048
-416,686	80,135	-0,068	-0,053
-415,671	-53,735	0,046	0,015
-414,657	-15,781	-0,060	0,028
-413,642	-200,000	0,013	0,059
-412,628	-200,000	0,020	-0,168
-411,613	245,692	-0,119	-0,146
-410,598	-68,765	-0,176	-0,049
-409,584	-6,008	0,089	-0,044
-408,569	-81,096	0,061	-0,014
-407,555	568,607	-0,051	0,090
-406,540	692,576	-0,066	0,126
-405,525	302,591	-0,052	-0,070
-404,511	65,877	-0,047	-0,034
-403,496	-200,000	-0,010	-0,077
-402,482	800,000	0,015	0,034
-401,467	64,575	0,109	-0,080
-400,452	800,000	0,025	0,056
-399,438	79,801	-0,114	0,089
-398,423	-102,477	-0,052	0,009
-397,409	169,731	0,007	-0,007
-396,394	-100,836	0,147	0,026
-395,379	-200,000	-0,030	0,114
-394,365	-115,844	0,045	0,006
-393,350	266,684	0,035	0,044
-392,336	335,043	-0,078	0,110
-391,321	800,000	0,021	0,067
-390,306	-84,880	0,060	0,014
-389,292	-200,000	-0,017	0,102
-388,277	-27,641	0,066	-0,028
-387,263	61,512	-0,078	-0,057
-386,248	40,581	-0,120	-0,078
-385,233	70,586	-0,103	0,077
-384,219	-180,704	0,046	0,001
-383,204	800,000	0,030	-0,079
-382,190	245,615	-0,029	-0,035
-381,175	101,069	0,059	-0,050
-380,160	-200,000	0,031	0,170
-379,146	276,553	-0,032	0,041
-378,131	-200,000	0,015	0,137
-377,117	-44,272	0,020	0,007
-376,102	693,256	0,031	-0,060
-375,088	112,254	0,023	-0,020
-374,073	699,341	0,052	0,099
-373,058	127,779	-0,094	-0,087
-372,044	800,000	0,050	0,129
-371,029	-100,140	-0,027	-0,005
-370,015	452,884	-0,006	-0,010
-369,000	-200,000	0,020	0,073
-367,985	-200,000	-0,001	0,041
-366,971	-200,000	0,013	-0,074
-365,956	-200,000	-0,017	0,090
-364,942	53,158	0,157	0,109
-363,927	-200,000	0,001	0,050
-362,912	-200,000	0,000	-0,158
-361,898	-14,861	0,210	-0,098
-360,883	413,201	-0,124	-0,192
-359,869	-200,000	-0,011	-0,128
-358,854	-27,943	0,107	-0,045
-357,839	-66,964	-0,124	0,035
-356,825	-157,095	0,054	-0,002
-355,810	800,000	-0,027	-0,068
-354,796	575,416	-0,106	-0,188
-353,781	-200,000	0,020	-0,259
-352,766	97,708	0,073	-0,061
-351,752	-105,260	0,098	-0,016
-350,737	237,549	-0,056	0,067
-349,723	302,492	-0,046	-0,061
-348,708	677,175	-0,014	0,026
-347,693	117,490	-0,058	0,052
-346,679	-200,000	-0,005	-0,160
-345,664	76,314	0,097	0,074
-344,650	223,887	0,008	0,010
-343,635	-200,000	0,015	-0,071
-342,620	339,134	0,050	0,071
-341,606	-200,000	-0,004	0,044
-340,591	800,000	0,035	-0,101
-339,577	70,064	0,063	-0,047
-338,562	14,037	-0,068	-0,039
-337,548	800,000	0,032	-0,093
-336,533	-100,949	0,185	-0,033
-335,518	22,948	0,064	-0,038
-334,504	800,000	-0,021	0,047
-333,489	-90,829	-0,017	-0,003
-332,475	377,842	-0,047	0,070
-331,460	800,000	0,044	-0,102
-330,445	1,421	0,132	-0,068
-329,431	186,679	0,136	0,147
-328,416	-169,467	0,049	-0,001
-327,402	800,000	-0,044	-0,106
-326,387	-82,066	-0,055	-0,013
-325,372	-52,436	-0,105	-0,035
-324,358	306,656	0,033	-0,045
-323,343	-48,418	0,115	-0,040
-322,329	271,460	-0,098	0,125
-321,314	-200,000	0,012	0,053
-320,299	-29,420	0,087	-0,036
-319,285	742,157	-0,026	0,051
-318,270	414,296	0,016	0,025
-317,256	-104,702	-0,091	-0,015
-316,241	129,084	-0,079	0,073
-315,226	-200,000	0,010	0,208
-314,212	783,852	0,064	-0,127
-313,197	-200,000	-0,017	-0,085
-312,183	-159,299	-0,047	0,002
-311,168	800,000	0,017	0,045
-310,153	662,368	-0,064	-0,120
-309,139	33,762	0,111	-0,070
-308,124	353,070	-0,007	0,010
-307,110	-22,416	0,019	0,008
-306,095	117,581	-0,096	0,085
-305,080	800,000	-0,040	-0,082
-304,066	234,716	0,041	-0,048
-303,051	-63,150	-0,091	-0,027
-302,037	-101,295	0,085	0,015
-301,022	357,825	0,084	-0,122
-300,008	-65,413	0,133	0,039
-298,993	-200,000	0,000	-0,049
-297,978	355,649	-0,044	0,063
-296,964	-200,000	0,025	0,112
-295,949	249,180	0,022	0,027
-294,935	45,543	-0,064	-0,043
-293,920	-200,000	-0,018	-0,090
-292,905	132,276	0,121	-0,113
-291,891	-86,555	0,087	0,019
-290,876	-60,682	0,114	0,035
-289,862	-42,778	-0,061	0,022
-288,847	411,239	-0,035	-0,054
-287,832	-200,000	-0,025	-0,112
-286,818	384,977	0,022	-0,033
-285,803	800,000	-0,050	-0,113
-284,789	52,931	0,055	-0,038
-283,774	-142,445	0,081	0,006
-282,759	376,078	0,076	-0,112
-281,745	527,177	0,021	-0,036
-280,730	-78,994	-0,085	-0,021
-279,716	193,383	-0,095	0,104
-278,701	800,000	0,031	0,079
-277,686	-7,379	0,143	0,070
-276,672	-28,728	-0,109	-0,045
-275,657	737,102	0,082	-0,160
-274,643	-34,371	-0,070	-0,028
-273,628	-200,000	-0,002	-0,025
-272,613	84,636	-0,084	-0,067
-271,599	-74,610	0,072	0,018
-270,584	25,362	0,122	0,073
-269,570	160,688	0,066	0,067
-268,555	-94,758	0,102	0,020
-267,540	84,353	-0,008	-0,007
-266,526	-139,451	-0,062	-0,005
-265,511	-103,713	-0,150	-0,025
-264,497	89,967	0,068	0,055
-263,482	285,498	0,047	0,061
-262,467	-200,000	-0,023	0,111
-261,453	62,859	-0,088	-0,064
-260,438	-200,000	0,016	-0,128
-259,424	-20,234	-0,122	0,054
-258,409	-200,000	0,001	0,028
-257,395	4,002	-0,078	0,041
-256,380	-31,967	0,049	-0,020
-255,365	120,552	0,068	0,061
-254,351	-105,050	0,112	0,018
-253,336	-200,000	-0,021	-0,165
-252,322	-200,000	0,010	-0,080
-251,307	-200,000	0,013	0,052
-250,292	-147,527	0,041	-0,002
-249,278	800,000	-0,049	0,102
-248,263	-200,000	-0,003	0,074
-247,249	107,511	0,065	-0,056
-246,234	506,889	-0,068	0,114
-245,219	800,000	-0,046	0,092
-244,205	14,492	0,046	0,026
-243,190	-125,782	-0,045	-0,005
-242,176	-200,000	0,084	0,000
-241,161	800,000	0,021	0,057
-240,146	-200,000	-0,007	0,078
-239,132	-68,642	0,054	0,015
-238,117	-200,000	0,012	-0,084
-237,103	81,858	-0,029	-0,022
-236,088	186,952	-0,087	0,094
-235,073	-107,525	0,094	-0,015
-234,059	800,000	0,055	-0,148
-233,044	68,469	-0,102	0,075
-232,030	800,000	0,021	-0,053
-231,015	-200,000	0,021	0,116
-230,000	58,441	-0,075	-0,053
-228,986	-200,000	0,025	-0,110
-227,971	-20,707	0,035	-0,016
-226,957	-56,732	0,052	-0,016
-225,942	-200,000	-0,027	0,105
-224,927	800,000	-0,016	-0,032
-223,913	-67,688	0,131	-0,037
-222,898	-200,000	-0,006	-0,066
-221,884	-200,000	0,022	-0,126
-220,869	-145,314	-0,056	0,004
-219,855	-33,062	0,096	0,038
-218,840	-200,000	-0,015	-0,099
-217,825	362,036	-0,059	-0,086
-216,811	800,000	-0,005	-0,013
-215,796	221,529	0,100	-0,116
-214,782	374,715	0,029	0,042
-213,767	-49,582	-0,121	0,041
-212,752	613,871	0,038	0,070
-211,738	-105,656	0,117	0,019
-210,723	800,000	0,013	0,038
-209,709	155,125	0,059	0,059
-208,694	-87,924	-0,162	-0,035
-207,679	-87,013	-0,099	0,022
-206,665	-27,175	0,107	-0,045
-205,650	-56,788	-0,133	0,042
-204,636	566,927	0,022	0,039
-203,621	-200,000	0,019	0,072
-202,606	248,376	0,048	-0,058
-201,592	-200,000	-0,001	-0,028
-200,577	-84,740	-0,119	-0,027
-199,563	24,085	0,137	0,081
-198,548	-142,253	-0,052	-0,004
-197,533	-19,593	0,156	0,069
-196,519	27,757	-0,033	-0,020
-195,504	-104,488	0,063	-0,010
-194,490	15,770	-0,053	0,030
-193,475	173,116	-0,073	-0,076
-192,460	-32,111	0,079	-0,032
-191,446	-154,505	0,043	-0,002
-190,431	-142,630	0,239	-0,017
-189,417	730,414	0,048	0,093
-188,402	-82,139	0,095	0,022
-187,387	-43,833	-0,190	-0,068
-186,373	155,489	0,103	0,102
-185,358	-200,000	0,016	-0,081
-184,344	-200,000	-0,009	-0,096
-183,329	321,287	0,022	0,031
-182,315	-135,907	0,209	0,018
-181,300	800,000	-0,064	0,133
-180,285	244,465	0,091	-0,110
-179,271	549,965	-0,053	-0,092
-178,256	32,499	0,072	0,044
-177,242	-200,000	0,019	0,099
-176,227	800,000	0,038	0,087
-175,212	-23,443	-0,080	0,034
-174,198	-109,154	-0,102	-0,015
-173,183	-200,000	0,022	-0,099
-172,169	289,259	-0,107	-0,139
-171,154	296,463	-0,052	-0,068
-170,139	-84,342	0,137	-0,031
-169,125	720,930	-0,022	0,043
-168,110	507,096	-0,031	0,052
-167,096	-200,000	0,027	0,125
-166,081	800,000	0,007	-0,018
-165,066	246,245	-0,107	-0,130
-164,052	-198,001	-0,201	-0,001
-163,037	220,718	0,042	0,049
-162,023	-200,000	0,002	0,077
-161,008	137,006	-0,113	0,106
-159,993	800,000	-0,016	-0,042
-158,979	758,773	-0,045	-0,088
-157,964	-200,000	-0,141	0,000
-156,950	-157,935	0,031	-0,001
-155,935	-15,466	0,116	-0,053
-154,920	-200,000	0,008	0,059
-153,906	-90,447	0,039	0,008
-152,891	-79,190	0,100	0,024
-151,877	146,628	0,069	0,067
-150,862	0,180	-0,079	-0,040
-149,847	222,024	0,017	-0,019
-148,833	800,000	0,064	-0,154
-147,818	-32,348	0,050	0,020
-146,804	-46,272	0,158	0,056
-145,789	-117,163	0,104	0,013
-144,775	6,558	-0,081	-0,043
-143,760	233,888	-0,040	-0,047
-142,745	-81,845	0,024	0,006
-141,731	451,315	0,030	0,048
-140,716	-200,000	-0,008	0,155
-139,702	-82,123	-0,102	-0,024
-138,687	266,883	-0,076	0,096
-137,672	106,370	-0,095	0,081
-136,658	38,254	0,058	-0,037
-135,643	-200,000	-0,002	-0,074
-134,629	2,080	0,051	-0,026
-133,614	-200,000	0,010	-0,087
-132,599	800,000	-0,009	0,023
-131,585	47,518	0,052	-0,035
-130,570	800,000	-0,032	0,070
-129,556	-200,000	0,033	0,133
-128,541	-64,435	-0,057	0,017
-127,526	-98,648	0,129	0,023
-126,512	113,904	0,092	-0,080
-125,497	99,785	-0,146	0,121
-124,483	800,000	-0,068	0,142
-123,468	3,168	-0,020	0,010
-122,453	-86,610	-0,062	0,014
-121,439	-128,370	-0,048	-0,005
-120,424	328,158	0,054	0,074
-119,410	-64,544	-0,060	0,018
-118,395	-200,000	0,024	-0,085
-117,380	762,824	0,026	-0,050
-116,366	-200,000	0,008	0,029
-115,351	58,118	-0,061	-0,043
-114,337	566,691	0,020	0,035
-113,322	-200,000	-0,001	0,089
-112,307	-200,000	-0,003	-0,021
-111,293	-200,000	0,017	0,087
-110,278	73,487	-0,143	-0,108
-109,264	-62,753	0,130	0,039
-108,249	245,327	-0,050	0,060
-107,234	-10,724	-0,116	-0,055
-106,220	-48,941	0,103	-0,035
-105,205	122,464	0,012	-0,011
-104,191	300,207	-0,078	0,103
-103,176	133,967	0,102	0,095
-102,162	-200,000	0,016	0,068
-101,147	-159,473	-0,131	-0,005
-100,132	-56,559	-0,124	-0,039
-99,118	800,000	-0,018	-0,039
-98,103	-62,830	0,046	-0,014
-97,089	-152,870	-0,120	-0,006
-96,074	800,000	0,009	-0,026
-95,059	-200,000	-0,005	-0,043
-94,045	-154,527	0,034	-0,002
-93,030	190,958	0,058	-0,063
-92,016	32,586	-0,063	-0,039
-91,001	569,085	0,096	0,168
-89,986	-200,000	-0,008	-0,049
-88,972	32,244	0,148	-0,091
-87,957	318,168	0,062	0,084
-86,943	-200,000	-0,046	0,172
-85,928	-200,000	-0,000	-0,088
-84,913	265,958	0,015	-0,019
-83,899	800,000	-0,021	-0,053
-82,884	-79,439	-0,050	-0,012
-81,870	750,317	0,064	0,124
-80,855	483,857	0,037	-0,060
-79,840	-200,000	0,004	-0,051
-78,826	-179,551	-0,051	0,001
-77,811	-57,872	-0,144	0,045
-76,797	-138,032	0,107	0,008
-75,782	-200,000	-0,022	0,104
-74,767	800,000	0,014	0,033
-73,753	-200,000	0,000	0,029
-72,738	-200,000	0,011	-0,038
-71,724	164,018	0,066	-0,067
-70,709	192,319	-0,012	0,013
-69,694	652,656	0,001	-0,002
-68,680	80,725	0,096	-0,074
-67,665	-200,000	0,006	-0,066
-66,651	405,578	-0,051	-0,078
-65,636	5,979	-0,144	-0,076
-64,622	-94,205	0,121	-0,024
-63,607	-121,148	-0,080	0,010
-62,592	-200,000	-0,042	-0,216
-61,578	27,362	0,032	-0,019
-60,563	-61,647	0,081	0,024
-59,549	749,362	0,023	0,045
-58,534	5,922	-2,108	-1,115
-57,519	-200,000	-0,131	-0,813
-56,505	-200,000	-1,205	-4,988
-55,490	128,582	0,907	0,829
-54,476	800,000	5,346	11,962
-53,461	-200,000	18,579	309,053
-52,446	800,000	739,127	2307,240
-51,432	553,533	1655,282	2863,924
-50,417	110,489	1639,801	1412,563
-49,403	74,573	1289,736	971,249
-48,388	30,481	1030,483	629,962
-47,373	20,052	992,794	572,425
-46,359	17,742	980,474	557,707
-45,344	14,362	976,698	544,444
-44,330	14,716	974,970	544,621
-43,315	14,098	973,150	541,557
-42,300	14,082	972,075	540,886
-41,286	14,092	971,242	540,433
-40,271	14,041	970,363	539,757
-39,257	14,080	969,317	539,281
-38,242	14,050	968,633	538,781
-37,227	14,054	967,678	538,242
-36,213	14,046	966,694	537,647
-35,198	14,008	965,870	537,042
-34,184	14,100	965,105	536,895
-33,169	13,988	964,320	536,074
-32,154	14,044	963,356	535,699
-31,140	14,107	962,266	535,276
-30,125	14,029	961,622	534,643
-29,111	14,022	960,847	534,166
-28,096	14,042	960,156	533,826
-27,082	14,037	959,503	533,426
-26,067	14,122	958,458	533,099
-25,052	14,045	958,092	532,626
-24,038	14,063	957,113	532,120
-23,023	14,006	956,703	531,686
-22,009	14,054	956,026	531,443
-20,994	14,072	955,550	531,215
-19,979	14,042	954,735	530,644
-18,965	14,046	954,089	530,278
-17,950	14,138	953,426	530,182
-16,936	14,018	953,017	529,551
-15,921	13,980	952,231	528,971
-14,906	13,892	951,434	528,226
-13,892	13,869	950,891	527,830
-12,877	13,877	950,302	527,505
-11,863	13,925	949,600	527,250
-10,848	13,959	948,989	526,998
-9,833	14,044	948,473	526,961
-8,819	14,007	947,912	526,512
-7,804	13,963	947,296	526,008
-6,790	13,956	946,714	525,642
-5,775	13,999	946,018	525,370
-4,760	13,958	945,548	524,957
-3,746	13,939	944,935	524,538
-2,731	13,811	944,306	523,762
-1,717	13,771	943,624	523,235
-0,702	13,697	942,980	522,622
0,313	13,556	942,319	522,598
1,327	16,933	939,945	531,909
2,342	26,110	795,448	474,487
3,356	22,821	460,443	269,588
4,371	-4,058	317,273	156,946
5,386	-8,029	299,225	143,950
6,400	-9,949	293,215	139,122
7,415	-10,362	290,683	137,497
8,429	-10,611	288,988	136,438
9,444	-10,842	288,185	135,819
10,459	-10,751	287,478	135,563
11,473	-10,837	286,883	135,186
12,488	-10,800	286,437	135,000
13,502	-10,828	285,881	134,698
14,517	-10,690	285,275	134,536
15,531	-10,869	285,018	134,228
16,546	-10,946	284,440	133,868
17,561	-10,940	284,095	133,701
18,575	-11,028	283,782	133,456
19,590	-10,973	283,266	133,255
20,604	-10,992	283,098	133,146
21,619	-11,029	282,761	132,939
22,634	-11,013	282,310	132,731
23,648	-11,055	282,145	132,600
24,663	-10,989	281,793	132,488
25,677	-10,842	281,504	132,481
26,692	-10,981	281,383	132,279
27,707	-10,959	281,013	132,114
28,721	-10,917	280,661	131,977
29,736	-11,106	280,540	131,727
30,750	-11,083	280,202	131,579
31,765	-10,948	279,864	131,537
32,780	-10,968	279,768	131,461
33,794	-11,026	279,444	131,242
34,809	-11,073	279,278	131,108
35,823	-11,014	278,942	130,995
36,838	-11,024	278,675	130,848
37,853	-11,207	278,388	130,528
38,867	-10,998	277,960	130,514
39,882	-11,165	278,031	130,376
40,896	-11,114	277,817	130,313
41,911	-10,959	277,423	130,263
42,926	-10,979	277,096	130,079
43,940	-10,905	276,754	129,976
44,955	-11,142	276,632	129,685
45,969	-11,351	276,431	129,382
46,984	-11,221	276,074	129,325
47,999	-11,519	275,864	128,935
49,013	-11,754	275,710	128,631
50,028	-11,955	275,380	128,276
51,042	-11,808	275,070	128,258
52,057	-11,856	274,813	128,083
53,071	-11,734	274,566	128,071
54,086	-11,470	274,366	128,212
55,101	-11,402	274,275	128,222
56,115	-11,349	274,220	128,234
57,130	-10,926	274,006	128,517
58,144	-10,906	273,862	128,457
59,159	-10,905	273,594	128,321
60,174	-10,788	273,177	128,223
61,188	-10,647	273,121	128,316
62,203	-10,626	272,842	128,193
63,217	-10,807	272,772	127,981
64,232	-10,771	272,441	127,848
65,247	-10,887	272,288	127,657
66,261	-10,669	271,851	127,642
67,276	-11,067	271,516	127,106
68,290	-11,257	271,485	126,904
69,305	-11,241	271,260	126,803
70,320	-11,389	271,035	126,550
71,334	-11,144	270,900	126,701
72,349	-10,819	270,720	126,904
73,363	-10,742	270,384	126,807
74,378	-10,797	270,199	126,658
75,393	-10,848	270,105	126,556
76,407	-10,939	269,975	126,400
77,422	-10,899	269,466	126,188
78,436	-10,982	269,537	126,134
79,451	-10,645	269,047	126,201
80,466	-10,837	268,857	125,925
81,480	-10,962	268,613	125,686
82,495	-11,072	268,277	125,417
83,509	-11,148	268,422	125,404
84,524	-11,002	267,971	125,316
85,539	-11,160	267,644	125,007
86,553	-11,140	267,430	124,914
87,568	-11,157	267,324	124,839
88,582	-11,194	267,041	124,662
89,597	-11,139	266,899	124,634
90,611	-10,917	266,839	124,796
91,626	-10,717	266,624	124,865
92,641	-10,840	266,586	124,725
93,655	-10,963	266,250	124,445
94,670	-10,998	266,055	124,312
95,684	-11,095	265,746	124,069
96,699	-11,061	265,645	124,041
97,714	-11,075	265,394	123,901
98,728	-11,026	265,087	123,790
99,743	-11,349	264,971	123,435
100,757	-11,306	264,642	123,309
101,772	-11,162	264,475	123,349
102,787	-11,119	264,400	123,342
103,801	-11,136	264,130	123,189
104,816	-11,211	263,993	123,047
105,830	-10,886	263,911	123,290
106,845	-10,837	263,576	123,165
107,860	-10,975	263,579	123,032
108,874	-11,120	263,198	122,715
109,889	-11,046	263,092	122,719
110,903	-11,187	263,030	122,554
111,918	-10,922	262,583	122,571
112,933	-10,797	262,271	122,525
113,947	-10,919	262,133	122,342
114,962	-10,790	262,104	122,432
115,976	-10,986	261,775	122,093
116,991	-10,956	261,663	122,057
118,006	-10,967	261,389	121,908
119,020	-10,918	261,351	121,923
120,035	-10,865	261,123	121,853
121,049	-10,735	260,934	121,869
122,064	-10,802	260,752	121,714
123,079	-10,731	260,527	121,660
124,093	-11,123	260,250	121,175
125,108	-11,028	259,991	121,127
126,122	-11,327	259,788	120,759
127,137	-11,546	259,421	120,385
128,151	-11,396	259,394	120,494
129,166	-11,185	259,417	120,679
130,181	-11,072	259,033	120,588
131,195	-11,378	258,764	120,185
132,210	-10,984	258,619	120,452
133,224	-10,916	258,513	120,450
134,239	-10,896	258,385	120,398
135,254	-10,776	258,085	120,352
136,268	-10,938	258,054	120,185
137,283	-11,223	257,572	119,702
138,297	-11,436	257,471	119,459
139,312	-11,220	257,206	119,513
140,327	-10,989	257,195	119,698
141,341	-10,845	256,956	119,702
142,356	-10,901	256,808	119,574
143,370	-10,644	256,592	119,685
144,385	-10,611	256,606	119,709
145,400	-10,668	256,207	119,464
146,414	-10,644	256,217	119,478
147,429	-10,750	255,975	119,263
148,443	-10,685	255,862	119,256
149,458	-10,667	255,765	119,215
150,473	-10,675	255,423	119,039
151,487	-10,680	255,191	118,915
152,502	-10,717	255,004	118,786
153,516	-10,848	254,801	118,567
154,531	-10,752	254,698	118,592
155,546	-10,707	254,435	118,497
156,560	-10,595	254,258	118,500
157,575	-10,563	253,887	118,344
158,589	-10,801	253,884	118,129
159,604	-10,571	253,622	118,193
160,619	-10,854	253,493	117,881
161,633	-10,815	253,332	117,829
162,648	-10,544	253,205	117,990
163,662	-10,671	253,034	117,791
164,677	-10,876	253,003	117,592
165,692	-10,626	252,656	117,633
166,706	-10,698	252,509	117,493
167,721	-10,733	252,329	117,369
168,735	-10,597	252,106	117,370
169,750	-10,558	252,040	117,362
170,764	-10,525	251,851	117,292
171,779	-10,513	251,834	117,283
172,794	-10,521	251,607	117,161
173,808	-10,539	251,371	117,025
174,823	-10,990	250,934	116,429
175,837	-11,163	250,782	116,203
176,852	-10,921	250,784	116,398
177,867	-10,589	250,634	116,598
178,881	-10,608	250,563	116,538
179,896	-10,378	250,174	116,541
180,910	-10,530	250,158	116,395
181,925	-10,602	250,039	116,269
182,940	-10,507	249,757	116,207
183,954	-10,466	249,759	116,232
184,969	-10,581	249,558	116,032
185,983	-10,465	249,346	116,020
186,998	-10,736	249,286	115,754
188,013	-10,561	248,912	115,717
189,027	-10,700	248,715	115,498
190,042	-10,545	248,621	115,575
191,056	-10,480	248,403	115,517
192,071	-10,457	248,227	115,445
193,086	-10,494	248,164	115,374
194,100	-10,422	247,907	115,304
195,115	-10,412	247,787	115,246
196,129	-10,406	247,568	115,139
197,144	-10,314	247,221	115,044
198,159	-10,496	247,183	114,865
199,173	-10,362	247,096	114,925
200,188	-10,424	246,878	114,762
201,202	-10,912	246,617	114,226
202,217	-11,248	246,269	113,776
203,232	-11,204	246,041	113,697
204,246	-10,677	246,065	114,135
205,261	-10,160	246,086	114,561
206,275	-10,335	246,023	114,377
207,290	-5,368	247,892	119,368
208,304	1,785	250,124	126,417
209,319	4,490	250,776	128,997
210,334	4,905	250,706	129,296
211,348	4,909	250,606	129,237
212,363	5,380	250,558	129,593
213,377	5,303	250,506	129,490
214,392	5,130	250,237	129,195
215,407	5,187	249,918	129,067
216,421	5,206	249,768	128,993
217,436	5,305	249,789	129,076
218,450	5,452	249,542	129,058
219,465	5,086	249,315	128,626
220,480	4,780	249,141	128,271
221,494	4,801	248,968	128,187
222,509	5,033	248,861	128,314
223,523	4,914	248,678	128,109
224,538	4,442	248,262	127,493
225,553	4,748	248,179	127,692
226,567	4,922	248,169	127,819
227,582	4,936	248,071	127,768
228,596	4,856	247,595	127,446
229,611	4,709	247,509	127,269
230,626	4,354	247,462	126,942
231,640	4,461	247,334	126,954
232,655	4,560	247,096	126,901
233,669	4,546	246,734	126,693
234,684	4,395	246,749	126,565
235,699	5,027	246,597	126,994
236,713	4,999	246,561	126,941
237,728	4,669	246,176	126,461
238,742	4,647	245,988	126,336
239,757	4,381	245,911	126,067
240,772	4,434	245,713	125,997
241,786	4,626	245,512	126,040
242,801	4,433	245,326	125,776
243,815	4,484	245,377	125,833
244,830	4,752	245,117	125,907
245,844	4,700	245,010	125,798
246,859	4,664	244,743	125,621
247,874	4,560	244,623	125,463
248,888	4,603	244,574	125,462
249,903	4,728	244,433	125,479
250,917	4,610	244,273	125,290
251,932	4,941	244,110	125,464
252,947	4,964	243,952	125,390
253,961	4,576	243,576	124,872
254,976	4,748	243,560	124,991
255,990	4,689	243,462	124,883
257,005	4,696	243,235	124,760
258,020	4,241	243,168	124,348
259,034	4,455	242,870	124,357
260,049	4,729	242,724	124,492
261,063	4,484	242,592	124,216
262,078	4,558	242,320	124,125
263,093	4,863	242,314	124,355
264,107	4,639	242,301	124,158
265,122	4,700	241,915	123,998
266,136	4,695	241,849	123,949
267,151	4,782	241,783	123,974
268,166	4,610	241,531	123,696
269,180	4,297	241,294	123,314
270,195	4,905	241,513	123,901
271,209	5,193	241,220	123,970
272,224	4,501	241,012	123,300
273,239	4,247	240,583	122,866
274,253	4,343	240,493	122,886
275,268	4,576	240,515	123,072
276,282	4,696	240,279	123,035
277,297	4,454	239,986	122,683
278,312	4,533	239,929	122,705
279,326	4,511	239,841	122,631
280,341	4,545	239,707	122,579
281,355	4,422	239,560	122,396
282,370	4,570	239,540	122,492
283,384	4,496	239,408	122,355
284,399	4,372	239,148	122,112
285,414	4,406	238,894	121,999
286,428	4,314	238,866	121,902
287,443	4,582	238,626	121,979
288,457	4,672	238,532	121,991
289,472	4,857	238,333	122,025
290,487	4,677	238,189	121,798
291,501	4,501	237,907	121,505
292,516	4,178	237,807	121,189
293,530	4,448	237,606	121,287
294,545	4,631	237,695	121,466
295,560	4,500	237,485	121,245
296,574	4,482	237,257	121,104
297,589	4,289	237,159	120,892
298,603	4,652	237,079	121,124
299,618	4,784	236,940	121,146
300,633	4,608	236,821	120,937
301,647	4,711	236,654	120,921
302,662	4,984	236,652	121,123
303,676	4,904	236,461	120,952
304,691	4,784	236,259	120,744
305,706	5,026	236,035	120,807
306,720	4,851	236,069	120,678
307,735	4,626	235,844	120,377
308,749	4,639	235,559	120,230
309,764	4,581	235,267	120,025
310,779	4,677	235,048	119,978
311,793	4,178	234,803	119,455
312,808	4,127	234,632	119,318
313,822	3,946	234,549	119,125
314,837	4,436	234,544	119,491
315,852	4,653	234,506	119,629
316,866	4,720	234,451	119,642
317,881	4,860	234,276	119,650
318,895	4,906	234,018	119,544
319,910	4,782	234,013	119,435
320,925	4,583	233,622	119,071
321,939	4,349	233,523	118,830
322,954	4,450	233,469	118,870
323,968	4,583	233,240	118,844
324,983	4,775	233,139	118,930
325,997	4,885	233,078	118,973
327,012	5,026	232,898	118,978
328,027	4,504	232,760	118,497
329,041	4,689	232,691	118,593
330,056	5,430	232,700	119,155
331,070	5,472	232,612	119,132
332,085	5,090	232,164	118,600
333,100	4,838	231,994	118,310
334,114	4,836	231,894	118,247
335,129	4,956	231,850	118,305
336,143	4,980	231,800	118,288
337,158	5,011	231,548	118,172
338,173	4,779	231,284	117,850
339,187	4,541	231,105	117,567
340,202	4,684	230,910	117,566
341,216	4,595	230,980	117,523
342,231	4,731	230,571	117,409
343,246	4,777	230,401	117,346
344,260	4,802	230,408	117,358
345,275	4,930	230,423	117,453
346,289	4,913	230,266	117,349
347,304	5,028	230,050	117,316
348,319	4,876	229,958	117,143
349,333	4,782	229,667	116,914
350,348	4,583	229,469	116,652
351,362	4,597	229,370	116,602
352,377	4,445	229,169	116,375
353,392	4,302	229,012	116,177
354,406	4,433	228,869	116,193
355,421	195,757	1319,183	1394,851
356,435	157,026	1451,982	1394,819
