DTS Sentinel unit serial number:	SN410029Multiplexer serial number:	ORYXHardware model number:	OX2-SRSoftware version number:	ORYX F/W v4,00 Oryx Data Collector v3.7.2.0data status	okinstallation	B5 Nyhavnadifferential loss correction	single-endedforward channel	channel 2reverse channel	N/Adate	2023/12/12time	04:32:13forward acquisition time	300,00reverse acquisition time	0,00gamma	499,1914k internal	0,3157k external	0,3157temperature offset calibration	1,0000default loss term (dB/km)	0,3820temperature slope calibration	1,0000multiplexer offset coefficient	1,0000multiplexer slope coefficient	1,0000fibre end	0,00T internal ref (°C)	15,50T ext. ref 1 (°C)	-0,92T ext. ref 2 (°C)	-1,22length (m)	temperature (°C)	Stokes	anti-Stokes-744,400	34,701	-0,037	0,024
-743,385	-148,529	-0,210	0,012
-742,371	800,000	0,093	-0,198
-741,356	19,772	-0,255	0,151
-740,342	34,196	0,158	0,101
-739,327	-154,530	-0,335	0,016
-738,312	-200,000	-0,021	0,114
-737,298	-149,919	-0,283	-0,016
-736,283	-122,872	0,147	-0,017
-735,269	-81,353	-0,379	0,091
-734,254	224,515	0,094	0,112
-733,239	-200,000	-0,442	0,001
-732,225	152,552	0,082	0,083
-731,210	498,858	0,053	0,091
-730,196	-4,560	-0,080	-0,041
-729,181	87,669	0,061	0,050
-728,167	242,892	-0,051	-0,063
-727,152	-200,000	-0,003	0,021
-726,137	-78,389	-0,175	-0,044
-725,123	-200,000	-0,032	-0,157
-724,108	-193,229	-0,111	-0,001
-723,094	-77,300	0,093	-0,024
-722,079	800,000	-0,039	-0,097
-721,064	800,000	0,036	-0,083
-720,050	-12,919	0,067	-0,032
-719,035	-5,984	-0,143	-0,072
-718,021	363,463	-0,030	-0,045
-717,006	800,000	-0,011	-0,026
-715,991	110,713	-0,136	-0,121
-714,977	357,029	-0,066	0,097
-713,962	253,027	-0,070	0,088
-712,948	-200,000	0,008	-0,108
-711,933	530,950	0,037	0,065
-710,918	-111,941	-0,079	-0,012
-709,904	-105,943	-0,098	-0,016
-708,889	401,483	-0,070	-0,109
-707,875	-0,080	-0,122	-0,064
-706,860	800,000	0,036	0,109
-705,845	-200,000	0,005	0,064
-704,831	194,897	-0,063	0,070
-703,816	-200,000	-0,012	-0,098
-702,802	278,248	-0,078	-0,102
-701,787	-40,236	-0,064	-0,024
-700,772	-100,045	0,068	0,012
-699,758	-76,253	-0,121	-0,031
-698,743	-200,000	-0,015	0,064
-697,729	77,109	0,066	0,052
-696,714	-27,206	0,040	-0,017
-695,699	169,776	-0,062	-0,065
-694,685	-39,041	-0,134	-0,052
-693,670	-200,000	-0,023	-0,130
-692,656	-3,749	0,054	0,028
-691,641	-38,829	-0,058	-0,023
-690,627	-200,000	0,002	0,017
-689,612	109,604	-0,074	-0,065
-688,597	800,000	-0,064	-0,141
-687,583	165,753	0,048	0,050
-686,568	-27,176	-0,061	-0,026
-685,554	4,854	-0,060	0,032
-684,539	-110,135	-0,059	0,009
-683,524	-41,962	-0,061	-0,023
-682,510	-23,596	-0,036	-0,016
-681,495	270,692	0,026	0,033
-680,481	-66,477	-0,059	0,017
-679,466	-200,000	0,016	0,172
-678,451	250,654	-0,078	-0,097
-677,437	618,801	-0,068	-0,126
-676,422	48,108	0,143	-0,098
-675,408	257,639	-0,044	-0,056
-674,393	800,000	-0,037	0,096
-673,378	-32,523	0,082	-0,033
-672,364	800,000	-0,020	-0,046
-671,349	-200,000	0,013	-0,060
-670,335	159,142	-0,030	0,030
-669,320	-39,992	0,015	-0,006
-668,305	-200,000	0,006	0,070
-667,291	-200,000	0,009	0,030
-666,276	284,123	-0,025	-0,032
-665,262	-83,874	-0,050	0,012
-664,247	-19,539	-0,152	0,069
-663,232	289,995	0,043	-0,058
-662,218	40,170	0,059	0,039
-661,203	-59,563	0,066	-0,021
-660,189	365,830	-0,058	-0,086
-659,174	104,243	-0,016	-0,014
-658,159	-200,000	-0,019	0,065
-657,145	-172,280	-0,129	-0,003
-656,130	-82,418	-0,063	0,015
-655,116	105,158	-0,076	0,066
-654,101	-157,397	-0,014	-0,001
-653,086	60,334	-0,115	0,084
-652,072	25,516	-0,049	0,030
-651,057	-31,682	-0,052	-0,021
-650,043	147,804	-0,044	0,043
-649,028	153,052	-0,026	-0,026
-648,014	-57,619	0,129	-0,041
-646,999	-200,000	-0,011	0,081
-645,984	-200,000	-0,031	0,124
-644,970	104,158	0,066	0,057
-643,955	421,518	-0,035	-0,055
-642,941	800,000	-0,026	0,058
-641,926	800,000	0,045	0,100
-640,911	-20,615	0,051	-0,023
-639,897	-47,089	0,037	0,013
-638,882	-30,603	0,118	0,049
-637,868	7,544	0,087	-0,047
-636,853	-74,464	0,049	-0,013
-635,838	248,589	-0,027	-0,034
-634,824	161,234	0,062	0,063
-633,809	207,409	0,047	-0,054
-632,795	217,351	0,044	0,051
-631,780	-200,000	0,026	0,105
-630,765	-200,000	0,008	-0,030
-629,751	304,480	-0,105	0,144
-628,736	443,535	0,041	-0,066
-627,722	-70,758	0,076	0,021
-626,707	800,000	0,058	0,120
-625,692	51,078	0,081	0,056
-624,678	760,729	0,055	-0,111
-623,663	-200,000	0,024	0,122
-622,649	-74,864	-0,170	0,045
-621,634	-80,732	-0,044	-0,011
-620,619	-19,978	0,215	0,097
-619,605	-114,206	0,045	-0,006
-618,590	-200,000	0,021	0,125
-617,576	-200,000	0,009	0,050
-616,561	311,213	0,073	0,100
-615,546	49,394	-0,058	-0,040
-614,532	297,546	-0,088	-0,119
-613,517	-102,066	-0,093	0,016
-612,503	-200,000	0,011	-0,078
-611,488	800,000	0,021	0,065
-610,474	501,324	-0,010	0,018
-609,459	318,712	0,031	0,043
-608,444	-200,000	-0,003	-0,067
-607,430	-14,585	0,049	-0,023
-606,415	-200,000	0,030	-0,118
-605,401	800,000	0,015	0,047
-604,386	36,675	0,041	-0,027
-603,371	-4,459	0,046	0,023
-602,357	2,424	0,045	-0,024
-601,342	170,914	-0,064	-0,067
-600,328	-200,000	-0,022	-0,116
-599,313	-19,045	-0,185	-0,084
-598,298	332,719	0,022	-0,031
-597,284	119,508	0,121	0,110
-596,269	-200,000	0,002	-0,029
-595,255	121,977	-0,034	0,031
-594,240	456,195	-0,078	-0,127
-593,225	165,660	-0,077	-0,080
-592,211	82,932	-0,143	0,114
-591,196	-200,000	0,014	0,048
-590,182	-149,867	-0,074	0,004
-589,167	-164,380	-0,047	0,002
-588,152	692,474	0,053	-0,101
-587,138	800,000	-0,046	0,094
-586,123	-131,279	-0,146	0,014
-585,109	-101,423	-0,068	-0,012
-584,094	8,442	0,105	0,057
-583,079	347,915	0,026	-0,038
-582,065	-133,899	0,122	0,011
-581,050	203,836	0,065	-0,074
-580,036	69,804	0,032	0,024
-579,021	19,084	-0,069	0,041
-578,006	800,000	-0,039	-0,088
-576,992	-156,286	0,114	-0,005
-575,977	-200,000	-0,008	0,158
-574,963	64,929	-0,086	0,064
-573,948	637,952	-0,058	-0,108
-572,934	800,000	-0,031	0,084
-571,919	-200,000	0,000	0,087
-570,904	15,259	-0,027	-0,016
-569,890	297,078	-0,053	-0,071
-568,875	-200,000	0,000	0,010
-567,861	-14,890	0,145	0,068
-566,846	394,782	-0,019	0,028
-565,831	-200,000	0,014	0,084
-564,817	-200,000	-0,024	0,101
-563,802	800,000	0,013	-0,039
-562,788	178,971	-0,113	-0,121
-561,773	231,842	0,018	-0,022
-560,758	-200,000	-0,013	0,136
-559,744	-51,668	0,057	-0,019
-558,729	-200,000	-0,019	-0,110
-557,715	-9,361	0,109	-0,053
-556,700	578,978	-0,014	-0,025
-555,685	-30,555	-0,161	-0,067
-554,671	182,623	0,052	0,057
-553,656	-200,000	0,003	0,065
-552,642	800,000	0,055	0,131
-551,627	-200,000	-0,001	-0,030
-550,612	658,278	0,050	0,095
-549,598	-200,000	-0,013	-0,152
-548,583	149,103	-0,095	-0,094
-547,569	-200,000	0,023	0,075
-546,554	295,007	0,035	0,047
-545,539	215,537	0,052	0,061
-544,525	800,000	-0,008	-0,018
-543,510	211,718	0,069	-0,079
-542,496	234,075	0,009	-0,011
-541,481	148,457	-0,035	0,034
-540,466	800,000	0,022	0,057
-539,452	-200,000	0,004	-0,044
-538,437	-37,707	0,067	-0,026
-537,423	21,121	-0,050	0,029
-536,408	485,625	-0,039	-0,066
-535,393	36,590	0,036	-0,023
-534,379	800,000	0,002	-0,005
-533,364	-200,000	0,001	-0,014
-532,350	-62,200	0,026	-0,008
-531,335	512,162	0,034	-0,059
-530,321	572,010	0,073	-0,130
-529,306	-200,000	0,040	-0,146
-528,291	-106,507	-0,026	-0,004
-527,277	-54,264	0,015	0,005
-526,262	233,974	-0,057	0,069
-525,248	173,261	0,105	0,111
-524,233	373,693	0,033	-0,049
-523,218	-200,000	0,007	-0,026
-522,204	-200,000	-0,008	-0,094
-521,189	474,178	-0,035	0,058
-520,175	-200,000	0,011	0,154
-519,160	-200,000	0,034	0,121
-518,145	-114,245	-0,045	-0,006
-517,131	415,330	0,052	0,081
-516,116	125,027	-0,132	-0,121
-515,102	-86,564	-0,037	0,008
-514,087	-200,000	-0,014	0,076
-513,072	27,680	0,051	0,031
-512,058	-92,097	0,078	0,016
-511,043	119,775	-0,052	0,047
-510,029	-13,725	0,150	0,071
-509,014	-82,961	0,116	0,027
-507,999	270,124	-0,055	-0,071
-506,985	95,431	0,083	0,069
-505,970	800,000	-0,018	0,041
-504,956	-118,395	-0,072	0,009
-503,941	-200,000	-0,002	0,098
-502,926	800,000	0,027	0,063
-501,912	12,272	-0,032	0,018
-500,897	320,783	-0,043	-0,060
-499,883	-200,000	-0,024	-0,104
-498,868	-37,314	-0,152	-0,059
-497,853	-175,668	0,010	-0,000
-496,839	-46,728	-0,025	0,009
-495,824	177,119	0,035	-0,037
-494,810	-200,000	0,016	-0,088
-493,795	-200,000	-0,002	0,093
-492,781	604,925	-0,054	-0,098
-491,766	209,812	-0,037	0,042
-490,751	-200,000	-0,004	-0,085
-489,737	394,821	0,025	-0,037
-488,722	-57,170	0,111	-0,035
-487,708	-200,000	-0,005	0,074
-486,693	-200,000	0,020	0,109
-485,678	-21,331	-0,059	0,026
-484,664	287,471	0,027	-0,036
-483,649	800,000	0,005	0,014
-482,635	-88,507	-0,073	-0,016
-481,620	21,787	-0,038	-0,023
-480,605	-76,134	0,132	0,034
-479,591	-200,000	0,013	0,186
-478,576	-200,000	-0,089	0,000
-477,562	288,034	-0,105	0,140
-476,547	-11,228	0,103	0,049
-475,532	74,766	-0,016	0,012
-474,518	-57,984	-0,072	0,023
-473,503	311,329	0,049	-0,067
-472,489	-120,827	-0,091	0,011
-471,474	-154,226	0,104	-0,005
-470,459	-200,000	-0,006	-0,062
-469,445	-49,706	-0,091	-0,031
-468,430	-200,000	-0,043	-0,173
-467,416	-200,000	-0,010	-0,177
-466,401	278,782	-0,073	0,095
-465,386	-139,405	0,119	0,009
-464,372	-118,609	0,029	0,004
-463,357	-51,888	-0,071	0,024
-462,343	-200,000	-0,005	-0,111
-461,328	-118,347	0,172	0,022
-460,313	-135,779	-0,167	-0,014
-459,299	16,151	0,084	-0,048
-458,284	462,304	0,061	0,100
-457,270	-116,851	0,142	0,019
-456,255	519,548	-0,064	-0,109
-455,241	-200,000	-0,004	-0,133
-454,226	-12,016	-0,003	-0,001
-453,211	277,734	0,045	-0,059
-452,197	800,000	0,044	0,103
-451,182	615,089	0,018	0,032
-450,168	-200,000	0,009	0,056
-449,153	-21,123	-0,099	-0,044
-448,138	-200,000	0,020	-0,174
-447,124	-16,216	0,022	-0,010
-446,109	-37,197	0,025	0,010
-445,095	-118,089	0,173	0,022
-444,080	-200,000	-0,006	-0,057
-443,065	-103,152	0,144	0,025
-442,051	-66,544	-0,073	-0,021
-441,036	-73,348	-0,113	-0,030
-440,022	-200,000	-0,008	-0,142
-439,007	43,877	0,036	0,024
-437,992	-200,000	0,016	0,132
-436,978	96,473	0,098	0,082
-435,963	40,406	-0,036	-0,023
-434,949	-81,274	-0,106	0,025
-433,934	227,141	-0,058	-0,068
-432,919	108,246	0,048	-0,042
-431,905	-200,000	-0,000	0,004
-430,890	-68,975	0,171	-0,048
-429,876	800,000	0,009	-0,027
-428,861	-25,396	-0,131	0,056
-427,846	36,355	-0,047	0,030
-426,832	341,179	-0,082	-0,117
-425,817	524,239	-0,052	-0,090
-424,803	-22,972	0,159	-0,069
-423,788	56,641	-0,036	0,026
-422,773	-154,602	0,102	0,005
-421,759	-200,000	-0,011	0,135
-420,744	736,321	-0,040	0,079
-419,730	-41,920	-0,048	0,018
-418,715	800,000	-0,010	0,030
-417,701	341,733	0,065	0,093
-416,686	800,000	-0,038	-0,083
-415,671	-31,242	0,152	0,062
-414,657	800,000	-0,049	0,151
-413,642	-200,000	-0,018	0,079
-412,628	800,000	-0,020	0,059
-411,613	-200,000	0,005	-0,039
-410,598	384,474	0,028	0,042
-409,584	-126,846	0,047	-0,005
-408,569	-122,167	0,204	0,024
-407,555	-200,000	-0,001	0,120
-406,540	61,631	-0,056	0,041
-405,525	-113,628	-0,139	0,020
-404,511	-101,002	0,075	-0,013
-403,496	-74,097	-0,032	0,008
-402,482	146,937	-0,019	0,018
-401,467	800,000	0,047	0,104
-400,452	-200,000	0,015	0,059
-399,438	-11,009	0,040	0,019
-398,423	52,532	0,048	-0,033
-397,409	-200,000	0,006	0,027
-396,394	-200,000	0,009	0,076
-395,379	31,606	-0,035	0,022
-394,365	-200,000	0,037	-0,145
-393,350	-7,364	-0,049	-0,024
-392,336	73,465	-0,129	-0,098
-391,321	800,000	-0,015	0,034
-390,306	800,000	0,052	-0,124
-389,292	229,507	-0,075	0,089
-388,277	-82,220	0,074	0,017
-387,263	-200,000	-0,020	-0,087
-386,248	97,399	0,026	-0,021
-385,233	36,274	0,035	0,022
-384,219	4,712	-0,056	0,030
-383,204	-200,000	0,001	0,080
-382,190	-50,348	-0,172	-0,059
-381,175	-27,456	0,032	-0,013
-380,160	419,789	0,045	-0,070
-379,146	800,000	-0,039	0,122
-378,131	-89,119	0,113	0,024
-377,117	498,855	-0,098	-0,165
-376,102	-200,000	-0,004	0,013
-375,088	-60,699	-0,148	0,045
-374,073	48,589	0,089	-0,060
-373,058	355,534	0,076	0,110
-372,044	115,384	0,041	0,037
-371,029	-200,000	0,013	-0,042
-370,015	-162,821	-0,047	0,002
-369,000	141,706	-0,128	-0,123
-367,985	-200,000	-0,014	-0,103
-366,971	297,413	-0,059	-0,078
-365,956	64,200	-0,078	0,057
-364,942	111,283	0,072	0,063
-363,927	-79,166	-0,117	-0,029
-362,912	-169,712	-0,078	0,002
-361,898	-164,532	-0,068	0,002
-360,883	-64,696	-0,148	-0,043
-359,869	-132,822	0,107	-0,010
-358,854	-41,765	0,044	0,016
-357,839	-200,000	-0,015	-0,121
-356,825	265,122	0,010	-0,013
-355,810	-200,000	-0,007	-0,031
-354,796	-200,000	0,003	0,142
-353,781	-30,296	-0,061	-0,025
-352,766	72,909	-0,102	0,077
-351,752	427,736	-0,062	0,098
-350,737	-98,466	0,118	0,022
-349,723	800,000	0,047	-0,104
-348,708	800,000	0,038	0,085
-347,693	-109,175	-0,103	0,016
-346,679	248,874	-0,090	-0,111
-345,664	75,792	-0,028	-0,021
-344,650	631,643	-0,062	-0,114
-343,635	238,816	0,077	-0,093
-342,620	3,659	-0,032	0,017
-341,606	156,706	0,020	-0,020
-340,591	-115,051	-0,051	-0,007
-339,577	800,000	0,046	-0,128
-338,562	-85,758	0,054	-0,012
-337,548	52,951	-0,081	0,056
-336,533	229,402	0,109	0,129
-335,518	-200,000	0,024	0,139
-334,504	304,638	0,025	0,034
-333,489	21,205	-0,151	0,088
-332,475	-169,274	0,051	-0,001
-331,460	-140,514	-0,053	0,004
-330,445	-200,000	0,017	-0,074
-329,431	-112,053	0,110	0,016
-328,416	800,000	-0,025	0,077
-327,402	-145,234	0,022	0,001
-326,387	800,000	-0,043	-0,105
-325,372	234,174	0,081	-0,097
-324,358	211,780	0,034	-0,039
-323,343	576,829	0,050	-0,090
-322,329	-200,000	0,011	0,076
-321,314	-200,000	-0,025	0,081
-320,299	-200,000	0,030	0,144
-319,285	193,389	0,140	0,153
-318,270	-36,314	-0,053	-0,021
-317,256	378,485	-0,080	0,120
-316,241	691,488	-0,042	0,081
-315,226	174,031	0,086	-0,090
-314,212	-200,000	0,008	-0,041
-313,197	-116,797	0,031	0,004
-312,183	-200,000	-0,010	0,087
-311,168	168,396	0,020	0,021
-310,153	241,399	-0,046	-0,056
-309,139	60,500	-0,053	0,038
-308,124	-76,168	0,091	0,023
-307,110	800,000	-0,029	-0,084
-306,095	-87,732	0,051	0,011
-305,080	456,852	-0,035	-0,056
-304,066	-200,000	-0,034	-0,112
-303,051	511,130	-0,080	-0,136
-302,037	-200,000	0,008	-0,148
-301,022	-66,944	-0,128	-0,036
-300,008	63,305	-0,121	0,088
-298,993	783,390	0,083	0,165
-297,978	-200,000	0,007	-0,026
-296,964	128,535	0,015	-0,013
-295,949	-200,000	0,002	0,096
-294,935	392,097	-0,049	-0,075
-293,920	-200,000	-0,040	0,162
-292,905	-85,307	0,054	-0,012
-291,891	-200,000	-0,003	-0,100
-290,876	-79,027	-0,214	-0,052
-289,862	-82,940	0,062	-0,014
-288,847	800,000	-0,031	0,085
-287,832	800,000	-0,036	0,110
-286,818	-37,057	-0,040	-0,016
-285,803	800,000	0,055	-0,148
-284,789	-125,370	-0,015	0,002
-283,774	-200,000	-0,022	-0,084
-282,759	160,932	0,031	-0,032
-281,745	-110,642	0,040	-0,006
-280,730	589,065	-0,015	-0,027
-279,716	-200,000	-0,031	-0,141
-278,701	-91,120	-0,027	0,006
-277,686	6,147	0,106	0,057
-276,672	-200,000	-0,040	-0,130
-275,657	-56,280	-0,120	-0,038
-274,643	-4,464	-0,100	-0,050
-273,628	-54,706	-0,155	-0,050
-272,613	-200,000	0,030	0,097
-271,599	-200,000	-0,002	0,022
-270,584	-69,687	0,063	0,017
-269,570	206,996	-0,082	-0,092
-268,555	-41,960	0,071	0,026
-267,540	-128,182	0,098	-0,010
-266,526	-200,000	0,001	0,070
-265,511	222,711	-0,049	0,057
-264,497	432,964	0,074	0,116
-263,482	219,495	-0,060	0,069
-262,467	-200,000	-0,006	0,186
-261,453	-61,280	0,104	-0,032
-260,438	221,752	-0,034	0,040
-259,424	388,486	-0,011	0,017
-258,409	-1,998	-0,122	-0,062
-257,395	64,645	0,095	0,069
-256,380	-200,000	-0,002	0,053
-255,365	-104,699	0,093	0,015
-254,351	187,318	-0,130	-0,141
-253,336	-166,745	0,083	0,002
-252,322	800,000	-0,027	0,061
-251,307	118,183	0,087	0,078
-250,292	800,000	0,014	0,028
-249,278	121,036	0,180	-0,162
-248,263	-200,000	0,014	0,077
-247,249	191,307	-0,006	0,007
-246,234	29,308	-0,078	-0,048
-245,219	-109,776	0,132	0,020
-244,205	189,310	0,061	-0,066
-243,190	733,064	-0,029	-0,056
-242,176	17,188	0,060	0,034
-241,161	-83,289	-0,155	0,036
-240,146	13,738	0,124	-0,069
-239,132	800,000	0,013	0,036
-238,117	218,199	-0,053	-0,061
-237,103	69,588	-0,100	-0,074
-236,088	800,000	-0,022	-0,063
-235,073	-200,000	0,025	-0,112
-234,059	81,466	-0,060	-0,047
-233,044	16,136	-0,040	-0,023
-232,030	-200,000	-0,007	-0,044
-231,015	-200,000	0,013	0,060
-230,000	-59,232	-0,088	-0,027
-228,986	11,074	0,026	0,014
-227,971	-94,889	-0,163	0,032
-226,957	-200,000	0,016	0,088
-225,942	116,964	-0,098	-0,087
-224,927	323,509	-0,043	-0,059
-223,913	-200,000	-0,001	-0,005
-222,898	86,441	0,064	-0,051
-221,884	800,000	-0,044	0,121
-220,869	-100,904	0,185	-0,032
-219,855	186,321	-0,069	-0,074
-218,840	800,000	-0,033	-0,082
-217,825	-149,392	0,059	-0,003
-216,811	-35,029	-0,089	0,035
-215,796	662,423	-0,045	-0,084
-214,782	-32,688	-0,087	0,035
-213,767	-200,000	-0,000	-0,141
-212,752	246,403	0,015	-0,018
-211,738	-150,993	0,054	-0,003
-210,723	-0,589	-0,185	0,094
-209,709	-68,671	0,034	-0,009
-208,694	-143,239	0,062	0,004
-207,679	-107,003	-0,099	-0,016
-206,665	70,399	-0,083	0,062
-205,650	123,807	0,165	0,150
-204,636	326,761	-0,053	0,074
-203,621	109,996	0,119	0,103
-202,606	800,000	0,042	-0,107
-201,592	-155,416	-0,062	0,003
-200,577	-45,831	0,052	-0,018
-199,563	710,586	0,072	-0,139
-198,548	36,739	0,103	-0,065
-197,533	323,739	-0,102	0,141
-196,519	120,380	0,037	-0,033
-195,504	297,980	-0,084	-0,112
-194,490	-200,000	-0,011	-0,138
-193,475	227,744	-0,053	-0,062
-192,460	515,383	0,035	-0,059
-191,446	800,000	0,047	0,105
-190,431	800,000	-0,037	0,100
-189,417	-103,848	-0,090	0,015
-188,402	-200,000	-0,011	0,056
-187,387	-200,000	0,040	-0,153
-186,373	800,000	-0,040	-0,088
-185,358	800,000	-0,021	-0,047
-184,344	35,506	0,083	-0,053
-183,329	-146,773	-0,047	-0,003
-182,315	-81,014	-0,007	0,002
-181,300	800,000	0,023	-0,049
-180,285	210,366	-0,057	0,065
-179,271	800,000	0,038	0,091
-178,256	55,366	-0,121	0,084
-177,242	-90,551	0,095	0,020
-176,227	487,940	0,079	-0,130
-175,212	386,085	0,014	0,021
-174,198	-153,182	0,042	-0,002
-173,183	-200,000	0,016	-0,065
-172,169	-64,172	-0,090	-0,026
-171,154	28,206	0,044	-0,027
-170,139	289,455	-0,076	0,099
-169,125	-200,000	0,036	0,143
-168,110	-200,000	-0,016	0,126
-167,096	-30,755	0,031	-0,012
-166,081	197,277	-0,057	-0,062
-165,066	800,000	0,054	-0,144
-164,052	173,477	0,113	0,117
-163,037	-1,684	0,066	-0,033
-162,023	800,000	-0,058	-0,135
-161,008	-200,000	-0,014	0,135
-159,993	-15,557	-0,068	-0,031
-158,979	-15,423	-0,088	-0,040
-157,964	-200,000	0,001	-0,030
-156,950	-200,000	-0,029	-0,147
-155,935	29,985	0,079	0,049
-154,920	300,475	-0,079	-0,106
-153,906	-105,462	0,126	-0,020
-152,891	-97,018	0,152	0,028
-151,877	-200,000	-0,017	0,083
-150,862	745,225	-0,044	-0,086
-149,847	-200,000	0,002	-0,040
-148,833	-150,612	0,118	0,006
-147,818	-200,000	-0,006	0,067
-146,804	108,874	0,080	0,069
-145,789	340,972	0,077	0,108
-144,775	342,217	-0,062	0,088
-143,760	278,041	0,010	-0,013
-142,745	207,076	-0,087	-0,098
-141,731	-133,953	0,036	0,003
-140,716	-67,122	0,042	0,012
-139,702	800,000	-0,013	0,031
-138,687	176,426	-0,036	-0,038
-137,672	29,267	-0,129	-0,079
-136,658	-200,000	-0,010	0,047
-135,643	-200,000	0,009	0,048
-134,629	66,218	0,069	0,050
-133,614	266,858	-0,046	-0,057
-132,599	800,000	0,063	-0,131
-131,585	604,088	-0,039	0,070
-130,570	-85,120	-0,062	0,014
-129,556	-84,003	0,117	-0,027
-128,541	800,000	-0,023	0,058
-127,526	320,019	0,043	-0,059
-126,512	20,080	0,102	-0,059
-125,497	144,672	-0,062	-0,060
-124,483	64,998	0,059	0,043
-123,468	-200,000	-0,004	-0,085
-122,453	-132,409	-0,150	0,014
-121,439	212,794	0,055	-0,063
-120,424	-105,520	0,078	0,013
-119,410	-200,000	0,002	0,123
-118,395	-54,310	0,142	0,046
-117,380	-40,617	-0,118	-0,044
-116,366	461,901	0,055	0,088
-115,351	-200,000	0,011	0,041
-114,337	-81,144	0,095	-0,022
-113,322	-200,000	0,020	-0,093
-112,307	800,000	0,031	-0,067
-111,293	-118,428	-0,072	-0,009
-110,278	92,285	0,111	0,090
-109,264	-200,000	0,000	0,012
-108,249	800,000	-0,036	0,103
-107,234	53,838	-0,079	-0,054
-106,220	800,000	-0,033	-0,087
-105,205	-200,000	-0,017	-0,111
-104,191	593,984	0,046	0,082
-103,176	164,383	-0,047	-0,048
-102,162	-104,712	-0,061	0,010
-101,147	-81,295	-0,067	0,016
-100,132	15,449	-0,064	0,036
-99,118	-200,000	0,001	0,023
-98,103	-130,752	0,022	0,002
-97,089	-49,315	0,048	-0,016
-96,074	301,898	-0,018	-0,025
-95,059	-2,795	-0,050	-0,025
-94,045	-116,492	-0,069	0,009
-93,030	112,349	0,043	0,038
-92,016	-200,000	-0,006	-0,097
-91,001	278,555	0,090	-0,115
-89,986	-157,211	-0,091	0,004
-88,972	729,433	0,059	0,115
-87,957	-4,010	-0,102	0,050
-86,943	800,000	0,038	-0,111
-85,928	-200,000	0,019	-0,240
-84,913	-125,052	-0,114	0,012
-83,899	-96,066	0,026	0,005
-82,884	-200,000	0,011	-0,156
-81,870	-200,000	0,016	0,091
-80,855	-73,974	0,096	-0,025
-79,840	-117,290	0,068	-0,009
-78,826	-200,000	-0,013	-0,084
-77,811	161,867	-0,091	-0,092
-76,797	684,254	-0,039	-0,073
-75,782	-147,805	0,074	0,004
-74,767	189,654	0,103	0,111
-73,753	-103,138	0,036	-0,006
-72,738	800,000	0,015	-0,045
-71,724	-42,212	0,024	-0,009
-70,709	12,219	0,058	-0,032
-69,694	800,000	-0,013	-0,038
-68,680	-12,901	-0,085	0,040
-67,665	-57,273	0,179	0,056
-66,651	-165,635	-0,118	0,004
-65,636	-75,572	0,015	0,004
-64,622	20,109	-0,123	-0,071
-63,607	38,226	-0,085	-0,054
-62,592	-200,000	0,010	-0,112
-61,578	800,000	0,052	0,110
-60,563	532,056	-0,042	0,072
-59,549	-17,513	0,011	0,005
-58,534	-9,926	-1,918	-0,912
-57,519	800,000	-0,409	-0,882
-56,505	-200,000	-1,172	-4,929
-55,490	-12,068	0,710	0,332
-54,476	800,000	5,446	12,206
-53,461	-200,000	17,510	282,921
-52,446	800,000	727,035	2213,925
-51,432	534,996	1642,781	2806,882
-50,417	110,097	1633,266	1406,904
-49,403	75,232	1286,237	972,522
-48,388	32,191	1027,613	634,852
-47,373	20,237	989,529	571,908
-46,359	18,605	977,538	559,601
-45,344	15,826	973,709	548,292
-44,330	15,999	972,276	548,030
-43,315	15,602	970,452	545,681
-42,300	15,523	969,327	544,771
-41,286	15,526	968,173	544,111
-40,271	15,469	967,399	543,467
-39,257	15,576	966,147	543,090
-38,242	15,456	965,645	542,396
-37,227	15,554	964,719	542,173
-36,213	15,554	963,737	541,599
-35,198	15,523	962,891	541,004
-34,184	15,599	962,124	540,795
-33,169	15,466	961,363	539,919
-32,154	15,596	960,271	539,704
-31,140	15,553	959,455	539,084
-30,125	15,535	958,702	538,582
-29,111	15,569	957,929	538,236
-28,096	15,583	957,380	537,950
-27,082	15,503	956,786	537,339
-26,067	15,585	955,654	536,946
-25,052	15,472	954,992	536,187
-24,038	15,554	954,325	536,057
-23,023	15,489	953,898	535,586
-22,009	15,591	952,895	535,329
-20,994	15,542	952,483	534,920
-19,979	15,562	951,737	534,542
-18,965	15,545	951,196	534,163
-17,950	15,487	950,580	533,610
-16,936	15,496	949,999	533,293
-15,921	15,473	949,292	532,801
-14,906	15,443	948,407	532,187
-13,892	15,438	947,900	531,864
-12,877	15,377	947,296	531,312
-11,863	15,332	946,626	530,771
-10,848	15,366	946,197	530,616
-9,833	15,517	945,652	530,771
-8,819	15,458	945,012	530,205
-7,804	15,467	944,422	529,879
-6,790	15,421	943,709	529,312
-5,775	15,476	943,192	529,176
-4,760	15,455	942,649	528,783
-3,746	15,438	941,912	528,297
-2,731	15,340	941,321	527,633
-1,717	15,280	940,772	527,114
-0,702	15,319	939,852	526,701
0,313	15,128	939,219	526,538
1,327	18,378	936,929	535,446
2,342	27,338	794,175	477,595
3,356	23,950	458,971	270,808
4,371	-3,290	314,303	156,506
5,386	-7,156	296,041	143,489
6,400	-9,277	290,090	138,487
7,415	-9,795	287,721	136,834
8,429	-9,688	286,118	136,164
9,444	-9,956	285,320	135,510
10,459	-9,782	284,685	135,366
11,473	-9,775	284,064	135,066
12,488	-9,882	283,565	134,712
13,502	-9,876	283,224	134,544
14,517	-9,763	282,733	134,408
15,531	-9,759	282,164	134,130
16,546	-9,679	281,773	134,010
17,561	-9,885	281,619	133,726
18,575	-9,747	281,179	133,637
19,590	-9,707	280,735	133,453
20,604	-9,731	280,482	133,298
21,619	-9,742	280,139	133,112
22,634	-9,902	279,830	132,800
23,648	-9,820	279,385	132,656
24,663	-9,835	279,103	132,496
25,677	-9,738	278,951	132,504
26,692	-9,603	278,692	132,498
27,707	-9,566	278,164	132,271
28,721	-9,712	278,103	132,091
29,736	-9,781	277,834	131,886
30,750	-9,848	277,524	131,663
31,765	-9,922	277,326	131,487
32,780	-9,918	277,113	131,379
33,794	-9,789	276,778	131,330
34,809	-9,794	276,609	131,234
35,823	-9,713	276,388	131,194
36,838	-9,877	276,114	130,897
37,853	-9,885	275,865	130,760
38,867	-9,892	275,685	130,656
39,882	-9,892	275,404	130,511
40,896	-9,816	275,106	130,430
41,911	-9,868	274,763	130,207
42,926	-9,744	274,574	130,222
43,940	-9,830	274,408	130,051
44,955	-9,746	274,017	129,933
45,969	-9,774	273,757	129,772
46,984	-10,050	273,738	129,493
47,999	-10,220	273,465	129,194
49,013	-10,316	273,313	129,021
50,028	-10,343	272,906	128,792
51,042	-10,426	272,644	128,580
52,057	-10,527	272,261	128,294
53,071	-10,413	272,070	128,298
54,086	-10,148	271,888	128,447
55,101	-10,372	271,813	128,192
56,115	-10,066	271,738	128,429
57,130	-9,771	271,526	128,590
58,144	-9,748	271,257	128,473
59,159	-9,772	271,055	128,343
60,174	-9,800	270,940	128,252
61,188	-9,785	270,564	128,076
62,203	-9,748	270,330	127,988
63,217	-9,660	270,141	127,968
64,232	-9,703	270,002	127,852
65,247	-9,675	269,738	127,741
66,261	-9,670	269,558	127,648
67,276	-9,830	269,190	127,316
68,290	-10,016	268,956	127,024
69,305	-10,063	268,659	126,830
70,320	-10,121	268,609	126,741
71,334	-9,901	268,479	126,869
72,349	-9,766	268,296	126,895
73,363	-9,766	268,110	126,797
74,378	-9,714	267,709	126,642
75,393	-9,698	267,580	126,585
76,407	-9,873	267,435	126,346
77,422	-9,740	267,190	126,339
78,436	-9,783	266,859	126,133
79,451	-9,611	266,648	126,178
80,466	-9,675	266,445	126,012
81,480	-9,950	266,204	125,638
82,495	-9,899	265,897	125,529
83,509	-9,785	265,728	125,540
84,524	-9,869	265,510	125,350
85,539	-9,967	265,352	125,176
86,553	-9,898	265,026	125,074
87,568	-10,122	265,066	124,879
88,582	-9,853	264,607	124,894
89,597	-9,876	264,474	124,799
90,611	-9,773	264,329	124,812
91,626	-9,900	264,313	124,679
92,641	-9,842	264,094	124,618
93,655	-9,693	263,814	124,607
94,670	-9,864	263,699	124,388
95,684	-9,764	263,361	124,308
96,699	-9,792	263,182	124,188
97,714	-9,960	263,069	123,972
98,728	-10,046	262,830	123,772
99,743	-9,856	262,526	123,788
100,757	-9,903	262,189	123,575
101,772	-9,865	262,195	123,601
102,787	-10,117	262,114	123,328
103,801	-9,798	261,738	123,423
104,816	-9,751	261,562	123,371
105,830	-9,789	261,478	123,287
106,845	-9,551	261,216	123,363
107,860	-9,782	261,018	123,054
108,874	-9,905	260,766	122,816
109,889	-9,604	260,506	122,948
110,903	-9,663	260,251	122,765
111,918	-9,968	260,228	122,473
112,933	-9,904	260,091	122,454
113,947	-9,860	259,771	122,332
114,962	-9,651	259,686	122,465
115,976	-9,955	259,648	122,169
116,991	-9,911	259,309	122,037
118,006	-9,986	259,204	121,911
119,020	-9,667	258,987	122,078
120,035	-9,635	258,776	121,996
121,049	-9,724	258,594	121,821
122,064	-9,752	258,432	121,708
123,079	-9,682	258,375	121,732
124,093	-9,659	257,924	121,529
125,108	-9,923	257,637	121,153
126,122	-10,025	257,622	121,047
127,137	-10,125	257,289	120,791
128,151	-9,909	256,931	120,800
129,166	-9,929	256,853	120,736
130,181	-9,805	256,651	120,737
131,195	-10,167	256,429	120,309
132,210	-10,066	256,473	120,406
133,224	-9,741	256,159	120,530
134,239	-9,797	256,138	120,460
135,254	-9,667	255,764	120,386
136,268	-9,948	255,669	120,088
137,283	-10,006	255,360	119,882
138,297	-10,089	255,163	119,707
139,312	-10,228	254,871	119,440
140,327	-9,940	254,821	119,654
141,341	-9,754	254,736	119,763
142,356	-9,657	254,678	119,809
143,370	-9,538	254,549	119,840
144,385	-9,560	254,217	119,655
145,400	-9,415	254,044	119,686
146,414	-9,653	253,944	119,424
147,429	-9,580	253,629	119,328
148,443	-9,409	253,350	119,333
149,458	-9,652	253,387	119,131
150,473	-9,485	253,221	119,185
151,487	-9,743	252,810	118,761
152,502	-9,654	252,812	118,828
153,516	-9,587	252,621	118,784
154,531	-9,532	252,486	118,758
155,546	-9,617	252,217	118,547
156,560	-9,669	252,052	118,415
157,575	-9,693	251,739	118,237
158,589	-9,652	251,633	118,212
159,604	-9,607	251,493	118,174
160,619	-9,574	251,305	118,103
161,633	-9,440	251,093	118,106
162,648	-9,686	251,010	117,848
163,662	-9,494	250,747	117,877
164,677	-9,628	250,574	117,672
165,692	-9,490	250,545	117,764
166,706	-9,482	250,290	117,641
167,721	-9,397	250,155	117,639
168,735	-9,555	250,025	117,434
169,750	-9,473	249,914	117,440
170,764	-9,576	249,772	117,276
171,779	-9,618	249,526	117,114
172,794	-9,489	249,378	117,144
173,808	-9,671	249,165	116,880
174,823	-9,994	248,813	116,433
175,837	-9,993	248,593	116,321
176,852	-9,741	248,552	116,502
177,867	-9,719	248,647	116,555
178,881	-9,584	248,373	116,529
179,896	-9,418	248,208	116,580
180,910	-9,537	248,015	116,380
181,925	-9,545	247,763	116,245
182,940	-9,487	247,519	116,168
183,954	-9,479	247,559	116,183
184,969	-9,558	247,223	115,949
185,983	-9,322	247,110	116,083
186,998	-9,501	246,869	115,810
188,013	-9,626	246,994	115,754
189,027	-9,684	246,657	115,538
190,042	-9,432	246,394	115,614
191,056	-9,418	246,353	115,596
192,071	-9,523	245,980	115,323
193,086	-9,830	245,876	115,011
194,100	-9,613	245,741	115,116
195,115	-9,436	245,494	115,137
196,129	-9,493	245,370	115,021
197,144	-9,783	245,188	114,686
198,159	-9,696	244,892	114,609
199,173	-9,575	244,776	114,644
200,188	-9,523	244,544	114,568
201,202	-9,919	244,376	114,153
202,217	-10,020	244,136	113,949
203,232	-9,996	243,789	113,796
204,246	-9,740	244,002	114,095
205,261	-9,314	243,754	114,319
206,275	-10,318	243,316	113,281
207,290	-7,224	244,536	116,383
208,304	-0,386	246,673	123,046
209,319	3,247	247,664	126,537
210,334	3,715	247,805	126,984
211,348	3,871	247,679	127,037
212,363	3,889	247,546	126,973
213,377	4,061	247,386	127,021
214,392	4,104	247,113	126,905
215,407	3,794	247,015	126,588
216,421	4,104	246,613	126,626
217,436	4,109	246,726	126,676
218,450	4,405	246,568	126,827
219,465	3,858	246,433	126,297
220,480	3,756	246,145	126,054
221,494	3,647	246,020	125,890
222,509	3,677	245,923	125,854
223,523	3,712	245,634	125,723
224,538	3,348	245,358	125,273
225,553	3,392	245,045	125,139
226,567	3,551	245,160	125,316
227,582	3,782	244,959	125,390
228,596	3,759	244,839	125,298
229,611	3,507	244,482	124,899
230,626	3,245	244,484	124,677
231,640	3,440	244,358	124,760
232,655	3,841	244,014	124,898
233,669	3,483	243,942	124,560
234,684	3,425	243,681	124,369
235,699	3,726	243,740	124,632
236,713	3,813	243,567	124,603
237,728	3,512	243,434	124,280
238,742	3,412	243,071	124,002
239,757	3,279	242,975	123,835
240,772	3,495	242,744	123,881
241,786	3,505	242,705	123,858
242,801	3,341	242,622	123,672
243,815	3,373	242,358	123,552
244,830	3,525	242,319	123,644
245,844	3,564	242,087	123,545
246,859	3,525	241,879	123,397
247,874	3,480	241,713	123,266
248,888	3,519	241,669	123,263
249,903	3,466	241,505	123,126
250,917	3,565	241,373	123,127
251,932	3,830	241,261	123,272
252,947	3,702	241,156	123,104
253,961	3,455	240,818	122,723
254,976	3,549	240,750	122,752
255,990	3,790	240,613	122,865
257,005	3,595	240,261	122,518
258,020	3,265	240,169	122,197
259,034	3,408	240,071	122,250
260,049	3,531	239,895	122,247
261,063	3,005	239,762	121,750
262,078	3,236	239,531	121,806
263,093	3,659	239,529	122,130
264,107	3,828	239,274	122,124
265,122	3,481	239,112	121,754
266,136	3,620	239,013	121,804
267,151	3,807	238,945	121,907
268,166	3,376	238,697	121,428
269,180	3,284	238,471	121,228
270,195	3,892	238,462	121,695
271,209	4,230	238,338	121,888
272,224	3,566	238,021	121,191
273,239	3,128	237,861	120,753
274,253	3,379	237,657	120,837
275,268	3,566	237,639	120,963
276,282	3,616	237,620	120,983
277,297	3,104	237,257	120,384
278,312	3,647	237,016	120,678
279,326	3,411	237,078	120,513
280,341	3,498	236,966	120,514
281,355	3,584	236,773	120,472
282,370	3,606	236,723	120,454
283,384	3,615	236,429	120,300
284,399	3,406	236,195	120,007
285,414	3,291	236,063	119,839
286,428	3,439	236,025	119,925
287,443	3,384	235,817	119,765
288,457	3,653	235,673	119,892
289,472	3,697	235,542	119,849
290,487	3,769	235,177	119,709
291,501	3,303	235,137	119,314
292,516	3,338	234,949	119,236
293,530	2,925	234,961	118,910
294,545	3,558	234,754	119,287
295,560	3,588	234,604	119,223
296,574	3,420	234,360	118,958
297,589	3,348	234,219	118,820
298,603	3,750	234,288	119,156
299,618	3,793	234,124	119,095
300,633	3,634	233,960	118,878
301,647	3,743	233,968	118,957
302,662	4,218	233,747	119,200
303,676	4,244	233,476	119,072
304,691	3,798	233,434	118,696
305,706	4,028	233,309	118,799
306,720	3,976	233,074	118,628
307,735	3,906	232,814	118,432
308,749	3,738	232,662	118,215
309,764	3,672	232,365	118,002
310,779	3,187	232,343	117,608
311,793	3,257	232,196	117,576
312,808	3,342	232,000	117,532
313,822	3,224	231,841	117,350
314,837	3,232	231,777	117,314
315,852	3,498	231,516	117,375
316,866	3,641	231,467	117,449
317,881	3,883	231,401	117,591
318,895	3,785	231,280	117,444
319,910	3,978	231,166	117,523
320,925	3,588	230,957	117,108
321,939	3,384	230,713	116,818
322,954	3,532	230,665	116,897
323,968	3,413	230,507	116,715
324,983	3,249	230,225	116,437
325,997	3,405	230,249	116,558
327,012	3,614	230,229	116,696
328,027	3,689	229,884	116,568
329,041	3,982	229,770	116,722
330,056	4,213	229,765	116,884
331,070	3,945	229,661	116,618
332,085	3,677	229,408	116,276
333,100	3,995	229,292	116,447
334,114	3,921	228,988	116,227
335,129	3,973	228,897	116,209
336,143	3,863	228,717	116,025
337,158	3,743	228,728	115,929
338,173	3,808	228,558	115,882
339,187	3,876	228,323	115,804
340,202	3,904	228,276	115,791
341,216	4,054	228,064	115,785
342,231	3,670	227,907	115,407
343,246	3,674	227,808	115,349
344,260	3,803	227,641	115,351
345,275	4,030	227,440	115,410
346,289	3,900	227,467	115,315
347,304	3,914	227,438	115,301
348,319	4,006	227,116	115,196
349,333	3,784	226,840	114,880
350,348	3,872	226,692	114,861
351,362	3,895	226,508	114,775
352,377	3,720	226,463	114,611
353,392	3,514	226,255	114,342
354,406	3,452	226,118	114,216
355,421	195,457	1320,452	1397,075
356,435	156,679	1453,780	1397,072
