DTS Sentinel unit serial number:	SN410029Multiplexer serial number:	ORYXHardware model number:	OX2-SRSoftware version number:	ORYX F/W v4,00 Oryx Data Collector v3.7.2.0data status	okinstallation	B5 Nyhavnadifferential loss correction	single-endedforward channel	channel 2reverse channel	N/Adate	2023/12/11time	21:07:13forward acquisition time	300,00reverse acquisition time	0,00gamma	499,1914k internal	0,3157k external	0,3157temperature offset calibration	1,0000default loss term (dB/km)	0,3820temperature slope calibration	1,0000multiplexer offset coefficient	1,0000multiplexer slope coefficient	1,0000fibre end	0,00T internal ref (°C)	16,14T ext. ref 1 (°C)	0,20T ext. ref 2 (°C)	-0,01length (m)	temperature (°C)	Stokes	anti-Stokes-744,400	439,432	0,066	0,107
-743,385	42,272	-0,171	0,115
-742,371	220,536	0,077	0,091
-741,356	-117,938	-0,359	0,047
-740,342	-80,377	0,267	0,065
-739,327	-26,937	-0,238	0,102
-738,312	-144,903	0,170	0,011
-737,298	-170,985	-0,361	0,009
-736,283	-200,000	0,007	-0,035
-735,269	-55,279	-0,287	0,094
-734,254	-200,000	-0,015	-0,063
-733,239	-133,900	-0,448	-0,040
-732,225	-0,116	0,166	0,087
-731,210	40,610	-0,028	-0,019
-730,196	-143,528	-0,053	-0,004
-729,181	-200,000	0,005	0,151
-728,167	-200,000	-0,008	0,045
-727,152	800,000	0,036	-0,115
-726,137	194,938	-0,110	-0,123
-725,123	-200,000	-0,006	-0,051
-724,108	-200,000	0,007	0,030
-723,094	96,746	0,079	-0,067
-722,079	-82,472	-0,128	-0,030
-721,064	-84,380	0,054	-0,012
-720,050	-70,766	-0,080	0,022
-719,035	800,000	0,051	-0,117
-718,021	139,625	-0,064	-0,062
-717,006	-200,000	-0,003	-0,110
-715,991	800,000	0,054	-0,119
-714,977	800,000	-0,071	-0,201
-713,962	207,613	-0,104	-0,120
-712,948	-200,000	-0,038	-0,175
-711,933	520,804	-0,088	-0,153
-710,918	429,824	-0,118	-0,188
-709,904	-90,572	-0,098	-0,021
-708,889	252,991	-0,099	-0,124
-707,875	800,000	-0,038	-0,113
-706,860	800,000	0,052	-0,135
-705,845	99,308	0,084	0,071
-704,831	100,534	-0,083	0,071
-703,816	107,346	0,060	-0,052
-702,802	-200,000	-0,007	-0,129
-701,787	800,000	-0,020	-0,048
-700,772	160,260	-0,056	-0,057
-699,758	-200,000	-0,003	-0,013
-698,743	151,934	-0,054	-0,054
-697,729	-73,589	-0,069	-0,018
-696,714	-166,949	0,030	0,001
-695,699	-9,184	0,030	0,015
-694,685	47,018	-0,062	-0,043
-693,670	-15,330	-0,108	-0,051
-692,656	800,000	0,026	-0,076
-691,641	-200,000	0,005	0,022
-690,627	800,000	0,056	0,131
-689,612	79,492	0,015	0,012
-688,597	-200,000	-0,009	0,116
-687,583	-198,621	-0,156	-0,001
-686,568	-200,000	0,004	-0,050
-685,554	106,030	0,023	-0,020
-684,539	227,324	0,058	-0,070
-683,524	641,649	0,039	0,073
-682,510	-200,000	0,024	-0,111
-681,495	156,839	-0,062	0,063
-680,481	-156,290	-0,160	0,007
-679,466	224,804	0,023	-0,027
-678,451	-200,000	0,001	-0,078
-677,437	-200,000	-0,007	0,076
-676,422	-200,000	-0,004	0,038
-675,408	-200,000	0,014	-0,107
-674,393	-44,142	-0,115	-0,042
-673,378	104,439	-0,127	-0,110
-672,364	61,459	0,060	0,044
-671,349	551,206	-0,070	-0,124
-670,335	-200,000	-0,023	-0,215
-669,320	800,000	-0,070	-0,177
-668,305	125,436	0,084	0,078
-667,291	-200,000	0,010	-0,122
-666,276	104,246	-0,124	-0,108
-665,262	-48,213	-0,128	-0,045
-664,247	800,000	-0,068	-0,141
-663,232	134,135	-0,034	0,033
-662,218	304,733	-0,062	0,084
-661,203	94,483	-0,077	-0,064
-660,189	17,417	-0,088	-0,051
-659,174	307,347	-0,057	-0,078
-658,159	68,565	0,014	-0,011
-657,145	-200,000	0,020	-0,074
-656,130	86,965	0,057	-0,046
-655,116	-126,086	-0,034	0,004
-654,101	800,000	0,011	-0,032
-653,086	-101,931	0,104	0,018
-652,072	800,000	-0,019	-0,062
-651,057	-67,455	-0,036	-0,010
-650,043	-158,487	-0,050	0,002
-649,028	16,187	-0,090	0,052
-648,014	797,803	0,033	-0,067
-646,999	800,000	0,034	0,081
-645,984	-90,308	0,122	0,026
-644,970	-52,345	0,182	-0,062
-643,955	800,000	-0,047	-0,124
-642,941	89,744	-0,159	-0,130
-641,926	107,978	-0,013	0,012
-640,911	-200,000	0,014	-0,057
-639,897	-79,130	0,058	0,014
-638,882	-51,810	-0,136	-0,046
-637,868	-181,508	0,129	-0,002
-636,853	-188,381	-0,195	0,002
-635,838	8,195	-0,128	-0,070
-634,824	-149,042	-0,094	-0,005
-633,809	-200,000	-0,010	-0,082
-632,795	-123,157	0,131	0,015
-631,780	636,087	-0,016	-0,029
-630,765	800,000	0,040	0,124
-629,751	-200,000	0,002	0,031
-628,736	692,749	-0,030	-0,059
-627,722	-93,212	-0,103	0,021
-626,707	800,000	-0,036	0,076
-625,692	0,375	0,156	0,082
-624,678	-114,747	-0,096	-0,013
-623,663	-24,301	-0,101	-0,044
-622,649	59,153	-0,186	-0,134
-621,634	396,859	0,030	-0,046
-620,619	332,830	-0,033	-0,046
-619,605	195,657	0,108	-0,121
-618,590	5,165	0,056	0,030
-617,576	-200,000	0,006	-0,023
-616,561	450,969	-0,083	-0,136
-615,546	659,296	-0,046	-0,088
-614,532	-162,257	0,017	-0,001
-613,517	-99,642	-0,191	-0,035
-612,503	118,965	-0,078	-0,071
-611,488	126,558	-0,064	-0,059
-610,474	800,000	-0,042	-0,107
-609,459	174,153	-0,091	-0,096
-608,444	142,361	0,021	-0,020
-607,430	-106,724	-0,108	-0,017
-606,415	800,000	0,027	0,063
-605,401	-175,738	-0,108	0,002
-604,386	-133,051	-0,057	0,005
-603,371	201,435	-0,036	-0,040
-602,357	-200,000	0,001	-0,079
-601,342	-200,000	0,026	0,089
-600,328	-96,190	-0,208	0,040
-599,313	231,239	-0,158	0,190
-598,298	800,000	-0,054	0,128
-597,284	643,468	0,059	-0,112
-596,269	-88,961	0,093	0,020
-595,255	9,693	0,081	0,045
-594,240	-200,000	0,010	-0,113
-593,225	800,000	-0,010	-0,029
-592,211	-200,000	-0,000	-0,037
-591,196	-88,103	-0,140	0,030
-590,182	-43,171	0,036	-0,013
-589,167	-200,000	0,005	0,122
-588,152	44,664	0,075	-0,051
-587,138	160,051	0,043	0,044
-586,123	48,295	0,064	0,044
-585,109	-169,731	-0,111	-0,003
-584,094	800,000	-0,018	-0,049
-583,079	152,271	-0,026	-0,026
-582,065	92,499	0,066	0,054
-581,050	118,067	-0,012	-0,011
-580,036	8,926	-0,107	0,059
-579,021	-191,317	-0,085	-0,001
-578,006	-187,753	0,020	-0,000
-576,992	-200,000	-0,023	0,109
-575,977	-16,039	0,133	0,062
-574,963	-182,365	-0,088	-0,001
-573,948	-117,749	-0,095	-0,012
-572,934	24,489	0,035	-0,021
-571,919	268,847	0,114	-0,147
-570,904	151,024	0,095	-0,095
-569,890	573,792	0,027	-0,048
-568,875	-200,000	-0,000	0,023
-567,861	-105,429	-0,135	-0,022
-566,846	-63,286	0,100	-0,030
-565,831	-200,000	-0,001	0,003
-564,817	-200,000	0,012	0,043
-563,802	800,000	-0,011	0,032
-562,788	-71,577	-0,081	-0,022
-561,773	353,331	-0,057	0,084
-560,758	75,103	0,069	0,053
-559,744	-33,336	-0,044	0,018
-558,729	-200,000	0,003	0,025
-557,715	-100,087	0,126	0,023
-556,700	-78,345	-0,056	-0,014
-555,685	-200,000	0,005	-0,182
-554,671	523,209	-0,069	-0,118
-553,656	263,052	0,036	-0,045
-552,642	-89,415	0,042	-0,009
-551,627	-200,000	-0,003	0,096
-550,612	-104,765	0,064	0,011
-549,598	800,000	-0,043	-0,090
-548,583	460,350	0,016	0,026
-547,569	132,670	0,026	0,025
-546,554	-53,964	0,066	0,022
-545,539	416,958	-0,037	-0,057
-544,525	14,415	0,083	0,047
-543,510	-200,000	0,002	-0,095
-542,496	150,827	-0,098	0,097
-541,481	-200,000	0,014	0,083
-540,466	800,000	0,007	0,019
-539,452	61,195	0,101	0,073
-538,437	800,000	0,035	0,103
-537,423	-59,421	0,033	0,010
-536,408	712,126	-0,057	-0,110
-535,393	-164,537	-0,175	-0,006
-534,379	-200,000	0,001	-0,002
-533,364	-200,000	0,004	0,088
-532,350	-114,421	-0,101	0,014
-531,335	-64,525	-0,023	0,007
-530,321	30,300	-0,043	0,026
-529,306	-200,000	0,008	0,096
-528,291	-5,094	-0,108	0,054
-527,277	-200,000	0,002	-0,056
-526,262	800,000	0,038	-0,098
-525,248	-156,423	0,142	-0,006
-524,233	152,626	-0,062	0,062
-523,218	-200,000	0,016	0,114
-522,204	800,000	0,042	0,106
-521,189	-200,000	-0,010	-0,073
-520,175	39,632	-0,029	-0,019
-519,160	-200,000	-0,002	-0,045
-518,145	-138,315	-0,096	-0,008
-517,131	295,747	0,060	-0,080
-516,116	201,038	-0,056	0,063
-515,102	-200,000	-0,000	0,066
-514,087	11,768	0,131	-0,074
-513,072	-200,000	-0,009	-0,068
-512,058	-200,000	-0,009	0,033
-511,043	-200,000	-0,004	0,081
-510,029	165,703	0,059	0,061
-509,014	-200,000	0,018	0,064
-507,999	-141,512	-0,099	-0,007
-506,985	800,000	0,040	0,130
-505,970	155,463	0,120	-0,120
-504,956	-51,330	-0,083	-0,028
-503,941	-53,085	0,140	-0,047
-502,926	-200,000	-0,043	0,142
-501,912	800,000	0,009	0,020
-500,897	-108,337	-0,017	0,003
-499,883	-123,519	-0,152	0,017
-498,868	800,000	-0,047	0,130
-497,853	-17,730	-0,080	-0,037
-496,839	599,424	0,034	0,062
-495,824	-30,942	0,057	-0,023
-494,810	483,175	0,100	-0,167
-493,795	-131,016	-0,131	0,013
-492,781	396,829	-0,044	0,067
-491,766	-193,507	0,111	0,001
-490,751	-200,000	-0,013	-0,049
-489,737	610,173	-0,036	-0,066
-488,722	22,166	0,117	0,069
-487,708	-21,031	0,072	-0,032
-486,693	-12,537	-0,012	-0,006
-485,678	-77,547	0,059	0,015
-484,664	-200,000	-0,014	-0,055
-483,649	137,022	-0,117	0,111
-482,635	99,230	0,040	0,034
-481,620	800,000	-0,021	0,064
-480,605	-104,679	-0,092	0,015
-479,591	224,070	-0,072	0,085
-478,576	800,000	-0,063	0,135
-477,562	-200,000	-0,008	0,137
-476,547	-51,471	-0,160	-0,054
-475,532	-15,451	0,091	-0,042
-474,518	-82,323	0,147	-0,035
-473,503	-137,103	0,116	0,010
-472,489	-1,748	0,022	-0,011
-471,474	800,000	0,082	-0,170
-470,459	800,000	-0,023	-0,068
-469,445	-200,000	0,017	-0,143
-468,430	317,729	-0,036	0,050
-467,416	452,770	-0,046	0,074
-466,401	102,326	0,111	0,094
-465,386	-200,000	-0,002	-0,042
-464,372	-37,663	0,075	-0,029
-463,357	132,337	0,101	-0,095
-462,343	-200,000	0,050	-0,204
-461,328	0,899	-0,046	0,024
-460,313	-8,897	0,100	0,049
-459,299	-200,000	0,010	0,066
-458,284	-118,092	0,114	-0,015
-457,270	534,648	0,019	0,033
-456,255	-60,998	-0,124	0,038
-455,241	-200,000	-0,004	0,019
-454,226	-81,951	0,102	0,024
-453,211	127,234	0,256	0,237
-452,197	206,926	0,059	-0,067
-451,182	-200,000	0,004	-0,014
-450,168	-157,051	0,099	0,004
-449,153	-200,000	-0,032	-0,126
-448,138	-200,000	0,014	-0,128
-447,124	-200,000	-0,018	-0,076
-446,109	-96,522	0,104	-0,020
-445,095	68,492	-0,044	0,033
-444,080	-40,601	-0,183	-0,069
-443,065	-200,000	0,046	-0,212
-442,051	224,652	-0,052	-0,061
-441,036	-200,000	-0,029	-0,149
-440,022	-120,339	-0,094	-0,012
-439,007	302,173	0,053	0,071
-437,992	-149,892	-0,033	0,002
-436,978	-98,312	0,107	-0,020
-435,963	800,000	-0,068	0,175
-434,949	-200,000	-0,000	-0,125
-433,934	800,000	-0,026	-0,065
-432,919	735,556	0,059	-0,115
-431,905	-200,000	0,009	-0,143
-430,890	800,000	-0,050	0,122
-429,876	-20,891	-0,087	0,038
-428,861	3,426	0,063	0,034
-427,846	121,477	-0,067	0,061
-426,832	147,063	0,081	-0,079
-425,817	377,307	-0,032	-0,048
-424,803	-88,711	-0,088	-0,019
-423,788	-159,833	0,190	0,007
-422,773	-161,235	0,084	-0,003
-421,759	123,262	0,082	0,075
-420,744	800,000	0,028	0,057
-419,730	419,921	-0,072	0,113
-418,715	278,105	-0,035	0,045
-417,701	-49,046	-0,060	-0,021
-416,686	-18,297	-0,024	0,011
-415,671	322,204	0,092	0,127
-414,657	-200,000	0,029	-0,095
-413,642	448,997	0,052	0,083
-412,628	-62,460	-0,080	0,024
-411,613	172,748	-0,087	-0,091
-410,598	-41,801	0,232	-0,086
-409,584	-64,972	0,058	0,017
-408,569	800,000	0,013	-0,033
-407,555	38,921	0,165	0,107
-406,540	-91,667	0,005	-0,001
-405,525	-200,000	0,009	-0,087
-404,511	224,394	-0,090	-0,107
-403,496	194,009	-0,046	-0,051
-402,482	-40,930	-0,012	0,005
-401,467	-200,000	0,018	0,071
-400,452	128,937	-0,012	0,012
-399,438	-200,000	0,006	0,039
-398,423	624,916	0,073	0,135
-397,409	577,515	-0,014	-0,024
-396,394	-53,267	0,153	0,051
-395,379	240,790	0,091	-0,111
-394,365	-6,947	0,135	0,067
-393,350	277,367	0,020	-0,026
-392,336	207,417	0,045	-0,051
-391,321	563,758	-0,072	0,127
-390,306	-2,409	-0,040	-0,020
-389,292	800,000	0,056	-0,143
-388,277	28,426	0,021	-0,013
-387,263	-91,476	0,102	-0,021
-386,248	134,680	-0,070	0,066
-385,233	800,000	-0,030	0,083
-384,219	-200,000	-0,013	0,067
-383,204	714,767	-0,075	-0,145
-382,190	388,548	-0,060	0,091
-381,175	36,022	0,126	0,080
-380,160	106,829	0,088	0,076
-379,146	-200,000	0,042	0,151
-378,131	13,343	0,060	-0,034
-377,117	148,925	-0,082	-0,081
-376,102	-27,304	-0,103	-0,043
-375,088	800,000	-0,024	0,072
-374,073	-192,681	-0,029	-0,000
-373,058	800,000	0,012	0,037
-372,044	-135,831	-0,126	-0,011
-371,029	198,764	0,042	-0,046
-370,015	44,982	0,069	0,046
-369,000	162,505	-0,112	0,114
-367,985	-200,000	-0,006	0,035
-366,971	-200,000	0,008	-0,036
-365,956	-140,127	-0,115	0,009
-364,942	-170,631	0,102	0,003
-363,927	800,000	-0,035	-0,113
-362,912	62,905	0,042	-0,031
-361,898	-121,225	0,036	0,004
-360,883	-18,903	-0,076	0,034
-359,869	-95,663	0,014	-0,003
-358,854	800,000	0,012	-0,025
-357,839	-200,000	-0,052	0,177
-356,825	-200,000	-0,002	-0,060
-355,810	-200,000	-0,007	-0,059
-354,796	17,695	-0,124	0,071
-353,781	166,647	-0,036	-0,037
-352,766	-95,000	0,062	0,012
-351,752	-159,294	-0,036	0,001
-350,737	31,543	0,067	0,041
-349,723	-147,954	0,019	0,001
-348,708	-106,914	0,171	0,027
-347,693	270,276	-0,069	0,088
-346,679	-65,495	0,047	-0,013
-345,664	10,825	-0,052	0,029
-344,650	-83,415	0,110	0,025
-343,635	-200,000	0,006	-0,031
-342,620	-200,000	0,010	0,033
-341,606	500,559	0,023	0,039
-340,591	-91,875	-0,125	0,026
-339,577	31,420	-0,034	0,021
-338,562	-200,000	-0,021	-0,115
-337,548	800,000	0,014	-0,040
-336,533	730,298	0,022	-0,044
-335,518	-200,000	0,008	0,028
-334,504	-7,780	-0,045	-0,022
-333,489	432,462	-0,055	-0,087
-332,475	115,843	-0,052	0,046
-331,460	-35,683	0,166	-0,065
-330,445	-200,000	0,005	-0,103
-329,431	-200,000	-0,020	0,155
-328,416	-11,452	-0,042	0,020
-327,402	-200,000	0,002	-0,074
-326,387	800,000	0,027	-0,059
-325,372	3,184	0,151	0,080
-324,358	-106,264	-0,105	-0,017
-323,343	546,353	-0,039	-0,068
-322,329	-112,089	-0,063	-0,009
-321,314	-200,000	0,016	0,064
-320,299	-200,000	0,014	0,064
-319,285	-82,296	-0,102	0,024
-318,270	504,826	0,082	-0,139
-317,256	-104,898	-0,173	0,028
-316,241	245,449	-0,036	0,044
-315,226	45,246	-0,027	0,018
-314,212	-200,000	-0,001	0,101
-313,197	126,961	0,090	0,083
-312,183	-200,000	0,006	0,103
-311,168	463,704	-0,052	-0,084
-310,153	-0,188	0,163	0,084
-309,139	129,834	-0,063	0,058
-308,124	-28,985	0,083	-0,035
-307,110	-200,000	-0,007	0,113
-306,095	-200,000	0,008	0,044
-305,080	-70,466	0,027	-0,007
-304,066	800,000	0,035	-0,086
-303,051	-200,000	0,028	-0,110
-302,037	800,000	0,022	-0,059
-301,022	22,173	-0,068	0,040
-300,008	-22,937	0,096	0,042
-298,993	119,543	0,024	0,022
-297,978	800,000	0,039	-0,081
-296,964	11,825	-0,050	-0,028
-295,949	-200,000	-0,009	0,040
-294,935	302,562	0,010	0,013
-293,920	208,537	0,108	0,122
-292,905	-18,508	0,083	0,037
-291,891	-46,400	-0,023	-0,008
-290,876	-138,287	0,098	-0,008
-289,862	-200,000	-0,006	0,079
-288,847	185,422	-0,013	-0,014
-287,832	442,249	-0,085	0,135
-286,818	-71,701	0,077	-0,021
-285,803	42,086	0,077	0,050
-284,789	9,645	-0,231	-0,127
-283,774	800,000	-0,007	0,021
-282,759	-6,649	0,174	0,085
-281,745	-40,659	0,065	-0,024
-280,730	-53,115	-0,075	-0,025
-279,716	-74,505	0,114	-0,030
-278,701	-54,659	0,040	0,013
-277,686	249,882	-0,016	0,020
-276,672	-200,000	0,029	0,158
-275,657	-200,000	-0,015	-0,140
-274,643	20,418	-0,048	0,028
-273,628	-78,764	-0,107	-0,026
-272,613	546,371	0,021	0,037
-271,599	505,653	0,015	0,025
-270,584	70,477	-0,044	-0,033
-269,570	689,499	0,049	0,094
-268,555	727,510	0,067	0,130
-267,540	41,337	-0,090	0,059
-266,526	-200,000	0,019	-0,093
-265,511	-29,379	-0,050	-0,020
-264,497	-200,000	0,010	-0,045
-263,482	-72,692	-0,063	0,017
-262,467	-200,000	0,011	-0,082
-261,453	-200,000	-0,015	-0,162
-260,438	49,825	-0,104	0,071
-259,424	605,835	0,090	-0,164
-258,409	800,000	-0,019	0,042
-257,395	-200,000	0,024	0,195
-256,380	83,650	0,040	0,032
-255,365	800,000	-0,009	-0,024
-254,351	-110,594	0,173	0,026
-253,336	150,436	-0,076	0,075
-252,322	9,866	-0,178	0,097
-251,307	-200,000	-0,005	-0,099
-250,292	-109,623	0,068	0,010
-249,278	-62,884	0,129	0,038
-248,263	-88,905	0,147	0,031
-247,249	102,319	-0,072	0,061
-246,234	29,553	0,143	-0,088
-245,219	-46,638	-0,170	0,060
-244,205	25,912	-0,037	0,022
-243,190	143,898	0,049	-0,047
-242,176	112,022	0,050	0,043
-241,161	-148,016	0,100	-0,006
-240,146	-47,630	0,146	0,051
-239,132	230,224	-0,069	-0,082
-238,117	-200,000	0,005	-0,172
-237,103	45,227	-0,068	-0,045
-236,088	-116,770	0,052	-0,007
-235,073	106,959	-0,022	-0,019
-234,059	317,880	0,063	0,086
-233,044	339,113	-0,051	0,072
-232,030	-173,476	0,110	-0,002
-231,015	-14,865	-0,086	-0,040
-230,000	-200,000	0,006	0,031
-228,986	-56,289	0,021	0,007
-227,971	-200,000	0,001	0,007
-226,957	-200,000	0,020	0,076
-225,942	158,014	0,078	0,078
-224,927	74,345	0,034	-0,026
-223,913	-200,000	-0,011	-0,107
-222,898	-200,000	-0,027	-0,088
-221,884	-85,993	0,039	-0,009
-220,869	112,221	0,020	0,018
-219,855	800,000	-0,021	0,054
-218,840	-88,714	-0,133	0,028
-217,825	-35,096	0,075	0,030
-216,811	-4,799	0,065	0,032
-215,796	-193,497	-0,094	0,001
-214,782	-37,477	0,035	-0,013
-213,767	-200,000	-0,023	-0,127
-212,752	763,479	0,012	0,023
-211,738	125,461	-0,070	0,064
-210,723	-79,903	-0,090	0,022
-209,709	-200,000	-0,051	0,176
-208,694	-29,849	0,090	0,037
-207,679	-200,000	-0,034	0,129
-206,665	235,458	-0,053	-0,064
-205,650	-200,000	-0,011	0,099
-204,636	265,318	0,040	0,051
-203,621	-75,419	-0,149	-0,038
-202,606	278,813	-0,046	0,060
-201,592	-200,000	-0,000	-0,076
-200,577	59,622	-0,153	-0,109
-199,563	800,000	-0,040	-0,088
-198,548	-5,120	0,089	0,044
-197,533	49,711	-0,089	0,060
-196,519	-200,000	0,013	-0,207
-195,504	-200,000	0,008	-0,062
-194,490	800,000	-0,061	-0,139
-193,475	-10,823	-0,074	-0,035
-192,460	288,511	-0,044	0,058
-191,446	800,000	0,021	-0,049
-190,431	-46,758	0,114	0,040
-189,417	18,291	0,077	0,044
-188,402	-200,000	-0,036	0,130
-187,387	224,716	-0,101	0,119
-186,373	411,519	-0,094	-0,144
-185,358	249,143	-0,047	-0,058
-184,344	721,072	-0,009	-0,017
-183,329	395,166	-0,080	-0,121
-182,315	258,101	0,094	-0,118
-181,300	-200,000	0,022	-0,083
-180,285	7,805	0,083	-0,045
-179,271	-40,315	-0,066	-0,025
-178,256	800,000	0,053	-0,139
-177,242	-156,025	0,096	-0,004
-176,227	89,008	0,079	-0,063
-175,212	-200,000	-0,004	-0,087
-174,198	-200,000	-0,002	0,024
-173,183	-200,000	0,016	0,057
-172,169	800,000	0,026	-0,070
-171,154	285,308	-0,082	0,107
-170,139	800,000	-0,045	0,099
-169,125	-25,522	0,148	-0,063
-168,110	800,000	0,094	0,191
-167,096	-200,000	0,014	-0,100
-166,081	-47,629	-0,076	-0,027
-165,066	45,285	-0,099	-0,066
-164,052	-36,915	-0,142	0,055
-163,037	21,958	-0,024	0,014
-162,023	581,852	0,063	-0,112
-161,008	-200,000	-0,026	0,121
-159,993	800,000	-0,022	0,049
-158,979	399,976	-0,064	-0,097
-157,964	-94,780	-0,036	-0,007
-156,950	556,849	0,072	-0,125
-155,935	-200,000	-0,020	0,073
-154,920	800,000	0,039	0,117
-153,906	-200,000	-0,017	0,153
-152,891	-200,000	0,019	-0,139
-151,877	-200,000	-0,005	0,033
-150,862	800,000	-0,034	-0,099
-149,847	47,805	-0,030	0,020
-148,833	93,536	-0,037	-0,030
-147,818	800,000	-0,020	0,043
-146,804	175,231	-0,091	0,095
-145,789	-77,222	-0,009	0,002
-144,775	240,226	0,037	-0,045
-143,760	-67,670	-0,087	-0,024
-142,745	98,691	0,108	-0,090
-141,731	-63,122	-0,139	0,041
-140,716	-200,000	0,009	0,098
-139,702	283,796	0,034	0,044
-138,687	-101,709	0,038	0,007
-137,672	-200,000	-0,007	0,203
-136,658	58,698	-0,115	-0,081
-135,643	-43,213	-0,057	0,021
-134,629	-200,000	-0,032	-0,120
-133,614	-200,000	0,050	0,189
-132,599	100,773	-0,109	0,091
-131,585	-166,976	-0,132	0,004
-130,570	117,674	-0,076	-0,067
-129,556	800,000	0,043	-0,118
-128,541	176,266	-0,144	-0,150
-127,526	-53,100	0,033	0,011
-126,512	584,273	0,045	0,080
-125,497	800,000	0,037	-0,079
-124,483	-102,675	-0,091	-0,016
-123,468	-96,408	0,051	-0,010
-122,453	155,661	-0,086	0,085
-121,439	-45,279	-0,131	-0,046
-120,424	32,916	-0,093	-0,058
-119,410	265,163	-0,037	0,046
-118,395	-200,000	-0,013	-0,123
-117,380	-200,000	0,010	0,072
-116,366	-185,449	0,139	-0,001
-115,351	-58,404	-0,110	0,034
-114,337	-170,637	-0,101	-0,002
-113,322	-200,000	0,012	0,155
-112,307	5,590	-0,036	-0,019
-111,293	100,628	-0,011	-0,009
-110,278	-200,000	0,000	0,105
-109,264	800,000	-0,013	-0,034
-108,249	441,552	-0,047	0,074
-107,234	36,650	-0,088	-0,056
-106,220	50,904	-0,165	0,113
-105,205	-200,000	-0,013	-0,100
-104,191	162,059	0,080	-0,080
-103,176	94,456	-0,007	0,005
-102,162	-158,209	0,139	0,006
-101,147	-200,000	-0,022	-0,085
-100,132	-200,000	-0,009	0,074
-99,118	-143,795	-0,161	-0,011
-98,103	49,046	0,065	0,044
-97,089	46,353	0,098	-0,065
-96,074	-14,292	0,098	0,045
-95,059	-200,000	0,015	-0,084
-94,045	68,951	0,045	0,033
-93,030	-14,522	-0,015	-0,007
-92,016	800,000	-0,040	-0,080
-91,001	52,879	0,011	-0,007
-89,986	-93,434	0,063	-0,012
-88,972	60,683	0,109	0,078
-87,957	800,000	-0,039	-0,110
-86,943	-156,126	0,092	-0,004
-85,928	302,977	-0,068	0,091
-84,913	800,000	-0,082	-0,165
-83,899	179,394	-0,067	0,070
-82,884	-107,868	0,049	-0,008
-81,870	-140,541	0,091	-0,007
-80,855	-200,000	0,009	-0,041
-79,840	-52,854	0,044	-0,015
-78,826	-74,625	0,066	-0,017
-77,811	800,000	-0,054	0,145
-76,797	-122,470	0,061	0,007
-75,782	59,802	0,085	-0,060
-74,767	-200,000	0,031	0,119
-73,753	-200,000	0,007	0,044
-72,738	800,000	0,017	0,037
-71,724	800,000	-0,012	0,037
-70,709	135,291	0,011	-0,011
-69,694	546,979	0,031	0,053
-68,680	-80,461	0,034	-0,008
-67,665	-200,000	-0,002	-0,033
-66,651	595,901	-0,057	0,101
-65,636	65,554	-0,083	0,060
-64,622	-200,000	-0,008	0,074
-63,607	290,730	0,010	0,013
-62,592	120,462	-0,054	-0,049
-61,578	701,700	0,071	-0,136
-60,563	800,000	0,041	0,102
-59,549	-182,712	-0,066	-0,001
-58,534	-26,054	-1,931	-0,812
-57,519	800,000	-0,377	-1,036
-56,505	-200,000	-1,203	-4,929
-55,490	-24,216	0,672	0,287
-54,476	800,000	5,325	12,094
-53,461	-200,000	17,130	280,897
-52,446	800,000	720,286	2223,852
-51,432	545,320	1636,034	2817,340
-50,417	112,895	1630,689	1418,073
-49,403	76,388	1287,728	978,320
-48,388	33,206	1030,209	639,941
-47,373	20,371	991,734	573,650
-46,359	18,933	979,908	562,061
-45,344	16,462	976,188	551,801
-44,330	16,661	974,468	551,459
-43,315	16,216	973,001	549,150
-42,300	16,201	971,917	548,469
-41,286	16,165	970,830	547,716
-40,271	16,180	969,874	547,204
-39,257	16,179	968,948	546,657
-38,242	16,204	967,895	546,121
-37,227	16,182	967,133	545,597
-36,213	16,160	966,502	545,148
-35,198	16,206	965,349	544,627
-34,184	16,229	964,757	544,346
-33,169	16,095	963,920	543,417
-32,154	16,252	962,640	543,182
-31,140	16,167	961,790	542,405
-30,125	16,244	961,153	542,275
-29,111	16,154	960,402	541,539
-28,096	16,169	959,805	541,229
-27,082	16,190	959,124	540,890
-26,067	16,178	958,194	540,307
-25,052	16,172	957,244	539,729
-24,038	16,153	956,783	539,387
-23,023	16,211	956,135	539,187
-22,009	16,151	955,514	538,622
-20,994	16,144	954,994	538,285
-19,979	16,180	954,352	538,019
-18,965	16,187	953,566	537,575
-17,950	16,236	953,022	537,404
-16,936	16,109	952,344	536,595
-15,921	16,120	951,771	536,286
-14,906	16,067	951,040	535,683
-13,892	16,051	950,400	535,252
-12,877	16,039	949,596	534,738
-11,863	16,015	949,034	534,324
-10,848	16,007	948,796	534,143
-9,833	16,149	948,196	534,237
-8,819	16,112	947,477	533,691
-7,804	16,121	946,585	533,199
-6,790	16,094	946,107	532,822
-5,775	16,115	945,479	532,512
-4,760	16,091	944,963	532,126
-3,746	16,034	944,219	531,504
-2,731	15,970	943,565	530,913
-1,717	15,937	942,937	530,435
-0,702	15,930	942,464	530,124
0,313	15,756	941,617	529,897
1,327	18,986	939,745	538,994
2,342	27,992	797,375	481,273
3,356	24,813	461,227	273,479
4,371	-2,308	314,965	157,898
5,386	-6,495	296,777	144,522
6,400	-8,379	290,773	139,712
7,415	-8,855	288,234	138,011
8,429	-9,128	286,661	136,978
9,444	-8,971	285,734	136,676
10,459	-9,122	285,204	136,263
11,473	-8,977	284,392	136,004
12,488	-9,035	284,051	135,773
13,502	-9,220	283,743	135,433
14,517	-9,008	283,220	135,377
15,531	-9,120	282,609	134,965
16,546	-9,160	282,213	134,725
17,561	-9,125	281,800	134,550
18,575	-9,031	281,527	134,498
19,590	-9,222	281,124	134,110
20,604	-9,076	280,873	134,118
21,619	-9,245	280,615	133,822
22,634	-9,149	280,154	133,681
23,648	-9,434	279,900	133,276
24,663	-9,126	279,444	133,341
25,677	-9,365	279,424	133,091
26,692	-9,153	278,945	133,053
27,707	-9,196	278,773	132,918
28,721	-9,226	278,570	132,781
29,736	-9,244	278,130	132,542
30,750	-9,450	277,975	132,261
31,765	-9,281	277,815	132,333
32,780	-9,127	277,510	132,323
33,794	-9,301	277,255	132,024
34,809	-9,329	277,024	131,875
35,823	-9,272	276,784	131,804
36,838	-9,319	276,421	131,575
37,853	-9,275	276,375	131,582
38,867	-9,134	275,987	131,519
39,882	-9,288	275,790	131,269
40,896	-9,243	275,444	131,134
41,911	-9,470	275,363	130,871
42,926	-9,254	275,040	130,909
43,940	-9,169	274,758	130,842
44,955	-9,306	274,513	130,586
45,969	-9,371	274,252	130,389
46,984	-9,523	273,979	130,106
47,999	-9,692	273,870	129,884
49,013	-9,843	273,723	129,662
50,028	-9,967	273,196	129,286
51,042	-9,966	272,956	129,161
52,057	-10,039	272,715	128,967
53,071	-9,794	272,441	129,054
54,086	-9,754	272,266	128,997
55,101	-9,536	272,084	129,101
56,115	-9,506	272,104	129,127
57,130	-9,093	271,829	129,367
58,144	-9,019	271,607	129,319
59,159	-9,119	271,427	129,130
60,174	-9,023	271,213	129,105
61,188	-9,019	271,061	129,024
62,203	-9,021	270,798	128,886
63,217	-9,069	270,568	128,721
64,232	-9,063	270,342	128,607
65,247	-9,025	270,154	128,541
66,261	-9,017	269,935	128,433
67,276	-9,206	269,624	128,100
68,290	-9,507	269,348	127,682
69,305	-9,385	269,228	127,725
70,320	-9,428	268,949	127,542
71,334	-9,242	268,958	127,705
72,349	-9,173	268,654	127,612
73,363	-8,943	268,421	127,700
74,378	-9,001	268,177	127,520
75,393	-9,074	268,052	127,383
76,407	-9,160	267,906	127,224
77,422	-9,086	267,575	127,123
78,436	-9,085	267,306	126,984
79,451	-9,161	267,169	126,839
80,466	-9,117	266,890	126,735
81,480	-9,189	266,524	126,484
82,495	-9,336	266,458	126,308
83,509	-9,184	266,306	126,363
84,524	-9,225	265,995	126,167
85,539	-9,316	265,739	125,952
86,553	-9,495	265,739	125,780
87,568	-9,500	265,562	125,680
88,582	-9,330	265,251	125,675
89,597	-9,319	265,023	125,566
90,611	-9,308	264,818	125,467
91,626	-9,150	264,747	125,565
92,641	-9,197	264,436	125,364
93,655	-9,163	264,165	125,254
94,670	-9,211	263,952	125,099
95,684	-9,273	263,822	124,970
96,699	-9,031	263,556	125,051
97,714	-9,307	263,584	124,806
98,728	-9,285	263,049	124,560
99,743	-9,409	262,913	124,375
100,757	-9,438	262,711	124,242
101,772	-9,312	262,503	124,244
102,787	-9,331	262,405	124,171
103,801	-9,333	262,176	124,049
104,816	-9,273	262,043	124,028
105,830	-9,038	261,913	124,164
106,845	-9,048	261,756	124,070
107,860	-9,042	261,444	123,917
108,874	-9,179	261,241	123,688
109,889	-9,280	261,099	123,520
110,903	-9,185	260,708	123,408
111,918	-9,055	260,584	123,453
112,933	-9,257	260,576	123,260
113,947	-9,210	260,284	123,153
114,962	-9,229	260,103	123,039
115,976	-9,088	259,870	123,043
116,991	-9,178	259,639	122,842
118,006	-9,131	259,497	122,806
119,020	-9,158	259,458	122,752
120,035	-9,024	259,219	122,746
121,049	-9,312	259,326	122,533
122,064	-9,043	258,815	122,516
123,079	-9,191	258,664	122,305
124,093	-9,117	258,440	122,252
125,108	-9,323	258,162	121,929
126,122	-9,627	257,984	121,569
127,137	-9,718	257,868	121,424
128,151	-9,337	257,530	121,587
129,166	-9,294	257,335	121,521
130,181	-9,554	257,202	121,221
131,195	-9,237	256,978	121,381
132,210	-9,192	256,832	121,340
133,224	-8,827	256,671	121,570
134,239	-9,107	256,602	121,283
135,254	-8,932	256,281	121,273
136,268	-9,002	256,135	121,132
137,283	-9,248	255,795	120,747
138,297	-9,578	255,616	120,367
139,312	-9,559	255,284	120,216
140,327	-9,285	255,333	120,465
141,341	-8,997	255,148	120,616
142,356	-9,068	255,062	120,503
143,370	-9,044	254,807	120,393
144,385	-8,941	254,661	120,401
145,400	-8,931	254,484	120,315
146,414	-9,100	254,361	120,102
147,429	-9,212	254,198	119,917
148,443	-8,734	253,767	120,114
149,458	-9,037	253,710	119,816
150,473	-8,932	253,722	119,902
151,487	-9,201	253,441	119,528
152,502	-9,057	253,320	119,583
153,516	-9,010	253,100	119,508
154,531	-8,891	252,747	119,432
155,546	-8,955	252,657	119,325
156,560	-8,998	252,503	119,205
157,575	-8,991	252,207	119,060
158,589	-9,085	252,109	118,923
159,604	-8,861	251,810	118,963
160,619	-8,959	251,813	118,869
161,633	-8,951	251,595	118,763
162,648	-8,974	251,550	118,712
163,662	-8,989	251,355	118,596
164,677	-8,871	251,106	118,569
165,692	-9,002	251,087	118,438
166,706	-8,809	250,766	118,439
167,721	-8,818	250,566	118,326
168,735	-8,862	250,575	118,283
169,750	-9,042	250,339	118,009
170,764	-8,921	250,151	118,012
171,779	-8,946	250,022	117,920
172,794	-8,887	249,767	117,838
173,808	-8,877	249,620	117,767
174,823	-9,222	249,288	117,310
175,837	-9,512	249,136	116,984
176,852	-8,955	249,051	117,401
177,867	-9,030	248,980	117,295
178,881	-8,879	248,855	117,352
179,896	-8,781	248,535	117,273
180,910	-8,845	248,490	117,187
181,925	-8,900	248,310	117,046
182,940	-8,833	248,152	117,017
183,954	-8,901	247,993	116,875
184,969	-9,107	248,049	116,719
185,983	-8,767	247,697	116,826
186,998	-8,713	247,440	116,740
188,013	-8,594	247,278	116,752
189,027	-8,734	247,074	116,529
190,042	-8,772	246,907	116,408
191,056	-8,638	246,699	116,411
192,071	-8,839	246,665	116,218
193,086	-8,919	246,380	116,007
194,100	-8,778	246,198	116,027
195,115	-8,753	246,108	115,996
196,129	-8,902	245,848	115,739
197,144	-8,800	245,638	115,714
198,159	-8,914	245,499	115,544
199,173	-8,905	245,364	115,478
200,188	-8,952	245,220	115,361
201,202	-9,011	244,874	115,139
202,217	-9,376	244,607	114,703
203,232	-9,379	244,347	114,569
204,246	-9,194	244,275	114,677
205,261	-8,581	244,381	115,220
206,275	-9,143	243,981	114,560
207,290	-6,059	245,153	117,640
208,304	-0,917	246,977	122,764
209,319	1,415	247,416	124,901
210,334	2,030	247,246	125,312
211,348	2,315	247,271	125,549
212,363	2,583	247,264	125,755
213,377	2,766	247,177	125,851
214,392	2,744	247,007	125,736
215,407	2,789	246,654	125,582
216,421	2,833	246,570	125,564
217,436	2,844	246,468	125,510
218,450	2,824	246,340	125,417
219,465	2,696	246,162	125,210
220,480	2,635	245,868	124,999
221,494	2,520	245,829	124,874
222,509	2,696	245,770	124,977
223,523	2,604	245,540	124,773
224,538	2,355	245,191	124,382
225,553	2,338	245,106	124,314
226,567	2,390	244,904	124,242
227,582	2,730	244,735	124,423
228,596	2,691	244,696	124,361
229,611	2,112	244,557	123,806
230,626	2,181	244,240	123,691
231,640	2,434	244,085	123,807
232,655	2,601	243,924	123,850
233,669	2,230	243,779	123,465
234,684	2,160	243,574	123,292
235,699	2,645	243,560	123,669
236,713	2,916	243,529	123,862
237,728	2,397	243,365	123,346
238,742	2,337	243,011	123,107
239,757	2,424	242,776	123,047
240,772	2,257	242,687	122,857
241,786	2,425	242,602	122,938
242,801	2,363	242,198	122,673
243,815	2,118	242,179	122,454
244,830	2,452	242,120	122,683
245,844	2,476	242,043	122,652
246,859	2,251	241,860	122,368
247,874	2,599	241,591	122,500
248,888	2,640	241,425	122,438
249,903	2,592	241,386	122,368
250,917	2,593	241,414	122,372
251,932	2,835	241,275	122,486
252,947	2,568	240,870	122,055
253,961	2,356	240,503	121,689
254,976	2,569	240,521	121,857
255,990	2,806	240,384	121,966
257,005	2,241	240,154	121,387
258,020	2,244	239,933	121,268
259,034	2,551	239,769	121,419
260,049	2,508	239,828	121,404
261,063	2,529	239,366	121,175
262,078	2,275	239,420	120,990
263,093	2,525	239,253	121,094
264,107	2,561	239,057	121,012
265,122	2,460	238,976	120,880
266,136	2,666	238,800	120,944
267,151	2,750	238,794	120,997
268,166	2,485	238,441	120,596
269,180	2,068	238,401	120,235
270,195	2,758	238,365	120,753
271,209	2,855	238,375	120,824
272,224	2,404	237,850	120,191
273,239	2,323	237,717	120,049
274,253	2,351	237,571	119,987
275,268	2,611	237,434	120,112
276,282	2,449	237,329	119,920
277,297	2,229	237,254	119,698
278,312	2,308	236,971	119,607
279,326	2,779	236,896	119,929
280,341	2,673	236,634	119,703
281,355	2,550	236,641	119,599
282,370	2,751	236,460	119,654
283,384	2,749	236,305	119,564
284,399	2,223	236,207	119,092
285,414	2,488	235,848	119,107
286,428	2,312	235,817	118,943
287,443	2,480	235,750	119,030
288,457	2,659	235,572	119,069
289,472	2,640	235,581	119,048
290,487	2,345	235,327	118,679
291,501	2,038	235,118	118,324
292,516	2,053	234,800	118,165
293,530	2,045	234,764	118,130
294,545	2,344	234,706	118,323
295,560	2,339	234,440	118,174
296,574	2,252	234,329	118,041
297,589	2,054	234,014	117,718
298,603	2,694	234,049	118,221
299,618	2,867	233,876	118,257
300,633	2,635	233,891	118,075
301,647	2,775	233,706	118,079
302,662	3,139	233,623	118,308
303,676	2,928	233,448	118,046
304,691	2,936	233,288	117,961
305,706	2,783	233,084	117,729
306,720	2,935	233,008	117,797
307,735	2,759	232,774	117,532
308,749	2,830	232,513	117,445
309,764	2,414	232,464	117,090
310,779	2,271	232,161	116,816
311,793	2,256	231,838	116,633
312,808	2,200	231,895	116,608
313,822	2,252	231,657	116,518
314,837	2,185	231,480	116,367
315,852	2,222	231,340	116,314
316,866	2,484	231,367	116,518
317,881	2,716	231,203	116,603
318,895	2,892	231,162	116,706
319,910	3,078	230,882	116,696
320,925	2,694	230,859	116,381
321,939	2,613	230,569	116,162
322,954	2,743	230,495	116,215
323,968	2,588	230,336	116,006
324,983	2,669	230,127	115,952
325,997	2,690	230,166	115,977
327,012	2,502	229,831	115,655
328,027	2,336	229,584	115,395
329,041	2,515	229,655	115,556
330,056	3,465	229,707	116,292
331,070	3,413	229,487	116,131
332,085	3,095	229,198	115,734
333,100	2,638	229,114	115,336
334,114	2,586	228,942	115,199
335,129	2,811	228,705	115,240
336,143	2,957	228,663	115,318
337,158	2,919	228,645	115,270
338,173	3,076	228,378	115,244
339,187	2,753	228,211	114,906
340,202	2,895	228,222	115,008
341,216	2,926	227,872	114,845
342,231	2,697	227,778	114,616
343,246	2,892	227,490	114,606
344,260	2,695	227,726	114,567
345,275	3,044	227,577	114,744
346,289	2,713	227,333	114,363
347,304	2,920	227,291	114,486
348,319	3,103	226,979	114,456
349,333	2,820	226,750	114,119
350,348	2,604	226,590	113,866
351,362	2,863	226,481	113,996
352,377	2,643	226,322	113,740
353,392	2,630	226,215	113,668
354,406	2,538	226,180	113,571
355,421	196,838	1320,771	1401,855
356,435	157,842	1454,140	1401,863
