DTS Sentinel unit serial number:	SN410029Multiplexer serial number:	ORYXHardware model number:	OX2-SRSoftware version number:	ORYX F/W v4,00 Oryx Data Collector v3.7.2.0data status	okinstallation	B5 Nyhavnadifferential loss correction	single-endedforward channel	channel 2reverse channel	N/Adate	2023/12/13time	09:17:13forward acquisition time	300,00reverse acquisition time	0,00gamma	499,1914k internal	0,3160k external	0,3160temperature offset calibration	1,0000default loss term (dB/km)	0,3820temperature slope calibration	1,0000multiplexer offset coefficient	1,0000multiplexer slope coefficient	1,0000fibre end	0,00T internal ref (°C)	13,65T ext. ref 1 (°C)	-2,71T ext. ref 2 (°C)	-3,03length (m)	temperature (°C)	Stokes	anti-Stokes-744,400	11,035	0,121	0,068
-743,385	-65,476	-0,260	-0,076
-742,371	116,340	0,115	0,104
-741,356	-150,106	-0,235	0,013
-740,342	166,927	0,086	0,090
-739,327	-129,633	-0,431	0,043
-738,312	-145,935	0,104	-0,007
-737,298	-49,972	-0,190	0,066
-736,283	-95,886	0,171	0,033
-735,269	-81,264	-0,316	0,076
-734,254	-169,009	0,088	-0,002
-733,239	-89,636	-0,477	-0,102
-732,225	-91,020	0,188	0,040
-731,210	-200,000	0,007	0,096
-730,196	-35,840	-0,081	-0,032
-729,181	103,243	-0,064	0,055
-728,167	107,205	0,044	0,039
-727,152	-113,627	0,112	0,016
-726,137	338,856	-0,050	0,072
-725,123	800,000	-0,047	0,153
-724,108	-70,447	-0,138	-0,038
-723,094	-10,237	-0,147	0,071
-722,079	353,841	-0,051	-0,075
-721,064	-35,739	-0,073	0,029
-720,050	-92,391	0,128	-0,026
-719,035	-200,000	0,009	-0,124
-718,021	273,847	-0,049	-0,064
-717,006	-71,744	-0,120	0,033
-715,991	255,518	-0,054	0,068
-714,977	192,588	0,138	0,154
-713,962	800,000	0,025	0,078
-712,948	-126,845	0,088	0,009
-711,933	-46,268	-0,034	-0,012
-710,918	800,000	-0,041	-0,091
-709,904	-41,443	-0,218	-0,082
-708,889	-49,411	-0,034	-0,012
-707,875	-200,000	-0,039	-0,272
-706,860	326,707	-0,033	-0,047
-705,845	-200,000	-0,009	0,128
-704,831	800,000	-0,063	0,156
-703,816	-6,449	-0,018	0,009
-702,802	-200,000	-0,020	0,122
-701,787	800,000	0,034	-0,078
-700,772	800,000	-0,011	0,034
-699,758	214,580	-0,070	-0,082
-698,743	-129,272	0,234	0,024
-697,729	-200,000	-0,005	0,102
-696,714	-200,000	0,034	0,143
-695,699	800,000	-0,036	-0,108
-694,685	-200,000	-0,010	0,044
-693,670	-132,206	0,060	-0,006
-692,656	-85,982	-0,038	0,009
-691,641	-200,000	0,017	0,062
-690,627	6,458	-0,073	-0,040
-689,612	-126,358	0,154	-0,017
-688,597	-200,000	-0,013	-0,139
-687,583	800,000	0,039	-0,098
-686,568	-200,000	0,005	-0,059
-685,554	-200,000	0,016	-0,073
-684,539	-200,000	-0,021	0,133
-683,524	76,158	-0,023	-0,018
-682,510	-106,353	0,107	0,017
-681,495	-200,000	-0,006	-0,078
-680,481	-130,972	-0,088	-0,009
-679,466	196,633	-0,051	-0,057
-678,451	98,338	-0,048	0,041
-677,437	800,000	0,068	-0,202
-676,422	127,148	0,052	0,049
-675,408	107,298	-0,102	-0,089
-674,393	-148,042	-0,069	-0,004
-673,378	-200,000	0,002	-0,053
-672,364	-17,660	-0,206	-0,095
-671,349	-92,594	-0,070	-0,014
-670,335	-153,200	-0,088	-0,004
-669,320	190,311	-0,065	-0,071
-668,305	-200,000	-0,012	-0,042
-667,291	-68,935	-0,067	-0,019
-666,276	108,320	0,053	-0,046
-665,262	685,608	-0,067	0,129
-664,247	800,000	0,017	0,044
-663,232	-160,135	0,060	-0,002
-662,218	-200,000	0,007	0,117
-661,203	-200,000	-0,132	0,000
-660,189	-142,354	-0,148	0,011
-659,174	800,000	-0,003	0,010
-658,159	-83,129	-0,129	0,030
-657,145	187,805	-0,004	0,005
-656,130	-75,381	0,129	-0,034
-655,116	-34,138	-0,080	-0,032
-654,101	137,974	-0,084	-0,081
-653,086	-138,500	-0,098	-0,008
-652,072	-200,000	-0,005	-0,080
-651,057	-108,801	-0,039	-0,006
-650,043	-89,309	0,121	0,026
-649,028	-200,000	0,031	-0,176
-648,014	-184,796	0,060	-0,001
-646,999	0,752	0,073	-0,038
-645,984	87,257	-0,037	-0,030
-644,970	-65,372	-0,134	0,039
-643,955	200,745	-0,077	0,088
-642,941	22,513	0,027	-0,016
-641,926	-200,000	-0,007	-0,026
-640,911	49,768	0,028	-0,019
-639,897	692,412	0,091	0,175
-638,882	-200,000	-0,005	0,065
-637,868	-67,470	0,038	0,011
-636,853	800,000	-0,014	0,034
-635,838	95,721	0,032	0,027
-634,824	800,000	0,057	-0,124
-633,809	22,565	0,072	0,043
-632,795	-200,000	-0,018	0,132
-631,780	424,874	-0,038	0,060
-630,765	-50,588	-0,143	-0,049
-629,751	-28,551	-0,072	0,030
-628,736	-45,640	-0,068	0,025
-627,722	11,154	0,045	0,025
-626,707	67,880	-0,168	0,125
-625,692	-200,000	0,022	0,119
-624,678	170,234	0,070	0,074
-623,663	800,000	-0,055	-0,170
-622,649	-46,729	-0,053	-0,019
-621,634	-200,000	-0,007	-0,081
-620,619	15,042	-0,108	-0,062
-619,605	38,373	-0,051	-0,033
-618,590	-63,600	-0,065	-0,019
-617,576	-200,000	-0,043	0,138
-616,561	-149,681	-0,167	-0,009
-615,546	-134,367	-0,048	0,004
-614,532	800,000	-0,071	-0,193
-613,517	570,634	0,039	-0,070
-612,503	687,470	-0,037	-0,071
-611,488	92,954	-0,123	-0,102
-610,474	85,890	0,074	0,059
-609,459	-146,903	-0,067	-0,004
-608,444	-200,000	-0,011	-0,080
-607,430	305,374	-0,043	-0,059
-606,415	-200,000	-0,001	0,014
-605,401	800,000	0,015	-0,042
-604,386	374,270	0,037	0,055
-603,371	315,807	0,094	0,131
-602,357	-200,000	0,001	0,029
-601,342	150,073	-0,015	0,015
-600,328	93,371	-0,122	-0,101
-599,313	48,544	0,085	-0,058
-598,298	15,790	0,068	0,039
-597,284	-161,888	0,123	-0,004
-596,269	-7,921	-0,022	0,011
-595,255	282,654	-0,047	-0,061
-594,240	-6,229	-0,179	-0,089
-593,225	-200,000	-0,017	0,096
-592,211	19,938	0,072	0,042
-591,196	234,681	0,064	0,077
-590,182	-60,048	-0,052	-0,016
-589,167	-171,914	-0,036	0,001
-588,152	-200,000	0,022	0,242
-587,138	-200,000	-0,029	0,171
-586,123	800,000	0,017	0,037
-585,109	132,556	-0,057	-0,053
-584,094	-200,000	-0,017	0,070
-583,079	70,953	0,023	-0,018
-582,065	-200,000	0,004	0,045
-581,050	549,528	-0,042	-0,073
-580,036	118,163	-0,084	-0,075
-579,021	26,670	-0,064	0,039
-578,006	-200,000	-0,006	-0,058
-576,992	40,532	-0,042	-0,027
-575,977	-55,893	0,167	-0,054
-574,963	-200,000	0,006	-0,047
-573,948	397,058	0,018	0,028
-572,934	664,034	-0,045	0,086
-571,919	-146,329	-0,157	-0,010
-570,904	-71,179	-0,022	0,006
-569,890	297,232	-0,080	-0,107
-568,875	555,921	-0,052	-0,092
-567,861	-200,000	0,025	0,170
-566,846	147,256	0,058	0,057
-565,831	-200,000	-0,035	0,147
-564,817	-200,000	0,007	-0,101
-563,802	-107,682	-0,108	-0,017
-562,788	-0,283	-0,020	0,011
-561,773	53,881	0,054	0,038
-560,758	144,317	0,134	0,131
-559,744	247,233	-0,099	-0,123
-558,729	-200,000	-0,016	0,071
-557,715	415,459	-0,046	0,073
-556,700	800,000	0,026	0,065
-555,685	99,883	-0,070	-0,059
-554,671	-200,000	-0,022	0,110
-553,656	-200,000	-0,026	0,151
-552,642	-66,290	0,112	-0,032
-551,627	27,395	-0,034	-0,021
-550,612	62,641	0,180	-0,131
-549,598	312,919	-0,029	0,039
-548,583	192,985	-0,035	0,039
-547,569	-200,000	0,002	-0,052
-546,554	-200,000	-0,007	-0,027
-545,539	-200,000	-0,013	0,077
-544,525	-200,000	-0,028	-0,104
-543,510	800,000	0,061	-0,136
-542,496	-200,000	-0,011	-0,111
-541,481	686,837	-0,021	-0,040
-540,466	-16,603	-0,175	0,081
-539,452	-153,028	-0,163	0,008
-538,437	795,287	0,022	0,045
-537,423	66,345	-0,034	0,025
-536,408	-200,000	0,044	-0,169
-535,393	-200,000	0,034	-0,124
-534,379	45,704	-0,053	-0,036
-533,364	182,563	0,115	-0,125
-532,350	-165,441	0,071	0,002
-531,335	-44,083	0,024	0,009
-530,321	465,777	0,075	-0,123
-529,306	163,182	0,034	0,035
-528,291	-200,000	-0,015	-0,136
-527,277	-125,291	-0,146	-0,016
-526,262	31,268	0,091	-0,057
-525,248	-43,937	-0,028	-0,010
-524,233	-24,438	0,092	-0,040
-523,218	-76,485	0,130	-0,033
-522,204	373,558	-0,076	-0,113
-521,189	439,059	0,048	-0,077
-520,175	-89,909	-0,118	0,025
-519,160	96,648	-0,064	-0,054
-518,145	65,372	0,057	-0,042
-517,131	282,241	0,019	0,025
-516,116	63,143	0,077	0,056
-515,102	547,604	0,059	0,104
-514,087	13,637	0,016	0,009
-513,072	-101,989	-0,131	-0,023
-512,058	-94,124	0,103	0,020
-511,043	217,675	-0,035	0,041
-510,029	-200,000	-0,013	-0,075
-509,014	276,908	0,032	0,041
-507,999	-97,090	0,046	0,009
-506,985	-53,839	-0,044	0,014
-505,970	-200,000	0,012	-0,141
-504,956	786,609	0,042	-0,085
-503,941	-200,000	-0,013	0,069
-502,926	800,000	-0,020	0,059
-501,912	101,822	0,105	0,089
-500,897	-29,735	-0,013	0,006
-499,883	-200,000	-0,002	0,160
-498,868	12,051	0,088	0,049
-497,853	52,936	-0,164	-0,114
-496,839	-104,100	-0,055	0,009
-495,824	-200,000	0,012	0,062
-494,810	426,623	-0,082	0,130
-493,795	-200,000	0,003	0,046
-492,781	800,000	-0,035	-0,076
-491,766	19,561	-0,143	-0,083
-490,751	58,507	0,073	-0,052
-489,737	27,282	0,083	-0,051
-488,722	204,683	0,074	-0,084
-487,708	156,285	-0,111	0,112
-486,693	-123,007	0,084	-0,010
-485,678	-200,000	0,019	-0,095
-484,664	-69,101	0,036	-0,010
-483,649	-200,000	0,012	-0,049
-482,635	440,220	-0,037	0,059
-481,620	-69,922	-0,097	-0,027
-480,605	-114,699	0,232	-0,032
-479,591	-151,170	-0,073	-0,004
-478,576	-37,076	0,042	0,016
-477,562	56,943	0,029	0,020
-476,547	-200,000	-0,015	0,111
-475,532	-52,844	0,034	0,011
-474,518	-129,353	0,027	-0,003
-473,503	87,060	0,062	0,050
-472,489	-200,000	0,009	0,130
-471,474	-100,221	-0,084	0,015
-470,459	36,127	-0,110	0,070
-469,445	12,404	0,012	0,006
-468,430	-36,664	0,103	-0,040
-467,416	-200,000	-0,016	0,054
-466,401	-10,591	0,022	-0,011
-465,386	-200,000	-0,024	0,104
-464,372	417,596	0,014	-0,022
-463,357	-200,000	0,017	0,060
-462,343	800,000	0,017	0,037
-461,328	800,000	0,016	0,051
-460,313	800,000	0,039	0,083
-459,299	103,886	0,077	0,066
-458,284	397,565	-0,070	-0,107
-457,270	606,770	-0,112	-0,204
-456,255	-200,000	-0,027	0,110
-455,241	-200,000	0,016	-0,122
-454,226	58,562	-0,070	-0,050
-453,211	188,622	-0,030	0,033
-452,197	-200,000	0,028	0,094
-451,182	-131,744	0,083	0,008
-450,168	788,052	-0,041	0,082
-449,153	126,516	-0,072	-0,067
-448,138	246,832	-0,026	-0,032
-447,124	-130,399	-0,076	-0,007
-446,109	24,565	-0,067	0,040
-445,095	-200,000	0,005	0,055
-444,080	-112,743	-0,039	0,006
-443,065	-98,921	0,085	0,016
-442,051	514,975	0,062	-0,105
-441,036	206,166	-0,096	-0,109
-440,022	128,176	-0,069	0,064
-439,007	-196,803	0,109	0,001
-437,992	286,238	0,093	0,122
-436,978	140,794	-0,074	0,071
-435,963	-95,876	0,052	-0,010
-434,949	800,000	0,055	0,140
-433,934	498,534	-0,064	0,107
-432,919	800,000	0,028	0,073
-431,905	141,307	-0,061	-0,059
-430,890	354,976	0,092	0,134
-429,876	-118,456	-0,063	-0,008
-428,861	-53,902	-0,044	-0,015
-427,846	-29,227	-0,058	-0,024
-426,832	-200,000	0,008	-0,048
-425,817	57,985	-0,166	-0,118
-424,803	-200,000	-0,001	0,057
-423,788	-21,020	0,069	0,031
-422,773	-200,000	0,023	0,127
-421,759	-20,170	0,049	-0,022
-420,744	152,959	-0,156	0,155
-419,730	-200,000	0,016	-0,072
-418,715	-200,000	-0,006	-0,077
-417,701	-200,000	0,003	-0,127
-416,686	166,347	-0,056	0,058
-415,671	800,000	0,021	0,057
-414,657	800,000	0,033	-0,077
-413,642	31,145	0,050	-0,031
-412,628	-102,072	-0,146	0,025
-411,613	81,705	-0,019	-0,015
-410,598	-200,000	-0,014	-0,129
-409,584	-200,000	-0,010	-0,074
-408,569	800,000	0,059	0,160
-407,555	209,897	-0,066	0,075
-406,540	-200,000	0,026	0,168
-405,525	24,333	-0,090	0,054
-404,511	-65,413	0,081	-0,023
-403,496	800,000	-0,016	-0,042
-402,482	-200,000	0,026	0,142
-401,467	-22,660	0,063	-0,028
-400,452	151,827	0,091	-0,090
-399,438	118,971	-0,035	-0,031
-398,423	79,210	0,122	0,095
-397,409	-131,040	-0,155	0,015
-396,394	161,564	0,019	0,020
-395,379	25,496	0,038	-0,023
-394,365	-104,084	0,167	0,028
-393,350	-57,023	0,037	0,012
-392,336	-197,606	-0,132	-0,001
-391,321	-200,000	0,030	0,137
-390,306	-117,976	-0,061	-0,008
-389,292	-186,133	0,085	0,001
-388,277	-117,855	-0,032	0,004
-387,263	-169,433	0,053	-0,001
-386,248	-122,261	-0,051	-0,006
-385,233	130,360	0,144	0,134
-384,219	141,030	0,052	0,050
-383,204	17,230	-0,020	-0,012
-382,190	-136,403	-0,073	0,006
-381,175	42,202	0,128	0,084
-380,160	-200,000	0,010	0,121
-379,146	795,337	0,052	-0,104
-378,131	68,601	0,057	-0,042
-377,117	-195,119	0,063	0,000
-376,102	-149,277	-0,100	0,006
-375,088	-7,869	-0,031	-0,015
-374,073	-11,673	0,094	0,045
-373,058	800,000	-0,041	0,100
-372,044	102,654	-0,092	0,078
-371,029	63,714	0,043	-0,031
-370,015	800,000	0,003	0,008
-369,000	800,000	-0,015	-0,047
-367,985	-200,000	-0,011	-0,106
-366,971	515,660	0,041	0,070
-365,956	-200,000	-0,007	0,061
-364,942	92,704	0,029	0,024
-363,927	639,904	-0,022	0,040
-362,912	316,300	-0,041	0,056
-361,898	-87,216	-0,152	-0,033
-360,883	29,734	0,145	0,089
-359,869	300,457	-0,071	-0,095
-358,854	-200,000	0,004	-0,098
-357,839	800,000	0,045	0,120
-356,825	-56,521	0,075	-0,024
-355,810	-16,996	0,146	-0,067
-354,796	-126,161	0,111	-0,012
-353,781	203,162	-0,049	-0,055
-352,766	-45,414	-0,037	-0,013
-351,752	45,217	-0,139	0,093
-350,737	79,817	-0,096	-0,075
-349,723	800,000	0,037	-0,112
-348,708	-56,081	-0,095	0,030
-347,693	-200,000	0,020	-0,067
-346,679	38,440	-0,047	-0,031
-345,664	-39,367	-0,020	0,007
-344,650	4,725	0,050	-0,027
-343,635	-200,000	-0,008	0,048
-342,620	697,882	0,050	-0,096
-341,606	800,000	0,024	-0,057
-340,591	-62,544	0,061	0,018
-339,577	-200,000	0,001	0,142
-338,562	800,000	-0,044	0,098
-337,548	102,878	0,092	-0,078
-336,533	68,446	0,094	0,070
-335,518	-200,000	0,007	0,043
-334,504	-200,000	0,002	-0,017
-333,489	251,766	0,038	0,047
-332,475	232,954	-0,068	-0,082
-331,460	37,506	-0,157	-0,101
-330,445	-104,108	0,030	-0,005
-329,431	-82,277	0,123	0,029
-328,416	249,381	0,042	-0,052
-327,402	-53,155	0,157	-0,052
-326,387	-104,411	0,024	0,004
-325,372	-161,926	-0,094	-0,003
-324,358	-59,972	-0,173	0,053
-323,343	-127,679	0,092	0,009
-322,329	-200,000	0,029	0,113
-321,314	123,557	-0,122	-0,111
-320,299	-91,423	0,120	-0,025
-319,285	94,301	0,076	0,062
-318,270	-200,000	-0,005	-0,017
-317,256	306,986	0,044	0,059
-316,241	-200,000	0,001	0,038
-315,226	-200,000	-0,014	0,071
-314,212	-61,356	-0,064	0,019
-313,197	438,623	0,073	-0,115
-312,183	216,414	-0,040	0,046
-311,168	44,448	0,103	-0,068
-310,153	294,134	0,052	-0,069
-309,139	139,820	0,036	-0,035
-308,124	-38,465	-0,057	0,022
-307,110	164,364	0,086	0,087
-306,095	800,000	0,030	-0,074
-305,080	29,457	-0,041	-0,025
-304,066	-200,000	-0,036	0,125
-303,051	800,000	-0,042	0,114
-302,037	-150,079	0,154	0,009
-301,022	177,379	0,103	0,109
-300,008	-76,197	-0,101	-0,026
-298,993	-106,974	0,132	-0,021
-297,978	-72,646	0,043	0,011
-296,964	7,031	0,112	-0,060
-295,949	310,405	-0,074	-0,100
-294,935	800,000	0,036	-0,078
-293,920	-200,000	0,027	-0,096
-292,905	-200,000	0,036	0,174
-291,891	133,018	0,042	0,040
-290,876	282,351	0,031	0,041
-289,862	-200,000	-0,002	0,062
-288,847	-200,000	0,011	-0,108
-287,832	-56,317	-0,102	0,033
-286,818	92,483	0,025	0,020
-285,803	89,958	-0,082	0,066
-284,789	-200,000	-0,015	0,060
-283,774	-3,954	0,054	-0,027
-282,759	800,000	0,010	-0,024
-281,745	-200,000	0,006	-0,094
-280,730	-126,665	-0,078	-0,008
-279,716	-172,612	0,025	0,001
-278,701	-200,000	0,004	-0,027
-277,686	562,945	0,088	-0,156
-276,672	3,019	-0,137	0,072
-275,657	-64,065	-0,061	-0,018
-274,643	-200,000	0,007	-0,094
-273,628	-200,000	-0,003	0,084
-272,613	-200,000	-0,005	-0,244
-271,599	-167,677	0,123	0,003
-270,584	5,495	0,095	-0,051
-269,570	-64,158	-0,053	0,016
-268,555	-109,403	-0,072	-0,011
-267,540	130,701	-0,037	-0,034
-266,526	159,008	-0,054	-0,055
-265,511	3,559	0,066	-0,035
-264,497	-41,622	-0,164	-0,061
-263,482	-120,788	0,083	0,010
-262,467	-200,000	0,003	0,052
-261,453	-200,000	-0,050	0,178
-260,438	-200,000	0,008	0,096
-259,424	-18,736	-0,011	0,005
-258,409	-90,612	-0,018	0,004
-257,395	59,712	0,101	0,072
-256,380	-70,965	-0,042	-0,011
-255,365	-23,165	0,137	0,059
-254,351	-103,169	-0,166	0,028
-253,336	-116,303	-0,100	-0,013
-252,322	-200,000	-0,008	-0,093
-251,307	800,000	0,044	-0,103
-250,292	-200,000	-0,013	-0,101
-249,278	-200,000	-0,016	0,109
-248,263	-99,775	-0,081	-0,015
-247,249	-191,215	-0,073	-0,001
-246,234	-52,516	-0,121	0,040
-245,219	800,000	-0,022	0,069
-244,205	800,000	-0,029	-0,074
-243,190	180,121	-0,037	-0,039
-242,176	30,049	-0,057	-0,035
-241,161	-200,000	-0,003	0,126
-240,146	107,122	-0,083	-0,071
-239,132	800,000	0,033	-0,101
-238,117	-200,000	-0,008	0,044
-237,103	-128,892	-0,073	-0,007
-236,088	-200,000	0,014	0,069
-235,073	-64,395	0,162	-0,047
-234,059	800,000	0,031	0,090
-233,044	-200,000	0,013	-0,084
-232,030	-200,000	-0,036	0,130
-231,015	64,407	0,033	-0,024
-230,000	800,000	-0,055	-0,114
-228,986	-133,665	0,071	-0,006
-227,971	-200,000	0,008	-0,103
-226,957	413,131	0,023	0,036
-225,942	150,297	0,032	0,032
-224,927	2,196	0,104	0,054
-223,913	-130,054	-0,116	-0,011
-222,898	72,231	0,066	-0,050
-221,884	-166,733	0,079	-0,002
-220,869	-200,000	-0,005	0,063
-219,855	-60,972	0,141	0,043
-218,840	5,849	0,118	0,063
-217,825	303,034	-0,057	-0,076
-216,811	-200,000	-0,011	-0,049
-215,796	-200,000	-0,014	-0,211
-214,782	-200,000	-0,044	-0,211
-213,767	800,000	0,055	0,138
-212,752	111,616	0,072	0,063
-211,738	139,276	-0,082	-0,078
-210,723	-200,000	-0,012	-0,106
-209,709	-200,000	0,032	-0,131
-208,694	275,492	0,047	-0,060
-207,679	-56,346	-0,120	-0,038
-206,665	-154,627	0,021	0,001
-205,650	800,000	-0,020	-0,054
-204,636	-200,000	-0,022	0,115
-203,621	-200,000	0,034	-0,126
-202,606	-200,000	-0,004	-0,034
-201,592	-25,875	-0,062	0,026
-200,577	800,000	-0,100	-0,234
-199,563	615,056	0,008	-0,015
-198,548	-8,171	-0,061	0,029
-197,533	377,561	0,058	0,086
-196,519	800,000	0,048	-0,137
-195,504	-147,792	0,038	0,002
-194,490	-15,059	-0,103	-0,047
-193,475	800,000	-0,027	-0,074
-192,460	-166,162	-0,104	-0,003
-191,446	55,105	0,129	0,090
-190,431	29,088	0,124	0,075
-189,417	-200,000	0,010	0,099
-188,402	-89,574	0,086	0,018
-187,387	-81,636	-0,007	-0,002
-186,373	-15,137	0,154	-0,071
-185,358	800,000	-0,030	-0,094
-184,344	-92,826	0,160	0,032
-183,329	800,000	0,062	0,152
-182,315	118,255	-0,108	0,096
-181,300	-88,569	-0,037	0,008
-180,285	231,678	0,096	0,114
-179,271	800,000	0,040	-0,127
-178,256	-84,835	-0,058	0,013
-177,242	21,930	-0,105	0,061
-176,227	50,895	0,061	-0,042
-175,212	-86,098	0,141	-0,031
-174,198	26,739	-0,033	-0,020
-173,183	112,276	-0,085	-0,074
-172,169	257,222	0,016	0,020
-171,154	-17,101	-0,036	-0,016
-170,139	-3,114	0,078	-0,039
-169,125	-63,036	0,087	0,026
-168,110	686,206	0,073	0,137
-167,096	-200,000	-0,041	0,137
-166,081	65,807	-0,007	0,005
-165,066	-200,000	0,027	-0,269
-164,052	-115,855	-0,048	0,006
-163,037	-30,288	0,080	0,033
-162,023	800,000	-0,015	-0,041
-161,008	-22,611	0,244	0,106
-159,993	800,000	0,024	-0,068
-158,979	89,640	-0,027	-0,022
-157,964	82,019	-0,072	-0,056
-156,950	215,165	-0,063	0,072
-155,935	800,000	0,052	-0,116
-154,920	-200,000	-0,003	-0,070
-153,906	-165,226	-0,098	0,003
-152,891	-126,446	-0,022	-0,002
-151,877	-31,687	-0,040	0,016
-150,862	-200,000	0,019	-0,190
-149,847	800,000	-0,088	-0,210
-148,833	-200,000	0,013	-0,105
-147,818	207,019	-0,080	0,090
-146,804	202,522	-0,081	0,090
-145,789	115,423	0,099	-0,087
-144,775	-186,252	0,029	0,000
-143,760	265,897	-0,068	-0,086
-142,745	454,918	-0,083	0,132
-141,731	236,715	0,066	0,078
-140,716	1,566	0,079	0,041
-139,702	-200,000	0,012	0,103
-138,687	27,944	0,070	-0,042
-137,672	-13,506	-0,104	-0,048
-136,658	225,078	0,039	-0,045
-135,643	332,133	0,050	-0,070
-134,629	-86,793	0,094	0,021
-133,614	800,000	-0,044	-0,105
-132,599	-35,004	-0,046	-0,018
-131,585	46,924	0,088	0,058
-130,570	-200,000	0,012	-0,073
-129,556	800,000	0,039	-0,096
-128,541	519,448	-0,093	-0,157
-127,526	-165,588	0,077	-0,002
-126,512	-200,000	0,024	0,112
-125,497	800,000	0,040	-0,089
-124,483	-200,000	0,030	-0,105
-123,468	517,929	0,041	-0,069
-122,453	312,565	-0,071	-0,096
-121,439	-200,000	0,013	-0,081
-120,424	800,000	0,036	0,087
-119,410	800,000	0,047	0,134
-118,395	-200,000	-0,010	0,077
-117,380	25,972	0,142	0,085
-116,366	229,357	-0,071	0,083
-115,351	-200,000	-0,019	0,070
-114,337	343,336	-0,061	-0,087
-113,322	19,120	-0,085	0,049
-112,307	-200,000	0,006	-0,076
-111,293	-200,000	-0,012	-0,067
-110,278	-60,257	0,055	0,017
-109,264	-61,673	-0,034	0,010
-108,249	800,000	-0,057	0,151
-107,234	190,659	-0,058	0,063
-106,220	210,878	-0,036	0,041
-105,205	137,301	0,118	0,111
-104,191	-1,541	-0,088	0,044
-103,176	719,055	0,107	0,205
-102,162	-15,501	-0,038	0,017
-101,147	-134,295	0,088	-0,008
-100,132	394,260	0,041	-0,062
-99,118	35,710	-0,027	-0,017
-98,103	224,199	0,037	0,043
-97,089	-200,000	0,004	-0,021
-96,074	-115,055	-0,086	0,012
-95,059	-144,895	0,108	-0,007
-94,045	-190,163	-0,032	-0,000
-93,030	254,588	0,122	0,150
-92,016	-139,193	-0,020	-0,002
-91,001	800,000	-0,065	-0,165
-89,986	664,469	-0,013	0,025
-88,972	161,726	0,095	-0,096
-87,957	-87,641	0,141	0,030
-86,943	151,873	0,129	0,126
-85,928	532,324	-0,124	-0,212
-84,913	398,694	0,048	-0,072
-83,899	-162,086	-0,039	0,001
-82,884	-200,000	0,023	-0,127
-81,870	172,662	-0,072	-0,074
-80,855	184,463	-0,033	0,035
-79,840	46,553	0,044	0,029
-78,826	60,530	-0,028	-0,020
-77,811	472,691	-0,014	-0,023
-76,797	-200,000	0,006	-0,134
-75,782	-36,175	-0,044	0,017
-74,767	-94,241	-0,094	0,018
-73,753	-200,000	0,009	-0,106
-72,738	-200,000	-0,041	-0,153
-71,724	34,164	-0,121	-0,076
-70,709	-200,000	0,050	-0,161
-69,694	97,789	0,016	0,013
-68,680	316,396	-0,059	0,080
-67,665	628,967	0,038	0,069
-66,651	221,417	-0,126	0,146
-65,636	-159,727	0,104	-0,004
-64,622	-42,321	-0,056	-0,020
-63,607	-200,000	-0,013	0,115
-62,592	143,264	0,088	-0,084
-61,578	-200,000	0,005	0,081
-60,563	101,161	0,012	0,010
-59,549	-158,902	-0,114	-0,005
-58,534	44,741	-2,024	-1,333
-57,519	-200,000	-0,202	-0,989
-56,505	-200,000	-1,287	-5,054
-55,490	108,898	0,850	0,729
-54,476	800,000	5,422	12,096
-53,461	-200,000	18,634	317,677
-52,446	800,000	741,741	2334,542
-51,432	558,341	1657,400	2878,467
-50,417	111,079	1641,043	1416,874
-49,403	75,349	1291,190	975,744
-48,388	30,237	1031,635	630,021
-47,373	19,875	994,463	572,968
-46,359	17,326	982,021	557,382
-45,344	14,038	978,115	544,325
-44,330	14,355	976,478	544,436
-43,315	13,690	974,792	541,291
-42,300	13,674	973,587	540,548
-41,286	13,679	972,723	540,063
-40,271	13,696	971,578	539,464
-39,257	13,676	970,732	538,906
-38,242	13,688	969,838	538,428
-37,227	13,678	969,163	537,999
-36,213	13,687	967,980	537,350
-35,198	13,612	967,337	536,726
-34,184	13,701	966,663	536,621
-33,169	13,689	965,476	535,901
-32,154	13,672	964,609	535,345
-31,140	13,628	963,665	534,655
-30,125	13,773	962,769	534,609
-29,111	13,672	962,249	533,972
-28,096	13,637	961,525	533,435
-27,082	13,731	960,759	533,292
-26,067	13,725	960,021	532,844
-25,052	13,660	959,391	532,263
-24,038	13,629	958,694	531,754
-23,023	13,682	957,973	531,505
-22,009	13,719	957,489	531,332
-20,994	13,734	956,678	530,909
-19,979	13,684	956,136	530,428
-18,965	13,672	955,347	529,931
-17,950	13,693	954,961	529,764
-16,936	13,600	954,391	529,126
-15,921	13,673	953,563	528,880
-14,906	13,613	952,910	528,306
-13,892	13,542	952,268	527,702
-12,877	13,591	951,557	527,444
-11,863	13,515	951,017	526,878
-10,848	13,523	950,417	526,552
-9,833	13,660	949,705	526,574
-8,819	13,644	949,050	526,140
-7,804	13,576	948,562	525,630
-6,790	13,618	947,966	525,413
-5,775	13,655	947,303	525,143
-4,760	13,629	946,872	524,801
-3,746	13,619	946,080	524,309
-2,731	13,471	945,546	523,522
-1,717	13,381	944,691	522,742
-0,702	13,386	944,106	522,412
0,313	13,203	943,528	522,301
1,327	16,550	941,124	531,522
2,342	25,586	795,860	473,485
3,356	21,869	460,312	268,128
4,371	-4,967	317,327	156,035
5,386	-8,766	299,221	143,236
6,400	-10,829	293,096	138,224
7,415	-11,206	290,809	136,758
8,429	-11,310	289,070	135,825
9,444	-11,388	288,108	135,285
10,459	-11,459	287,555	134,943
11,473	-11,433	286,893	134,646
12,488	-11,292	286,396	134,539
13,502	-11,453	285,901	134,136
14,517	-11,311	285,424	134,039
15,531	-11,501	285,122	133,701
16,546	-11,237	284,544	133,675
17,561	-11,460	284,149	133,260
18,575	-11,281	283,871	133,292
19,590	-11,483	283,514	132,917
20,604	-11,316	283,321	132,976
21,619	-11,568	282,865	132,507
22,634	-11,396	282,521	132,499
23,648	-11,474	282,165	132,245
24,663	-11,316	281,911	132,267
25,677	-11,478	281,676	131,989
26,692	-11,441	281,345	131,857
27,707	-11,350	281,121	131,828
28,721	-11,192	280,800	131,818
29,736	-11,519	280,541	131,371
30,750	-11,493	280,326	131,284
31,765	-11,442	279,996	131,165
32,780	-11,483	279,743	130,997
33,794	-11,518	279,564	130,868
34,809	-11,437	279,289	130,804
35,823	-11,433	278,916	130,622
36,838	-11,595	278,783	130,394
37,853	-11,510	278,528	130,344
38,867	-11,427	278,314	130,311
39,882	-11,615	278,087	130,014
40,896	-11,565	277,744	129,890
41,911	-11,607	277,510	129,729
42,926	-11,503	277,351	129,741
43,940	-11,569	277,120	129,560
44,955	-11,548	276,722	129,382
45,969	-11,551	276,573	129,298
46,984	-11,695	276,339	129,041
47,999	-12,005	276,112	128,631
49,013	-11,836	275,819	128,643
50,028	-11,975	275,339	128,277
51,042	-12,251	275,163	127,924
52,057	-12,416	275,002	127,684
53,071	-12,154	274,756	127,804
54,086	-12,034	274,565	127,815
55,101	-11,793	274,364	127,935
56,115	-11,850	274,423	127,899
57,130	-11,396	274,171	128,193
58,144	-11,293	273,866	128,135
59,159	-11,381	273,716	127,972
60,174	-11,230	273,369	127,939
61,188	-11,370	273,337	127,782
62,203	-11,398	273,115	127,641
63,217	-11,306	272,851	127,592
64,232	-11,503	272,514	127,240
65,247	-11,395	272,531	127,337
66,261	-11,327	272,132	127,202
67,276	-11,461	271,769	126,897
68,290	-11,583	271,476	126,636
69,305	-11,650	271,173	126,422
70,320	-11,663	271,120	126,374
71,334	-11,759	271,082	126,257
72,349	-11,316	270,807	126,525
73,363	-11,313	270,530	126,388
74,378	-11,397	270,393	126,235
75,393	-11,299	270,105	126,179
76,407	-11,460	269,812	125,883
77,422	-11,368	269,709	125,908
78,436	-11,287	269,474	125,861
79,451	-11,353	269,262	125,691
80,466	-11,403	268,867	125,449
81,480	-11,484	268,707	125,290
82,495	-11,421	268,373	125,181
83,509	-11,574	268,359	125,023
84,524	-11,383	267,946	124,994
85,539	-11,776	267,912	124,608
86,553	-11,655	267,578	124,552
87,568	-11,648	267,517	124,519
88,582	-11,580	267,309	124,472
89,597	-11,570	267,107	124,377
90,611	-11,359	266,891	124,456
91,626	-11,360	266,698	124,354
92,641	-11,381	266,503	124,233
93,655	-11,431	266,326	124,095
94,670	-11,425	265,959	123,917
95,684	-11,379	265,887	123,915
96,699	-11,525	265,762	123,713
97,714	-11,416	265,360	123,614
98,728	-11,811	265,193	123,170
99,743	-11,615	264,935	123,215
100,757	-11,900	264,926	122,944
101,772	-11,437	264,501	123,151
102,787	-11,550	264,349	122,968
103,801	-11,423	264,248	123,024
104,816	-11,225	263,957	123,054
105,830	-11,381	263,981	122,915
106,845	-11,255	263,641	122,859
107,860	-11,261	263,416	122,737
108,874	-11,411	263,331	122,553
109,889	-11,370	263,121	122,481
110,903	-11,424	262,827	122,285
111,918	-11,504	262,668	122,128
112,933	-11,558	262,538	122,009
113,947	-11,419	262,366	122,042
114,962	-11,329	262,208	122,038
115,976	-11,548	261,845	121,663
116,991	-11,417	261,824	121,759
118,006	-11,191	261,311	121,710
119,020	-11,417	261,490	121,582
120,035	-11,272	261,223	121,576
121,049	-11,341	261,024	121,411
122,064	-11,239	260,778	121,376
123,079	-11,301	260,697	121,272
124,093	-11,440	260,413	121,006
125,108	-11,497	260,171	120,834
126,122	-11,690	259,746	120,456
127,137	-11,704	259,681	120,402
128,151	-11,715	259,488	120,292
129,166	-11,761	259,367	120,186
130,181	-11,708	259,299	120,189
131,195	-11,479	258,841	120,167
132,210	-11,494	258,725	120,089
133,224	-11,352	258,558	120,126
134,239	-11,346	258,363	120,030
135,254	-11,325	258,254	119,987
136,268	-11,153	257,907	119,965
137,283	-11,902	257,766	119,235
138,297	-11,806	257,412	119,144
139,312	-11,943	257,150	118,894
140,327	-11,713	257,329	119,166
141,341	-11,220	257,183	119,516
142,356	-11,235	256,917	119,370
143,370	-11,355	256,799	119,199
144,385	-10,917	256,410	119,388
145,400	-11,077	256,378	119,223
146,414	-11,163	256,076	118,998
147,429	-11,193	256,020	118,936
148,443	-11,204	255,720	118,776
149,458	-11,346	255,712	118,640
150,473	-11,086	255,451	118,732
151,487	-11,400	255,254	118,359
152,502	-11,210	255,040	118,413
153,516	-11,165	254,800	118,330
154,531	-11,199	254,704	118,245
155,546	-10,966	254,384	118,286
156,560	-11,193	254,287	118,036
157,575	-11,328	254,142	117,842
158,589	-11,219	253,902	117,814
159,604	-11,176	253,817	117,800
160,619	-11,309	253,598	117,575
161,633	-11,074	253,503	117,721
162,648	-11,200	253,264	117,492
163,662	-11,269	253,148	117,369
164,677	-11,302	252,974	117,249
165,692	-11,202	252,729	117,211
166,706	-11,201	252,580	117,132
167,721	-11,290	252,362	116,944
168,735	-11,522	252,266	116,692
169,750	-11,139	252,188	116,971
170,764	-11,162	252,020	116,863
171,779	-10,952	251,870	116,962
172,794	-11,372	251,797	116,561
173,808	-11,115	251,382	116,576
174,823	-11,500	251,135	116,126
175,837	-11,675	250,965	115,888
176,852	-11,267	250,842	116,166
177,867	-11,055	250,612	116,228
178,881	-11,083	250,546	116,164
179,896	-11,086	250,449	116,106
180,910	-11,100	250,135	115,938
181,925	-10,998	250,029	115,964
182,940	-11,056	249,928	115,858
183,954	-11,199	249,788	115,663
184,969	-11,100	249,511	115,608
185,983	-11,337	249,473	115,381
186,998	-10,970	249,125	115,517
188,013	-11,115	249,008	115,331
189,027	-11,170	248,800	115,178
190,042	-11,093	248,543	115,114
191,056	-11,213	248,573	115,017
192,071	-11,031	248,333	115,048
193,086	-11,213	248,194	114,822
194,100	-11,009	247,844	114,819
195,115	-11,043	247,831	114,775
196,129	-11,260	247,642	114,496
197,144	-11,176	247,314	114,404
198,159	-11,124	247,119	114,347
199,173	-11,186	246,960	114,211
200,188	-11,217	246,897	114,147
201,202	-11,293	246,495	113,887
202,217	-11,531	246,253	113,569
203,232	-11,681	246,050	113,340
204,246	-11,262	246,074	113,688
205,261	-11,017	246,040	113,864
206,275	-11,644	245,419	113,050
207,290	-7,541	247,230	117,282
208,304	0,626	250,048	125,448
209,319	4,175	250,803	128,785
210,334	4,609	250,837	129,155
211,348	4,821	250,762	129,282
212,363	4,983	250,796	129,422
213,377	5,091	250,692	129,448
214,392	5,139	250,416	129,334
215,407	4,938	250,297	129,093
216,421	5,006	249,962	128,966
217,436	5,287	249,937	129,175
218,450	5,368	249,758	129,138
219,465	5,059	249,607	128,792
220,480	4,856	249,300	128,454
221,494	4,657	249,159	128,204
222,509	4,559	249,028	128,044
223,523	4,785	248,872	128,140
224,538	4,206	248,593	127,506
225,553	4,502	248,450	127,666
226,567	4,562	248,476	127,717
227,582	4,659	248,221	127,655
228,596	4,678	248,010	127,551
229,611	4,426	247,659	127,151
230,626	4,276	247,466	126,918
231,640	4,451	247,454	127,044
232,655	4,549	247,282	127,025
233,669	4,478	246,999	126,810
234,684	4,040	246,973	126,426
235,699	4,592	246,828	126,793
236,713	4,586	246,794	126,759
237,728	4,471	246,465	126,485
238,742	4,463	246,210	126,336
239,757	4,280	246,027	126,082
240,772	4,425	245,953	126,151
241,786	4,449	245,790	126,075
242,801	4,168	245,658	125,767
243,815	4,256	245,484	125,738
244,830	4,783	245,331	126,079
245,844	4,729	245,127	125,919
246,859	4,379	245,010	125,562
247,874	4,399	244,816	125,468
248,888	4,488	244,647	125,443
249,903	4,594	244,561	125,474
250,917	4,731	244,316	125,448
251,932	4,711	244,466	125,497
252,947	4,703	244,131	125,307
253,961	4,509	243,961	125,052
254,976	4,456	243,922	124,978
255,990	4,761	243,638	125,068
257,005	4,506	243,327	124,692
258,020	4,335	243,343	124,550
259,034	4,305	243,186	124,434
260,049	4,577	242,997	124,546
261,063	4,232	242,725	124,118
262,078	4,430	242,679	124,243
263,093	4,765	242,472	124,395
264,107	4,786	242,551	124,441
265,122	4,323	242,352	123,956
266,136	4,594	242,182	124,075
267,151	4,782	241,961	124,102
268,166	4,314	241,852	123,660
269,180	4,170	241,515	123,361
270,195	5,046	241,545	124,067
271,209	5,005	241,465	123,982
272,224	4,687	241,058	123,508
273,239	4,104	240,853	122,926
274,253	4,214	240,714	122,932
275,268	4,503	240,682	123,136
276,282	4,619	240,438	123,092
277,297	4,330	240,195	122,727
278,312	4,271	240,204	122,673
279,326	4,459	240,007	122,711
280,341	4,333	239,915	122,553
281,355	4,512	239,679	122,564
282,370	4,313	239,749	122,431
283,384	4,568	239,368	122,427
284,399	4,447	239,165	122,217
285,414	4,279	239,097	122,039
286,428	4,291	238,933	121,954
287,443	4,538	238,802	122,070
288,457	4,524	238,828	122,062
289,472	4,523	238,629	121,949
290,487	4,462	238,377	121,761
291,501	4,165	238,112	121,380
292,516	4,192	237,963	121,315
293,530	4,013	237,912	121,138
294,545	4,453	237,878	121,455
295,560	4,638	237,642	121,470
296,574	4,062	237,426	120,896
297,589	4,125	237,371	120,907
298,603	4,440	237,381	121,148
299,618	4,690	237,079	121,179
300,633	4,481	236,946	120,937
301,647	4,632	236,776	120,957
302,662	4,891	236,747	121,134
303,676	4,668	236,531	120,839
304,691	4,574	236,420	120,698
305,706	4,878	236,332	120,880
306,720	5,033	236,028	120,834
307,735	4,866	235,843	120,599
308,749	4,664	235,668	120,341
309,764	4,489	235,584	120,151
310,779	4,011	235,382	119,666
311,793	4,003	235,055	119,483
312,808	4,238	235,051	119,653
313,822	4,141	234,783	119,430
314,837	4,146	234,624	119,342
315,852	3,853	234,431	119,007
316,866	4,481	234,633	119,585
317,881	4,994	234,466	119,887
318,895	5,086	234,266	119,845
319,910	4,913	234,074	119,602
320,925	4,318	233,904	119,045
321,939	4,363	233,525	118,877
322,954	4,491	233,568	118,986
323,968	4,348	233,380	118,770
324,983	4,525	233,351	118,881
325,997	4,726	233,256	118,977
327,012	4,631	233,028	118,777
328,027	4,628	232,843	118,669
329,041	4,831	232,859	118,823
330,056	5,250	232,805	119,106
331,070	5,242	232,748	119,060
332,085	4,905	232,320	118,573
333,100	4,717	232,205	118,360
334,114	4,480	232,027	118,077
335,129	4,971	231,978	118,417
336,143	4,974	231,835	118,336
337,158	4,648	231,697	118,006
338,173	4,666	231,444	117,880
339,187	4,377	231,361	117,607
340,202	4,709	231,274	117,805
341,216	4,499	231,096	117,544
342,231	4,570	230,848	117,462
343,246	4,822	230,596	117,514
344,260	4,498	230,703	117,312
345,275	4,794	230,466	117,406
346,289	4,830	230,338	117,357
347,304	5,018	230,135	117,386
348,319	4,891	230,032	117,227
349,333	4,790	229,839	117,041
350,348	4,608	229,658	116,801
351,362	4,524	229,531	116,663
352,377	4,699	229,228	116,630
353,392	4,299	229,219	116,314
354,406	4,495	228,953	116,316
355,421	195,002	1320,910	1394,694
356,435	156,383	1453,910	1394,660
