DTS Sentinel unit serial number:	SN410029Multiplexer serial number:	ORYXHardware model number:	OX2-SRSoftware version number:	ORYX F/W v4,00 Oryx Data Collector v3.7.2.0data status	okinstallation	B5 Nyhavnadifferential loss correction	single-endedforward channel	channel 2reverse channel	N/Adate	2023/12/12time	03:12:13forward acquisition time	300,00reverse acquisition time	0,00gamma	499,1914k internal	0,3156k external	0,3156temperature offset calibration	1,0000default loss term (dB/km)	0,3820temperature slope calibration	1,0000multiplexer offset coefficient	1,0000multiplexer slope coefficient	1,0000fibre end	0,00T internal ref (°C)	15,72T ext. ref 1 (°C)	-0,69T ext. ref 2 (°C)	-0,98length (m)	temperature (°C)	Stokes	anti-Stokes-744,400	800,000	0,013	-0,040
-743,385	-148,905	-0,274	0,016
-742,371	13,551	0,149	0,085
-741,356	-194,331	-0,320	-0,002
-740,342	-200,000	-0,011	0,039
-739,327	-59,374	-0,331	0,104
-738,312	-57,895	0,118	-0,038
-737,298	-148,961	-0,400	0,023
-736,283	-200,000	-0,004	0,040
-735,269	-131,140	-0,255	0,025
-734,254	48,719	0,122	0,084
-733,239	-127,269	-0,446	-0,047
-732,225	12,362	0,213	0,121
-731,210	176,969	-0,044	0,048
-730,196	-200,000	0,003	-0,027
-729,181	36,505	-0,030	0,019
-728,167	7,729	-0,101	0,056
-727,152	-200,000	-0,005	-0,094
-726,137	247,602	-0,060	0,075
-725,123	574,470	-0,069	0,125
-724,108	332,534	-0,070	-0,100
-723,094	60,810	-0,166	-0,121
-722,079	786,284	-0,076	-0,154
-721,064	458,762	-0,102	-0,168
-720,050	-27,359	-0,078	-0,033
-719,035	-200,000	0,002	-0,159
-718,021	-91,294	-0,127	0,027
-717,006	323,003	-0,114	-0,160
-715,991	-20,827	-0,040	-0,018
-714,977	5,000	0,090	-0,049
-713,962	-200,000	-0,017	-0,141
-712,948	-200,000	-0,003	-0,034
-711,933	-200,000	-0,015	-0,114
-710,918	800,000	-0,009	-0,023
-709,904	8,549	-0,145	-0,080
-708,889	-200,000	-0,006	0,000
-707,875	-200,000	-0,030	-0,100
-706,860	-200,000	-0,004	0,127
-705,845	800,000	-0,027	-0,069
-704,831	529,217	0,055	-0,095
-703,816	13,842	-0,094	0,054
-702,802	380,324	-0,080	-0,121
-701,787	-121,315	-0,132	0,016
-700,772	1,093	-0,062	-0,033
-699,758	-186,919	-0,100	0,001
-698,743	800,000	0,025	0,072
-697,729	-92,368	0,220	-0,045
-696,714	-36,254	0,107	0,042
-695,699	-134,736	0,046	-0,004
-694,685	386,063	-0,082	-0,125
-693,670	64,025	0,052	-0,038
-692,656	-113,968	-0,053	-0,007
-691,641	800,000	-0,060	0,173
-690,627	800,000	-0,038	-0,088
-689,612	212,380	-0,041	-0,048
-688,597	-200,000	-0,003	-0,076
-687,583	800,000	0,010	0,032
-686,568	-91,110	0,060	-0,013
-685,554	800,000	0,040	-0,129
-684,539	800,000	0,046	0,127
-683,524	280,324	0,126	-0,166
-682,510	385,731	-0,037	-0,056
-681,495	-51,971	-0,111	0,038
-680,481	168,576	-0,135	-0,142
-679,466	372,462	-0,095	-0,143
-678,451	800,000	-0,019	-0,051
-677,437	39,352	0,090	-0,059
-676,422	-92,677	-0,044	0,009
-675,408	800,000	-0,031	0,088
-674,393	-30,754	-0,127	-0,053
-673,378	395,611	-0,062	-0,096
-672,364	74,313	-0,107	-0,082
-671,349	55,313	0,112	-0,080
-670,335	-39,681	-0,155	0,059
-669,320	511,436	0,023	0,040
-668,305	-200,000	0,054	0,191
-667,291	-65,009	0,080	-0,024
-666,276	110,871	-0,112	-0,099
-665,262	424,552	-0,096	-0,153
-664,247	264,662	-0,085	0,109
-663,232	4,201	-0,030	-0,016
-662,218	-63,379	-0,082	0,025
-661,203	-200,000	0,026	-0,112
-660,189	800,000	-0,068	0,158
-659,174	270,818	-0,092	-0,120
-658,159	-200,000	0,007	-0,115
-657,145	-200,000	0,017	-0,181
-656,130	800,000	0,026	-0,075
-655,116	-123,911	-0,062	0,007
-654,101	296,828	0,051	-0,070
-653,086	-200,000	-0,008	-0,048
-652,072	-42,810	-0,037	-0,014
-651,057	-40,911	0,028	0,010
-650,043	800,000	-0,019	-0,049
-649,028	-200,000	0,011	-0,155
-648,014	800,000	-0,009	0,027
-646,999	-200,000	0,001	0,043
-645,984	-50,916	-0,084	0,029
-644,970	49,249	-0,010	-0,007
-643,955	-200,000	0,037	-0,148
-642,941	-85,046	-0,148	-0,034
-641,926	-36,933	0,052	-0,020
-640,911	44,680	-0,086	-0,058
-639,897	49,808	0,035	-0,025
-638,882	-42,516	-0,083	0,031
-637,868	27,343	-0,078	-0,048
-636,853	10,021	-0,138	-0,077
-635,838	-200,000	-0,009	-0,115
-634,824	204,405	0,087	-0,099
-633,809	113,394	0,145	-0,130
-632,795	-78,586	0,107	-0,027
-631,780	800,000	-0,034	0,090
-630,765	-71,182	-0,098	-0,027
-629,751	-200,000	0,005	-0,059
-628,736	-121,866	0,063	0,008
-627,722	-172,453	0,085	0,002
-626,707	-161,439	-0,099	0,004
-625,692	-71,265	-0,026	0,007
-624,678	-70,992	-0,087	0,024
-623,663	800,000	0,008	-0,027
-622,649	-200,000	-0,026	0,150
-621,634	-200,000	0,004	0,052
-620,619	-95,175	-0,077	0,015
-619,605	590,483	0,043	0,079
-618,590	664,945	-0,035	-0,066
-617,576	406,094	-0,077	-0,119
-616,561	-200,000	0,022	-0,082
-615,546	-40,063	-0,123	0,047
-614,532	14,594	-0,107	-0,061
-613,517	-106,765	-0,092	-0,015
-612,503	-200,000	-0,001	0,011
-611,488	427,427	-0,033	-0,053
-610,474	51,870	-0,133	-0,093
-609,459	-42,351	-0,040	-0,015
-608,444	-135,642	-0,083	-0,007
-607,430	-200,000	-0,009	-0,098
-606,415	800,000	0,025	-0,065
-605,401	-200,000	0,016	0,058
-604,386	452,621	0,088	0,143
-603,371	-200,000	-0,009	-0,040
-602,357	52,372	0,107	0,075
-601,342	-200,000	0,009	-0,067
-600,328	182,545	-0,058	-0,063
-599,313	156,334	-0,056	-0,057
-598,298	221,149	-0,019	0,023
-597,284	389,627	-0,042	0,064
-596,269	29,964	-0,084	-0,052
-595,255	800,000	-0,046	-0,126
-594,240	-200,000	-0,009	-0,097
-593,225	-200,000	0,011	-0,126
-592,211	115,456	-0,105	-0,094
-591,196	-67,447	0,067	-0,019
-590,182	-98,244	0,011	0,002
-589,167	222,582	0,087	-0,103
-588,152	316,090	0,025	-0,035
-587,138	-200,000	0,035	-0,186
-586,123	800,000	0,090	-0,216
-585,109	-200,000	-0,021	-0,144
-584,094	54,545	-0,144	-0,102
-583,079	-200,000	0,012	-0,062
-582,065	800,000	0,026	-0,075
-581,050	-200,000	-0,007	-0,042
-580,036	-200,000	-0,002	-0,045
-579,021	349,255	-0,020	-0,029
-578,006	651,411	-0,025	0,047
-576,992	-111,533	0,042	0,006
-575,977	61,450	0,035	-0,026
-574,963	195,631	0,032	0,036
-573,948	324,412	-0,074	0,103
-572,934	-60,941	-0,020	0,006
-571,919	413,456	-0,060	-0,094
-570,904	-56,509	-0,093	0,030
-569,890	-50,916	-0,092	0,032
-568,875	-13,088	0,141	0,067
-567,861	154,744	-0,064	0,065
-566,846	78,145	-0,022	-0,017
-565,831	193,093	0,047	0,052
-564,817	438,411	-0,036	-0,058
-563,802	98,352	0,013	-0,011
-562,788	-75,290	-0,132	-0,034
-561,773	467,895	0,104	0,171
-560,758	-200,000	-0,023	-0,077
-559,744	-103,681	0,041	-0,007
-558,729	220,689	-0,026	-0,031
-557,715	103,469	0,117	-0,100
-556,700	-3,289	0,040	0,020
-555,685	-200,000	0,007	-0,054
-554,671	114,449	-0,062	0,056
-553,656	686,344	-0,052	-0,100
-552,642	174,825	0,052	0,055
-551,627	246,777	-0,066	-0,081
-550,612	-46,217	0,074	0,026
-549,598	377,395	-0,077	0,115
-548,583	-34,529	-0,172	-0,069
-547,569	-200,000	0,027	-0,170
-546,554	166,194	0,053	0,055
-545,539	-42,953	-0,192	0,071
-544,525	400,551	-0,066	0,102
-543,510	800,000	0,024	-0,067
-542,496	-200,000	-0,043	-0,170
-541,481	-200,000	-0,006	-0,062
-540,466	-200,000	-0,007	0,045
-539,452	-200,000	0,035	-0,195
-538,437	-200,000	-0,005	0,057
-537,423	22,321	0,073	0,044
-536,408	-200,000	-0,002	0,036
-535,393	72,180	-0,100	-0,076
-534,379	-58,127	-0,033	-0,010
-533,364	-200,000	-0,008	-0,055
-532,350	-200,000	-0,037	0,174
-531,335	800,000	-0,030	-0,077
-530,321	-19,675	0,157	0,071
-529,306	-200,000	-0,040	-0,134
-528,291	-9,626	-0,118	-0,058
-527,277	-200,000	0,011	-0,072
-526,262	29,594	-0,030	-0,019
-525,248	231,602	0,075	0,090
-524,233	-77,742	0,139	0,035
-523,218	166,243	0,109	0,113
-522,204	-32,303	0,074	-0,030
-521,189	33,566	-0,070	0,044
-520,175	800,000	-0,068	-0,141
-519,160	-102,536	0,099	0,017
-518,145	122,409	0,026	-0,023
-517,131	16,531	0,024	0,014
-516,116	-18,607	0,079	0,036
-515,102	-200,000	-0,010	-0,069
-514,087	-112,037	-0,103	0,015
-513,072	-179,431	-0,150	-0,002
-512,058	-200,000	-0,017	0,100
-511,043	-18,552	0,102	0,046
-510,029	800,000	-0,044	-0,136
-509,014	-200,000	0,019	-0,065
-507,999	-95,811	0,114	0,022
-506,985	-23,935	0,085	0,037
-505,970	553,873	0,024	-0,043
-504,956	-115,620	-0,119	-0,016
-503,941	95,787	0,080	-0,066
-502,926	-200,000	0,010	0,113
-501,912	17,082	0,079	0,045
-500,897	385,173	-0,037	-0,056
-499,883	66,451	-0,101	0,075
-498,868	29,142	-0,114	-0,070
-497,853	-200,000	-0,008	-0,069
-496,839	-200,000	0,012	0,097
-495,824	84,850	0,045	-0,036
-494,810	-200,000	0,003	-0,160
-493,795	800,000	0,027	0,086
-492,781	-31,331	0,039	-0,016
-491,766	-121,071	0,049	-0,006
-490,751	-200,000	0,003	-0,100
-489,737	-107,625	-0,173	0,027
-488,722	74,610	0,041	0,032
-487,708	668,759	-0,049	0,093
-486,693	-51,961	-0,076	0,026
-485,678	800,000	-0,056	0,156
-484,664	9,519	-0,138	0,076
-483,649	3,424	-0,051	-0,027
-482,635	368,126	0,048	0,071
-481,620	57,726	0,019	0,014
-480,605	174,239	0,133	0,140
-479,591	91,209	0,022	0,018
-478,576	199,084	0,042	0,048
-477,562	-65,615	-0,075	-0,022
-476,547	168,538	0,131	-0,137
-475,532	238,891	0,017	-0,021
-474,518	31,856	0,072	-0,045
-473,503	237,878	0,097	-0,118
-472,489	-200,000	-0,006	0,177
-471,474	800,000	-0,053	0,157
-470,459	4,101	0,029	-0,016
-469,445	-200,000	-0,001	-0,116
-468,430	201,285	-0,092	-0,104
-467,416	-127,656	0,153	0,016
-466,401	-41,715	-0,090	-0,034
-465,386	800,000	0,030	0,079
-464,372	-200,000	-0,013	-0,088
-463,357	-200,000	-0,015	0,053
-462,343	329,077	0,058	-0,081
-461,328	-200,000	0,001	-0,020
-460,313	-200,000	0,009	0,070
-459,299	-21,020	-0,098	-0,044
-458,284	-200,000	0,003	0,170
-457,270	-200,000	0,019	0,143
-456,255	-92,832	-0,114	0,023
-455,241	-40,218	-0,138	-0,052
-454,226	-200,000	-0,036	0,143
-453,211	-181,188	-0,075	0,001
-452,197	-100,545	0,120	0,021
-451,182	-137,126	-0,027	-0,002
-450,168	48,443	0,088	-0,060
-449,153	-200,000	0,001	0,041
-448,138	442,150	-0,082	0,131
-447,124	-200,000	-0,008	0,088
-446,109	149,198	0,007	0,007
-445,095	-200,000	0,010	-0,045
-444,080	800,000	-0,016	0,037
-443,065	75,417	0,054	0,041
-442,051	225,766	0,028	0,033
-441,036	800,000	-0,071	-0,147
-440,022	-200,000	0,003	-0,105
-439,007	800,000	0,031	-0,085
-437,992	115,733	0,123	-0,109
-436,978	-149,561	0,246	-0,014
-435,963	-56,344	-0,055	-0,018
-434,949	-57,163	-0,058	-0,018
-433,934	242,804	-0,020	-0,025
-432,919	6,112	-0,094	-0,050
-431,905	800,000	0,032	0,067
-430,890	115,426	-0,041	0,036
-429,876	590,568	-0,091	-0,165
-428,861	120,852	-0,048	-0,043
-427,846	22,166	0,014	-0,008
-426,832	28,863	0,058	0,036
-425,817	-200,000	-0,009	-0,062
-424,803	-200,000	0,033	-0,166
-423,788	438,897	0,041	-0,066
-422,773	-27,650	0,101	-0,042
-421,759	3,575	0,067	0,035
-420,744	-200,000	0,004	-0,098
-419,730	637,836	-0,084	-0,155
-418,715	54,659	-0,117	0,082
-417,701	55,012	0,125	-0,088
-416,686	800,000	0,044	-0,105
-415,671	-200,000	0,010	0,040
-414,657	-152,606	0,049	-0,002
-413,642	-200,000	0,020	-0,082
-412,628	21,651	0,081	-0,048
-411,613	38,043	-0,164	-0,106
-410,598	-90,250	0,058	-0,012
-409,584	-157,889	0,178	-0,008
-408,569	120,700	0,033	0,029
-407,555	17,600	0,060	-0,035
-406,540	-157,758	-0,158	-0,007
-405,525	-200,000	0,017	0,067
-404,511	-79,658	-0,034	0,008
-403,496	800,000	-0,061	-0,134
-402,482	-200,000	0,005	-0,183
-401,467	-75,759	0,172	0,044
-400,452	-116,488	0,053	0,007
-399,438	-200,000	0,001	-0,075
-398,423	-126,635	-0,055	-0,006
-397,409	-26,969	-0,053	-0,022
-396,394	786,802	-0,016	0,032
-395,379	800,000	0,038	-0,109
-394,365	-116,048	-0,084	0,011
-393,350	800,000	0,048	0,112
-392,336	-117,311	0,038	-0,005
-391,321	-26,662	0,081	0,034
-390,306	223,011	-0,054	-0,064
-389,292	-200,000	0,011	-0,065
-388,277	-98,262	0,073	-0,014
-387,263	-200,000	-0,005	0,087
-386,248	-200,000	-0,000	-0,044
-385,233	-98,153	0,146	-0,027
-384,219	137,090	0,154	0,146
-383,204	-182,621	0,040	-0,001
-382,190	45,439	-0,079	0,053
-381,175	-200,000	0,001	0,018
-380,160	-3,926	-0,084	0,042
-379,146	-106,556	0,097	0,016
-378,131	490,686	0,042	0,070
-377,117	83,252	-0,062	0,049
-376,102	800,000	0,040	-0,104
-375,088	39,043	-0,081	0,052
-374,073	21,460	0,023	-0,013
-373,058	491,957	0,068	0,113
-372,044	800,000	-0,067	0,149
-371,029	-200,000	-0,002	0,168
-370,015	-124,031	-0,046	-0,005
-369,000	-200,000	0,014	-0,133
-367,985	800,000	0,080	0,166
-366,971	800,000	0,024	0,070
-365,956	1,495	0,068	-0,036
-364,942	800,000	0,053	0,121
-363,927	-40,047	0,078	0,030
-362,912	-54,309	0,018	-0,006
-361,898	-200,000	0,003	-0,166
-360,883	-45,162	-0,043	0,015
-359,869	-113,822	0,079	0,011
-358,854	12,647	0,160	0,090
-357,839	29,413	0,087	0,053
-356,825	-115,725	0,255	0,034
-355,810	28,808	0,050	0,031
-354,796	-114,193	-0,039	0,005
-353,781	10,051	-0,107	0,059
-352,766	-200,000	-0,011	-0,036
-351,752	800,000	0,038	-0,087
-350,737	-28,305	0,085	-0,035
-349,723	-90,446	-0,144	0,030
-348,708	-200,000	-0,025	0,083
-347,693	800,000	0,027	0,059
-346,679	-200,000	-0,005	-0,038
-345,664	-200,000	-0,006	0,078
-344,650	-200,000	0,012	0,072
-343,635	-43,309	0,132	-0,048
-342,620	-75,683	-0,068	0,018
-341,606	-70,935	-0,033	-0,009
-340,591	386,886	0,049	-0,073
-339,577	-44,362	0,033	0,012
-338,562	103,082	-0,021	-0,018
-337,548	606,062	-0,030	0,054
-336,533	-58,665	0,078	-0,024
-335,518	755,767	0,069	0,136
-334,504	254,162	-0,040	-0,050
-333,489	-200,000	0,014	-0,052
-332,475	363,576	-0,052	0,076
-331,460	-45,406	-0,136	0,049
-330,445	800,000	0,025	0,071
-329,431	-62,091	0,033	0,010
-328,416	158,344	0,059	0,059
-327,402	-200,000	-0,023	0,184
-326,387	-77,742	0,082	-0,020
-325,372	-113,347	0,109	-0,015
-324,358	-74,716	-0,049	-0,013
-323,343	-162,717	0,072	-0,002
-322,329	800,000	0,034	0,090
-321,314	19,467	0,108	0,063
-320,299	295,075	-0,027	0,035
-319,285	87,308	-0,106	0,085
-318,270	-29,891	-0,113	-0,047
-317,256	120,634	-0,125	-0,113
-316,241	127,438	0,021	-0,019
-315,226	143,929	0,061	-0,059
-314,212	51,220	0,123	0,085
-313,197	-98,971	0,070	0,013
-312,183	-200,000	-0,034	-0,133
-311,168	-103,486	-0,067	-0,011
-310,153	-69,658	0,037	0,010
-309,139	-96,329	-0,159	-0,030
-308,124	137,544	0,056	-0,053
-307,110	206,375	0,067	0,076
-306,095	146,162	-0,082	-0,080
-305,080	352,416	-0,054	-0,079
-304,066	-53,718	0,074	-0,024
-303,051	9,936	-0,183	-0,101
-302,037	800,000	0,048	0,132
-301,022	44,052	0,074	-0,049
-300,008	-200,000	-0,008	-0,062
-298,993	-172,103	-0,038	-0,001
-297,978	103,781	0,058	-0,049
-296,964	-120,806	0,005	0,001
-295,949	-200,000	-0,019	-0,112
-294,935	57,988	-0,216	-0,153
-293,920	103,554	0,028	-0,024
-292,905	-37,056	-0,145	-0,056
-291,891	99,193	0,041	0,034
-290,876	-200,000	-0,014	0,061
-289,862	-77,452	-0,070	0,018
-288,847	800,000	0,059	-0,140
-287,832	108,970	0,074	-0,064
-286,818	-58,850	0,011	0,004
-285,803	-163,799	0,036	0,001
-284,789	-200,000	-0,010	0,171
-283,774	355,846	0,054	0,078
-282,759	139,036	0,107	0,102
-281,745	21,492	-0,083	0,049
-280,730	800,000	-0,020	0,051
-279,716	-200,000	0,017	-0,062
-278,701	-200,000	0,005	0,045
-277,686	-9,241	0,035	-0,017
-276,672	335,329	0,066	-0,093
-275,657	403,456	-0,033	0,050
-274,643	347,092	-0,064	-0,091
-273,628	-200,000	-0,001	0,122
-272,613	579,349	0,054	-0,097
-271,599	-154,577	0,027	-0,001
-270,584	-200,000	0,030	0,118
-269,570	800,000	0,051	-0,119
-268,555	384,747	0,083	0,124
-267,540	149,851	-0,025	-0,025
-266,526	-93,234	-0,028	-0,006
-265,511	-72,879	-0,081	0,021
-264,497	-156,931	0,132	-0,006
-263,482	294,538	0,046	0,061
-262,467	-200,000	0,013	0,044
-261,453	578,219	0,032	0,057
-260,438	-200,000	-0,028	0,108
-259,424	-2,194	0,114	0,058
-258,409	56,707	0,103	-0,072
-257,395	-200,000	0,004	-0,158
-256,380	800,000	-0,022	-0,063
-255,365	800,000	0,052	0,157
-254,351	3,302	-0,053	-0,028
-253,336	-200,000	-0,008	0,037
-252,322	64,882	-0,066	-0,048
-251,307	800,000	0,052	0,148
-250,292	-200,000	-0,002	0,210
-249,278	-200,000	0,009	0,034
-248,263	28,754	-0,063	0,038
-247,249	303,809	0,042	-0,056
-246,234	-43,829	0,106	-0,038
-245,219	-200,000	-0,032	0,115
-244,205	800,000	0,011	-0,024
-243,190	117,098	-0,076	-0,067
-242,176	27,340	-0,050	0,030
-241,161	-200,000	0,010	0,052
-240,146	-60,775	0,040	0,012
-239,132	800,000	-0,028	0,057
-238,117	-52,488	-0,083	-0,028
-237,103	106,623	-0,057	-0,049
-236,088	-6,866	0,020	0,010
-235,073	-200,000	-0,011	0,066
-234,059	-200,000	0,006	0,039
-233,044	-125,356	0,012	-0,001
-232,030	-200,000	-0,002	-0,030
-231,015	639,876	-0,033	-0,062
-230,000	-200,000	-0,003	-0,047
-228,986	398,818	0,024	0,036
-227,971	-200,000	0,009	0,031
-226,957	392,065	0,165	0,248
-225,942	357,924	-0,046	0,066
-224,927	6,744	-0,066	-0,036
-223,913	173,556	-0,016	0,016
-222,898	-200,000	-0,016	-0,068
-221,884	318,232	0,069	0,094
-220,869	137,648	0,044	0,042
-219,855	-200,000	0,006	-0,050
-218,840	-141,869	-0,069	-0,005
-217,825	88,769	0,089	0,072
-216,811	323,330	-0,086	0,119
-215,796	-60,957	0,069	0,021
-214,782	-200,000	-0,004	0,067
-213,767	-200,000	0,051	0,165
-212,752	-56,870	-0,039	0,012
-211,738	-107,791	0,247	0,038
-210,723	-46,817	-0,194	0,068
-209,709	333,445	-0,048	-0,067
-208,694	-200,000	-0,011	-0,100
-207,679	-47,402	-0,083	0,029
-206,665	-200,000	0,029	0,182
-205,650	357,953	-0,030	0,043
-204,636	-62,641	0,117	0,035
-203,621	697,408	-0,059	0,112
-202,606	-56,988	-0,051	-0,016
-201,592	339,252	-0,061	-0,086
-200,577	-65,142	-0,120	0,035
-199,563	800,000	-0,062	0,136
-198,548	800,000	-0,034	0,078
-197,533	-39,672	0,057	0,021
-196,519	130,940	0,051	0,048
-195,504	-200,000	0,021	-0,103
-194,490	-139,025	0,084	0,007
-193,475	-164,306	-0,066	0,002
-192,460	374,885	-0,049	0,072
-191,446	-200,000	-0,007	-0,105
-190,431	215,398	-0,026	0,030
-189,417	-141,861	0,067	-0,005
-188,402	-142,991	-0,112	0,008
-187,387	-72,024	0,109	0,029
-186,373	800,000	0,026	0,054
-185,358	-200,000	-0,021	0,136
-184,344	16,291	-0,032	-0,018
-183,329	235,894	-0,124	0,148
-182,315	227,272	-0,139	0,163
-181,300	800,000	0,011	-0,034
-180,285	-200,000	-0,043	-0,158
-179,271	-63,553	-0,065	0,019
-178,256	-45,202	0,095	-0,034
-177,242	-174,518	-0,063	0,001
-176,227	-83,834	0,037	-0,008
-175,212	-200,000	0,042	0,195
-174,198	55,713	-0,100	0,070
-173,183	-63,351	-0,092	-0,027
-172,169	27,612	0,105	-0,064
-171,154	171,701	0,060	0,062
-170,139	126,056	0,075	0,068
-169,125	191,578	-0,121	0,132
-168,110	301,628	-0,093	0,125
-167,096	156,576	0,051	0,051
-166,081	-181,960	-0,095	-0,001
-165,066	328,949	0,050	-0,069
-164,052	800,000	0,069	-0,139
-163,037	288,111	0,059	-0,078
-162,023	800,000	0,030	0,063
-161,008	79,472	0,079	0,061
-159,993	176,603	-0,036	0,038
-158,979	141,149	0,102	-0,097
-157,964	-85,560	-0,145	-0,032
-156,950	-200,000	-0,030	-0,112
-155,935	35,854	-0,072	0,046
-154,920	137,360	0,060	0,057
-153,906	64,181	0,146	0,106
-152,891	-200,000	0,007	-0,023
-151,877	17,243	-0,060	0,034
-150,862	800,000	0,013	0,029
-149,847	161,600	0,020	-0,020
-148,833	-78,711	-0,084	0,020
-147,818	-60,323	-0,102	0,031
-146,804	-121,086	-0,098	0,012
-145,789	-24,539	-0,100	0,043
-144,775	-6,164	-0,168	0,082
-143,760	-17,534	-0,127	-0,057
-142,745	-35,586	-0,045	0,017
-141,731	-63,925	0,023	-0,007
-140,716	-200,000	0,013	0,070
-139,702	-102,933	0,061	0,010
-138,687	708,167	-0,090	0,172
-137,672	-200,000	-0,012	0,083
-136,658	800,000	0,027	0,081
-135,643	800,000	0,038	0,079
-134,629	665,292	0,041	0,077
-133,614	-40,323	-0,094	-0,035
-132,599	241,790	0,061	0,074
-131,585	-106,994	0,092	-0,015
-130,570	-13,708	-0,111	-0,051
-129,556	-79,778	-0,225	-0,054
-128,541	-61,018	-0,092	-0,028
-127,526	331,833	0,058	-0,081
-126,512	-70,151	0,101	0,028
-125,497	467,176	0,070	0,113
-124,483	-200,000	-0,002	0,072
-123,468	150,844	-0,025	0,024
-122,453	-200,000	-0,008	0,091
-121,439	800,000	0,018	-0,049
-120,424	186,432	-0,042	0,045
-119,410	-200,000	0,031	0,208
-118,395	800,000	0,018	0,037
-117,380	-37,780	0,132	0,050
-116,366	214,394	0,066	0,075
-115,351	800,000	-0,020	-0,055
-114,337	128,059	-0,130	-0,119
-113,322	1,742	-0,069	-0,036
-112,307	421,708	0,069	0,106
-111,293	-200,000	-0,012	0,078
-110,278	-50,212	0,104	-0,035
-109,264	578,461	0,016	-0,028
-108,249	576,357	0,018	0,031
-107,234	167,383	0,052	0,054
-106,220	800,000	0,036	-0,093
-105,205	547,359	0,042	-0,073
-104,191	-2,695	0,216	0,108
-103,176	-140,307	0,071	-0,005
-102,162	394,056	-0,033	-0,050
-101,147	453,580	-0,137	-0,219
-100,132	-200,000	-0,003	-0,069
-99,118	614,837	-0,066	-0,119
-98,103	-200,000	-0,011	-0,060
-97,089	-1,483	0,073	-0,037
-96,074	64,615	0,095	0,069
-95,059	158,622	-0,093	0,093
-94,045	104,937	-0,100	0,085
-93,030	8,588	0,078	-0,042
-92,016	-58,417	-0,033	0,010
-91,001	108,262	0,099	-0,085
-89,986	800,000	-0,028	0,069
-88,972	800,000	0,021	0,046
-87,957	-43,728	-0,102	0,037
-86,943	-200,000	0,009	-0,058
-85,928	592,069	-0,095	-0,169
-84,913	-163,000	-0,083	0,003
-83,899	121,690	0,143	0,129
-82,884	99,089	-0,039	-0,032
-81,870	-130,508	0,032	-0,003
-80,855	-15,812	-0,094	0,043
-79,840	-200,000	-0,015	-0,097
-78,826	-200,000	0,000	-0,023
-77,811	119,499	0,057	0,050
-76,797	800,000	-0,026	-0,057
-75,782	-22,004	-0,072	0,031
-74,767	236,563	-0,107	0,128
-73,753	-200,000	0,014	0,080
-72,738	152,494	0,076	0,075
-71,724	-200,000	-0,006	0,155
-70,709	-6,542	0,122	0,059
-69,694	-200,000	0,022	0,070
-68,680	-200,000	0,009	-0,031
-67,665	363,934	-0,028	-0,040
-66,651	-46,076	0,157	-0,055
-65,636	-45,420	0,117	0,042
-64,622	800,000	0,045	-0,133
-63,607	800,000	0,043	-0,090
-62,592	108,625	-0,029	0,025
-61,578	-200,000	-0,009	-0,150
-60,563	-143,556	-0,058	0,004
-59,549	139,103	-0,064	0,060
-58,534	11,176	-1,776	-0,973
-57,519	-200,000	-0,280	-1,140
-56,505	-200,000	-1,185	-5,005
-55,490	-57,890	0,802	0,250
-54,476	800,000	5,230	12,134
-53,461	-200,000	17,345	283,883
-52,446	800,000	724,434	2222,202
-51,432	539,883	1640,569	2814,233
-50,417	111,099	1631,985	1410,941
-49,403	75,610	1286,354	974,368
-48,388	32,486	1028,272	636,423
-47,373	20,190	990,179	572,270
-46,359	18,656	978,368	560,385
-45,344	16,055	974,212	549,463
-44,330	16,282	972,672	549,315
-43,315	15,817	970,914	546,783
-42,300	15,788	969,802	546,040
-41,286	15,790	968,525	545,304
-40,271	15,738	967,883	544,753
-39,257	15,714	966,959	544,134
-38,242	15,730	966,093	543,677
-37,227	15,795	965,115	543,315
-36,213	15,796	964,334	542,858
-35,198	15,691	963,546	542,051
-34,184	15,871	962,654	542,110
-33,169	15,780	961,760	541,291
-32,154	15,786	960,768	540,731
-31,140	15,768	959,915	540,172
-30,125	15,797	959,160	539,821
-29,111	15,759	958,407	539,252
-28,096	15,753	957,818	538,879
-27,082	15,762	957,104	538,485
-26,067	15,786	956,489	538,196
-25,052	15,761	955,587	537,585
-24,038	15,704	955,070	537,090
-23,023	15,769	954,206	536,793
-22,009	15,770	953,676	536,477
-20,994	15,750	953,044	536,035
-19,979	15,805	952,387	535,820
-18,965	15,760	951,728	535,283
-17,950	15,764	951,133	534,942
-16,936	15,695	950,402	534,289
-15,921	15,721	949,898	534,068
-14,906	15,620	949,057	533,250
-13,892	15,637	948,570	533,010
-12,877	15,599	947,967	532,528
-11,863	15,551	947,315	531,987
-10,848	15,639	946,835	531,978
-9,833	15,741	946,319	531,992
-8,819	15,760	945,434	531,533
-7,804	15,622	945,036	530,850
-6,790	15,655	944,308	530,524
-5,775	15,691	943,871	530,372
-4,760	15,733	942,985	529,985
-3,746	15,619	942,707	529,448
-2,731	15,555	941,846	528,740
-1,717	15,493	941,190	528,154
-0,702	15,433	940,734	527,687
0,313	15,230	939,920	527,388
1,327	18,472	937,610	536,264
2,342	27,490	794,667	478,414
3,356	24,109	458,744	270,987
4,371	-3,177	313,426	156,229
5,386	-7,240	295,253	143,058
6,400	-9,350	289,253	138,050
7,415	-9,509	286,744	136,684
8,429	-9,695	285,311	135,807
9,444	-9,763	284,347	135,270
10,459	-9,823	283,842	134,959
11,473	-9,883	283,172	134,571
12,488	-9,728	282,714	134,491
13,502	-9,773	282,150	134,168
14,517	-9,817	281,825	133,958
15,531	-9,728	281,414	133,837
16,546	-9,728	280,931	133,595
17,561	-9,809	280,624	133,360
18,575	-9,753	280,295	133,245
19,590	-9,777	279,860	133,003
20,604	-9,802	279,774	132,927
21,619	-9,722	279,390	132,809
22,634	-9,696	278,991	132,632
23,648	-9,690	278,489	132,387
24,663	-9,711	278,243	132,239
25,677	-9,858	278,026	131,984
26,692	-9,815	277,801	131,906
27,707	-9,888	277,665	131,761
28,721	-9,773	277,233	131,653
29,736	-9,790	277,091	131,558
30,750	-9,739	276,791	131,452
31,765	-9,619	276,427	131,380
32,780	-9,833	276,233	131,075
33,794	-9,878	275,946	130,884
34,809	-9,852	275,718	130,789
35,823	-9,707	275,423	130,773
36,838	-9,774	275,247	130,616
37,853	-9,722	274,948	130,511
38,867	-9,760	274,688	130,340
39,882	-9,728	274,396	130,220
40,896	-9,858	274,367	130,072
41,911	-9,579	273,992	130,145
42,926	-9,994	273,845	129,675
43,940	-9,804	273,542	129,697
44,955	-9,973	273,320	129,423
45,969	-9,801	273,066	129,452
46,984	-10,037	272,999	129,188
47,999	-10,324	272,699	128,767
49,013	-10,173	272,326	128,720
50,028	-10,135	271,961	128,571
51,042	-10,369	271,759	128,247
52,057	-10,478	271,642	128,080
53,071	-10,381	271,219	127,959
54,086	-10,313	271,262	128,031
55,101	-10,177	270,981	128,013
56,115	-9,992	270,767	128,070
57,130	-9,709	270,719	128,297
58,144	-9,767	270,555	128,155
59,159	-9,837	270,252	127,936
60,174	-9,602	270,009	128,026
61,188	-9,665	269,769	127,842
62,203	-9,804	269,632	127,638
63,217	-9,627	269,424	127,691
64,232	-9,633	269,080	127,511
65,247	-9,600	268,825	127,409
66,261	-9,661	268,636	127,252
67,276	-9,919	268,432	126,908
68,290	-9,946	268,287	126,804
69,305	-10,022	268,067	126,619
70,320	-10,137	267,756	126,356
71,334	-9,771	267,555	126,583
72,349	-9,521	267,336	126,696
73,363	-9,709	267,248	126,472
74,378	-9,743	267,036	126,330
75,393	-9,618	266,768	126,305
76,407	-9,644	266,638	126,208
77,422	-9,715	266,335	125,989
78,436	-9,693	266,157	125,914
79,451	-9,646	265,959	125,852
80,466	-9,707	265,634	125,632
81,480	-9,766	265,439	125,475
82,495	-10,026	265,114	125,075
83,509	-9,803	265,120	125,269
84,524	-9,893	264,851	125,049
85,539	-10,075	264,606	124,758
86,553	-9,936	264,258	124,708
87,568	-10,036	264,255	124,605
88,582	-9,961	263,991	124,538
89,597	-9,940	263,785	124,448
90,611	-9,745	263,690	124,567
91,626	-9,636	263,458	124,544
92,641	-9,778	263,244	124,305
93,655	-9,825	263,057	124,163
94,670	-9,903	262,911	124,014
95,684	-9,904	262,633	123,870
96,699	-9,700	262,407	123,934
97,714	-9,818	262,353	123,793
98,728	-9,735	262,031	123,704
99,743	-10,024	261,870	123,360
100,757	-9,934	261,551	123,279
101,772	-9,938	261,406	123,196
102,787	-9,678	261,127	123,283
103,801	-9,762	260,960	123,119
104,816	-9,702	260,904	123,135
105,830	-9,590	260,685	123,120
106,845	-9,621	260,472	122,981
107,860	-9,471	260,292	123,018
108,874	-9,745	260,178	122,711
109,889	-9,799	259,871	122,507
110,903	-9,895	259,757	122,357
111,918	-9,651	259,445	122,415
112,933	-9,817	259,313	122,195
113,947	-9,616	259,160	122,289
114,962	-9,800	258,942	122,014
115,976	-9,745	258,809	121,989
116,991	-9,865	258,575	121,762
118,006	-9,564	258,257	121,865
119,020	-9,564	258,229	121,841
120,035	-9,485	258,105	121,841
121,049	-9,668	257,881	121,564
122,064	-9,842	257,767	121,347
123,079	-9,815	257,513	121,240
124,093	-9,723	257,250	121,186
125,108	-9,743	256,897	120,991
126,122	-10,063	256,830	120,671
127,137	-10,263	256,720	120,435
128,151	-10,072	256,401	120,440
129,166	-10,058	256,321	120,404
130,181	-9,962	256,035	120,342
131,195	-10,105	255,634	120,019
132,210	-9,878	255,669	120,222
133,224	-9,583	255,431	120,354
134,239	-9,628	255,269	120,228
135,254	-9,573	255,015	120,145
136,268	-9,855	254,952	119,862
137,283	-9,971	254,710	119,637
138,297	-10,031	254,537	119,493
139,312	-10,082	254,157	119,260
140,327	-9,919	254,124	119,375
141,341	-9,869	254,128	119,408
142,356	-9,455	253,822	119,610
143,370	-9,601	253,699	119,415
144,385	-9,438	253,530	119,465
145,400	-9,504	253,450	119,360
146,414	-9,509	253,155	119,206
147,429	-9,614	253,017	119,041
148,443	-9,361	252,603	119,052
149,458	-9,581	252,682	118,890
150,473	-9,439	252,418	118,877
151,487	-9,683	252,200	118,555
152,502	-9,634	252,114	118,546
153,516	-9,531	251,869	118,508
154,531	-9,625	251,701	118,339
155,546	-9,458	251,533	118,391
156,560	-9,617	251,340	118,155
157,575	-9,761	251,158	117,936
158,589	-9,609	250,912	117,939
159,604	-9,612	250,837	117,891
160,619	-9,402	250,522	117,910
161,633	-9,724	250,477	117,606
162,648	-9,476	250,328	117,735
163,662	-9,553	250,130	117,566
164,677	-9,556	249,945	117,467
165,692	-9,471	249,718	117,421
166,706	-9,353	249,530	117,422
167,721	-9,481	249,457	117,269
168,735	-9,556	249,339	117,139
169,750	-9,283	249,088	117,241
170,764	-9,458	248,817	116,956
171,779	-9,467	248,884	116,970
172,794	-9,403	248,743	116,947
173,808	-9,390	248,317	116,747
174,823	-9,891	248,136	116,232
175,837	-9,843	247,747	116,079
176,852	-9,842	247,878	116,131
177,867	-9,621	247,861	116,298
178,881	-9,497	247,572	116,255
179,896	-9,408	247,319	116,200
180,910	-9,374	247,288	116,203
181,925	-9,515	247,138	116,005
182,940	-9,555	246,964	115,880
183,954	-9,700	246,701	115,626
184,969	-9,639	246,757	115,692
185,983	-9,416	246,545	115,768
186,998	-9,266	246,196	115,718
188,013	-9,319	246,225	115,678
189,027	-9,301	245,804	115,484
190,042	-9,733	245,788	115,108
191,056	-9,503	245,445	115,128
192,071	-9,518	245,388	115,078
193,086	-9,550	245,205	114,956
194,100	-9,535	244,983	114,854
195,115	-9,508	244,795	114,778
196,129	-9,468	244,580	114,700
197,144	-9,547	244,386	114,534
198,159	-9,346	244,233	114,617
199,173	-9,581	244,222	114,408
200,188	-9,557	243,839	114,239
201,202	-9,666	243,621	114,037
202,217	-9,912	243,439	113,740
203,232	-10,145	243,259	113,455
204,246	-9,606	243,079	113,802
205,261	-9,302	243,032	114,018
206,275	-10,359	242,573	112,930
207,290	-7,405	243,897	115,959
208,304	-0,472	246,018	122,679
209,319	2,849	246,900	125,849
210,334	3,337	246,907	126,244
211,348	3,521	246,798	126,328
212,363	3,701	246,671	126,401
213,377	3,785	246,633	126,439
214,392	3,555	246,453	126,146
215,407	3,688	246,174	126,102
216,421	3,609	246,026	125,950
217,436	3,976	245,978	126,215
218,450	3,989	245,963	126,206
219,465	3,712	245,509	125,736
220,480	3,650	245,352	125,593
221,494	3,551	245,277	125,463
222,509	3,536	245,154	125,376
223,523	3,542	244,837	125,208
224,538	3,127	244,615	124,745
225,553	3,275	244,519	124,805
226,567	3,115	244,420	124,613
227,582	3,519	244,348	124,895
228,596	3,651	244,066	124,847
229,611	3,127	243,859	124,304
230,626	3,124	243,724	124,221
231,640	3,232	243,488	124,178
232,655	3,503	243,297	124,289
233,669	3,329	243,109	124,041
234,684	3,110	243,086	123,841
235,699	3,426	242,974	124,028
236,713	3,669	242,927	124,190
237,728	3,221	242,624	123,662
238,742	2,930	242,338	123,270
239,757	3,070	242,177	123,290
240,772	3,238	242,124	123,388
241,786	3,330	242,045	123,410
242,801	2,926	241,828	122,963
243,815	3,044	241,740	123,003
244,830	3,256	241,480	123,030
245,844	3,540	241,400	123,207
246,859	3,287	241,152	122,866
247,874	3,259	240,910	122,709
248,888	3,020	240,962	122,533
249,903	3,367	240,685	122,659
250,917	3,527	240,619	122,743
251,932	3,725	240,517	122,838
252,947	3,589	240,173	122,543
253,961	3,394	240,006	122,291
254,976	3,420	239,949	122,272
255,990	3,598	239,831	122,343
257,005	2,929	239,676	121,720
258,020	3,188	239,499	121,825
259,034	3,209	239,326	121,743
260,049	3,283	239,222	121,738
261,063	3,209	238,962	121,536
262,078	3,244	238,743	121,442
263,093	3,345	238,631	121,454
264,107	3,285	238,661	121,411
265,122	3,294	238,375	121,262
266,136	3,285	238,401	121,257
267,151	3,466	238,205	121,290
268,166	3,317	237,819	120,965
269,180	3,115	237,723	120,746
270,195	3,611	237,812	121,172
271,209	4,002	237,682	121,403
272,224	3,232	237,337	120,609
273,239	2,947	237,065	120,236
274,253	3,309	236,963	120,458
275,268	3,404	236,829	120,454
276,282	3,342	236,758	120,359
277,297	2,997	236,574	119,984
278,312	3,241	236,235	119,992
279,326	3,278	236,323	120,055
280,341	3,290	236,064	119,922
281,355	3,470	236,006	120,023
282,370	3,465	235,825	119,917
283,384	3,397	235,695	119,787
284,399	3,221	235,554	119,566
285,414	3,029	235,308	119,282
286,428	3,269	235,212	119,409
287,443	3,123	235,058	119,206
288,457	3,305	234,989	119,303
289,472	3,377	234,891	119,299
290,487	3,467	234,689	119,256
291,501	3,213	234,416	118,909
292,516	3,062	234,218	118,680
293,530	3,055	234,031	118,570
294,545	3,221	234,026	118,685
295,560	3,277	233,868	118,638
296,574	2,998	233,785	118,369
297,589	3,137	233,497	118,320
298,603	3,671	233,531	118,740
299,618	3,605	233,394	118,609
300,633	3,341	233,302	118,348
301,647	3,473	233,217	118,396
302,662	3,860	233,098	118,623
303,676	3,870	232,857	118,498
304,691	3,775	232,697	118,333
305,706	3,864	232,575	118,328
306,720	3,841	232,438	118,230
307,735	3,518	232,182	117,842
308,749	3,369	231,954	117,601
309,764	3,347	231,754	117,472
310,779	3,118	231,488	117,151
311,793	2,929	231,462	116,983
312,808	3,046	231,350	117,005
313,822	2,900	231,121	116,768
314,837	2,997	230,957	116,749
315,852	3,051	230,877	116,739
316,866	3,429	230,920	117,039
317,881	3,582	230,627	116,997
318,895	3,641	230,601	117,018
319,910	3,759	230,540	117,067
320,925	3,578	230,202	116,747
321,939	3,428	229,983	116,512
322,954	3,505	229,955	116,546
323,968	3,300	229,770	116,286
324,983	2,967	229,589	115,930
325,997	3,149	229,294	115,909
327,012	3,452	229,369	116,167
328,027	3,505	229,110	116,065
329,041	3,679	229,188	116,226
330,056	3,970	229,128	116,405
331,070	3,944	228,939	116,279
332,085	3,789	228,445	115,901
333,100	3,436	228,580	115,692
334,114	3,655	228,370	115,742
335,129	3,913	228,164	115,821
336,143	3,736	228,205	115,698
337,158	3,421	227,996	115,345
338,173	3,650	227,924	115,471
339,187	3,692	227,662	115,359
340,202	3,634	227,579	115,263
341,216	3,526	227,363	115,063
342,231	3,422	227,436	115,011
343,246	3,431	227,094	114,835
344,260	3,648	226,899	114,888
345,275	3,656	226,952	114,911
346,289	3,770	226,878	114,948
347,304	3,722	226,683	114,803
348,319	3,994	226,419	114,863
349,333	3,541	226,326	114,467
350,348	3,399	226,045	114,209
351,362	3,580	225,918	114,270
352,377	3,396	225,685	114,005
353,392	3,294	225,522	113,836
354,406	3,305	225,435	113,790
355,421	195,961	1322,264	1400,943
356,435	157,075	1455,897	1400,952
