DTS Sentinel unit serial number:	SN410029Multiplexer serial number:	ORYXHardware model number:	OX2-SRSoftware version number:	ORYX F/W v4,00 Oryx Data Collector v3.7.2.0data status	okinstallation	B5 Nyhavnadifferential loss correction	single-endedforward channel	channel 2reverse channel	N/Adate	2023/12/13time	20:47:14forward acquisition time	300,00reverse acquisition time	0,00gamma	499,1914k internal	0,3157k external	0,3157temperature offset calibration	1,0000default loss term (dB/km)	0,3820temperature slope calibration	1,0000multiplexer offset coefficient	1,0000multiplexer slope coefficient	1,0000fibre end	0,00T internal ref (°C)	10,51T ext. ref 1 (°C)	-6,49T ext. ref 2 (°C)	-6,55length (m)	temperature (°C)	Stokes	anti-Stokes-744,400	168,577	0,080	0,084
-743,385	-143,754	-0,396	0,027
-742,371	266,181	0,095	0,123
-741,356	-86,291	-0,383	0,086
-740,342	59,553	0,160	0,116
-739,327	-147,242	-0,449	0,028
-738,312	-200,000	0,006	0,218
-737,298	-112,036	-0,317	-0,047
-736,283	-24,250	0,153	-0,067
-735,269	-116,241	-0,324	-0,044
-734,254	-81,266	0,158	-0,038
-733,239	-99,567	-0,689	-0,126
-732,225	-108,387	0,180	-0,028
-731,210	800,000	0,080	0,194
-730,196	56,526	-0,049	0,035
-729,181	183,281	-0,072	-0,079
-728,167	-200,000	0,008	-0,085
-727,152	33,717	0,084	-0,053
-726,137	-67,387	-0,122	0,035
-725,123	394,166	0,073	-0,113
-724,108	-60,965	-0,183	-0,057
-723,094	800,000	0,029	0,073
-722,079	-110,729	0,032	-0,005
-721,064	-74,464	-0,092	0,024
-720,050	-200,000	-0,001	0,049
-719,035	-168,062	-0,223	-0,006
-718,021	-80,645	-0,031	-0,008
-717,006	32,172	-0,034	-0,021
-715,991	-81,861	-0,102	-0,024
-714,977	277,297	-0,033	-0,044
-713,962	-200,000	-0,009	-0,038
-712,948	107,550	-0,080	-0,070
-711,933	305,799	-0,043	-0,059
-710,918	53,746	-0,033	0,023
-709,904	-200,000	-0,015	-0,184
-708,889	357,511	-0,038	-0,056
-707,875	-142,204	-0,109	0,008
-706,860	-200,000	-0,006	0,086
-705,845	-48,563	-0,088	0,031
-704,831	800,000	0,043	0,133
-703,816	-63,796	-0,098	0,029
-702,802	-111,829	-0,125	0,018
-701,787	602,903	-0,088	-0,162
-700,772	9,236	-0,073	-0,040
-699,758	143,267	-0,065	0,064
-698,743	-130,217	-0,090	-0,009
-697,729	173,957	0,059	0,063
-696,714	-57,769	-0,155	0,050
-695,699	57,959	-0,112	-0,080
-694,685	419,775	-0,027	0,043
-693,670	-200,000	-0,021	-0,203
-692,656	800,000	0,051	0,124
-691,641	170,567	0,083	-0,087
-690,627	-16,408	0,066	-0,031
-689,612	-200,000	-0,032	-0,108
-688,597	-20,011	-0,195	0,088
-687,583	-200,000	-0,013	-0,149
-686,568	-58,066	-0,101	0,032
-685,554	62,042	-0,094	0,069
-684,539	-101,971	-0,052	0,009
-683,524	800,000	0,038	0,095
-682,510	34,471	-0,111	0,071
-681,495	-200,000	-0,032	-0,131
-680,481	77,552	-0,065	-0,051
-679,466	-200,000	0,007	-0,077
-678,451	-121,238	0,067	-0,008
-677,437	181,163	0,070	0,075
-676,422	-100,744	-0,072	-0,013
-675,408	-105,283	-0,163	0,027
-674,393	471,922	0,035	-0,059
-673,378	67,432	-0,092	-0,069
-672,364	72,048	0,038	0,029
-671,349	111,683	-0,132	-0,117
-670,335	-77,425	0,109	0,028
-669,320	213,597	0,030	-0,035
-668,305	505,808	-0,034	0,058
-667,291	-200,000	0,009	0,082
-666,276	657,116	-0,031	0,058
-665,262	0,898	-0,130	-0,068
-664,247	142,702	0,066	-0,065
-663,232	103,920	-0,032	0,027
-662,218	50,155	0,058	0,040
-661,203	-1,052	0,070	0,036
-660,189	-200,000	0,005	0,025
-659,174	-200,000	-0,007	-0,105
-658,159	-71,668	0,188	-0,051
-657,145	-53,475	-0,101	0,034
-656,130	-18,713	0,089	-0,040
-655,116	189,550	-0,058	-0,063
-654,101	-136,397	-0,049	0,004
-653,086	-17,136	-0,050	0,023
-652,072	-121,574	-0,108	0,013
-651,057	98,769	-0,069	-0,059
-650,043	-101,358	0,032	-0,006
-649,028	45,191	0,026	0,017
-648,014	-39,494	0,058	-0,022
-646,999	-9,485	0,090	0,044
-645,984	16,607	-0,087	0,051
-644,970	-37,539	-0,194	-0,076
-643,955	-33,953	-0,059	-0,024
-642,941	800,000	0,037	-0,112
-641,926	247,682	-0,107	-0,133
-640,911	-27,326	0,060	0,025
-639,897	-200,000	0,031	-0,109
-638,882	-122,384	0,070	-0,008
-637,868	177,361	-0,060	-0,064
-636,853	-133,935	-0,201	-0,018
-635,838	800,000	0,021	-0,066
-634,824	-0,107	-0,099	0,052
-633,809	-200,000	0,019	0,126
-632,795	-69,979	0,071	-0,020
-631,780	-47,236	0,018	-0,006
-630,765	-200,000	-0,008	0,106
-629,751	36,838	0,148	0,096
-628,736	598,306	-0,098	0,178
-627,722	-44,362	0,010	0,004
-626,707	59,585	0,049	0,035
-625,692	597,839	-0,068	0,124
-624,678	800,000	-0,042	-0,110
-623,663	800,000	-0,029	-0,088
-622,649	10,231	-0,034	0,019
-621,634	-200,000	0,002	-0,139
-620,619	272,114	-0,054	-0,071
-619,605	-200,000	-0,014	-0,051
-618,590	314,181	0,036	0,050
-617,576	-200,000	-0,009	-0,070
-616,561	172,002	0,019	-0,021
-615,546	-200,000	-0,024	-0,108
-614,532	-200,000	-0,011	-0,170
-613,517	-200,000	-0,025	0,082
-612,503	191,594	-0,032	-0,036
-611,488	-139,296	0,088	-0,007
-610,474	800,000	-0,038	-0,087
-609,459	-200,000	-0,000	-0,093
-608,444	-71,560	0,105	0,029
-607,430	24,389	-0,074	0,044
-606,415	-18,368	0,019	0,009
-605,401	-16,936	-0,088	0,041
-604,386	425,808	0,104	0,165
-603,371	80,881	0,052	-0,041
-602,357	800,000	-0,039	0,092
-601,342	-200,000	-0,001	-0,035
-600,328	-200,000	0,004	-0,062
-599,313	800,000	-0,016	-0,043
-598,298	-171,088	0,131	0,003
-597,284	-4,741	-0,039	0,020
-596,269	283,149	0,042	0,056
-595,255	-28,258	0,065	-0,028
-594,240	323,450	0,036	-0,050
-593,225	-75,830	-0,136	0,035
-592,211	271,175	-0,015	0,019
-591,196	-162,785	0,040	0,001
-590,182	297,542	0,037	-0,050
-589,167	278,990	0,028	-0,037
-588,152	800,000	-0,023	0,064
-587,138	-69,361	-0,149	-0,042
-586,123	-200,000	-0,005	-0,080
-585,109	-96,774	-0,034	0,006
-584,094	-113,342	-0,114	0,016
-583,079	284,885	0,109	0,144
-582,065	154,727	-0,014	0,014
-581,050	-125,161	0,083	-0,009
-580,036	-200,000	0,018	0,066
-579,021	-161,574	-0,073	0,003
-578,006	148,592	-0,180	-0,179
-576,992	-91,495	0,071	0,015
-575,977	384,675	0,018	0,027
-574,963	-127,815	0,087	0,009
-573,948	-5,660	-0,053	-0,026
-572,934	196,181	-0,077	-0,086
-571,919	14,547	-0,091	-0,052
-570,904	66,696	-0,034	0,025
-569,890	-30,091	0,045	-0,019
-568,875	273,213	0,058	-0,075
-567,861	-111,679	0,100	0,015
-566,846	-200,000	-0,024	-0,091
-565,831	21,788	-0,147	-0,087
-564,817	563,833	0,044	-0,078
-563,802	43,513	-0,055	0,037
-562,788	97,715	-0,057	-0,048
-561,773	-200,000	0,011	0,063
-560,758	-63,007	-0,132	0,040
-559,744	8,717	0,070	-0,038
-558,729	11,280	-0,214	-0,120
-557,715	-200,000	-0,014	-0,050
-556,700	-0,161	-0,046	-0,024
-555,685	344,926	-0,131	-0,189
-554,671	150,043	-0,031	-0,031
-553,656	-200,000	0,010	-0,037
-552,642	-200,000	-0,008	0,031
-551,627	182,005	0,093	0,100
-550,612	-14,732	-0,053	0,025
-549,598	183,759	-0,039	-0,042
-548,583	-132,368	-0,089	-0,008
-547,569	800,000	-0,031	0,077
-546,554	-13,994	0,037	-0,017
-545,539	119,010	0,071	0,064
-544,525	-47,987	-0,110	0,039
-543,510	35,273	-0,046	0,029
-542,496	244,147	-0,023	-0,028
-541,481	800,000	-0,065	-0,153
-540,466	800,000	0,049	0,101
-539,452	-12,474	0,037	0,017
-538,437	-200,000	-0,015	0,068
-537,423	305,060	-0,015	-0,021
-536,408	-58,263	-0,006	-0,002
-535,393	-16,180	-0,129	-0,060
-534,379	-117,605	-0,094	0,012
-533,364	384,052	0,053	-0,080
-532,350	26,130	-0,065	-0,040
-531,335	572,696	-0,007	0,012
-530,321	201,657	-0,025	-0,028
-529,306	291,914	-0,039	0,052
-528,291	-156,534	0,078	-0,003
-527,277	800,000	0,025	-0,072
-526,262	9,564	0,154	-0,085
-525,248	-89,755	0,033	-0,007
-524,233	-200,000	-0,005	-0,029
-523,218	-200,000	-0,005	0,046
-522,204	108,431	-0,059	0,052
-521,189	191,240	-0,096	-0,105
-520,175	-11,262	-0,109	-0,052
-519,160	-200,000	-0,002	-0,084
-518,145	-200,000	0,035	-0,167
-517,131	244,441	-0,078	0,096
-516,116	-200,000	0,016	0,055
-515,102	-62,647	-0,077	0,023
-514,087	231,269	0,070	-0,084
-513,072	-200,000	-0,010	-0,078
-512,058	800,000	-0,031	0,072
-511,043	56,359	-0,012	0,009
-510,029	115,419	-0,039	0,035
-509,014	-12,616	0,048	-0,023
-507,999	-83,219	-0,136	0,032
-506,985	44,432	0,020	0,013
-505,970	263,162	-0,057	0,073
-504,956	-200,000	-0,023	-0,173
-503,941	-62,054	0,037	-0,011
-502,926	140,027	0,180	-0,174
-501,912	-59,167	0,218	-0,068
-500,897	-103,411	0,061	-0,010
-499,883	-37,774	-0,066	-0,026
-498,868	337,314	-0,133	-0,189
-497,853	800,000	-0,016	0,049
-496,839	46,439	-0,087	-0,059
-495,824	-142,994	0,039	0,003
-494,810	800,000	0,038	0,117
-493,795	-155,314	0,132	-0,006
-492,781	800,000	0,033	-0,071
-491,766	-200,000	0,008	-0,055
-490,751	106,120	-0,122	-0,105
-489,737	238,792	-0,050	-0,061
-488,722	-130,388	-0,092	-0,009
-487,708	15,280	-0,091	-0,052
-486,693	125,975	-0,055	0,050
-485,678	800,000	-0,054	0,119
-484,664	256,363	-0,151	-0,190
-483,649	-147,451	0,131	0,008
-482,635	-200,000	-0,002	-0,087
-481,620	-172,070	0,061	-0,001
-480,605	210,533	-0,045	0,052
-479,591	199,183	-0,098	0,110
-478,576	-200,000	0,016	0,055
-477,562	281,247	0,058	0,076
-476,547	-55,602	0,130	0,042
-475,532	-200,000	0,016	-0,098
-474,518	168,946	0,057	-0,060
-473,503	800,000	-0,008	0,022
-472,489	69,337	0,139	0,104
-471,474	54,388	0,028	-0,020
-470,459	800,000	0,042	-0,088
-469,445	239,611	0,035	-0,042
-468,430	208,959	0,005	0,006
-467,416	-200,000	0,012	0,118
-466,401	-41,013	-0,040	-0,015
-465,386	-124,786	-0,073	0,008
-464,372	175,722	-0,049	0,052
-463,357	-72,424	0,124	0,033
-462,343	-200,000	-0,015	-0,104
-461,328	142,555	-0,055	-0,054
-460,313	-123,842	0,003	-0,000
-459,299	48,238	-0,021	-0,014
-458,284	50,110	0,007	0,004
-457,270	-200,000	0,011	0,088
-456,255	470,461	-0,047	0,078
-455,241	440,388	-0,057	0,091
-454,226	-104,605	-0,096	-0,016
-453,211	800,000	-0,022	0,054
-452,197	-200,000	-0,001	-0,032
-451,182	310,296	-0,085	-0,117
-450,168	-200,000	0,005	0,091
-449,153	50,517	-0,050	-0,035
-448,138	0,311	-0,106	0,055
-447,124	-0,859	-0,145	-0,075
-446,109	283,912	0,024	0,031
-445,095	-200,000	0,026	0,144
-444,080	-200,000	-0,040	0,131
-443,065	397,695	-0,068	-0,104
-442,051	64,094	0,081	0,059
-441,036	55,917	-0,055	0,039
-440,022	20,878	-0,065	0,038
-439,007	-144,242	0,026	-0,002
-437,992	-43,685	0,043	-0,016
-436,978	-49,234	0,058	0,020
-435,963	-200,000	-0,011	-0,036
-434,949	-200,000	0,019	0,112
-433,934	148,563	0,070	0,069
-432,919	-200,000	0,010	0,051
-431,905	276,061	0,044	-0,057
-430,890	292,533	-0,064	-0,085
-429,876	-179,322	0,065	-0,001
-428,861	96,336	0,060	0,050
-427,846	-94,458	0,147	0,029
-426,832	-200,000	-0,026	-0,180
-425,817	-90,475	0,064	0,013
-424,803	151,056	0,038	0,038
-423,788	-12,179	0,072	-0,034
-422,773	-200,000	0,000	0,020
-421,759	-200,000	-0,023	0,077
-420,744	-116,729	-0,056	-0,007
-419,730	-129,583	0,017	0,002
-418,715	150,201	0,123	-0,122
-417,701	-28,802	-0,078	-0,032
-416,686	63,785	0,017	0,013
-415,671	-200,000	-0,005	0,096
-414,657	-200,000	-0,004	-0,016
-413,642	-200,000	0,010	0,039
-412,628	-106,823	-0,114	-0,018
-411,613	-200,000	0,004	0,019
-410,598	800,000	-0,030	0,064
-409,584	27,144	0,028	0,017
-408,569	399,628	0,050	0,076
-407,555	29,504	-0,069	0,043
-406,540	132,865	-0,062	-0,059
-405,525	-139,917	0,145	0,011
-404,511	71,054	0,025	-0,018
-403,496	-76,344	-0,016	0,004
-402,482	-57,041	0,121	0,038
-401,467	-71,370	0,049	0,013
-400,452	-200,000	0,011	0,106
-399,438	735,083	0,062	0,122
-398,423	800,000	-0,038	-0,110
-397,409	-200,000	-0,014	-0,133
-396,394	-200,000	-0,010	-0,117
-395,379	75,171	0,099	-0,076
-394,365	-58,823	0,022	-0,007
-393,350	71,055	0,059	0,045
-392,336	38,729	-0,044	0,029
-391,321	58,868	0,079	0,056
-390,306	-134,281	0,054	0,005
-389,292	-200,000	0,000	-0,044
-388,277	739,966	0,015	0,029
-387,263	-2,553	0,098	0,050
-386,248	-0,863	-0,036	0,019
-385,233	-127,320	0,067	0,007
-384,219	-200,000	-0,009	0,041
-383,204	108,440	-0,051	-0,044
-382,190	304,615	-0,037	0,050
-381,175	132,000	0,115	-0,108
-380,160	142,787	-0,029	-0,028
-379,146	-200,000	-0,001	-0,059
-378,131	162,176	-0,060	0,062
-377,117	-115,987	-0,032	-0,004
-376,102	-200,000	0,002	-0,088
-375,088	-83,710	-0,141	-0,032
-374,073	-122,355	-0,133	-0,016
-373,058	447,792	0,061	-0,097
-372,044	6,537	0,101	0,054
-371,029	-200,000	-0,009	0,092
-370,015	-200,000	-0,009	0,091
-369,000	380,223	0,080	0,119
-367,985	24,027	-0,106	-0,064
-366,971	-130,284	0,110	0,011
-365,956	-40,673	0,078	0,029
-364,942	-22,903	0,139	0,061
-363,927	74,160	-0,077	-0,059
-362,912	543,785	-0,014	0,025
-361,898	12,596	-0,030	-0,017
-360,883	12,882	-0,097	0,054
-359,869	800,000	0,062	-0,195
-358,854	536,546	0,068	-0,118
-357,839	-141,536	0,064	-0,005
-356,825	-200,000	0,012	-0,040
-355,810	-102,228	-0,045	-0,008
-354,796	-42,272	-0,065	-0,024
-353,781	-91,089	-0,041	0,009
-352,766	-0,040	-0,057	-0,029
-351,752	-90,975	0,106	-0,022
-350,737	254,044	-0,099	0,123
-349,723	-99,884	0,182	0,033
-348,708	-94,660	-0,043	0,008
-347,693	29,095	0,087	-0,054
-346,679	-52,582	0,064	0,021
-345,664	-200,000	-0,006	-0,065
-344,650	320,066	-0,075	0,103
-343,635	-51,333	0,142	-0,048
-342,620	800,000	0,017	0,044
-341,606	-200,000	-0,019	0,077
-340,591	-52,856	0,072	0,024
-339,577	800,000	-0,050	-0,110
-338,562	48,296	-0,063	-0,043
-337,548	-200,000	0,029	0,141
-336,533	-200,000	-0,026	0,214
-335,518	800,000	-0,019	0,042
-334,504	-200,000	-0,014	0,137
-333,489	800,000	0,026	0,062
-332,475	-200,000	0,017	-0,129
-331,460	285,161	-0,029	-0,038
-330,445	800,000	0,081	-0,198
-329,431	-43,061	0,114	-0,042
-328,416	-200,000	-0,000	0,081
-327,402	800,000	-0,027	0,085
-326,387	-143,839	0,070	0,005
-325,372	-150,212	0,041	0,002
-324,358	800,000	-0,081	-0,233
-323,343	-92,283	0,029	0,006
-322,329	-200,000	0,012	0,085
-321,314	-200,000	-0,016	0,095
-320,299	312,752	-0,036	0,049
-319,285	-200,000	0,018	-0,063
-318,270	-59,240	-0,018	-0,005
-317,256	-32,564	-0,151	-0,061
-316,241	607,809	0,061	0,112
-315,226	800,000	0,051	-0,108
-314,212	-121,392	0,123	-0,015
-313,197	460,921	0,099	0,161
-312,183	74,800	0,055	-0,042
-311,168	615,921	-0,022	-0,039
-310,153	186,444	-0,060	-0,065
-309,139	216,888	-0,056	0,065
-308,124	-64,621	-0,083	0,024
-307,110	11,623	0,056	-0,031
-306,095	260,948	0,090	0,113
-305,080	116,837	0,016	-0,014
-304,066	50,600	-0,197	-0,135
-303,051	29,605	-0,070	-0,043
-302,037	208,148	0,068	0,077
-301,022	222,023	-0,069	-0,081
-300,008	-131,324	0,063	-0,006
-298,993	-200,000	0,021	0,193
-297,978	61,359	-0,108	0,078
-296,964	-163,915	0,075	-0,002
-295,949	56,628	0,030	-0,021
-294,935	-66,088	0,184	0,053
-293,920	192,766	0,077	0,084
-292,905	161,146	-0,056	0,057
-291,891	28,968	0,049	-0,030
-290,876	-200,000	0,058	0,194
-289,862	140,024	-0,078	-0,074
-288,847	-200,000	-0,000	0,020
-287,832	-132,476	-0,093	0,009
-286,818	-130,054	0,120	0,012
-285,803	-200,000	0,002	0,068
-284,789	-200,000	-0,012	0,100
-283,774	71,990	0,034	-0,025
-282,759	177,147	-0,039	-0,041
-281,745	-39,264	0,131	-0,050
-280,730	-112,486	-0,145	0,021
-279,716	30,007	0,124	0,076
-278,701	800,000	-0,045	0,140
-277,686	-55,840	0,048	0,015
-276,672	-64,097	-0,096	-0,028
-275,657	-200,000	0,007	0,111
-274,643	-159,514	0,071	0,003
-273,628	-140,587	0,018	0,001
-272,613	11,251	0,051	0,028
-271,599	78,312	-0,052	-0,040
-270,584	202,801	-0,013	-0,014
-269,570	-200,000	0,002	-0,013
-268,555	-6,007	-0,078	-0,039
-267,540	380,947	-0,057	-0,085
-266,526	130,551	-0,029	0,026
-265,511	156,714	0,025	0,025
-264,497	319,698	-0,049	0,067
-263,482	84,023	0,073	-0,058
-262,467	-116,044	0,127	0,017
-261,453	-92,398	-0,013	0,003
-260,438	-200,000	-0,010	-0,066
-259,424	800,000	-0,030	-0,065
-258,409	-65,064	-0,101	-0,029
-257,395	-200,000	0,005	-0,071
-256,380	275,725	0,042	-0,054
-255,365	74,539	0,043	0,032
-254,351	32,305	0,100	-0,062
-253,336	-200,000	-0,003	-0,020
-252,322	-200,000	-0,036	-0,134
-251,307	800,000	0,030	0,062
-250,292	-200,000	-0,018	-0,095
-249,278	-46,388	0,050	-0,018
-248,263	218,965	0,113	0,131
-247,249	-60,520	0,050	0,015
-246,234	-200,000	-0,003	0,103
-245,219	192,831	-0,069	-0,075
-244,205	666,634	0,056	0,106
-243,190	-200,000	0,006	0,033
-242,176	800,000	0,037	-0,082
-241,161	-12,602	-0,075	-0,035
-240,146	-82,109	0,172	-0,040
-239,132	161,867	0,033	0,034
-238,117	138,393	-0,097	-0,092
-237,103	12,406	-0,192	-0,107
-236,088	-200,000	0,052	-0,179
-235,073	686,898	-0,053	-0,101
-234,059	32,104	-0,055	-0,034
-233,044	-200,000	-0,008	0,039
-232,030	800,000	0,041	0,089
-231,015	5,754	-0,073	-0,039
-230,000	-200,000	-0,027	0,129
-228,986	662,787	-0,078	0,146
-227,971	368,926	0,053	0,078
-226,957	166,423	0,109	0,112
-225,942	756,847	0,041	0,080
-224,927	-200,000	-0,001	-0,084
-223,913	-200,000	0,040	0,143
-222,898	-75,792	-0,115	-0,029
-221,884	-200,000	0,000	-0,026
-220,869	-200,000	-0,027	0,097
-219,855	6,292	0,147	0,078
-218,840	-10,546	0,047	0,022
-217,825	800,000	-0,018	0,038
-216,811	103,391	0,036	-0,030
-215,796	211,530	0,106	-0,121
-214,782	-77,751	0,057	-0,014
-213,767	73,255	0,071	0,054
-212,752	-102,769	0,031	-0,005
-211,738	-200,000	0,019	-0,158
-210,723	138,778	-0,093	0,089
-209,709	572,960	-0,070	0,123
-208,694	800,000	0,036	0,106
-207,679	143,139	-0,069	0,067
-206,665	-126,349	-0,032	0,003
-205,650	50,058	0,039	0,026
-204,636	-105,394	0,061	-0,010
-203,621	113,601	0,052	0,045
-202,606	-75,989	-0,081	-0,020
-201,592	-200,000	-0,021	0,083
-200,577	248,490	-0,055	0,067
-199,563	800,000	-0,008	0,018
-198,548	-107,381	0,107	0,017
-197,533	202,537	-0,061	-0,068
-196,519	-23,225	-0,040	0,017
-195,504	363,175	-0,031	0,045
-194,490	75,914	-0,108	-0,083
-193,475	636,270	0,076	-0,140
-192,460	-30,240	-0,103	0,042
-191,446	567,729	-0,075	0,132
-190,431	-90,199	0,133	-0,028
-189,417	-200,000	0,018	0,161
-188,402	207,929	0,148	0,167
-187,387	-52,406	-0,109	0,036
-186,373	-123,383	0,044	0,005
-185,358	-180,484	-0,081	0,001
-184,344	-200,000	-0,004	0,079
-183,329	385,478	0,067	-0,099
-182,315	-28,629	-0,030	0,012
-181,300	81,061	0,044	-0,034
-180,285	166,780	-0,158	0,161
-179,271	735,021	0,020	-0,039
-178,256	-98,412	0,026	0,005
-177,242	-200,000	-0,020	0,098
-176,227	164,393	0,019	0,019
-175,212	-80,399	0,114	-0,027
-174,198	800,000	-0,042	0,091
-173,183	-200,000	-0,016	-0,108
-172,169	-200,000	-0,055	-0,221
-171,154	638,705	0,052	-0,097
-170,139	116,721	0,048	-0,042
-169,125	437,586	-0,008	0,013
-168,110	512,665	0,082	0,139
-167,096	10,131	0,054	-0,029
-166,081	800,000	-0,016	-0,049
-165,066	800,000	0,010	0,025
-164,052	-200,000	0,003	-0,083
-163,037	182,476	0,030	0,032
-162,023	19,063	0,067	-0,039
-161,008	475,138	-0,029	-0,047
-159,993	34,732	-0,045	-0,028
-158,979	576,373	-0,046	-0,081
-157,964	108,163	0,065	0,056
-156,950	-134,820	0,120	0,010
-155,935	-200,000	0,002	0,095
-154,920	80,582	0,086	0,067
-153,906	-200,000	0,008	0,066
-152,891	128,295	-0,126	0,115
-151,877	5,455	-0,204	-0,108
-150,862	182,677	0,044	-0,047
-149,847	-27,358	-0,085	-0,035
-148,833	-200,000	-0,023	0,116
-147,818	682,314	0,103	0,194
-146,804	-200,000	0,010	0,069
-145,789	-95,205	0,046	-0,009
-144,775	-132,142	0,027	-0,002
-143,760	353,878	0,051	-0,074
-142,745	-111,670	-0,136	-0,020
-141,731	-200,000	-0,006	-0,074
-140,716	513,596	0,055	0,093
-139,702	800,000	-0,039	0,109
-138,687	98,317	-0,096	0,080
-137,672	270,882	-0,011	-0,014
-136,658	106,711	-0,088	-0,075
-135,643	116,076	-0,033	0,029
-134,629	137,683	-0,028	-0,027
-133,614	-150,468	-0,059	0,003
-132,599	-18,214	0,156	0,070
-131,585	139,427	-0,104	-0,099
-130,570	-200,000	-0,007	-0,043
-129,556	-144,531	-0,062	0,004
-128,541	-200,000	-0,026	-0,119
-127,526	69,211	0,076	-0,056
-126,512	26,697	-0,044	0,027
-125,497	800,000	0,042	-0,094
-124,483	-23,530	-0,152	0,066
-123,468	-35,470	0,096	-0,037
-122,453	93,876	0,046	-0,038
-121,439	108,710	-0,072	-0,062
-120,424	41,339	-0,033	-0,022
-119,410	-21,625	0,021	-0,009
-118,395	-200,000	-0,018	-0,065
-117,380	12,488	-0,094	0,052
-116,366	-103,814	-0,138	0,023
-115,351	-42,192	-0,092	0,034
-114,337	-200,000	0,010	0,045
-113,322	557,859	-0,027	-0,048
-112,307	-200,000	0,042	0,145
-111,293	800,000	0,041	0,082
-110,278	-120,504	0,080	-0,010
-109,264	40,924	0,026	-0,017
-108,249	800,000	-0,029	-0,080
-107,234	800,000	0,066	-0,169
-106,220	800,000	-0,044	-0,113
-105,205	-200,000	0,001	-0,045
-104,191	146,779	0,083	0,080
-103,176	121,386	0,094	0,084
-102,162	36,617	-0,127	0,080
-101,147	256,122	-0,021	0,026
-100,132	-155,565	-0,062	0,003
-99,118	800,000	-0,074	-0,215
-98,103	10,343	-0,063	0,034
-97,089	304,132	0,098	0,131
-96,074	-37,394	-0,082	-0,031
-95,059	18,902	-0,129	-0,074
-94,045	347,598	0,041	0,058
-93,030	800,000	0,041	-0,130
-92,016	202,419	-0,092	-0,102
-91,001	130,517	-0,030	-0,028
-89,986	513,321	0,017	0,029
-88,972	-200,000	0,029	0,138
-87,957	-49,315	0,051	-0,017
-86,943	-108,935	-0,033	0,005
-85,928	41,931	-0,154	0,100
-84,913	-37,651	-0,149	-0,057
-83,899	284,966	-0,071	-0,092
-82,884	-3,050	-0,117	0,058
-81,870	-200,000	0,065	0,211
-80,855	-200,000	-0,004	0,114
-79,840	-200,000	-0,044	0,153
-78,826	-200,000	0,028	-0,126
-77,811	-33,271	-0,108	-0,043
-76,797	-200,000	-0,005	0,023
-75,782	348,851	0,026	0,037
-74,767	-200,000	0,018	0,086
-73,753	800,000	0,013	0,028
-72,738	60,139	-0,054	-0,038
-71,724	-39,893	-0,129	-0,048
-70,709	-200,000	0,016	-0,317
-69,694	800,000	-0,022	0,053
-68,680	131,013	0,036	-0,033
-67,665	-72,933	0,165	0,043
-66,651	156,591	0,042	-0,042
-65,636	237,371	-0,015	0,017
-64,622	-200,000	-0,002	-0,029
-63,607	28,749	-0,130	-0,079
-62,592	312,811	-0,068	-0,092
-61,578	-200,000	-0,019	0,064
-60,563	-200,000	0,020	0,104
-59,549	199,040	0,065	0,071
-58,534	47,673	-2,445	-1,635
-57,519	-200,000	0,111	-0,583
-56,505	-200,000	-1,525	-5,422
-55,490	270,522	1,046	1,324
-54,476	800,000	5,303	11,859
-53,461	-200,000	20,696	339,326
-52,446	800,000	761,715	2362,842
-51,432	541,567	1666,933	2862,258
-50,417	112,319	1636,416	1420,185
-49,403	80,279	1286,374	992,695
-48,388	28,576	1028,585	623,102
-47,373	19,797	992,493	572,132
-46,359	15,059	980,062	549,337
-45,344	11,121	976,607	534,404
-44,330	11,560	974,678	534,772
-43,315	10,597	972,671	530,484
-42,300	10,595	971,477	529,803
-41,286	10,578	970,545	529,220
-40,271	10,508	969,748	528,532
-39,257	10,543	968,641	528,024
-38,242	10,553	967,838	527,598
-37,227	10,577	966,956	527,175
-36,213	10,580	966,149	526,724
-35,198	10,464	965,429	525,930
-34,184	10,482	964,606	525,521
-33,169	10,506	963,665	525,065
-32,154	10,533	962,690	524,601
-31,140	10,582	961,701	524,201
-30,125	10,524	961,107	523,669
-29,111	10,563	960,174	523,265
-28,096	10,533	959,681	522,881
-27,082	10,596	958,760	522,562
-26,067	10,614	957,972	522,170
-25,052	10,575	957,263	521,634
-24,038	10,538	956,461	521,058
-23,023	10,572	956,041	520,919
-22,009	10,570	955,483	520,586
-20,994	10,614	954,841	520,359
-19,979	10,513	954,155	519,639
-18,965	10,503	953,694	519,334
-17,950	10,522	952,951	518,972
-16,936	10,472	952,341	518,457
-15,921	10,511	951,446	518,076
-14,906	10,464	950,602	517,443
-13,892	10,451	950,128	517,121
-12,877	10,400	949,565	516,632
-11,863	10,354	948,979	516,146
-10,848	10,436	948,443	516,095
-9,833	10,463	947,948	515,892
-8,819	10,468	947,238	515,503
-7,804	10,508	946,173	515,030
-6,790	10,394	945,930	514,514
-5,775	10,492	945,260	514,441
-4,760	10,554	944,563	514,239
-3,746	10,483	944,003	513,686
-2,731	10,281	943,548	512,777
-1,717	10,297	942,802	512,401
-0,702	10,300	942,114	512,016
0,313	10,120	941,539	511,903
1,327	13,649	939,126	521,739
2,342	22,626	789,128	462,148
3,356	17,864	455,027	259,201
4,371	-9,693	315,775	150,320
5,386	-13,438	297,821	137,940
6,400	-15,845	292,044	132,842
7,415	-15,754	289,511	131,768
8,429	-16,121	287,838	130,633
9,444	-15,986	286,849	130,306
10,459	-16,004	286,245	130,002
11,473	-16,045	285,674	129,691
12,488	-16,185	285,200	129,326
13,502	-16,155	284,650	129,096
14,517	-15,879	284,228	129,162
15,531	-15,494	283,789	129,325
16,546	-15,490	283,586	129,225
17,561	-15,483	283,107	129,002
18,575	-15,530	282,865	128,834
19,590	-15,505	282,549	128,703
20,604	-15,468	282,162	128,551
21,619	-15,436	281,808	128,409
22,634	-15,469	281,663	128,300
23,648	-15,332	281,099	128,163
24,663	-15,433	280,839	127,937
25,677	-15,295	280,579	127,939
26,692	-15,417	280,356	127,708
27,707	-15,399	280,276	127,678
28,721	-15,388	279,807	127,464
29,736	-15,562	279,438	127,118
30,750	-15,449	279,316	127,159
31,765	-15,483	279,045	126,992
32,780	-15,457	278,857	126,920
33,794	-15,449	278,582	126,791
34,809	-15,463	278,314	126,644
35,823	-15,382	278,067	126,597
36,838	-15,470	277,849	126,404
37,853	-15,422	277,482	126,271
38,867	-15,379	277,303	126,219
39,882	-15,473	277,086	126,020
40,896	-15,367	276,725	125,945
41,911	-15,282	276,457	125,892
42,926	-15,357	276,215	125,700
43,940	-15,455	275,981	125,489
44,955	-15,487	275,860	125,393
45,969	-15,316	275,584	125,418
46,984	-15,374	275,438	125,285
47,999	-15,380	275,001	125,070
49,013	-15,268	275,084	125,202
50,028	-15,207	274,800	125,119
51,042	-15,362	274,536	124,841
52,057	-15,407	274,313	124,687
53,071	-15,240	273,967	124,675
54,086	-15,323	273,840	124,529
55,101	-15,397	273,651	124,362
56,115	-15,366	273,402	124,267
57,130	-15,383	273,078	124,093
58,144	-15,460	272,837	123,900
59,159	-15,502	272,512	123,703
60,174	-15,432	272,422	123,716
61,188	-15,518	272,162	123,507
62,203	-15,475	271,964	123,446
63,217	-15,426	271,723	123,371
64,232	-15,463	271,439	123,197
65,247	-15,502	271,156	123,022
66,261	-15,596	270,974	122,841
67,276	-15,493	270,860	122,874
68,290	-15,352	270,498	122,828
69,305	-15,400	270,261	122,666
70,320	-15,315	270,079	122,650
71,334	-15,238	269,794	122,581
72,349	-15,372	269,567	122,344
73,363	-15,450	269,278	122,130
74,378	-15,463	269,051	122,004
75,393	-15,610	268,919	121,799
76,407	-15,337	268,566	121,878
77,422	-15,381	268,575	121,830
78,436	-15,373	268,307	121,705
79,451	-15,498	268,122	121,497
80,466	-15,543	267,669	121,240
81,480	-15,434	267,514	121,257
82,495	-15,432	267,324	121,163
83,509	-15,418	267,072	121,051
84,524	-15,136	266,781	121,164
85,539	-15,323	266,883	121,030
86,553	-15,252	266,524	120,920
87,568	-15,373	266,282	120,690
88,582	-15,419	266,143	120,574
89,597	-15,373	265,857	120,476
90,611	-15,492	265,752	120,310
91,626	-15,462	265,563	120,241
92,641	-15,457	265,426	120,172
93,655	-15,482	265,087	119,986
94,670	-15,373	264,890	119,984
95,684	-15,289	264,646	119,938
96,699	-15,297	264,417	119,817
97,714	-15,445	264,372	119,652
98,728	-15,242	264,160	119,728
99,743	-15,181	263,924	119,666
100,757	-15,198	263,702	119,539
101,772	-15,358	263,402	119,249
102,787	-15,234	263,149	119,235
103,801	-15,373	263,016	119,040
104,816	-15,650	262,980	118,765
105,830	-15,484	262,661	118,759
106,845	-15,491	262,407	118,627
107,860	-15,636	262,171	118,380
108,874	-15,513	261,953	118,381
109,889	-15,403	261,835	118,415
110,903	-15,405	261,459	118,232
111,918	-15,568	261,360	118,033
112,933	-15,384	261,083	118,060
113,947	-15,419	260,930	117,950
114,962	-15,332	260,727	117,924
115,976	-15,345	260,487	117,794
116,991	-15,512	260,456	117,621
118,006	-15,249	259,968	117,623
119,020	-15,338	259,941	117,521
120,035	-15,396	259,877	117,431
121,049	-15,456	259,808	117,336
122,064	-15,405	259,552	117,255
123,079	-15,602	259,323	116,967
124,093	-15,480	259,152	116,987
125,108	-15,388	258,872	116,932
126,122	-15,369	258,689	116,855
127,137	-15,129	258,469	116,956
128,151	-15,364	258,300	116,663
129,166	-15,249	257,974	116,606
130,181	-15,364	257,899	116,461
131,195	-15,206	257,664	116,482
132,210	-15,332	257,250	116,175
133,224	-15,401	257,020	116,001
134,239	-15,359	256,972	116,005
135,254	-15,517	256,841	115,798
136,268	-15,476	256,646	115,736
137,283	-15,363	256,478	115,748
138,297	-15,343	256,298	115,674
139,312	-15,406	256,044	115,494
140,327	-15,326	255,740	115,416
141,341	-15,362	255,681	115,348
142,356	-15,671	255,461	114,971
143,370	-15,536	255,161	114,942
144,385	-15,341	255,118	115,082
145,400	-15,145	254,835	115,113
146,414	-15,501	254,752	114,758
147,429	-15,331	254,572	114,813
148,443	-15,417	254,180	114,552
149,458	-15,357	254,152	114,580
150,473	-15,420	253,925	114,414
151,487	-15,266	253,591	114,385
152,502	-15,412	253,478	114,199
153,516	-15,349	253,300	114,162
154,531	-15,375	253,016	114,002
155,546	-15,192	252,852	114,075
156,560	-15,331	252,823	113,933
157,575	-15,386	252,570	113,762
158,589	-15,620	252,360	113,457
159,604	-15,318	252,123	113,597
160,619	-15,340	252,111	113,563
161,633	-15,151	251,799	113,574
162,648	-15,270	251,760	113,445
163,662	-15,357	251,664	113,317
164,677	-15,340	251,269	113,143
165,692	-15,347	251,218	113,105
166,706	-15,198	250,934	113,093
167,721	-15,305	250,817	112,940
168,735	-15,227	250,630	112,912
169,750	-15,363	250,534	112,743
170,764	-15,315	250,236	112,640
171,779	-15,456	250,219	112,503
172,794	-15,305	249,914	112,483
173,808	-15,379	249,879	112,395
174,823	-15,392	249,830	112,352
175,837	-15,217	249,451	112,318
176,852	-15,326	249,152	112,082
177,867	-15,361	249,138	112,036
178,881	-15,348	248,893	111,927
179,896	-15,471	248,719	111,736
180,910	-15,410	248,641	111,742
181,925	-15,399	248,389	111,627
182,940	-15,551	248,103	111,362
183,954	-15,392	247,969	111,425
184,969	-15,142	247,847	111,569
185,983	-15,162	247,755	111,502
186,998	-15,192	247,572	111,385
188,013	-15,255	247,287	111,193
189,027	-15,384	247,156	111,017
190,042	-15,292	246,824	110,935
191,056	-15,552	246,752	110,676
192,071	-15,518	246,534	110,596
193,086	-15,535	246,266	110,452
194,100	-15,406	246,028	110,443
195,115	-15,358	245,891	110,411
196,129	-15,337	245,689	110,328
197,144	-15,493	245,656	110,174
198,159	-15,397	245,266	110,069
199,173	-15,408	245,350	110,088
200,188	-15,537	244,958	109,795
201,202	-15,423	244,815	109,816
202,217	-15,382	244,673	109,776
203,232	-15,291	244,659	109,835
204,246	-15,422	244,237	109,528
205,261	-16,175	243,780	108,695
206,275	-15,623	244,198	109,325
207,290	-11,201	245,510	113,558
208,304	-4,626	247,904	120,132
209,319	-0,567	249,078	124,078
210,334	0,573	249,132	125,044
211,348	1,336	249,293	125,749
212,363	1,916	249,441	126,296
213,377	2,086	249,474	126,444
214,392	2,518	249,256	126,682
215,407	2,742	249,179	126,818
216,421	2,792	248,963	126,737
217,436	2,805	248,823	126,666
218,450	2,700	248,661	126,485
219,465	2,672	248,370	126,303
220,480	2,480	248,348	126,121
221,494	2,207	247,993	125,704
222,509	1,694	247,846	125,194
223,523	1,671	247,448	124,962
224,538	1,480	247,241	124,689
225,553	1,560	247,063	124,654
226,567	1,464	246,762	124,412
227,582	1,418	246,719	124,341
228,596	1,511	246,628	124,361
229,611	1,303	246,453	124,090
230,626	1,307	246,181	123,945
231,640	1,329	246,065	123,894
232,655	1,420	245,947	123,898
233,669	1,317	245,740	123,699
234,684	1,472	245,488	123,688
235,699	1,656	245,278	123,721
236,713	1,522	245,318	123,621
237,728	1,481	245,114	123,474
238,742	1,770	244,894	123,588
239,757	1,607	244,765	123,379
240,772	1,543	244,690	123,278
241,786	1,577	244,370	123,133
242,801	1,534	244,135	122,969
243,815	1,254	244,260	122,793
244,830	1,382	243,945	122,728
245,844	1,374	243,918	122,697
246,859	1,485	243,545	122,588
247,874	1,553	243,431	122,575
248,888	1,509	243,260	122,442
249,903	1,616	243,175	122,475
250,917	1,625	243,009	122,388
251,932	1,635	243,040	122,401
252,947	1,925	242,824	122,515
253,961	1,471	242,634	122,041
254,976	1,470	242,468	121,946
255,990	1,626	242,244	121,949
257,005	1,577	242,031	121,792
258,020	1,590	241,972	121,762
259,034	1,570	241,875	121,686
260,049	1,626	241,684	121,624
261,063	1,691	241,429	121,536
262,078	1,554	241,257	121,329
263,093	1,652	241,214	121,376
264,107	1,513	240,948	121,119
265,122	1,517	240,740	121,008
266,136	1,583	240,711	121,035
267,151	1,703	240,442	120,985
268,166	1,419	240,421	120,736
269,180	1,429	240,081	120,563
270,195	1,525	239,959	120,568
271,209	1,551	239,922	120,558
272,224	1,615	239,671	120,473
273,239	1,490	239,615	120,334
274,253	1,409	239,388	120,145
275,268	1,432	239,336	120,127
276,282	1,396	239,130	119,984
277,297	1,474	238,788	119,863
278,312	1,334	238,909	119,803
279,326	1,371	238,650	119,691
280,341	1,386	238,606	119,671
281,355	1,705	238,231	119,724
282,370	1,585	238,206	119,606
283,384	1,878	237,989	119,718
284,399	1,588	237,851	119,409
285,414	1,424	237,701	119,193
286,428	1,525	237,567	119,195
287,443	1,407	237,453	119,035
288,457	1,699	237,238	119,145
289,472	1,574	237,185	119,010
290,487	1,285	237,011	118,685
291,501	1,354	236,882	118,664
292,516	1,472	236,714	118,662
293,530	1,340	236,431	118,406
294,545	1,505	236,432	118,526
295,560	1,498	236,179	118,383
296,574	1,483	236,208	118,375
297,589	1,773	235,812	118,392
298,603	1,573	235,859	118,249
299,618	1,495	235,787	118,142
300,633	1,718	235,560	118,191
301,647	1,912	235,346	118,225
302,662	1,770	235,201	118,031
303,676	1,814	235,197	118,052
304,691	1,454	235,106	117,716
305,706	1,704	234,719	117,706
306,720	1,813	234,788	117,815
307,735	1,901	234,482	117,719
308,749	1,709	234,357	117,497
309,764	1,668	234,070	117,311
310,779	1,610	233,974	117,207
311,793	1,703	233,865	117,214
312,808	1,835	233,616	117,181
313,822	1,681	233,501	116,994
314,837	1,727	233,371	116,954
315,852	1,870	233,195	116,965
316,866	1,783	233,141	116,861
317,881	1,877	233,021	116,863
318,895	1,900	232,751	116,734
319,910	1,976	232,612	116,713
320,925	1,659	232,556	116,431
321,939	1,602	232,387	116,291
322,954	1,594	232,181	116,172
323,968	1,667	232,057	116,156
324,983	1,514	231,852	115,925
325,997	1,674	231,813	116,018
327,012	1,726	231,523	115,902
328,027	1,806	231,448	115,916
329,041	1,656	231,300	115,717
330,056	1,884	231,152	115,807
331,070	1,600	231,071	115,539
332,085	1,652	230,834	115,450
333,100	1,615	230,688	115,338
334,114	1,669	230,519	115,285
335,129	1,810	230,331	115,288
336,143	1,771	230,204	115,184
337,158	1,744	230,190	115,146
338,173	1,963	230,061	115,238
339,187	1,770	229,946	115,023
340,202	1,984	229,560	114,982
341,216	1,737	229,412	114,711
342,231	1,590	229,334	114,551
343,246	1,674	229,273	114,574
344,260	1,777	228,961	114,485
345,275	1,822	229,011	114,534
346,289	1,804	228,882	114,445
347,304	2,055	228,572	114,469
348,319	1,696	228,570	114,187
349,333	1,689	228,361	114,068
350,348	1,791	228,120	114,014
351,362	1,823	227,958	113,947
352,377	1,911	227,886	113,967
353,392	1,882	227,750	113,866
354,406	1,656	227,474	113,549
355,421	193,676	1313,148	1383,658
356,435	155,263	1445,318	1383,566
