DTS Sentinel unit serial number:	SN410029Multiplexer serial number:	ORYXHardware model number:	OX2-SRSoftware version number:	ORYX F/W v4,00 Oryx Data Collector v3.7.2.0data status	okinstallation	B5 Nyhavnadifferential loss correction	single-endedforward channel	channel 2reverse channel	N/Adate	2023/12/13time	23:07:13forward acquisition time	300,00reverse acquisition time	0,00gamma	499,1914k internal	0,3154k external	0,3154temperature offset calibration	1,0000default loss term (dB/km)	0,3820temperature slope calibration	1,0000multiplexer offset coefficient	1,0000multiplexer slope coefficient	1,0000fibre end	0,00T internal ref (°C)	9,03T ext. ref 1 (°C)	-7,52T ext. ref 2 (°C)	-7,52length (m)	temperature (°C)	Stokes	anti-Stokes-744,400	30,457	0,155	0,098
-743,385	-20,102	-0,443	-0,201
-742,371	-62,882	0,195	0,059
-741,356	-40,769	-0,385	-0,146
-740,342	108,236	0,094	0,082
-739,327	-117,990	-0,376	0,049
-738,312	166,214	0,073	0,077
-737,298	-122,878	-0,295	-0,035
-736,283	29,158	0,105	0,066
-735,269	-26,201	-0,326	-0,141
-734,254	-200,000	0,007	0,225
-733,239	-86,763	-0,498	-0,112
-732,225	160,405	0,191	0,197
-731,210	-200,000	-0,035	0,123
-730,196	125,279	-0,122	0,114
-729,181	-11,069	-0,036	0,018
-728,167	-103,912	-0,009	-0,001
-727,152	139,591	0,061	0,060
-726,137	386,123	-0,072	-0,110
-725,123	-52,788	-0,112	-0,038
-724,108	-200,000	-0,002	-0,029
-723,094	800,000	-0,063	-0,169
-722,079	35,883	-0,102	0,066
-721,064	313,736	-0,045	-0,062
-720,050	-94,318	-0,146	0,029
-719,035	-79,128	0,149	-0,037
-718,021	42,764	-0,057	-0,039
-717,006	-200,000	-0,009	-0,046
-715,991	-50,047	-0,094	-0,033
-714,977	551,439	-0,071	-0,127
-713,962	800,000	-0,018	-0,041
-712,948	-12,593	0,020	-0,010
-711,933	482,871	-0,063	-0,106
-710,918	-200,000	0,006	0,056
-709,904	61,644	-0,036	0,026
-708,889	106,891	-0,079	-0,070
-707,875	282,357	-0,059	-0,078
-706,860	-6,777	-0,140	-0,070
-705,845	-107,660	-0,131	-0,021
-704,831	-200,000	-0,020	0,109
-703,816	-200,000	-0,001	-0,192
-702,802	800,000	0,047	-0,135
-701,787	-157,345	-0,181	0,008
-700,772	-31,659	-0,017	0,007
-699,758	199,050	0,010	-0,011
-698,743	-132,445	0,063	0,006
-697,729	209,295	-0,067	0,077
-696,714	-113,699	0,087	-0,012
-695,699	-128,969	0,156	-0,016
-694,685	20,526	-0,081	-0,048
-693,670	-109,005	-0,033	0,005
-692,656	-200,000	-0,040	-0,170
-691,641	70,569	0,068	-0,052
-690,627	321,824	-0,023	0,032
-689,612	-200,000	0,007	-0,041
-688,597	-200,000	0,051	0,000
-687,583	43,472	-0,016	0,011
-686,568	-200,000	0,000	-0,132
-685,554	74,736	-0,123	-0,095
-684,539	73,309	0,068	-0,053
-683,524	715,833	-0,013	0,025
-682,510	-61,491	-0,104	-0,032
-681,495	-200,000	0,005	0,079
-680,481	-67,381	-0,102	-0,029
-679,466	-200,000	-0,014	-0,120
-678,451	800,000	0,004	0,008
-677,437	-38,242	-0,020	0,008
-676,422	-40,912	0,042	-0,016
-675,408	-147,433	-0,112	-0,007
-674,393	291,438	-0,050	-0,066
-673,378	-18,133	0,041	0,019
-672,364	542,677	-0,038	0,067
-671,349	11,255	-0,095	-0,053
-670,335	24,097	-0,030	0,018
-669,320	-7,036	0,113	0,056
-668,305	-101,339	-0,035	0,006
-667,291	-190,632	-0,220	-0,002
-666,276	-38,270	-0,083	-0,032
-665,262	-200,000	0,023	-0,156
-664,247	58,145	-0,158	-0,114
-663,232	-200,000	0,000	-0,009
-662,218	14,143	0,039	0,022
-661,203	305,519	0,066	0,090
-660,189	182,969	-0,048	-0,053
-659,174	-11,664	-0,089	-0,043
-658,159	-155,120	-0,067	0,003
-657,145	800,000	-0,061	0,156
-656,130	194,703	-0,046	-0,051
-655,116	-200,000	0,021	-0,118
-654,101	-59,725	-0,030	0,009
-653,086	-200,000	0,009	-0,034
-652,072	172,856	-0,037	0,039
-651,057	-200,000	-0,015	0,179
-650,043	161,795	-0,027	0,028
-649,028	332,114	0,006	-0,008
-648,014	800,000	-0,025	-0,051
-646,999	189,763	-0,057	0,063
-645,984	-51,750	0,074	-0,025
-644,970	-140,691	-0,079	-0,006
-643,955	95,733	-0,154	-0,129
-642,941	195,640	-0,032	-0,036
-641,926	800,000	-0,030	0,071
-640,911	-52,023	-0,094	0,032
-639,897	330,837	0,126	0,179
-638,882	-200,000	0,010	0,059
-637,868	-200,000	0,005	-0,102
-636,853	91,276	0,080	-0,066
-635,838	-200,000	0,011	-0,127
-634,824	-200,000	0,000	-0,135
-633,809	-200,000	-0,017	0,127
-632,795	59,879	0,096	-0,070
-631,780	43,918	-0,136	0,091
-630,765	73,382	-0,034	-0,026
-629,751	-106,784	-0,200	0,032
-628,736	332,045	-0,083	-0,119
-627,722	-200,000	-0,009	-0,106
-626,707	-35,001	0,075	-0,030
-625,692	375,873	0,007	-0,010
-624,678	-30,012	-0,044	0,018
-623,663	492,501	0,030	-0,051
-622,649	800,000	0,008	0,020
-621,634	321,721	-0,063	-0,089
-620,619	-200,000	-0,010	0,038
-619,605	-52,520	0,033	-0,011
-618,590	317,028	-0,070	-0,097
-617,576	-200,000	-0,034	-0,145
-616,561	-134,045	-0,168	-0,015
-615,546	-120,611	0,101	-0,012
-614,532	-83,673	-0,094	0,022
-613,517	-141,967	-0,071	-0,005
-612,503	197,714	-0,021	-0,023
-611,488	83,414	-0,084	-0,067
-610,474	-200,000	0,022	-0,094
-609,459	73,626	-0,100	0,076
-608,444	-161,594	-0,101	0,004
-607,430	368,003	-0,020	0,030
-606,415	-125,869	0,072	0,008
-605,401	-11,669	0,093	0,045
-604,386	-30,792	-0,089	-0,037
-603,371	510,279	0,076	-0,130
-602,357	800,000	0,028	-0,070
-601,342	-200,000	-0,034	-0,157
-600,328	800,000	-0,012	-0,028
-599,313	-30,549	-0,156	-0,065
-598,298	222,191	-0,096	-0,114
-597,284	737,818	-0,027	-0,053
-596,269	-94,870	0,009	0,002
-595,255	800,000	-0,014	-0,029
-594,240	-105,004	-0,044	0,007
-593,225	800,000	0,037	0,078
-592,211	-200,000	-0,008	-0,111
-591,196	63,558	0,103	0,076
-590,182	-200,000	0,010	-0,060
-589,167	-200,000	0,015	0,049
-588,152	-200,000	-0,016	-0,071
-587,138	-200,000	-0,022	0,074
-586,123	36,711	-0,135	-0,088
-585,109	-200,000	0,003	-0,075
-584,094	621,675	-0,067	-0,125
-583,079	-156,498	0,121	0,005
-582,065	-93,227	-0,043	0,009
-581,050	15,950	-0,137	-0,079
-580,036	61,823	-0,097	0,071
-579,021	-200,000	-0,007	-0,066
-578,006	513,799	-0,055	-0,095
-576,992	376,319	0,062	-0,093
-575,977	-200,000	-0,031	-0,107
-574,963	800,000	-0,023	0,070
-573,948	800,000	0,043	0,137
-572,934	800,000	0,048	0,102
-571,919	-99,860	0,108	-0,020
-570,904	37,410	0,104	0,068
-569,890	126,790	0,053	0,049
-568,875	-200,000	-0,023	-0,095
-567,861	115,799	0,022	0,019
-566,846	5,667	0,180	0,097
-565,831	758,237	-0,027	0,055
-564,817	86,373	-0,061	0,049
-563,802	250,849	0,048	-0,061
-562,788	226,475	0,063	0,075
-561,773	348,752	0,114	0,166
-560,758	75,677	0,102	0,079
-559,744	-159,370	0,082	0,003
-558,729	800,000	-0,024	0,058
-557,715	12,368	-0,075	-0,042
-556,700	-40,120	-0,039	-0,015
-555,685	103,682	-0,103	-0,088
-554,671	-173,381	-0,088	-0,002
-553,656	387,320	0,083	0,126
-552,642	-91,724	0,114	-0,024
-551,627	-51,806	0,130	0,044
-550,612	-153,121	-0,056	0,003
-549,598	-40,918	0,046	-0,017
-548,583	687,734	0,043	0,083
-547,569	-31,639	0,145	-0,059
-546,554	230,602	0,023	-0,027
-545,539	800,000	0,042	0,088
-544,525	800,000	-0,053	0,142
-543,510	-106,891	-0,095	-0,015
-542,496	-125,794	0,052	0,006
-541,481	15,756	-0,057	0,033
-540,466	-83,473	-0,124	-0,029
-539,452	-114,837	0,164	0,023
-538,437	-110,507	0,105	-0,016
-537,423	-200,000	-0,012	0,105
-536,408	-200,000	-0,015	0,107
-535,393	-200,000	0,028	-0,123
-534,379	800,000	-0,030	0,090
-533,364	800,000	0,024	0,077
-532,350	-84,286	0,017	0,004
-531,335	26,098	0,060	0,037
-530,321	260,160	-0,024	-0,031
-529,306	-76,935	-0,075	-0,019
-528,291	-200,000	0,021	0,079
-527,277	13,787	-0,088	-0,050
-526,262	-142,809	-0,085	0,006
-525,248	800,000	0,014	-0,031
-524,233	129,614	0,019	-0,018
-523,218	-200,000	0,013	0,055
-522,204	-200,000	-0,001	0,086
-521,189	248,446	-0,034	-0,043
-520,175	6,797	0,041	-0,023
-519,160	-200,000	-0,008	0,106
-518,145	2,675	0,057	0,030
-517,131	487,335	0,029	-0,049
-516,116	535,997	0,006	-0,010
-515,102	436,939	0,024	-0,039
-514,087	800,000	-0,102	-0,210
-513,072	36,805	-0,122	-0,079
-512,058	-200,000	0,006	0,034
-511,043	-200,000	0,010	0,052
-510,029	-74,487	0,098	0,026
-509,014	-200,000	-0,038	0,180
-507,999	348,412	-0,043	0,062
-506,985	-200,000	0,001	-0,134
-505,970	-163,901	0,022	-0,001
-504,956	-200,000	0,002	-0,039
-503,941	252,060	-0,086	0,107
-502,926	-38,716	0,127	0,049
-501,912	-200,000	-0,023	0,088
-500,897	-200,000	0,013	0,162
-499,883	-109,704	0,053	0,008
-498,868	800,000	0,029	0,091
-497,853	-157,312	-0,033	0,001
-496,839	-22,823	-0,028	-0,012
-495,824	140,123	-0,059	0,057
-494,810	800,000	0,029	-0,061
-493,795	-50,839	-0,074	0,025
-492,781	-200,000	-0,009	-0,069
-491,766	-58,255	-0,100	-0,031
-490,751	352,044	-0,013	-0,019
-489,737	580,173	0,008	0,015
-488,722	-133,870	0,103	0,009
-487,708	-69,485	0,148	0,041
-486,693	-55,045	0,071	-0,023
-485,678	356,349	-0,072	-0,105
-484,664	800,000	-0,031	0,086
-483,649	60,868	0,084	0,061
-482,635	-200,000	0,034	-0,125
-481,620	81,072	0,031	0,025
-480,605	63,692	0,039	0,029
-479,591	224,772	0,018	0,022
-478,576	800,000	-0,039	-0,124
-477,562	-111,359	-0,076	-0,011
-476,547	-113,097	-0,065	0,009
-475,532	153,509	0,045	-0,045
-474,518	-200,000	-0,010	-0,069
-473,503	-75,574	0,148	-0,038
-472,489	-118,040	-0,040	0,005
-471,474	129,539	0,071	-0,066
-470,459	-165,204	-0,172	0,005
-469,445	-200,000	0,008	0,028
-468,430	199,010	0,097	-0,108
-467,416	800,000	0,049	0,110
-466,401	-200,000	-0,024	-0,140
-465,386	39,905	0,130	-0,085
-464,372	-16,085	0,043	-0,020
-463,357	-37,461	-0,079	0,031
-462,343	-65,842	0,014	-0,004
-461,328	127,875	0,117	-0,108
-460,313	-200,000	-0,026	0,113
-459,299	800,000	0,015	0,048
-458,284	-56,203	0,102	0,033
-457,270	-30,619	0,022	0,009
-456,255	-86,404	-0,032	0,007
-455,241	-200,000	-0,000	-0,019
-454,226	-68,317	-0,127	0,036
-453,211	197,689	0,075	-0,083
-452,197	800,000	0,031	-0,080
-451,182	51,277	0,169	0,117
-450,168	235,694	0,041	0,050
-449,153	359,411	-0,079	-0,115
-448,138	476,359	-0,088	-0,146
-447,124	258,354	-0,071	-0,090
-446,109	-66,164	0,136	0,039
-445,095	-159,710	0,081	-0,003
-444,080	285,318	-0,017	0,022
-443,065	-3,459	-0,062	0,032
-442,051	-181,114	0,088	-0,001
-441,036	-90,168	-0,119	0,025
-440,022	259,606	0,022	-0,028
-439,007	33,769	0,045	-0,028
-437,992	574,039	-0,080	0,142
-436,978	-172,338	0,065	-0,001
-435,963	-130,359	0,079	0,008
-434,949	-89,076	-0,090	0,019
-433,934	-57,045	0,129	0,041
-432,919	-79,727	-0,106	0,026
-431,905	43,382	-0,059	0,039
-430,890	24,235	0,032	0,019
-429,876	124,963	-0,060	-0,055
-428,861	41,174	-0,042	0,028
-427,846	3,307	-0,025	-0,013
-426,832	-43,092	-0,118	0,043
-425,817	119,791	-0,067	0,060
-424,803	-200,000	-0,015	0,204
-423,788	-13,690	0,153	-0,072
-422,773	166,221	-0,103	0,106
-421,759	-200,000	-0,002	0,011
-420,744	-200,000	-0,028	0,092
-419,730	-200,000	-0,001	-0,011
-418,715	800,000	0,057	-0,148
-417,701	-34,147	0,105	-0,042
-416,686	800,000	-0,022	0,066
-415,671	-112,633	0,012	0,002
-414,657	-46,262	0,088	0,031
-413,642	-127,881	-0,058	0,006
-412,628	-200,000	0,020	0,092
-411,613	-200,000	0,011	-0,047
-410,598	-200,000	-0,003	-0,025
-409,584	31,475	-0,080	0,050
-408,569	171,184	0,042	0,044
-407,555	800,000	0,119	0,245
-406,540	55,090	-0,045	-0,031
-405,525	800,000	-0,019	0,051
-404,511	-200,000	0,001	0,028
-403,496	-200,000	-0,001	-0,012
-402,482	-200,000	-0,022	-0,131
-401,467	318,559	0,007	-0,010
-400,452	-47,694	0,045	0,016
-399,438	-1,841	0,109	0,056
-398,423	400,625	-0,042	-0,065
-397,409	531,004	-0,013	-0,023
-396,394	800,000	-0,043	0,086
-395,379	-200,000	-0,029	0,113
-394,365	538,175	0,042	0,073
-393,350	800,000	0,055	0,139
-392,336	173,695	0,057	-0,060
-391,321	800,000	0,006	-0,014
-390,306	-24,763	-0,078	-0,034
-389,292	64,225	-0,052	-0,038
-388,277	-90,825	0,109	-0,023
-387,263	-200,000	-0,006	-0,072
-386,248	-112,388	-0,125	-0,018
-385,233	-155,275	0,043	-0,002
-384,219	243,389	0,136	-0,166
-383,204	-200,000	-0,016	-0,179
-382,190	800,000	-0,029	0,093
-381,175	-200,000	-0,011	0,087
-380,160	-200,000	-0,035	0,130
-379,146	800,000	0,028	-0,079
-378,131	496,180	-0,007	0,012
-377,117	-28,133	-0,109	0,046
-376,102	26,696	0,109	-0,066
-375,088	755,831	0,066	-0,130
-374,073	-200,000	0,004	-0,105
-373,058	76,499	-0,083	0,064
-372,044	800,000	-0,059	-0,145
-371,029	-12,104	0,047	0,022
-370,015	-53,367	-0,026	-0,009
-369,000	-111,332	-0,147	-0,022
-367,985	243,746	-0,050	-0,062
-366,971	365,443	-0,046	0,067
-365,956	195,149	-0,056	0,062
-364,942	-200,000	0,005	0,106
-363,927	-200,000	0,010	-0,138
-362,912	-200,000	0,016	0,125
-361,898	-200,000	-0,002	0,071
-360,883	800,000	-0,036	-0,091
-359,869	399,527	0,027	0,042
-358,854	75,404	0,026	0,020
-357,839	-200,000	0,003	0,121
-356,825	47,511	-0,023	0,015
-355,810	800,000	-0,037	-0,101
-354,796	-200,000	-0,001	-0,045
-353,781	-89,872	0,070	-0,015
-352,766	33,283	-0,044	-0,028
-351,752	-103,805	-0,042	0,007
-350,737	290,777	0,049	0,065
-349,723	800,000	-0,026	0,080
-348,708	-172,654	-0,182	-0,004
-347,693	800,000	0,024	0,068
-346,679	-200,000	-0,016	-0,076
-345,664	-200,000	0,019	-0,113
-344,650	-200,000	0,012	0,043
-343,635	247,162	-0,037	0,045
-342,620	721,756	0,077	0,149
-341,606	8,589	-0,128	0,070
-340,591	-40,732	0,065	-0,024
-339,577	521,999	-0,058	-0,099
-338,562	156,447	-0,023	-0,023
-337,548	800,000	-0,029	-0,060
-336,533	-63,691	0,128	0,038
-335,518	5,430	0,077	-0,041
-334,504	69,862	-0,066	0,050
-333,489	-38,759	0,069	-0,026
-332,475	-44,544	-0,074	0,027
-331,460	-88,205	-0,171	-0,037
-330,445	-200,000	0,022	-0,219
-329,431	508,505	0,046	0,078
-328,416	800,000	-0,019	0,043
-327,402	93,583	-0,039	0,032
-326,387	244,299	0,129	-0,157
-325,372	67,022	-0,047	-0,035
-324,358	408,042	0,078	-0,120
-323,343	69,216	0,094	-0,070
-322,329	800,000	0,019	0,042
-321,314	201,701	0,007	-0,007
-320,299	61,535	0,086	0,062
-319,285	800,000	0,044	0,125
-318,270	145,128	0,068	0,066
-317,256	-65,849	-0,066	0,019
-316,241	238,853	-0,108	0,131
-315,226	-164,279	0,093	0,003
-314,212	800,000	-0,023	0,055
-313,197	-74,071	-0,047	0,012
-312,183	400,055	-0,067	0,103
-311,168	-91,342	-0,049	-0,010
-310,153	-131,494	0,068	-0,006
-309,139	-200,000	0,026	-0,184
-308,124	-59,295	-0,069	-0,021
-307,110	13,336	0,044	0,024
-306,095	-29,220	0,172	0,071
-305,080	-70,159	-0,109	-0,030
-304,066	29,961	-0,124	-0,077
-303,051	-30,962	-0,040	-0,016
-302,037	800,000	0,020	0,048
-301,022	48,909	0,042	-0,029
-300,008	229,904	0,080	-0,095
-298,993	346,012	-0,046	-0,066
-297,978	77,433	-0,028	-0,022
-296,964	-68,450	0,116	-0,032
-295,949	-200,000	0,041	-0,131
-294,935	-35,960	-0,096	0,037
-293,920	800,000	0,034	0,096
-292,905	-38,041	-0,058	-0,022
-291,891	-54,007	0,086	-0,028
-290,876	-200,000	-0,014	0,047
-289,862	239,624	-0,040	0,049
-288,847	-200,000	-0,016	-0,151
-287,832	-91,326	-0,086	-0,018
-286,818	46,161	0,043	-0,029
-285,803	800,000	0,032	0,089
-284,789	-77,067	0,183	0,046
-283,774	366,935	0,048	-0,071
-282,759	13,245	-0,186	-0,104
-281,745	110,482	0,092	0,080
-280,730	175,865	0,121	-0,128
-279,716	-200,000	0,003	0,054
-278,701	-200,000	0,000	0,077
-277,686	480,850	-0,045	0,075
-276,672	45,071	-0,050	-0,033
-275,657	576,661	-0,031	0,055
-274,643	-132,199	-0,040	0,004
-273,628	-200,000	-0,019	-0,216
-272,613	-153,498	-0,113	-0,006
-271,599	-187,059	-0,249	0,002
-270,584	-91,333	-0,046	0,010
-269,570	-200,000	-0,033	0,121
-268,555	-14,936	0,223	-0,103
-267,540	61,958	-0,152	-0,110
-266,526	800,000	0,040	-0,106
-265,511	-4,736	0,038	0,019
-264,497	132,521	0,115	0,108
-263,482	800,000	0,012	0,030
-262,467	-200,000	0,025	0,173
-261,453	251,155	-0,029	0,036
-260,438	800,000	0,041	0,090
-259,424	-29,975	-0,126	0,052
-258,409	-69,056	0,124	-0,034
-257,395	-200,000	-0,013	0,070
-256,380	40,263	-0,041	0,026
-255,365	635,727	0,010	-0,019
-254,351	298,158	0,012	0,016
-253,336	-112,007	0,158	-0,023
-252,322	-200,000	-0,022	-0,078
-251,307	-200,000	-0,016	0,132
-250,292	-52,684	-0,166	-0,055
-249,278	100,825	0,137	-0,115
-248,263	-85,164	0,065	-0,015
-247,249	335,953	0,024	-0,033
-246,234	380,478	-0,032	-0,048
-245,219	497,195	-0,060	-0,100
-244,205	-10,266	0,088	-0,042
-243,190	-70,173	0,138	0,038
-242,176	35,721	-0,114	0,072
-241,161	-200,000	0,014	0,073
-240,146	484,825	0,045	0,075
-239,132	800,000	-0,028	0,058
-238,117	-78,834	-0,055	-0,014
-237,103	-138,395	-0,039	0,003
-236,088	20,961	-0,068	-0,040
-235,073	-167,743	0,002	0,000
-234,059	370,587	-0,040	0,059
-233,044	-4,763	0,128	0,064
-232,030	150,080	-0,036	-0,035
-231,015	-109,423	0,049	0,007
-230,000	-88,458	0,048	0,010
-228,986	28,797	-0,107	-0,065
-227,971	204,117	0,060	-0,067
-226,957	-27,535	0,105	-0,044
-225,942	-200,000	-0,027	0,181
-224,927	107,716	-0,045	0,038
-223,913	-52,087	0,129	-0,043
-222,898	433,328	0,031	-0,050
-221,884	11,349	-0,095	-0,052
-220,869	-90,126	0,074	-0,015
-219,855	77,142	0,145	-0,111
-218,840	513,879	-0,047	-0,079
-217,825	2,688	-0,033	-0,017
-216,811	800,000	-0,066	0,163
-215,796	28,998	-0,082	-0,050
-214,782	-181,821	0,107	0,001
-213,767	800,000	-0,032	0,098
-212,752	225,202	0,075	0,088
-211,738	-146,616	-0,041	0,003
-210,723	-200,000	0,020	0,072
-209,709	800,000	0,017	-0,044
-208,694	715,217	-0,006	0,012
-207,679	-200,000	-0,021	-0,104
-206,665	-53,999	-0,070	-0,023
-205,650	800,000	0,049	0,108
-204,636	-7,275	0,059	-0,029
-203,621	-200,000	0,031	0,136
-202,606	176,701	-0,039	0,041
-201,592	120,788	-0,040	-0,036
-200,577	-81,722	-0,082	-0,019
-199,563	-83,975	0,087	0,020
-198,548	44,604	0,064	-0,042
-197,533	-200,000	0,019	0,142
-196,519	-50,574	0,156	0,053
-195,504	195,120	0,004	-0,004
-194,490	341,371	-0,112	-0,158
-193,475	382,319	-0,037	0,056
-192,460	376,878	0,067	-0,099
-191,446	35,752	-0,195	-0,124
-190,431	-56,471	-0,066	-0,021
-189,417	224,615	0,085	-0,099
-188,402	-93,087	-0,162	-0,032
-187,387	-200,000	-0,007	-0,124
-186,373	-154,925	-0,149	0,007
-185,358	347,871	0,043	0,062
-184,344	50,085	0,108	0,074
-183,329	188,195	-0,049	0,053
-182,315	205,372	-0,007	-0,008
-181,300	-1,086	0,097	-0,050
-180,285	800,000	0,021	0,051
-179,271	800,000	0,037	-0,084
-178,256	-200,000	-0,009	0,189
-177,242	-55,803	-0,169	0,054
-176,227	82,607	0,031	-0,024
-175,212	-200,000	0,001	0,075
-174,198	385,484	-0,075	0,112
-173,183	436,614	-0,038	0,060
-172,169	800,000	-0,050	-0,132
-171,154	-23,572	-0,036	-0,016
-170,139	800,000	0,004	0,009
-169,125	373,143	-0,070	0,103
-168,110	-69,524	0,219	0,060
-167,096	-67,915	-0,035	-0,010
-166,081	-8,127	-0,020	-0,009
-165,066	348,193	0,111	-0,158
-164,052	72,956	-0,069	-0,052
-163,037	-168,214	0,183	0,005
-162,023	800,000	-0,066	0,149
-161,008	195,889	-0,055	0,061
-159,993	-47,997	0,108	-0,037
-158,979	547,140	0,022	0,037
-157,964	800,000	-0,043	-0,132
-156,950	-64,590	0,118	0,034
-155,935	-83,208	-0,007	0,002
-154,920	648,601	0,066	0,123
-153,906	123,929	0,056	0,051
-152,891	-200,000	0,006	-0,025
-151,877	-96,982	-0,093	0,017
-150,862	748,233	0,048	-0,095
-149,847	-200,000	0,042	-0,158
-148,833	76,859	-0,047	0,036
-147,818	212,565	-0,066	-0,076
-146,804	105,650	0,120	0,102
-145,789	85,021	-0,127	0,100
-144,775	281,281	0,099	-0,128
-143,760	225,563	-0,036	-0,042
-142,745	-70,674	0,144	-0,039
-141,731	-40,328	-0,152	-0,057
-140,716	243,853	0,045	0,055
-139,702	4,848	-0,065	-0,035
-138,687	373,354	0,025	-0,037
-137,672	441,263	0,059	0,094
-136,658	-35,748	0,133	-0,052
-135,643	237,863	0,045	0,054
-134,629	86,928	-0,033	-0,026
-133,614	-52,664	-0,041	-0,014
-132,599	-37,783	0,086	-0,033
-131,585	516,531	-0,040	0,067
-130,570	-81,190	0,036	-0,009
-129,556	-179,789	-0,131	0,002
-128,541	134,724	0,063	-0,059
-127,526	226,828	-0,080	-0,094
-126,512	131,569	-0,053	-0,049
-125,497	125,505	-0,035	-0,032
-124,483	435,303	0,066	0,104
-123,468	559,284	-0,019	-0,033
-122,453	-200,000	0,010	0,085
-121,439	568,600	-0,040	-0,070
-120,424	-116,360	0,163	-0,021
-119,410	404,903	-0,061	0,093
-118,395	98,191	-0,055	0,045
-117,380	800,000	0,017	0,038
-116,366	223,438	-0,085	0,099
-115,351	-111,702	-0,104	-0,015
-114,337	367,548	-0,095	-0,139
-113,322	-96,970	-0,049	-0,009
-112,307	85,610	-0,049	-0,039
-111,293	800,000	0,045	0,096
-110,278	800,000	0,036	0,102
-109,264	406,557	-0,008	-0,012
-108,249	-200,000	-0,004	-0,062
-107,234	419,276	-0,073	-0,112
-106,220	-200,000	-0,027	-0,176
-105,205	800,000	0,070	0,182
-104,191	50,507	0,100	-0,068
-103,176	53,450	0,006	0,004
-102,162	-200,000	0,018	0,138
-101,147	-200,000	-0,001	-0,005
-100,132	138,745	-0,123	-0,117
-99,118	-60,906	0,098	0,030
-98,103	462,743	-0,059	0,095
-97,089	309,602	0,026	0,036
-96,074	91,101	-0,107	0,086
-95,059	-155,471	-0,101	-0,005
-94,045	55,873	-0,117	-0,081
-93,030	396,646	-0,042	0,064
-92,016	800,000	-0,032	-0,070
-91,001	800,000	-0,013	0,033
-89,986	-200,000	0,005	0,089
-88,972	-88,895	-0,139	-0,029
-87,957	800,000	0,024	0,072
-86,943	800,000	0,036	0,096
-85,928	-83,639	0,118	-0,027
-84,913	274,242	-0,032	-0,041
-83,899	-78,911	0,044	0,011
-82,884	-31,323	-0,072	0,029
-81,870	-143,988	-0,048	-0,003
-80,855	-84,860	0,027	0,006
-79,840	445,624	0,062	0,098
-78,826	323,539	-0,040	-0,054
-77,811	170,012	-0,039	0,040
-76,797	-200,000	0,033	-0,181
-75,782	7,005	0,099	0,053
-74,767	-200,000	0,016	0,084
-73,753	342,095	-0,023	0,032
-72,738	23,135	0,159	0,094
-71,724	-87,921	-0,088	-0,019
-70,709	800,000	0,007	0,021
-69,694	564,816	-0,030	-0,052
-68,680	241,017	0,063	-0,075
-67,665	726,896	0,066	-0,128
-66,651	-200,000	-0,001	-0,094
-65,636	-200,000	0,003	0,015
-64,622	173,591	0,072	-0,075
-63,607	-200,000	-0,044	-0,161
-62,592	100,619	0,037	0,031
-61,578	-200,000	0,000	-0,103
-60,563	-58,424	0,118	-0,037
-59,549	-27,500	-0,076	0,032
-58,534	59,704	-2,537	-1,797
-57,519	352,746	0,281	-0,402
-56,505	800,000	-1,792	-5,494
-55,490	357,508	1,074	1,544
-54,476	800,000	5,302	11,771
-53,461	-200,000	21,813	339,108
-52,446	800,000	760,135	2300,539
-51,432	515,959	1654,681	2788,037
-50,417	104,974	1621,183	1373,371
-49,403	75,067	1275,837	964,918
-48,388	26,045	1023,561	612,046
-47,373	19,273	989,417	569,183
-46,359	13,737	976,652	543,612
-45,344	9,708	973,455	528,546
-44,330	10,251	971,374	529,184
-43,315	9,140	969,744	524,624
-42,300	9,103	968,397	523,754
-41,286	9,094	967,288	523,103
-40,271	9,117	966,331	522,639
-39,257	9,059	965,646	522,057
-38,242	9,083	964,658	521,582
-37,227	9,031	963,989	521,030
-36,213	8,970	963,131	520,348
-35,198	9,007	962,226	519,958
-34,184	9,099	961,460	519,822
-33,169	9,028	960,389	518,992
-32,154	9,127	959,599	518,868
-31,140	9,122	958,671	518,327
-30,125	9,087	957,936	517,796
-29,111	9,095	956,957	517,271
-28,096	9,144	956,432	517,126
-27,082	9,089	955,863	516,621
-26,067	9,087	955,132	516,199
-25,052	9,074	954,293	515,683
-24,038	9,001	953,611	515,059
-23,023	9,007	952,935	514,691
-22,009	9,110	952,330	514,677
-20,994	9,038	951,996	514,243
-19,979	9,062	951,251	513,900
-18,965	9,045	950,523	513,429
-17,950	9,040	950,049	513,138
-16,936	9,037	949,087	512,589
-15,921	9,008	948,589	512,206
-14,906	8,995	947,587	511,602
-13,892	8,959	947,036	511,169
-12,877	8,951	946,326	510,738
-11,863	8,949	945,855	510,458
-10,848	8,957	945,426	510,234
-9,833	8,997	944,912	510,062
-8,819	8,966	944,327	509,628
-7,804	8,927	943,670	509,129
-6,790	8,959	942,789	508,735
-5,775	8,993	942,347	508,584
-4,760	8,971	941,731	508,164
-3,746	9,008	941,015	507,872
-2,731	8,824	940,527	507,003
-1,717	8,818	939,737	506,539
-0,702	8,849	939,139	506,296
0,313	8,714	938,305	506,181
1,327	12,163	936,194	515,925
2,342	20,832	784,993	455,464
3,356	15,964	451,277	254,435
4,371	-10,906	313,956	148,297
5,386	-14,361	296,272	136,420
6,400	-16,641	290,259	131,368
7,415	-16,860	287,646	129,956
8,429	-17,412	286,026	128,672
9,444	-17,355	285,097	128,298
10,459	-17,219	284,317	128,068
11,473	-17,245	283,727	127,766
12,488	-17,246	283,119	127,480
13,502	-17,291	282,717	127,244
14,517	-17,200	282,386	127,171
15,531	-17,030	282,034	127,166
16,546	-16,977	281,736	127,071
17,561	-16,931	281,093	126,814
18,575	-16,769	280,805	126,829
19,590	-16,865	280,483	126,581
20,604	-16,866	280,286	126,479
21,619	-16,770	279,915	126,392
22,634	-16,924	279,628	126,104
23,648	-17,002	279,154	125,804
24,663	-17,002	278,888	125,674
25,677	-16,902	278,783	125,710
26,692	-16,831	278,501	125,640
27,707	-16,716	278,230	125,616
28,721	-16,644	277,822	125,489
29,736	-16,891	277,635	125,158
30,750	-16,941	277,348	124,970
31,765	-16,869	277,207	124,964
32,780	-16,775	276,749	124,835
33,794	-16,759	276,578	124,762
34,809	-16,908	276,418	124,538
35,823	-16,884	276,300	124,496
36,838	-16,848	275,752	124,273
37,853	-17,007	275,640	124,061
38,867	-16,782	275,323	124,120
39,882	-16,768	275,073	124,008
40,896	-16,877	274,962	123,844
41,911	-16,586	274,534	123,914
42,926	-16,804	274,483	123,675
43,940	-16,783	274,124	123,523
44,955	-16,718	273,844	123,447
45,969	-16,775	273,722	123,327
46,984	-16,673	273,627	123,369
47,999	-16,796	273,458	123,166
49,013	-16,608	273,051	123,148
50,028	-16,597	272,780	123,025
51,042	-16,649	272,745	122,949
52,057	-16,823	272,421	122,630
53,071	-16,871	272,287	122,514
54,086	-16,703	271,880	122,476
55,101	-16,691	271,718	122,403
56,115	-16,799	271,437	122,166
57,130	-16,838	271,182	122,004
58,144	-16,923	270,830	121,756
59,159	-16,904	270,730	121,718
60,174	-16,835	270,275	121,566
61,188	-16,974	270,212	121,399
62,203	-16,855	270,023	121,413
63,217	-16,724	269,902	121,469
64,232	-16,755	269,556	121,274
65,247	-16,782	269,322	121,132
66,261	-16,918	269,021	120,862
67,276	-16,829	268,825	120,844
68,290	-16,695	268,545	120,830
69,305	-16,822	268,394	120,636
70,320	-16,565	268,070	120,714
71,334	-16,899	267,898	120,320
72,349	-16,915	267,755	120,231
73,363	-16,993	267,268	119,931
74,378	-16,773	267,117	120,052
75,393	-16,847	267,079	119,957
76,407	-16,829	266,813	119,843
77,422	-16,856	266,603	119,714
78,436	-16,761	266,257	119,634
79,451	-16,707	266,080	119,593
80,466	-16,896	265,977	119,364
81,480	-16,767	265,734	119,361
82,495	-16,755	265,456	119,237
83,509	-16,872	265,288	119,045
84,524	-16,718	265,065	119,074
85,539	-16,708	264,816	118,960
86,553	-16,871	264,625	118,717
87,568	-16,756	264,397	118,708
88,582	-16,851	264,258	118,549
89,597	-16,788	263,997	118,478
90,611	-16,711	263,857	118,474
91,626	-16,714	263,708	118,393
92,641	-16,776	263,290	118,140
93,655	-16,959	263,299	117,969
94,670	-16,935	263,014	117,853
95,684	-16,934	262,859	117,773
96,699	-16,866	262,741	117,771
97,714	-16,787	262,448	117,700
98,728	-16,748	262,196	117,611
99,743	-16,463	261,822	117,687
100,757	-16,613	261,752	117,511
101,772	-16,755	261,555	117,286
102,787	-16,830	261,198	117,049
103,801	-16,597	261,079	117,192
104,816	-16,841	260,981	116,921
105,830	-16,896	260,684	116,728
106,845	-16,776	260,526	116,754
107,860	-16,854	260,251	116,551
108,874	-16,813	259,966	116,449
109,889	-16,915	260,030	116,378
110,903	-16,900	259,675	116,221
111,918	-16,809	259,465	116,197
112,933	-16,678	259,234	116,199
113,947	-16,832	259,084	115,986
114,962	-16,885	258,984	115,884
115,976	-16,722	258,636	115,861
116,991	-16,947	258,516	115,599
118,006	-16,730	258,332	115,697
119,020	-16,819	258,148	115,527
120,035	-16,898	257,943	115,355
121,049	-16,814	257,982	115,436
122,064	-16,797	257,621	115,279
123,079	-16,866	257,435	115,125
124,093	-16,657	257,030	115,117
125,108	-16,938	256,960	114,829
126,122	-16,711	256,787	114,940
127,137	-16,661	256,710	114,938
128,151	-16,685	256,484	114,806
129,166	-16,524	256,378	114,889
130,181	-16,464	255,761	114,654
131,195	-16,519	255,708	114,572
132,210	-16,696	255,439	114,288
133,224	-16,438	255,287	114,434
134,239	-16,832	255,170	114,029
135,254	-16,592	254,944	114,126
136,268	-16,564	254,763	114,059
137,283	-16,681	254,723	113,930
138,297	-16,561	254,310	113,839
139,312	-16,640	254,147	113,688
140,327	-16,884	254,113	113,451
141,341	-16,918	253,798	113,271
142,356	-16,750	253,364	113,212
143,370	-16,661	253,429	113,308
144,385	-16,549	253,098	113,246
145,400	-16,956	253,046	112,863
146,414	-16,680	252,671	112,922
147,429	-16,756	252,491	112,767
148,443	-16,521	252,392	112,914
149,458	-16,539	252,171	112,789
150,473	-16,606	252,005	112,648
151,487	-16,569	251,777	112,567
152,502	-16,843	251,711	112,294
153,516	-16,735	251,473	112,270
154,531	-16,618	251,263	112,266
155,546	-16,630	251,154	112,197
156,560	-16,645	250,963	112,089
157,575	-16,666	250,733	111,958
158,589	-16,809	250,639	111,785
159,604	-16,880	250,249	111,541
160,619	-16,778	250,128	111,564
161,633	-16,711	249,930	111,522
162,648	-16,731	249,706	111,395
163,662	-16,581	249,603	111,466
164,677	-16,737	249,479	111,269
165,692	-16,761	249,317	111,167
166,706	-16,602	249,205	111,240
167,721	-16,743	248,955	111,000
168,735	-16,722	248,858	110,965
169,750	-16,538	248,490	110,946
170,764	-16,712	248,560	110,820
171,779	-16,828	248,363	110,625
172,794	-16,743	248,265	110,643
173,808	-16,544	247,938	110,654
174,823	-16,708	247,823	110,456
175,837	-16,714	247,664	110,370
176,852	-16,805	247,499	110,211
177,867	-16,767	247,231	110,113
178,881	-16,595	246,954	110,124
179,896	-16,690	246,948	110,032
180,910	-16,726	246,746	109,902
181,925	-16,738	246,666	109,846
182,940	-16,785	246,399	109,679
183,954	-16,638	246,204	109,705
184,969	-16,704	245,965	109,533
185,983	-16,807	245,981	109,445
186,998	-16,737	245,829	109,426
188,013	-16,744	245,433	109,234
189,027	-16,812	245,230	109,078
190,042	-16,728	245,053	109,059
191,056	-16,777	244,908	108,943
192,071	-16,819	244,833	108,866
193,086	-16,856	244,598	108,721
194,100	-16,831	244,437	108,660
195,115	-16,732	244,195	108,625
196,129	-16,966	244,085	108,374
197,144	-16,890	243,728	108,268
198,159	-16,879	243,592	108,206
199,173	-16,758	243,507	108,258
200,188	-16,687	243,204	108,173
201,202	-16,784	243,268	108,112
202,217	-16,730	243,036	108,043
203,232	-16,739	242,908	107,970
204,246	-16,714	242,539	107,816
205,261	-17,079	242,189	107,353
206,275	-15,629	242,645	108,732
207,290	-10,625	244,527	113,690
208,304	-4,439	246,556	119,752
209,319	-1,520	247,278	122,514
210,334	-0,502	247,429	123,422
211,348	0,617	247,712	124,480
212,363	1,174	247,610	124,878
213,377	1,569	247,706	125,243
214,392	1,677	247,686	125,312
215,407	1,981	247,463	125,439
216,421	2,127	247,364	125,499
217,436	2,072	247,174	125,345
218,450	2,145	247,068	125,341
219,465	1,931	246,920	125,077
220,480	2,006	246,779	125,057
221,494	1,707	246,475	124,645
222,509	1,327	246,118	124,142
223,523	1,255	245,886	123,954
224,538	0,987	245,751	123,656
225,553	1,137	245,525	123,653
226,567	1,172	245,297	123,556
227,582	1,005	245,351	123,436
228,596	1,077	245,188	123,401
229,611	1,010	244,921	123,201
230,626	1,001	244,650	123,047
231,640	1,051	244,523	123,012
232,655	1,113	244,306	122,943
233,669	0,858	244,220	122,681
234,684	0,848	244,087	122,595
235,699	1,048	244,022	122,714
236,713	1,166	243,848	122,712
237,728	1,050	243,669	122,517
238,742	1,091	243,513	122,460
239,757	1,084	243,314	122,344
240,772	1,007	243,153	122,189
241,786	1,149	242,957	122,196
242,801	1,165	242,772	122,105
243,815	0,948	242,731	121,897
244,830	0,829	242,579	121,714
245,844	0,909	242,274	121,615
246,859	1,167	242,208	121,779
247,874	0,957	242,001	121,494
248,888	0,857	241,912	121,358
249,903	0,988	241,727	121,360
250,917	1,130	241,592	121,396
251,932	1,254	241,365	121,371
252,947	1,192	241,269	121,262
253,961	1,163	241,150	121,168
254,976	0,991	241,052	120,970
255,990	1,149	240,730	120,924
257,005	1,174	240,650	120,893
258,020	1,042	240,582	120,742
259,034	1,150	240,407	120,730
260,049	1,086	240,058	120,493
261,063	1,071	240,005	120,444
262,078	1,050	239,973	120,400
263,093	0,938	239,802	120,214
264,107	1,030	239,532	120,142
265,122	0,992	239,439	120,054
266,136	0,974	239,398	120,008
267,151	1,167	239,081	119,992
268,166	1,175	238,894	119,894
269,180	0,881	238,686	119,545
270,195	0,892	238,708	119,555
271,209	1,149	238,424	119,605
272,224	0,917	238,375	119,386
273,239	1,098	238,151	119,407
274,253	1,257	237,905	119,399
275,268	0,984	237,805	119,122
276,282	1,029	237,679	119,083
277,297	0,877	237,659	118,943
278,312	1,188	237,436	119,066
279,326	1,156	237,196	118,910
280,341	0,996	237,189	118,769
281,355	0,989	236,945	118,631
282,370	1,126	236,918	118,716
283,384	1,176	236,594	118,582
284,399	0,999	236,542	118,406
285,414	1,176	236,380	118,453
286,428	0,941	236,165	118,151
287,443	1,330	235,929	118,327
288,457	1,017	235,997	118,105
289,472	1,063	235,784	118,024
290,487	1,080	235,451	117,860
291,501	1,012	235,370	117,756
292,516	1,199	235,325	117,869
293,530	1,295	235,058	117,800
294,545	1,168	235,153	117,737
295,560	1,273	234,819	117,641
296,574	1,158	234,694	117,479
297,589	1,023	234,481	117,257
298,603	1,270	234,380	117,388
299,618	1,140	234,238	117,206
300,633	1,172	234,207	117,204
301,647	1,138	234,080	117,104
302,662	1,003	233,970	116,933
303,676	1,311	233,661	117,008
304,691	1,223	233,643	116,920
305,706	1,361	233,320	116,854
306,720	1,031	233,351	116,604
307,735	1,241	233,038	116,599
308,749	1,199	232,827	116,451
309,764	1,385	232,751	116,547
310,779	1,156	232,622	116,295
311,793	1,066	232,464	116,136
312,808	1,215	232,241	116,129
313,822	1,370	232,040	116,137
314,837	1,058	232,198	115,966
315,852	1,276	232,015	116,032
316,866	1,233	231,668	115,815
317,881	1,292	231,635	115,833
318,895	1,210	231,575	115,730
319,910	1,181	231,249	115,535
320,925	1,182	231,212	115,507
321,939	0,979	231,031	115,250
322,954	1,134	230,914	115,300
323,968	1,287	230,673	115,287
324,983	1,393	230,601	115,322
325,997	1,138	230,395	115,014
327,012	1,333	230,212	115,061
328,027	1,408	230,052	115,028
329,041	1,401	229,937	114,954
330,056	1,404	229,884	114,920
331,070	1,528	229,724	114,924
332,085	1,466	229,471	114,740
333,100	1,276	229,471	114,586
334,114	1,317	229,100	114,421
335,129	1,335	228,916	114,333
336,143	1,362	228,918	114,344
337,158	1,442	228,823	114,347
338,173	1,290	228,755	114,188
339,187	1,324	228,446	114,049
340,202	1,233	228,312	113,903
341,216	1,237	228,252	113,866
342,231	1,368	228,006	113,832
343,246	1,453	227,911	113,839
344,260	1,427	227,866	113,786
345,275	1,485	227,606	113,690
346,289	1,472	227,591	113,663
347,304	1,516	227,448	113,614
348,319	1,345	227,377	113,440
349,333	1,261	227,032	113,195
350,348	1,337	226,828	113,140
351,362	1,304	226,693	113,038
352,377	1,164	226,626	112,890
353,392	1,303	226,541	112,941
354,406	1,368	226,411	112,915
355,421	192,050	1314,129	1380,887
356,435	153,850	1446,533	1380,759
