DTS Sentinel unit serial number:	SN410029Multiplexer serial number:	ORYXHardware model number:	OX2-SRSoftware version number:	ORYX F/W v4,00 Oryx Data Collector v3.7.2.0data status	okinstallation	B5 Nyhavnadifferential loss correction	single-endedforward channel	channel 2reverse channel	N/Adate	2023/12/11time	14:57:13forward acquisition time	300,00reverse acquisition time	0,00gamma	499,1914k internal	0,3167k external	0,3167temperature offset calibration	1,0000default loss term (dB/km)	0,3820temperature slope calibration	1,0000multiplexer offset coefficient	1,0000multiplexer slope coefficient	1,0000fibre end	0,00T internal ref (°C)	12,97T ext. ref 1 (°C)	-1,95T ext. ref 2 (°C)	-1,95length (m)	temperature (°C)	Stokes	anti-Stokes-744,400	5,670	0,099	0,054
-743,385	-36,906	-0,248	0,097
-742,371	5,195	0,121	0,065
-741,356	-64,961	-0,225	0,066
-740,342	12,151	0,172	0,097
-739,327	-67,302	-0,203	0,058
-738,312	-200,000	0,006	0,033
-737,298	-100,065	-0,256	-0,046
-736,283	-81,867	0,053	0,013
-735,269	-59,654	-0,307	-0,096
-734,254	10,865	0,119	0,066
-733,239	-110,719	-0,425	-0,064
-732,225	-8,571	0,231	0,113
-731,210	-200,000	0,009	-0,066
-730,196	-200,000	-0,109	-0,000
-729,181	-121,742	0,082	0,010
-728,167	-148,740	-0,113	0,007
-727,152	681,399	-0,083	-0,160
-726,137	89,661	-0,052	0,043
-725,123	257,383	-0,065	0,083
-724,108	488,652	-0,090	-0,152
-723,094	420,896	-0,102	-0,161
-722,079	-200,000	0,012	0,071
-721,064	9,877	0,039	-0,021
-720,050	-31,783	0,151	-0,062
-719,035	-167,054	0,087	-0,003
-718,021	-98,727	0,047	0,009
-717,006	470,544	-0,036	-0,060
-715,991	-200,000	0,044	-0,156
-714,977	0,986	-0,035	0,018
-713,962	291,137	-0,059	-0,078
-712,948	-200,000	-0,030	0,115
-711,933	-64,803	0,109	0,032
-710,918	269,163	-0,077	0,100
-709,904	70,087	-0,063	0,048
-708,889	-144,596	-0,062	0,004
-707,875	-158,073	-0,075	-0,003
-706,860	-96,968	0,134	-0,025
-705,845	642,075	-0,072	0,135
-704,831	-200,000	0,023	0,084
-703,816	-200,000	-0,003	-0,039
-702,802	800,000	-0,052	0,126
-701,787	525,147	-0,056	-0,097
-700,772	-200,000	-0,004	0,031
-699,758	-92,557	-0,045	-0,009
-698,743	-200,000	-0,020	-0,153
-697,729	17,167	0,017	-0,010
-696,714	107,988	0,060	0,052
-695,699	-200,000	-0,000	-0,003
-694,685	134,774	-0,045	-0,043
-693,670	57,489	-0,087	-0,062
-692,656	111,117	0,043	0,038
-691,641	-20,685	0,163	0,073
-690,627	-200,000	-0,004	-0,060
-689,612	100,689	0,028	-0,024
-688,597	-142,911	0,045	0,003
-687,583	272,351	-0,032	-0,042
-686,568	-128,433	-0,076	0,008
-685,554	254,860	0,066	-0,083
-684,539	-52,654	-0,084	-0,028
-683,524	-120,491	0,109	0,013
-682,510	-87,353	0,118	0,026
-681,495	-200,000	0,004	0,112
-680,481	-184,523	-0,068	0,001
-679,466	-11,744	-0,228	-0,109
-678,451	-28,229	0,069	-0,029
-677,437	608,098	0,097	-0,178
-676,422	-200,000	0,023	0,104
-675,408	-113,813	-0,106	0,015
-674,393	-37,860	0,151	-0,059
-673,378	-200,000	-0,029	0,096
-672,364	800,000	-0,066	-0,135
-671,349	299,850	-0,098	-0,133
-670,335	203,634	0,059	0,067
-669,320	-46,713	0,102	0,037
-668,305	-200,000	-0,034	0,125
-667,291	11,141	0,085	0,047
-666,276	408,650	0,030	-0,046
-665,262	401,391	0,011	-0,017
-664,247	80,951	-0,061	0,049
-663,232	-200,000	-0,038	-0,131
-662,218	223,956	-0,042	-0,050
-661,203	53,979	-0,054	0,038
-660,189	-200,000	0,004	-0,038
-659,174	-13,748	0,025	-0,012
-658,159	536,390	0,017	0,030
-657,145	-55,946	-0,114	0,037
-656,130	-200,000	-0,007	-0,072
-655,116	744,822	0,060	0,119
-654,101	-20,503	0,103	-0,046
-653,086	259,803	-0,022	0,028
-652,072	133,484	0,109	-0,103
-651,057	603,209	-0,035	-0,063
-650,043	82,157	-0,133	-0,106
-649,028	93,653	0,091	0,075
-648,014	-200,000	0,010	0,049
-646,999	-102,175	0,075	-0,013
-645,984	-32,682	0,140	-0,057
-644,970	-200,000	0,005	-0,019
-643,955	-200,000	0,004	-0,019
-642,941	91,576	0,096	-0,079
-641,926	800,000	0,023	0,066
-640,911	254,238	0,079	0,099
-639,897	164,236	-0,079	0,081
-638,882	72,485	0,042	0,032
-637,868	251,755	0,066	-0,082
-636,853	-184,981	-0,148	0,002
-635,838	-58,264	0,074	-0,024
-634,824	-131,299	0,042	0,004
-633,809	-200,000	0,001	-0,137
-632,795	-144,567	-0,063	-0,004
-631,780	-200,000	-0,015	-0,114
-630,765	85,528	-0,086	0,069
-629,751	463,277	-0,013	-0,021
-628,736	-200,000	0,037	-0,170
-627,722	-200,000	0,004	0,091
-626,707	400,450	0,034	-0,052
-625,692	800,000	-0,036	0,091
-624,678	-173,319	0,072	-0,002
-623,663	-200,000	0,017	0,063
-622,649	109,634	0,054	-0,047
-621,634	555,174	0,054	-0,095
-620,619	-133,007	0,090	-0,008
-619,605	108,002	0,072	-0,063
-618,590	-115,909	-0,124	0,017
-617,576	270,272	0,017	-0,022
-616,561	239,685	-0,026	0,031
-615,546	22,822	0,095	-0,057
-614,532	800,000	-0,017	-0,040
-613,517	800,000	0,008	-0,018
-612,503	312,885	0,012	0,017
-611,488	-139,730	0,103	-0,008
-610,474	243,137	0,088	-0,108
-609,459	-200,000	0,020	-0,106
-608,444	-42,829	-0,072	-0,027
-607,430	3,568	0,041	0,022
-606,415	278,841	0,020	-0,026
-605,401	-23,099	-0,111	-0,049
-604,386	-200,000	-0,009	-0,065
-603,371	-49,510	0,177	0,061
-602,357	41,143	-0,093	0,061
-601,342	-200,000	-0,000	-0,068
-600,328	109,467	-0,031	-0,027
-599,313	119,959	-0,060	-0,054
-598,298	653,994	-0,017	-0,032
-597,284	800,000	0,014	-0,031
-596,269	800,000	-0,046	0,122
-595,255	-122,797	0,009	0,001
-594,240	-200,000	0,028	-0,109
-593,225	381,593	-0,106	-0,160
-592,211	131,444	-0,101	-0,095
-591,196	-200,000	-0,005	-0,097
-590,182	151,235	0,035	0,035
-589,167	-200,000	-0,015	0,095
-588,152	11,581	-0,051	-0,028
-587,138	800,000	-0,009	-0,018
-586,123	70,832	0,061	-0,046
-585,109	-200,000	-0,014	0,071
-584,094	800,000	-0,052	0,134
-583,079	127,654	-0,080	0,075
-582,065	70,284	0,026	0,019
-581,050	38,794	0,011	-0,007
-580,036	-77,488	-0,057	-0,014
-579,021	800,000	0,041	-0,085
-578,006	-100,817	-0,042	0,007
-576,992	-200,000	0,004	-0,140
-575,977	98,338	-0,023	-0,020
-574,963	-200,000	0,008	0,213
-573,948	392,961	-0,103	0,157
-572,934	12,134	0,022	-0,012
-571,919	-200,000	-0,016	-0,083
-570,904	-57,202	-0,057	0,018
-569,890	192,980	-0,012	0,013
-568,875	800,000	-0,008	0,026
-567,861	-200,000	-0,004	0,074
-566,846	-92,538	0,101	-0,020
-565,831	800,000	-0,030	-0,082
-564,817	800,000	0,014	-0,035
-563,802	56,746	0,090	-0,064
-562,788	347,703	0,101	-0,146
-561,773	-200,000	0,004	-0,163
-560,758	139,962	0,082	0,079
-559,744	-200,000	-0,011	-0,090
-558,729	35,270	-0,090	-0,057
-557,715	-41,923	0,232	0,086
-556,700	92,951	0,055	-0,045
-555,685	-200,000	-0,045	-0,193
-554,671	20,779	0,066	-0,039
-553,656	44,576	0,103	0,069
-552,642	229,165	-0,102	0,122
-551,627	800,000	0,047	-0,105
-550,612	41,788	-0,085	0,056
-549,598	-200,000	0,011	-0,191
-548,583	-56,015	-0,055	-0,018
-547,569	340,994	0,081	0,115
-546,554	-67,438	-0,025	-0,007
-545,539	236,750	0,129	0,156
-544,525	-28,644	-0,222	-0,093
-543,510	51,018	0,073	-0,051
-542,496	36,012	-0,103	0,066
-541,481	81,140	-0,063	0,050
-540,466	-200,000	0,016	0,111
-539,452	-200,000	-0,035	0,116
-538,437	-135,594	0,037	0,003
-537,423	102,297	-0,024	0,020
-536,408	158,580	0,100	-0,102
-535,393	-200,000	0,000	-0,152
-534,379	154,783	-0,030	0,030
-533,364	-6,840	-0,107	-0,053
-532,350	447,369	0,082	-0,132
-531,335	-68,925	-0,064	-0,018
-530,321	172,667	0,044	0,047
-529,306	800,000	-0,020	-0,047
-528,291	-11,868	-0,169	0,081
-527,277	-200,000	-0,008	0,085
-526,262	800,000	0,042	-0,089
-525,248	12,639	-0,015	0,008
-524,233	-151,661	-0,041	0,002
-523,218	-139,600	-0,073	-0,006
-522,204	299,935	-0,072	0,096
-521,189	385,062	0,065	0,099
-520,175	-9,797	-0,085	0,041
-519,160	-40,145	-0,098	0,037
-518,145	126,711	0,057	0,052
-517,131	-200,000	0,010	-0,059
-516,116	-200,000	-0,014	-0,129
-515,102	35,942	-0,064	0,041
-514,087	135,517	0,049	0,046
-513,072	113,470	0,123	0,109
-512,058	275,277	0,008	-0,011
-511,043	-200,000	-0,001	0,011
-510,029	124,827	0,067	0,062
-509,014	140,141	0,105	0,100
-507,999	-77,683	-0,090	0,022
-506,985	87,823	-0,026	0,021
-505,970	46,099	0,050	-0,033
-504,956	-8,678	-0,116	-0,057
-503,941	254,873	-0,030	-0,038
-502,926	-141,295	-0,061	0,004
-501,912	122,161	0,083	-0,076
-500,897	-200,000	-0,045	0,158
-499,883	-200,000	0,002	-0,035
-498,868	-200,000	0,003	-0,019
-497,853	700,757	-0,035	0,066
-496,839	110,376	-0,095	0,083
-495,824	-151,355	0,042	-0,002
-494,810	-129,829	0,099	0,010
-493,795	98,352	-0,086	0,072
-492,781	70,218	-0,065	0,049
-491,766	-200,000	-0,009	-0,039
-490,751	293,113	-0,044	0,058
-489,737	-83,540	-0,061	-0,014
-488,722	-200,000	0,015	-0,072
-487,708	592,229	0,035	-0,063
-486,693	96,334	-0,105	0,087
-485,678	672,021	0,069	-0,131
-484,664	-200,000	0,058	0,202
-483,649	-24,433	-0,155	-0,067
-482,635	690,310	0,036	-0,068
-481,620	-76,199	0,070	-0,018
-480,605	746,006	0,060	0,119
-479,591	800,000	-0,034	-0,092
-478,576	49,128	0,037	0,025
-477,562	264,509	-0,037	-0,046
-476,547	800,000	-0,028	-0,075
-475,532	-62,045	-0,141	-0,043
-474,518	-200,000	-0,019	0,112
-473,503	-4,762	0,081	0,040
-472,489	0,716	0,126	-0,065
-471,474	-200,000	0,014	0,065
-470,459	51,091	-0,030	-0,021
-469,445	-200,000	0,008	0,063
-468,430	-139,462	-0,080	-0,006
-467,416	104,308	0,095	0,081
-466,401	-5,506	0,078	-0,039
-465,386	-132,839	0,072	0,007
-464,372	-181,782	-0,036	-0,000
-463,357	-200,000	-0,017	0,120
-462,343	24,558	-0,056	-0,034
-461,328	279,596	-0,112	-0,146
-460,313	228,124	0,056	-0,066
-459,299	324,652	0,018	0,025
-458,284	371,674	0,095	-0,140
-457,270	-200,000	-0,027	0,122
-456,255	0,812	0,071	0,037
-455,241	-126,738	0,093	-0,010
-454,226	152,581	-0,041	-0,041
-453,211	-102,908	-0,124	-0,021
-452,197	1,293	0,071	-0,037
-451,182	116,356	0,059	0,052
-450,168	182,516	-0,035	0,037
-449,153	250,965	0,024	-0,029
-448,138	-27,070	0,161	-0,068
-447,124	-102,963	0,065	-0,011
-446,109	-200,000	0,010	-0,152
-445,095	765,069	-0,018	0,036
-444,080	-91,794	-0,100	0,020
-443,065	16,841	-0,089	0,051
-442,051	204,425	0,030	-0,034
-441,036	-200,000	-0,010	-0,079
-440,022	-200,000	-0,050	0,164
-439,007	105,503	-0,197	0,169
-437,992	800,000	0,006	-0,013
-436,978	800,000	-0,001	-0,002
-435,963	800,000	0,038	0,099
-434,949	-32,902	0,089	0,036
-433,934	-200,000	-0,009	-0,057
-432,919	-200,000	-0,153	0,000
-431,905	289,930	-0,095	-0,125
-430,890	800,000	0,061	-0,140
-429,876	148,356	0,054	-0,053
-428,861	-48,942	0,067	-0,023
-427,846	88,155	-0,133	-0,107
-426,832	329,923	0,058	-0,082
-425,817	218,118	0,072	-0,084
-424,803	-141,090	0,095	0,007
-423,788	-200,000	-0,012	0,071
-422,773	800,000	-0,043	0,097
-421,759	-139,601	0,030	0,002
-420,744	800,000	-0,034	0,088
-419,730	101,178	0,072	-0,061
-418,715	-200,000	0,015	0,152
-417,701	472,005	-0,018	-0,030
-416,686	365,392	0,035	0,052
-415,671	-186,139	0,110	-0,001
-414,657	-71,499	0,104	-0,028
-413,642	302,869	-0,037	0,050
-412,628	-164,792	-0,065	0,002
-411,613	-23,947	0,067	0,029
-410,598	730,097	-0,046	-0,090
-409,584	-89,602	0,110	-0,023
-408,569	-65,442	0,070	0,020
-407,555	-200,000	0,002	0,008
-406,540	-200,000	0,003	-0,174
-405,525	-200,000	0,004	-0,020
-404,511	-145,412	-0,066	0,004
-403,496	-188,724	-0,068	0,001
-402,482	-200,000	-0,001	0,038
-401,467	800,000	-0,095	0,214
-400,452	262,700	-0,119	0,150
-399,438	-50,018	-0,070	-0,024
-398,423	-200,000	-0,002	0,097
-397,409	-130,366	-0,098	0,010
-396,394	800,000	0,060	0,164
-395,379	146,217	-0,027	0,026
-394,365	800,000	-0,040	0,108
-393,350	30,202	0,120	0,074
-392,336	139,595	0,063	0,061
-391,321	144,697	-0,069	0,067
-390,306	-200,000	-0,031	-0,116
-389,292	186,373	-0,023	0,025
-388,277	216,009	0,116	-0,134
-387,263	-200,000	-0,011	-0,104
-386,248	457,002	-0,043	0,069
-385,233	-110,285	-0,170	0,025
-384,219	-102,137	-0,033	0,006
-383,204	-200,000	-0,010	-0,042
-382,190	323,402	-0,056	-0,078
-381,175	-142,470	0,055	0,004
-380,160	104,169	0,067	-0,057
-379,146	313,913	0,066	0,090
-378,131	-200,000	0,002	0,089
-377,117	5,463	-0,172	-0,092
-376,102	-26,215	0,044	0,019
-375,088	-200,000	0,012	0,048
-374,073	-71,998	0,104	-0,028
-373,058	-122,836	-0,062	-0,007
-372,044	800,000	0,044	0,124
-371,029	51,432	-0,055	-0,038
-370,015	-200,000	-0,001	-0,005
-369,000	-21,664	-0,174	0,077
-367,985	78,706	0,122	-0,095
-366,971	-51,437	-0,128	-0,043
-365,956	-200,000	-0,001	0,144
-364,942	-92,335	0,126	0,025
-363,927	800,000	0,057	0,119
-362,912	53,195	0,127	0,088
-361,898	-44,754	-0,170	0,061
-360,883	87,751	-0,057	0,046
-359,869	431,884	-0,022	-0,035
-358,854	-200,000	0,030	0,125
-357,839	77,888	0,042	-0,033
-356,825	-200,000	0,005	0,102
-355,810	276,466	-0,028	0,036
-354,796	-200,000	-0,009	-0,031
-353,781	81,673	-0,060	-0,047
-352,766	-200,000	0,010	-0,116
-351,752	-115,462	-0,089	-0,012
-350,737	96,476	0,059	-0,049
-349,723	13,477	-0,060	-0,034
-348,708	800,000	0,022	0,065
-347,693	228,900	-0,060	-0,071
-346,679	463,752	0,020	0,032
-345,664	532,582	-0,048	-0,083
-344,650	-158,285	0,098	0,004
-343,635	-106,577	0,097	-0,016
-342,620	128,041	0,097	-0,090
-341,606	379,673	-0,021	0,032
-340,591	-65,214	-0,089	-0,026
-339,577	-200,000	-0,039	0,135
-338,562	-200,000	-0,032	0,122
-337,548	77,461	0,105	-0,081
-336,533	59,683	0,117	0,083
-335,518	800,000	-0,028	-0,090
-334,504	-78,813	0,064	0,016
-333,489	-41,689	-0,077	-0,028
-332,475	-200,000	-0,008	0,060
-331,460	800,000	-0,042	-0,120
-330,445	-154,187	0,075	-0,004
-329,431	37,870	-0,079	0,051
-328,416	800,000	0,057	-0,116
-327,402	583,573	0,017	-0,030
-326,387	-101,165	-0,072	-0,013
-325,372	800,000	0,056	-0,115
-324,358	-200,000	-0,000	-0,028
-323,343	632,722	0,055	0,100
-322,329	-6,301	-0,012	-0,006
-321,314	-40,770	0,171	0,064
-320,299	-164,656	0,029	-0,001
-319,285	41,170	-0,162	-0,106
-318,270	546,377	0,044	-0,077
-317,256	329,471	0,030	-0,041
-316,241	-81,282	-0,052	-0,012
-315,226	671,750	0,079	0,149
-314,212	-81,237	0,019	0,004
-313,197	-200,000	-0,002	-0,145
-312,183	183,931	-0,078	0,084
-311,168	71,720	0,079	0,059
-310,153	-28,268	-0,032	0,013
-309,139	-105,766	0,152	0,025
-308,124	-89,328	-0,122	0,026
-307,110	-200,000	0,004	-0,052
-306,095	-200,000	0,003	0,095
-305,080	-108,410	-0,043	0,007
-304,066	-200,000	0,079	0,000
-303,051	-74,763	-0,160	-0,041
-302,037	-200,000	0,037	-0,206
-301,022	-200,000	0,125	0,000
-300,008	-104,299	-0,039	-0,007
-298,993	463,477	-0,034	-0,055
-297,978	-151,458	-0,165	-0,009
-296,964	-103,393	-0,115	-0,019
-295,949	-200,000	-0,005	0,016
-294,935	-200,000	-0,021	0,100
-293,920	39,140	-0,124	0,080
-292,905	-200,000	0,022	0,125
-291,891	-70,804	0,126	-0,034
-290,876	-39,968	-0,123	-0,046
-289,862	-83,834	-0,209	0,048
-288,847	-200,000	0,030	-0,181
-287,832	-49,351	0,009	0,003
-286,818	800,000	0,035	-0,072
-285,803	-77,124	0,034	0,009
-284,789	273,016	-0,040	-0,052
-283,774	20,659	-0,117	-0,068
-282,759	-131,500	0,101	-0,009
-281,745	332,448	-0,070	-0,098
-280,730	147,151	-0,096	-0,093
-279,716	195,321	-0,048	0,052
-278,701	-13,224	-0,079	0,037
-277,686	505,767	0,050	0,083
-276,672	29,550	0,083	0,051
-275,657	-17,275	-0,079	0,036
-274,643	212,101	0,039	0,044
-273,628	-200,000	0,042	-0,139
-272,613	60,632	-0,165	-0,118
-271,599	-200,000	0,007	0,050
-270,584	-135,349	0,021	-0,002
-269,570	254,404	-0,050	0,062
-268,555	-200,000	0,030	0,156
-267,540	246,179	0,035	-0,042
-266,526	28,776	-0,035	-0,022
-265,511	-40,097	-0,069	-0,026
-264,497	13,319	0,203	0,113
-263,482	245,652	-0,049	0,060
-262,467	-200,000	0,046	-0,151
-261,453	-2,824	0,061	0,031
-260,438	71,357	-0,138	-0,103
-259,424	800,000	-0,003	0,009
-258,409	-13,764	-0,019	-0,009
-257,395	800,000	0,045	-0,116
-256,380	-200,000	0,054	0,201
-255,365	-105,429	-0,110	0,018
-254,351	59,748	-0,058	0,041
-253,336	40,829	0,057	-0,037
-252,322	-52,352	-0,046	0,015
-251,307	-38,927	0,122	-0,046
-250,292	306,607	0,075	-0,101
-249,278	459,335	0,020	-0,032
-248,263	-200,000	-0,008	0,057
-247,249	-200,000	0,029	-0,112
-246,234	225,016	0,071	0,083
-245,219	800,000	0,049	-0,134
-244,205	800,000	-0,056	0,163
-243,190	-200,000	-0,014	-0,066
-242,176	438,558	0,006	0,009
-241,161	-24,266	0,061	-0,026
-240,146	-83,637	-0,055	-0,012
-239,132	-200,000	0,014	-0,135
-238,117	403,661	0,090	-0,137
-237,103	-151,892	-0,101	0,005
-236,088	800,000	-0,016	-0,051
-235,073	56,708	-0,024	0,017
-234,059	-200,000	0,010	0,120
-233,044	760,013	-0,019	-0,037
-232,030	-200,000	-0,008	0,035
-231,015	-200,000	0,020	-0,093
-230,000	109,368	-0,047	-0,041
-228,986	205,708	0,117	0,131
-227,971	137,306	-0,108	0,102
-226,957	800,000	0,032	0,092
-225,942	70,121	0,087	0,064
-224,927	-200,000	-0,002	-0,026
-223,913	-86,235	-0,072	0,016
-222,898	-25,085	0,086	-0,037
-221,884	-200,000	-0,014	-0,051
-220,869	800,000	0,054	0,111
-219,855	-12,965	0,077	-0,036
-218,840	-64,931	0,062	0,018
-217,825	59,440	0,073	0,052
-216,811	-200,000	0,019	-0,128
-215,796	800,000	0,028	0,084
-214,782	30,480	-0,055	0,034
-213,767	-96,094	0,102	-0,019
-212,752	-200,000	-0,003	-0,049
-211,738	-89,838	0,125	0,026
-210,723	477,335	-0,047	-0,076
-209,709	-200,000	-0,001	-0,021
-208,694	800,000	-0,038	0,085
-207,679	-200,000	0,014	0,050
-206,665	800,000	0,025	0,067
-205,650	22,740	0,113	-0,067
-204,636	93,823	-0,085	-0,069
-203,621	-25,689	0,115	-0,049
-202,606	800,000	-0,025	0,059
-201,592	297,705	0,033	0,043
-200,577	-151,195	-0,140	-0,007
-199,563	-32,665	0,087	-0,035
-198,548	800,000	0,079	0,205
-197,533	1,281	-0,074	0,038
-196,519	-32,423	0,152	0,061
-195,504	161,586	0,073	-0,073
-194,490	118,830	-0,051	0,046
-193,475	-15,025	-0,104	0,048
-192,460	-115,111	-0,029	0,004
-191,446	-200,000	0,001	-0,071
-190,431	-149,417	0,137	-0,008
-189,417	-61,468	-0,041	-0,012
-188,402	-174,954	0,096	0,002
-187,387	267,444	-0,038	-0,049
-186,373	-200,000	-0,025	-0,129
-185,358	-64,153	-0,062	0,018
-184,344	-41,852	0,103	-0,038
-183,329	50,175	-0,057	-0,039
-182,315	-200,000	0,015	0,075
-181,300	800,000	-0,027	0,066
-180,285	10,868	0,078	-0,043
-179,271	-200,000	0,023	0,087
-178,256	-17,438	-0,120	0,054
-177,242	-200,000	0,021	0,191
-176,227	-34,443	0,031	-0,012
-175,212	-135,619	-0,049	0,004
-174,198	37,355	-0,125	0,080
-173,183	166,293	-0,113	-0,115
-172,169	-4,264	-0,090	-0,045
-171,154	-46,201	-0,133	-0,047
-170,139	800,000	0,042	0,098
-169,125	27,685	0,073	-0,044
-168,110	800,000	0,012	-0,037
-167,096	6,086	-0,064	0,034
-166,081	-40,438	-0,017	0,006
-165,066	-32,286	-0,092	-0,037
-164,052	-80,901	0,056	-0,013
-163,037	410,126	0,046	0,070
-162,023	-119,126	0,119	-0,015
-161,008	-200,000	0,016	-0,062
-159,993	436,455	0,068	0,106
-158,979	339,449	-0,051	0,072
-157,964	549,548	0,057	-0,099
-156,950	355,946	-0,020	-0,029
-155,935	11,476	0,095	0,052
-154,920	-200,000	-0,029	0,113
-153,906	-103,756	-0,187	0,031
-152,891	-60,059	0,058	0,018
-151,877	380,662	0,037	-0,054
-150,862	-19,644	-0,052	0,023
-149,847	90,282	0,020	-0,016
-148,833	-76,206	-0,011	0,003
-147,818	134,064	0,074	0,069
-146,804	-200,000	0,004	0,104
-145,789	-71,858	0,096	-0,025
-144,775	-200,000	0,011	-0,041
-143,760	-71,497	0,157	-0,042
-142,745	-200,000	-0,019	-0,102
-141,731	439,128	0,064	-0,100
-140,716	-19,525	0,122	0,054
-139,702	-130,346	0,153	0,015
-138,687	-200,000	0,010	0,137
-137,672	494,341	-0,115	0,190
-136,658	124,605	-0,018	0,016
-135,643	-200,000	0,007	0,047
-134,629	-200,000	-0,022	0,149
-133,614	-200,000	0,020	0,167
-132,599	43,979	-0,151	-0,099
-131,585	-200,000	0,020	0,088
-130,570	112,219	-0,106	0,092
-129,556	-200,000	0,003	-0,079
-128,541	163,377	0,019	0,020
-127,526	-47,831	-0,091	0,031
-126,512	-200,000	0,039	0,187
-125,497	126,105	0,057	0,051
-124,483	498,810	0,074	0,124
-123,468	192,604	0,052	0,056
-122,453	-200,000	0,020	-0,067
-121,439	-200,000	0,032	0,109
-120,424	-53,698	-0,089	0,029
-119,410	132,186	0,011	0,010
-118,395	-92,865	0,136	0,027
-117,380	800,000	0,039	0,103
-116,366	-0,243	0,102	0,052
-115,351	28,484	-0,056	-0,034
-114,337	-149,563	-0,119	0,007
-113,322	275,473	-0,080	-0,102
-112,307	-42,103	-0,071	0,026
-111,293	-30,345	0,044	-0,018
-110,278	200,538	0,064	-0,070
-109,264	-62,512	0,032	0,009
-108,249	-109,561	-0,062	0,009
-107,234	-200,000	-0,022	-0,129
-106,220	-93,530	-0,145	-0,028
-105,205	-67,102	0,056	-0,016
-104,191	552,678	0,079	0,137
-103,176	800,000	0,042	0,094
-102,162	-34,614	0,033	-0,013
-101,147	6,856	-0,148	0,079
-100,132	-137,823	-0,060	-0,005
-99,118	-200,000	-0,046	-0,172
-98,103	-200,000	0,003	-0,089
-97,089	800,000	-0,032	-0,075
-96,074	-200,000	0,011	-0,133
-95,059	2,012	0,041	0,021
-94,045	-200,000	-0,039	-0,133
-93,030	800,000	-0,029	-0,084
-92,016	-200,000	0,031	0,125
-91,001	10,146	0,044	-0,024
-89,986	-200,000	-0,029	0,114
-88,972	-8,460	0,057	0,027
-87,957	112,415	-0,096	-0,083
-86,943	119,154	-0,112	0,099
-85,928	-200,000	-0,011	-0,085
-84,913	-200,000	0,002	-0,046
-83,899	-200,000	0,025	-0,095
-82,884	800,000	0,049	0,105
-81,870	800,000	-0,054	0,129
-80,855	-200,000	0,005	0,022
-79,840	82,915	-0,054	0,042
-78,826	151,552	-0,057	0,056
-77,811	-166,805	-0,068	0,002
-76,797	-9,637	0,027	0,013
-75,782	-83,124	0,136	0,031
-74,767	800,000	-0,044	0,096
-73,753	133,146	0,036	-0,033
-72,738	-143,137	0,047	0,003
-71,724	52,127	-0,165	0,112
-70,709	-79,484	-0,165	0,040
-69,694	-200,000	0,002	0,018
-68,680	-200,000	-0,003	-0,073
-67,665	-200,000	0,002	-0,107
-66,651	-200,000	0,027	0,182
-65,636	347,661	0,009	0,012
-64,622	400,055	-0,047	-0,071
-63,607	800,000	0,043	-0,116
-62,592	10,765	0,084	0,046
-61,578	-46,876	0,075	-0,026
-60,563	83,736	-0,060	0,047
-59,549	-200,000	-0,006	0,088
-58,534	28,208	-2,160	-1,302
-57,519	-200,000	-0,094	-0,639
-56,505	-200,000	-1,356	-5,147
-55,490	160,673	0,862	0,862
-54,476	800,000	5,506	12,280
-53,461	-200,000	18,813	322,699
-52,446	800,000	743,814	2329,726
-51,432	552,903	1656,456	2859,766
-50,417	113,609	1639,036	1424,377
-49,403	78,779	1289,205	985,971
-48,388	30,728	1029,631	629,213
-47,373	19,572	992,428	569,648
-46,359	16,756	980,113	553,317
-45,344	13,370	976,738	540,281
-44,330	13,753	974,943	540,524
-43,315	13,088	973,149	537,330
-42,300	12,988	971,937	536,314
-41,286	13,000	971,168	535,906
-40,271	13,007	969,906	535,214
-39,257	12,991	969,188	534,744
-38,242	13,032	968,403	534,423
-37,227	12,982	967,567	533,779
-36,213	12,922	966,828	533,152
-35,198	12,951	965,836	532,677
-34,184	13,048	965,019	532,523
-33,169	12,957	964,157	531,730
-32,154	13,015	963,131	531,330
-31,140	13,020	962,027	530,717
-30,125	13,013	961,577	530,427
-29,111	13,063	960,405	529,921
-28,096	13,017	959,866	529,451
-27,082	13,015	959,192	529,054
-26,067	13,034	958,422	528,668
-25,052	13,010	957,630	528,135
-24,038	12,947	957,367	527,764
-23,023	12,988	956,557	527,428
-22,009	13,012	955,914	527,129
-20,994	13,078	955,088	526,865
-19,979	13,054	954,550	526,473
-18,965	12,997	954,076	526,005
-17,950	12,999	953,429	525,635
-16,936	12,972	952,768	525,165
-15,921	12,995	951,988	524,787
-14,906	12,930	951,249	524,149
-13,892	12,942	950,762	523,900
-12,877	12,920	950,036	523,410
-11,863	12,832	949,378	522,745
-10,848	12,884	948,823	522,584
-9,833	13,003	948,334	522,672
-8,819	12,960	947,689	522,159
-7,804	12,915	947,052	521,643
-6,790	12,872	946,510	521,188
-5,775	12,932	945,991	521,072
-4,760	13,007	945,284	520,902
-3,746	12,923	944,821	520,358
-2,731	12,766	944,064	519,423
-1,717	12,744	943,357	518,943
-0,702	12,704	942,825	518,504
0,313	12,588	941,975	518,451
1,327	15,992	939,775	527,944
2,342	25,083	793,418	469,767
3,356	21,459	457,374	265,259
4,371	-5,519	315,314	154,144
5,386	-9,306	297,322	141,496
6,400	-11,153	291,392	136,824
7,415	-11,278	288,774	135,460
8,429	-11,373	287,173	134,603
9,444	-11,736	286,359	133,855
10,459	-11,507	285,636	133,728
11,473	-11,414	285,000	133,509
12,488	-11,707	284,506	132,982
13,502	-11,853	284,175	132,673
14,517	-11,657	283,519	132,545
15,531	-11,617	283,275	132,457
16,546	-11,328	282,913	132,555
17,561	-11,386	282,209	132,158
18,575	-11,525	282,141	131,981
19,590	-11,524	281,764	131,794
20,604	-11,333	281,403	131,796
21,619	-11,505	281,093	131,474
22,634	-11,497	280,723	131,297
23,648	-11,474	280,526	131,215
24,663	-11,267	280,175	131,237
25,677	-11,468	279,946	130,927
26,692	-11,587	279,721	130,695
27,707	-11,396	279,257	130,649
28,721	-11,545	279,110	130,427
29,736	-11,531	278,887	130,324
30,750	-11,499	278,486	130,156
31,765	-11,652	278,278	129,902
32,780	-11,676	278,113	129,790
33,794	-11,448	277,851	129,873
34,809	-11,561	277,594	129,634
35,823	-11,593	277,245	129,429
36,838	-11,570	277,103	129,373
37,853	-11,642	276,716	129,113
38,867	-11,555	276,483	129,075
39,882	-11,538	276,303	128,995
40,896	-11,453	276,052	128,946
41,911	-11,600	275,803	128,680
42,926	-11,580	275,655	128,618
43,940	-11,676	275,318	128,360
44,955	-11,507	275,085	128,398
45,969	-11,672	274,960	128,174
46,984	-11,563	274,672	128,130
47,999	-11,745	274,435	127,838
49,013	-11,811	274,217	127,664
50,028	-11,779	274,086	127,621
51,042	-11,864	273,612	127,310
52,057	-11,887	273,479	127,215
53,071	-11,715	273,172	127,221
54,086	-11,747	272,981	127,090
55,101	-11,775	272,807	126,972
56,115	-11,915	272,637	126,752
57,130	-11,613	272,302	126,865
58,144	-11,585	272,184	126,825
59,159	-11,541	271,843	126,695
60,174	-11,495	271,584	126,606
61,188	-11,675	271,437	126,359
62,203	-11,548	271,301	126,403
63,217	-11,504	271,089	126,332
64,232	-11,801	270,910	125,965
65,247	-11,599	270,594	125,992
66,261	-11,630	270,421	125,872
67,276	-11,653	270,144	125,711
68,290	-11,772	269,970	125,509
69,305	-11,709	269,636	125,401
70,320	-11,652	269,401	125,333
71,334	-11,736	269,172	125,138
72,349	-11,536	269,020	125,239
73,363	-11,666	268,698	124,960
74,378	-11,642	268,645	124,945
75,393	-11,760	268,533	124,774
76,407	-11,702	268,140	124,633
77,422	-11,555	267,944	124,665
78,436	-11,696	267,725	124,424
79,451	-11,764	267,332	124,169
80,466	-11,667	267,078	124,127
81,480	-11,685	267,003	124,065
82,495	-11,730	266,794	123,916
83,509	-11,538	266,379	123,886
84,524	-11,732	266,354	123,688
85,539	-11,634	266,048	123,624
86,553	-11,773	266,035	123,481
87,568	-11,789	265,796	123,344
88,582	-11,541	265,584	123,458
89,597	-11,681	265,406	123,239
90,611	-11,616	265,058	123,124
91,626	-11,616	264,908	123,043
92,641	-11,701	264,721	122,869
93,655	-11,683	264,595	122,817
94,670	-11,499	264,300	122,833
95,684	-11,533	264,215	122,752
96,699	-11,746	263,973	122,438
97,714	-11,746	263,647	122,276
98,728	-11,545	263,403	122,331
99,743	-11,653	263,198	122,129
100,757	-11,708	263,143	122,044
101,772	-11,634	262,801	121,940
102,787	-11,638	262,556	121,812
103,801	-11,668	262,478	121,738
104,816	-11,720	262,305	121,601
105,830	-11,673	262,161	121,565
106,845	-11,576	261,911	121,525
107,860	-11,803	261,786	121,254
108,874	-11,782	261,526	121,142
109,889	-11,726	261,381	121,113
110,903	-11,792	261,048	120,890
111,918	-11,814	260,913	120,797
112,933	-11,617	260,729	120,875
113,947	-11,670	260,516	120,719
114,962	-11,641	260,233	120,603
115,976	-11,567	260,027	120,561
116,991	-11,583	260,011	120,529
118,006	-11,797	259,793	120,228
119,020	-11,658	259,625	120,262
120,035	-11,584	259,419	120,222
121,049	-11,602	259,228	120,106
122,064	-11,737	258,894	119,823
123,079	-11,734	258,875	119,806
124,093	-11,668	258,658	119,752
125,108	-11,574	258,487	119,745
126,122	-11,603	258,292	119,619
127,137	-11,483	257,885	119,524
128,151	-11,704	257,823	119,292
129,166	-11,573	257,733	119,354
130,181	-11,751	257,488	119,075
131,195	-11,818	257,279	118,909
132,210	-11,754	257,046	118,847
133,224	-11,771	256,910	118,759
134,239	-11,740	256,702	118,679
135,254	-11,719	256,428	118,560
136,268	-11,572	256,276	118,606
137,283	-11,808	255,995	118,261
138,297	-11,783	255,741	118,155
139,312	-11,750	255,628	118,121
140,327	-11,763	255,515	118,046
141,341	-11,410	255,301	118,241
142,356	-11,618	255,159	117,986
143,370	-11,538	254,986	117,964
144,385	-11,368	254,692	117,964
145,400	-11,439	254,678	117,886
146,414	-11,404	254,449	117,799
147,429	-11,577	254,120	117,488
148,443	-11,699	253,996	117,316
149,458	-11,660	253,841	117,267
150,473	-11,540	253,611	117,253
151,487	-11,525	253,305	117,114
152,502	-11,527	253,217	117,061
153,516	-11,276	253,055	117,190
154,531	-11,491	252,904	116,927
155,546	-11,586	252,819	116,796
156,560	-11,553	252,549	116,689
157,575	-11,679	252,194	116,407
158,589	-11,588	252,194	116,474
159,604	-11,385	251,882	116,492
160,619	-11,412	251,893	116,464
161,633	-11,387	251,822	116,442
162,648	-11,325	251,534	116,351
163,662	-11,580	251,311	116,021
164,677	-11,513	251,096	115,968
165,692	-11,679	251,090	115,815
166,706	-11,381	250,785	115,916
167,721	-11,269	250,632	115,929
168,735	-11,267	250,649	115,928
169,750	-11,439	250,375	115,646
170,764	-11,478	250,190	115,518
171,779	-11,674	250,031	115,269
172,794	-11,618	249,885	115,238
173,808	-11,453	249,620	115,244
174,823	-11,624	249,229	114,910
175,837	-11,755	249,265	114,807
176,852	-11,591	248,939	114,784
177,867	-11,581	248,902	114,765
178,881	-11,449	248,734	114,788
179,896	-11,418	248,673	114,775
180,910	-11,480	248,329	114,554
181,925	-11,599	248,299	114,431
182,940	-11,584	248,102	114,343
183,954	-11,645	247,896	114,187
184,969	-11,345	247,782	114,374
185,983	-11,291	247,636	114,341
186,998	-11,052	247,379	114,411
188,013	-11,401	247,335	114,090
189,027	-11,275	246,946	114,005
190,042	-11,418	246,804	113,811
191,056	-11,589	246,579	113,555
192,071	-11,572	246,336	113,448
193,086	-11,892	246,244	113,130
194,100	-11,737	246,225	113,239
195,115	-11,362	245,893	113,386
196,129	-11,389	245,827	113,324
197,144	-11,455	245,447	113,084
198,159	-11,629	245,374	112,897
199,173	-11,659	245,091	112,731
200,188	-11,656	244,936	112,653
201,202	-11,873	244,745	112,376
202,217	-11,775	244,534	112,350
203,232	-11,831	244,223	112,151
204,246	-11,752	244,182	112,188
205,261	-11,549	244,098	112,305
206,275	-12,119	243,841	111,710
207,290	-11,079	244,040	112,644
208,304	-6,832	245,390	116,749
209,319	-4,027	246,216	119,442
210,334	-2,950	246,397	120,407
211,348	-1,872	246,548	121,358
212,363	-1,468	246,610	121,710
213,377	-1,214	246,739	121,972
214,392	-0,699	246,550	122,291
215,407	-0,330	246,272	122,445
216,421	-0,514	246,428	122,361
217,436	-0,678	246,002	122,004
218,450	-0,629	245,808	121,937
219,465	-0,670	245,649	121,814
220,480	-0,618	245,461	121,752
221,494	-0,554	245,410	121,768
222,509	-0,845	245,251	121,441
223,523	-0,744	245,026	121,401
224,538	-0,794	245,026	121,349
225,553	-0,779	244,730	121,204
226,567	-0,835	244,580	121,073
227,582	-0,855	244,299	120,907
228,596	-0,970	244,137	120,722
229,611	-0,833	244,032	120,771
230,626	-0,812	243,835	120,680
231,640	-0,664	243,699	120,723
232,655	-1,025	243,443	120,292
233,669	-0,883	243,287	120,319
234,684	-0,953	243,202	120,209
235,699	-0,832	243,046	120,220
236,713	-0,841	242,990	120,174
237,728	-0,806	242,693	120,044
238,742	-0,767	242,493	119,967
239,757	-0,886	242,486	119,856
240,772	-0,774	242,274	119,831
241,786	-0,685	242,202	119,856
242,801	-0,955	241,880	119,469
243,815	-0,920	241,884	119,488
244,830	-0,798	241,578	119,425
245,844	-0,901	241,429	119,258
246,859	-1,106	241,314	119,026
247,874	-1,005	241,136	119,009
248,888	-0,754	240,836	119,051
249,903	-1,033	240,981	118,889
250,917	-0,690	240,596	118,962
251,932	-0,870	240,483	118,752
252,947	-0,814	240,284	118,688
253,961	-0,767	240,210	118,678
254,976	-0,957	240,041	118,432
255,990	-0,939	239,860	118,346
257,005	-0,710	239,755	118,467
258,020	-0,904	239,632	118,241
259,034	-0,800	239,407	118,203
260,049	-0,955	239,409	118,069
261,063	-0,777	239,089	118,042
262,078	-0,835	238,936	117,911
263,093	-0,962	238,696	117,680
264,107	-0,880	238,603	117,689
265,122	-0,821	238,476	117,663
266,136	-0,867	238,325	117,541
267,151	-0,820	238,104	117,459
268,166	-0,760	237,903	117,397
269,180	-0,859	237,806	117,261
270,195	-0,826	237,629	117,189
271,209	-0,684	237,459	117,206
272,224	-0,806	237,413	117,078
273,239	-0,604	237,164	117,103
274,253	-0,679	237,043	116,974
275,268	-0,803	236,977	116,834
276,282	-0,821	236,667	116,655
277,297	-0,807	236,634	116,640
278,312	-0,746	236,482	116,603
279,326	-0,642	236,363	116,616
280,341	-0,841	236,237	116,387
281,355	-0,594	236,136	116,520
282,370	-0,691	235,959	116,346
283,384	-0,777	235,799	116,190
284,399	-0,689	235,474	116,088
285,414	-0,697	235,453	116,061
286,428	-0,691	235,330	115,995
287,443	-0,595	235,161	115,976
288,457	-0,630	235,028	115,873
289,472	-0,706	234,850	115,715
290,487	-0,717	234,747	115,646
291,501	-0,536	234,491	115,650
292,516	-0,576	234,400	115,563
293,530	-0,634	234,258	115,438
294,545	-0,641	234,216	115,402
295,560	-0,592	233,907	115,278
296,574	-0,610	233,693	115,148
297,589	-0,583	233,554	115,090
298,603	-0,674	233,514	114,990
299,618	-0,684	233,226	114,830
300,633	-0,715	233,281	114,823
301,647	-0,725	232,982	114,658
302,662	-0,772	232,896	114,569
303,676	-0,728	232,851	114,570
304,691	-0,607	232,594	114,526
305,706	-0,589	232,494	114,481
306,720	-0,446	232,423	114,546
307,735	-0,513	232,228	114,388
308,749	-0,426	231,987	114,326
309,764	-0,650	231,979	114,140
310,779	-0,617	231,757	114,046
311,793	-0,451	231,642	114,106
312,808	-0,535	231,443	113,934
313,822	-0,540	231,345	113,871
314,837	-0,285	231,101	113,937
315,852	-0,415	230,925	113,740
316,866	-0,461	230,959	113,711
317,881	-0,678	230,811	113,463
318,895	-0,517	230,627	113,485
319,910	-0,538	230,367	113,331
320,925	-0,489	230,343	113,346
321,939	-0,543	230,216	113,232
322,954	-0,440	230,037	113,213
323,968	-0,376	229,736	113,104
324,983	-0,297	229,792	113,181
325,997	-0,333	229,607	113,052
327,012	-0,304	229,326	112,925
328,027	-0,273	229,324	112,938
329,041	-0,126	228,991	112,875
330,056	-0,411	229,014	112,661
331,070	-0,225	228,876	112,723
332,085	-0,255	228,763	112,635
333,100	-0,147	228,443	112,549
334,114	-0,010	228,330	112,586
335,129	-0,412	228,264	112,241
336,143	-0,396	227,972	112,100
337,158	-0,131	228,023	112,314
338,173	-0,164	227,850	112,194
339,187	-0,146	227,603	112,076
340,202	-0,131	227,540	112,046
341,216	0,036	227,444	112,114
342,231	-0,115	227,238	111,889
343,246	-0,316	227,259	111,739
344,260	-0,093	226,952	111,745
345,275	-0,075	226,924	111,735
346,289	-0,073	226,712	111,622
347,304	-0,165	226,492	111,435
348,319	-0,129	226,415	111,414
349,333	-0,036	226,196	111,366
350,348	-0,100	226,131	111,276
351,362	-0,063	225,949	111,204
352,377	-0,200	225,894	111,065
353,392	0,073	225,682	111,154
354,406	-0,040	225,550	110,995
355,421	196,652	1318,162	1394,227
356,435	157,676	1451,241	1394,177
