DTS Sentinel unit serial number:	SN410029Multiplexer serial number:	ORYXHardware model number:	OX2-SRSoftware version number:	ORYX F/W v4,00 Oryx Data Collector v3.7.2.0data status	okinstallation	B5 Nyhavnadifferential loss correction	single-endedforward channel	channel 2reverse channel	N/Adate	2023/12/14time	19:17:13forward acquisition time	300,00reverse acquisition time	0,00gamma	499,1914k internal	0,3156k external	0,3156temperature offset calibration	1,0000default loss term (dB/km)	0,3820temperature slope calibration	1,0000multiplexer offset coefficient	1,0000multiplexer slope coefficient	1,0000fibre end	0,00T internal ref (°C)	8,82T ext. ref 1 (°C)	-5,79T ext. ref 2 (°C)	-5,84length (m)	temperature (°C)	Stokes	anti-Stokes-744,400	-126,325	0,120	0,013
-743,385	-78,688	-0,248	-0,062
-742,371	800,000	0,060	0,150
-741,356	-132,775	-0,321	0,030
-740,342	-200,000	0,030	0,200
-739,327	-19,393	-0,236	0,108
-738,312	-149,552	0,031	-0,002
-737,298	-123,446	-0,359	-0,042
-736,283	-92,263	0,152	0,031
-735,269	-99,101	-0,281	0,052
-734,254	-17,254	0,116	0,054
-733,239	-19,449	-0,608	-0,277
-732,225	-42,784	0,265	0,099
-731,210	-200,000	-0,031	0,159
-730,196	-81,299	-0,081	-0,020
-729,181	-200,000	-0,003	0,016
-728,167	-62,076	-0,185	-0,057
-727,152	-200,000	0,019	-0,140
-726,137	11,712	-0,196	-0,111
-725,123	-40,972	0,061	-0,023
-724,108	175,220	-0,044	-0,047
-723,094	505,308	-0,085	0,147
-722,079	65,230	-0,060	-0,045
-721,064	23,253	-0,034	-0,021
-720,050	-200,000	-0,013	0,136
-719,035	-0,893	0,161	0,084
-718,021	-47,789	-0,129	0,046
-717,006	315,954	-0,058	-0,081
-715,991	-200,000	-0,010	-0,140
-714,977	115,994	-0,082	-0,074
-713,962	647,923	-0,054	-0,102
-712,948	670,726	-0,101	0,193
-711,933	-61,259	-0,064	0,020
-710,918	669,950	-0,046	-0,089
-709,904	-200,000	0,001	-0,017
-708,889	86,221	-0,074	-0,060
-707,875	800,000	-0,039	-0,123
-706,860	-200,000	0,005	0,117
-705,845	45,210	0,009	0,006
-704,831	-200,000	0,009	-0,048
-703,816	47,621	-0,061	0,042
-702,802	-200,000	-0,018	0,068
-701,787	504,122	-0,104	-0,178
-700,772	-156,796	-0,221	-0,010
-699,758	464,197	-0,041	-0,068
-698,743	-155,365	-0,055	0,003
-697,729	3,073	-0,015	0,008
-696,714	85,747	0,049	-0,039
-695,699	-200,000	0,009	0,100
-694,685	-72,303	0,079	0,021
-693,670	37,307	-0,091	0,059
-692,656	-200,000	-0,023	-0,095
-691,641	-200,000	-0,017	-0,122
-690,627	151,273	-0,048	0,048
-689,612	800,000	0,039	-0,123
-688,597	-200,000	-0,021	0,082
-687,583	-25,325	-0,114	0,050
-686,568	-56,947	-0,038	-0,012
-685,554	-200,000	-0,025	-0,165
-684,539	297,265	0,052	0,071
-683,524	63,966	0,022	-0,017
-682,510	108,706	0,060	0,052
-681,495	800,000	0,007	0,022
-680,481	330,248	-0,162	-0,230
-679,466	116,109	-0,068	-0,062
-678,451	322,338	0,036	-0,050
-677,437	-49,824	-0,057	-0,020
-676,422	-58,466	0,073	0,023
-675,408	-192,976	0,110	-0,001
-674,393	-25,601	-0,031	-0,014
-673,378	800,000	-0,049	-0,141
-672,364	-38,671	-0,092	-0,036
-671,349	-57,267	-0,063	-0,020
-670,335	-60,934	0,101	0,031
-669,320	-155,700	-0,127	0,006
-668,305	8,789	0,023	0,013
-667,291	800,000	0,012	-0,031
-666,276	-140,491	-0,085	-0,006
-665,262	-200,000	-0,032	-0,153
-664,247	800,000	-0,040	0,103
-663,232	-100,242	-0,027	-0,005
-662,218	104,985	-0,072	-0,062
-661,203	-17,597	-0,057	-0,026
-660,189	379,956	0,038	-0,057
-659,174	-200,000	-0,012	0,084
-658,159	-54,676	-0,164	0,054
-657,145	57,466	-0,115	-0,082
-656,130	-82,480	-0,170	0,040
-655,116	800,000	-0,020	-0,049
-654,101	800,000	0,045	0,140
-653,086	-80,637	0,222	-0,054
-652,072	81,835	0,110	-0,087
-651,057	323,830	-0,111	-0,156
-650,043	-77,122	0,067	0,017
-649,028	-15,114	-0,006	0,003
-648,014	-31,160	0,088	-0,036
-646,999	-199,852	0,104	0,000
-645,984	16,372	-0,170	-0,099
-644,970	-200,000	-0,002	0,017
-643,955	39,063	-0,132	0,087
-642,941	38,609	-0,069	-0,045
-641,926	-15,260	-0,038	-0,018
-640,911	508,879	0,041	-0,071
-639,897	16,399	-0,188	0,109
-638,882	800,000	-0,060	-0,133
-637,868	-117,266	-0,131	-0,017
-636,853	771,275	-0,059	-0,118
-635,838	-200,000	-0,029	-0,183
-634,824	-8,420	-0,057	0,028
-633,809	-200,000	0,012	-0,070
-632,795	115,407	0,069	-0,062
-631,780	-54,438	-0,138	0,046
-630,765	566,921	0,050	-0,089
-629,751	-70,967	-0,089	-0,025
-628,736	800,000	0,038	-0,114
-627,722	800,000	0,007	-0,021
-626,707	-192,199	-0,120	-0,001
-625,692	31,666	0,163	0,103
-624,678	-200,000	0,041	0,139
-623,663	-200,000	0,019	0,082
-622,649	27,163	-0,100	0,061
-621,634	232,701	-0,030	-0,036
-620,619	-200,000	-0,019	-0,117
-619,605	-200,000	-0,022	0,083
-618,590	371,816	-0,040	0,060
-617,576	430,882	0,037	0,058
-616,561	28,063	-0,024	-0,015
-615,546	92,041	-0,054	-0,044
-614,532	-47,270	-0,178	-0,063
-613,517	76,823	0,024	0,018
-612,503	-169,459	-0,084	-0,002
-611,488	160,238	0,080	-0,082
-610,474	187,159	-0,094	0,103
-609,459	-200,000	0,004	0,064
-608,444	-172,050	-0,086	0,002
-607,430	-200,000	-0,001	0,021
-606,415	14,398	0,062	-0,035
-605,401	-200,000	-0,027	-0,110
-604,386	67,447	-0,121	-0,090
-603,371	770,212	0,028	0,056
-602,357	-200,000	0,032	0,115
-601,342	-200,000	-0,007	0,026
-600,328	-200,000	-0,011	-0,063
-599,313	-86,806	-0,097	0,022
-598,298	100,302	-0,045	-0,039
-597,284	-81,284	0,042	-0,010
-596,269	800,000	0,012	0,028
-595,255	-200,000	0,027	-0,096
-594,240	223,602	-0,054	-0,064
-593,225	-200,000	-0,001	-0,077
-592,211	-200,000	0,000	-0,011
-591,196	800,000	0,028	0,088
-590,182	-200,000	-0,004	0,031
-589,167	95,011	0,062	0,052
-588,152	427,475	-0,023	-0,037
-587,138	-200,000	-0,019	-0,123
-586,123	800,000	0,022	-0,050
-585,109	-200,000	0,003	0,017
-584,094	-150,630	-0,040	0,002
-583,079	-200,000	0,022	0,189
-582,065	263,288	-0,045	0,057
-581,050	-60,126	0,116	-0,036
-580,036	19,681	0,075	0,044
-579,021	-9,902	0,026	0,013
-578,006	800,000	0,024	-0,068
-576,992	-109,595	-0,066	-0,010
-575,977	-200,000	-0,013	-0,088
-574,963	18,841	0,073	0,043
-573,948	-200,000	0,016	0,081
-572,934	-42,883	0,104	0,039
-571,919	800,000	-0,065	-0,143
-570,904	-34,732	-0,082	-0,033
-569,890	343,230	0,042	-0,060
-568,875	-67,310	0,118	0,034
-567,861	38,950	0,140	0,091
-566,846	357,669	-0,005	0,008
-565,831	-113,338	-0,122	-0,017
-564,817	-73,289	-0,052	-0,014
-563,802	492,294	0,083	-0,140
-562,788	-200,000	-0,013	-0,070
-561,773	49,477	0,038	0,026
-560,758	-200,000	-0,015	0,131
-559,744	338,667	-0,056	0,079
-558,729	223,828	0,086	0,102
-557,715	-47,387	-0,105	0,037
-556,700	-90,437	0,061	0,013
-555,685	-43,055	-0,139	-0,051
-554,671	-200,000	-0,015	-0,100
-553,656	432,883	0,067	0,107
-552,642	496,881	0,056	-0,095
-551,627	47,508	0,171	0,117
-550,612	800,000	0,051	0,137
-549,598	-160,512	-0,122	-0,005
-548,583	241,560	0,049	0,059
-547,569	335,972	0,035	0,049
-546,554	179,316	-0,079	0,085
-545,539	-79,595	0,080	-0,020
-544,525	286,398	-0,055	-0,073
-543,510	-98,284	-0,210	-0,039
-542,496	268,666	0,063	-0,080
-541,481	-33,149	0,085	0,034
-540,466	122,635	0,016	0,015
-539,452	-200,000	0,030	-0,164
-538,437	-200,000	0,061	-0,234
-537,423	51,282	0,101	0,070
-536,408	-90,128	-0,066	0,014
-535,393	-200,000	-0,084	0,000
-534,379	800,000	-0,048	-0,112
-533,364	-200,000	-0,023	-0,117
-532,350	-139,739	0,038	-0,003
-531,335	-200,000	0,002	-0,021
-530,321	438,569	-0,096	0,154
-529,306	-200,000	0,003	-0,040
-528,291	800,000	-0,057	-0,133
-527,277	70,601	0,113	-0,086
-526,262	158,543	0,026	-0,026
-525,248	-113,381	0,083	-0,012
-524,233	96,730	0,040	-0,034
-523,218	-0,834	-0,023	-0,012
-522,204	-44,182	0,081	0,029
-521,189	-200,000	-0,016	0,061
-520,175	132,538	-0,102	-0,096
-519,160	254,674	0,037	-0,046
-518,145	800,000	0,028	0,060
-517,131	-121,209	0,104	-0,013
-516,116	-200,000	0,007	0,120
-515,102	-48,874	0,061	-0,021
-514,087	182,725	-0,066	-0,071
-513,072	-108,656	-0,031	0,005
-512,058	-142,438	0,110	-0,008
-511,043	-200,000	0,030	-0,130
-510,029	267,252	0,040	-0,052
-509,014	-200,000	0,014	-0,085
-507,999	45,878	0,168	-0,114
-506,985	-200,000	-0,026	-0,166
-505,970	-7,334	-0,075	-0,037
-504,956	-47,787	0,034	-0,012
-503,941	800,000	-0,039	0,091
-502,926	-200,000	0,012	0,200
-501,912	-98,009	0,073	0,014
-500,897	-47,505	0,125	0,044
-499,883	-44,797	-0,147	0,053
-498,868	16,989	-0,036	-0,021
-497,853	-14,442	0,051	0,024
-496,839	44,783	-0,097	0,065
-495,824	67,423	0,081	-0,060
-494,810	-133,739	-0,084	-0,008
-493,795	-200,000	-0,008	0,041
-492,781	502,004	-0,082	0,139
-491,766	-200,000	0,044	-0,197
-490,751	-200,000	-0,030	-0,149
-489,737	800,000	0,030	0,063
-488,722	24,425	-0,055	0,033
-487,708	537,972	0,051	0,089
-486,693	44,056	0,109	-0,073
-485,678	40,655	-0,062	-0,041
-484,664	-17,084	0,068	0,031
-483,649	-32,515	0,134	-0,054
-482,635	77,963	0,037	0,029
-481,620	-13,560	-0,053	0,025
-480,605	9,915	0,021	0,011
-479,591	395,036	-0,004	0,005
-478,576	31,368	0,082	0,051
-477,562	79,105	-0,053	-0,041
-476,547	461,083	-0,050	-0,082
-475,532	800,000	0,019	-0,043
-474,518	-200,000	0,001	0,115
-473,503	368,157	-0,011	0,017
-472,489	-14,569	0,058	0,027
-471,474	800,000	-0,051	0,118
-470,459	21,769	-0,046	-0,027
-469,445	349,169	0,020	0,029
-468,430	-45,560	-0,047	0,017
-467,416	98,379	0,075	0,063
-466,401	-35,345	0,107	0,042
-465,386	-85,963	-0,080	0,018
-464,372	-200,000	0,010	0,072
-463,357	-81,164	0,081	0,019
-462,343	-80,869	-0,051	0,012
-461,328	-200,000	-0,001	0,117
-460,313	126,447	0,114	0,105
-459,299	163,115	0,027	0,027
-458,284	-200,000	-0,027	0,100
-457,270	-103,864	-0,074	-0,013
-456,255	800,000	0,021	-0,060
-455,241	12,849	0,129	-0,073
-454,226	-200,000	0,004	-0,017
-453,211	268,958	0,023	-0,030
-452,197	-200,000	-0,001	0,058
-451,182	228,149	0,069	-0,083
-450,168	661,381	0,034	0,064
-449,153	-200,000	0,024	-0,153
-448,138	-58,781	-0,123	0,038
-447,124	-200,000	0,009	-0,031
-446,109	800,000	0,030	-0,069
-445,095	315,056	0,087	-0,119
-444,080	204,917	0,046	0,052
-443,065	800,000	-0,007	0,018
-442,051	5,754	0,105	0,057
-441,036	92,188	-0,076	-0,063
-440,022	234,019	-0,020	0,024
-439,007	95,542	-0,051	0,042
-437,992	49,311	0,096	-0,065
-436,978	264,411	-0,032	-0,041
-435,963	800,000	-0,021	0,053
-434,949	-140,664	-0,118	-0,009
-433,934	-148,264	-0,138	0,008
-432,919	-38,488	-0,142	-0,055
-431,905	286,905	0,097	0,127
-430,890	124,716	-0,032	-0,029
-429,876	800,000	0,016	0,036
-428,861	-200,000	-0,007	-0,068
-427,846	-176,495	-0,044	0,001
-426,832	800,000	0,040	-0,094
-425,817	234,544	0,054	0,065
-424,803	-200,000	0,004	0,079
-423,788	800,000	0,024	0,056
-422,773	315,387	0,109	0,151
-421,759	-200,000	0,000	0,031
-420,744	-160,321	0,076	-0,003
-419,730	137,192	-0,036	-0,034
-418,715	-200,000	-0,007	-0,104
-417,701	153,460	0,071	0,071
-416,686	172,637	0,123	0,129
-415,671	-48,813	-0,098	-0,034
-414,657	189,812	0,058	0,063
-413,642	24,703	0,062	0,037
-412,628	265,706	-0,047	0,059
-411,613	-46,251	0,040	0,014
-410,598	22,876	-0,089	0,053
-409,584	74,585	0,045	-0,034
-408,569	-102,871	0,042	-0,007
-407,555	-4,259	0,052	0,026
-406,540	50,807	-0,046	0,032
-405,525	-90,632	-0,165	-0,034
-404,511	800,000	0,009	0,023
-403,496	-39,921	-0,137	-0,052
-402,482	-200,000	-0,010	-0,066
-401,467	-200,000	-0,002	0,078
-400,452	-58,860	0,186	0,058
-399,438	-200,000	0,008	-0,043
-398,423	800,000	-0,013	-0,038
-397,409	39,630	0,026	0,017
-396,394	-31,918	0,049	0,020
-395,379	-81,488	0,038	-0,009
-394,365	-49,109	0,138	0,048
-393,350	59,742	-0,052	0,037
-392,336	32,505	-0,048	-0,030
-391,321	495,256	0,045	-0,076
-390,306	466,666	-0,006	-0,010
-389,292	599,510	-0,084	-0,153
-388,277	398,700	0,035	-0,054
-387,263	-105,217	0,081	-0,013
-386,248	482,383	-0,050	0,082
-385,233	-200,000	-0,011	0,126
-384,219	-200,000	-0,012	0,051
-383,204	800,000	-0,041	-0,088
-382,190	-200,000	0,028	-0,163
-381,175	241,811	0,024	-0,029
-380,160	473,632	0,013	-0,021
-379,146	-200,000	-0,006	0,123
-378,131	-200,000	-0,024	0,147
-377,117	781,881	0,011	-0,023
-376,102	-14,719	-0,108	-0,050
-375,088	800,000	0,014	0,043
-374,073	159,115	-0,057	0,058
-373,058	243,316	0,084	-0,102
-372,044	-38,811	0,050	-0,019
-371,029	-102,290	0,067	0,011
-370,015	-200,000	-0,010	0,076
-369,000	-200,000	-0,026	-0,093
-367,985	-200,000	0,007	0,100
-366,971	329,134	-0,058	-0,082
-365,956	-200,000	-0,004	0,081
-364,942	-6,198	0,120	0,059
-363,927	4,273	-0,077	0,041
-362,912	-72,644	0,120	0,032
-361,898	-200,000	0,051	-0,173
-360,883	49,679	-0,130	-0,089
-359,869	67,998	-0,032	0,024
-358,854	800,000	0,077	-0,191
-357,839	409,294	0,059	-0,092
-356,825	-27,473	0,056	0,024
-355,810	20,032	0,067	-0,039
-354,796	258,298	-0,054	-0,068
-353,781	-90,289	-0,027	-0,006
-352,766	326,995	-0,080	-0,112
-351,752	135,470	-0,042	-0,040
-350,737	-200,000	-0,009	-0,032
-349,723	-57,690	-0,143	0,045
-348,708	-110,471	-0,098	-0,015
-347,693	361,688	-0,080	0,117
-346,679	-32,996	0,113	-0,046
-345,664	2,032	-0,083	-0,043
-344,650	92,691	0,129	-0,106
-343,635	-193,142	0,142	-0,001
-342,620	-125,935	-0,097	0,011
-341,606	-33,552	-0,109	-0,043
-340,591	-100,100	-0,085	-0,015
-339,577	-200,000	0,001	-0,039
-338,562	76,398	-0,042	0,032
-337,548	316,873	-0,047	-0,065
-336,533	-36,919	0,105	0,041
-335,518	-200,000	0,024	0,094
-334,504	800,000	0,094	0,205
-333,489	456,241	0,033	0,053
-332,475	42,145	-0,116	-0,076
-331,460	-200,000	-0,007	-0,042
-330,445	195,025	0,032	-0,035
-329,431	800,000	0,018	-0,044
-328,416	-58,628	-0,106	-0,033
-327,402	172,344	0,076	-0,080
-326,387	212,565	-0,070	-0,081
-325,372	-200,000	-0,021	0,147
-324,358	-119,948	0,077	-0,009
-323,343	-30,425	-0,049	-0,020
-322,329	-200,000	-0,020	-0,199
-321,314	413,180	-0,016	-0,026
-320,299	800,000	0,053	0,109
-319,285	5,394	-0,067	-0,036
-318,270	16,546	-0,120	0,069
-317,256	-200,000	0,025	-0,106
-316,241	255,252	-0,099	-0,123
-315,226	-103,296	0,160	0,027
-314,212	-200,000	0,001	0,212
-313,197	800,000	-0,075	0,154
-312,183	-200,000	-0,011	0,061
-311,168	331,518	0,034	-0,048
-310,153	-76,096	0,120	0,031
-309,139	249,649	-0,066	0,081
-308,124	387,446	0,021	0,032
-307,110	-200,000	0,006	0,126
-306,095	800,000	-0,014	-0,037
-305,080	400,740	-0,022	0,034
-304,066	328,401	0,042	0,058
-303,051	-28,979	0,088	0,037
-302,037	7,899	-0,166	-0,090
-301,022	-200,000	0,003	0,029
-300,008	-200,000	0,027	0,262
-298,993	800,000	-0,040	0,098
-297,978	-157,994	0,076	0,003
-296,964	450,986	-0,025	-0,040
-295,949	-200,000	0,007	0,037
-294,935	-53,054	-0,069	-0,023
-293,920	56,863	0,106	-0,075
-292,905	800,000	0,032	0,095
-291,891	595,120	-0,049	0,089
-290,876	800,000	-0,032	-0,068
-289,862	152,307	0,078	0,077
-288,847	-86,613	-0,056	0,012
-287,832	-200,000	0,003	-0,083
-286,818	800,000	-0,031	0,071
-285,803	800,000	0,046	0,100
-284,789	800,000	-0,038	-0,085
-283,774	-90,410	-0,083	0,017
-282,759	-140,931	0,103	0,008
-281,745	74,772	-0,135	-0,103
-280,730	362,975	0,034	-0,050
-279,716	-200,000	-0,001	-0,124
-278,701	788,744	0,004	0,008
-277,686	800,000	-0,034	0,091
-276,672	65,401	0,074	-0,054
-275,657	363,318	-0,033	-0,048
-274,643	-200,000	-0,013	-0,084
-273,628	-200,000	-0,027	-0,125
-272,613	170,320	-0,077	-0,080
-271,599	122,503	0,039	-0,035
-270,584	-200,000	0,006	-0,127
-269,570	340,403	-0,095	0,134
-268,555	144,277	-0,062	0,059
-267,540	206,522	-0,100	-0,113
-266,526	435,181	-0,054	-0,085
-265,511	19,521	0,081	-0,047
-264,497	800,000	-0,068	-0,150
-263,482	498,758	0,059	0,099
-262,467	-36,705	-0,086	0,033
-261,453	-150,038	-0,110	0,006
-260,438	-200,000	0,013	-0,133
-259,424	144,869	-0,030	-0,029
-258,409	-200,000	-0,005	-0,199
-257,395	-17,236	-0,169	0,077
-256,380	73,816	0,069	0,053
-255,365	-185,318	0,104	0,001
-254,351	80,696	0,062	-0,048
-253,336	-200,000	0,012	-0,090
-252,322	-200,000	-0,022	-0,118
-251,307	-200,000	0,015	0,079
-250,292	374,776	0,012	0,017
-249,278	79,197	0,136	0,105
-248,263	-20,338	0,021	0,009
-247,249	206,115	0,027	-0,030
-246,234	-16,210	-0,148	-0,068
-245,219	-28,476	-0,109	0,045
-244,205	-0,521	0,146	-0,075
-243,190	249,092	0,051	0,062
-242,176	800,000	-0,058	0,137
-241,161	-200,000	0,001	0,013
-240,146	-200,000	0,018	0,184
-239,132	800,000	0,037	0,077
-238,117	712,835	-0,089	-0,171
-237,103	10,194	0,080	0,044
-236,088	177,394	0,027	0,028
-235,073	-45,378	-0,068	-0,024
-234,059	800,000	-0,024	-0,073
-233,044	800,000	0,040	0,115
-232,030	34,424	0,052	0,033
-231,015	-87,417	0,049	0,011
-230,000	-49,689	-0,087	0,030
-228,986	93,836	-0,073	-0,060
-227,971	-200,000	-0,007	0,046
-226,957	-29,469	0,052	0,021
-225,942	800,000	0,049	0,136
-224,927	-200,000	0,012	-0,113
-223,913	771,116	0,010	0,021
-222,898	800,000	-0,048	-0,127
-221,884	298,780	-0,026	0,034
-220,869	-200,000	0,009	0,101
-219,855	88,115	0,039	-0,031
-218,840	165,105	0,039	-0,040
-217,825	-108,933	-0,099	0,015
-216,811	540,973	0,081	-0,139
-215,796	316,195	-0,077	0,106
-214,782	123,036	0,077	0,069
-213,767	-19,867	0,196	0,087
-212,752	186,227	-0,088	0,095
-211,738	134,586	0,152	0,143
-210,723	800,000	0,085	0,192
-209,709	40,178	-0,090	-0,058
-208,694	24,061	0,091	0,054
-207,679	800,000	-0,040	-0,089
-206,665	237,865	0,069	0,083
-205,650	358,209	0,050	0,073
-204,636	590,982	0,017	-0,030
-203,621	-143,236	-0,068	0,005
-202,606	-99,500	0,028	-0,005
-201,592	800,000	-0,038	0,096
-200,577	65,020	0,015	-0,011
-199,563	800,000	0,002	-0,005
-198,548	-200,000	0,027	0,114
-197,533	-200,000	-0,015	0,099
-196,519	800,000	0,036	-0,073
-195,504	442,103	0,071	0,112
-194,490	800,000	0,044	-0,094
-193,475	-200,000	-0,014	0,134
-192,460	563,228	-0,106	-0,186
-191,446	141,046	0,066	0,063
-190,431	-58,894	0,028	-0,009
-189,417	251,196	-0,022	-0,027
-188,402	-200,000	-0,018	-0,086
-187,387	-200,000	-0,027	-0,128
-186,373	-121,781	0,047	-0,006
-185,358	-200,000	0,013	0,069
-184,344	469,917	0,008	0,013
-183,329	-86,278	0,143	-0,031
-182,315	486,633	-0,102	0,168
-181,300	170,137	-0,060	-0,062
-180,285	109,886	-0,054	-0,047
-179,271	-74,158	-0,117	-0,030
-178,256	800,000	0,027	0,060
-177,242	-200,000	0,007	0,030
-176,227	-200,000	0,022	-0,104
-175,212	-86,486	0,121	0,027
-174,198	78,826	-0,096	-0,074
-173,183	101,303	-0,090	-0,076
-172,169	800,000	0,013	0,034
-171,154	-103,101	-0,066	0,011
-170,139	-200,000	-0,039	0,162
-169,125	224,962	0,041	-0,048
-168,110	397,317	-0,048	0,072
-167,096	671,916	0,073	0,136
-166,081	155,036	0,076	0,076
-165,066	-200,000	0,001	-0,109
-164,052	44,633	-0,036	-0,024
-163,037	-152,715	0,085	0,004
-162,023	-140,169	0,079	0,006
-161,008	-200,000	-0,037	0,175
-159,993	800,000	0,071	0,217
-158,979	259,201	-0,046	-0,057
-157,964	215,604	-0,088	-0,101
-156,950	-200,000	0,012	-0,052
-155,935	-93,551	0,023	0,005
-154,920	-14,384	0,034	0,016
-153,906	-15,305	0,011	-0,005
-152,891	321,396	-0,054	-0,074
-151,877	800,000	0,030	-0,066
-150,862	-200,000	-0,021	-0,176
-149,847	99,506	-0,073	0,061
-148,833	-200,000	-0,017	-0,103
-147,818	686,255	0,066	0,124
-146,804	800,000	0,053	0,121
-145,789	-200,000	0,001	-0,092
-144,775	48,865	-0,030	0,020
-143,760	-42,793	-0,127	-0,046
-142,745	189,289	0,072	-0,078
-141,731	509,136	-0,023	0,039
-140,716	-134,672	0,031	0,003
-139,702	-200,000	-0,026	0,120
-138,687	800,000	-0,020	-0,051
-137,672	-70,361	-0,080	-0,022
-136,658	-102,665	-0,072	0,012
-135,643	145,007	0,043	-0,041
-134,629	-77,207	-0,068	-0,017
-133,614	-72,967	0,065	-0,017
-132,599	154,711	-0,087	0,086
-131,585	470,523	0,030	0,049
-130,570	-200,000	0,005	0,020
-129,556	73,047	-0,028	0,021
-128,541	694,410	-0,096	0,182
-127,526	-6,752	-0,043	0,021
-126,512	-106,429	-0,032	-0,005
-125,497	113,727	-0,037	0,032
-124,483	800,000	-0,030	0,071
-123,468	800,000	-0,041	0,104
-122,453	98,858	-0,082	0,068
-121,439	-58,162	0,056	0,017
-120,424	-167,342	-0,085	-0,002
-119,410	-85,889	0,017	0,004
-118,395	-200,000	0,029	0,141
-117,380	-200,000	0,007	0,109
-116,366	-19,906	-0,120	0,053
-115,351	203,162	-0,054	0,060
-114,337	-200,000	-0,024	-0,082
-113,322	-151,828	-0,159	-0,008
-112,307	190,356	0,044	-0,048
-111,293	-48,491	0,039	-0,013
-110,278	-64,491	0,058	-0,017
-109,264	-9,119	0,103	0,050
-108,249	-200,000	-0,034	-0,146
-107,234	800,000	-0,038	-0,084
-106,220	-39,202	-0,120	-0,045
-105,205	-200,000	0,004	0,072
-104,191	-200,000	0,019	-0,063
-103,176	-200,000	-0,025	0,190
-102,162	-167,554	-0,085	-0,002
-101,147	-83,264	-0,159	0,036
-100,132	367,656	-0,068	-0,099
-99,118	125,793	-0,089	0,081
-98,103	6,086	0,057	0,030
-97,089	-200,000	0,002	0,047
-96,074	-57,428	0,123	0,039
-95,059	-62,243	-0,044	-0,013
-94,045	-2,417	-0,088	-0,044
-93,030	794,290	0,040	-0,079
-92,016	-43,157	-0,115	-0,042
-91,001	-200,000	-0,035	0,136
-89,986	-200,000	0,019	-0,099
-88,972	-200,000	-0,009	-0,099
-87,957	18,187	0,116	-0,066
-86,943	132,834	0,133	0,123
-85,928	135,107	-0,095	-0,089
-84,913	-20,090	0,058	0,026
-83,899	-200,000	0,004	0,107
-82,884	-46,738	0,105	0,037
-81,870	414,660	-0,051	0,078
-80,855	15,112	0,090	-0,051
-79,840	59,338	0,090	0,064
-78,826	-20,524	-0,106	0,047
-77,811	-143,651	0,119	-0,008
-76,797	82,848	-0,014	-0,011
-75,782	-102,581	0,055	0,009
-74,767	342,412	0,069	0,098
-73,753	48,588	-0,047	-0,032
-72,738	225,890	0,119	0,139
-71,724	295,507	0,048	0,063
-70,709	434,212	-0,083	-0,130
-69,694	800,000	-0,035	0,070
-68,680	-78,663	0,076	0,019
-67,665	-182,673	-0,019	-0,000
-66,651	-200,000	0,003	0,073
-65,636	-104,774	0,094	-0,015
-64,622	-92,540	-0,047	0,009
-63,607	46,089	0,061	0,041
-62,592	40,571	-0,083	-0,054
-61,578	-24,607	-0,115	-0,049
-60,563	63,014	0,062	0,044
-59,549	-52,253	0,123	0,041
-58,534	69,631	-2,575	-1,903
-57,519	-13,801	0,270	-0,125
-56,505	-200,000	-1,604	-5,408
-55,490	553,310	1,136	1,970
-54,476	800,000	5,224	11,188
-53,461	-200,000	21,637	337,434
-52,446	800,000	762,188	2287,050
-51,432	508,260	1657,314	2773,610
-50,417	104,416	1622,585	1371,132
-49,403	75,048	1276,635	964,921
-48,388	25,947	1023,632	611,420
-47,373	19,179	989,262	568,471
-46,359	13,506	976,730	542,597
-45,344	9,514	973,444	527,613
-44,330	10,092	971,147	528,249
-43,315	8,923	969,593	523,543
-42,300	8,894	968,175	522,663
-41,286	8,810	967,515	522,009
-40,271	8,802	966,214	521,262
-39,257	8,868	965,405	521,021
-38,242	8,833	964,714	520,511
-37,227	8,820	964,011	520,068
-36,213	8,803	963,000	519,447
-35,198	8,856	962,052	519,087
-34,184	8,905	961,529	518,944
-33,169	8,789	960,504	517,995
-32,154	8,901	959,391	517,739
-31,140	8,902	958,744	517,370
-30,125	8,933	957,703	516,889
-29,111	8,881	956,908	516,272
-28,096	8,899	956,369	516,017
-27,082	8,908	955,609	515,618
-26,067	8,862	955,047	515,145
-25,052	8,836	954,319	514,647
-24,038	8,808	953,415	514,047
-23,023	8,767	952,964	513,652
-22,009	8,865	952,248	513,561
-20,994	8,879	951,508	513,188
-19,979	8,814	950,974	512,670
-18,965	8,796	950,427	512,297
-17,950	8,857	949,790	512,129
-16,936	8,795	949,155	511,567
-15,921	8,787	948,453	511,144
-14,906	8,715	947,671	510,469
-13,892	8,738	947,054	510,192
-12,877	8,753	946,429	509,884
-11,863	8,698	945,985	509,447
-10,848	8,759	945,206	509,201
-9,833	8,787	944,698	508,998
-8,819	8,785	944,025	508,610
-7,804	8,811	943,190	508,221
-6,790	8,773	942,761	507,851
-5,775	8,793	942,246	507,615
-4,760	8,816	941,764	507,411
-3,746	8,782	941,052	506,896
-2,731	8,631	940,176	505,925
-1,717	8,567	939,641	505,413
-0,702	8,596	938,966	505,122
0,313	8,474	938,203	505,088
1,327	11,893	936,174	514,779
2,342	20,650	785,047	454,768
3,356	16,068	451,737	254,713
4,371	-10,019	314,611	149,481
5,386	-13,742	297,180	137,394
6,400	-15,757	291,063	132,542
7,415	-16,380	288,227	130,623
8,429	-17,257	286,287	128,870
9,444	-17,325	285,384	128,386
10,459	-17,211	284,804	128,225
11,473	-17,618	284,158	127,526
12,488	-17,368	283,849	127,620
13,502	-17,334	283,196	127,347
14,517	-17,476	282,703	126,977
15,531	-17,643	282,216	126,586
16,546	-17,451	281,907	126,621
17,561	-17,723	281,491	126,160
18,575	-17,504	281,180	126,221
19,590	-17,516	280,732	125,997
20,604	-17,644	280,458	125,739
21,619	-17,582	280,264	125,701
22,634	-17,514	279,648	125,479
23,648	-17,678	279,416	125,207
24,663	-17,618	279,120	125,120
25,677	-17,618	278,923	125,020
26,692	-17,474	278,730	125,060
27,707	-17,574	278,433	124,820
28,721	-17,492	278,026	124,705
29,736	-17,558	277,852	124,553
30,750	-17,473	277,477	124,455
31,765	-17,622	277,230	124,191
32,780	-17,547	277,022	124,158
33,794	-17,532	276,837	124,078
34,809	-17,456	276,587	124,027
35,823	-17,779	276,377	123,616
36,838	-17,586	276,031	123,633
37,853	-17,392	275,683	123,649
38,867	-17,730	275,609	123,286
39,882	-17,651	275,369	123,242
40,896	-17,463	275,103	123,289
41,911	-17,471	274,800	123,135
42,926	-17,488	274,659	123,045
43,940	-17,529	274,254	122,814
44,955	-17,649	274,165	122,651
45,969	-17,563	273,809	122,561
46,984	-17,484	273,674	122,563
47,999	-17,492	273,500	122,468
49,013	-17,360	273,160	122,427
50,028	-17,484	272,983	122,221
51,042	-17,329	272,873	122,306
52,057	-17,491	272,655	122,046
53,071	-17,548	272,361	121,851
54,086	-17,584	272,116	121,696
55,101	-17,442	271,869	121,707
56,115	-17,443	271,543	121,550
57,130	-17,463	271,430	121,470
58,144	-17,560	271,176	121,255
59,159	-17,602	270,950	121,104
60,174	-17,647	270,704	120,942
61,188	-17,511	270,374	120,909
62,203	-17,427	270,211	120,904
63,217	-17,449	270,003	120,779
64,232	-17,465	269,875	120,696
65,247	-17,308	269,463	120,646
66,261	-17,474	269,418	120,462
67,276	-17,496	269,103	120,290
68,290	-17,741	268,897	119,963
69,305	-17,271	268,599	120,250
70,320	-17,387	268,368	120,030
71,334	-17,617	268,245	119,753
72,349	-17,449	267,919	119,750
73,363	-17,516	267,687	119,575
74,378	-17,215	267,338	119,684
75,393	-17,346	267,290	119,532
76,407	-17,331	267,136	119,466
77,422	-17,481	266,804	119,171
78,436	-17,400	266,487	119,092
79,451	-17,471	266,444	118,997
80,466	-17,369	266,074	118,914
81,480	-17,488	265,837	118,689
82,495	-17,528	265,551	118,515
83,509	-17,465	265,529	118,552
84,524	-17,422	265,282	118,469
85,539	-17,399	265,158	118,424
86,553	-17,278	264,851	118,385
87,568	-17,591	264,769	118,056
88,582	-17,574	264,501	117,941
89,597	-17,518	264,071	117,789
90,611	-17,097	263,825	118,048
91,626	-17,466	263,859	117,721
92,641	-17,394	263,623	117,670
93,655	-17,533	263,433	117,450
94,670	-17,409	263,092	117,398
95,684	-17,585	262,984	117,182
96,699	-17,515	262,765	117,137
97,714	-17,385	262,666	117,199
98,728	-17,522	262,439	116,965
99,743	-17,420	262,188	116,933
100,757	-17,329	261,840	116,848
101,772	-17,524	261,876	116,680
102,787	-17,355	261,471	116,640
103,801	-17,424	261,393	116,533
104,816	-17,287	261,263	116,587
105,830	-17,272	261,056	116,497
106,845	-17,392	260,856	116,291
107,860	-17,261	260,623	116,293
108,874	-17,471	260,448	116,018
109,889	-17,191	260,118	116,108
110,903	-17,520	259,915	115,717
111,918	-17,404	259,710	115,718
112,933	-17,421	259,504	115,601
113,947	-17,371	259,269	115,530
114,962	-17,243	259,063	115,540
115,976	-17,412	258,948	115,330
116,991	-17,343	258,590	115,222
118,006	-17,451	258,515	115,082
119,020	-17,458	258,509	115,064
120,035	-17,333	258,318	115,078
121,049	-17,244	258,060	115,031
122,064	-17,459	257,876	114,750
123,079	-17,255	257,661	114,823
124,093	-17,402	257,333	114,538
125,108	-17,257	257,061	114,533
126,122	-17,210	257,068	114,568
127,137	-17,365	256,834	114,317
128,151	-17,278	256,622	114,289
129,166	-17,169	256,359	114,256
130,181	-17,275	256,187	114,077
131,195	-17,410	256,036	113,883
132,210	-17,357	255,705	113,771
133,224	-17,429	255,672	113,684
134,239	-17,416	255,460	113,591
135,254	-17,401	255,207	113,481
136,268	-17,280	255,119	113,537
137,283	-17,414	254,860	113,295
138,297	-17,289	254,588	113,272
139,312	-17,303	254,362	113,149
140,327	-17,265	254,295	113,142
141,341	-17,424	254,083	112,901
142,356	-17,310	253,788	112,858
143,370	-17,297	253,572	112,763
144,385	-17,380	253,406	112,608
145,400	-17,334	253,261	112,573
146,414	-17,292	253,180	112,563
147,429	-17,142	252,785	112,506
148,443	-17,160	252,681	112,434
149,458	-17,287	252,475	112,224
150,473	-17,221	252,365	112,221
151,487	-17,259	252,138	112,077
152,502	-17,392	252,085	111,931
153,516	-17,202	251,693	111,909
154,531	-17,217	251,649	111,866
155,546	-17,117	251,297	111,785
156,560	-17,234	251,073	111,576
157,575	-17,178	250,984	111,574
158,589	-17,052	250,661	111,527
159,604	-17,094	250,598	111,454
160,619	-17,141	250,419	111,324
161,633	-17,425	250,330	111,034
162,648	-17,355	250,250	111,048
163,662	-17,245	249,908	110,979
164,677	-17,147	249,794	111,001
165,692	-16,936	249,447	111,016
166,706	-17,348	249,428	110,649
167,721	-17,314	249,217	110,575
168,735	-17,211	249,208	110,648
169,750	-17,155	249,035	110,608
170,764	-17,068	248,824	110,578
171,779	-17,253	248,686	110,351
172,794	-17,325	248,454	110,178
173,808	-17,349	248,101	109,992
174,823	-17,215	247,963	110,033
175,837	-17,184	247,963	110,049
176,852	-17,221	247,779	109,926
177,867	-17,222	247,543	109,811
178,881	-17,153	247,484	109,833
179,896	-17,088	247,130	109,721
180,910	-17,214	247,015	109,555
181,925	-17,336	246,810	109,352
182,940	-17,273	246,686	109,340
183,954	-16,978	246,535	109,509
184,969	-17,118	246,361	109,305
185,983	-17,280	246,405	109,180
186,998	-17,164	246,098	109,131
188,013	-17,294	245,887	108,919
189,027	-17,307	245,680	108,808
190,042	-17,206	245,542	108,820
191,056	-17,212	245,431	108,756
192,071	-16,826	245,098	108,918
193,086	-17,123	245,065	108,648
194,100	-17,089	244,725	108,516
195,115	-17,195	244,645	108,384
196,129	-17,235	244,336	108,204
197,144	-17,225	244,278	108,177
198,159	-17,168	244,035	108,106
199,173	-17,122	243,881	108,067
200,188	-16,944	243,709	108,127
201,202	-17,022	243,481	107,953
202,217	-17,020	243,332	107,878
203,232	-17,038	243,068	107,737
204,246	-17,120	242,959	107,612
205,261	-16,742	242,920	107,894
206,275	-14,837	243,434	109,676
207,290	-11,302	244,860	113,225
208,304	-5,999	246,515	118,376
209,319	-3,196	247,287	121,062
210,334	-2,510	247,301	121,627
211,348	-1,832	247,389	122,221
212,363	-1,228	247,351	122,692
213,377	-0,978	247,450	122,938
214,392	-0,246	247,514	123,564
215,407	0,115	247,465	123,828
216,421	0,221	247,256	123,800
217,436	0,336	247,082	123,797
218,450	0,113	246,917	123,519
219,465	0,279	246,747	123,560
220,480	0,421	246,654	123,619
221,494	0,265	246,427	123,366
222,509	-0,013	246,312	123,068
223,523	-0,139	246,121	122,859
224,538	0,003	245,794	122,801
225,553	-0,126	245,785	122,680
226,567	-0,174	245,652	122,563
227,582	0,030	245,261	122,525
228,596	-0,143	245,272	122,377
229,611	0,022	244,933	122,332
230,626	-0,058	244,825	122,202
231,640	-0,272	244,747	121,976
232,655	-0,326	244,476	121,787
233,669	-0,197	244,409	121,848
234,684	-0,332	244,164	121,605
235,699	-0,175	244,017	121,649
236,713	-0,015	243,840	121,680
237,728	-0,023	243,674	121,580
238,742	-0,283	243,595	121,318
239,757	-0,043	243,352	121,381
240,772	0,126	243,205	121,434
241,786	-0,391	243,098	120,950
242,801	-0,195	242,865	120,983
243,815	-0,084	242,769	121,014
244,830	-0,216	242,680	120,852
245,844	0,125	242,371	120,962
246,859	-0,435	242,279	120,453
247,874	-0,121	242,109	120,612
248,888	-0,332	241,940	120,347
249,903	-0,237	241,855	120,370
250,917	-0,256	241,659	120,246
251,932	-0,016	241,587	120,393
252,947	-0,182	241,410	120,161
253,961	0,154	241,075	120,254
254,976	-0,157	241,070	119,990
255,990	-0,088	240,816	119,909
257,005	-0,026	240,797	119,938
258,020	-0,337	240,696	119,627
259,034	-0,195	240,425	119,596
260,049	-0,144	240,388	119,608
261,063	-0,091	240,126	119,510
262,078	-0,167	239,962	119,356
263,093	-0,042	239,733	119,332
264,107	-0,160	239,550	119,136
265,122	-0,093	239,489	119,148
266,136	-0,080	239,389	119,098
267,151	0,004	239,130	119,025
268,166	-0,200	239,029	118,802
269,180	-0,230	238,747	118,627
270,195	-0,089	238,553	118,633
271,209	-0,036	238,633	118,704
272,224	0,019	238,357	118,600
273,239	-0,384	238,375	118,278
274,253	-0,052	238,088	118,388
275,268	-0,140	237,974	118,252
276,282	-0,165	237,904	118,186
277,297	0,055	237,616	118,207
278,312	-0,204	237,488	117,928
279,326	0,026	237,366	118,038
280,341	-0,321	237,401	117,771
281,355	0,011	237,054	117,851
282,370	0,024	236,907	117,777
283,384	0,070	236,753	117,727
284,399	-0,425	236,783	117,341
285,414	-0,071	236,452	117,445
286,428	-0,120	236,301	117,321
287,443	0,137	236,159	117,442
288,457	0,031	235,981	117,259
289,472	0,071	235,773	117,177
290,487	0,168	235,713	117,213
291,501	-0,214	235,619	116,856
292,516	0,300	235,329	117,104
293,530	-0,041	235,326	116,825
294,545	-0,150	235,136	116,635
295,560	0,103	234,982	116,747
296,574	0,169	234,747	116,671
297,589	0,134	234,757	116,638
298,603	-0,098	234,655	116,396
299,618	0,132	234,394	116,435
300,633	0,088	234,299	116,343
301,647	0,203	234,275	116,410
302,662	0,221	233,980	116,268
303,676	0,055	233,848	116,062
304,691	0,315	233,714	116,188
305,706	0,140	233,521	115,945
306,720	0,274	233,310	115,934
307,735	0,154	233,202	115,777
308,749	0,236	233,093	115,776
309,764	0,233	232,954	115,695
310,779	0,205	232,718	115,546
311,793	0,022	232,536	115,303
312,808	0,095	232,543	115,354
313,822	0,077	232,289	115,203
314,837	0,223	232,181	115,252
315,852	0,394	232,026	115,296
316,866	0,343	231,771	115,119
317,881	0,093	231,634	114,849
318,895	0,074	231,566	114,791
319,910	0,176	231,491	114,822
320,925	0,213	231,313	114,752
321,939	0,266	231,030	114,641
322,954	0,347	230,834	114,596
323,968	0,401	230,888	114,654
324,983	0,074	230,768	114,334
325,997	0,256	230,542	114,351
327,012	0,177	230,384	114,202
328,027	0,381	230,265	114,288
329,041	0,280	230,041	114,090
330,056	0,346	229,939	114,079
331,070	0,329	229,965	114,070
332,085	0,199	229,742	113,850
333,100	0,259	229,469	113,750
334,114	0,460	229,201	113,760
335,129	0,129	229,295	113,544
336,143	0,332	229,112	113,598
337,158	0,254	228,952	113,449
338,173	0,468	228,798	113,525
339,187	0,491	228,615	113,441
340,202	0,458	228,443	113,321
341,216	0,401	228,374	113,234
342,231	0,339	228,187	113,084
343,246	0,515	228,043	113,135
344,260	0,358	228,144	113,057
345,275	0,363	227,846	112,903
346,289	0,416	227,738	112,879
347,304	0,309	227,566	112,704
348,319	0,414	227,400	112,690
349,333	0,432	227,221	112,605
350,348	0,542	226,906	112,521
351,362	0,623	226,883	112,560
352,377	0,560	226,740	112,432
353,392	0,608	226,666	112,421
354,406	0,562	226,535	112,313
355,421	193,442	1310,966	1381,226
356,435	155,045	1442,955	1381,092
