DTS Sentinel unit serial number:	SN410029Multiplexer serial number:	ORYXHardware model number:	OX2-SRSoftware version number:	ORYX F/W v4,00 Oryx Data Collector v3.7.2.0data status	okinstallation	B5 Nyhavnadifferential loss correction	single-endedforward channel	channel 2reverse channel	N/Adate	2023/12/14time	15:57:13forward acquisition time	300,00reverse acquisition time	0,00gamma	499,1914k internal	0,3157k external	0,3157temperature offset calibration	1,0000default loss term (dB/km)	0,3820temperature slope calibration	1,0000multiplexer offset coefficient	1,0000multiplexer slope coefficient	1,0000fibre end	0,00T internal ref (°C)	7,90T ext. ref 1 (°C)	-7,92T ext. ref 2 (°C)	-7,96length (m)	temperature (°C)	Stokes	anti-Stokes-744,400	142,009	0,116	0,113
-743,385	-67,994	-0,456	-0,130
-742,371	-129,575	0,185	-0,019
-741,356	-140,985	-0,350	-0,026
-740,342	800,000	0,131	0,268
-739,327	-153,723	-0,409	0,020
-738,312	-200,000	0,044	0,223
-737,298	-76,517	-0,337	-0,087
-736,283	-68,915	0,228	0,064
-735,269	-200,000	-0,329	-0,001
-734,254	82,471	0,099	0,079
-733,239	86,782	-0,439	-0,357
-732,225	83,597	0,177	0,142
-731,210	235,542	-0,013	-0,015
-730,196	497,995	-0,063	-0,107
-729,181	25,047	0,041	0,025
-728,167	-200,000	0,041	-0,227
-727,152	-200,000	-0,009	0,041
-726,137	202,480	0,034	-0,039
-725,123	-113,470	-0,130	0,019
-724,108	-200,000	0,012	-0,211
-723,094	51,533	-0,207	-0,145
-722,079	-200,000	-0,005	-0,099
-721,064	-200,000	-0,025	-0,169
-720,050	8,906	-0,139	0,077
-719,035	-59,462	-0,095	-0,030
-718,021	800,000	-0,030	-0,065
-717,006	-200,000	0,003	0,042
-715,991	-168,790	-0,031	-0,001
-714,977	800,000	0,022	-0,061
-713,962	-83,300	-0,054	0,013
-712,948	-82,502	0,093	-0,022
-711,933	-200,000	-0,000	-0,038
-710,918	-112,863	0,113	0,016
-709,904	-200,000	0,027	-0,156
-708,889	800,000	-0,050	-0,108
-707,875	152,067	-0,080	0,080
-706,860	-200,000	-0,002	-0,076
-705,845	533,908	0,024	0,042
-704,831	-14,250	0,091	0,043
-703,816	115,695	-0,021	0,019
-702,802	-200,000	0,003	0,079
-701,787	428,107	-0,047	-0,075
-700,772	800,000	-0,023	-0,071
-699,758	46,850	-0,010	-0,007
-698,743	-58,397	0,074	0,023
-697,729	800,000	-0,027	0,059
-696,714	-110,144	-0,113	0,017
-695,699	-200,000	-0,023	0,091
-694,685	-38,922	0,034	0,013
-693,670	-200,000	0,016	-0,089
-692,656	-96,777	-0,112	0,021
-691,641	800,000	-0,085	-0,184
-690,627	-117,129	-0,050	0,007
-689,612	-200,000	-0,003	-0,013
-688,597	800,000	0,024	-0,051
-687,583	184,833	-0,082	-0,090
-686,568	141,691	-0,062	-0,060
-685,554	117,374	-0,204	-0,184
-684,539	-88,823	0,101	0,022
-683,524	-125,279	-0,115	0,013
-682,510	178,680	0,042	0,045
-681,495	-129,087	-0,052	-0,005
-680,481	-128,867	0,107	-0,011
-679,466	98,713	-0,152	-0,129
-678,451	737,700	-0,052	-0,102
-677,437	323,446	0,075	-0,105
-676,422	-10,971	-0,126	-0,061
-675,408	773,921	-0,050	0,100
-674,393	800,000	-0,096	0,209
-673,378	381,616	-0,037	-0,056
-672,364	-48,093	-0,100	0,035
-671,349	-123,965	-0,110	-0,013
-670,335	-73,338	-0,078	-0,021
-669,320	800,000	-0,040	-0,105
-668,305	-143,051	0,032	0,002
-667,291	768,663	-0,051	-0,103
-666,276	108,883	-0,077	-0,067
-665,262	226,218	-0,011	-0,013
-664,247	-200,000	-0,003	-0,203
-663,232	-200,000	0,007	-0,128
-662,218	531,300	0,072	0,125
-661,203	-103,208	0,085	-0,015
-660,189	16,008	-0,090	0,052
-659,174	800,000	0,027	-0,067
-658,159	-96,117	-0,112	-0,022
-657,145	-200,000	0,003	0,042
-656,130	-200,000	0,015	0,128
-655,116	-200,000	-0,020	-0,188
-654,101	800,000	-0,041	-0,104
-653,086	-70,307	0,029	-0,008
-652,072	-95,990	-0,126	0,024
-651,057	-43,532	-0,142	-0,052
-650,043	253,404	-0,050	-0,062
-649,028	800,000	-0,013	-0,036
-648,014	80,298	0,006	0,004
-646,999	-200,000	-0,042	0,194
-645,984	252,947	-0,010	0,013
-644,970	136,434	-0,105	0,101
-643,955	800,000	-0,010	0,028
-642,941	-200,000	0,005	-0,069
-641,926	211,104	-0,066	-0,076
-640,911	314,989	0,039	0,055
-639,897	73,015	-0,049	0,038
-638,882	-200,000	-0,019	-0,103
-637,868	-30,844	-0,191	-0,079
-636,853	-200,000	0,029	-0,115
-635,838	634,149	0,032	-0,060
-634,824	-53,877	0,066	-0,022
-633,809	-117,528	-0,027	-0,003
-632,795	-200,000	0,018	0,083
-631,780	800,000	-0,053	0,117
-630,765	-43,960	-0,161	-0,059
-629,751	176,557	-0,070	0,075
-628,736	-10,773	-0,111	-0,054
-627,722	71,364	0,037	0,028
-626,707	174,271	0,037	-0,039
-625,692	360,107	0,051	0,075
-624,678	-200,000	-0,001	0,046
-623,663	800,000	0,023	-0,072
-622,649	-200,000	0,010	-0,038
-621,634	590,889	-0,066	-0,121
-620,619	345,354	-0,040	0,057
-619,605	800,000	0,058	0,130
-618,590	-53,060	0,146	0,049
-617,576	-200,000	0,002	-0,061
-616,561	191,496	-0,083	0,092
-615,546	124,430	0,038	-0,035
-614,532	-142,757	0,089	-0,006
-613,517	-200,000	0,030	-0,103
-612,503	87,132	-0,098	-0,080
-611,488	-43,107	0,096	0,036
-610,474	174,403	-0,045	0,048
-609,459	-131,457	0,137	-0,013
-608,444	3,598	-0,138	0,073
-607,430	800,000	-0,039	-0,116
-606,415	-88,561	-0,130	0,028
-605,401	-200,000	-0,009	-0,085
-604,386	518,960	0,002	0,003
-603,371	75,935	-0,031	-0,024
-602,357	800,000	-0,020	-0,042
-601,342	-30,075	0,100	-0,042
-600,328	174,285	-0,058	0,062
-599,313	251,626	0,053	-0,066
-598,298	36,717	0,012	-0,008
-597,284	-138,972	-0,093	-0,007
-596,269	800,000	0,058	-0,132
-595,255	800,000	0,073	0,170
-594,240	800,000	0,022	-0,061
-593,225	3,584	-0,058	-0,031
-592,211	47,757	-0,058	0,040
-591,196	800,000	-0,092	-0,215
-590,182	236,308	0,057	-0,069
-589,167	27,178	-0,060	0,037
-588,152	800,000	0,061	-0,157
-587,138	-200,000	-0,019	-0,107
-586,123	-4,925	-0,102	0,051
-585,109	-17,928	-0,099	-0,045
-584,094	-200,000	0,023	-0,147
-583,079	-200,000	0,003	0,058
-582,065	-9,838	-0,134	0,065
-581,050	-200,000	-0,022	-0,087
-580,036	-46,378	0,108	-0,039
-579,021	-15,021	-0,096	0,045
-578,006	4,630	-0,070	0,037
-576,992	-200,000	0,016	0,296
-575,977	222,867	-0,034	-0,040
-574,963	-200,000	0,019	0,116
-573,948	-200,000	-0,008	0,096
-572,934	-147,649	-0,171	0,010
-571,919	800,000	-0,018	-0,041
-570,904	599,902	0,040	-0,073
-569,890	-15,023	-0,005	-0,002
-568,875	-88,809	-0,101	-0,022
-567,861	24,766	0,166	-0,101
-566,846	168,046	0,085	-0,089
-565,831	-19,589	0,102	0,046
-564,817	276,583	-0,103	-0,134
-563,802	257,085	-0,031	0,038
-562,788	-97,916	-0,084	-0,016
-561,773	-92,395	0,079	-0,016
-560,758	232,736	0,137	0,165
-559,744	-200,000	0,138	0,000
-558,729	-200,000	0,003	-0,074
-557,715	-200,000	-0,036	-0,131
-556,700	232,671	0,036	-0,043
-555,685	-200,000	-0,002	0,052
-554,671	-200,000	0,027	0,142
-553,656	-200,000	0,020	0,075
-552,642	-80,013	0,059	0,014
-551,627	-75,275	-0,074	0,019
-550,612	800,000	-0,027	-0,060
-549,598	10,657	-0,166	-0,092
-548,583	-147,511	-0,081	0,005
-547,569	-25,481	0,057	-0,024
-546,554	-158,970	0,068	0,003
-545,539	0,887	0,110	0,057
-544,525	167,557	-0,143	-0,149
-543,510	-55,881	-0,034	-0,011
-542,496	800,000	-0,038	-0,087
-541,481	800,000	-0,087	-0,180
-540,466	-200,000	-0,011	-0,111
-539,452	317,176	0,028	0,039
-538,437	136,118	0,051	0,049
-537,423	-73,949	0,005	0,001
-536,408	-144,457	-0,104	-0,007
-535,393	800,000	0,010	-0,026
-534,379	-57,056	-0,189	-0,061
-533,364	800,000	-0,045	-0,099
-532,350	96,995	0,077	0,064
-531,335	-120,328	-0,124	-0,015
-530,321	221,710	0,090	0,106
-529,306	69,963	0,054	0,041
-528,291	-125,613	-0,065	-0,007
-527,277	183,223	-0,109	-0,118
-526,262	-200,000	-0,016	-0,093
-525,248	800,000	0,066	-0,147
-524,233	538,995	-0,068	0,118
-523,218	-200,000	-0,003	0,099
-522,204	-200,000	-0,020	0,187
-521,189	330,620	-0,100	-0,141
-520,175	-68,082	-0,065	-0,018
-519,160	-130,041	-0,011	0,001
-518,145	107,370	0,100	0,087
-517,131	-17,170	0,115	0,053
-516,116	81,168	-0,091	0,072
-515,102	16,090	0,111	0,064
-514,087	42,455	-0,067	0,044
-513,072	36,325	-0,039	0,025
-512,058	-97,556	0,115	-0,022
-511,043	800,000	0,043	-0,121
-510,029	800,000	-0,040	0,110
-509,014	-90,852	0,179	0,037
-507,999	800,000	0,025	0,057
-506,985	49,626	0,072	0,049
-505,970	800,000	0,049	-0,148
-504,956	572,531	0,042	-0,076
-503,941	386,649	0,048	0,072
-502,926	89,043	0,023	-0,019
-501,912	-137,777	0,070	0,006
-500,897	-200,000	0,006	0,046
-499,883	-131,371	-0,031	-0,003
-498,868	-9,864	-0,171	-0,083
-497,853	-96,000	0,073	0,014
-496,839	-177,220	0,044	0,001
-495,824	-169,282	0,109	0,003
-494,810	406,250	0,060	0,093
-493,795	29,881	0,106	-0,066
-492,781	-93,777	-0,126	0,025
-491,766	-68,323	0,103	0,029
-490,751	-71,625	-0,127	-0,034
-489,737	175,353	-0,118	-0,125
-488,722	129,274	0,046	-0,043
-487,708	800,000	0,089	0,204
-486,693	-200,000	-0,047	-0,191
-485,678	-125,740	-0,107	-0,012
-484,664	191,114	-0,108	0,119
-483,649	333,465	0,033	0,046
-482,635	-85,425	0,038	0,009
-481,620	-117,497	-0,065	-0,008
-480,605	-73,639	0,104	-0,027
-479,591	232,184	-0,102	0,122
-478,576	-137,145	-0,105	-0,009
-477,562	-136,291	-0,107	-0,009
-476,547	-87,175	0,108	0,024
-475,532	219,539	-0,075	-0,088
-474,518	-200,000	-0,029	0,122
-473,503	-47,764	0,032	0,011
-472,489	-200,000	0,028	0,102
-471,474	-200,000	0,015	0,189
-470,459	127,210	-0,053	0,049
-469,445	-200,000	-0,001	0,086
-468,430	-100,800	0,032	0,006
-467,416	99,756	0,069	-0,058
-466,401	800,000	-0,028	0,073
-465,386	-200,000	0,026	-0,096
-464,372	-164,386	-0,077	0,003
-463,357	260,672	0,054	0,069
-462,343	-200,000	-0,024	-0,078
-461,328	-200,000	-0,012	-0,111
-460,313	776,257	0,020	0,040
-459,299	18,013	0,063	0,036
-458,284	-200,000	0,006	0,073
-457,270	247,194	0,072	-0,089
-456,255	-200,000	-0,026	-0,240
-455,241	741,048	0,056	-0,110
-454,226	-147,983	-0,046	0,003
-453,211	172,251	-0,078	-0,082
-452,197	-76,252	0,183	0,047
-451,182	35,676	-0,058	0,037
-450,168	-54,046	0,160	0,053
-449,153	271,882	-0,096	0,123
-448,138	-200,000	0,006	-0,029
-447,124	616,944	0,063	-0,115
-446,109	5,974	-0,096	-0,052
-445,095	-200,000	-0,014	0,159
-444,080	-73,132	0,112	0,030
-443,065	-116,964	-0,091	-0,012
-442,051	-68,984	-0,086	-0,024
-441,036	220,631	0,034	0,040
-440,022	800,000	-0,035	-0,086
-439,007	-111,617	0,046	0,007
-437,992	148,148	0,104	-0,102
-436,978	-34,481	0,137	-0,054
-435,963	18,421	0,033	-0,019
-434,949	-200,000	0,009	0,055
-433,934	-48,688	0,020	0,007
-432,919	654,182	-0,076	0,143
-431,905	800,000	-0,032	-0,069
-430,890	617,280	0,033	0,061
-429,876	17,010	-0,156	0,090
-428,861	-200,000	-0,004	0,079
-427,846	800,000	0,030	-0,094
-426,832	800,000	0,039	0,090
-425,817	-86,198	0,120	-0,027
-424,803	-43,286	0,064	0,023
-423,788	-72,911	-0,055	0,015
-422,773	-200,000	-0,013	0,060
-421,759	-65,304	0,107	-0,031
-420,744	800,000	0,023	-0,050
-419,730	52,356	0,102	-0,071
-418,715	308,090	0,015	-0,021
-417,701	-21,508	0,017	0,007
-416,686	65,966	-0,056	0,041
-415,671	-167,746	0,072	-0,002
-414,657	-8,722	0,057	0,028
-413,642	-200,000	0,014	-0,058
-412,628	-53,749	0,135	0,045
-411,613	-49,519	0,120	0,041
-410,598	-200,000	-0,013	-0,065
-409,584	-90,642	-0,014	0,003
-408,569	800,000	0,043	-0,129
-407,555	-130,221	0,022	-0,002
-406,540	-200,000	0,008	0,103
-405,525	800,000	0,024	0,069
-404,511	136,228	-0,053	0,050
-403,496	339,140	-0,085	-0,120
-402,482	-145,550	0,088	-0,006
-401,467	-53,932	0,159	0,052
-400,452	384,718	-0,042	-0,063
-399,438	-200,000	-0,021	-0,116
-398,423	199,505	0,089	0,099
-397,409	800,000	-0,030	0,068
-396,394	1,123	-0,043	-0,022
-395,379	161,027	0,080	0,081
-394,365	378,431	0,036	-0,053
-393,350	-3,414	-0,081	0,041
-392,336	800,000	0,063	0,152
-391,321	65,671	-0,062	0,046
-390,306	-83,937	0,031	0,007
-389,292	136,492	-0,022	0,021
-388,277	9,544	-0,065	0,035
-387,263	800,000	0,043	0,104
-386,248	168,397	0,143	0,148
-385,233	88,545	-0,058	-0,047
-384,219	3,690	-0,166	-0,088
-383,204	94,785	0,076	0,062
-382,190	796,059	-0,058	0,116
-381,175	3,167	0,050	0,026
-380,160	-34,334	0,127	-0,050
-379,146	-88,480	0,045	0,010
-378,131	-200,000	0,006	-0,037
-377,117	-29,298	-0,185	0,077
-376,102	15,483	-0,065	0,037
-375,088	-40,345	-0,130	0,049
-374,073	800,000	-0,049	-0,146
-373,058	-8,514	0,145	0,070
-372,044	157,518	-0,083	0,083
-371,029	-133,544	0,061	-0,005
-370,015	143,448	0,053	0,052
-369,000	-50,738	-0,076	0,026
-367,985	-200,000	0,002	-0,008
-366,971	-200,000	0,010	-0,041
-365,956	-74,659	0,075	0,020
-364,942	-36,387	0,153	0,059
-363,927	21,071	0,093	0,055
-362,912	-21,980	0,084	0,037
-361,898	323,489	-0,066	-0,092
-360,883	-178,379	-0,132	0,002
-359,869	-148,107	-0,050	0,003
-358,854	239,744	-0,024	-0,029
-357,839	46,637	0,133	0,089
-356,825	445,127	-0,062	0,100
-355,810	800,000	-0,034	-0,105
-354,796	-200,000	0,023	-0,170
-353,781	-5,414	-0,015	-0,007
-352,766	800,000	0,032	0,077
-351,752	33,395	0,062	-0,039
-350,737	800,000	0,018	0,037
-349,723	156,582	0,092	-0,092
-348,708	800,000	0,001	0,004
-347,693	70,105	0,046	-0,034
-346,679	-81,895	-0,041	0,010
-345,664	-95,509	-0,123	0,024
-344,650	706,403	0,020	0,039
-343,635	-144,938	0,182	-0,012
-342,620	58,793	0,081	-0,057
-341,606	-200,000	0,007	0,161
-340,591	800,000	0,041	0,092
-339,577	-92,761	-0,143	0,029
-338,562	-187,583	0,147	-0,001
-337,548	71,641	0,084	0,064
-336,533	-200,000	0,005	0,034
-335,518	75,777	0,078	0,060
-334,504	156,191	-0,020	-0,020
-333,489	183,329	0,029	-0,031
-332,475	100,966	0,102	0,086
-331,460	-200,000	0,006	-0,080
-330,445	150,374	-0,013	-0,013
-329,431	-200,000	0,002	0,081
-328,416	-200,000	-0,009	-0,032
-327,402	5,842	0,059	-0,031
-326,387	214,261	0,085	0,098
-325,372	800,000	-0,039	0,097
-324,358	-66,370	-0,113	0,032
-323,343	4,297	-0,069	0,036
-322,329	-161,216	-0,052	-0,002
-321,314	-200,000	-0,002	0,078
-320,299	-200,000	-0,006	0,094
-319,285	800,000	0,033	-0,089
-318,270	-134,556	-0,068	-0,006
-317,256	219,587	0,072	-0,083
-316,241	425,689	-0,114	-0,179
-315,226	23,511	-0,092	-0,054
-314,212	800,000	0,020	0,051
-313,197	-158,779	0,070	-0,003
-312,183	800,000	0,007	0,018
-311,168	800,000	0,033	-0,104
-310,153	-35,040	0,036	-0,014
-309,139	119,839	-0,027	-0,024
-308,124	-78,624	0,042	-0,010
-307,110	644,629	-0,027	0,050
-306,095	6,018	0,133	-0,071
-305,080	-200,000	-0,064	-0,227
-304,066	342,417	0,111	-0,158
-303,051	-200,000	0,003	-0,100
-302,037	-200,000	-0,008	-0,037
-301,022	-98,739	-0,120	-0,022
-300,008	-42,912	0,030	0,011
-298,993	-74,181	0,013	-0,003
-297,978	410,396	0,082	0,127
-296,964	159,753	-0,086	-0,087
-295,949	-200,000	-0,021	-0,125
-294,935	473,321	-0,098	-0,161
-293,920	-80,684	-0,120	-0,029
-292,905	-200,000	-0,019	0,091
-291,891	264,915	0,086	0,109
-290,876	-200,000	0,004	0,032
-289,862	111,984	0,069	0,061
-288,847	800,000	-0,046	-0,109
-287,832	14,725	-0,017	-0,009
-286,818	800,000	0,049	0,138
-285,803	-25,849	-0,094	-0,040
-284,789	-148,531	-0,097	-0,006
-283,774	-23,181	0,053	0,023
-282,759	-102,980	0,054	-0,009
-281,745	786,101	-0,030	-0,060
-280,730	800,000	0,017	-0,043
-279,716	207,369	-0,075	-0,085
-278,701	23,226	0,048	-0,028
-277,686	120,440	-0,080	0,072
-276,672	152,125	-0,085	-0,084
-275,657	40,304	0,146	-0,095
-274,643	-200,000	-0,006	-0,110
-273,628	771,839	-0,019	-0,038
-272,613	-200,000	0,029	-0,134
-271,599	-200,000	-0,008	0,090
-270,584	116,088	0,024	-0,021
-269,570	33,737	0,045	-0,028
-268,555	-200,000	-0,002	-0,041
-267,540	800,000	-0,030	-0,070
-266,526	800,000	-0,033	-0,073
-265,511	-200,000	0,005	-0,020
-264,497	-200,000	-0,012	-0,062
-263,482	138,265	0,142	0,135
-262,467	-200,000	0,023	0,104
-261,453	-200,000	-0,002	-0,093
-260,438	-22,555	0,053	-0,023
-259,424	93,334	-0,120	0,098
-258,409	236,061	0,037	0,044
-257,395	-200,000	-0,006	0,064
-256,380	223,491	0,043	0,050
-255,365	-133,382	-0,147	-0,013
-254,351	-81,180	0,057	-0,014
-253,336	90,555	0,036	-0,029
-252,322	363,003	-0,051	-0,075
-251,307	-120,857	0,095	-0,011
-250,292	-200,000	0,009	-0,049
-249,278	387,448	-0,013	0,020
-248,263	-117,677	0,179	0,023
-247,249	68,268	0,071	-0,052
-246,234	-176,921	-0,131	0,002
-245,219	-200,000	-0,001	-0,123
-244,205	800,000	-0,070	0,221
-243,190	-200,000	-0,049	0,163
-242,176	800,000	-0,011	-0,028
-241,161	800,000	0,055	0,153
-240,146	463,198	0,051	0,083
-239,132	800,000	0,055	0,147
-238,117	99,574	-0,027	0,023
-237,103	45,534	0,058	0,039
-236,088	-139,973	0,142	0,011
-235,073	-83,489	-0,075	0,017
-234,059	-133,653	0,065	0,006
-233,044	-200,000	-0,001	-0,087
-232,030	60,502	-0,164	0,117
-231,015	-200,000	-0,015	0,050
-230,000	-200,000	-0,016	-0,143
-228,986	-122,510	-0,098	-0,011
-227,971	33,998	-0,052	-0,033
-226,957	800,000	-0,061	0,136
-225,942	800,000	0,050	0,124
-224,927	-102,863	-0,125	0,021
-223,913	800,000	-0,051	-0,122
-222,898	-54,790	-0,144	-0,047
-221,884	21,884	0,120	-0,070
-220,869	-176,619	0,100	-0,002
-219,855	141,639	0,045	0,043
-218,840	-57,908	0,146	0,046
-217,825	-76,589	-0,080	-0,020
-216,811	-57,660	-0,052	-0,016
-215,796	-200,000	-0,009	-0,058
-214,782	-114,804	-0,077	-0,011
-213,767	-200,000	-0,059	0,191
-212,752	-200,000	-0,006	0,023
-211,738	-200,000	0,018	0,066
-210,723	-200,000	0,000	-0,121
-209,709	207,234	-0,042	0,047
-208,694	17,308	-0,096	0,055
-207,679	-200,000	-0,002	0,070
-206,665	706,561	-0,023	0,043
-205,650	-55,547	0,120	0,039
-204,636	-107,765	-0,054	0,008
-203,621	800,000	0,009	0,021
-202,606	800,000	-0,034	-0,073
-201,592	800,000	0,056	-0,127
-200,577	800,000	0,017	-0,035
-199,563	279,253	-0,071	0,091
-198,548	-7,807	-0,067	-0,033
-197,533	367,582	0,025	-0,037
-196,519	-115,620	0,096	-0,013
-195,504	734,746	0,050	-0,096
-194,490	306,262	-0,065	-0,088
-193,475	-193,724	0,115	-0,001
-192,460	29,761	-0,054	-0,033
-191,446	300,976	0,034	-0,045
-190,431	-200,000	0,001	0,090
-189,417	-43,795	-0,064	0,023
-188,402	-46,880	0,070	0,025
-187,387	-200,000	-0,013	-0,069
-186,373	-200,000	0,022	0,071
-185,358	800,000	0,026	-0,079
-184,344	-3,036	-0,058	0,029
-183,329	800,000	0,043	0,109
-182,315	-30,121	-0,052	0,021
-181,300	-76,242	-0,127	0,032
-180,285	581,014	-0,041	0,073
-179,271	89,796	0,038	0,030
-178,256	82,889	-0,104	-0,082
-177,242	216,702	-0,101	-0,116
-176,227	-64,042	0,177	0,052
-175,212	95,411	0,077	0,063
-174,198	-162,493	-0,109	0,004
-173,183	29,018	-0,051	-0,031
-172,169	364,577	-0,049	-0,072
-171,154	-118,549	-0,151	0,019
-170,139	493,974	0,072	0,119
-169,125	13,015	0,062	0,035
-168,110	424,517	0,059	-0,093
-167,096	168,258	0,110	-0,113
-166,081	335,961	-0,040	-0,057
-165,066	765,808	-0,018	0,036
-164,052	2,558	-0,087	0,045
-163,037	274,199	0,096	-0,122
-162,023	-14,698	0,075	-0,035
-161,008	800,000	0,048	-0,135
-159,993	800,000	0,057	0,138
-158,979	800,000	0,012	0,031
-157,964	800,000	0,045	-0,103
-156,950	-195,184	-0,075	0,000
-155,935	161,167	-0,085	-0,086
-154,920	220,425	-0,033	0,038
-153,906	-200,000	-0,003	0,191
-152,891	118,938	-0,100	0,089
-151,877	-200,000	-0,034	0,137
-150,862	17,979	0,073	0,042
-149,847	-200,000	0,026	-0,083
-148,833	193,314	0,041	-0,045
-147,818	-7,960	0,113	0,055
-146,804	15,057	0,028	-0,016
-145,789	460,750	-0,036	0,058
-144,775	478,603	0,037	0,061
-143,760	285,854	-0,047	0,062
-142,745	148,509	-0,090	-0,088
-141,731	-200,000	0,006	-0,029
-140,716	-77,536	0,083	0,021
-139,702	-200,000	-0,011	0,090
-138,687	-38,792	0,010	-0,004
-137,672	800,000	-0,028	-0,078
-136,658	-200,000	0,010	-0,072
-135,643	800,000	0,040	0,091
-134,629	74,612	-0,113	-0,086
-133,614	14,986	0,037	-0,021
-132,599	133,529	-0,126	0,117
-131,585	223,671	0,042	-0,049
-130,570	18,022	-0,046	0,026
-129,556	138,342	0,098	0,093
-128,541	-200,000	0,018	-0,058
-127,526	800,000	-0,055	-0,124
-126,512	-200,000	-0,003	-0,131
-125,497	800,000	0,075	-0,193
-124,483	30,977	0,097	0,060
-123,468	-81,299	-0,015	-0,004
-122,453	-200,000	-0,019	-0,137
-121,439	528,832	-0,040	-0,069
-120,424	-126,534	-0,040	0,004
-119,410	18,189	0,108	-0,062
-118,395	29,841	-0,054	0,033
-117,380	-109,252	0,161	0,024
-116,366	800,000	-0,024	-0,050
-115,351	-200,000	-0,006	0,085
-114,337	-27,125	-0,111	-0,046
-113,322	182,221	-0,036	-0,038
-112,307	-61,860	0,076	-0,023
-111,293	175,548	-0,082	-0,085
-110,278	31,890	-0,034	0,021
-109,264	31,616	0,046	0,028
-108,249	-111,851	0,102	0,015
-107,234	78,851	0,062	-0,048
-106,220	191,085	-0,046	0,049
-105,205	101,405	0,020	0,017
-104,191	33,320	0,087	0,054
-103,176	175,954	0,052	0,055
-102,162	-66,834	-0,155	-0,044
-101,147	-200,000	0,040	0,154
-100,132	-109,704	-0,194	0,029
-99,118	238,545	-0,098	0,117
-98,103	-149,509	0,183	0,010
-97,089	299,968	0,056	0,074
-96,074	-151,679	-0,028	0,001
-95,059	-200,000	0,003	0,164
-94,045	62,605	-0,073	-0,052
-93,030	270,108	-0,049	0,062
-92,016	-200,000	0,010	0,107
-91,001	-200,000	-0,002	-0,086
-89,986	-110,420	0,118	-0,017
-88,972	-153,478	0,008	-0,000
-87,957	108,891	-0,119	0,102
-86,943	27,406	0,058	-0,035
-85,928	-70,514	-0,148	0,040
-84,913	-95,217	-0,049	0,009
-83,899	19,635	0,110	0,064
-82,884	302,445	0,044	-0,058
-81,870	220,495	0,023	0,027
-80,855	-134,919	0,136	0,012
-79,840	-64,763	0,084	-0,024
-78,826	-200,000	0,018	-0,119
-77,811	643,437	-0,015	-0,027
-76,797	-200,000	-0,010	0,061
-75,782	-200,000	-0,008	0,056
-74,767	117,305	0,063	0,056
-73,753	-200,000	0,015	0,165
-72,738	90,766	0,053	0,043
-71,724	-200,000	-0,001	-0,099
-70,709	800,000	0,004	-0,009
-69,694	800,000	0,051	0,161
-68,680	-32,827	-0,086	0,034
-67,665	-162,566	0,119	-0,004
-66,651	116,984	-0,084	0,074
-65,636	554,476	0,055	0,095
-64,622	-200,000	0,014	-0,134
-63,607	-200,000	0,018	0,092
-62,592	13,998	-0,151	0,084
-61,578	83,072	-0,049	0,038
-60,563	-72,637	0,127	-0,033
-59,549	101,805	-0,073	0,061
-58,534	87,777	-2,597	-2,064
-57,519	54,345	0,307	-0,212
-56,505	800,000	-1,752	-5,458
-55,490	535,552	1,232	2,105
-54,476	800,000	5,151	11,187
-53,461	-200,000	22,210	347,139
-52,446	800,000	760,502	2292,539
-51,432	512,981	1645,162	2762,479
-50,417	97,001	1608,414	1322,969
-49,403	64,825	1265,398	915,382
-48,388	22,909	1017,251	596,993
-47,373	19,398	984,389	566,112
-46,359	12,801	971,485	537,103
-45,344	8,546	968,300	521,391
-44,330	9,066	966,130	521,902
-43,315	7,991	964,533	517,507
-42,300	7,990	963,309	516,825
-41,286	7,994	962,278	516,266
-40,271	7,939	961,351	515,568
-39,257	7,908	960,450	514,964
-38,242	7,936	959,506	514,527
-37,227	7,929	958,834	514,126
-36,213	7,912	957,903	513,549
-35,198	7,933	957,013	513,121
-34,184	7,970	956,306	512,842
-33,169	7,945	955,214	512,155
-32,154	7,933	954,510	511,716
-31,140	7,975	953,594	511,342
-30,125	7,992	952,874	510,991
-29,111	7,970	952,061	510,464
-28,096	7,952	951,476	510,073
-27,082	7,935	950,827	509,650
-26,067	7,937	950,094	509,243
-25,052	7,930	949,212	508,727
-24,038	7,889	948,437	508,159
-23,023	7,894	947,923	507,880
-22,009	7,937	947,260	507,642
-20,994	7,894	946,724	507,198
-19,979	7,967	946,068	507,058
-18,965	7,927	945,266	506,480
-17,950	7,892	944,967	506,188
-16,936	7,896	944,185	505,764
-15,921	7,947	943,337	505,452
-14,906	7,817	942,751	504,702
-13,892	7,825	942,163	504,394
-12,877	7,809	941,569	504,002
-11,863	7,755	940,882	503,446
-10,848	7,813	940,485	503,396
-9,833	7,965	939,939	503,568
-8,819	7,844	939,302	502,822
-7,804	7,806	938,494	502,250
-6,790	7,830	937,910	501,994
-5,775	7,878	937,410	501,857
-4,760	7,926	936,824	501,676
-3,746	7,842	936,366	501,145
-2,731	7,701	935,455	500,190
-1,717	7,683	934,855	499,794
-0,702	7,686	934,284	499,477
0,313	7,492	933,429	499,160
1,327	11,036	931,169	509,075
2,342	19,690	779,841	449,020
3,356	14,949	448,101	250,849
4,371	-11,135	312,597	147,255
5,386	-14,807	295,160	135,315
6,400	-16,886	289,031	130,432
7,415	-17,397	286,279	128,677
8,429	-18,210	284,512	127,078
9,444	-18,360	283,560	126,496
10,459	-18,253	282,931	126,308
11,473	-18,308	282,437	126,022
12,488	-18,197	281,788	125,829
13,502	-18,100	281,426	125,750
14,517	-18,148	281,034	125,517
15,531	-18,171	280,416	125,207
16,546	-18,124	280,028	125,068
17,561	-18,263	279,685	124,771
18,575	-17,978	279,259	124,842
19,590	-18,227	279,025	124,488
20,604	-17,995	278,728	124,567
21,619	-18,324	278,393	124,092
22,634	-18,098	278,024	124,132
23,648	-18,345	277,772	123,773
24,663	-17,997	277,384	123,920
25,677	-18,163	277,141	123,643
26,692	-18,047	277,068	123,709
27,707	-17,946	276,526	123,552
28,721	-18,121	276,370	123,305
29,736	-18,155	276,099	123,141
30,750	-18,240	275,742	122,891
31,765	-18,212	275,475	122,787
32,780	-18,022	275,390	122,918
33,794	-18,102	275,012	122,663
34,809	-18,127	274,681	122,480
35,823	-18,067	274,530	122,459
36,838	-18,092	274,323	122,332
37,853	-18,189	274,060	122,112
38,867	-18,104	273,802	122,067
39,882	-18,224	273,588	121,848
40,896	-18,032	273,386	121,926
41,911	-18,068	273,108	121,758
42,926	-18,045	272,899	121,676
43,940	-17,971	272,548	121,577
44,955	-18,035	272,325	121,407
45,969	-18,081	272,085	121,246
46,984	-18,011	271,952	121,242
47,999	-17,980	271,778	121,182
49,013	-18,058	271,596	121,017
50,028	-17,873	271,183	120,994
51,042	-17,871	271,034	120,919
52,057	-17,954	270,724	120,693
53,071	-17,811	270,342	120,644
54,086	-17,812	270,436	120,674
55,101	-17,820	270,043	120,481
56,115	-17,820	269,775	120,350
57,130	-18,093	269,697	120,053
58,144	-18,116	269,401	119,890
59,159	-18,102	269,138	119,775
60,174	-18,125	268,783	119,585
61,188	-18,311	268,863	119,439
62,203	-18,117	268,556	119,470
63,217	-17,931	268,196	119,469
64,232	-18,013	267,917	119,260
65,247	-18,045	267,814	119,174
66,261	-18,023	267,450	119,021
67,276	-18,126	267,379	118,885
68,290	-18,087	267,221	118,840
69,305	-17,882	266,847	118,850
70,320	-18,008	266,840	118,721
71,334	-17,904	266,414	118,616
72,349	-18,295	266,267	118,184
73,363	-17,976	265,964	118,329
74,378	-18,086	265,689	118,096
75,393	-18,071	265,488	118,010
76,407	-18,051	265,362	117,962
77,422	-17,881	265,239	118,050
78,436	-17,979	264,686	117,705
79,451	-17,858	264,600	117,766
80,466	-17,911	264,281	117,565
81,480	-18,085	264,096	117,315
82,495	-18,117	263,965	117,218
83,509	-17,853	263,652	117,306
84,524	-17,836	263,496	117,242
85,539	-17,930	263,334	117,075
86,553	-17,917	263,071	116,960
87,568	-17,999	262,883	116,791
88,582	-18,061	262,711	116,649
89,597	-17,802	262,472	116,764
90,611	-17,787	262,322	116,701
91,626	-17,901	262,061	116,472
92,641	-18,035	261,866	116,255
93,655	-18,007	261,678	116,187
94,670	-18,034	261,404	116,031
95,684	-18,034	261,174	115,918
96,699	-17,836	260,894	115,960
97,714	-18,078	260,890	115,732
98,728	-17,883	260,636	115,782
99,743	-17,860	260,454	115,712
100,757	-17,816	260,200	115,628
101,772	-17,988	260,047	115,397
102,787	-17,836	259,781	115,404
103,801	-17,971	259,541	115,167
104,816	-17,988	259,377	115,069
105,830	-17,793	259,259	115,179
106,845	-17,929	258,979	114,924
107,860	-17,967	258,775	114,790
108,874	-17,886	258,589	114,768
109,889	-17,882	258,438	114,694
110,903	-18,003	258,110	114,432
111,918	-18,031	258,133	114,408
112,933	-17,986	257,825	114,300
113,947	-17,882	257,555	114,262
114,962	-17,904	257,361	114,146
115,976	-18,063	257,231	113,940
116,991	-17,958	256,987	113,913
118,006	-17,969	256,751	113,788
119,020	-17,840	256,687	113,862
120,035	-17,957	256,579	113,703
121,049	-18,061	256,342	113,497
122,064	-17,952	256,101	113,475
123,079	-17,920	255,766	113,344
124,093	-18,055	255,686	113,181
125,108	-17,803	255,457	113,288
126,122	-18,023	255,263	113,002
127,137	-17,868	255,093	113,050
128,151	-17,642	254,912	113,156
129,166	-17,848	254,599	112,829
130,181	-17,679	254,458	112,902
131,195	-17,718	254,239	112,761
132,210	-17,870	253,958	112,495
133,224	-17,778	253,834	112,509
134,239	-17,808	253,745	112,434
135,254	-17,804	253,368	112,261
136,268	-17,681	253,115	112,244
137,283	-17,745	253,091	112,169
138,297	-17,678	252,917	112,139
139,312	-17,787	252,725	111,951
140,327	-17,862	252,544	111,797
141,341	-17,934	252,332	111,631
142,356	-17,867	252,135	111,591
143,370	-17,896	251,911	111,457
144,385	-17,803	251,685	111,427
145,400	-17,851	251,523	111,304
146,414	-17,988	251,361	111,105
147,429	-17,867	251,028	111,052
148,443	-17,861	250,906	110,993
149,458	-17,822	250,858	110,995
150,473	-17,746	250,705	110,981
151,487	-17,911	250,478	110,731
152,502	-17,853	250,198	110,647
153,516	-17,924	249,940	110,463
154,531	-18,027	249,912	110,353
155,546	-17,802	249,594	110,393
156,560	-17,853	249,522	110,308
157,575	-17,743	249,152	110,227
158,589	-17,634	249,057	110,268
159,604	-18,161	248,997	109,787
160,619	-17,765	248,549	109,913
161,633	-17,997	248,516	109,693
162,648	-17,953	248,377	109,659
163,662	-17,937	248,234	109,600
164,677	-17,719	248,046	109,690
165,692	-18,015	247,920	109,377
166,706	-17,828	247,780	109,461
167,721	-17,943	247,593	109,273
168,735	-17,872	247,367	109,222
169,750	-17,823	247,171	109,168
170,764	-17,678	247,030	109,216
171,779	-17,651	246,741	109,102
172,794	-17,716	246,708	109,023
173,808	-17,722	246,532	108,931
174,823	-17,658	246,415	108,922
175,837	-17,724	246,138	108,735
176,852	-17,761	246,008	108,638
177,867	-17,722	245,879	108,603
178,881	-17,810	245,728	108,454
179,896	-17,818	245,515	108,344
180,910	-17,679	245,314	108,360
181,925	-17,828	245,039	108,106
182,940	-18,024	245,070	107,948
183,954	-17,746	244,765	108,033
184,969	-17,740	244,523	107,922
185,983	-17,966	244,498	107,715
186,998	-17,950	244,365	107,660
188,013	-17,931	244,130	107,562
189,027	-17,880	243,862	107,477
190,042	-17,793	243,723	107,477
191,056	-17,703	243,653	107,510
192,071	-17,899	243,443	107,247
193,086	-17,901	243,312	107,179
194,100	-17,730	242,920	107,137
195,115	-17,741	242,764	107,050
196,129	-17,939	242,689	106,845
197,144	-17,833	242,552	106,861
198,159	-17,799	242,240	106,742
199,173	-17,834	242,145	106,662
200,188	-17,763	241,890	106,598
201,202	-17,675	241,772	106,608
202,217	-17,735	241,639	106,492
203,232	-17,531	241,479	106,578
204,246	-17,754	241,373	106,340
205,261	-17,417	241,072	106,471
206,275	-15,992	241,504	107,813
207,290	-11,563	243,357	112,260
208,304	-5,523	245,008	117,986
209,319	-3,097	245,623	120,269
210,334	-2,652	245,731	120,678
211,348	-1,707	245,860	121,508
212,363	-1,245	245,659	121,778
213,377	-0,640	245,963	122,416
214,392	-0,025	245,876	122,867
215,407	0,325	245,973	123,193
216,421	0,389	245,848	123,172
217,436	0,360	245,617	123,021
218,450	0,618	245,380	123,103
219,465	0,543	245,337	123,009
220,480	0,684	245,157	123,023
221,494	0,480	245,046	122,790
222,509	0,319	244,850	122,549
223,523	0,264	244,505	122,320
224,538	0,043	244,387	122,070
225,553	0,144	244,176	122,036
226,567	-0,097	244,252	121,866
227,582	-0,150	243,900	121,637
228,596	0,015	243,694	121,658
229,611	0,174	243,512	121,685
230,626	0,079	243,390	121,536
231,640	-0,018	243,279	121,391
232,655	0,054	243,194	121,396
233,669	0,130	242,953	121,327
234,684	-0,144	242,811	121,023
235,699	0,070	242,695	121,127
236,713	0,229	242,422	121,109
237,728	0,052	242,324	120,906
238,742	0,080	242,101	120,807
239,757	-0,085	241,983	120,604
240,772	-0,076	241,788	120,503
241,786	-0,073	241,732	120,468
242,801	0,019	241,605	120,467
243,815	0,078	241,330	120,367
244,830	0,195	241,242	120,406
245,844	0,090	241,099	120,240
246,859	-0,043	240,905	120,025
247,874	0,044	240,661	119,964
248,888	-0,103	240,439	119,724
249,903	0,153	240,474	119,936
250,917	0,157	240,307	119,845
251,932	0,054	240,215	119,706
252,947	0,137	239,877	119,593
253,961	0,096	239,806	119,515
254,976	0,025	239,539	119,314
255,990	-0,037	239,552	119,261
257,005	-0,010	239,323	119,157
258,020	-0,083	239,274	119,064
259,034	0,080	239,101	119,097
260,049	0,050	239,031	119,028
261,063	0,069	238,744	118,889
262,078	-0,039	238,678	118,760
263,093	0,031	238,390	118,662
264,107	-0,026	238,234	118,528
265,122	-0,051	238,041	118,402
266,136	0,247	237,895	118,555
267,151	0,038	237,856	118,359
268,166	0,038	237,625	118,234
269,180	0,112	237,445	118,192
270,195	0,152	237,210	118,097
271,209	0,163	237,199	118,089
272,224	0,072	237,032	117,924
273,239	0,159	236,859	117,895
274,253	-0,001	236,753	117,706
275,268	0,201	236,565	117,761
276,282	0,208	236,419	117,683
277,297	0,193	236,203	117,553
278,312	0,039	236,154	117,398
279,326	0,094	235,901	117,305
280,341	0,151	235,810	117,294
281,355	0,195	235,841	117,333
282,370	0,110	235,649	117,161
283,384	0,193	235,352	117,068
284,399	-0,033	235,207	116,808
285,414	0,128	235,084	116,863
286,428	0,236	234,957	116,873
287,443	0,179	234,767	116,724
288,457	0,268	234,608	116,704
289,472	0,113	234,519	116,528
290,487	0,109	234,341	116,426
291,501	0,412	234,108	116,536
292,516	0,320	234,033	116,417
293,530	-0,023	233,886	116,067
294,545	0,117	233,707	116,076
295,560	0,290	233,645	116,169
296,574	0,327	233,521	116,126
297,589	0,225	233,377	115,965
298,603	0,341	233,142	115,928
299,618	0,297	233,008	115,816
300,633	0,185	233,005	115,718
301,647	0,285	232,823	115,695
302,662	0,503	232,620	115,751
303,676	0,354	232,453	115,543
304,691	0,265	232,367	115,422
305,706	0,296	232,119	115,313
306,720	0,475	231,865	115,313
307,735	0,215	231,789	115,066
308,749	0,226	231,724	115,031
309,764	0,539	231,500	115,150
310,779	0,357	231,431	114,966
311,793	0,392	231,186	114,861
312,808	0,355	231,211	114,834
313,822	0,368	231,009	114,734
314,837	0,343	230,783	114,592
315,852	0,460	230,694	114,627
316,866	0,285	230,594	114,434
317,881	0,325	230,398	114,357
318,895	0,353	230,172	114,256
319,910	0,315	230,092	114,177
320,925	0,390	229,897	114,127
321,939	0,582	229,747	114,189
322,954	0,620	229,700	114,184
323,968	0,459	229,506	113,955
324,983	0,394	229,369	113,828
325,997	0,483	229,263	113,832
327,012	0,559	229,032	113,765
328,027	0,628	228,838	113,710
329,041	0,643	228,750	113,668
330,056	0,464	228,676	113,486
331,070	0,451	228,493	113,375
332,085	0,495	228,206	113,256
333,100	0,415	228,169	113,166
334,114	0,633	227,870	113,173
335,129	0,383	227,882	112,980
336,143	0,562	227,692	113,011
337,158	0,619	227,583	112,990
338,173	0,633	227,431	112,914
339,187	0,573	227,274	112,781
340,202	0,512	227,171	112,674
341,216	0,489	227,009	112,567
342,231	0,602	226,732	112,504
343,246	0,647	226,739	112,531
344,260	0,432	226,674	112,328
345,275	0,699	226,538	112,450
346,289	0,585	226,333	112,254
347,304	0,631	226,264	112,243
348,319	0,578	226,154	112,139
349,333	0,540	225,881	111,966
350,348	0,584	225,767	111,932
351,362	0,743	225,655	111,985
352,377	0,628	225,486	111,805
353,392	0,817	225,327	111,858
354,406	0,832	225,168	111,780
355,421	192,591	1312,637	1379,601
356,435	154,276	1444,971	1379,437
