DTS Sentinel unit serial number:	SN410029Multiplexer serial number:	ORYXHardware model number:	OX2-SRSoftware version number:	ORYX F/W v4,00 Oryx Data Collector v3.7.2.0data status	okinstallation	B5 Nyhavnadifferential loss correction	single-endedforward channel	channel 2reverse channel	N/Adate	2023/12/13time	07:12:13forward acquisition time	300,00reverse acquisition time	0,00gamma	499,1914k internal	0,3160k external	0,3160temperature offset calibration	1,0000default loss term (dB/km)	0,3820temperature slope calibration	1,0000multiplexer offset coefficient	1,0000multiplexer slope coefficient	1,0000fibre end	0,00T internal ref (°C)	13,70T ext. ref 1 (°C)	-2,76T ext. ref 2 (°C)	-3,07length (m)	temperature (°C)	Stokes	anti-Stokes-744,400	-200,000	0,031	-0,126
-743,385	-108,059	-0,325	0,051
-742,371	-49,580	0,098	0,034
-741,356	-110,725	-0,290	-0,044
-740,342	-77,358	0,188	-0,048
-739,327	-64,846	-0,200	-0,059
-738,312	-200,000	0,020	0,168
-737,298	-152,610	-0,249	0,013
-736,283	148,676	-0,136	0,135
-735,269	12,925	-0,281	0,159
-734,254	-200,000	0,021	-0,073
-733,239	-40,296	-0,598	-0,228
-732,225	7,368	0,273	0,150
-731,210	-114,888	-0,026	0,004
-730,196	800,000	-0,006	0,017
-729,181	-25,431	-0,156	-0,068
-728,167	-200,000	-0,025	-0,094
-727,152	-13,916	0,108	0,051
-726,137	37,102	-0,060	0,039
-725,123	58,710	-0,088	-0,063
-724,108	-200,000	0,006	-0,099
-723,094	373,226	-0,090	-0,135
-722,079	-47,944	0,057	0,020
-721,064	-200,000	-0,011	0,055
-720,050	-23,643	-0,067	-0,029
-719,035	-46,929	-0,034	0,012
-718,021	-110,830	-0,131	0,020
-717,006	800,000	-0,087	-0,243
-715,991	183,609	-0,040	-0,044
-714,977	114,973	-0,091	-0,081
-713,962	800,000	-0,031	0,095
-712,948	-200,000	-0,010	-0,092
-711,933	-82,454	-0,066	0,016
-710,918	-200,000	0,011	-0,043
-709,904	-115,823	0,037	0,005
-708,889	113,781	-0,112	-0,100
-707,875	14,232	0,152	-0,087
-706,860	165,109	0,067	-0,070
-705,845	-68,356	-0,067	-0,019
-704,831	-200,000	-0,020	0,082
-703,816	333,824	-0,070	-0,100
-702,802	-12,835	-0,211	-0,101
-701,787	-121,653	-0,051	0,006
-700,772	-200,000	-0,009	-0,075
-699,758	-44,769	0,048	0,017
-698,743	-34,788	-0,051	-0,020
-697,729	-48,894	-0,050	-0,018
-696,714	-89,727	0,195	0,042
-695,699	-200,000	-0,003	-0,023
-694,685	-98,715	-0,062	0,012
-693,670	-200,000	0,011	-0,074
-692,656	2,250	0,050	-0,026
-691,641	-200,000	0,005	0,115
-690,627	-107,680	-0,096	0,015
-689,612	-200,000	-0,009	-0,067
-688,597	-144,916	-0,108	0,007
-687,583	-116,837	-0,087	-0,012
-686,568	65,738	-0,102	0,076
-685,554	-192,278	0,051	0,000
-684,539	148,178	-0,085	0,085
-683,524	433,431	-0,062	0,099
-682,510	328,822	0,048	-0,068
-681,495	800,000	-0,019	0,055
-680,481	1,445	-0,147	0,078
-679,466	19,132	-0,057	-0,033
-678,451	-155,224	0,054	-0,003
-677,437	-200,000	0,012	0,104
-676,422	-166,233	0,173	-0,005
-675,408	-130,354	0,100	-0,010
-674,393	95,656	0,019	0,016
-673,378	800,000	-0,029	-0,082
-672,364	-164,949	-0,078	0,003
-671,349	800,000	0,048	-0,103
-670,335	-102,798	-0,088	0,015
-669,320	-133,161	-0,051	0,005
-668,305	-48,882	0,169	0,059
-667,291	-43,630	-0,067	0,025
-666,276	120,764	-0,155	-0,142
-665,262	-200,000	-0,032	-0,202
-664,247	390,050	-0,019	0,030
-663,232	-200,000	-0,020	0,164
-662,218	-200,000	0,006	0,057
-661,203	64,616	-0,031	-0,023
-660,189	197,859	0,150	0,168
-659,174	800,000	-0,042	-0,095
-658,159	74,180	-0,139	-0,107
-657,145	-200,000	0,002	0,142
-656,130	-107,748	-0,104	0,017
-655,116	-100,887	-0,033	0,006
-654,101	-6,498	-0,060	0,030
-653,086	560,830	0,037	0,065
-652,072	-126,945	0,128	-0,014
-651,057	-128,914	-0,169	0,017
-650,043	-200,000	-0,032	-0,155
-649,028	274,343	0,059	-0,076
-648,014	-200,000	0,017	-0,124
-646,999	-200,000	-0,042	0,269
-645,984	-49,313	-0,076	-0,026
-644,970	-134,335	0,065	0,006
-643,955	-200,000	0,004	-0,083
-642,941	-34,507	-0,079	-0,032
-641,926	454,781	-0,047	0,077
-640,911	482,783	-0,023	-0,039
-639,897	800,000	0,050	-0,114
-638,882	-32,729	-0,015	-0,006
-637,868	629,171	0,037	-0,069
-636,853	717,648	-0,068	-0,133
-635,838	188,591	0,020	-0,021
-634,824	192,539	-0,102	-0,113
-633,809	800,000	-0,029	0,080
-632,795	-98,353	0,097	0,018
-631,780	800,000	-0,047	0,152
-630,765	336,168	-0,068	0,097
-629,751	12,893	-0,126	-0,071
-628,736	-132,049	0,081	0,008
-627,722	43,637	0,151	0,101
-626,707	218,931	0,045	-0,052
-625,692	-200,000	0,005	0,017
-624,678	-200,000	0,005	0,033
-623,663	-200,000	0,007	0,061
-622,649	61,975	-0,054	-0,039
-621,634	178,622	0,069	0,074
-620,619	800,000	-0,025	-0,056
-619,605	800,000	-0,024	0,061
-618,590	-105,692	0,098	-0,016
-617,576	33,738	0,027	0,017
-616,561	-200,000	-0,001	0,013
-615,546	309,600	-0,061	0,083
-614,532	-47,323	-0,139	0,049
-613,517	266,866	0,066	-0,085
-612,503	49,190	0,033	0,022
-611,488	-3,948	-0,125	0,063
-610,474	-127,932	0,015	0,002
-609,459	244,815	0,086	-0,106
-608,444	-200,000	-0,001	0,006
-607,430	-117,834	0,048	0,006
-606,415	50,102	-0,040	-0,028
-605,401	-84,289	0,106	-0,024
-604,386	800,000	0,082	0,203
-603,371	800,000	0,030	0,081
-602,357	514,443	0,049	-0,084
-601,342	-200,000	-0,023	-0,123
-600,328	-90,255	-0,048	0,010
-599,313	181,570	0,102	-0,110
-598,298	230,428	-0,015	0,018
-597,284	-200,000	0,022	0,119
-596,269	800,000	-0,014	0,037
-595,255	765,017	-0,034	0,068
-594,240	165,995	-0,064	-0,067
-593,225	-106,322	-0,177	-0,029
-592,211	-52,537	0,112	0,038
-591,196	-38,644	0,060	0,023
-590,182	54,598	0,064	-0,045
-589,167	-200,000	0,020	0,098
-588,152	-200,000	0,016	0,130
-587,138	800,000	0,015	-0,039
-586,123	306,458	-0,087	-0,119
-585,109	-200,000	0,007	-0,087
-584,094	-200,000	-0,004	-0,016
-583,079	-200,000	-0,019	-0,103
-582,065	133,116	-0,068	0,065
-581,050	40,108	0,098	0,064
-580,036	-130,588	-0,108	-0,011
-579,021	-200,000	0,002	-0,059
-578,006	-46,128	0,041	-0,015
-576,992	191,906	-0,067	-0,074
-575,977	322,167	0,129	-0,180
-574,963	-200,000	0,008	0,074
-573,948	-162,365	-0,019	0,001
-572,934	800,000	-0,043	0,089
-571,919	-69,441	-0,036	-0,010
-570,904	219,245	-0,070	0,082
-569,890	-17,623	0,075	0,034
-568,875	256,952	-0,042	-0,053
-567,861	800,000	0,028	0,080
-566,846	632,979	-0,030	-0,055
-565,831	-200,000	0,023	-0,102
-564,817	-105,328	-0,099	-0,016
-563,802	-87,482	-0,121	0,027
-562,788	-200,000	0,024	-0,089
-561,773	-200,000	-0,026	0,114
-560,758	-200,000	0,021	-0,072
-559,744	424,316	-0,098	0,154
-558,729	69,907	-0,085	0,064
-557,715	239,206	0,021	0,026
-556,700	72,696	-0,051	0,039
-555,685	-200,000	0,024	0,146
-554,671	-39,653	0,057	0,022
-553,656	414,720	0,042	0,065
-552,642	308,760	-0,045	-0,062
-551,627	-200,000	0,007	-0,115
-550,612	-160,737	0,126	0,005
-549,598	800,000	-0,032	-0,103
-548,583	276,883	-0,002	0,003
-547,569	-200,000	0,000	0,004
-546,554	85,268	0,084	-0,067
-545,539	-124,867	0,093	0,010
-544,525	-200,000	-0,002	-0,023
-543,510	119,602	0,060	0,054
-542,496	-10,676	0,060	0,029
-541,481	-200,000	-0,003	-0,089
-540,466	186,446	-0,056	-0,061
-539,452	168,064	0,066	-0,069
-538,437	800,000	-0,011	0,034
-537,423	271,183	0,042	0,055
-536,408	-200,000	0,005	-0,049
-535,393	280,118	-0,105	-0,137
-534,379	27,633	-0,111	-0,068
-533,364	-25,344	0,096	0,041
-532,350	800,000	0,025	-0,067
-531,335	-200,000	0,030	0,101
-530,321	-144,157	0,127	0,009
-529,306	-185,611	0,062	0,001
-528,291	-200,000	0,002	-0,092
-527,277	-200,000	-0,037	-0,165
-526,262	800,000	-0,018	-0,042
-525,248	-200,000	0,022	0,110
-524,233	-200,000	0,026	0,113
-523,218	62,119	0,070	0,051
-522,204	-200,000	0,010	0,119
-521,189	-200,000	-0,011	-0,046
-520,175	-68,006	0,072	-0,020
-519,160	-200,000	0,003	-0,055
-518,145	-109,743	0,008	-0,001
-517,131	62,841	0,092	-0,067
-516,116	-32,447	-0,050	0,020
-515,102	-182,267	-0,091	0,001
-514,087	-200,000	-0,016	0,062
-513,072	426,112	-0,044	-0,069
-512,058	519,206	-0,046	-0,080
-511,043	134,164	0,042	-0,040
-510,029	800,000	0,081	0,237
-509,014	23,075	-0,100	0,060
-507,999	-82,350	0,084	-0,020
-506,985	14,221	-0,056	-0,032
-505,970	-89,320	0,021	0,004
-504,956	-200,000	-0,000	-0,067
-503,941	-186,896	-0,084	-0,001
-502,926	-200,000	0,000	0,073
-501,912	-67,347	0,088	0,025
-500,897	114,334	-0,090	-0,080
-499,883	-154,576	-0,112	-0,005
-498,868	800,000	-0,032	0,065
-497,853	25,769	0,089	-0,054
-496,839	269,000	0,050	0,064
-495,824	-200,000	-0,006	0,109
-494,810	-82,445	0,191	-0,045
-493,795	46,673	-0,050	-0,034
-492,781	-200,000	-0,007	0,064
-491,766	-15,527	0,085	-0,039
-490,751	160,002	0,087	-0,089
-489,737	-49,084	-0,096	0,033
-488,722	-132,363	-0,133	-0,012
-487,708	252,383	0,049	0,061
-486,693	-200,000	-0,019	0,098
-485,678	-72,772	-0,058	0,016
-484,664	-95,409	0,054	0,010
-483,649	74,754	-0,077	-0,059
-482,635	-45,449	0,008	-0,003
-481,620	-163,744	0,139	0,005
-480,605	-12,059	0,092	-0,044
-479,591	-200,000	0,002	-0,066
-478,576	-110,915	-0,114	-0,017
-477,562	-50,322	-0,061	0,021
-476,547	305,930	-0,026	-0,036
-475,532	37,740	0,172	-0,111
-474,518	800,000	-0,032	-0,095
-473,503	-200,000	0,025	0,084
-472,489	-123,425	0,090	-0,010
-471,474	-31,357	-0,105	-0,043
-470,459	-128,455	-0,042	-0,004
-469,445	87,140	-0,040	0,033
-468,430	-100,035	-0,033	-0,006
-467,416	-151,916	0,102	-0,005
-466,401	-96,594	0,031	-0,006
-465,386	178,338	0,021	-0,023
-464,372	-136,504	-0,082	0,007
-463,357	800,000	0,044	0,135
-462,343	800,000	0,010	-0,030
-461,328	-64,503	-0,066	0,019
-460,313	800,000	-0,026	-0,076
-459,299	-200,000	-0,018	0,097
-458,284	544,287	0,085	0,148
-457,270	-115,541	-0,022	-0,003
-456,255	-200,000	-0,014	-0,062
-455,241	-82,541	-0,018	-0,004
-454,226	-104,685	-0,069	0,011
-453,211	452,899	-0,081	-0,131
-452,197	800,000	0,037	-0,077
-451,182	-102,455	-0,143	0,025
-450,168	59,109	0,049	0,035
-449,153	-185,075	-0,036	-0,000
-448,138	-200,000	0,023	-0,092
-447,124	-56,158	0,139	0,045
-446,109	21,028	-0,092	0,054
-445,095	103,995	-0,072	0,061
-444,080	286,034	-0,032	0,042
-443,065	89,554	0,059	-0,048
-442,051	-100,922	0,051	0,009
-441,036	-200,000	-0,016	0,100
-440,022	121,655	-0,013	0,012
-439,007	54,943	-0,038	-0,027
-437,992	37,516	0,070	-0,045
-436,978	-47,359	0,042	0,015
-435,963	89,428	0,148	0,120
-434,949	-7,480	0,032	-0,016
-433,934	-111,573	-0,099	-0,014
-432,919	109,645	-0,051	-0,045
-431,905	-200,000	0,002	-0,136
-430,890	-200,000	-0,005	0,084
-429,876	-200,000	0,030	0,110
-428,861	-19,225	0,084	0,038
-427,846	-35,705	0,103	-0,040
-426,832	21,369	-0,104	-0,061
-425,817	275,888	-0,062	0,081
-424,803	87,581	-0,095	0,076
-423,788	-42,689	0,065	0,024
-422,773	-145,857	0,035	-0,002
-421,759	-200,000	0,005	0,022
-420,744	54,082	-0,075	-0,052
-419,730	-200,000	-0,008	-0,053
-418,715	-200,000	0,003	-0,105
-417,701	390,625	-0,025	0,038
-416,686	140,720	0,065	-0,062
-415,671	8,862	0,085	-0,046
-414,657	-200,000	0,030	0,128
-413,642	65,828	0,170	0,125
-412,628	-40,405	0,096	0,036
-411,613	100,149	-0,145	-0,122
-410,598	-200,000	0,011	-0,104
-409,584	524,757	-0,023	0,039
-408,569	120,549	0,119	0,108
-407,555	-104,895	-0,239	0,039
-406,540	-200,000	0,078	0,000
-405,525	-200,000	-0,019	-0,134
-404,511	-200,000	0,005	-0,037
-403,496	800,000	0,033	0,103
-402,482	26,930	0,043	0,026
-401,467	800,000	-0,065	-0,168
-400,452	145,413	0,052	0,050
-399,438	800,000	0,039	0,114
-398,423	0,398	-0,063	0,033
-397,409	-200,000	0,019	-0,083
-396,394	123,717	0,014	-0,012
-395,379	-53,897	0,081	0,027
-394,365	561,633	-0,063	-0,111
-393,350	39,885	-0,064	-0,042
-392,336	800,000	0,042	-0,092
-391,321	-153,313	-0,187	0,009
-390,306	-88,471	0,056	-0,012
-389,292	395,290	-0,065	0,099
-388,277	-125,862	0,049	0,005
-387,263	22,143	0,109	-0,065
-386,248	110,604	0,141	0,123
-385,233	-200,000	0,016	0,071
-384,219	-80,425	-0,057	0,014
-383,204	-127,091	-0,205	0,022
-382,190	-66,961	-0,041	0,012
-381,175	-72,810	0,093	0,025
-380,160	-43,523	-0,074	-0,027
-379,146	800,000	-0,026	0,076
-378,131	333,557	-0,096	-0,135
-377,117	-62,414	0,086	0,026
-376,102	800,000	-0,086	-0,191
-375,088	-200,000	-0,003	-0,090
-374,073	593,695	-0,014	0,025
-373,058	214,319	0,044	-0,051
-372,044	-200,000	-0,065	0,214
-371,029	-89,300	0,116	0,025
-370,015	190,090	-0,041	-0,044
-369,000	-89,809	-0,069	0,014
-367,985	-97,376	-0,170	-0,032
-366,971	122,645	-0,110	-0,100
-365,956	-105,928	0,122	-0,020
-364,942	41,398	0,129	0,085
-363,927	-200,000	-0,021	0,127
-362,912	-77,590	-0,029	0,007
-361,898	60,481	0,021	-0,015
-360,883	-94,128	-0,077	0,015
-359,869	-200,000	0,005	-0,076
-358,854	173,793	0,048	0,050
-357,839	84,111	0,109	0,086
-356,825	771,755	0,065	-0,128
-355,810	569,278	0,011	0,019
-354,796	-188,518	-0,040	0,000
-353,781	111,874	-0,087	-0,076
-352,766	-128,579	-0,180	-0,018
-351,752	800,000	-0,063	-0,167
-350,737	2,606	0,152	-0,080
-349,723	-200,000	0,001	0,024
-348,708	-23,391	0,068	-0,030
-347,693	-166,008	0,095	-0,003
-346,679	800,000	-0,026	-0,070
-345,664	800,000	0,020	-0,043
-344,650	800,000	-0,036	0,086
-343,635	-52,179	0,068	-0,023
-342,620	789,851	0,082	0,165
-341,606	1,268	0,159	0,082
-340,591	-200,000	0,014	-0,105
-339,577	147,191	-0,081	-0,079
-338,562	-200,000	-0,002	-0,064
-337,548	-45,428	0,076	-0,027
-336,533	411,270	0,003	0,004
-335,518	66,957	0,120	0,088
-334,504	-200,000	0,007	-0,057
-333,489	-100,229	-0,109	-0,020
-332,475	-134,834	-0,046	-0,004
-331,460	-110,790	-0,034	0,005
-330,445	-63,446	0,082	-0,024
-329,431	427,410	0,056	0,088
-328,416	-118,050	-0,085	0,011
-327,402	-200,000	-0,018	0,119
-326,387	669,069	0,025	0,048
-325,372	-136,082	0,089	0,007
-324,358	441,469	0,030	-0,047
-323,343	-3,365	0,082	-0,041
-322,329	450,813	0,035	0,057
-321,314	309,547	0,085	0,116
-320,299	-146,687	0,039	0,002
-319,285	215,396	0,068	0,078
-318,270	800,000	0,014	0,041
-317,256	-200,000	-0,027	-0,149
-316,241	-200,000	0,015	-0,089
-315,226	-160,655	-0,044	0,002
-314,212	-158,594	-0,072	0,003
-313,197	800,000	0,020	-0,047
-312,183	347,844	0,046	0,066
-311,168	800,000	0,042	-0,110
-310,153	202,068	-0,074	0,082
-309,139	181,482	-0,044	0,047
-308,124	-200,000	0,013	0,084
-307,110	363,655	-0,073	0,107
-306,095	-65,163	-0,042	0,012
-305,080	-200,000	-0,004	0,019
-304,066	286,582	0,128	0,167
-303,051	40,405	-0,019	-0,012
-302,037	-200,000	0,013	-0,119
-301,022	-37,711	-0,087	0,033
-300,008	274,776	0,098	0,126
-298,993	-145,686	-0,130	-0,008
-297,978	24,743	-0,067	-0,040
-296,964	-17,139	0,013	-0,006
-295,949	192,484	0,053	0,058
-294,935	-39,477	0,011	-0,004
-293,920	-200,000	-0,031	0,108
-292,905	-14,520	0,043	-0,020
-291,891	-114,863	-0,050	0,007
-290,876	-46,902	-0,149	-0,052
-289,862	409,363	0,037	0,058
-288,847	385,066	-0,094	-0,141
-287,832	153,510	-0,086	-0,086
-286,818	-122,522	-0,169	-0,020
-285,803	-90,147	-0,082	0,017
-284,789	800,000	0,038	0,088
-283,774	-200,000	0,014	0,051
-282,759	-200,000	0,007	-0,178
-281,745	-150,126	-0,063	0,003
-280,730	-122,948	-0,044	0,005
-279,716	252,923	0,057	0,070
-278,701	2,603	0,087	-0,046
-277,686	85,096	0,118	0,094
-276,672	250,112	0,033	0,040
-275,657	-200,000	0,025	-0,091
-274,643	163,203	-0,102	-0,104
-273,628	170,591	0,028	0,029
-272,613	800,000	-0,009	0,022
-271,599	-79,981	0,032	0,008
-270,584	83,988	0,094	-0,074
-269,570	-200,000	-0,037	-0,141
-268,555	-196,692	-0,108	-0,001
-267,540	157,321	-0,038	-0,038
-266,526	166,747	0,080	0,082
-265,511	150,960	-0,082	0,080
-264,497	-24,401	0,061	-0,026
-263,482	-165,044	0,147	-0,005
-262,467	-200,000	-0,002	0,125
-261,453	-51,421	0,053	0,018
-260,438	-29,082	0,112	-0,046
-259,424	53,666	-0,112	0,078
-258,409	-200,000	0,017	0,088
-257,395	-200,000	0,004	0,036
-256,380	313,291	0,058	-0,079
-255,365	-200,000	0,009	-0,038
-254,351	-200,000	-0,003	-0,137
-253,336	107,185	-0,065	-0,056
-252,322	-200,000	-0,000	-0,079
-251,307	206,370	-0,057	-0,065
-250,292	800,000	-0,042	-0,108
-249,278	333,956	-0,027	-0,038
-248,263	-200,000	0,003	0,015
-247,249	144,860	-0,134	-0,130
-246,234	11,379	-0,124	-0,068
-245,219	-200,000	0,007	0,082
-244,205	-28,956	-0,078	-0,032
-243,190	7,125	0,021	-0,012
-242,176	137,547	0,073	0,069
-241,161	-200,000	0,003	0,098
-240,146	531,652	0,105	0,180
-239,132	-200,000	-0,000	0,013
-238,117	-21,616	0,069	0,030
-237,103	25,852	-0,096	-0,058
-236,088	314,332	0,117	-0,159
-235,073	43,715	0,085	-0,056
-234,059	-200,000	0,018	0,126
-233,044	-200,000	0,009	0,092
-232,030	-125,281	0,039	0,004
-231,015	-200,000	-0,040	-0,138
-230,000	-200,000	0,002	0,025
-228,986	319,606	0,106	0,145
-227,971	29,440	0,002	-0,001
-226,957	-27,537	0,113	-0,047
-225,942	-44,257	-0,160	-0,058
-224,927	422,760	-0,033	-0,051
-223,913	673,189	0,098	-0,184
-222,898	800,000	-0,055	-0,121
-221,884	-22,746	0,063	0,027
-220,869	800,000	-0,043	0,091
-219,855	529,362	-0,047	-0,080
-218,840	-200,000	0,008	-0,046
-217,825	-111,198	-0,120	-0,018
-216,811	26,019	-0,057	-0,034
-215,796	166,156	-0,062	0,063
-214,782	-200,000	0,001	-0,130
-213,767	-200,000	0,003	-0,041
-212,752	-70,996	0,044	0,012
-211,738	-200,000	-0,008	0,129
-210,723	383,579	-0,040	0,059
-209,709	439,211	-0,026	0,041
-208,694	800,000	-0,026	0,074
-207,679	107,616	0,096	0,082
-206,665	531,420	0,031	0,054
-205,650	350,772	-0,007	0,010
-204,636	66,258	0,097	0,071
-203,621	30,355	-0,117	0,072
-202,606	800,000	-0,048	0,137
-201,592	-35,836	-0,061	-0,024
-200,577	-30,256	0,097	-0,040
-199,563	800,000	-0,050	-0,143
-198,548	-200,000	-0,019	-0,126
-197,533	-200,000	-0,002	-0,036
-196,519	78,951	0,045	0,035
-195,504	-200,000	-0,009	0,104
-194,490	535,787	-0,035	0,059
-193,475	800,000	-0,027	-0,076
-192,460	-116,394	0,027	-0,004
-191,446	526,981	-0,028	0,048
-190,431	800,000	-0,037	-0,099
-189,417	800,000	-0,076	0,168
-188,402	800,000	0,085	-0,218
-187,387	88,483	0,051	-0,041
-186,373	61,898	-0,010	0,007
-185,358	-76,053	-0,077	0,019
-184,344	-168,983	-0,081	-0,002
-183,329	-200,000	0,016	-0,083
-182,315	661,049	0,032	-0,059
-181,300	800,000	-0,046	0,102
-180,285	-80,542	-0,096	0,023
-179,271	-200,000	0,003	0,053
-178,256	-32,799	-0,061	0,024
-177,242	143,351	0,050	0,048
-176,227	-200,000	0,014	0,108
-175,212	-200,000	-0,014	0,070
-174,198	-200,000	-0,011	-0,051
-173,183	647,742	0,024	0,044
-172,169	-45,323	-0,086	-0,030
-171,154	-70,236	0,110	-0,030
-170,139	-200,000	0,016	0,093
-169,125	408,957	-0,049	0,074
-168,110	-200,000	0,000	0,111
-167,096	-159,285	0,094	-0,004
-166,081	145,368	-0,031	0,030
-165,066	800,000	-0,025	-0,070
-164,052	354,986	-0,109	-0,157
-163,037	-10,558	-0,086	0,041
-162,023	-187,816	0,179	0,002
-161,008	120,674	0,085	0,076
-159,993	40,404	0,077	-0,050
-158,979	166,901	0,065	0,066
-157,964	-200,000	-0,005	0,034
-156,950	105,986	-0,104	-0,089
-155,935	42,966	-0,046	-0,030
-154,920	254,234	-0,054	-0,066
-153,906	555,324	-0,026	0,044
-152,891	45,214	-0,040	0,026
-151,877	800,000	0,010	0,031
-150,862	150,834	-0,024	-0,023
-149,847	-104,004	0,048	0,008
-148,833	-200,000	-0,021	-0,172
-147,818	-108,732	0,178	-0,027
-146,804	-55,710	-0,114	0,036
-145,789	-90,234	-0,112	-0,023
-144,775	-96,453	-0,050	-0,009
-143,760	364,363	0,034	0,049
-142,745	-48,914	-0,118	0,041
-141,731	-42,536	-0,162	-0,059
-140,716	704,395	0,088	-0,168
-139,702	-200,000	0,014	0,123
-138,687	261,467	0,015	0,018
-137,672	-130,020	-0,062	-0,006
-136,658	61,116	-0,057	0,041
-135,643	-200,000	0,014	-0,098
-134,629	19,567	-0,036	0,021
-133,614	800,000	0,054	0,160
-132,599	266,022	0,068	0,086
-131,585	-200,000	0,003	0,011
-130,570	-200,000	0,020	0,086
-129,556	-39,260	0,019	-0,007
-128,541	-43,697	-0,156	0,056
-127,526	800,000	-0,035	-0,091
-126,512	800,000	-0,046	0,135
-125,497	-9,301	0,056	-0,027
-124,483	-200,000	0,018	0,104
-123,468	448,308	0,024	0,038
-122,453	127,706	-0,067	-0,061
-121,439	16,180	0,131	-0,074
-120,424	-200,000	0,001	-0,012
-119,410	-41,346	0,129	-0,047
-118,395	-115,728	0,142	-0,019
-117,380	-200,000	0,032	0,118
-116,366	388,065	-0,070	-0,104
-115,351	34,812	-0,117	0,073
-114,337	800,000	-0,061	-0,122
-113,322	206,787	-0,010	-0,011
-112,307	800,000	0,064	-0,139
-111,293	-200,000	0,018	-0,065
-110,278	-200,000	0,001	0,006
-109,264	-71,830	0,094	0,025
-108,249	-200,000	-0,015	-0,157
-107,234	-75,713	0,165	-0,042
-106,220	107,697	-0,072	-0,062
-105,205	194,678	0,063	-0,068
-104,191	332,784	0,141	0,196
-103,176	-200,000	-0,038	0,196
-102,162	137,032	-0,084	0,079
-101,147	-200,000	-0,020	-0,115
-100,132	-200,000	-0,038	-0,182
-99,118	746,275	0,045	0,087
-98,103	-200,000	0,018	-0,080
-97,089	-51,490	-0,043	0,014
-96,074	38,049	-0,029	0,019
-95,059	800,000	0,090	0,199
-94,045	102,311	0,086	0,072
-93,030	-200,000	-0,005	-0,023
-92,016	-145,271	0,037	-0,002
-91,001	800,000	-0,010	-0,031
-89,986	190,524	-0,077	0,083
-88,972	-162,990	0,044	-0,001
-87,957	800,000	-0,030	0,072
-86,943	35,562	-0,086	-0,054
-85,928	-9,818	-0,061	-0,029
-84,913	265,048	-0,057	0,071
-83,899	-120,323	0,107	0,013
-82,884	800,000	0,039	0,112
-81,870	-94,457	-0,086	-0,017
-80,855	-23,472	0,140	0,060
-79,840	-200,000	-0,009	0,069
-78,826	-10,511	-0,080	-0,038
-77,811	168,873	-0,196	-0,200
-76,797	142,422	-0,108	-0,103
-75,782	-186,749	0,062	-0,001
-74,767	6,966	-0,106	0,056
-73,753	309,802	0,042	0,057
-72,738	-200,000	0,018	0,098
-71,724	241,509	-0,040	0,048
-70,709	800,000	0,056	-0,145
-69,694	507,815	-0,060	-0,100
-68,680	-115,986	0,134	0,018
-67,665	137,602	0,024	-0,022
-66,651	-72,987	-0,074	-0,019
-65,636	-77,575	0,071	0,017
-64,622	800,000	0,051	0,139
-63,607	37,008	-0,090	0,057
-62,592	595,345	0,009	0,016
-61,578	800,000	-0,054	-0,156
-60,563	486,181	0,036	-0,059
-59,549	150,885	-0,085	0,083
-58,534	19,506	-2,161	-1,243
-57,519	-200,000	-0,089	-0,720
-56,505	-200,000	-1,316	-5,021
-55,490	161,231	0,816	0,819
-54,476	800,000	5,288	11,906
-53,461	-200,000	18,708	316,910
-52,446	800,000	741,337	2333,209
-51,432	558,415	1657,367	2879,097
-50,417	111,087	1641,147	1417,268
-49,403	75,533	1290,803	976,372
-48,388	30,286	1031,553	630,253
-47,373	19,899	994,195	573,000
-46,359	17,402	981,702	557,554
-45,344	14,099	978,139	544,643
-44,330	14,443	976,240	544,695
-43,315	13,752	974,599	541,489
-42,300	13,703	973,512	540,703
-41,286	13,739	972,699	540,346
-40,271	13,715	971,640	539,658
-39,257	13,696	970,817	539,118
-38,242	13,706	969,681	538,499
-37,227	13,662	969,010	537,961
-36,213	13,681	968,047	537,465
-35,198	13,653	967,287	536,933
-34,184	13,759	966,527	536,836
-33,169	13,686	965,631	536,079
-32,154	13,728	964,561	535,599
-31,140	13,683	963,759	534,986
-30,125	13,799	962,879	534,853
-29,111	13,733	962,052	534,159
-28,096	13,737	961,309	533,739
-27,082	13,814	960,630	533,587
-26,067	13,784	959,951	533,093
-25,052	13,798	959,179	532,689
-24,038	13,773	958,641	532,287
-23,023	13,733	957,913	531,734
-22,009	13,747	957,406	531,478
-20,994	13,737	956,808	531,090
-19,979	13,743	956,193	530,749
-18,965	13,732	955,438	530,271
-17,950	13,760	954,716	529,941
-16,936	13,662	954,123	529,274
-15,921	13,699	953,469	529,011
-14,906	13,603	952,763	528,288
-13,892	13,676	952,038	528,101
-12,877	13,607	951,605	527,620
-11,863	13,548	950,800	526,963
-10,848	13,592	950,205	526,752
-9,833	13,697	949,624	526,745
-8,819	13,763	948,922	526,545
-7,804	13,660	948,375	525,893
-6,790	13,629	948,048	525,591
-5,775	13,668	947,261	525,258
-4,760	13,629	946,761	524,837
-3,746	13,668	946,101	524,575
-2,731	13,547	945,412	523,788
-1,717	13,452	944,583	523,005
-0,702	13,476	944,051	522,767
0,313	13,300	943,412	522,642
1,327	16,614	941,059	531,784
2,342	25,541	796,037	473,560
3,356	21,927	460,780	268,538
4,371	-4,923	317,835	156,362
5,386	-8,852	299,870	143,485
6,400	-10,961	293,870	138,482
7,415	-11,119	291,348	137,123
8,429	-11,456	289,704	136,004
9,444	-11,417	288,787	135,600
10,459	-11,368	288,373	135,441
11,473	-11,288	287,489	135,092
12,488	-11,488	287,146	134,723
13,502	-11,550	286,559	134,375
14,517	-11,447	286,158	134,276
15,531	-11,482	285,728	134,028
16,546	-11,496	285,353	133,826
17,561	-11,457	284,955	133,665
18,575	-11,433	284,667	133,542
19,590	-11,387	284,182	133,348
20,604	-11,429	283,959	133,190
21,619	-11,298	283,542	133,109
22,634	-11,351	283,101	132,840
23,648	-11,428	282,934	132,675
24,663	-11,421	282,706	132,563
25,677	-11,467	282,287	132,310
26,692	-11,455	282,233	132,284
27,707	-11,474	281,884	132,091
28,721	-11,495	281,546	131,900
29,736	-11,390	281,193	131,825
30,750	-11,640	281,060	131,511
31,765	-11,598	280,616	131,331
32,780	-11,452	280,519	131,414
33,794	-11,461	280,240	131,262
34,809	-11,417	279,972	131,167
35,823	-11,418	279,590	130,976
36,838	-11,428	279,488	130,907
37,853	-11,470	279,227	130,733
38,867	-11,572	278,958	130,498
39,882	-11,558	278,709	130,384
40,896	-11,529	278,541	130,321
41,911	-11,400	278,271	130,305
42,926	-11,545	278,005	130,032
43,940	-11,517	277,633	129,872
44,955	-11,484	277,475	129,819
45,969	-11,321	277,153	129,810
46,984	-11,836	277,112	129,293
47,999	-12,001	276,619	128,896
49,013	-12,111	276,310	128,637
50,028	-11,975	276,077	128,644
51,042	-12,182	275,844	128,330
52,057	-12,347	275,658	128,077
53,071	-12,163	275,563	128,194
54,086	-12,000	275,299	128,213
55,101	-11,965	275,047	128,117
56,115	-11,867	274,882	128,121
57,130	-11,260	274,753	128,617
58,144	-11,293	274,519	128,465
59,159	-11,317	274,368	128,360
60,174	-11,381	274,114	128,170
61,188	-11,189	273,732	128,159
62,203	-11,392	273,692	127,940
63,217	-11,454	273,381	127,726
64,232	-11,353	273,222	127,733
65,247	-11,301	272,921	127,630
66,261	-11,357	272,763	127,493
67,276	-11,484	272,399	127,194
68,290	-11,678	272,168	126,894
69,305	-11,771	271,929	126,685
70,320	-11,758	271,885	126,666
71,334	-11,562	271,668	126,735
72,349	-11,450	271,538	126,766
73,363	-11,384	271,173	126,646
74,378	-11,290	270,898	126,592
75,393	-11,190	270,625	126,546
76,407	-11,306	270,428	126,336
77,422	-11,353	270,322	126,232
78,436	-11,402	270,022	126,035
79,451	-11,296	269,726	125,983
80,466	-11,426	269,547	125,769
81,480	-11,527	269,310	125,555
82,495	-11,625	269,175	125,391
83,509	-11,501	268,899	125,365
84,524	-11,649	268,643	125,099
85,539	-11,756	268,374	124,865
86,553	-11,725	268,348	124,870
87,568	-11,459	267,982	124,931
88,582	-11,543	267,797	124,756
89,597	-11,592	267,661	124,638
90,611	-11,599	267,481	124,537
91,626	-11,369	267,362	124,679
92,641	-11,533	267,127	124,409
93,655	-11,626	266,891	124,204
94,670	-11,443	266,642	124,243
95,684	-11,541	266,523	124,088
96,699	-11,293	266,283	124,189
97,714	-11,489	266,144	123,936
98,728	-11,705	265,679	123,513
99,743	-11,718	265,580	123,445
100,757	-11,708	265,398	123,358
101,772	-11,588	265,211	123,368
102,787	-11,325	265,024	123,507
103,801	-11,603	264,931	123,202
104,816	-11,432	264,596	123,190
105,830	-11,235	264,418	123,272
106,845	-11,460	264,304	123,006
107,860	-11,350	264,136	123,016
108,874	-11,367	263,820	122,843
109,889	-11,538	263,766	122,654
110,903	-11,450	263,498	122,597
111,918	-11,452	263,322	122,502
112,933	-11,357	263,067	122,457
113,947	-11,349	262,801	122,330
114,962	-11,307	262,644	122,283
115,976	-11,449	262,490	122,075
116,991	-11,364	262,448	122,119
118,006	-11,519	262,261	121,883
119,020	-11,157	261,961	122,054
120,035	-11,543	261,992	121,716
121,049	-11,410	261,734	121,703
122,064	-11,331	261,427	121,620
123,079	-11,379	261,271	121,493
124,093	-11,458	261,052	121,311
125,108	-11,543	260,717	121,070
126,122	-11,740	260,461	120,766
127,137	-11,802	260,208	120,583
128,151	-11,829	260,236	120,562
129,166	-11,549	259,931	120,656
130,181	-11,652	259,754	120,473
131,195	-11,705	259,588	120,338
132,210	-11,400	259,445	120,528
133,224	-11,290	259,109	120,458
134,239	-11,322	258,963	120,352
135,254	-11,366	258,816	120,234
136,268	-11,524	258,484	119,931
137,283	-11,777	258,309	119,618
138,297	-11,678	258,038	119,569
139,312	-11,880	257,893	119,314
140,327	-11,529	257,715	119,527
141,341	-11,344	257,792	119,714
142,356	-11,374	257,495	119,539
143,370	-11,276	257,375	119,558
144,385	-11,094	257,142	119,597
145,400	-11,267	256,969	119,356
146,414	-11,411	257,001	119,235
147,429	-11,334	256,628	119,118
148,443	-11,291	256,596	119,130
149,458	-11,295	256,216	118,939
150,473	-11,112	256,011	118,992
151,487	-11,401	255,944	118,700
152,502	-11,220	255,858	118,806
153,516	-10,931	255,389	118,827
154,531	-11,278	255,531	118,583
155,546	-11,310	255,180	118,382
156,560	-11,420	255,042	118,212
157,575	-11,428	254,667	118,021
158,589	-11,179	254,502	118,148
159,604	-11,101	254,346	118,133
160,619	-11,125	254,155	118,012
161,633	-11,376	253,971	117,701
162,648	-11,328	253,874	117,687
163,662	-11,167	253,606	117,690
164,677	-11,349	253,687	117,561
165,692	-11,198	253,340	117,519
166,706	-11,133	253,125	117,464
167,721	-11,330	252,984	117,220
168,735	-11,191	252,900	117,290
169,750	-11,165	252,677	117,198
170,764	-11,217	252,606	117,111
171,779	-11,219	252,517	117,056
172,794	-11,076	252,291	117,063
173,808	-11,116	252,025	116,896
174,823	-11,373	251,690	116,511
175,837	-11,745	251,525	116,109
176,852	-11,505	251,473	116,278
177,867	-11,126	251,238	116,480
178,881	-11,147	251,120	116,397
179,896	-11,075	250,930	116,360
180,910	-11,284	250,848	116,134
181,925	-11,170	250,618	116,114
182,940	-11,216	250,443	115,984
183,954	-11,106	250,286	115,994
184,969	-11,061	250,072	115,922
185,983	-11,196	249,988	115,759
186,998	-11,226	249,824	115,647
188,013	-10,971	249,464	115,685
189,027	-11,162	249,388	115,479
190,042	-11,128	249,243	115,430
191,056	-11,122	249,041	115,331
192,071	-11,210	248,790	115,131
193,086	-11,031	248,649	115,205
194,100	-11,093	248,455	115,053
195,115	-11,093	248,236	114,942
196,129	-11,161	248,052	114,789
197,144	-11,256	247,930	114,644
198,159	-11,021	247,822	114,779
199,173	-11,113	247,571	114,576
200,188	-11,138	247,286	114,413
201,202	-11,521	247,179	114,035
202,217	-11,627	246,816	113,769
203,232	-11,850	246,650	113,497
204,246	-11,489	246,709	113,814
205,261	-10,713	246,330	114,272
206,275	-11,900	246,222	113,229
207,290	-8,257	247,674	116,919
208,304	-0,008	250,333	125,083
209,319	4,423	251,413	129,331
210,334	4,633	251,641	129,613
211,348	5,094	251,515	129,923
212,363	5,212	251,296	129,896
213,377	5,286	251,061	129,826
214,392	4,826	250,990	129,393
215,407	5,051	250,745	129,443
216,421	5,083	250,613	129,390
217,436	5,038	250,600	129,334
218,450	5,142	250,342	129,276
219,465	4,927	250,141	128,981
220,480	4,724	249,946	128,700
221,494	4,805	249,651	128,604
222,509	4,677	249,595	128,458
223,523	4,826	249,203	128,368
224,538	4,300	249,090	127,862
225,553	4,493	248,989	127,959
226,567	4,557	248,975	127,993
227,582	4,611	248,716	127,894
228,596	4,417	248,492	127,606
229,611	4,272	248,374	127,415
230,626	4,337	248,086	127,309
231,640	4,366	248,013	127,285
232,655	4,585	247,780	127,334
233,669	4,482	247,461	127,074
234,684	4,221	247,455	126,845
235,699	4,606	247,465	127,155
236,713	4,671	247,486	127,209
237,728	4,472	247,061	126,815
238,742	4,162	246,815	126,423
239,757	4,093	246,643	126,267
240,772	4,422	246,491	126,448
241,786	4,367	246,419	126,355
242,801	4,313	246,056	126,112
243,815	4,270	246,131	126,105
244,830	4,550	245,952	126,230
245,844	4,475	245,701	126,029
246,859	4,524	245,457	125,933
247,874	4,498	245,431	125,887
248,888	4,587	245,320	125,892
249,903	4,433	245,227	125,707
250,917	4,677	245,022	125,790
251,932	4,636	244,948	125,707
252,947	4,619	244,733	125,571
253,961	4,438	244,502	125,295
254,976	4,490	244,462	125,305
255,990	4,484	244,258	125,184
257,005	4,564	243,967	125,090
258,020	4,231	243,758	124,701
259,034	4,366	243,522	124,679
260,049	4,542	243,505	124,801
261,063	4,046	243,370	124,320
262,078	4,112	243,277	124,315
263,093	4,522	243,069	124,528
264,107	4,566	242,965	124,499
265,122	4,377	242,706	124,204
266,136	4,496	242,711	124,291
267,151	4,757	242,648	124,458
268,166	4,393	242,178	123,913
269,180	4,371	242,057	123,822
270,195	4,850	242,105	124,220
271,209	5,201	241,919	124,395
272,224	4,726	241,647	123,864
273,239	4,169	241,322	123,241
274,253	4,143	241,294	123,195
275,268	4,483	241,210	123,412
276,282	4,586	241,033	123,393
277,297	4,283	240,792	123,018
278,312	4,360	240,600	122,969
279,326	4,441	240,470	122,957
280,341	4,240	240,514	122,808
281,355	4,376	240,316	122,804
282,370	4,410	240,244	122,783
283,384	4,463	239,958	122,668
284,399	4,494	239,632	122,515
285,414	4,174	239,574	122,221
286,428	4,553	239,420	122,432
287,443	4,252	239,399	122,172
288,457	4,404	239,360	122,262
289,472	4,554	239,030	122,201
290,487	4,319	238,984	121,980
291,501	4,370	238,693	121,861
292,516	4,248	238,548	121,680
293,530	4,128	238,338	121,467
294,545	4,559	238,246	121,749
295,560	4,470	238,109	121,599
296,574	4,215	237,846	121,252
297,589	4,549	237,631	121,395
298,603	4,648	237,595	121,444
299,618	4,556	237,694	121,410
300,633	4,539	237,524	121,299
301,647	4,668	237,370	121,312
302,662	5,139	237,317	121,643
303,676	4,989	237,048	121,377
304,691	4,679	237,052	121,125
305,706	5,024	236,752	121,231
306,720	4,841	236,619	121,009
307,735	4,704	236,404	120,781
308,749	4,438	236,392	120,557
309,764	4,236	236,180	120,280
310,779	4,274	235,935	120,174
311,793	4,068	235,682	119,874
312,808	4,177	235,497	119,854
313,822	4,198	235,288	119,754
314,837	4,092	235,272	119,652
315,852	3,921	235,162	119,453
316,866	4,081	234,937	119,453
317,881	4,299	234,686	119,483
318,895	4,606	234,740	119,738
319,910	4,708	234,717	119,794
320,925	4,507	234,391	119,462
321,939	4,137	234,197	119,066
322,954	4,382	234,019	119,154
323,968	4,329	234,001	119,093
324,983	4,628	234,036	119,331
325,997	4,653	233,744	119,191
327,012	4,840	233,606	119,254
328,027	4,557	233,440	118,941
329,041	4,857	233,401	119,141
330,056	5,106	233,358	119,300
331,070	5,202	233,350	119,359
332,085	4,954	232,926	118,942
333,100	4,601	232,699	118,544
334,114	4,510	232,685	118,457
335,129	4,780	232,486	118,552
336,143	5,042	232,270	118,632
337,158	4,873	232,125	118,418
338,173	4,546	231,928	118,057
339,187	4,236	231,842	117,766
340,202	4,823	231,625	118,093
341,216	4,514	231,549	117,808
342,231	4,317	231,515	117,630
343,246	4,294	231,346	117,516
344,260	4,519	231,123	117,563
345,275	4,891	230,984	117,765
346,289	4,887	230,797	117,657
347,304	4,863	230,828	117,643
348,319	4,865	230,579	117,508
349,333	4,690	230,238	117,191
350,348	4,384	230,202	116,931
351,362	4,678	230,028	117,054
352,377	4,360	229,889	116,733
353,392	4,038	229,692	116,378
354,406	4,238	229,533	116,439
355,421	195,583	1317,805	1393,514
356,435	156,906	1450,354	1393,474
