DTS Sentinel unit serial number:	SN410029Multiplexer serial number:	ORYXHardware model number:	OX2-SRSoftware version number:	ORYX F/W v4,00 Oryx Data Collector v3.7.2.0data status	okinstallation	B5 Nyhavnadifferential loss correction	single-endedforward channel	channel 2reverse channel	N/Adate	2023/12/11time	21:12:13forward acquisition time	300,00reverse acquisition time	0,00gamma	499,1914k internal	0,3157k external	0,3157temperature offset calibration	1,0000default loss term (dB/km)	0,3820temperature slope calibration	1,0000multiplexer offset coefficient	1,0000multiplexer slope coefficient	1,0000fibre end	0,00T internal ref (°C)	16,18T ext. ref 1 (°C)	0,23T ext. ref 2 (°C)	-0,00length (m)	temperature (°C)	Stokes	anti-Stokes-744,400	-106,019	0,196	-0,032
-743,385	-200,000	-0,318	0,000
-742,371	678,954	0,044	0,085
-741,356	-120,926	-0,244	0,030
-740,342	86,912	0,079	0,064
-739,327	-74,310	-0,265	0,070
-738,312	267,157	0,086	-0,111
-737,298	-94,085	-0,358	-0,072
-736,283	-200,000	0,020	0,196
-735,269	-75,223	-0,384	0,100
-734,254	-200,000	0,013	0,068
-733,239	-22,560	-0,397	-0,176
-732,225	-15,578	0,236	-0,110
-731,210	-200,000	-0,010	0,136
-730,196	-27,450	0,038	-0,016
-729,181	-19,396	-0,059	-0,027
-728,167	721,975	-0,111	0,219
-727,152	-1,361	-0,054	0,028
-726,137	800,000	0,024	-0,051
-725,123	39,409	0,099	-0,065
-724,108	294,990	-0,151	-0,204
-723,094	-200,000	-0,019	-0,073
-722,079	-200,000	-0,005	0,020
-721,064	800,000	0,028	0,076
-720,050	50,894	-0,111	0,077
-719,035	37,594	-0,056	-0,037
-718,021	-200,000	-0,016	-0,142
-717,006	20,924	-0,039	0,023
-715,991	177,371	-0,166	-0,178
-714,977	476,647	-0,038	-0,063
-713,962	75,287	-0,119	-0,093
-712,948	-200,000	0,004	0,068
-711,933	17,990	0,035	0,020
-710,918	-200,000	-0,020	0,115
-709,904	161,978	-0,015	0,016
-708,889	-50,843	-0,090	-0,031
-707,875	188,588	0,006	-0,006
-706,860	99,078	0,023	-0,020
-705,845	281,823	-0,068	-0,090
-704,831	800,000	0,046	0,136
-703,816	-200,000	-0,020	0,075
-702,802	-200,000	-0,011	-0,083
-701,787	51,746	-0,092	0,064
-700,772	762,588	0,047	-0,095
-699,758	100,615	0,044	0,037
-698,743	72,825	0,120	-0,092
-697,729	-1,989	-0,127	-0,066
-696,714	-200,000	0,010	0,036
-695,699	-97,667	-0,079	0,015
-694,685	162,744	-0,106	-0,109
-693,670	27,754	-0,152	-0,094
-692,656	-40,616	-0,073	0,028
-691,641	-149,034	-0,021	0,001
-690,627	35,295	-0,094	-0,061
-689,612	800,000	-0,025	-0,067
-688,597	-107,977	-0,041	-0,006
-687,583	-85,788	-0,081	-0,018
-686,568	82,745	-0,059	-0,047
-685,554	132,627	0,031	-0,029
-684,539	647,064	0,064	0,120
-683,524	5,598	0,152	0,082
-682,510	-200,000	-0,010	-0,055
-681,495	156,455	-0,097	-0,098
-680,481	800,000	-0,021	0,047
-679,466	337,353	-0,141	-0,202
-678,451	40,962	-0,038	-0,025
-677,437	-195,013	-0,029	-0,000
-676,422	-200,000	-0,011	0,091
-675,408	-48,770	-0,062	-0,022
-674,393	-200,000	0,009	-0,065
-673,378	-135,628	-0,082	0,007
-672,364	-70,039	0,097	0,027
-671,349	800,000	0,026	-0,054
-670,335	800,000	0,031	-0,090
-669,320	-200,000	-0,007	0,078
-668,305	-110,086	-0,039	-0,006
-667,291	18,780	-0,098	-0,058
-666,276	-27,958	0,056	-0,024
-665,262	627,901	-0,054	-0,101
-664,247	210,077	0,048	-0,055
-663,232	-96,987	-0,074	0,014
-662,218	-200,000	-0,028	0,130
-661,203	-200,000	-0,030	-0,111
-660,189	-34,567	0,090	0,036
-659,174	269,072	0,039	-0,051
-658,159	-61,796	-0,207	0,063
-657,145	-95,209	0,056	-0,011
-656,130	-128,151	0,174	-0,018
-655,116	-41,925	0,146	-0,055
-654,101	-64,363	0,057	-0,017
-653,086	-138,847	-0,106	0,008
-652,072	-49,393	0,063	0,022
-651,057	169,517	-0,065	0,069
-650,043	207,284	0,081	-0,093
-649,028	217,357	0,040	-0,047
-648,014	295,565	-0,026	0,035
-646,999	-200,000	0,004	0,122
-645,984	-67,291	0,125	-0,036
-644,970	-167,299	-0,058	-0,002
-643,955	593,302	-0,095	-0,173
-642,941	-159,080	0,105	-0,004
-641,926	-86,098	0,048	-0,011
-640,911	-200,000	-0,030	0,112
-639,897	92,774	0,040	-0,033
-638,882	105,546	-0,066	-0,057
-637,868	14,716	-0,020	-0,011
-636,853	38,640	0,064	0,042
-635,838	-56,346	0,068	0,022
-634,824	89,392	-0,037	0,030
-633,809	-95,402	0,097	0,019
-632,795	-200,000	-0,006	0,080
-631,780	-200,000	-0,003	0,037
-630,765	521,933	0,049	0,085
-629,751	171,592	-0,053	0,056
-628,736	-43,226	-0,064	-0,024
-627,722	-80,697	-0,026	0,006
-626,707	-173,078	-0,032	-0,001
-625,692	42,980	-0,016	0,011
-624,678	-2,282	-0,065	-0,034
-623,663	5,114	0,025	0,014
-622,649	103,431	-0,039	-0,034
-621,634	-200,000	-0,011	-0,163
-620,619	120,853	0,054	-0,049
-619,605	662,631	0,018	-0,035
-618,590	-41,822	0,101	-0,038
-617,576	-200,000	-0,010	-0,046
-616,561	-28,815	-0,111	-0,046
-615,546	144,020	-0,123	-0,120
-614,532	800,000	-0,042	-0,112
-613,517	198,944	-0,065	-0,073
-612,503	-200,000	0,010	0,073
-611,488	-200,000	-0,008	-0,078
-610,474	-95,756	0,122	-0,024
-609,459	800,000	0,033	0,082
-608,444	273,486	-0,068	-0,088
-607,430	-79,240	0,038	-0,009
-606,415	800,000	-0,002	0,006
-605,401	800,000	-0,022	-0,046
-604,386	-83,290	0,045	-0,010
-603,371	21,723	0,054	0,032
-602,357	-48,731	-0,100	0,035
-601,342	-46,032	0,135	-0,048
-600,328	243,754	-0,047	-0,058
-599,313	160,071	0,070	-0,072
-598,298	-200,000	0,011	-0,066
-597,284	388,322	0,063	0,097
-596,269	-200,000	-0,019	0,184
-595,255	40,728	-0,043	-0,028
-594,240	77,951	-0,171	-0,134
-593,225	-20,032	0,081	0,037
-592,211	146,675	-0,161	0,159
-591,196	86,675	-0,044	0,035
-590,182	247,075	-0,023	0,029
-589,167	-5,205	0,105	-0,053
-588,152	-114,244	0,064	0,009
-587,138	139,040	-0,054	0,052
-586,123	86,813	0,018	-0,015
-585,109	800,000	0,050	0,152
-584,094	-123,700	-0,074	0,008
-583,079	800,000	-0,021	0,044
-582,065	-200,000	-0,002	0,071
-581,050	-200,000	0,004	0,071
-580,036	-200,000	-0,000	0,025
-579,021	458,315	-0,022	0,036
-578,006	-78,954	-0,020	0,005
-576,992	-200,000	-0,006	-0,043
-575,977	-114,081	-0,037	0,005
-574,963	44,373	-0,072	0,049
-573,948	517,335	0,016	-0,028
-572,934	116,279	-0,087	0,078
-571,919	560,012	-0,036	0,064
-570,904	800,000	-0,020	-0,051
-569,890	-37,796	-0,061	-0,024
-568,875	-200,000	0,018	-0,123
-567,861	51,275	0,100	-0,069
-566,846	328,321	0,047	0,066
-565,831	3,694	-0,040	0,021
-564,817	-200,000	0,017	-0,084
-563,802	-100,388	-0,063	0,011
-562,788	-59,994	-0,110	-0,034
-561,773	-200,000	-0,024	-0,092
-560,758	-104,194	-0,178	0,030
-559,744	-26,633	-0,052	0,022
-558,729	371,752	0,011	-0,016
-557,715	126,227	0,094	-0,087
-556,700	800,000	-0,014	0,032
-555,685	-98,451	-0,050	-0,009
-554,671	487,798	-0,023	0,038
-553,656	-200,000	0,010	0,039
-552,642	121,010	0,085	0,077
-551,627	623,908	0,038	0,070
-550,612	-200,000	0,023	0,097
-549,598	561,702	0,025	0,044
-548,583	48,394	-0,078	-0,054
-547,569	118,847	-0,068	-0,062
-546,554	155,144	-0,062	-0,063
-545,539	606,875	0,031	0,056
-544,525	690,110	-0,050	0,096
-543,510	-200,000	-0,046	0,181
-542,496	251,490	0,026	0,032
-541,481	-200,000	-0,015	-0,067
-540,466	47,276	0,075	0,051
-539,452	-107,738	-0,082	0,013
-538,437	-200,000	-0,004	0,017
-537,423	800,000	0,020	0,043
-536,408	53,797	-0,090	-0,063
-535,393	269,513	0,076	-0,098
-534,379	-200,000	0,012	-0,053
-533,364	335,836	0,099	-0,141
-532,350	-200,000	0,004	0,034
-531,335	10,806	0,116	0,065
-530,321	-43,220	-0,105	0,039
-529,306	14,109	-0,092	-0,052
-528,291	-200,000	0,017	-0,150
-527,277	532,560	-0,030	-0,053
-526,262	-200,000	-0,006	0,044
-525,248	202,828	-0,019	0,021
-524,233	49,622	0,159	0,109
-523,218	506,041	-0,055	-0,094
-522,204	1,652	0,044	0,023
-521,189	-200,000	-0,011	0,105
-520,175	230,386	-0,068	-0,082
-519,160	800,000	-0,031	0,072
-518,145	42,115	0,066	-0,044
-517,131	800,000	-0,010	0,021
-516,116	800,000	0,011	0,032
-515,102	-200,000	0,012	0,063
-514,087	-151,753	-0,150	0,008
-513,072	-45,734	-0,091	0,033
-512,058	-148,358	0,101	0,006
-511,043	-200,000	-0,013	0,154
-510,029	29,451	0,048	0,030
-509,014	800,000	-0,030	0,061
-507,999	-200,000	-0,016	0,094
-506,985	-55,435	-0,178	-0,058
-505,970	-46,482	0,125	-0,045
-504,956	45,501	0,120	-0,081
-503,941	206,285	-0,013	0,015
-502,926	-141,342	0,078	-0,006
-501,912	288,061	0,067	0,089
-500,897	692,425	-0,034	-0,066
-499,883	65,796	0,064	0,048
-498,868	96,509	-0,145	-0,121
-497,853	-3,869	0,036	-0,018
-496,839	372,119	-0,031	-0,046
-495,824	800,000	0,027	0,066
-494,810	244,366	0,047	0,058
-493,795	-102,643	0,109	-0,019
-492,781	800,000	0,002	0,004
-491,766	-89,242	0,092	-0,020
-490,751	61,703	-0,052	-0,038
-489,737	86,876	-0,020	-0,016
-488,722	218,545	0,014	0,017
-487,708	39,382	0,050	-0,033
-486,693	40,958	-0,026	0,017
-485,678	-200,000	0,001	0,011
-484,664	118,724	-0,061	0,055
-483,649	488,280	-0,037	0,061
-482,635	-57,683	0,131	-0,042
-481,620	20,676	-0,052	0,031
-480,605	800,000	-0,022	-0,055
-479,591	98,331	-0,094	0,079
-478,576	-102,062	-0,086	-0,015
-477,562	194,633	0,061	-0,067
-476,547	-39,992	0,072	-0,027
-475,532	-48,763	-0,075	-0,026
-474,518	47,370	0,061	-0,041
-473,503	91,392	0,099	-0,081
-472,489	-101,025	-0,067	0,012
-471,474	-200,000	-0,017	0,057
-470,459	-92,916	0,153	0,031
-469,445	-38,846	-0,102	-0,039
-468,430	103,633	-0,082	-0,070
-467,416	-200,000	-0,026	0,117
-466,401	235,821	0,103	0,125
-465,386	-22,998	-0,131	-0,058
-464,372	12,432	-0,163	0,091
-463,357	-200,000	-0,008	-0,030
-462,343	-200,000	-0,033	-0,143
-461,328	800,000	0,051	-0,152
-460,313	-137,053	0,229	0,019
-459,299	800,000	-0,058	0,123
-458,284	800,000	0,018	-0,041
-457,270	485,830	-0,084	-0,139
-456,255	329,669	-0,062	0,087
-455,241	-200,000	0,028	0,124
-454,226	-105,025	-0,081	-0,013
-453,211	-200,000	0,002	-0,028
-452,197	75,979	0,117	0,090
-451,182	-125,749	0,074	-0,008
-450,168	-200,000	-0,005	0,050
-449,153	274,252	0,044	-0,057
-448,138	273,135	-0,034	0,044
-447,124	-21,349	0,018	-0,008
-446,109	212,615	-0,029	-0,033
-445,095	-200,000	-0,002	0,033
-444,080	800,000	0,011	-0,035
-443,065	-118,993	0,083	-0,010
-442,051	-200,000	-0,013	0,148
-441,036	800,000	0,018	0,046
-440,022	-200,000	-0,014	-0,160
-439,007	334,646	0,051	-0,073
-437,992	64,630	0,071	-0,052
-436,978	400,001	-0,063	0,096
-435,963	800,000	-0,029	0,075
-434,949	-200,000	-0,003	0,071
-433,934	-9,906	-0,117	0,056
-432,919	800,000	0,028	-0,077
-431,905	800,000	-0,040	-0,089
-430,890	-200,000	0,007	0,078
-429,876	243,461	-0,070	0,085
-428,861	-150,587	0,086	0,005
-427,846	800,000	-0,030	-0,069
-426,832	-76,234	-0,110	-0,028
-425,817	-146,617	0,082	-0,005
-424,803	52,526	0,123	-0,085
-423,788	-80,960	-0,133	-0,032
-422,773	-95,729	0,121	-0,023
-421,759	394,713	0,007	-0,011
-420,744	800,000	0,020	0,051
-419,730	-8,822	0,028	0,013
-418,715	231,188	-0,097	-0,116
-417,701	-200,000	0,021	-0,130
-416,686	-43,449	-0,118	-0,043
-415,671	-10,658	0,075	0,036
-414,657	800,000	-0,042	0,091
-413,642	156,155	-0,035	0,035
-412,628	-200,000	-0,007	-0,157
-411,613	-15,797	-0,092	0,043
-410,598	128,682	-0,058	0,054
-409,584	-200,000	0,007	0,073
-408,569	-200,000	0,015	0,081
-407,555	18,295	0,035	0,020
-406,540	762,119	-0,022	0,043
-405,525	-200,000	-0,004	-0,071
-404,511	112,813	-0,037	-0,033
-403,496	800,000	0,057	-0,168
-402,482	-39,672	-0,118	0,045
-401,467	60,711	0,055	-0,039
-400,452	-65,027	0,079	-0,023
-399,438	276,381	0,048	-0,062
-398,423	-200,000	-0,049	-0,161
-397,409	-76,355	0,051	-0,013
-396,394	-200,000	0,015	-0,047
-395,379	12,780	0,015	-0,008
-394,365	800,000	0,053	-0,111
-393,350	478,865	0,076	0,126
-392,336	147,451	-0,048	0,047
-391,321	80,693	-0,083	0,065
-390,306	4,551	-0,075	0,040
-389,292	315,072	-0,144	-0,197
-388,277	-188,519	-0,006	0,000
-387,263	-28,508	0,061	0,025
-386,248	-117,666	0,038	-0,005
-385,233	28,972	0,042	-0,026
-384,219	-200,000	0,012	-0,039
-383,204	62,627	-0,074	0,054
-382,190	-97,226	-0,056	0,011
-381,175	105,312	-0,042	-0,036
-380,160	-13,688	-0,044	-0,020
-379,146	320,651	0,026	0,036
-378,131	-200,000	0,006	0,139
-377,117	-139,146	-0,058	-0,004
-376,102	-54,318	-0,073	0,024
-375,088	291,043	0,028	-0,037
-374,073	314,019	-0,010	-0,013
-373,058	800,000	0,019	0,051
-372,044	-68,351	0,042	-0,012
-371,029	-200,000	0,002	0,113
-370,015	-200,000	-0,008	0,030
-369,000	117,982	-0,084	0,075
-367,985	800,000	0,035	-0,084
-366,971	800,000	0,031	0,085
-365,956	54,362	0,067	0,047
-364,942	-13,823	0,086	-0,040
-363,927	550,791	-0,040	0,070
-362,912	271,441	0,043	0,055
-361,898	800,000	0,022	0,045
-360,883	-113,564	-0,076	-0,011
-359,869	-200,000	0,025	-0,170
-358,854	110,886	-0,029	0,025
-357,839	-200,000	0,018	0,061
-356,825	-200,000	-0,005	0,089
-355,810	-49,894	-0,142	-0,049
-354,796	737,787	-0,052	-0,101
-353,781	431,520	0,016	0,026
-352,766	12,207	-0,032	-0,018
-351,752	98,397	0,038	-0,032
-350,737	211,284	0,039	-0,044
-349,723	321,716	0,041	0,057
-348,708	57,149	0,008	-0,006
-347,693	-178,528	0,109	-0,002
-346,679	-200,000	-0,022	-0,180
-345,664	359,872	0,031	-0,045
-344,650	39,038	-0,177	-0,115
-343,635	-14,141	0,065	-0,031
-342,620	109,975	0,083	0,073
-341,606	-200,000	-0,012	-0,125
-340,591	173,945	0,067	0,070
-339,577	113,038	-0,057	-0,050
-338,562	-200,000	-0,011	-0,092
-337,548	84,553	-0,035	0,028
-336,533	297,157	0,023	-0,031
-335,518	297,052	0,040	-0,053
-334,504	-57,346	0,072	0,023
-333,489	-200,000	-0,005	0,019
-332,475	438,415	-0,009	-0,014
-331,460	-64,667	-0,041	0,012
-330,445	-43,960	0,117	0,042
-329,431	389,021	0,073	0,109
-328,416	60,784	0,087	0,063
-327,402	-97,717	0,131	0,024
-326,387	-36,361	0,118	-0,046
-325,372	-200,000	-0,009	-0,077
-324,358	-200,000	0,014	-0,053
-323,343	86,927	-0,094	0,075
-322,329	51,020	-0,058	-0,040
-321,314	-159,663	0,180	0,007
-320,299	-200,000	-0,002	0,050
-319,285	-200,000	0,025	-0,092
-318,270	-41,834	0,049	-0,018
-317,256	17,557	-0,085	0,049
-316,241	632,931	0,009	0,016
-315,226	800,000	0,051	0,113
-314,212	-200,000	0,019	-0,116
-313,197	167,770	0,064	-0,066
-312,183	232,260	-0,060	0,071
-311,168	-200,000	0,015	-0,103
-310,153	281,394	0,056	-0,073
-309,139	243,092	0,015	-0,018
-308,124	-107,034	0,102	-0,016
-307,110	324,639	-0,080	-0,110
-306,095	-200,000	0,007	-0,063
-305,080	65,322	-0,078	-0,057
-304,066	800,000	0,033	-0,099
-303,051	-69,051	0,052	0,014
-302,037	-200,000	0,031	-0,111
-301,022	-84,179	-0,042	-0,010
-300,008	14,831	-0,037	-0,021
-298,993	800,000	-0,020	-0,049
-297,978	104,741	-0,079	-0,067
-296,964	208,745	0,062	-0,070
-295,949	-119,481	0,165	-0,020
-294,935	-128,357	-0,085	0,009
-293,920	-98,516	0,063	0,012
-292,905	40,203	-0,106	-0,069
-291,891	-200,000	0,023	0,129
-290,876	162,548	-0,064	0,065
-289,862	-47,808	0,123	0,043
-288,847	20,030	-0,076	0,044
-287,832	-35,196	-0,094	-0,037
-286,818	316,337	-0,023	0,031
-285,803	4,580	0,175	0,092
-284,789	-40,863	0,053	0,020
-283,774	128,743	0,056	0,051
-282,759	-39,937	-0,055	-0,021
-281,745	-194,113	0,046	-0,000
-280,730	-72,388	-0,051	0,014
-279,716	-200,000	-0,009	0,054
-278,701	-70,994	0,037	-0,010
-277,686	152,850	-0,051	-0,051
-276,672	-125,991	0,170	-0,018
-275,657	-200,000	-0,005	0,026
-274,643	224,478	-0,053	-0,063
-273,628	-51,350	-0,079	-0,027
-272,613	762,424	0,012	0,023
-271,599	166,356	-0,055	-0,056
-270,584	-200,000	-0,046	0,228
-269,570	96,483	0,049	-0,041
-268,555	374,191	-0,015	-0,022
-267,540	155,652	0,025	-0,025
-266,526	647,261	0,016	0,029
-265,511	-5,760	-0,136	-0,067
-264,497	-200,000	0,006	0,120
-263,482	18,028	0,072	0,042
-262,467	80,083	0,025	0,020
-261,453	-200,000	0,007	0,039
-260,438	800,000	0,054	-0,166
-259,424	800,000	0,054	-0,119
-258,409	203,936	-0,077	-0,087
-257,395	-54,664	-0,016	-0,005
-256,380	9,365	0,091	-0,050
-255,365	-127,020	-0,047	0,005
-254,351	365,278	-0,062	0,090
-253,336	-200,000	0,007	0,070
-252,322	676,222	-0,056	0,106
-251,307	-141,344	-0,069	0,005
-250,292	-200,000	-0,014	0,063
-249,278	-200,000	-0,004	-0,042
-248,263	661,544	0,087	0,162
-247,249	65,304	-0,039	-0,029
-246,234	800,000	0,028	0,071
-245,219	5,733	-0,098	-0,052
-244,205	-200,000	0,008	-0,090
-243,190	-200,000	-0,002	-0,127
-242,176	113,093	-0,049	0,043
-241,161	652,395	0,070	0,130
-240,146	-200,000	-0,006	0,142
-239,132	-82,669	-0,050	0,012
-238,117	-99,342	-0,055	-0,010
-237,103	217,667	-0,093	-0,107
-236,088	303,289	-0,009	-0,012
-235,073	-200,000	-0,004	0,167
-234,059	633,046	0,036	-0,067
-233,044	70,997	0,018	-0,013
-232,030	800,000	0,072	0,203
-231,015	-98,079	0,123	0,023
-230,000	800,000	0,007	-0,015
-228,986	69,738	-0,073	0,054
-227,971	-200,000	0,002	-0,062
-226,957	-95,287	0,192	0,037
-225,942	368,242	-0,096	0,141
-224,927	217,878	0,046	-0,053
-223,913	159,165	0,016	0,016
-222,898	-200,000	-0,032	0,127
-221,884	-200,000	0,005	-0,100
-220,869	800,000	0,066	0,167
-219,855	-39,580	0,074	-0,028
-218,840	291,022	0,073	-0,096
-217,825	-200,000	-0,004	0,036
-216,811	800,000	-0,061	-0,185
-215,796	17,955	-0,113	-0,065
-214,782	27,043	0,020	-0,012
-213,767	195,228	0,085	-0,094
-212,752	-200,000	-0,013	-0,046
-211,738	-200,000	0,021	0,102
-210,723	120,678	0,061	0,054
-209,709	122,501	-0,156	-0,140
-208,694	126,632	0,068	-0,062
-207,679	-200,000	-0,029	-0,173
-206,665	-78,063	0,066	0,016
-205,650	94,320	0,081	-0,066
-204,636	-200,000	-0,032	0,141
-203,621	-200,000	-0,010	-0,053
-202,606	540,756	0,056	0,096
-201,592	-63,947	-0,145	0,043
-200,577	-200,000	0,009	-0,080
-199,563	156,412	0,119	0,118
-198,548	800,000	0,011	0,033
-197,533	351,510	0,081	0,116
-196,519	-144,598	0,108	-0,007
-195,504	-126,465	-0,079	-0,008
-194,490	-80,153	-0,032	0,008
-193,475	95,273	-0,104	-0,086
-192,460	79,797	0,073	0,056
-191,446	-200,000	0,014	-0,048
-190,431	800,000	0,034	0,094
-189,417	84,484	-0,108	0,085
-188,402	-200,000	0,002	0,023
-187,387	230,125	-0,055	0,065
-186,373	148,152	-0,060	0,059
-185,358	-200,000	0,029	0,143
-184,344	-82,260	0,043	0,010
-183,329	267,882	0,062	0,078
-182,315	298,396	-0,109	0,145
-181,300	352,663	-0,019	-0,027
-180,285	-24,580	0,082	-0,035
-179,271	98,680	-0,066	-0,055
-178,256	771,206	0,002	-0,005
-177,242	-13,744	0,073	-0,034
-176,227	-12,595	0,135	0,063
-175,212	328,182	0,084	0,116
-174,198	-27,155	0,023	-0,009
-173,183	-113,385	-0,030	-0,004
-172,169	-110,243	-0,142	-0,021
-171,154	-200,000	-0,026	-0,156
-170,139	-200,000	0,010	0,099
-169,125	571,644	0,001	-0,002
-168,110	-55,084	0,183	0,059
-167,096	-105,153	-0,098	0,016
-166,081	-140,901	-0,152	-0,011
-165,066	-27,139	-0,066	-0,027
-164,052	602,987	-0,073	-0,131
-163,037	179,446	0,084	0,089
-162,023	-200,000	-0,028	-0,112
-161,008	257,414	0,124	-0,153
-159,993	-88,999	-0,162	0,034
-158,979	800,000	0,011	0,024
-157,964	800,000	-0,017	-0,052
-156,950	-129,742	0,037	0,004
-155,935	-200,000	0,026	0,090
-154,920	-200,000	0,019	0,139
-153,906	393,810	0,082	-0,123
-152,891	788,370	-0,055	-0,110
-151,877	-16,951	-0,082	0,037
-150,862	-200,000	-0,019	-0,093
-149,847	-96,211	-0,103	-0,019
-148,833	29,079	-0,049	-0,030
-147,818	256,505	-0,043	0,053
-146,804	-200,000	-0,018	-0,062
-145,789	88,910	-0,177	0,142
-144,775	-45,081	-0,074	-0,026
-143,760	286,506	-0,031	-0,040
-142,745	-200,000	0,004	-0,071
-141,731	-200,000	0,009	0,116
-140,716	-47,823	-0,045	0,016
-139,702	800,000	-0,037	0,106
-138,687	-56,124	-0,064	-0,020
-137,672	-154,515	-0,067	-0,003
-136,658	800,000	-0,048	-0,129
-135,643	609,223	0,020	-0,036
-134,629	-200,000	-0,007	-0,067
-133,614	800,000	-0,042	-0,092
-132,599	-116,735	0,205	-0,027
-131,585	87,960	0,054	0,043
-130,570	-145,118	0,066	0,004
-129,556	0,009	-0,121	-0,062
-128,541	640,547	-0,050	0,091
-127,526	253,334	-0,064	-0,079
-126,512	-175,058	0,146	0,003
-125,497	-136,568	0,074	-0,006
-124,483	-148,264	-0,021	0,001
-123,468	-200,000	-0,031	0,126
-122,453	170,037	-0,076	-0,078
-121,439	613,970	-0,052	-0,094
-120,424	146,072	0,083	0,080
-119,410	-200,000	-0,019	-0,110
-118,395	-114,934	0,152	-0,021
-117,380	800,000	0,027	-0,077
-116,366	800,000	-0,025	-0,056
-115,351	-59,362	-0,110	-0,034
-114,337	458,020	-0,043	-0,069
-113,322	-86,412	-0,127	0,028
-112,307	474,886	-0,029	0,047
-111,293	550,525	0,038	-0,065
-110,278	-65,345	0,056	-0,016
-109,264	583,482	0,047	-0,083
-108,249	-200,000	-0,007	-0,035
-107,234	-200,000	-0,015	-0,140
-106,220	73,165	-0,042	-0,032
-105,205	-94,840	0,008	0,001
-104,191	-200,000	0,021	0,089
-103,176	-44,267	0,078	-0,028
-102,162	177,034	-0,073	0,076
-101,147	75,985	0,041	0,031
-100,132	-64,550	0,098	-0,028
-99,118	-15,311	0,069	0,032
-98,103	800,000	-0,026	-0,056
-97,089	-200,000	0,026	-0,121
-96,074	103,526	-0,032	0,027
-95,059	-129,149	0,082	0,008
-94,045	-53,885	-0,132	-0,043
-93,030	276,791	-0,066	0,085
-92,016	-86,256	-0,098	0,022
-91,001	-200,000	0,032	0,125
-89,986	218,035	0,057	-0,066
-88,972	255,521	0,047	-0,058
-87,957	-200,000	-0,006	-0,053
-86,943	484,358	-0,024	0,039
-85,928	-84,210	-0,120	0,027
-84,913	39,073	-0,022	-0,014
-83,899	-112,057	-0,085	-0,012
-82,884	-70,454	0,075	0,020
-81,870	83,910	0,058	0,046
-80,855	48,253	0,067	0,045
-79,840	-36,416	0,092	0,035
-78,826	-200,000	-0,017	0,054
-77,811	-200,000	0,004	0,093
-76,797	311,961	0,064	0,087
-75,782	800,000	0,032	0,099
-74,767	15,165	0,040	0,022
-73,753	-162,720	-0,124	-0,004
-72,738	-16,835	0,022	-0,010
-71,724	-200,000	-0,009	0,044
-70,709	22,809	-0,112	-0,065
-69,694	-200,000	-0,009	0,084
-68,680	195,853	-0,050	0,055
-67,665	-200,000	0,018	0,143
-66,651	38,343	-0,072	0,046
-65,636	159,784	0,106	-0,106
-64,622	800,000	-0,025	0,051
-63,607	-200,000	-0,146	0,000
-62,592	55,063	-0,064	-0,044
-61,578	800,000	-0,026	-0,066
-60,563	21,375	0,170	0,099
-59,549	89,832	-0,066	0,053
-58,534	-1,210	-1,993	-1,008
-57,519	800,000	-0,366	-1,066
-56,505	-200,000	-1,124	-4,782
-55,490	-37,575	0,786	0,299
-54,476	800,000	5,439	12,156
-53,461	-200,000	17,095	280,790
-52,446	800,000	720,271	2224,024
-51,432	545,525	1635,897	2817,439
-50,417	112,991	1630,680	1418,470
-49,403	76,446	1287,774	978,552
-48,388	33,289	1030,404	640,323
-47,373	20,381	991,927	573,775
-46,359	18,962	980,434	562,439
-45,344	16,552	976,195	552,081
-44,330	16,690	974,772	551,708
-43,315	16,222	973,176	549,249
-42,300	16,213	971,991	548,530
-41,286	16,186	970,938	547,827
-40,271	16,189	969,978	547,271
-39,257	16,228	968,999	546,825
-38,242	16,224	968,204	546,341
-37,227	16,177	967,429	545,728
-36,213	16,190	966,457	545,204
-35,198	16,218	965,529	544,748
-34,184	16,219	964,965	544,411
-33,169	16,211	963,785	543,700
-32,154	16,270	962,821	543,323
-31,140	16,235	962,035	542,746
-30,125	16,287	961,153	542,395
-29,111	16,294	960,278	541,902
-28,096	16,235	960,038	541,556
-27,082	16,288	959,118	541,184
-26,067	16,216	958,601	540,639
-25,052	16,233	957,509	540,057
-24,038	16,153	956,906	539,438
-23,023	16,165	956,430	539,189
-22,009	16,253	955,584	538,973
-20,994	16,270	955,146	538,757
-19,979	16,290	954,406	538,381
-18,965	16,179	953,940	537,743
-17,950	16,264	953,224	537,590
-16,936	16,199	952,594	537,006
-15,921	16,176	951,992	536,572
-14,906	16,077	951,144	535,755
-13,892	16,082	950,518	535,396
-12,877	16,056	949,903	534,945
-11,863	16,004	949,388	534,468
-10,848	16,053	948,814	534,281
-9,833	16,168	948,115	534,233
-8,819	16,105	947,712	533,785
-7,804	16,080	946,910	533,231
-6,790	16,086	946,305	532,888
-5,775	16,122	945,772	532,683
-4,760	16,146	945,019	532,312
-3,746	16,100	944,503	531,855
-2,731	15,969	943,823	531,034
-1,717	15,929	943,226	530,552
-0,702	15,929	942,601	530,179
0,313	15,780	941,839	530,078
1,327	19,025	939,691	539,070
2,342	28,079	797,632	481,644
3,356	25,047	461,099	273,753
4,371	-2,339	314,854	157,803
5,386	-6,369	296,530	144,525
6,400	-8,373	290,501	139,583
7,415	-8,862	288,041	137,907
8,429	-8,861	286,490	137,153
9,444	-9,118	285,692	136,508
10,459	-9,024	285,091	136,300
11,473	-9,003	284,439	135,997
12,488	-8,892	283,955	135,860
13,502	-8,995	283,502	135,532
14,517	-9,107	283,083	135,212
15,531	-9,079	282,604	134,998
16,546	-9,025	281,992	134,746
17,561	-8,966	281,711	134,656
18,575	-9,164	281,316	134,265
19,590	-9,066	280,866	134,132
20,604	-9,089	280,710	134,023
21,619	-9,339	280,332	133,591
22,634	-9,220	280,074	133,570
23,648	-9,312	279,607	133,248
24,663	-9,283	279,580	133,251
25,677	-9,301	279,220	133,050
26,692	-9,175	278,971	133,040
27,707	-9,104	278,571	132,905
28,721	-9,179	278,308	132,696
29,736	-9,281	278,184	132,529
30,750	-9,244	277,885	132,409
31,765	-9,261	277,610	132,250
32,780	-9,151	277,621	132,348
33,794	-9,418	277,249	131,906
34,809	-9,173	276,773	131,900
35,823	-9,315	276,503	131,625
36,838	-9,473	276,431	131,429
37,853	-9,169	275,962	131,481
38,867	-9,272	275,779	131,286
39,882	-9,346	275,556	131,098
40,896	-9,181	275,415	131,175
41,911	-9,081	274,933	131,027
42,926	-9,142	274,767	130,879
43,940	-9,353	274,591	130,585
44,955	-9,227	274,329	130,568
45,969	-9,271	274,275	130,489
46,984	-9,430	273,906	130,153
47,999	-9,787	273,686	129,703
49,013	-9,697	273,386	129,634
50,028	-9,775	273,083	129,407
51,042	-9,851	272,763	129,172
52,057	-10,051	272,650	128,922
53,071	-9,852	272,363	128,959
54,086	-9,635	272,245	129,093
55,101	-9,573	272,078	129,060
56,115	-9,547	271,934	129,004
57,130	-9,154	271,919	129,350
58,144	-9,050	271,648	129,305
59,159	-8,974	271,310	129,203
60,174	-9,033	271,235	129,101
61,188	-9,212	271,053	128,838
62,203	-9,224	270,868	128,728
63,217	-9,171	270,463	128,572
64,232	-8,977	270,201	128,614
65,247	-8,965	270,049	128,542
66,261	-9,057	269,885	128,369
67,276	-9,208	269,434	128,004
68,290	-9,335	269,158	127,745
69,305	-9,481	269,059	127,553
70,320	-9,318	268,881	127,606
71,334	-9,171	268,502	127,549
72,349	-9,095	268,691	127,697
73,363	-8,980	268,259	127,585
74,378	-8,937	268,162	127,567
75,393	-9,190	267,838	127,171
76,407	-9,110	267,607	127,123
77,422	-8,982	267,403	127,131
78,436	-9,049	267,328	127,023
79,451	-9,157	267,152	126,830
80,466	-8,920	266,648	126,794
81,480	-9,342	266,633	126,394
82,495	-9,346	266,295	126,218
83,509	-9,015	266,026	126,379
84,524	-9,317	265,921	126,045
85,539	-9,265	265,554	125,906
86,553	-9,441	265,318	125,625
87,568	-9,307	265,266	125,709
88,582	-9,271	264,999	125,605
89,597	-9,266	264,772	125,489
90,611	-9,191	264,807	125,562
91,626	-8,867	264,583	125,737
92,641	-9,051	264,388	125,467
93,655	-9,046	264,092	125,321
94,670	-9,296	263,941	125,014
95,684	-9,360	263,548	124,759
96,699	-9,199	263,565	124,899
97,714	-9,191	263,230	124,737
98,728	-9,290	263,027	124,541
99,743	-9,315	262,832	124,416
100,757	-9,447	262,628	124,190
101,772	-9,273	262,357	124,206
102,787	-9,284	262,276	124,146
103,801	-9,178	262,072	124,133
104,816	-9,188	261,964	124,062
105,830	-9,093	261,775	124,046
106,845	-9,000	261,623	124,046
107,860	-9,143	261,333	123,770
108,874	-9,160	261,167	123,665
109,889	-9,189	260,942	123,522
110,903	-9,116	260,738	123,479
111,918	-9,086	260,519	123,391
112,933	-9,065	260,310	123,300
113,947	-9,131	260,220	123,188
114,962	-9,098	260,092	123,145
115,976	-9,098	259,687	122,943
116,991	-9,048	259,588	122,929
118,006	-8,938	259,448	122,948
119,020	-8,912	259,270	122,875
120,035	-9,050	259,249	122,733
121,049	-8,873	258,968	122,744
122,064	-8,917	258,822	122,626
123,079	-8,983	258,425	122,369
124,093	-9,070	258,280	122,213
125,108	-9,097	257,920	122,009
126,122	-9,388	257,897	121,733
127,137	-9,457	257,543	121,495
128,151	-9,439	257,442	121,452
129,166	-9,269	257,227	121,488
130,181	-9,322	257,156	121,397
131,195	-9,483	256,789	121,073
132,210	-9,251	256,816	121,276
133,224	-9,152	256,544	121,224
134,239	-8,931	256,412	121,342
135,254	-8,976	256,263	121,222
136,268	-8,947	255,926	121,077
137,283	-9,403	255,538	120,488
138,297	-9,516	255,365	120,298
139,312	-9,509	255,066	120,152
140,327	-9,221	255,124	120,417
141,341	-8,996	255,012	120,548
142,356	-8,896	254,887	120,564
143,370	-8,906	254,790	120,499
144,385	-8,891	254,462	120,346
145,400	-8,674	254,385	120,486
146,414	-8,888	254,100	120,156
147,429	-8,976	254,009	120,026
148,443	-8,981	253,800	119,913
149,458	-8,911	253,607	119,871
150,473	-8,931	253,418	119,755
151,487	-8,861	253,063	119,636
152,502	-8,957	253,119	119,569
153,516	-8,911	252,812	119,453
154,531	-8,743	252,606	119,488
155,546	-8,974	252,515	119,238
156,560	-8,862	252,309	119,225
157,575	-8,971	252,079	119,013
158,589	-8,955	251,915	118,938
159,604	-8,779	251,732	118,991
160,619	-8,982	251,628	118,759
161,633	-9,063	251,560	118,647
162,648	-8,814	251,436	118,790
163,662	-8,858	251,166	118,614
164,677	-8,824	250,985	118,547
165,692	-8,848	250,821	118,439
166,706	-9,073	250,790	118,223
167,721	-9,025	250,479	118,106
168,735	-8,864	250,335	118,164
169,750	-9,043	250,195	117,937
170,764	-8,884	250,135	118,031
171,779	-8,857	249,916	117,941
172,794	-8,835	249,682	117,838
173,808	-8,633	249,441	117,883
174,823	-9,233	249,121	117,218
175,837	-9,526	249,004	116,906
176,852	-9,058	248,889	117,234
177,867	-8,744	248,800	117,445
178,881	-8,811	248,692	117,328
179,896	-8,692	248,409	117,284
180,910	-9,163	248,386	116,868
181,925	-8,676	248,248	117,200
182,940	-8,776	247,996	116,987
183,954	-8,723	247,692	116,877
184,969	-8,610	247,675	116,954
185,983	-8,610	247,464	116,843
186,998	-8,708	247,300	116,674
188,013	-8,635	247,178	116,667
189,027	-8,650	246,921	116,522
190,042	-8,825	246,784	116,302
191,056	-8,747	246,459	116,203
192,071	-8,773	246,324	116,107
193,086	-8,851	246,247	115,996
194,100	-8,658	246,106	116,080
195,115	-8,748	245,917	115,905
196,129	-8,782	245,744	115,785
197,144	-8,633	245,400	115,736
198,159	-8,677	245,416	115,697
199,173	-8,771	245,130	115,474
200,188	-8,864	245,004	115,328
201,202	-9,014	244,731	115,066
202,217	-9,502	244,584	114,585
203,232	-9,532	244,259	114,398
204,246	-8,873	244,249	114,924
205,261	-8,398	244,164	115,264
206,275	-8,988	243,811	114,603
207,290	-6,116	245,016	117,524
208,304	-0,779	246,806	122,789
209,319	1,578	247,218	124,931
210,334	2,070	247,156	125,295
211,348	2,338	247,168	125,511
212,363	2,529	247,094	125,621
213,377	2,928	246,981	125,881
214,392	2,768	246,909	125,700
215,407	2,559	246,882	125,503
216,421	2,643	246,595	125,416
217,436	3,041	246,432	125,649
218,450	2,874	246,309	125,438
219,465	2,563	245,870	124,948
220,480	2,543	245,772	124,870
221,494	2,699	245,640	124,920
222,509	2,944	245,642	125,111
223,523	2,794	245,246	124,775
224,538	2,091	245,091	124,111
225,553	2,358	244,914	124,228
226,567	2,446	244,776	124,219
227,582	2,445	244,789	124,213
228,596	2,536	244,627	124,194
229,611	2,306	244,381	123,871
230,626	2,287	244,100	123,702
231,640	2,142	244,075	123,560
232,655	2,350	243,833	123,595
233,669	2,305	243,702	123,482
234,684	2,220	243,515	123,307
235,699	3,041	243,458	123,933
236,713	2,678	243,312	123,554
237,728	2,505	243,004	123,246
238,742	2,259	243,009	123,038
239,757	2,410	242,731	123,009
240,772	2,652	242,520	123,086
241,786	2,559	242,309	122,893
242,801	2,478	242,238	122,781
243,815	2,193	241,972	122,406
244,830	2,554	241,978	122,688
245,844	2,664	241,862	122,708
246,859	2,382	241,678	122,376
247,874	2,443	241,598	122,374
248,888	2,702	241,307	122,424
249,903	2,506	241,206	122,204
250,917	2,704	241,160	122,329
251,932	2,816	240,960	122,306
252,947	2,686	240,825	122,123
253,961	2,288	240,598	121,678
254,976	2,651	240,386	121,850
255,990	2,902	240,200	121,946
257,005	2,555	239,956	121,534
258,020	2,327	239,838	121,282
259,034	2,378	239,798	121,291
260,049	2,584	239,620	121,355
261,063	2,289	239,497	121,047
262,078	2,400	239,270	121,009
263,093	2,652	239,200	121,163
264,107	2,612	239,084	121,062
265,122	2,363	238,799	120,709
266,136	2,765	238,661	120,948
267,151	2,849	238,621	120,983
268,166	2,350	238,496	120,514
269,180	2,275	238,146	120,267
270,195	2,921	238,210	120,800
271,209	2,879	238,269	120,785
272,224	2,572	237,842	120,316
273,239	2,127	237,536	119,799
274,253	2,408	237,378	119,931
275,268	2,446	237,426	119,974
276,282	2,663	237,204	120,022
277,297	2,447	236,844	119,659
278,312	2,625	236,880	119,807
279,326	2,437	236,860	119,638
280,341	2,503	236,560	119,528
281,355	2,731	236,394	119,612
282,370	2,783	236,192	119,539
283,384	2,611	236,212	119,404
284,399	2,513	235,949	119,184
285,414	2,225	235,831	118,888
286,428	2,576	235,705	119,089
287,443	2,598	235,537	119,010
288,457	2,681	235,519	119,056
289,472	2,792	235,468	119,106
290,487	2,439	235,010	118,588
291,501	2,333	234,894	118,437
292,516	2,158	234,665	118,174
293,530	2,165	234,477	118,075
294,545	2,451	234,539	118,318
295,560	2,706	234,364	118,417
296,574	2,355	233,963	117,932
297,589	2,456	233,863	117,949
298,603	2,800	233,927	118,238
299,618	2,893	233,704	118,187
300,633	2,537	233,820	117,959
301,647	3,018	233,605	118,212
302,662	3,351	233,438	118,375
303,676	3,029	233,462	118,127
304,691	2,820	233,118	117,782
305,706	2,890	232,905	117,716
306,720	2,879	232,771	117,630
307,735	2,866	232,661	117,554
308,749	2,526	232,446	117,174
309,764	2,344	232,344	116,971
310,779	2,475	231,927	116,852
311,793	2,332	231,903	116,720
312,808	2,330	231,642	116,576
313,822	2,019	231,467	116,239
314,837	2,249	231,521	116,433
315,852	2,333	231,253	116,352
316,866	2,544	231,187	116,470
317,881	2,679	231,187	116,562
318,895	2,874	230,978	116,595
319,910	3,109	230,953	116,752
320,925	2,793	230,696	116,370
321,939	2,671	230,428	116,132
322,954	2,556	230,496	116,068
323,968	2,524	230,225	115,897
324,983	2,546	229,977	115,779
325,997	2,717	229,979	115,899
327,012	2,747	229,772	115,807
328,027	2,258	229,473	115,275
329,041	2,758	229,503	115,660
330,056	3,462	229,572	116,218
331,070	3,504	229,420	116,163
332,085	3,114	229,125	115,708
333,100	2,651	228,941	115,254
334,114	2,617	228,860	115,177
335,129	2,906	228,594	115,251
336,143	3,058	228,493	115,305
337,158	3,078	228,402	115,264
338,173	3,075	228,178	115,138
339,187	2,695	228,164	114,834
340,202	2,851	227,974	114,846
341,216	2,944	227,849	114,843
342,231	2,655	227,652	114,516
343,246	2,662	227,435	114,402
344,260	3,016	227,473	114,677
345,275	2,905	227,323	114,508
346,289	3,160	227,109	114,580
347,304	3,123	226,994	114,485
348,319	3,127	226,887	114,424
349,333	2,970	226,539	114,121
350,348	2,786	226,414	113,910
351,362	2,851	226,295	113,888
352,377	2,798	226,178	113,780
353,392	2,659	226,154	113,654
354,406	2,686	225,982	113,578
355,421	196,023	1321,498	1399,991
356,435	157,144	1454,990	1400,003
