DTS Sentinel unit serial number:	SN410029Multiplexer serial number:	ORYXHardware model number:	OX2-SRSoftware version number:	ORYX F/W v4,00 Oryx Data Collector v3.7.2.0data status	okinstallation	B5 Nyhavnadifferential loss correction	single-endedforward channel	channel 2reverse channel	N/Adate	2023/12/12time	12:47:13forward acquisition time	300,00reverse acquisition time	0,00gamma	499,1914k internal	0,3158k external	0,3158temperature offset calibration	1,0000default loss term (dB/km)	0,3820temperature slope calibration	1,0000multiplexer offset coefficient	1,0000multiplexer slope coefficient	1,0000fibre end	0,00T internal ref (°C)	15,40T ext. ref 1 (°C)	-0,48T ext. ref 2 (°C)	-0,73length (m)	temperature (°C)	Stokes	anti-Stokes-744,400	201,403	0,024	0,028
-743,385	-144,729	-0,263	0,018
-742,371	-69,375	0,223	0,063
-741,356	-141,883	-0,270	0,020
-740,342	118,597	0,062	0,057
-739,327	-139,420	-0,128	0,010
-738,312	-64,225	0,095	-0,028
-737,298	-124,573	-0,248	0,028
-736,283	7,037	0,110	-0,060
-735,269	23,474	-0,172	-0,104
-734,254	-200,000	-0,006	0,148
-733,239	-76,548	-0,390	-0,100
-732,225	28,082	0,137	0,085
-731,210	800,000	-0,044	0,115
-730,196	-193,327	0,009	0,000
-729,181	103,483	-0,053	0,046
-728,167	-83,188	-0,083	-0,020
-727,152	-113,551	-0,041	0,006
-726,137	160,504	-0,079	-0,081
-725,123	72,735	-0,080	-0,062
-724,108	800,000	-0,057	-0,137
-723,094	-63,927	-0,133	-0,040
-722,079	800,000	-0,057	-0,127
-721,064	21,399	-0,074	-0,044
-720,050	100,809	0,050	-0,043
-719,035	238,441	-0,028	-0,035
-718,021	-23,523	-0,169	0,075
-717,006	-138,585	-0,091	-0,007
-715,991	359,342	0,066	-0,097
-714,977	158,754	-0,108	-0,110
-713,962	-153,085	-0,114	-0,006
-712,948	-200,000	0,025	0,127
-711,933	-200,000	-0,035	-0,138
-710,918	10,670	-0,059	-0,033
-709,904	-104,100	-0,116	0,020
-708,889	159,159	-0,135	-0,138
-707,875	-200,000	-0,002	-0,147
-706,860	85,493	0,029	-0,023
-705,845	38,503	0,113	-0,074
-704,831	800,000	0,004	-0,011
-703,816	-53,084	-0,095	0,032
-702,802	50,865	0,045	-0,031
-701,787	239,574	-0,057	0,070
-700,772	103,432	0,049	0,042
-699,758	-200,000	-0,036	-0,190
-698,743	400,101	-0,035	0,055
-697,729	800,000	0,042	0,114
-696,714	-200,000	0,002	0,155
-695,699	-57,061	-0,112	-0,036
-694,685	800,000	0,052	-0,135
-693,670	-89,444	-0,128	-0,027
-692,656	-85,745	0,118	0,027
-691,641	227,950	0,023	0,027
-690,627	-200,000	0,017	0,135
-689,612	67,915	0,141	0,106
-688,597	461,593	-0,038	-0,062
-687,583	800,000	0,037	-0,084
-686,568	-69,403	0,094	0,026
-685,554	350,114	-0,024	-0,035
-684,539	-21,228	0,027	-0,012
-683,524	-77,431	-0,121	0,031
-682,510	22,889	-0,033	0,020
-681,495	-66,654	-0,181	0,052
-680,481	-80,007	-0,155	-0,038
-679,466	110,334	0,052	-0,046
-678,451	-80,669	-0,136	0,033
-677,437	357,394	-0,023	-0,034
-676,422	-93,035	-0,085	-0,017
-675,408	77,949	0,072	0,056
-674,393	800,000	0,021	-0,061
-673,378	-135,197	-0,027	0,002
-672,364	-16,726	-0,099	-0,046
-671,349	171,065	0,069	0,072
-670,335	-138,461	0,060	-0,005
-669,320	-200,000	0,035	0,142
-668,305	-99,980	-0,123	0,022
-667,291	-29,065	-0,153	-0,064
-666,276	11,182	0,074	-0,042
-665,262	273,022	-0,016	0,021
-664,247	800,000	-0,019	0,047
-663,232	164,115	-0,024	0,025
-662,218	-200,000	0,029	-0,102
-661,203	-200,000	-0,004	-0,021
-660,189	506,789	0,041	0,070
-659,174	188,690	-0,126	-0,139
-658,159	-200,000	-0,015	0,076
-657,145	-200,000	-0,003	0,027
-656,130	-200,000	0,016	0,065
-655,116	800,000	0,031	-0,083
-654,101	-99,624	0,051	-0,009
-653,086	-43,504	-0,011	0,004
-652,072	420,304	0,048	0,076
-651,057	76,736	-0,065	-0,051
-650,043	107,162	-0,072	0,062
-649,028	-1,768	-0,129	-0,066
-648,014	-34,561	-0,042	-0,017
-646,999	-200,000	-0,000	-0,037
-645,984	800,000	0,033	0,103
-644,970	800,000	0,031	0,070
-643,955	-200,000	0,024	-0,120
-642,941	-106,095	-0,083	-0,014
-641,926	-200,000	-0,011	-0,071
-640,911	-106,531	-0,013	-0,002
-639,897	-38,193	0,103	0,040
-638,882	-200,000	0,007	-0,041
-637,868	148,016	0,030	0,030
-636,853	160,540	0,056	-0,057
-635,838	800,000	-0,019	-0,046
-634,824	-51,702	0,120	0,041
-633,809	1,600	-0,136	0,071
-632,795	-54,631	0,099	0,033
-631,780	79,057	-0,081	0,064
-630,765	149,531	0,019	-0,019
-629,751	-8,621	-0,118	0,058
-628,736	578,263	0,034	-0,061
-627,722	170,959	0,056	-0,059
-626,707	-200,000	0,019	0,146
-625,692	-200,000	0,019	-0,068
-624,678	550,174	0,049	0,086
-623,663	181,795	-0,104	-0,113
-622,649	-140,091	-0,160	0,012
-621,634	51,771	0,044	0,031
-620,619	-85,110	-0,108	0,025
-619,605	-101,000	0,008	0,001
-618,590	-32,972	0,097	-0,039
-617,576	799,536	-0,076	-0,154
-616,561	-64,108	-0,100	-0,030
-615,546	-147,208	-0,101	0,006
-614,532	-200,000	0,033	-0,181
-613,517	-200,000	-0,011	-0,198
-612,503	134,406	0,044	-0,042
-611,488	-83,064	0,066	-0,015
-610,474	800,000	0,015	0,033
-609,459	-200,000	-0,004	0,114
-608,444	115,318	-0,077	0,069
-607,430	134,108	0,093	-0,088
-606,415	356,342	-0,076	-0,112
-605,401	486,624	-0,046	-0,077
-604,386	577,120	0,046	-0,082
-603,371	-200,000	-0,003	0,063
-602,357	86,302	-0,141	-0,114
-601,342	-27,001	-0,034	-0,014
-600,328	347,378	0,042	0,061
-599,313	16,482	-0,140	-0,081
-598,298	-136,542	0,142	-0,012
-597,284	557,309	0,047	0,084
-596,269	498,846	-0,063	0,106
-595,255	800,000	-0,052	0,124
-594,240	800,000	-0,057	-0,159
-593,225	129,368	-0,096	-0,090
-592,211	-200,000	0,000	0,046
-591,196	-200,000	-0,030	-0,161
-590,182	-200,000	-0,010	-0,041
-589,167	170,882	-0,054	-0,057
-588,152	-76,555	-0,078	-0,020
-587,138	800,000	0,024	0,077
-586,123	-106,742	-0,111	-0,018
-585,109	181,821	0,017	-0,018
-584,094	-36,110	-0,008	-0,003
-583,079	112,202	0,051	0,045
-582,065	-200,000	0,020	0,127
-581,050	-200,000	-0,002	0,025
-580,036	-200,000	-0,023	0,086
-579,021	212,469	-0,053	0,062
-578,006	-200,000	-0,034	-0,113
-576,992	-200,000	0,023	0,229
-575,977	-62,981	0,162	-0,049
-574,963	272,244	-0,029	-0,038
-573,948	447,289	0,049	0,079
-572,934	-200,000	-0,006	-0,190
-571,919	-200,000	0,004	-0,092
-570,904	527,747	0,043	-0,074
-569,890	800,000	-0,053	0,119
-568,875	-200,000	-0,031	0,102
-567,861	-22,192	-0,111	0,049
-566,846	-200,000	-0,001	0,082
-565,831	-200,000	-0,022	-0,117
-564,817	800,000	-0,018	-0,038
-563,802	-148,685	0,014	0,001
-562,788	717,680	-0,019	-0,037
-561,773	-27,013	0,101	-0,043
-560,758	-200,000	-0,009	0,037
-559,744	7,102	0,066	0,036
-558,729	122,628	-0,057	-0,052
-557,715	30,831	-0,113	0,071
-556,700	-200,000	0,010	-0,059
-555,685	-107,511	0,112	0,018
-554,671	-47,597	0,132	0,047
-553,656	-1,590	0,075	0,038
-552,642	101,219	-0,109	0,092
-551,627	153,726	0,035	-0,035
-550,612	-10,436	-0,073	0,035
-549,598	-200,000	-0,024	-0,085
-548,583	787,703	-0,017	0,034
-547,569	-200,000	-0,006	-0,023
-546,554	-128,530	0,154	0,016
-545,539	-118,135	-0,137	-0,018
-544,525	295,306	-0,036	-0,048
-543,510	-200,000	0,002	0,037
-542,496	-150,035	-0,078	-0,004
-541,481	110,247	-0,075	-0,065
-540,466	448,575	-0,041	-0,066
-539,452	95,099	0,094	0,078
-538,437	95,637	0,043	0,036
-537,423	-200,000	-0,007	-0,098
-536,408	82,326	-0,046	-0,037
-535,393	117,759	-0,013	-0,012
-534,379	30,541	0,153	-0,096
-533,364	-0,143	-0,027	0,014
-532,350	121,988	0,055	0,050
-531,335	237,671	-0,126	0,153
-530,321	-7,116	0,152	0,075
-529,306	82,445	0,100	0,079
-528,291	-200,000	-0,006	0,198
-527,277	-23,827	-0,075	0,033
-526,262	71,245	0,039	0,030
-525,248	-200,000	-0,028	-0,094
-524,233	-95,204	-0,041	0,008
-523,218	-111,325	0,106	0,016
-522,204	800,000	0,031	0,085
-521,189	-200,000	0,003	-0,011
-520,175	44,222	-0,140	-0,094
-519,160	162,744	0,089	0,092
-518,145	-0,140	0,059	0,031
-517,131	438,620	0,021	-0,033
-516,116	191,320	-0,087	0,096
-515,102	180,657	-0,080	0,086
-514,087	42,333	0,121	0,080
-513,072	20,680	0,098	-0,058
-512,058	-200,000	0,022	0,082
-511,043	-200,000	0,004	0,034
-510,029	-200,000	-0,015	0,082
-509,014	-200,000	-0,004	-0,025
-507,999	625,060	-0,060	0,111
-506,985	-38,476	0,038	0,015
-505,970	748,853	-0,032	-0,064
-504,956	-200,000	-0,032	0,130
-503,941	210,188	0,042	0,048
-502,926	-200,000	0,001	0,059
-501,912	32,210	-0,094	0,059
-500,897	70,283	0,094	-0,071
-499,883	800,000	0,026	0,073
-498,868	-193,211	-0,096	-0,001
-497,853	319,260	-0,068	0,094
-496,839	172,404	-0,042	-0,044
-495,824	-200,000	0,000	0,087
-494,810	-43,251	0,093	-0,034
-493,795	62,610	-0,090	0,065
-492,781	305,796	-0,051	-0,070
-491,766	269,609	0,054	-0,070
-490,751	-200,000	0,016	-0,148
-489,737	-130,870	0,077	-0,007
-488,722	-200,000	0,002	-0,030
-487,708	265,058	-0,073	-0,092
-486,693	33,197	-0,107	0,067
-485,678	800,000	0,046	0,125
-484,664	-49,085	-0,028	0,010
-483,649	46,735	-0,081	-0,055
-482,635	-200,000	0,007	-0,103
-481,620	132,987	0,093	-0,088
-480,605	-200,000	-0,037	-0,123
-479,591	-200,000	-0,030	-0,150
-478,576	411,815	-0,044	0,068
-477,562	-79,068	0,026	0,006
-476,547	-200,000	0,006	0,019
-475,532	-200,000	0,017	0,059
-474,518	155,225	-0,097	0,097
-473,503	-200,000	-0,001	0,068
-472,489	-200,000	-0,002	0,071
-471,474	465,504	-0,063	0,104
-470,459	450,176	-0,126	-0,204
-469,445	272,796	0,063	-0,081
-468,430	-200,000	-0,015	0,082
-467,416	-118,613	-0,136	0,017
-466,401	-200,000	0,011	0,041
-465,386	-124,409	0,093	0,010
-464,372	-126,333	-0,070	0,008
-463,357	800,000	0,042	-0,124
-462,343	-200,000	0,006	0,111
-461,328	-200,000	0,035	0,164
-460,313	-200,000	0,022	-0,103
-459,299	-200,000	0,007	0,038
-458,284	-138,006	0,038	0,003
-457,270	-83,508	-0,045	0,010
-456,255	-186,661	0,048	0,000
-455,241	84,242	0,021	0,017
-454,226	800,000	-0,027	0,077
-453,211	-161,304	-0,124	-0,005
-452,197	-107,433	0,120	-0,019
-451,182	486,422	-0,055	-0,092
-450,168	-200,000	0,021	0,187
-449,153	457,697	-0,056	-0,091
-448,138	-165,417	-0,181	0,006
-447,124	800,000	-0,029	-0,067
-446,109	-200,000	-0,001	0,126
-445,095	141,063	0,083	0,080
-444,080	86,833	-0,034	0,027
-443,065	-128,448	-0,095	0,010
-442,051	-200,000	0,005	-0,109
-441,036	-200,000	0,003	-0,143
-440,022	146,621	0,010	0,010
-439,007	-200,000	0,002	-0,111
-437,992	224,102	-0,071	0,083
-436,978	-200,000	-0,006	-0,040
-435,963	-75,412	-0,066	-0,017
-434,949	-34,122	-0,076	-0,030
-433,934	-200,000	0,009	-0,114
-432,919	351,738	0,025	0,037
-431,905	112,586	0,053	0,047
-430,890	-200,000	0,001	0,135
-429,876	800,000	0,079	0,162
-428,861	122,901	-0,087	0,079
-427,846	-59,299	0,057	-0,018
-426,832	800,000	0,020	-0,062
-425,817	-200,000	-0,002	0,025
-424,803	-166,230	-0,041	-0,001
-423,788	254,707	0,084	0,105
-422,773	-99,308	0,064	0,012
-421,759	13,004	0,149	0,084
-420,744	490,609	0,066	-0,110
-419,730	-200,000	0,027	0,109
-418,715	-58,299	-0,119	0,037
-417,701	800,000	-0,052	-0,135
-416,686	345,498	-0,040	-0,057
-415,671	-200,000	-0,011	-0,083
-414,657	68,704	0,094	-0,070
-413,642	-68,228	0,062	-0,017
-412,628	-164,451	0,141	0,005
-411,613	34,655	-0,072	-0,045
-410,598	108,092	0,072	-0,063
-409,584	165,615	0,051	-0,052
-408,569	-172,027	0,087	0,002
-407,555	-127,341	0,039	-0,004
-406,540	-137,681	-0,096	-0,008
-405,525	160,480	-0,061	0,061
-404,511	196,536	0,073	-0,081
-403,496	-200,000	-0,029	0,146
-402,482	-147,738	0,224	-0,013
-401,467	800,000	0,043	0,124
-400,452	-200,000	0,028	-0,117
-399,438	110,104	0,156	0,136
-398,423	212,006	0,013	0,015
-397,409	151,480	-0,061	-0,060
-396,394	71,969	-0,012	0,009
-395,379	-58,628	0,081	-0,025
-394,365	800,000	0,070	-0,145
-393,350	-135,079	0,018	0,002
-392,336	244,313	0,102	-0,125
-391,321	255,207	0,063	0,079
-390,306	-200,000	-0,001	0,022
-389,292	193,212	-0,113	-0,124
-388,277	-200,000	-0,024	-0,085
-387,263	208,512	-0,052	0,059
-386,248	-54,197	-0,105	-0,035
-385,233	-200,000	0,004	0,019
-384,219	51,142	-0,027	-0,019
-383,204	98,144	-0,128	-0,107
-382,190	800,000	0,016	0,033
-381,175	515,520	-0,073	-0,124
-380,160	-200,000	0,003	0,142
-379,146	-154,754	-0,033	0,002
-378,131	-78,685	0,190	0,047
-377,117	-200,000	-0,013	0,071
-376,102	-160,504	0,061	0,002
-375,088	-179,357	-0,100	0,002
-374,073	-12,495	0,072	-0,034
-373,058	-53,320	0,115	-0,038
-372,044	577,000	-0,045	0,081
-371,029	-200,000	-0,010	0,089
-370,015	159,899	0,045	0,046
-369,000	800,000	-0,060	0,145
-367,985	244,249	-0,059	-0,072
-366,971	502,560	-0,092	-0,156
-365,956	-77,233	0,033	0,008
-364,942	74,389	0,003	0,002
-363,927	84,705	-0,133	0,106
-362,912	-200,000	0,024	0,080
-361,898	-200,000	-0,027	-0,106
-360,883	3,447	-0,077	-0,041
-359,869	764,299	0,023	-0,045
-358,854	-200,000	0,030	0,119
-357,839	304,882	0,037	0,050
-356,825	84,269	0,104	0,083
-355,810	800,000	0,100	0,213
-354,796	-129,010	-0,069	-0,007
-353,781	-73,874	0,046	0,012
-352,766	800,000	0,021	-0,052
-351,752	126,812	0,071	0,065
-350,737	275,776	0,114	0,147
-349,723	-64,827	0,172	0,050
-348,708	313,499	-0,070	-0,095
-347,693	315,456	-0,049	0,067
-346,679	-200,000	0,000	-0,069
-345,664	-31,589	0,037	-0,015
-344,650	523,011	-0,034	0,058
-343,635	800,000	-0,042	0,097
-342,620	-192,865	0,092	0,001
-341,606	29,469	0,116	-0,071
-340,591	405,273	0,073	0,112
-339,577	325,879	0,046	0,064
-338,562	-200,000	-0,012	-0,083
-337,548	800,000	0,026	-0,065
-336,533	84,655	0,095	-0,076
-335,518	-200,000	0,000	0,129
-334,504	-200,000	0,005	0,085
-333,489	-133,293	-0,129	0,012
-332,475	800,000	0,024	-0,070
-331,460	14,710	0,061	0,035
-330,445	-87,526	-0,026	0,006
-329,431	800,000	-0,008	-0,023
-328,416	-139,563	-0,020	0,002
-327,402	-3,739	0,096	-0,048
-326,387	414,155	-0,021	-0,033
-325,372	-75,282	-0,107	0,027
-324,358	-88,772	0,078	0,017
-323,343	-200,000	-0,060	-0,211
-322,329	212,628	0,053	-0,060
-321,314	326,104	0,055	-0,077
-320,299	-131,621	0,054	0,005
-319,285	438,148	0,071	0,113
-318,270	104,812	-0,024	0,020
-317,256	-62,831	-0,074	-0,022
-316,241	800,000	0,001	0,003
-315,226	339,998	0,058	-0,082
-314,212	-182,310	0,078	-0,001
-313,197	-200,000	0,009	-0,055
-312,183	44,695	0,040	-0,027
-311,168	64,642	0,061	-0,044
-310,153	254,346	0,057	0,071
-309,139	800,000	0,045	-0,094
-308,124	-58,049	-0,023	-0,007
-307,110	-80,934	0,117	-0,028
-306,095	-119,912	0,085	0,010
-305,080	339,888	-0,027	0,038
-304,066	37,914	0,076	-0,049
-303,051	2,140	-0,131	-0,068
-302,037	-200,000	0,004	-0,023
-301,022	-105,686	0,094	-0,015
-300,008	131,204	-0,091	0,084
-298,993	-32,496	0,097	0,039
-297,978	-200,000	0,007	0,089
-296,964	-200,000	0,002	0,095
-295,949	114,331	0,080	0,071
-294,935	-66,915	-0,093	0,027
-293,920	307,730	0,075	0,102
-292,905	40,244	-0,150	0,097
-291,891	-25,073	0,106	0,045
-290,876	800,000	-0,015	0,035
-289,862	-200,000	-0,020	-0,089
-288,847	49,722	0,098	-0,067
-287,832	-200,000	-0,006	0,024
-286,818	-200,000	-0,022	-0,128
-285,803	-123,984	0,089	0,010
-284,789	4,080	0,140	-0,074
-283,774	800,000	-0,045	0,095
-282,759	-200,000	0,010	-0,064
-281,745	-200,000	0,011	0,040
-280,730	55,113	-0,075	0,053
-279,716	-67,020	0,001	-0,000
-278,701	-52,195	0,091	-0,030
-277,686	-200,000	0,027	0,180
-276,672	-142,276	0,165	-0,012
-275,657	39,625	-0,064	0,042
-274,643	800,000	-0,029	-0,063
-273,628	-52,485	-0,057	-0,019
-272,613	78,655	0,052	0,040
-271,599	-139,361	-0,060	0,005
-270,584	-200,000	-0,027	-0,127
-269,570	407,217	-0,088	0,134
-268,555	50,904	-0,044	0,030
-267,540	-108,700	-0,102	0,016
-266,526	-176,984	-0,130	-0,002
-265,511	-200,000	0,015	-0,081
-264,497	129,904	0,072	0,067
-263,482	800,000	0,022	-0,066
-262,467	-200,000	-0,021	0,177
-261,453	-161,659	-0,043	0,002
-260,438	-200,000	-0,010	-0,041
-259,424	-183,202	0,179	-0,002
-258,409	388,365	-0,079	0,119
-257,395	64,256	0,022	-0,016
-256,380	71,884	-0,160	-0,120
-255,365	203,046	-0,034	0,038
-254,351	-38,703	0,136	-0,052
-253,336	210,918	0,054	-0,061
-252,322	515,747	-0,031	-0,052
-251,307	-200,000	-0,011	0,093
-250,292	543,923	-0,058	0,100
-249,278	426,431	0,026	-0,040
-248,263	-132,238	0,064	-0,006
-247,249	81,774	-0,090	-0,071
-246,234	-140,671	-0,014	-0,001
-245,219	-156,207	-0,028	0,001
-244,205	-54,468	-0,117	0,038
-243,190	22,156	0,107	0,063
-242,176	-174,877	-0,128	0,003
-241,161	-91,037	-0,089	-0,018
-240,146	8,441	-0,105	-0,057
-239,132	497,471	0,073	-0,122
-238,117	-24,315	0,081	0,035
-237,103	-200,000	-0,005	-0,146
-236,088	-63,456	0,040	-0,012
-235,073	299,295	0,071	0,095
-234,059	11,755	-0,023	0,012
-233,044	579,180	-0,024	-0,042
-232,030	800,000	0,024	-0,061
-231,015	64,203	-0,063	0,046
-230,000	-161,810	0,011	0,000
-228,986	491,431	-0,042	-0,070
-227,971	-200,000	-0,005	-0,066
-226,957	-43,644	0,148	-0,054
-225,942	444,911	-0,005	-0,008
-224,927	-200,000	0,205	-0,000
-223,913	800,000	-0,015	0,038
-222,898	-200,000	0,012	-0,111
-221,884	125,392	0,048	-0,044
-220,869	481,372	0,022	-0,036
-219,855	-44,721	-0,014	0,005
-218,840	800,000	0,021	0,044
-217,825	-108,642	0,066	-0,010
-216,811	-200,000	0,016	-0,220
-215,796	-142,311	0,105	-0,007
-214,782	800,000	-0,051	-0,105
-213,767	580,087	-0,014	0,024
-212,752	-12,892	0,021	-0,010
-211,738	249,155	0,035	-0,042
-210,723	800,000	0,004	-0,009
-209,709	800,000	-0,018	-0,047
-208,694	800,000	0,050	-0,148
-207,679	-200,000	-0,013	-0,050
-206,665	-71,064	0,125	-0,034
-205,650	-19,565	0,076	-0,034
-204,636	39,118	-0,156	-0,100
-203,621	115,278	0,028	-0,025
-202,606	-79,205	-0,117	-0,028
-201,592	76,423	-0,080	-0,061
-200,577	158,776	-0,167	-0,167
-199,563	445,211	0,018	0,029
-198,548	-80,446	0,150	0,036
-197,533	-200,000	-0,007	0,039
-196,519	-200,000	0,005	0,051
-195,504	663,598	-0,070	0,131
-194,490	-80,269	-0,096	-0,023
-193,475	364,768	-0,031	-0,045
-192,460	132,238	0,052	-0,049
-191,446	146,851	-0,126	0,122
-190,431	-200,000	-0,017	0,059
-189,417	-2,154	-0,070	0,035
-188,402	-86,034	0,162	0,036
-187,387	193,632	-0,077	-0,084
-186,373	-200,000	0,015	0,104
-185,358	-82,513	0,054	-0,012
-184,344	17,875	-0,031	0,018
-183,329	42,823	0,027	-0,018
-182,315	-102,670	-0,026	0,004
-181,300	-107,459	-0,167	-0,026
-180,285	800,000	0,029	-0,074
-179,271	-9,223	0,049	0,024
-178,256	800,000	-0,083	0,179
-177,242	-200,000	0,000	0,168
-176,227	-200,000	0,005	0,028
-175,212	-200,000	-0,003	-0,109
-174,198	-152,777	-0,061	0,003
-173,183	-110,552	-0,152	-0,022
-172,169	375,567	0,056	-0,082
-171,154	-45,429	0,035	0,012
-170,139	-115,579	-0,080	0,011
-169,125	-200,000	-0,045	0,234
-168,110	144,606	0,038	-0,037
-167,096	277,937	0,021	0,027
-166,081	-61,441	-0,144	-0,043
-165,066	576,453	-0,041	-0,072
-164,052	-12,075	-0,079	0,037
-163,037	-70,899	0,034	-0,009
-162,023	158,392	0,012	-0,012
-161,008	800,000	0,042	-0,110
-159,993	-147,395	-0,078	0,005
-158,979	-6,698	0,153	-0,075
-157,964	-155,294	-0,212	-0,010
-156,950	170,832	-0,060	0,062
-155,935	68,335	0,138	-0,102
-154,920	67,922	0,058	0,043
-153,906	-200,000	-0,013	-0,152
-152,891	800,000	-0,085	0,178
-151,877	124,749	-0,041	0,037
-150,862	-149,736	0,007	0,000
-149,847	-112,201	-0,138	0,020
-148,833	397,395	-0,013	0,019
-147,818	-71,110	-0,091	-0,025
-146,804	-85,211	-0,102	-0,023
-145,789	294,189	0,049	0,065
-144,775	192,654	-0,048	0,053
-143,760	79,183	0,068	-0,052
-142,745	124,664	-0,165	-0,149
-141,731	144,769	-0,099	-0,095
-140,716	-88,703	0,117	0,025
-139,702	-117,818	0,116	0,015
-138,687	67,968	-0,032	-0,024
-137,672	800,000	0,013	-0,027
-136,658	-200,000	-0,012	-0,079
-135,643	-200,000	0,024	-0,202
-134,629	-8,338	0,106	-0,051
-133,614	-52,196	0,072	-0,024
-132,599	800,000	-0,029	0,060
-131,585	800,000	-0,029	0,079
-130,570	-31,006	0,117	-0,047
-129,556	183,568	0,076	-0,081
-128,541	-105,649	0,097	0,016
-127,526	100,710	0,067	-0,056
-126,512	-200,000	0,025	0,145
-125,497	65,867	-0,092	0,067
-124,483	545,185	0,056	-0,097
-123,468	-73,821	-0,110	0,029
-122,453	112,598	-0,112	0,097
-121,439	-141,050	0,114	-0,008
-120,424	43,396	-0,154	-0,101
-119,410	300,014	0,061	0,081
-118,395	670,360	0,023	0,043
-117,380	394,688	0,046	0,070
-116,366	641,325	-0,037	-0,069
-115,351	-134,749	-0,069	0,006
-114,337	-200,000	-0,012	0,056
-113,322	27,757	-0,042	0,025
-112,307	-122,746	0,119	-0,014
-111,293	-39,520	0,061	0,023
-110,278	635,407	-0,075	-0,137
-109,264	-200,000	0,006	0,042
-108,249	-177,024	-0,095	0,002
-107,234	-200,000	0,007	-0,055
-106,220	-95,485	0,118	0,023
-105,205	64,416	0,078	0,057
-104,191	-200,000	-0,039	-0,181
-103,176	59,269	0,115	-0,082
-102,162	106,608	-0,056	-0,048
-101,147	800,000	0,052	0,122
-100,132	295,467	-0,056	0,074
-99,118	-155,653	-0,142	0,006
-98,103	800,000	0,021	-0,048
-97,089	-200,000	0,001	-0,072
-96,074	800,000	0,041	-0,090
-95,059	-200,000	0,017	0,076
-94,045	150,278	0,134	0,131
-93,030	175,451	-0,111	0,115
-92,016	553,950	-0,066	0,114
-91,001	-18,676	0,037	0,016
-89,986	191,517	0,094	0,101
-88,972	30,414	0,177	-0,108
-87,957	-102,025	0,093	-0,016
-86,943	-53,981	-0,090	0,029
-85,928	89,678	0,081	0,065
-84,913	48,203	-0,044	0,030
-83,899	144,278	0,039	0,037
-82,884	-106,533	0,085	-0,013
-81,870	35,120	-0,078	-0,049
-80,855	92,206	-0,099	0,080
-79,840	-200,000	-0,010	-0,037
-78,826	195,950	0,070	0,076
-77,811	-200,000	0,007	-0,129
-76,797	800,000	0,052	-0,106
-75,782	403,360	0,052	-0,078
-74,767	-200,000	0,011	0,052
-73,753	-127,799	-0,071	0,007
-72,738	-70,994	-0,139	0,037
-71,724	42,622	0,086	-0,056
-70,709	510,086	0,046	-0,078
-69,694	-6,846	-0,088	-0,043
-68,680	230,930	-0,105	0,124
-67,665	179,573	0,048	0,051
-66,651	-107,519	0,152	-0,024
-65,636	-13,656	0,005	-0,002
-64,622	800,000	-0,011	-0,030
-63,607	-95,512	-0,171	-0,033
-62,592	81,200	-0,142	0,110
-61,578	-7,229	0,066	-0,032
-60,563	-82,874	0,091	0,021
-59,549	-200,000	0,002	0,175
-58,534	-1,073	-1,896	-0,959
-57,519	-200,000	-0,205	-0,983
-56,505	-200,000	-1,083	-4,778
-55,490	9,443	0,805	0,436
-54,476	800,000	5,222	12,117
-53,461	-200,000	17,533	282,578
-52,446	800,000	726,139	2213,844
-51,432	535,863	1642,265	2807,128
-50,417	110,050	1633,303	1406,345
-49,403	75,014	1286,243	971,402
-48,388	32,054	1027,689	634,268
-47,373	20,153	989,407	571,408
-46,359	18,530	977,296	559,071
-45,344	15,700	973,496	547,615
-44,330	15,988	971,797	547,582
-43,315	15,429	970,234	544,853
-42,300	15,463	969,059	544,282
-41,286	15,402	968,022	543,479
-40,271	15,409	967,028	542,922
-39,257	15,390	966,251	542,405
-38,242	15,380	965,389	541,864
-37,227	15,428	964,493	541,497
-36,213	15,442	963,687	541,068
-35,198	15,434	962,637	540,432
-34,184	15,418	961,942	539,968
-33,169	15,419	960,816	539,319
-32,154	15,448	960,066	538,968
-31,140	15,438	959,304	538,487
-30,125	15,463	958,536	538,116
-29,111	15,457	957,617	537,558
-28,096	15,374	957,188	537,029
-27,082	15,461	956,272	536,775
-26,067	15,433	955,593	536,283
-25,052	15,436	954,674	535,755
-24,038	15,476	954,032	535,500
-23,023	15,425	953,463	534,996
-22,009	15,500	952,768	534,828
-20,994	15,475	952,078	534,338
-19,979	15,452	951,573	533,959
-18,965	15,375	950,991	533,365
-17,950	15,439	950,471	533,258
-16,936	15,369	949,697	532,580
-15,921	15,417	949,002	532,321
-14,906	15,369	948,216	531,706
-13,892	15,306	947,534	531,102
-12,877	15,306	947,031	530,800
-11,863	15,318	946,327	530,422
-10,848	15,227	945,994	529,925
-9,833	15,404	945,442	530,157
-8,819	15,436	944,784	529,868
-7,804	15,361	943,857	529,089
-6,790	15,338	943,530	528,812
-5,775	15,337	942,930	528,452
-4,760	15,368	942,378	528,220
-3,746	15,384	941,475	527,743
-2,731	15,214	940,977	526,903
-1,717	15,211	940,300	526,495
-0,702	15,189	939,721	526,079
0,313	14,969	939,075	525,819
1,327	18,228	936,770	534,743
2,342	27,278	794,249	477,357
3,356	24,222	459,755	271,618
4,371	-2,843	315,369	157,476
5,386	-6,781	297,211	144,400
6,400	-8,692	291,109	139,520
7,415	-9,282	288,614	137,730
8,429	-9,509	287,218	136,828
9,444	-9,533	286,286	136,348
10,459	-9,464	285,500	136,029
11,473	-9,691	285,050	135,582
12,488	-9,541	284,480	135,445
13,502	-9,635	284,028	135,125
14,517	-9,646	283,628	134,912
15,531	-9,781	283,041	134,491
16,546	-9,770	282,581	134,270
17,561	-9,682	282,381	134,249
18,575	-9,579	281,996	134,153
19,590	-9,764	281,571	133,761
20,604	-9,658	281,235	133,691
21,619	-9,883	280,818	133,265
22,634	-9,682	280,563	133,324
23,648	-9,743	280,270	133,115
24,663	-9,672	280,062	133,073
25,677	-9,868	279,722	132,712
26,692	-9,691	279,516	132,771
27,707	-9,750	279,123	132,516
28,721	-9,813	278,986	132,380
29,736	-9,870	278,628	132,143
30,750	-9,654	278,427	132,242
31,765	-9,762	278,138	131,990
32,780	-9,769	277,966	131,891
33,794	-9,951	277,846	131,649
34,809	-9,696	277,367	131,652
35,823	-9,817	277,206	131,450
36,838	-9,823	276,864	131,270
37,853	-9,826	276,650	131,153
38,867	-10,002	276,592	130,948
39,882	-10,012	276,200	130,741
40,896	-9,851	275,903	130,741
41,911	-9,826	275,742	130,677
42,926	-9,756	275,355	130,547
43,940	-9,860	275,171	130,350
44,955	-10,051	275,178	130,163
45,969	-10,013	274,629	129,927
46,984	-10,072	274,386	129,745
47,999	-10,369	274,086	129,315
49,013	-10,437	273,986	129,192
50,028	-10,607	273,661	128,869
51,042	-10,410	273,233	128,839
52,057	-10,424	273,016	128,712
53,071	-10,517	273,057	128,634
54,086	-10,381	272,772	128,614
55,101	-10,307	272,624	128,602
56,115	-10,091	272,454	128,711
57,130	-9,624	272,248	129,035
58,144	-9,597	272,209	129,030
59,159	-9,621	271,914	128,857
60,174	-9,569	271,729	128,806
61,188	-9,496	271,432	128,721
62,203	-9,586	271,243	128,536
63,217	-9,614	270,984	128,376
64,232	-9,742	270,998	128,254
65,247	-9,415	270,524	128,319
66,261	-9,710	270,307	127,933
67,276	-9,800	269,887	127,641
68,290	-9,991	269,814	127,420
69,305	-9,907	269,512	127,342
70,320	-10,098	269,393	127,099
71,334	-9,860	269,226	127,228
72,349	-9,597	269,065	127,380
73,363	-9,663	268,863	127,213
74,378	-9,640	268,736	127,163
75,393	-9,617	268,380	127,005
76,407	-9,740	268,295	126,841
77,422	-9,601	267,997	126,815
78,436	-9,485	267,781	126,807
79,451	-9,523	267,483	126,620
80,466	-9,628	267,355	126,453
81,480	-9,839	267,049	126,105
82,495	-9,802	266,821	126,020
83,509	-9,893	266,820	125,926
84,524	-9,648	266,197	125,842
85,539	-9,844	266,166	125,639
86,553	-10,150	266,007	125,276
87,568	-9,836	265,792	125,447
88,582	-9,724	265,504	125,401
89,597	-9,760	265,343	125,281
90,611	-9,675	265,154	125,258
91,626	-9,717	265,160	125,211
92,641	-9,592	264,862	125,172
93,655	-9,562	264,562	125,046
94,670	-9,703	264,405	124,834
95,684	-9,777	264,322	124,717
96,699	-9,830	264,154	124,580
97,714	-9,797	263,811	124,436
98,728	-9,845	263,574	124,270
99,743	-9,940	263,369	124,077
100,757	-9,842	263,042	124,000
101,772	-10,007	262,934	123,791
102,787	-9,719	262,608	123,882
103,801	-9,668	262,443	123,840
104,816	-9,742	262,577	123,825
105,830	-9,518	262,269	123,869
106,845	-9,592	262,198	123,759
107,860	-9,757	261,960	123,489
108,874	-9,595	261,673	123,486
109,889	-9,650	261,505	123,346
110,903	-9,817	261,258	123,071
111,918	-9,805	261,069	122,982
112,933	-9,699	260,875	122,973
113,947	-9,725	260,672	122,843
114,962	-9,709	260,515	122,773
115,976	-9,662	260,356	122,729
116,991	-9,608	260,083	122,636
118,006	-9,714	259,966	122,476
119,020	-9,651	259,876	122,479
120,035	-9,633	259,804	122,450
121,049	-9,473	259,446	122,411
122,064	-9,559	259,367	122,287
123,079	-9,599	258,962	122,050
124,093	-9,660	258,782	121,901
125,108	-9,764	258,546	121,688
126,122	-10,101	258,366	121,298
127,137	-10,105	258,143	121,178
128,151	-10,057	258,100	121,189
129,166	-9,874	257,829	121,211
130,181	-9,992	257,653	121,014
131,195	-9,963	257,331	120,878
132,210	-9,551	257,218	121,172
133,224	-9,634	257,065	121,018
134,239	-9,707	256,948	120,889
135,254	-9,538	256,700	120,908
136,268	-9,647	256,412	120,667
137,283	-9,959	256,322	120,343
138,297	-10,099	255,962	120,042
139,312	-10,056	255,710	119,951
140,327	-9,734	255,614	120,173
141,341	-9,591	255,665	120,310
142,356	-9,665	255,445	120,132
143,370	-9,422	255,362	120,292
144,385	-9,352	254,999	120,170
145,400	-9,477	254,916	120,013
146,414	-9,411	254,775	119,992
147,429	-9,355	254,484	119,893
148,443	-9,495	254,380	119,714
149,458	-9,326	254,293	119,807
150,473	-9,293	254,119	119,742
151,487	-9,601	253,910	119,369
152,502	-9,494	253,687	119,345
153,516	-9,354	253,405	119,321
154,531	-9,376	253,200	119,195
155,546	-9,451	253,107	119,077
156,560	-9,510	252,924	118,930
157,575	-9,706	252,725	118,658
158,589	-9,520	252,524	118,712
159,604	-9,491	252,438	118,686
160,619	-9,502	252,184	118,546
161,633	-9,503	252,095	118,493
162,648	-9,344	251,941	118,545
163,662	-9,263	251,779	118,528
164,677	-9,384	251,568	118,315
165,692	-9,331	251,381	118,262
166,706	-9,309	251,216	118,192
167,721	-9,288	251,095	118,142
168,735	-9,364	250,978	118,012
169,750	-9,425	250,813	117,873
170,764	-9,351	250,669	117,857
171,779	-9,387	250,616	117,791
172,794	-9,315	250,318	117,701
173,808	-9,522	250,092	117,410
174,823	-9,845	249,765	116,974
175,837	-10,044	249,666	116,750
176,852	-9,527	249,544	117,117
177,867	-9,258	249,274	117,206
178,881	-9,256	249,198	117,162
179,896	-9,288	249,082	117,070
180,910	-9,226	248,870	117,011
181,925	-9,296	248,797	116,908
182,940	-9,260	248,626	116,848
183,954	-9,483	248,418	116,552
184,969	-9,239	248,123	116,608
185,983	-9,093	247,957	116,642
186,998	-9,609	247,927	116,186
188,013	-9,369	247,662	116,252
189,027	-9,398	247,631	116,202
190,042	-9,280	247,484	116,221
191,056	-9,359	247,226	116,024
192,071	-9,184	247,086	116,094
193,086	-9,158	246,918	116,026
194,100	-9,382	246,774	115,762
195,115	-9,242	246,506	115,742
196,129	-9,191	246,201	115,631
197,144	-9,326	246,120	115,471
198,159	-9,323	245,974	115,395
199,173	-9,359	245,808	115,277
200,188	-9,534	245,708	115,075
201,202	-9,554	245,428	114,917
202,217	-9,766	245,038	114,549
203,232	-9,716	244,776	114,458
204,246	-9,499	244,924	114,695
205,261	-8,849	244,795	115,159
206,275	-9,554	244,726	114,537
207,290	-5,643	246,095	118,401
208,304	0,705	248,031	124,596
209,319	3,460	248,901	127,312
210,334	4,036	248,821	127,738
211,348	4,249	248,782	127,884
212,363	4,356	248,695	127,916
213,377	4,619	248,475	128,009
214,392	4,558	248,304	127,859
215,407	4,360	248,103	127,580
216,421	4,198	247,880	127,321
217,436	4,488	247,803	127,509
218,450	4,690	247,613	127,567
219,465	4,193	247,443	127,058
220,480	4,268	247,225	126,997
221,494	4,063	247,104	126,755
222,509	4,101	246,874	126,656
223,523	3,939	246,778	126,462
224,538	3,692	246,343	126,026
225,553	3,822	246,270	126,084
226,567	3,924	246,133	126,086
227,582	3,952	246,101	126,082
228,596	3,994	245,943	126,023
229,611	3,657	245,666	125,595
230,626	3,554	245,516	125,422
231,640	3,792	245,382	125,538
232,655	4,029	245,134	125,593
233,669	3,900	244,981	125,398
234,684	3,434	244,930	124,981
235,699	4,030	244,964	125,473
236,713	4,354	244,555	125,516
237,728	3,945	244,438	125,112
238,742	3,628	244,293	124,769
239,757	3,561	244,127	124,619
240,772	3,840	243,727	124,630
241,786	3,963	243,734	124,722
242,801	3,817	243,567	124,507
243,815	3,613	243,492	124,293
244,830	3,853	243,402	124,429
245,844	3,959	243,040	124,319
246,859	3,815	242,824	124,081
247,874	3,607	242,794	123,886
248,888	3,877	242,726	124,059
249,903	3,955	242,489	123,990
250,917	4,228	242,311	124,108
251,932	4,346	242,218	124,143
252,947	4,123	242,028	123,856
253,961	3,903	241,813	123,558
254,976	3,894	241,730	123,498
255,990	4,117	241,621	123,609
257,005	3,960	241,454	123,387
258,020	3,521	241,228	122,909
259,034	3,673	241,013	122,911
260,049	3,974	240,993	123,130
261,063	3,650	240,682	122,701
262,078	3,717	240,593	122,698
263,093	3,930	240,545	122,833
264,107	4,091	240,411	122,882
265,122	3,829	240,309	122,610
266,136	3,969	240,124	122,616
267,151	4,067	239,841	122,539
268,166	3,804	239,639	122,215
269,180	3,534	239,553	121,946
270,195	4,116	239,506	122,374
271,209	4,552	239,310	122,609
272,224	3,904	239,140	121,997
273,239	3,533	238,878	121,558
274,253	3,763	238,672	121,625
275,268	3,868	238,622	121,672
276,282	3,834	238,505	121,574
277,297	3,583	238,319	121,271
278,312	3,882	238,102	121,386
279,326	3,818	238,155	121,350
280,341	4,047	237,789	121,334
281,355	3,848	237,714	121,128
282,370	3,919	237,714	121,173
283,384	3,999	237,435	121,083
284,399	3,700	237,144	120,688
285,414	3,724	236,978	120,612
286,428	3,879	236,849	120,657
287,443	3,685	236,863	120,502
288,457	3,988	236,728	120,660
289,472	3,979	236,617	120,586
290,487	3,798	236,418	120,332
291,501	3,804	236,167	120,198
292,516	3,629	235,912	119,920
293,530	3,576	235,814	119,818
294,545	3,808	235,884	120,025
295,560	3,960	235,473	119,924
296,574	3,577	235,383	119,568
297,589	3,674	235,246	119,564
298,603	4,003	235,211	119,791
299,618	4,188	235,010	119,823
300,633	3,989	234,899	119,600
301,647	4,040	234,842	119,600
302,662	4,474	234,744	119,877
303,676	4,253	234,558	119,600
304,691	4,131	234,507	119,468
305,706	4,281	234,195	119,415
306,720	4,183	234,179	119,320
307,735	4,067	233,844	119,049
308,749	3,925	233,760	118,886
309,764	3,934	233,523	118,762
310,779	3,689	233,247	118,422
311,793	3,604	233,070	118,256
312,808	3,701	232,903	118,235
313,822	3,714	232,737	118,150
314,837	3,805	232,623	118,152
315,852	3,683	232,464	117,967
316,866	3,821	232,603	118,133
317,881	3,907	232,467	118,119
318,895	3,939	232,181	117,989
319,910	3,722	232,098	117,769
320,925	3,820	231,886	117,726
321,939	3,785	231,900	117,696
322,954	3,988	231,650	117,714
323,968	4,029	231,447	117,632
324,983	3,840	231,294	117,399
325,997	3,712	231,225	117,256
327,012	3,915	230,966	117,269
328,027	4,015	230,906	117,304
329,041	4,296	230,908	117,509
330,056	4,693	230,885	117,790
331,070	4,571	230,669	117,576
332,085	4,295	230,510	117,274
333,100	4,021	230,302	116,950
334,114	4,125	229,945	116,837
335,129	4,141	229,924	116,828
336,143	4,562	229,826	117,087
337,158	4,219	229,676	116,740
338,173	4,120	229,445	116,537
339,187	4,083	229,276	116,413
340,202	4,192	229,172	116,433
341,216	4,216	228,996	116,351
342,231	4,094	228,881	116,190
343,246	3,975	228,793	116,046
344,260	4,128	228,604	116,054
345,275	4,142	228,547	116,026
346,289	4,436	228,431	116,178
347,304	4,342	228,237	115,997
348,319	4,168	228,157	115,816
349,333	4,233	227,868	115,708
350,348	4,143	227,612	115,500
351,362	4,127	227,568	115,456
352,377	3,867	227,424	115,177
353,392	3,790	227,232	115,012
354,406	3,779	227,097	114,925
355,421	194,591	1321,038	1394,577
356,435	155,978	1454,311	1394,573
