DTS Sentinel unit serial number:	SN410029Multiplexer serial number:	ORYXHardware model number:	OX2-SRSoftware version number:	ORYX F/W v4,00 Oryx Data Collector v3.7.2.0data status	okinstallation	B5 Nyhavnadifferential loss correction	single-endedforward channel	channel 2reverse channel	N/Adate	2023/12/14time	12:12:13forward acquisition time	300,00reverse acquisition time	0,00gamma	499,1914k internal	0,3158k external	0,3158temperature offset calibration	1,0000default loss term (dB/km)	0,3820temperature slope calibration	1,0000multiplexer offset coefficient	1,0000multiplexer slope coefficient	1,0000fibre end	0,00T internal ref (°C)	7,70T ext. ref 1 (°C)	-7,78T ext. ref 2 (°C)	-7,82length (m)	temperature (°C)	Stokes	anti-Stokes-744,400	-91,594	0,136	0,028
-743,385	-109,900	-0,281	0,043
-742,371	7,744	0,338	0,186
-741,356	-100,115	-0,318	-0,058
-740,342	-123,878	0,287	0,033
-739,327	-98,466	-0,379	-0,071
-738,312	4,116	0,200	0,108
-737,298	-15,484	-0,266	-0,125
-736,283	371,281	0,099	0,149
-735,269	-121,574	-0,470	-0,057
-734,254	47,373	0,168	0,115
-733,239	-45,220	-0,576	-0,210
-732,225	-151,952	0,271	0,014
-731,210	390,767	-0,033	0,050
-730,196	708,796	-0,018	-0,036
-729,181	-200,000	-0,031	-0,133
-728,167	-200,000	-0,015	-0,126
-727,152	-65,674	-0,180	0,053
-726,137	-81,013	-0,035	-0,009
-725,123	369,270	0,040	-0,060
-724,108	30,438	-0,060	-0,038
-723,094	-200,000	-0,001	-0,266
-722,079	-200,000	0,002	0,066
-721,064	800,000	0,028	0,061
-720,050	-200,000	0,005	-0,133
-719,035	648,497	-0,061	-0,115
-718,021	21,039	-0,102	0,061
-717,006	-200,000	-0,058	-0,218
-715,991	339,498	-0,131	-0,188
-714,977	-6,985	-0,051	-0,026
-713,962	429,753	0,068	-0,109
-712,948	-200,000	0,024	-0,124
-711,933	-147,855	0,077	-0,005
-710,918	190,523	0,055	-0,060
-709,904	27,395	-0,041	-0,025
-708,889	-200,000	0,002	-0,055
-707,875	36,182	-0,114	0,074
-706,860	639,114	0,011	-0,020
-705,845	519,268	0,045	0,078
-704,831	-109,368	-0,044	0,007
-703,816	31,120	0,078	-0,049
-702,802	-200,000	-0,027	0,112
-701,787	187,335	-0,118	-0,130
-700,772	-200,000	-0,008	0,028
-699,758	-155,578	-0,097	0,005
-698,743	77,184	0,066	0,052
-697,729	-200,000	-0,003	-0,101
-696,714	29,450	0,070	0,044
-695,699	-19,426	-0,049	-0,022
-694,685	-200,000	-0,024	-0,136
-693,670	168,148	-0,034	0,036
-692,656	-176,297	-0,193	-0,004
-691,641	117,578	0,034	-0,031
-690,627	-200,000	0,021	0,170
-689,612	439,831	-0,028	-0,046
-688,597	-1,521	-0,091	-0,047
-687,583	-96,662	0,034	-0,007
-686,568	-58,646	-0,094	-0,030
-685,554	630,989	-0,085	-0,158
-684,539	-106,124	0,038	0,006
-683,524	346,153	-0,115	0,167
-682,510	-115,405	0,063	0,009
-681,495	-200,000	-0,004	-0,149
-680,481	-77,802	-0,075	0,019
-679,466	-81,600	-0,121	-0,029
-678,451	255,444	0,031	0,040
-677,437	-117,258	0,068	-0,009
-676,422	150,907	0,088	0,088
-675,408	121,283	-0,084	0,077
-674,393	-63,291	-0,192	0,058
-673,378	-200,000	0,003	-0,021
-672,364	-43,419	-0,117	0,043
-671,349	800,000	-0,034	-0,095
-670,335	160,886	-0,125	0,128
-669,320	800,000	0,029	-0,061
-668,305	76,799	0,068	-0,053
-667,291	71,034	-0,073	0,056
-666,276	95,358	0,061	-0,051
-665,262	800,000	-0,020	-0,049
-664,247	186,531	-0,081	-0,089
-663,232	-13,336	0,118	0,056
-662,218	56,833	-0,121	0,087
-661,203	-200,000	0,006	0,127
-660,189	202,034	0,141	0,160
-659,174	800,000	0,018	0,041
-658,159	-101,712	-0,112	-0,020
-657,145	179,499	-0,076	0,082
-656,130	800,000	0,039	0,083
-655,116	8,047	0,037	-0,020
-654,101	-150,672	-0,005	-0,000
-653,086	-42,991	0,067	0,025
-652,072	-200,000	0,010	-0,135
-651,057	-14,180	-0,116	-0,055
-650,043	-200,000	-0,011	-0,123
-649,028	346,326	0,024	0,035
-648,014	800,000	-0,017	0,046
-646,999	113,021	0,095	-0,085
-645,984	-78,775	0,029	0,007
-644,970	607,287	-0,020	-0,036
-643,955	-118,214	-0,043	0,006
-642,941	134,957	-0,065	-0,062
-641,926	272,949	-0,006	-0,007
-640,911	630,054	0,053	0,098
-639,897	-200,000	-0,018	0,089
-638,882	68,388	-0,054	-0,041
-637,868	47,772	0,082	0,056
-636,853	-200,000	0,019	-0,081
-635,838	-48,465	-0,170	-0,060
-634,824	-137,606	0,174	-0,014
-633,809	-200,000	-0,012	0,081
-632,795	-76,528	-0,067	-0,017
-631,780	10,179	0,069	-0,038
-630,765	-91,970	-0,116	-0,024
-629,751	587,829	0,115	-0,208
-628,736	558,290	-0,044	-0,079
-627,722	-200,000	-0,000	0,033
-626,707	-200,000	-0,022	-0,139
-625,692	440,171	0,034	0,055
-624,678	4,450	0,141	-0,075
-623,663	172,479	-0,083	0,088
-622,649	105,805	0,041	0,036
-621,634	405,116	0,052	-0,080
-620,619	-200,000	0,017	-0,141
-619,605	-37,898	-0,073	0,028
-618,590	276,516	0,035	-0,046
-617,576	-185,672	0,026	-0,000
-616,561	71,044	-0,073	0,055
-615,546	455,615	0,054	-0,088
-614,532	800,000	-0,039	-0,111
-613,517	23,067	-0,101	-0,061
-612,503	-139,482	0,179	-0,014
-611,488	44,998	0,039	-0,027
-610,474	-107,310	0,040	-0,006
-609,459	-104,868	0,221	0,037
-608,444	31,698	0,049	-0,031
-607,430	794,547	-0,046	-0,093
-606,415	167,080	-0,107	-0,112
-605,401	-200,000	-0,008	0,118
-604,386	-40,498	-0,148	-0,056
-603,371	-156,390	0,162	-0,007
-602,357	800,000	-0,034	-0,094
-601,342	56,370	-0,048	-0,034
-600,328	-72,465	0,150	0,040
-599,313	800,000	-0,007	-0,013
-598,298	18,946	-0,048	0,028
-597,284	-159,869	-0,009	0,000
-596,269	-29,344	0,103	0,043
-595,255	656,296	0,027	0,051
-594,240	99,251	0,116	-0,099
-593,225	23,394	-0,079	-0,047
-592,211	142,568	-0,049	0,047
-591,196	-47,260	0,057	0,020
-590,182	800,000	-0,032	-0,097
-589,167	-56,803	0,074	-0,024
-588,152	144,269	0,041	-0,040
-587,138	-67,007	-0,099	0,029
-586,123	-19,575	-0,038	-0,017
-585,109	-200,000	0,016	-0,054
-584,094	211,411	0,046	0,053
-583,079	-200,000	0,007	0,105
-582,065	53,799	0,036	0,026
-581,050	800,000	-0,048	0,113
-580,036	-47,619	0,065	0,023
-579,021	473,885	0,085	-0,141
-578,006	-54,645	-0,035	0,012
-576,992	488,053	0,032	0,053
-575,977	-200,000	0,014	0,061
-574,963	42,323	-0,060	-0,040
-573,948	-200,000	0,008	0,070
-572,934	800,000	-0,033	0,105
-571,919	42,986	-0,058	-0,039
-570,904	-200,000	0,013	-0,140
-569,890	-100,675	-0,069	-0,012
-568,875	81,766	0,104	0,082
-567,861	119,838	-0,064	0,058
-566,846	-43,595	-0,017	0,006
-565,831	-103,639	-0,122	0,021
-564,817	-115,553	-0,100	-0,014
-563,802	800,000	-0,026	-0,075
-562,788	68,982	0,045	0,034
-561,773	800,000	0,049	-0,101
-560,758	97,799	0,060	0,050
-559,744	-200,000	0,017	-0,065
-558,729	-200,000	-0,013	0,106
-557,715	0,965	0,049	0,025
-556,700	800,000	-0,037	-0,077
-555,685	167,485	0,119	-0,124
-554,671	-200,000	0,012	0,045
-553,656	239,883	0,040	0,049
-552,642	-200,000	0,004	0,089
-551,627	-200,000	-0,005	0,255
-550,612	-200,000	-0,004	-0,148
-549,598	-200,000	-0,008	-0,124
-548,583	-157,655	-0,137	0,006
-547,569	247,785	-0,008	-0,010
-546,554	-200,000	0,008	0,048
-545,539	274,433	-0,028	0,036
-544,525	75,849	0,061	0,047
-543,510	145,508	-0,042	-0,041
-542,496	-200,000	0,012	-0,195
-541,481	75,226	-0,023	0,018
-540,466	174,715	0,030	-0,032
-539,452	166,022	-0,079	-0,082
-538,437	-8,139	0,049	0,024
-537,423	253,907	-0,049	0,062
-536,408	136,993	0,029	0,028
-535,393	-126,438	0,036	0,004
-534,379	511,236	-0,031	-0,053
-533,364	800,000	-0,059	-0,137
-532,350	-200,000	0,001	0,095
-531,335	52,842	0,058	-0,041
-530,321	-200,000	-0,003	0,043
-529,306	-200,000	0,012	0,094
-528,291	800,000	-0,016	0,040
-527,277	-27,350	-0,105	0,044
-526,262	-21,642	0,071	0,031
-525,248	103,808	-0,013	-0,012
-524,233	392,436	0,049	0,075
-523,218	116,498	0,022	0,020
-522,204	-200,000	-0,033	-0,106
-521,189	305,921	0,065	-0,088
-520,175	-122,274	-0,072	0,008
-519,160	442,012	-0,047	-0,076
-518,145	2,125	-0,147	-0,078
-517,131	18,935	0,128	0,075
-516,116	-100,791	-0,119	-0,021
-515,102	-140,091	-0,075	0,006
-514,087	800,000	0,015	-0,036
-513,072	-97,932	-0,072	-0,014
-512,058	498,295	-0,039	-0,066
-511,043	604,289	0,003	0,005
-510,029	469,722	-0,025	0,041
-509,014	119,647	0,172	0,155
-507,999	-63,913	-0,096	0,028
-506,985	72,136	-0,059	-0,045
-505,970	-200,000	0,017	0,119
-504,956	257,300	-0,048	-0,061
-503,941	-11,182	0,091	0,044
-502,926	-200,000	-0,023	0,155
-501,912	-200,000	0,036	0,166
-500,897	-124,427	-0,086	-0,010
-499,883	125,427	-0,080	0,074
-498,868	87,064	-0,043	-0,034
-497,853	-162,790	0,023	0,001
-496,839	-66,355	-0,052	0,015
-495,824	116,501	0,073	0,065
-494,810	-20,450	0,164	0,073
-493,795	-200,000	-0,001	0,003
-492,781	-99,240	-0,075	-0,014
-491,766	-140,390	0,034	-0,003
-490,751	575,475	-0,066	-0,119
-489,737	-200,000	0,006	0,080
-488,722	229,751	-0,037	0,044
-487,708	800,000	0,068	0,191
-486,693	47,370	-0,053	-0,036
-485,678	531,702	-0,083	-0,144
-484,664	-112,252	-0,128	-0,018
-483,649	-58,829	0,034	-0,011
-482,635	137,581	-0,101	0,097
-481,620	-200,000	0,002	-0,072
-480,605	-119,609	0,086	-0,011
-479,591	-200,000	0,004	0,044
-478,576	-13,507	-0,070	-0,033
-477,562	33,360	-0,030	0,019
-476,547	-132,718	0,031	-0,003
-475,532	-32,364	-0,099	-0,040
-474,518	27,637	0,074	0,045
-473,503	-45,824	-0,069	0,025
-472,489	-17,327	0,101	0,046
-471,474	133,808	-0,107	0,101
-470,459	-56,182	0,072	0,023
-469,445	-200,000	-0,011	-0,082
-468,430	-170,790	0,079	0,002
-467,416	20,918	-0,044	0,026
-466,401	-200,000	-0,032	0,218
-465,386	-132,455	0,096	-0,009
-464,372	-82,073	0,080	-0,019
-463,357	-64,244	-0,052	-0,015
-462,343	202,774	-0,043	0,049
-461,328	800,000	-0,053	-0,130
-460,313	244,282	-0,018	-0,022
-459,299	-58,568	0,130	0,041
-458,284	-200,000	0,023	0,131
-457,270	191,220	-0,056	0,061
-456,255	-163,455	0,051	-0,002
-455,241	55,566	-0,073	-0,051
-454,226	46,097	-0,096	-0,064
-453,211	-155,438	0,136	0,006
-452,197	122,012	0,103	0,094
-451,182	-18,512	-0,040	0,018
-450,168	800,000	-0,054	0,153
-449,153	148,718	0,050	0,049
-448,138	-200,000	-0,001	-0,087
-447,124	-21,192	-0,013	-0,006
-446,109	800,000	0,031	0,087
-445,095	-74,793	0,064	-0,017
-444,080	-54,021	-0,049	0,016
-443,065	232,720	0,032	-0,039
-442,051	622,076	-0,044	0,081
-441,036	-200,000	-0,007	0,026
-440,022	-200,000	-0,027	-0,134
-439,007	-200,000	-0,003	-0,130
-437,992	-185,692	0,132	-0,001
-436,978	18,457	0,037	-0,022
-435,963	-22,196	0,039	0,017
-434,949	36,866	-0,055	-0,035
-433,934	269,777	-0,043	-0,056
-432,919	800,000	-0,013	-0,037
-431,905	-200,000	-0,016	0,071
-430,890	23,630	0,144	0,086
-429,876	-12,697	-0,032	0,015
-428,861	-165,578	0,012	-0,000
-427,846	-120,447	-0,105	-0,013
-426,832	-90,916	-0,026	0,005
-425,817	800,000	-0,039	0,095
-424,803	40,069	0,093	0,061
-423,788	91,523	0,109	0,089
-422,773	-159,557	-0,032	-0,001
-421,759	49,580	-0,089	-0,061
-420,744	800,000	0,029	0,071
-419,730	237,675	-0,046	-0,055
-418,715	-200,000	0,023	-0,130
-417,701	-200,000	-0,029	-0,097
-416,686	-69,056	0,136	0,038
-415,671	215,698	-0,055	0,064
-414,657	-78,638	0,047	0,011
-413,642	-25,109	0,092	-0,039
-412,628	133,360	-0,161	-0,152
-411,613	-200,000	-0,012	-0,039
-410,598	-156,631	0,053	-0,002
-409,584	188,919	-0,052	-0,056
-408,569	800,000	0,024	0,074
-407,555	7,309	-0,203	0,110
-406,540	-52,869	0,150	0,050
-405,525	42,831	-0,117	-0,077
-404,511	-164,617	0,075	0,002
-403,496	-84,577	-0,095	-0,022
-402,482	206,589	0,119	0,135
-401,467	-200,000	-0,016	0,109
-400,452	800,000	-0,018	0,044
-399,438	332,705	-0,036	0,050
-398,423	453,482	0,056	-0,091
-397,409	116,874	-0,036	-0,032
-396,394	-200,000	-0,015	0,079
-395,379	-200,000	-0,002	0,048
-394,365	800,000	0,032	-0,076
-393,350	-200,000	-0,022	0,186
-392,336	-128,360	-0,116	-0,012
-391,321	-200,000	-0,020	-0,124
-390,306	107,875	-0,058	0,050
-389,292	800,000	-0,039	-0,095
-388,277	800,000	0,034	-0,097
-387,263	-115,821	-0,068	0,009
-386,248	-200,000	0,012	-0,077
-385,233	-3,490	0,048	0,024
-384,219	-99,630	-0,073	-0,013
-383,204	289,324	-0,040	-0,053
-382,190	-113,420	-0,104	0,015
-381,175	800,000	-0,017	0,036
-380,160	800,000	0,027	-0,070
-379,146	-33,442	0,136	-0,055
-378,131	-200,000	0,011	0,059
-377,117	780,836	-0,030	0,060
-376,102	-138,957	0,033	-0,003
-375,088	800,000	-0,022	0,051
-374,073	-200,000	-0,010	0,143
-373,058	-124,016	0,055	0,006
-372,044	-200,000	-0,009	-0,046
-371,029	242,046	0,085	-0,104
-370,015	168,472	0,113	0,117
-369,000	236,187	-0,114	-0,137
-367,985	21,788	0,102	-0,060
-366,971	71,335	-0,096	0,072
-365,956	-38,458	0,089	0,034
-364,942	299,144	-0,029	0,039
-363,927	-200,000	0,012	0,099
-362,912	2,009	0,041	-0,021
-361,898	-12,787	-0,128	0,060
-360,883	800,000	-0,049	-0,139
-359,869	44,817	0,080	0,054
-358,854	-200,000	-0,021	0,075
-357,839	106,172	0,085	-0,073
-356,825	71,667	0,102	0,077
-355,810	-8,649	-0,071	0,034
-354,796	126,038	0,091	-0,083
-353,781	128,142	-0,096	0,088
-352,766	-200,000	0,009	-0,043
-351,752	-106,292	0,061	0,010
-350,737	247,765	0,074	-0,091
-349,723	742,068	0,059	0,116
-348,708	300,782	-0,086	0,115
-347,693	-44,481	-0,149	-0,054
-346,679	800,000	0,018	-0,055
-345,664	-89,830	-0,133	-0,028
-344,650	167,034	-0,036	-0,037
-343,635	-90,891	0,070	0,014
-342,620	-101,150	-0,064	-0,011
-341,606	457,672	0,081	0,132
-340,591	226,867	0,105	-0,124
-339,577	-16,553	-0,097	0,045
-338,562	-35,935	0,057	0,022
-337,548	212,550	0,039	0,044
-336,533	31,707	0,154	0,096
-335,518	-140,930	-0,082	0,006
-334,504	-200,000	-0,010	0,073
-333,489	342,361	0,010	-0,014
-332,475	-200,000	-0,027	-0,098
-331,460	31,790	-0,072	-0,045
-330,445	800,000	-0,046	0,144
-329,431	407,816	0,051	-0,079
-328,416	-200,000	0,044	0,148
-327,402	800,000	-0,028	0,057
-326,387	800,000	-0,024	0,049
-325,372	-200,000	0,004	0,030
-324,358	800,000	-0,048	-0,121
-323,343	-95,894	0,039	-0,008
-322,329	98,302	0,035	-0,030
-321,314	263,280	0,097	-0,122
-320,299	800,000	0,022	0,046
-319,285	800,000	-0,042	-0,103
-318,270	-40,220	0,061	-0,023
-317,256	597,879	-0,034	-0,061
-316,241	800,000	0,027	-0,072
-315,226	507,293	0,045	0,077
-314,212	-200,000	0,011	0,125
-313,197	252,632	0,106	-0,131
-312,183	-200,000	-0,010	0,058
-311,168	94,622	-0,130	-0,107
-310,153	800,000	0,047	-0,111
-309,139	-200,000	-0,020	-0,114
-308,124	-27,472	0,078	-0,033
-307,110	-104,723	-0,123	-0,020
-306,095	-200,000	-0,011	0,042
-305,080	24,800	-0,030	-0,018
-304,066	-161,444	0,026	0,001
-303,051	290,792	-0,025	-0,033
-302,037	-200,000	-0,022	-0,102
-301,022	-46,354	0,195	0,069
-300,008	800,000	0,017	-0,050
-298,993	468,500	-0,036	0,058
-297,978	280,997	0,034	-0,044
-296,964	115,120	0,103	-0,091
-295,949	66,467	-0,158	0,116
-294,935	-200,000	0,010	0,064
-293,920	-106,200	-0,179	0,029
-292,905	604,097	0,049	0,090
-291,891	8,978	0,069	0,038
-290,876	267,732	-0,071	0,090
-289,862	411,477	-0,073	-0,113
-288,847	32,174	0,036	-0,023
-287,832	-10,787	-0,060	-0,029
-286,818	68,558	0,077	-0,057
-285,803	674,279	0,025	0,046
-284,789	50,116	-0,164	0,112
-283,774	131,608	0,055	-0,051
-282,759	800,000	0,042	-0,126
-281,745	59,359	0,096	-0,068
-280,730	502,795	0,039	0,066
-279,716	-158,708	-0,059	-0,002
-278,701	227,881	0,063	-0,075
-277,686	-77,094	-0,218	0,055
-276,672	-98,563	0,150	0,027
-275,657	-200,000	-0,012	0,108
-274,643	85,404	0,132	-0,105
-273,628	-200,000	0,013	0,047
-272,613	151,751	-0,076	-0,075
-271,599	-62,914	-0,108	-0,032
-270,584	644,740	-0,037	0,069
-269,570	-15,037	-0,064	0,029
-268,555	-200,000	-0,005	0,026
-267,540	-99,345	-0,051	-0,009
-266,526	5,649	-0,117	-0,062
-265,511	-110,185	-0,083	0,012
-264,497	800,000	-0,056	-0,117
-263,482	800,000	0,038	0,118
-262,467	-80,038	0,161	-0,039
-261,453	800,000	0,026	-0,055
-260,438	-200,000	0,001	-0,105
-259,424	47,972	-0,028	0,019
-258,409	-200,000	-0,028	0,138
-257,395	-193,894	-0,109	0,001
-256,380	800,000	-0,030	-0,066
-255,365	-200,000	0,015	-0,063
-254,351	231,577	-0,049	0,059
-253,336	-48,386	0,073	0,025
-252,322	-29,974	0,048	0,019
-251,307	-132,907	-0,089	0,008
-250,292	12,096	0,033	0,018
-249,278	-40,858	0,196	0,073
-248,263	-47,817	0,207	0,072
-247,249	117,023	0,063	0,056
-246,234	412,661	0,039	0,061
-245,219	-200,000	-0,004	0,029
-244,205	-10,354	0,070	-0,033
-243,190	-200,000	0,024	0,126
-242,176	-200,000	-0,023	0,104
-241,161	350,796	0,086	0,123
-240,146	246,901	-0,030	0,037
-239,132	341,770	0,026	-0,037
-238,117	188,994	-0,010	0,011
-237,103	61,455	-0,030	0,021
-236,088	-76,533	-0,112	0,028
-235,073	369,431	0,047	-0,069
-234,059	800,000	0,032	-0,091
-233,044	78,052	-0,076	0,059
-232,030	44,300	0,091	-0,060
-231,015	147,722	0,047	-0,046
-230,000	185,584	-0,040	-0,043
-228,986	38,105	0,031	0,020
-227,971	-200,000	-0,003	0,065
-226,957	772,583	0,033	0,066
-225,942	-125,632	-0,146	0,016
-224,927	277,056	-0,050	-0,064
-223,913	111,665	-0,038	-0,033
-222,898	-33,973	-0,020	-0,008
-221,884	60,440	-0,189	-0,135
-220,869	-6,340	0,098	0,048
-219,855	-116,771	-0,067	-0,009
-218,840	317,503	0,078	0,106
-217,825	-200,000	0,028	-0,103
-216,811	165,137	0,030	-0,031
-215,796	17,956	-0,089	-0,051
-214,782	-55,186	-0,128	-0,041
-213,767	800,000	0,045	0,126
-212,752	19,144	0,045	0,026
-211,738	-184,983	0,054	-0,001
-210,723	-121,633	-0,091	-0,011
-209,709	-200,000	0,039	0,141
-208,694	342,091	0,124	0,175
-207,679	-124,484	-0,140	0,015
-206,665	209,029	-0,012	-0,013
-205,650	345,449	-0,053	0,075
-204,636	1,098	0,079	0,041
-203,621	800,000	0,011	0,031
-202,606	62,711	-0,030	-0,022
-201,592	-200,000	-0,021	-0,133
-200,577	-4,065	0,104	-0,052
-199,563	-23,775	-0,098	-0,042
-198,548	120,366	-0,053	0,047
-197,533	93,621	-0,068	-0,055
-196,519	12,542	0,048	0,026
-195,504	800,000	-0,003	0,007
-194,490	4,725	-0,076	0,040
-193,475	-200,000	-0,001	-0,101
-192,460	275,430	-0,121	-0,155
-191,446	39,769	0,089	-0,057
-190,431	66,013	0,084	0,061
-189,417	-72,348	-0,068	0,018
-188,402	424,568	0,017	-0,027
-187,387	-200,000	-0,023	-0,117
-186,373	-200,000	0,037	-0,239
-185,358	-200,000	0,002	-0,064
-184,344	-12,978	0,097	0,045
-183,329	-200,000	-0,013	0,112
-182,315	355,637	0,019	0,027
-181,300	800,000	-0,029	-0,086
-180,285	151,306	0,103	-0,102
-179,271	-101,098	-0,174	-0,030
-178,256	600,025	0,060	-0,108
-177,242	84,907	0,045	0,036
-176,227	800,000	0,068	0,179
-175,212	-55,954	0,175	-0,056
-174,198	-200,000	-0,015	0,079
-173,183	-84,190	-0,125	-0,028
-172,169	173,315	0,098	0,102
-171,154	800,000	0,031	-0,095
-170,139	-131,554	0,067	0,006
-169,125	83,809	-0,054	0,042
-168,110	-200,000	-0,006	0,031
-167,096	38,311	-0,028	0,018
-166,081	-200,000	-0,008	-0,085
-165,066	-67,797	-0,088	-0,025
-164,052	-122,928	-0,072	0,008
-163,037	575,747	-0,049	-0,087
-162,023	25,123	0,166	-0,099
-161,008	203,566	-0,040	-0,044
-159,993	505,990	0,029	0,048
-158,979	-200,000	-0,010	0,059
-157,964	-200,000	-0,055	-0,185
-156,950	4,437	0,066	0,035
-155,935	56,607	0,087	0,061
-154,920	-200,000	0,010	0,117
-153,906	-163,058	-0,101	-0,003
-152,891	-200,000	0,004	-0,091
-151,877	36,354	0,095	0,060
-150,862	-200,000	0,014	0,124
-149,847	-200,000	-0,015	0,138
-148,833	-200,000	0,007	0,028
-147,818	47,312	0,069	-0,046
-146,804	-200,000	0,001	-0,022
-145,789	-200,000	-0,012	-0,099
-144,775	-200,000	-0,012	0,088
-143,760	800,000	-0,059	-0,177
-142,745	-45,552	0,082	-0,029
-141,731	13,547	0,077	0,043
-140,716	175,729	0,087	-0,090
-139,702	148,230	0,021	0,020
-138,687	-200,000	0,012	0,049
-137,672	800,000	0,021	-0,060
-136,658	58,462	-0,114	-0,080
-135,643	226,915	-0,013	-0,015
-134,629	-86,086	0,109	0,024
-133,614	800,000	0,024	-0,055
-132,599	-33,732	-0,084	0,033
-131,585	59,009	0,063	0,044
-130,570	421,045	-0,025	0,039
-129,556	101,700	0,024	0,020
-128,541	-200,000	0,026	0,140
-127,526	-27,769	-0,028	-0,012
-126,512	117,461	-0,047	-0,042
-125,497	-18,835	0,168	0,075
-124,483	304,633	-0,056	-0,075
-123,468	368,482	0,029	0,042
-122,453	202,274	-0,041	-0,046
-121,439	103,446	0,069	-0,058
-120,424	536,849	0,031	-0,053
-119,410	-200,000	0,029	0,168
-118,395	347,773	0,016	0,022
-117,380	-108,757	0,050	0,008
-116,366	-130,482	-0,023	0,002
-115,351	467,142	-0,050	-0,081
-114,337	47,788	-0,100	-0,067
-113,322	266,728	-0,154	-0,195
-112,307	800,000	0,027	0,072
-111,293	380,874	0,051	0,075
-110,278	800,000	-0,043	0,129
-109,264	-200,000	0,016	-0,077
-108,249	91,594	-0,027	-0,022
-107,234	408,995	0,065	-0,099
-106,220	232,526	0,102	0,121
-105,205	430,705	-0,078	0,122
-104,191	135,711	-0,104	0,097
-103,176	800,000	-0,024	0,059
-102,162	800,000	0,037	-0,083
-101,147	80,793	0,026	-0,020
-100,132	-200,000	0,017	-0,095
-99,118	-200,000	0,008	0,155
-98,103	800,000	0,023	0,062
-97,089	-144,228	0,170	0,011
-96,074	602,596	-0,047	-0,084
-95,059	172,310	0,058	0,060
-94,045	800,000	-0,034	-0,083
-93,030	-200,000	0,033	-0,116
-92,016	-35,661	-0,151	0,058
-91,001	-6,166	0,159	-0,078
-89,986	-200,000	0,006	-0,053
-88,972	-200,000	0,004	0,041
-87,957	-38,136	0,186	-0,071
-86,943	-154,612	-0,154	0,007
-85,928	-92,026	0,251	0,051
-84,913	134,130	-0,019	0,017
-83,899	-42,748	0,055	-0,020
-82,884	83,584	-0,095	0,074
-81,870	-99,196	0,195	0,035
-80,855	43,087	-0,018	-0,012
-79,840	215,418	0,020	-0,023
-78,826	233,491	-0,089	-0,106
-77,811	56,599	-0,119	-0,083
-76,797	-6,502	0,044	-0,021
-75,782	-55,149	0,076	0,025
-74,767	-103,925	0,096	-0,016
-73,753	22,985	-0,087	-0,051
-72,738	-200,000	-0,003	-0,173
-71,724	800,000	0,045	-0,107
-70,709	436,350	-0,078	-0,122
-69,694	-26,304	-0,042	0,017
-68,680	-61,031	0,119	-0,036
-67,665	800,000	0,046	0,124
-66,651	-159,757	-0,131	-0,005
-65,636	427,414	0,012	0,019
-64,622	73,033	-0,084	-0,063
-63,607	-200,000	0,013	-0,074
-62,592	93,441	-0,062	0,051
-61,578	-67,602	-0,094	0,026
-60,563	-5,274	0,105	0,051
-59,549	119,414	-0,056	0,050
-58,534	74,470	-2,748	-2,071
-57,519	-26,937	0,342	-0,142
-56,505	800,000	-1,837	-5,653
-55,490	450,834	1,268	2,015
-54,476	800,000	5,272	11,216
-53,461	-200,000	22,245	348,121
-52,446	800,000	761,467	2286,667
-51,432	509,873	1645,002	2754,342
-50,417	96,163	1606,741	1317,118
-49,403	64,122	1263,720	911,055
-48,388	22,617	1016,210	595,192
-47,373	19,408	983,849	565,645
-46,359	12,728	970,637	536,219
-45,344	8,390	967,586	520,323
-44,330	8,852	965,398	520,633
-43,315	7,815	963,767	516,350
-42,300	7,716	963,018	515,605
-41,286	7,710	961,818	514,921
-40,271	7,824	960,443	514,536
-39,257	7,788	959,623	513,960
-38,242	7,754	958,917	513,452
-37,227	7,714	958,310	512,977
-36,213	7,654	957,337	512,241
-35,198	7,749	956,350	511,998
-34,184	7,844	955,427	511,792
-33,169	7,667	954,864	510,898
-32,154	7,831	953,738	510,806
-31,140	7,786	952,966	510,227
-30,125	7,750	952,248	509,706
-29,111	7,754	951,430	509,259
-28,096	7,726	950,860	508,846
-27,082	7,749	950,117	508,500
-26,067	7,673	949,517	507,916
-25,052	7,683	948,637	507,456
-24,038	7,703	947,961	507,139
-23,023	7,707	947,289	506,771
-22,009	7,754	946,771	506,627
-20,994	7,735	945,922	506,089
-19,979	7,746	945,328	505,786
-18,965	7,702	944,898	505,397
-17,950	7,750	944,145	505,127
-16,936	7,692	943,616	504,637
-15,921	7,688	942,784	504,161
-14,906	7,650	941,927	503,562
-13,892	7,681	941,452	503,386
-12,877	7,638	940,900	502,933
-11,863	7,565	940,360	502,394
-10,848	7,566	939,680	502,014
-9,833	7,704	939,439	502,303
-8,819	7,622	938,563	501,556
-7,804	7,642	937,891	501,239
-6,790	7,598	937,336	500,784
-5,775	7,668	936,898	500,750
-4,760	7,707	936,167	500,465
-3,746	7,677	935,614	500,053
-2,731	7,531	934,932	499,208
-1,717	7,508	934,177	498,713
-0,702	7,480	933,633	498,314
0,313	7,377	932,897	498,348
1,327	10,719	930,737	507,674
2,342	19,492	778,691	447,692
3,356	14,851	447,103	250,061
4,371	-11,028	311,813	146,951
5,386	-14,864	294,437	134,881
6,400	-16,973	288,276	129,962
7,415	-17,469	285,638	128,276
8,429	-18,253	283,707	126,634
9,444	-18,405	282,694	126,023
10,459	-18,196	282,070	125,937
11,473	-18,227	281,418	125,604
12,488	-18,215	280,971	125,405
13,502	-18,255	280,389	125,095
14,517	-18,310	280,190	124,943
15,531	-18,239	279,532	124,707
16,546	-18,376	279,228	124,428
17,561	-18,387	278,805	124,218
18,575	-18,319	278,440	124,110
19,590	-18,407	277,997	123,817
20,604	-18,232	277,663	123,823
21,619	-18,094	277,156	123,718
22,634	-18,267	276,991	123,469
23,648	-18,488	276,736	123,134
24,663	-18,340	276,565	123,188
25,677	-18,324	276,269	123,061
26,692	-18,434	276,050	122,848
27,707	-18,365	275,671	122,734
28,721	-18,340	275,439	122,643
29,736	-18,316	275,020	122,468
30,750	-18,472	274,929	122,269
31,765	-18,422	274,627	122,171
32,780	-18,275	274,331	122,166
33,794	-18,186	274,166	122,166
34,809	-18,587	274,027	121,717
35,823	-18,223	273,566	121,842
36,838	-18,430	273,397	121,562
37,853	-18,248	273,002	121,546
38,867	-18,360	272,904	121,387
39,882	-18,331	272,514	121,230
40,896	-18,280	272,354	121,195
41,911	-18,296	271,986	121,006
42,926	-18,462	272,068	120,877
43,940	-18,283	271,603	120,826
44,955	-18,300	271,383	120,701
45,969	-18,410	271,183	120,499
46,984	-18,151	271,044	120,667
47,999	-18,441	270,878	120,314
49,013	-18,150	270,531	120,418
50,028	-18,266	270,225	120,164
51,042	-18,220	270,120	120,149
52,057	-18,174	269,922	120,093
53,071	-18,263	269,707	119,904
54,086	-18,213	269,439	119,821
55,101	-18,127	269,272	119,815
56,115	-18,277	269,037	119,562
57,130	-18,163	268,621	119,471
58,144	-18,313	268,542	119,287
59,159	-18,203	268,132	119,196
60,174	-18,290	268,113	119,097
61,188	-18,093	267,774	119,115
62,203	-18,105	267,591	119,013
63,217	-18,278	267,429	118,772
64,232	-18,316	267,129	118,593
65,247	-18,259	266,830	118,502
66,261	-18,273	266,701	118,421
67,276	-18,350	266,570	118,283
68,290	-18,322	266,297	118,176
69,305	-18,203	266,022	118,152
70,320	-18,122	265,809	118,120
71,334	-18,247	265,669	117,934
72,349	-18,325	265,313	117,695
73,363	-18,272	265,004	117,595
74,378	-18,125	264,856	117,652
75,393	-18,199	264,533	117,431
76,407	-18,173	264,367	117,371
77,422	-18,107	264,081	117,293
78,436	-18,006	263,805	117,250
79,451	-18,226	263,761	117,023
80,466	-18,112	263,293	116,907
81,480	-18,063	263,185	116,892
82,495	-18,149	262,906	116,681
83,509	-18,414	262,939	116,448
84,524	-18,040	262,582	116,614
85,539	-18,266	262,515	116,371
86,553	-18,137	262,053	116,271
87,568	-18,562	262,151	115,926
88,582	-18,224	261,808	116,064
89,597	-18,343	261,709	115,904
90,611	-18,373	261,385	115,723
91,626	-18,121	261,228	115,868
92,641	-18,116	260,891	115,713
93,655	-18,190	260,765	115,581
94,670	-18,212	260,495	115,431
95,684	-18,323	260,401	115,281
96,699	-18,121	260,121	115,325
97,714	-18,193	259,853	115,132
98,728	-18,319	259,794	114,985
99,743	-18,364	259,601	114,850
100,757	-18,230	259,408	114,872
101,772	-18,075	259,119	114,871
102,787	-18,158	258,931	114,704
103,801	-18,138	258,711	114,614
104,816	-18,263	258,565	114,429
105,830	-18,187	258,297	114,367
106,845	-18,161	258,241	114,354
107,860	-18,372	258,052	114,075
108,874	-18,181	257,574	114,022
109,889	-18,183	257,499	113,977
110,903	-18,189	257,304	113,874
111,918	-18,099	257,080	113,844
112,933	-18,099	256,908	113,758
113,947	-18,191	256,857	113,645
114,962	-17,996	256,564	113,675
115,976	-18,084	256,412	113,520
116,991	-18,189	256,204	113,327
118,006	-18,010	255,924	113,349
119,020	-18,310	255,791	113,020
120,035	-18,165	255,763	113,122
121,049	-18,233	255,563	112,965
122,064	-18,232	255,286	112,833
123,079	-18,201	255,059	112,750
124,093	-18,293	254,848	112,567
125,108	-18,245	254,681	112,525
126,122	-17,947	254,356	112,628
127,137	-18,082	254,194	112,430
128,151	-18,060	254,108	112,400
129,166	-18,163	253,806	112,169
130,181	-18,304	253,737	112,007
131,195	-18,332	253,295	111,778
132,210	-17,980	253,218	112,036
133,224	-18,277	253,070	111,706
134,239	-18,233	252,832	111,628
135,254	-18,076	252,496	111,604
136,268	-18,224	252,410	111,430
137,283	-18,078	252,128	111,420
138,297	-18,194	252,002	111,255
139,312	-18,195	251,754	111,135
140,327	-18,146	251,648	111,120
141,341	-18,078	251,466	111,088
142,356	-18,178	251,392	110,960
143,370	-18,204	251,128	110,812
144,385	-18,040	250,910	110,845
145,400	-17,994	250,626	110,749
146,414	-18,054	250,497	110,631
147,429	-17,882	250,243	110,654
148,443	-17,966	250,032	110,480
149,458	-18,022	249,934	110,380
150,473	-18,130	249,880	110,255
151,487	-17,931	249,525	110,256
152,502	-18,122	249,387	110,024
153,516	-18,112	249,108	109,899
154,531	-17,980	249,097	109,997
155,546	-18,053	248,872	109,826
156,560	-18,137	248,624	109,636
157,575	-18,147	248,579	109,598
158,589	-18,036	248,081	109,461
159,604	-17,996	248,018	109,457
160,619	-18,162	248,011	109,306
161,633	-17,963	247,654	109,306
162,648	-18,064	247,659	109,213
163,662	-17,890	247,376	109,224
164,677	-17,897	247,352	109,198
165,692	-17,959	247,051	109,003
166,706	-17,902	246,876	108,964
167,721	-17,916	246,564	108,805
168,735	-18,037	246,497	108,665
169,750	-17,942	246,383	108,684
170,764	-18,019	246,364	108,602
171,779	-17,851	246,025	108,582
172,794	-18,169	246,059	108,323
173,808	-18,027	245,745	108,293
174,823	-18,001	245,547	108,218
175,837	-17,978	245,338	108,135
176,852	-17,803	245,260	108,236
177,867	-18,013	245,100	107,983
178,881	-18,072	245,089	107,919
179,896	-18,033	244,877	107,848
180,910	-17,879	244,558	107,825
181,925	-17,845	244,325	107,741
182,940	-18,009	244,129	107,510
183,954	-17,996	244,009	107,458
184,969	-17,937	243,861	107,432
185,983	-17,965	243,749	107,349
186,998	-17,875	243,573	107,337
188,013	-17,967	243,339	107,148
189,027	-18,055	243,153	106,985
190,042	-18,073	242,944	106,869
191,056	-17,826	242,725	106,965
192,071	-17,772	242,642	106,963
193,086	-17,719	242,424	106,901
194,100	-17,761	242,270	106,790
195,115	-17,808	242,073	106,654
196,129	-17,738	241,756	106,562
197,144	-18,065	241,737	106,277
198,159	-17,779	241,328	106,321
199,173	-18,030	241,433	106,154
200,188	-17,960	241,199	106,098
201,202	-17,896	241,044	106,072
202,217	-17,865	240,844	106,000
203,232	-17,912	240,565	105,830
204,246	-17,754	240,388	105,871
205,261	-17,751	240,507	105,916
206,275	-15,774	241,132	107,788
207,290	-9,958	242,914	113,330
208,304	-4,850	244,426	118,218
209,319	-3,204	244,935	119,805
210,334	-2,394	245,207	120,592
211,348	-1,517	245,306	121,351
212,363	-0,786	245,244	121,909
213,377	-0,249	245,449	122,440
214,392	0,238	245,373	122,792
215,407	0,696	245,154	123,046
216,421	0,842	245,185	123,170
217,436	0,696	244,978	122,935
218,450	0,555	244,841	122,740
219,465	0,613	244,688	122,700
220,480	0,768	244,610	122,776
221,494	0,628	244,456	122,574
222,509	0,454	243,986	122,186
223,523	0,147	243,982	121,923
224,538	0,227	243,756	121,864
225,553	0,160	243,573	121,708
226,567	0,299	243,313	121,679
227,582	0,213	243,243	121,564
228,596	0,251	243,056	121,490
229,611	0,202	242,989	121,406
230,626	0,372	242,727	121,402
231,640	0,258	242,535	121,204
232,655	0,125	242,469	121,051
233,669	-0,075	242,267	120,779
234,684	0,062	241,985	120,738
235,699	0,201	241,956	120,824
236,713	0,256	241,875	120,818
237,728	0,224	241,560	120,624
238,742	0,041	241,625	120,498
239,757	0,126	241,280	120,383
240,772	0,211	241,235	120,419
241,786	0,117	241,053	120,242
242,801	0,240	240,866	120,236
243,815	0,170	240,661	120,067
244,830	0,244	240,515	120,043
245,844	0,059	240,373	119,814
246,859	0,258	240,134	119,843
247,874	0,229	240,043	119,764
248,888	0,145	239,861	119,594
249,903	0,314	239,782	119,679
250,917	0,324	239,613	119,592
251,932	0,477	239,347	119,571
252,947	0,192	239,371	119,345
253,961	0,285	239,091	119,269
254,976	0,475	238,935	119,332
255,990	0,042	238,875	118,947
257,005	0,321	238,624	119,033
258,020	0,471	238,474	119,066
259,034	0,192	238,481	118,838
260,049	0,282	238,374	118,845
261,063	0,470	238,040	118,817
262,078	0,117	237,911	118,463
263,093	0,027	237,761	118,306
264,107	0,373	237,559	118,469
265,122	0,289	237,376	118,300
266,136	0,183	237,299	118,168
267,151	0,131	237,141	118,037
268,166	0,295	236,995	118,084
269,180	0,243	236,728	117,899
270,195	0,263	236,553	117,817
271,209	0,338	236,335	117,758
272,224	0,183	236,313	117,614
273,239	0,091	236,335	117,542
274,253	0,065	236,198	117,443
275,268	0,403	235,853	117,526
276,282	0,252	235,661	117,302
277,297	0,313	235,552	117,284
278,312	0,406	235,240	117,191
279,326	0,192	235,252	117,020
280,341	0,190	235,157	116,961
281,355	0,246	235,016	116,924
282,370	0,369	234,793	116,898
283,384	0,286	234,647	116,750
284,399	0,317	234,534	116,708
285,414	0,075	234,433	116,459
286,428	0,253	234,260	116,501
287,443	0,187	234,162	116,391
288,457	0,265	234,040	116,380
289,472	0,400	233,771	116,341
290,487	0,203	233,667	116,126
291,501	0,447	233,536	116,239
292,516	0,278	233,424	116,042
293,530	0,457	233,168	116,044
294,545	0,119	233,139	115,757
295,560	0,609	232,814	115,964
296,574	0,406	232,695	115,738
297,589	0,239	232,681	115,591
298,603	0,401	232,583	115,658
299,618	0,403	232,411	115,564
300,633	0,096	232,325	115,273
301,647	0,329	232,073	115,317
302,662	0,341	231,925	115,243
303,676	0,453	231,733	115,223
304,691	0,618	231,662	115,305
305,706	0,492	231,527	115,130
306,720	0,326	231,257	114,858
307,735	0,529	231,111	114,931
308,749	0,385	231,188	114,849
309,764	0,394	230,945	114,724
310,779	0,587	230,633	114,707
311,793	0,515	230,731	114,690
312,808	0,405	230,467	114,465
313,822	0,410	230,327	114,389
314,837	0,640	230,261	114,522
315,852	0,423	230,094	114,263
316,866	0,669	229,816	114,302
317,881	0,554	229,682	114,138
318,895	0,478	229,689	114,073
319,910	0,523	229,327	113,917
320,925	0,485	229,345	113,887
321,939	0,376	229,044	113,645
322,954	0,468	229,013	113,689
323,968	0,357	228,950	113,564
324,983	0,501	228,676	113,527
325,997	0,435	228,554	113,406
327,012	0,645	228,361	113,459
328,027	0,645	228,140	113,339
329,041	0,438	228,067	113,136
330,056	0,710	227,964	113,281
331,070	0,488	227,846	113,044
332,085	0,643	227,651	113,054
333,100	0,500	227,566	112,895
334,114	0,542	227,439	112,853
335,129	0,680	227,305	112,880
336,143	0,701	227,021	112,744
337,158	0,637	227,065	112,708
338,173	0,582	226,960	112,605
339,187	0,700	226,726	112,568
340,202	0,570	226,598	112,396
341,216	0,656	226,415	112,360
342,231	0,635	226,136	112,196
343,246	0,775	226,141	112,293
344,260	0,631	225,925	112,068
345,275	0,904	225,666	112,133
346,289	0,753	225,701	112,028
347,304	0,759	225,493	111,919
348,319	0,701	225,390	111,815
349,333	0,476	225,323	111,604
350,348	0,735	225,093	111,673
351,362	0,737	224,976	111,607
352,377	0,748	224,851	111,542
353,392	0,669	224,735	111,416
354,406	0,907	224,391	111,412
355,421	191,714	1311,898	1375,582
356,435	153,517	1444,239	1375,420
