DTS Sentinel unit serial number:	SN410029Multiplexer serial number:	ORYXHardware model number:	OX2-SRSoftware version number:	ORYX F/W v4,00 Oryx Data Collector v3.7.2.0data status	okinstallation	B5 Nyhavnadifferential loss correction	single-endedforward channel	channel 2reverse channel	N/Adate	2023/12/12time	06:32:13forward acquisition time	300,00reverse acquisition time	0,00gamma	499,1914k internal	0,3158k external	0,3158temperature offset calibration	1,0000default loss term (dB/km)	0,3820temperature slope calibration	1,0000multiplexer offset coefficient	1,0000multiplexer slope coefficient	1,0000fibre end	0,00T internal ref (°C)	15,23T ext. ref 1 (°C)	-1,14T ext. ref 2 (°C)	-1,46length (m)	temperature (°C)	Stokes	anti-Stokes-744,400	-200,000	0,012	0,118
-743,385	-35,681	-0,223	0,089
-742,371	-200,000	0,037	0,156
-741,356	-0,968	-0,197	0,103
-740,342	-39,782	0,074	-0,029
-739,327	-104,897	-0,282	0,047
-738,312	223,635	0,013	0,016
-737,298	-84,816	-0,318	-0,073
-736,283	13,378	0,099	-0,056
-735,269	-161,546	-0,321	-0,012
-734,254	347,835	0,029	0,043
-733,239	-200,000	-0,497	0,001
-732,225	-126,966	0,115	0,012
-731,210	58,773	0,046	0,033
-730,196	308,527	-0,066	-0,090
-729,181	561,346	0,028	-0,050
-728,167	187,140	0,035	0,039
-727,152	-200,000	-0,022	-0,201
-726,137	680,426	0,091	-0,175
-725,123	5,702	-0,014	-0,008
-724,108	43,339	-0,164	-0,110
-723,094	-200,000	0,047	-0,221
-722,079	441,719	-0,088	-0,143
-721,064	153,788	0,047	-0,047
-720,050	370,500	0,056	0,084
-719,035	-200,000	-0,005	-0,074
-718,021	800,000	0,058	-0,119
-717,006	6,574	-0,065	0,035
-715,991	-143,048	-0,081	0,006
-714,977	479,117	-0,015	-0,024
-713,962	-6,629	0,059	0,030
-712,948	-131,059	-0,074	-0,007
-711,933	800,000	0,046	0,101
-710,918	-116,447	-0,059	-0,008
-709,904	-54,368	-0,036	0,012
-708,889	484,478	0,046	0,077
-707,875	-200,000	-0,006	-0,046
-706,860	46,708	-0,080	-0,055
-705,845	157,999	0,080	0,082
-704,831	237,321	-0,082	0,101
-703,816	-200,000	-0,003	0,039
-702,802	349,979	0,041	0,060
-701,787	800,000	0,077	-0,172
-700,772	70,717	-0,078	-0,059
-699,758	-137,978	0,120	-0,010
-698,743	-200,000	0,012	-0,111
-697,729	740,140	0,008	-0,015
-696,714	-58,456	0,078	-0,025
-695,699	202,569	0,054	-0,062
-694,685	-5,199	-0,031	-0,016
-693,670	800,000	-0,016	-0,049
-692,656	163,032	0,089	-0,092
-691,641	-199,653	-0,152	-0,001
-690,627	-143,180	0,120	-0,008
-689,612	-200,000	0,025	-0,098
-688,597	800,000	0,079	-0,177
-687,583	124,893	-0,071	-0,065
-686,568	431,759	-0,098	-0,157
-685,554	-200,000	0,013	-0,145
-684,539	182,169	0,078	-0,085
-683,524	83,293	-0,069	0,055
-682,510	614,125	-0,031	0,057
-681,495	-200,000	-0,011	0,039
-680,481	-167,136	-0,075	-0,002
-679,466	-200,000	0,027	-0,135
-678,451	-200,000	-0,028	-0,126
-677,437	-69,439	0,071	-0,020
-676,422	-200,000	0,010	0,064
-675,408	43,629	0,055	0,037
-674,393	9,334	-0,037	-0,021
-673,378	18,513	0,020	0,012
-672,364	800,000	0,046	-0,115
-671,349	88,416	-0,130	-0,106
-670,335	55,489	-0,045	-0,032
-669,320	-138,587	-0,053	0,004
-668,305	800,000	-0,004	0,010
-667,291	-115,598	-0,164	0,022
-666,276	8,862	-0,091	-0,050
-665,262	148,052	-0,134	-0,133
-664,247	-66,741	0,155	-0,045
-663,232	-200,000	0,004	-0,039
-662,218	-200,000	0,005	-0,037
-661,203	-62,962	0,113	-0,034
-660,189	-200,000	0,009	0,117
-659,174	-78,355	-0,106	-0,027
-658,159	800,000	-0,045	-0,111
-657,145	281,744	0,026	0,034
-656,130	56,878	0,073	-0,052
-655,116	282,081	0,077	-0,101
-654,101	800,000	0,026	0,072
-653,086	-200,000	-0,010	-0,068
-652,072	-200,000	-0,008	0,066
-651,057	48,199	-0,134	-0,092
-650,043	591,439	-0,040	-0,072
-649,028	-19,146	0,102	0,047
-648,014	214,066	0,107	0,125
-646,999	439,495	-0,022	0,036
-645,984	-200,000	-0,015	0,052
-644,970	-200,000	-0,002	0,095
-643,955	800,000	-0,029	-0,082
-642,941	800,000	0,021	0,066
-641,926	166,890	-0,058	-0,061
-640,911	-119,837	-0,022	0,003
-639,897	260,820	0,148	0,189
-638,882	201,946	0,081	0,091
-637,868	96,413	-0,100	-0,084
-636,853	-200,000	0,035	-0,115
-635,838	149,160	0,040	0,039
-634,824	800,000	0,036	0,118
-633,809	342,334	0,026	-0,038
-632,795	-200,000	0,023	0,104
-631,780	203,054	0,118	0,134
-630,765	-99,577	0,072	0,013
-629,751	-200,000	-0,004	0,055
-628,736	117,461	-0,098	-0,088
-627,722	169,587	-0,076	0,079
-626,707	-58,422	0,114	-0,036
-625,692	-200,000	-0,007	0,083
-624,678	-200,000	0,010	-0,054
-623,663	488,917	-0,041	0,069
-622,649	-200,000	0,004	-0,131
-621,634	-200,000	0,000	0,073
-620,619	789,642	-0,069	-0,140
-619,605	-200,000	-0,008	-0,094
-618,590	86,125	0,048	-0,039
-617,576	31,956	-0,029	-0,019
-616,561	-65,153	-0,025	0,007
-615,546	420,756	-0,019	0,030
-614,532	-34,393	-0,102	0,041
-613,517	122,070	-0,094	-0,086
-612,503	68,766	0,029	-0,022
-611,488	-200,000	-0,028	0,123
-610,474	418,775	-0,093	0,147
-609,459	191,764	-0,105	0,116
-608,444	39,376	0,051	-0,033
-607,430	408,611	0,100	-0,156
-606,415	17,978	0,040	-0,023
-605,401	800,000	0,025	0,077
-604,386	-200,000	-0,004	0,178
-603,371	-200,000	0,004	0,029
-602,357	-156,537	0,053	0,002
-601,342	125,335	0,051	0,047
-600,328	-200,000	-0,004	-0,050
-599,313	771,627	-0,015	-0,030
-598,298	800,000	0,017	0,039
-597,284	-200,000	-0,026	0,121
-596,269	-5,927	-0,059	0,029
-595,255	800,000	0,042	-0,090
-594,240	800,000	-0,004	0,013
-593,225	592,660	-0,089	-0,162
-592,211	-1,798	-0,098	0,051
-591,196	-69,252	-0,060	-0,017
-590,182	137,091	0,052	0,050
-589,167	-64,531	0,093	0,028
-588,152	800,000	0,016	0,040
-587,138	271,737	0,016	-0,021
-586,123	800,000	-0,073	-0,153
-585,109	-29,522	-0,068	-0,028
-584,094	-135,508	-0,064	0,005
-583,079	288,636	0,081	-0,107
-582,065	-200,000	-0,020	-0,152
-581,050	33,601	0,098	-0,062
-580,036	-200,000	-0,018	-0,093
-579,021	800,000	0,067	0,138
-578,006	-120,936	0,050	-0,006
-576,992	164,505	0,086	0,089
-575,977	-200,000	-0,003	-0,070
-574,963	-150,978	0,111	0,006
-573,948	482,963	0,009	0,016
-572,934	-43,777	-0,124	0,046
-571,919	800,000	-0,031	0,082
-570,904	5,940	0,069	-0,037
-569,890	-8,057	0,184	-0,091
-568,875	227,050	-0,056	-0,067
-567,861	-80,588	0,116	-0,028
-566,846	-129,421	0,040	-0,004
-565,831	63,011	-0,008	0,006
-564,817	-89,297	-0,136	-0,029
-563,802	800,000	0,053	-0,117
-562,788	-200,000	-0,006	-0,022
-561,773	31,273	-0,054	-0,034
-560,758	19,463	0,073	0,043
-559,744	-40,542	0,175	0,066
-558,729	-68,458	-0,094	0,027
-557,715	4,974	-0,074	0,040
-556,700	-106,518	0,082	-0,013
-555,685	13,293	-0,082	0,046
-554,671	800,000	-0,047	-0,102
-553,656	-78,563	-0,043	0,011
-552,642	-200,000	-0,009	0,067
-551,627	-168,928	0,105	-0,003
-550,612	800,000	0,014	0,044
-549,598	172,060	-0,127	-0,134
-548,583	-200,000	0,019	-0,107
-547,569	104,017	0,074	-0,064
-546,554	-70,510	-0,084	-0,023
-545,539	-109,402	0,065	0,010
-544,525	-27,247	-0,164	-0,070
-543,510	-200,000	-0,003	-0,142
-542,496	-124,148	-0,091	-0,010
-541,481	653,708	0,043	0,082
-540,466	416,031	-0,026	-0,040
-539,452	800,000	-0,037	0,082
-538,437	-126,130	0,099	0,011
-537,423	-200,000	-0,004	-0,081
-536,408	-200,000	-0,003	0,040
-535,393	157,902	0,090	0,091
-534,379	111,565	-0,052	-0,046
-533,364	-200,000	-0,038	-0,182
-532,350	85,426	0,106	-0,085
-531,335	181,436	-0,034	-0,037
-530,321	-59,422	0,113	-0,035
-529,306	653,033	-0,056	0,106
-528,291	-120,824	-0,172	0,021
-527,277	800,000	0,037	0,095
-526,262	49,359	-0,038	0,026
-525,248	108,810	-0,089	-0,077
-524,233	-181,560	0,041	-0,001
-523,218	-27,254	0,102	-0,043
-522,204	-200,000	0,009	-0,115
-521,189	-64,754	-0,021	0,006
-520,175	-200,000	0,006	-0,048
-519,160	-200,000	0,009	0,062
-518,145	43,459	0,070	0,047
-517,131	62,302	-0,047	-0,034
-516,116	-200,000	0,010	0,143
-515,102	62,787	-0,175	-0,128
-514,087	-200,000	-0,007	-0,037
-513,072	215,992	-0,092	0,107
-512,058	165,832	0,040	0,041
-511,043	-200,000	-0,013	-0,073
-510,029	-32,245	0,044	-0,018
-509,014	-82,301	-0,142	-0,033
-507,999	-200,000	-0,036	0,256
-506,985	86,551	-0,019	0,016
-505,970	-46,362	-0,120	0,043
-504,956	280,637	-0,027	0,036
-503,941	12,246	-0,092	-0,051
-502,926	-200,000	-0,016	0,106
-501,912	95,177	0,094	0,078
-500,897	-200,000	0,004	0,096
-499,883	-133,738	-0,157	0,014
-498,868	352,836	0,052	-0,076
-497,853	-53,253	-0,033	-0,011
-496,839	-200,000	-0,003	0,038
-495,824	-184,554	-0,016	0,000
-494,810	-200,000	0,003	0,062
-493,795	-111,161	0,010	-0,001
-492,781	475,140	0,009	-0,014
-491,766	-200,000	-0,009	0,030
-490,751	8,483	-0,039	0,022
-489,737	800,000	0,021	-0,051
-488,722	-200,000	-0,010	0,111
-487,708	800,000	0,068	0,162
-486,693	156,825	0,093	-0,094
-485,678	98,971	0,039	0,032
-484,664	4,358	-0,062	-0,033
-483,649	195,183	-0,065	-0,072
-482,635	-124,785	0,087	-0,010
-481,620	91,561	0,095	0,078
-480,605	-200,000	0,004	0,028
-479,591	-9,430	-0,087	0,042
-478,576	379,995	0,083	0,125
-477,562	-41,548	0,049	-0,018
-476,547	28,196	-0,095	0,058
-475,532	-200,000	0,003	0,110
-474,518	40,968	0,061	0,040
-473,503	-91,163	0,081	-0,017
-472,489	800,000	-0,023	-0,047
-471,474	-200,000	-0,002	-0,007
-470,459	-93,966	0,053	-0,011
-469,445	800,000	0,015	0,039
-468,430	11,147	-0,061	0,034
-467,416	-200,000	0,018	-0,076
-466,401	-108,292	0,048	0,008
-465,386	800,000	-0,028	0,064
-464,372	-74,849	0,057	-0,015
-463,357	-200,000	-0,002	-0,086
-462,343	56,753	-0,087	-0,062
-461,328	-200,000	0,020	-0,143
-460,313	14,769	-0,036	-0,021
-459,299	-200,000	-0,003	0,018
-458,284	88,093	0,075	0,060
-457,270	-110,425	-0,136	-0,020
-456,255	800,000	0,040	-0,107
-455,241	-89,144	-0,118	-0,025
-454,226	-97,958	0,124	-0,023
-453,211	189,106	0,028	0,030
-452,197	173,691	-0,034	0,036
-451,182	-200,000	0,014	-0,048
-450,168	235,457	0,049	0,059
-449,153	81,065	-0,083	-0,065
-448,138	-200,000	0,020	-0,090
-447,124	-80,445	0,075	0,018
-446,109	752,625	0,078	-0,155
-445,095	-101,646	-0,055	0,010
-444,080	800,000	0,038	0,086
-443,065	109,257	0,041	-0,036
-442,051	800,000	0,010	-0,024
-441,036	-20,495	-0,140	0,062
-440,022	-132,441	0,095	-0,009
-439,007	-107,137	0,186	0,030
-437,992	107,957	0,091	0,079
-436,978	-200,000	0,000	-0,095
-435,963	-142,622	0,077	-0,005
-434,949	-132,316	0,197	0,018
-433,934	470,480	-0,078	-0,129
-432,919	-200,000	0,004	-0,141
-431,905	800,000	-0,033	-0,103
-430,890	-98,660	-0,043	0,008
-429,876	213,077	-0,037	-0,043
-428,861	-39,845	-0,013	0,005
-427,846	288,915	0,044	0,058
-426,832	464,149	0,036	-0,058
-425,817	230,889	0,093	-0,111
-424,803	-154,662	-0,049	0,002
-423,788	176,003	-0,064	-0,067
-422,773	800,000	-0,056	0,168
-421,759	-164,150	-0,036	-0,001
-420,744	-200,000	-0,010	-0,052
-419,730	-65,570	-0,114	-0,033
-418,715	42,350	-0,020	-0,013
-417,701	95,053	0,043	-0,035
-416,686	-200,000	0,001	0,086
-415,671	800,000	0,085	0,185
-414,657	-16,845	-0,110	0,050
-413,642	-30,059	-0,116	-0,048
-412,628	800,000	0,053	0,112
-411,613	272,771	0,054	-0,069
-410,598	248,213	0,015	-0,018
-409,584	358,804	-0,033	-0,048
-408,569	-49,130	0,071	0,025
-407,555	-200,000	0,002	-0,152
-406,540	-200,000	0,034	-0,142
-405,525	-72,493	-0,063	-0,017
-404,511	614,533	-0,028	0,052
-403,496	19,124	0,063	-0,036
-402,482	-200,000	0,005	-0,048
-401,467	193,476	0,062	0,069
-400,452	-35,716	-0,084	0,033
-399,438	57,373	-0,132	-0,094
-398,423	-200,000	-0,013	0,046
-397,409	-200,000	-0,011	-0,046
-396,394	-200,000	0,001	0,068
-395,379	79,338	0,057	-0,044
-394,365	235,475	-0,042	0,051
-393,350	-117,405	0,171	-0,022
-392,336	-200,000	-0,073	0,000
-391,321	-102,116	0,074	-0,013
-390,306	-32,063	0,083	0,033
-389,292	55,250	-0,076	-0,053
-388,277	-200,000	0,027	-0,138
-387,263	-131,891	-0,030	0,003
-386,248	61,794	0,110	0,079
-385,233	45,434	0,092	-0,061
-384,219	800,000	-0,034	0,077
-383,204	663,242	-0,053	0,099
-382,190	146,999	-0,069	-0,067
-381,175	475,455	0,025	-0,040
-380,160	-200,000	0,025	0,174
-379,146	0,804	-0,035	-0,018
-378,131	-200,000	0,007	0,028
-377,117	481,073	0,103	0,170
-376,102	302,490	-0,025	-0,034
-375,088	-153,255	-0,059	-0,003
-374,073	111,413	0,006	0,005
-373,058	217,649	-0,061	0,070
-372,044	-3,962	0,085	0,043
-371,029	-8,004	0,107	0,052
-370,015	45,331	0,063	0,042
-369,000	45,491	0,051	-0,034
-367,985	800,000	0,040	-0,106
-366,971	245,336	0,099	-0,121
-365,956	-133,098	0,079	-0,007
-364,942	-65,666	0,099	0,029
-363,927	800,000	-0,011	0,024
-362,912	-49,609	-0,085	0,029
-361,898	-14,156	-0,079	-0,037
-360,883	-113,230	0,096	0,014
-359,869	-52,523	-0,062	-0,021
-358,854	602,284	-0,013	0,024
-357,839	-200,000	-0,039	0,134
-356,825	-200,000	-0,017	0,096
-355,810	-117,887	0,063	-0,008
-354,796	-155,226	0,112	-0,005
-353,781	-200,000	0,041	-0,133
-352,766	0,181	-0,121	-0,063
-351,752	-146,611	-0,065	-0,004
-350,737	800,000	-0,008	-0,017
-349,723	800,000	0,030	-0,063
-348,708	575,544	0,022	0,040
-347,693	-99,683	-0,083	0,015
-346,679	14,473	-0,089	-0,050
-345,664	-200,000	-0,038	0,142
-344,650	-29,603	0,098	-0,040
-343,635	-138,928	-0,114	0,009
-342,620	61,025	0,126	-0,090
-341,606	526,091	-0,110	0,190
-340,591	-170,740	-0,154	0,004
-339,577	326,390	0,043	-0,059
-338,562	83,228	0,082	-0,065
-337,548	447,943	-0,072	-0,115
-336,533	-109,245	0,029	0,004
-335,518	-140,393	0,113	0,008
-334,504	-0,846	-0,125	-0,064
-333,489	215,755	0,094	-0,109
-332,475	-62,739	-0,112	0,033
-331,460	-167,790	-0,082	-0,002
-330,445	800,000	-0,060	-0,135
-329,431	-200,000	0,094	0,000
-328,416	800,000	0,062	0,133
-327,402	206,777	0,056	0,064
-326,387	326,862	-0,072	-0,100
-325,372	49,213	0,034	0,023
-324,358	-1,578	0,021	0,010
-323,343	291,279	-0,047	0,063
-322,329	-200,000	0,003	0,051
-321,314	-82,626	-0,056	0,013
-320,299	-200,000	-0,028	0,122
-319,285	168,616	0,014	-0,014
-318,270	-180,668	0,073	0,001
-317,256	-19,963	0,158	-0,070
-316,241	99,097	0,129	-0,108
-315,226	138,550	0,120	0,114
-314,212	-138,928	0,093	0,007
-313,197	-7,731	-0,112	0,055
-312,183	800,000	-0,056	0,132
-311,168	189,729	-0,047	0,051
-310,153	789,184	-0,005	0,010
-309,139	-163,440	-0,149	0,005
-308,124	309,897	0,054	0,073
-307,110	-150,791	0,132	-0,007
-306,095	88,881	-0,175	0,141
-305,080	157,889	0,103	0,104
-304,066	-200,000	0,028	-0,145
-303,051	-200,000	0,012	-0,063
-302,037	167,235	-0,059	-0,060
-301,022	-44,678	-0,082	-0,030
-300,008	-200,000	0,005	0,044
-298,993	-200,000	-0,037	0,128
-297,978	800,000	0,051	0,139
-296,964	800,000	0,033	-0,072
-295,949	16,624	-0,065	-0,037
-294,935	800,000	0,040	-0,091
-293,920	-69,005	-0,149	0,041
-292,905	13,059	-0,082	-0,046
-291,891	661,825	0,089	0,168
-290,876	-200,000	-0,022	0,094
-289,862	800,000	-0,034	0,107
-288,847	-200,000	-0,005	-0,106
-287,832	42,371	-0,062	0,041
-286,818	-200,000	-0,003	0,013
-285,803	-85,750	0,082	-0,018
-284,789	235,481	0,126	-0,151
-283,774	-77,190	-0,046	0,012
-282,759	39,796	-0,026	0,017
-281,745	-200,000	0,002	0,079
-280,730	-200,000	-0,018	-0,113
-279,716	-64,053	0,119	0,035
-278,701	-118,629	0,027	0,003
-277,686	800,000	0,018	-0,046
-276,672	800,000	-0,018	0,055
-275,657	211,486	-0,037	0,043
-274,643	206,192	0,106	-0,119
-273,628	22,913	0,048	-0,028
-272,613	340,800	-0,055	-0,079
-271,599	800,000	0,013	-0,041
-270,584	-200,000	-0,009	0,037
-269,570	800,000	-0,032	-0,074
-268,555	-154,076	-0,092	-0,004
-267,540	-42,297	-0,091	-0,033
-266,526	800,000	-0,009	0,027
-265,511	-200,000	0,012	-0,048
-264,497	-114,093	0,130	-0,018
-263,482	-143,918	-0,161	-0,011
-262,467	-5,161	-0,130	0,065
-261,453	254,690	-0,126	-0,156
-260,438	-127,615	-0,075	0,008
-259,424	101,830	0,046	-0,038
-258,409	135,724	-0,063	-0,060
-257,395	800,000	-0,016	-0,050
-256,380	81,429	0,108	0,085
-255,365	800,000	-0,044	0,096
-254,351	-200,000	0,012	0,164
-253,336	338,008	-0,021	0,030
-252,322	-81,597	-0,061	-0,014
-251,307	-44,141	-0,103	0,037
-250,292	-133,636	0,092	0,008
-249,278	152,031	-0,183	0,181
-248,263	800,000	-0,033	0,067
-247,249	4,525	0,060	-0,032
-246,234	158,822	-0,045	-0,045
-245,219	244,890	-0,045	-0,054
-244,205	800,000	-0,044	-0,090
-243,190	-11,444	-0,012	-0,006
-242,176	-14,910	0,063	0,029
-241,161	-200,000	0,008	0,132
-240,146	332,718	-0,041	-0,057
-239,132	-136,100	0,147	0,012
-238,117	-200,000	0,013	-0,195
-237,103	-61,313	0,064	-0,019
-236,088	-137,457	-0,045	-0,004
-235,073	-19,220	-0,185	-0,083
-234,059	453,865	0,113	0,182
-233,044	800,000	-0,003	-0,006
-232,030	-200,000	-0,005	0,051
-231,015	131,082	-0,120	0,112
-230,000	-200,000	-0,021	-0,094
-228,986	-96,002	-0,077	0,015
-227,971	174,290	0,060	-0,063
-226,957	-13,055	-0,070	0,033
-225,942	14,073	0,062	-0,035
-224,927	30,650	-0,077	-0,047
-223,913	687,362	0,063	-0,120
-222,898	47,076	-0,047	0,032
-221,884	-175,050	-0,133	-0,003
-220,869	346,512	-0,118	-0,168
-219,855	-24,140	0,049	0,021
-218,840	222,973	0,041	0,048
-217,825	154,546	-0,085	-0,085
-216,811	-174,836	0,055	-0,001
-215,796	53,902	-0,167	-0,116
-214,782	114,028	0,049	0,043
-213,767	546,674	0,032	0,055
-212,752	281,114	-0,025	0,032
-211,738	442,399	-0,034	0,054
-210,723	4,430	0,104	0,055
-209,709	-3,449	-0,095	-0,047
-208,694	17,018	0,067	0,038
-207,679	77,712	0,030	-0,023
-206,665	800,000	0,033	0,089
-205,650	-200,000	0,029	0,113
-204,636	188,850	0,012	0,013
-203,621	206,553	0,084	-0,095
-202,606	-200,000	0,014	-0,101
-201,592	534,482	-0,042	-0,073
-200,577	494,423	-0,053	-0,088
-199,563	-1,298	-0,009	0,004
-198,548	-200,000	0,011	0,119
-197,533	-79,309	0,201	0,049
-196,519	428,483	-0,078	0,122
-195,504	157,784	0,095	-0,095
-194,490	-46,721	-0,117	-0,041
-193,475	474,172	-0,018	-0,030
-192,460	-81,324	-0,014	-0,003
-191,446	-160,600	0,078	-0,003
-190,431	28,058	0,079	0,048
-189,417	45,135	-0,078	0,051
-188,402	-43,211	0,062	-0,022
-187,387	-15,168	-0,039	-0,018
-186,373	374,652	0,047	0,069
-185,358	344,591	-0,035	-0,049
-184,344	209,363	-0,102	0,115
-183,329	-104,328	0,154	0,026
-182,315	-200,000	0,030	0,109
-181,300	-200,000	-0,008	-0,049
-180,285	-40,125	-0,080	0,030
-179,271	-52,929	-0,057	-0,019
-178,256	162,919	0,088	-0,089
-177,242	19,298	0,106	-0,061
-176,227	493,293	0,032	0,052
-175,212	187,340	0,041	-0,045
-174,198	302,934	0,093	0,125
-173,183	306,338	-0,071	-0,095
-172,169	92,577	-0,129	-0,105
-171,154	-112,724	0,122	-0,017
-170,139	-200,000	-0,016	-0,065
-169,125	-84,352	0,164	0,037
-168,110	1,771	0,185	-0,096
-167,096	53,834	-0,020	0,014
-166,081	200,154	0,091	-0,100
-165,066	127,429	-0,085	-0,078
-164,052	800,000	-0,011	0,027
-163,037	-9,743	-0,056	-0,027
-162,023	-200,000	-0,046	0,226
-161,008	235,672	0,027	0,032
-159,993	-10,266	-0,101	0,048
-158,979	35,337	-0,081	-0,051
-157,964	-200,000	-0,015	-0,150
-156,950	539,854	-0,022	-0,037
-155,935	-200,000	0,005	-0,015
-154,920	-65,591	0,025	-0,007
-153,906	-200,000	0,008	-0,075
-152,891	20,407	-0,084	0,049
-151,877	134,497	0,063	-0,059
-150,862	-200,000	0,002	-0,157
-149,847	86,595	0,041	0,032
-148,833	138,120	-0,107	-0,101
-147,818	537,479	-0,004	0,007
-146,804	38,209	-0,149	0,095
-145,789	-200,000	0,026	0,118
-144,775	-200,000	-0,007	0,125
-143,760	800,000	0,029	-0,059
-142,745	126,089	-0,086	-0,078
-141,731	-101,063	-0,024	-0,004
-140,716	-112,254	0,105	0,015
-139,702	485,682	-0,027	0,045
-138,687	-82,823	0,117	0,027
-137,672	-75,334	0,218	-0,056
-136,658	288,871	-0,045	-0,058
-135,643	-85,398	0,033	-0,007
-134,629	-37,123	-0,100	-0,038
-133,614	-60,524	0,125	0,038
-132,599	150,236	0,025	0,024
-131,585	15,952	-0,131	-0,074
-130,570	-9,497	-0,006	-0,003
-129,556	-89,552	0,076	-0,016
-128,541	-35,082	-0,121	-0,047
-127,526	10,478	-0,032	-0,017
-126,512	800,000	0,027	0,066
-125,497	158,555	0,127	0,127
-124,483	-200,000	0,004	0,149
-123,468	800,000	0,026	-0,075
-122,453	-79,263	-0,144	0,035
-121,439	-200,000	0,027	-0,089
-120,424	-121,747	0,036	0,004
-119,410	-200,000	0,018	-0,151
-118,395	686,187	-0,033	-0,062
-117,380	800,000	0,047	0,148
-116,366	-105,484	-0,068	-0,011
-115,351	-200,000	0,009	0,061
-114,337	296,997	0,020	-0,027
-113,322	297,373	-0,101	0,134
-112,307	150,441	0,027	-0,026
-111,293	140,978	0,165	0,157
-110,278	-200,000	-0,031	0,115
-109,264	-60,769	0,121	0,036
-108,249	-200,000	0,026	-0,107
-107,234	-119,681	-0,127	-0,016
-106,220	-200,000	-0,049	-0,161
-105,205	-23,171	-0,021	0,009
-104,191	24,812	0,146	-0,087
-103,176	800,000	0,059	0,120
-102,162	-37,745	0,092	-0,035
-101,147	-50,252	0,139	0,047
-100,132	800,000	-0,027	0,065
-99,118	-200,000	0,000	-0,004
-98,103	-200,000	0,029	0,093
-97,089	-150,896	0,129	-0,007
-96,074	-200,000	-0,017	0,085
-95,059	-61,968	0,043	-0,013
-94,045	20,600	0,089	0,052
-93,030	-200,000	-0,018	-0,082
-92,016	-159,750	-0,084	-0,003
-91,001	162,208	0,129	0,130
-89,986	800,000	-0,017	0,038
-88,972	-153,049	0,234	0,012
-87,957	4,800	-0,023	0,012
-86,943	32,288	-0,104	0,065
-85,928	145,654	-0,073	-0,070
-84,913	800,000	0,016	-0,031
-83,899	82,058	0,107	0,083
-82,884	46,818	0,199	-0,133
-81,870	800,000	-0,018	-0,049
-80,855	207,746	-0,092	-0,103
-79,840	-200,000	0,029	-0,158
-78,826	-42,014	0,140	0,051
-77,811	-200,000	0,025	-0,117
-76,797	252,685	-0,059	-0,072
-75,782	195,217	-0,074	0,081
-74,767	521,769	0,017	0,029
-73,753	-21,404	-0,030	-0,013
-72,738	341,341	0,064	0,090
-71,724	45,578	-0,140	-0,093
-70,709	-200,000	-0,013	0,041
-69,694	-101,935	0,171	0,029
-68,680	537,164	-0,024	-0,040
-67,665	-200,000	0,036	0,124
-66,651	730,203	0,036	0,070
-65,636	-94,970	0,156	0,030
-64,622	452,645	0,013	-0,021
-63,607	-90,579	0,024	-0,005
-62,592	220,262	-0,067	0,077
-61,578	-119,006	0,105	0,013
-60,563	-200,000	0,001	0,095
-59,549	311,492	0,035	0,047
-58,534	14,128	-1,927	-1,074
-57,519	-200,000	-0,180	-0,938
-56,505	-200,000	-1,203	-4,966
-55,490	-35,860	0,868	0,336
-54,476	800,000	5,384	12,240
-53,461	-200,000	17,621	285,110
-52,446	800,000	727,919	2219,282
-51,432	536,172	1644,133	2811,289
-50,417	110,161	1634,696	1408,230
-49,403	76,016	1286,920	976,029
-48,388	32,052	1027,753	634,371
-47,373	20,178	989,389	571,544
-46,359	18,428	977,176	558,728
-45,344	15,619	973,029	547,146
-44,330	15,776	971,974	547,048
-43,315	15,347	969,753	544,375
-42,300	15,250	968,822	543,515
-41,286	15,237	967,778	542,866
-40,271	15,245	966,926	542,391
-39,257	15,272	965,842	541,850
-38,242	15,322	964,866	541,443
-37,227	15,315	964,173	541,010
-36,213	15,304	963,275	540,447
-35,198	15,235	962,430	539,730
-34,184	15,296	961,749	539,523
-33,169	15,163	960,696	538,482
-32,154	15,296	959,731	538,348
-31,140	15,222	959,062	537,712
-30,125	15,275	958,178	537,368
-29,111	15,270	957,336	536,859
-28,096	15,237	956,802	536,432
-27,082	15,298	955,897	536,098
-26,067	15,266	955,304	535,641
-25,052	15,241	954,607	535,149
-24,038	15,258	953,949	534,814
-23,023	15,277	953,254	534,465
-22,009	15,329	952,519	534,195
-20,994	15,231	952,095	533,622
-19,979	15,310	951,465	533,501
-18,965	15,274	950,741	532,960
-17,950	15,252	950,126	532,525
-16,936	15,270	949,395	532,149
-15,921	15,187	948,740	531,497
-14,906	15,154	947,986	530,949
-13,892	15,158	947,401	530,614
-12,877	15,156	946,777	530,236
-11,863	15,125	946,070	529,719
-10,848	15,151	945,490	529,458
-9,833	15,237	945,099	529,491
-8,819	15,229	944,282	528,988
-7,804	15,150	943,877	528,488
-6,790	15,187	943,192	528,201
-5,775	15,175	942,781	527,911
-4,760	15,167	942,050	527,456
-3,746	15,151	941,265	526,946
-2,731	15,063	940,772	526,369
-1,717	15,011	940,139	525,828
-0,702	14,931	939,512	525,207
0,313	14,789	938,854	525,182
1,327	18,145	936,677	534,487
2,342	27,302	793,778	477,191
3,356	23,959	458,782	270,670
4,371	-3,405	314,275	156,344
5,386	-7,237	296,060	143,394
6,400	-9,455	290,003	138,248
7,415	-9,697	287,508	136,808
8,429	-10,081	286,058	135,730
9,444	-10,111	285,221	135,292
10,459	-10,121	284,465	134,911
11,473	-10,119	283,898	134,633
12,488	-10,064	283,332	134,405
13,502	-10,084	282,831	134,137
14,517	-10,069	282,477	133,971
15,531	-10,132	281,971	133,658
16,546	-9,912	281,604	133,684
17,561	-9,962	281,048	133,360
18,575	-9,925	280,865	133,297
19,590	-10,083	280,459	132,940
20,604	-9,902	280,090	132,927
21,619	-9,909	279,639	132,695
22,634	-10,031	279,409	132,457
23,648	-10,118	279,237	132,281
24,663	-10,037	278,951	132,211
25,677	-9,934	278,595	132,128
26,692	-10,098	278,525	131,928
27,707	-10,004	278,165	131,835
28,721	-9,926	277,745	131,698
29,736	-9,992	277,557	131,534
30,750	-9,903	277,276	131,474
31,765	-9,852	276,941	131,352
32,780	-9,931	276,733	131,166
33,794	-9,964	276,484	131,005
34,809	-10,115	276,323	130,775
35,823	-10,059	276,114	130,718
36,838	-10,060	275,772	130,543
37,853	-10,158	275,654	130,383
38,867	-10,119	275,340	130,260
39,882	-10,161	275,097	130,093
40,896	-10,149	274,956	130,027
41,911	-10,073	274,525	129,882
42,926	-10,211	274,376	129,671
43,940	-10,067	273,998	129,616
44,955	-10,095	273,995	129,577
45,969	-10,111	273,700	129,411
46,984	-10,203	273,397	129,169
47,999	-10,494	273,152	128,772
49,013	-10,514	272,923	128,633
50,028	-10,528	272,594	128,454
51,042	-10,798	272,383	128,092
52,057	-10,610	272,052	128,099
53,071	-10,807	271,947	127,855
54,086	-10,598	271,785	127,962
55,101	-10,520	271,617	127,944
56,115	-10,161	271,417	128,170
57,130	-10,014	271,177	128,182
58,144	-9,795	270,969	128,274
59,159	-9,805	270,823	128,183
60,174	-9,909	270,585	127,964
61,188	-10,097	270,463	127,722
62,203	-9,950	270,119	127,683
63,217	-9,993	269,924	127,540
64,232	-9,904	269,594	127,455
65,247	-9,947	269,452	127,336
66,261	-10,017	269,076	127,083
67,276	-10,114	268,932	126,915
68,290	-10,318	268,799	126,654
69,305	-10,269	268,385	126,493
70,320	-10,200	268,286	126,497
71,334	-10,217	268,086	126,377
72,349	-10,020	267,860	126,439
73,363	-9,919	267,746	126,466
74,378	-9,972	267,439	126,261
75,393	-10,071	267,319	126,103
76,407	-9,940	267,013	126,066
77,422	-10,002	266,776	125,887
78,436	-10,025	266,658	125,799
79,451	-9,995	266,466	125,725
80,466	-9,909	266,126	125,631
81,480	-9,914	265,903	125,510
82,495	-10,037	265,513	125,204
83,509	-10,201	265,550	125,062
84,524	-10,122	265,257	124,983
85,539	-10,104	265,040	124,887
86,553	-10,217	264,791	124,656
87,568	-10,280	264,550	124,475
88,582	-10,150	264,397	124,509
89,597	-10,065	264,121	124,444
90,611	-10,077	264,102	124,413
91,626	-9,827	263,887	124,525
92,641	-9,804	263,639	124,417
93,655	-10,049	263,503	124,123
94,670	-10,023	263,143	123,965
95,684	-10,184	263,163	123,821
96,699	-10,246	263,047	123,699
97,714	-10,222	262,711	123,551
98,728	-9,922	262,333	123,630
99,743	-10,384	262,289	123,186
100,757	-10,297	261,938	123,089
101,772	-10,201	261,812	123,103
102,787	-9,998	261,692	123,216
103,801	-10,160	261,624	123,030
104,816	-10,004	261,286	122,998
105,830	-9,894	261,248	123,066
106,845	-9,802	260,919	122,982
107,860	-9,895	260,689	122,780
108,874	-9,951	260,581	122,669
109,889	-9,974	260,404	122,555
110,903	-9,904	260,124	122,474
111,918	-10,111	259,865	122,158
112,933	-10,140	259,751	122,069
113,947	-9,946	259,532	122,125
114,962	-10,016	259,418	121,999
115,976	-9,929	259,176	121,951
116,991	-10,031	259,198	121,861
118,006	-9,988	258,857	121,728
119,020	-10,002	258,671	121,616
120,035	-9,943	258,472	121,564
121,049	-9,920	258,276	121,481
122,064	-9,962	258,147	121,373
123,079	-9,929	257,965	121,305
124,093	-9,937	257,635	121,132
125,108	-10,253	257,438	120,753
126,122	-10,300	257,140	120,562
127,137	-10,400	257,111	120,451
128,151	-10,318	256,762	120,347
129,166	-10,329	256,723	120,309
130,181	-10,139	256,441	120,331
131,195	-10,448	256,198	119,938
132,210	-10,066	256,057	120,192
133,224	-10,010	255,966	120,187
134,239	-9,820	255,813	120,269
135,254	-9,930	255,590	120,058
136,268	-10,087	255,492	119,866
137,283	-10,255	255,039	119,499
138,297	-10,318	254,840	119,340
139,312	-10,467	254,590	119,084
140,327	-10,052	254,617	119,444
141,341	-9,716	254,343	119,594
142,356	-9,819	254,313	119,480
143,370	-9,846	254,061	119,328
144,385	-9,769	254,005	119,357
145,400	-9,685	253,675	119,263
146,414	-9,680	253,469	119,160
147,429	-9,856	253,377	118,956
148,443	-9,743	253,302	119,007
149,458	-9,711	253,029	118,895
150,473	-9,731	252,829	118,774
151,487	-9,698	252,597	118,682
152,502	-9,773	252,533	118,577
153,516	-9,791	252,233	118,410
154,531	-9,774	252,025	118,316
155,546	-9,748	251,983	118,309
156,560	-9,723	251,708	118,190
157,575	-9,841	251,545	118,003
158,589	-9,755	251,422	118,008
159,604	-9,684	251,156	117,932
160,619	-9,878	251,017	117,692
161,633	-9,625	250,802	117,795
162,648	-9,839	250,781	117,594
163,662	-9,682	250,501	117,585
164,677	-9,805	250,352	117,400
165,692	-9,710	250,193	117,395
166,706	-9,830	250,012	117,199
167,721	-9,801	249,947	117,183
168,735	-9,785	249,733	117,085
169,750	-9,820	249,602	116,984
170,764	-9,678	249,477	117,034
171,779	-9,670	249,262	116,929
172,794	-9,663	249,195	116,894
173,808	-9,804	248,776	116,569
174,823	-10,011	248,584	116,295
175,837	-10,432	248,306	115,802
176,852	-9,891	248,317	116,249
177,867	-9,781	248,258	116,303
178,881	-9,604	247,981	116,311
179,896	-9,778	248,014	116,171
180,910	-9,756	247,720	116,041
181,925	-9,835	247,531	115,876
182,940	-9,843	247,438	115,815
183,954	-9,895	247,158	115,631
184,969	-9,929	246,971	115,505
185,983	-9,717	246,808	115,595
186,998	-9,737	246,734	115,533
188,013	-9,746	246,513	115,412
189,027	-9,551	246,263	115,446
190,042	-9,834	246,220	115,181
191,056	-9,724	246,116	115,214
192,071	-9,774	245,862	115,043
193,086	-9,714	245,630	114,974
194,100	-9,660	245,325	114,865
195,115	-9,718	245,310	114,800
196,129	-9,740	245,110	114,678
197,144	-9,828	244,925	114,509
198,159	-9,779	244,727	114,446
199,173	-9,762	244,557	114,370
200,188	-9,710	244,364	114,313
201,202	-9,912	244,164	114,043
202,217	-10,382	243,882	113,515
203,232	-10,183	243,607	113,541
204,246	-9,776	243,520	113,824
205,261	-9,427	243,487	114,083
206,275	-10,277	243,179	113,234
207,290	-7,049	244,463	116,474
208,304	-0,316	246,667	123,082
209,319	3,493	247,519	126,647
210,334	3,925	247,553	127,009
211,348	3,857	247,525	126,928
212,363	4,319	247,423	127,245
213,377	4,242	247,315	127,115
214,392	4,059	247,071	126,827
215,407	4,038	246,994	126,759
216,421	3,832	246,609	126,381
217,436	4,234	246,624	126,707
218,450	4,373	246,489	126,742
219,465	4,107	246,120	126,322
220,480	3,869	246,121	126,116
221,494	3,711	245,960	125,893
222,509	3,908	245,636	125,877
223,523	3,751	245,552	125,694
224,538	3,518	245,210	125,317
225,553	3,646	245,108	125,359
226,567	3,737	245,043	125,389
227,582	3,779	244,931	125,354
228,596	3,768	244,734	125,234
229,611	3,359	244,431	124,735
230,626	3,356	244,314	124,661
231,640	3,747	243,972	124,793
232,655	3,588	244,039	124,687
233,669	3,645	243,763	124,581
234,684	3,340	243,663	124,272
235,699	3,556	243,614	124,410
236,713	3,971	243,545	124,701
237,728	3,487	243,283	124,163
238,742	3,489	242,951	123,984
239,757	3,378	242,752	123,782
240,772	3,543	242,741	123,899
241,786	3,725	242,558	123,941
242,801	3,422	242,536	123,675
243,815	3,392	242,315	123,527
244,830	3,523	242,174	123,550
245,844	3,988	241,936	123,791
246,859	3,612	241,761	123,388
247,874	3,648	241,535	123,291
248,888	3,469	241,421	123,078
249,903	3,717	241,313	123,211
250,917	3,958	241,179	123,324
251,932	3,899	241,124	123,238
252,947	4,056	240,788	123,181
253,961	3,590	240,678	122,741
254,976	3,717	240,568	122,775
255,990	3,872	240,460	122,833
257,005	3,376	240,336	122,363
258,020	3,505	239,890	122,228
259,034	3,644	239,823	122,294
260,049	3,703	239,794	122,315
261,063	3,487	239,595	122,031
262,078	3,527	239,460	121,982
263,093	3,673	239,457	122,087
264,107	3,926	239,103	122,096
265,122	3,675	238,831	121,747
266,136	3,640	239,006	121,798
267,151	3,973	238,851	121,972
268,166	3,672	238,556	121,572
269,180	3,254	238,273	121,087
270,195	4,176	238,332	121,835
271,209	4,246	238,149	121,785
272,224	3,495	237,932	121,071
273,239	3,313	237,661	120,779
274,253	3,500	237,705	120,938
275,268	3,669	237,446	120,928
276,282	3,757	237,336	120,931
277,297	3,449	237,127	120,572
278,312	3,512	237,013	120,552
279,326	3,722	236,843	120,620
280,341	3,846	236,652	120,609
281,355	3,730	236,539	120,450
282,370	3,901	236,412	120,509
283,384	3,664	236,323	120,267
284,399	3,625	236,058	120,091
285,414	3,180	235,901	119,652
286,428	3,649	235,742	119,927
287,443	3,597	235,549	119,778
288,457	3,881	235,386	119,905
289,472	3,779	235,472	119,859
290,487	3,662	235,160	119,598
291,501	3,481	235,036	119,384
292,516	3,301	234,734	119,080
293,530	3,343	234,725	119,097
294,545	3,448	234,699	119,155
295,560	3,328	234,487	118,944
296,574	3,211	234,336	118,765
297,589	3,513	234,090	118,864
298,603	3,856	234,021	119,085
299,618	3,842	234,045	119,076
300,633	3,752	233,881	118,911
301,647	3,885	233,791	118,958
302,662	4,070	233,534	118,960
303,676	4,150	233,356	118,921
304,691	4,000	233,112	118,669
305,706	4,152	233,058	118,748
306,720	4,129	232,947	118,664
307,735	3,829	232,704	118,299
308,749	3,708	232,654	118,170
309,764	3,545	232,264	117,835
310,779	3,401	232,246	117,705
311,793	3,341	232,047	117,548
312,808	3,798	231,804	117,764
313,822	3,420	231,724	117,424
314,837	3,561	231,539	117,428
315,852	3,612	231,359	117,365
316,866	3,649	231,367	117,387
317,881	3,769	231,317	117,443
318,895	3,873	231,122	117,412
319,910	3,884	230,989	117,343
320,925	3,813	230,844	117,205
321,939	3,454	230,616	116,805
322,954	3,772	230,468	116,961
323,968	3,570	230,169	116,646
324,983	3,549	230,242	116,657
325,997	3,876	230,130	116,838
327,012	3,946	229,866	116,747
328,027	3,688	229,858	116,536
329,041	3,993	229,606	116,630
330,056	3,991	229,704	116,668
331,070	4,105	229,567	116,674
332,085	4,042	229,355	116,508
333,100	4,053	229,211	116,433
334,114	4,025	228,917	116,252
335,129	4,047	228,932	116,265
336,143	3,995	228,578	116,036
337,158	4,027	228,594	116,058
338,173	4,125	228,537	116,093
339,187	3,991	228,284	115,853
340,202	3,941	228,040	115,681
341,216	3,954	227,894	115,607
342,231	3,688	227,737	115,317
343,246	3,782	227,540	115,277
344,260	3,976	227,469	115,377
345,275	4,031	227,425	115,385
346,289	4,060	227,330	115,348
347,304	4,149	227,122	115,299
348,319	4,130	226,987	115,206
349,333	3,889	226,851	114,947
350,348	3,836	226,728	114,835
351,362	3,815	226,528	114,708
352,377	3,579	226,432	114,473
353,392	3,338	226,219	114,175
354,406	3,718	225,860	114,267
355,421	195,096	1321,758	1397,097
356,435	156,362	1455,264	1397,088
