DTS Sentinel unit serial number:	SN410029Multiplexer serial number:	ORYXHardware model number:	OX2-SRSoftware version number:	ORYX F/W v4,00 Oryx Data Collector v3.7.2.0data status	okinstallation	B5 Nyhavnadifferential loss correction	single-endedforward channel	channel 2reverse channel	N/Adate	2023/12/13time	11:32:13forward acquisition time	300,00reverse acquisition time	0,00gamma	499,1914k internal	0,3161k external	0,3161temperature offset calibration	1,0000default loss term (dB/km)	0,3820temperature slope calibration	1,0000multiplexer offset coefficient	1,0000multiplexer slope coefficient	1,0000fibre end	0,00T internal ref (°C)	13,81T ext. ref 1 (°C)	-2,20T ext. ref 2 (°C)	-2,50length (m)	temperature (°C)	Stokes	anti-Stokes-744,400	-64,354	0,129	0,038
-743,385	-61,507	-0,299	0,092
-742,371	-200,000	0,027	0,114
-741,356	-140,276	-0,230	0,017
-740,342	265,329	0,088	0,113
-739,327	-59,690	-0,304	-0,095
-738,312	-60,936	0,134	0,041
-737,298	-174,122	-0,288	-0,006
-736,283	279,406	0,039	0,051
-735,269	-132,822	-0,312	-0,029
-734,254	-70,140	0,154	0,043
-733,239	0,457	-0,346	-0,181
-732,225	26,697	0,102	0,063
-731,210	-200,000	0,029	-0,098
-730,196	-200,000	0,014	-0,077
-729,181	-76,952	-0,108	-0,028
-728,167	110,432	-0,110	-0,097
-727,152	11,902	-0,055	0,031
-726,137	408,821	0,022	-0,034
-725,123	-200,000	-0,001	-0,137
-724,108	134,867	0,031	-0,029
-723,094	800,000	0,039	-0,109
-722,079	146,370	-0,049	-0,048
-721,064	575,162	-0,042	-0,077
-720,050	-118,413	-0,171	0,022
-719,035	800,000	-0,034	0,090
-718,021	-200,000	-0,017	-0,058
-717,006	132,679	-0,073	-0,069
-715,991	-200,000	-0,001	0,085
-714,977	-200,000	0,010	-0,069
-713,962	-200,000	-0,026	-0,098
-712,948	305,385	-0,008	0,010
-711,933	800,000	-0,062	0,156
-710,918	42,700	-0,107	-0,071
-709,904	129,021	-0,080	0,075
-708,889	-38,875	-0,039	-0,015
-707,875	-200,000	-0,013	-0,081
-706,860	-158,912	-0,087	0,004
-705,845	456,563	0,045	-0,074
-704,831	-68,447	-0,148	0,042
-703,816	-200,000	0,008	-0,052
-702,802	-200,000	-0,011	-0,083
-701,787	-6,709	-0,077	-0,038
-700,772	581,203	-0,064	-0,116
-699,758	142,217	0,164	-0,160
-698,743	-200,000	-0,017	0,129
-697,729	64,595	0,027	0,020
-696,714	-37,212	-0,067	0,026
-695,699	116,771	-0,137	-0,124
-694,685	-100,009	-0,056	-0,010
-693,670	-200,000	-0,002	-0,035
-692,656	800,000	-0,022	-0,072
-691,641	261,440	-0,055	-0,070
-690,627	152,871	0,040	0,041
-689,612	-128,565	0,104	0,011
-688,597	49,447	-0,086	-0,059
-687,583	380,456	-0,107	-0,161
-686,568	134,456	0,100	-0,095
-685,554	800,000	0,038	-0,078
-684,539	1,189	0,115	-0,060
-683,524	-116,738	0,090	-0,012
-682,510	-200,000	-0,002	0,036
-681,495	419,008	-0,050	-0,079
-680,481	-50,151	-0,075	0,026
-679,466	-200,000	-0,015	-0,114
-678,451	82,462	-0,071	0,056
-677,437	800,000	-0,031	0,069
-676,422	800,000	0,062	0,146
-675,408	-200,000	0,012	0,152
-674,393	9,939	-0,062	0,034
-673,378	-25,100	-0,081	0,035
-672,364	800,000	0,038	-0,117
-671,349	181,695	0,093	-0,100
-670,335	-10,161	-0,134	0,065
-669,320	-200,000	0,008	-0,028
-668,305	800,000	-0,026	-0,063
-667,291	-44,153	-0,103	0,038
-666,276	59,068	-0,085	-0,061
-665,262	-200,000	-0,013	-0,086
-664,247	731,580	0,011	0,023
-663,232	-129,195	-0,056	0,006
-662,218	217,084	0,052	-0,061
-661,203	800,000	-0,028	0,065
-660,189	490,215	-0,024	0,041
-659,174	800,000	0,019	-0,057
-658,159	-154,153	-0,197	0,010
-657,145	-2,650	-0,110	0,056
-656,130	178,660	-0,132	-0,142
-655,116	-6,845	-0,053	0,026
-654,101	2,116	0,087	-0,046
-653,086	-59,438	0,040	0,013
-652,072	800,000	-0,022	0,060
-651,057	219,041	-0,111	-0,131
-650,043	-157,389	-0,097	0,004
-649,028	271,939	0,072	0,093
-648,014	-24,548	0,085	-0,037
-646,999	-100,314	0,097	0,018
-645,984	-200,000	-0,007	0,073
-644,970	337,371	-0,102	0,146
-643,955	-200,000	0,002	0,012
-642,941	380,028	0,022	-0,033
-641,926	-200,000	0,015	-0,052
-640,911	369,442	0,075	-0,111
-639,897	133,391	-0,040	0,038
-638,882	100,509	-0,126	0,107
-637,868	-200,000	0,000	-0,034
-636,853	5,266	-0,094	-0,051
-635,838	800,000	-0,024	-0,063
-634,824	-83,013	-0,051	0,012
-633,809	97,685	-0,042	-0,035
-632,795	132,382	-0,048	-0,045
-631,780	281,074	-0,071	0,093
-630,765	75,145	0,060	0,046
-629,751	96,006	-0,153	-0,129
-628,736	-50,259	0,078	0,027
-627,722	195,231	0,025	-0,028
-626,707	-117,473	0,111	-0,014
-625,692	800,000	0,011	0,026
-624,678	-129,518	0,077	-0,008
-623,663	-103,494	0,076	-0,013
-622,649	-123,929	-0,090	-0,010
-621,634	-200,000	-0,046	-0,154
-620,619	737,573	0,048	-0,095
-619,605	800,000	-0,072	-0,157
-618,590	800,000	-0,019	0,055
-617,576	-200,000	-0,002	0,082
-616,561	-200,000	-0,013	-0,044
-615,546	-18,291	-0,063	-0,029
-614,532	-167,413	0,085	0,002
-613,517	800,000	-0,016	-0,042
-612,503	-55,237	-0,041	-0,013
-611,488	246,404	0,070	0,087
-610,474	655,015	0,040	-0,076
-609,459	-39,054	-0,032	-0,012
-608,444	-200,000	0,000	-0,056
-607,430	800,000	-0,061	0,132
-606,415	-122,630	0,046	-0,005
-605,401	-152,889	0,098	0,005
-604,386	-14,259	0,100	0,047
-603,371	-21,162	0,045	-0,020
-602,357	-200,000	0,014	-0,122
-601,342	102,252	-0,069	-0,059
-600,328	-200,000	-0,035	-0,125
-599,313	-200,000	-0,013	-0,055
-598,298	-200,000	-0,024	0,089
-597,284	-200,000	-0,026	0,092
-596,269	-138,565	-0,073	0,006
-595,255	-106,568	0,101	-0,016
-594,240	775,545	-0,070	-0,140
-593,225	318,421	0,080	-0,111
-592,211	-200,000	-0,022	-0,124
-591,196	-11,889	0,075	0,036
-590,182	-103,367	-0,149	-0,026
-589,167	223,229	0,109	-0,129
-588,152	691,811	-0,087	0,167
-587,138	30,113	-0,113	0,070
-586,123	238,048	-0,072	-0,088
-585,109	-200,000	-0,027	-0,190
-584,094	117,338	-0,072	0,065
-583,079	117,682	0,136	0,123
-582,065	-125,142	0,083	-0,009
-581,050	800,000	0,036	0,085
-580,036	20,619	0,065	-0,039
-579,021	317,604	0,062	-0,086
-578,006	-2,161	-0,121	-0,062
-576,992	258,063	-0,023	-0,030
-575,977	753,905	-0,046	-0,091
-574,963	-200,000	0,011	0,141
-573,948	161,798	0,052	0,053
-572,934	-200,000	0,031	-0,147
-571,919	-82,775	-0,157	0,037
-570,904	26,914	-0,047	0,029
-569,890	800,000	-0,082	-0,178
-568,875	800,000	-0,070	-0,154
-567,861	405,910	0,055	-0,085
-566,846	5,820	0,049	0,027
-565,831	292,187	-0,036	-0,049
-564,817	93,497	0,059	-0,049
-563,802	3,324	-0,046	-0,024
-562,788	800,000	0,038	0,109
-561,773	800,000	-0,063	0,177
-560,758	-200,000	0,046	0,167
-559,744	-200,000	0,006	0,111
-558,729	800,000	0,053	-0,138
-557,715	800,000	-0,075	-0,172
-556,700	-27,194	-0,025	-0,011
-555,685	26,805	-0,036	-0,022
-554,671	-200,000	0,033	-0,168
-553,656	-200,000	-0,008	-0,052
-552,642	747,755	-0,006	0,011
-551,627	-11,650	-0,088	-0,042
-550,612	800,000	-0,020	-0,048
-549,598	66,647	0,038	-0,028
-548,583	800,000	0,029	-0,089
-547,569	-200,000	-0,006	0,134
-546,554	800,000	0,060	0,175
-545,539	269,700	0,046	-0,059
-544,525	-13,575	-0,061	0,029
-543,510	83,486	-0,054	0,043
-542,496	-146,871	-0,024	-0,002
-541,481	-200,000	0,052	-0,181
-540,466	38,054	-0,036	-0,024
-539,452	158,360	-0,041	0,041
-538,437	98,861	0,015	-0,013
-537,423	215,151	0,084	-0,097
-536,408	169,231	-0,126	-0,132
-535,393	-14,383	0,135	-0,063
-534,379	-200,000	-0,007	-0,058
-533,364	-76,933	-0,202	0,051
-532,350	-200,000	0,001	0,026
-531,335	-101,044	0,127	0,022
-530,321	-200,000	0,009	0,056
-529,306	-166,470	-0,120	-0,004
-528,291	-200,000	-0,000	-0,046
-527,277	180,216	-0,015	-0,016
-526,262	-86,235	-0,116	0,026
-525,248	-200,000	0,010	0,034
-524,233	-200,000	-0,025	0,143
-523,218	-165,522	-0,084	-0,003
-522,204	800,000	-0,027	-0,071
-521,189	-128,799	-0,068	-0,007
-520,175	-200,000	-0,006	0,137
-519,160	-61,695	0,089	0,027
-518,145	-200,000	0,012	0,127
-517,131	-200,000	-0,037	0,149
-516,116	-20,488	0,117	0,052
-515,102	800,000	0,049	-0,141
-514,087	800,000	-0,055	0,136
-513,072	800,000	-0,039	-0,095
-512,058	-10,716	0,096	-0,046
-511,043	-84,516	-0,105	-0,024
-510,029	800,000	0,069	0,156
-509,014	311,225	-0,069	0,095
-507,999	-41,031	-0,109	0,041
-506,985	93,145	-0,029	0,024
-505,970	473,212	-0,014	-0,023
-504,956	-50,145	0,031	0,011
-503,941	-160,460	0,177	0,007
-502,926	15,118	-0,202	0,115
-501,912	800,000	0,074	0,183
-500,897	-32,113	0,063	0,026
-499,883	-200,000	-0,028	0,099
-498,868	361,715	0,029	-0,043
-497,853	-200,000	0,022	-0,100
-496,839	-84,630	0,077	0,017
-495,824	82,488	-0,107	0,085
-494,810	-85,432	0,153	0,035
-493,795	-200,000	-0,008	0,062
-492,781	-200,000	-0,016	-0,110
-491,766	-200,000	0,022	0,076
-490,751	-200,000	0,023	-0,087
-489,737	-192,156	-0,032	0,000
-488,722	205,412	0,025	0,028
-487,708	316,446	0,072	0,100
-486,693	-30,048	0,091	0,037
-485,678	-116,262	-0,142	-0,019
-484,664	-64,371	0,067	-0,020
-483,649	217,338	0,026	-0,030
-482,635	-200,000	0,002	0,043
-481,620	254,824	0,069	-0,086
-480,605	-118,262	-0,076	-0,010
-479,591	92,458	-0,087	0,071
-478,576	-200,000	0,003	0,098
-477,562	-167,503	-0,125	0,004
-476,547	-200,000	-0,010	-0,105
-475,532	-200,000	-0,011	0,201
-474,518	21,360	0,122	-0,072
-473,503	-18,139	0,102	0,046
-472,489	-200,000	-0,001	0,033
-471,474	158,468	0,045	0,045
-470,459	-200,000	0,027	-0,089
-469,445	-200,000	-0,017	0,172
-468,430	-200,000	-0,005	-0,134
-467,416	-120,563	-0,116	0,014
-466,401	16,722	0,039	-0,023
-465,386	76,852	0,032	-0,025
-464,372	36,680	0,066	0,042
-463,357	367,494	-0,022	-0,033
-462,343	-31,819	0,052	-0,021
-461,328	37,696	-0,184	-0,119
-460,313	-25,662	-0,063	-0,027
-459,299	-58,260	0,105	-0,033
-458,284	-200,000	-0,005	0,100
-457,270	557,607	-0,050	-0,089
-456,255	-200,000	-0,008	0,035
-455,241	157,709	0,035	0,035
-454,226	23,152	0,018	-0,011
-453,211	259,992	-0,056	-0,070
-452,197	-75,075	0,055	0,014
-451,182	-91,208	-0,069	0,014
-450,168	186,739	0,021	-0,023
-449,153	-8,082	0,049	-0,024
-448,138	-31,622	0,062	0,025
-447,124	-123,013	0,082	0,010
-446,109	-101,764	-0,125	0,022
-445,095	205,408	0,020	0,023
-444,080	-200,000	-0,004	-0,022
-443,065	-200,000	0,009	0,180
-442,051	-102,016	-0,154	0,027
-441,036	185,887	0,036	-0,039
-440,022	116,582	0,138	0,123
-439,007	139,156	-0,074	-0,071
-437,992	-200,000	-0,009	-0,110
-436,978	-76,193	-0,056	0,014
-435,963	-66,911	0,115	-0,033
-434,949	800,000	0,031	0,066
-433,934	-200,000	-0,015	-0,125
-432,919	-200,000	-0,058	-0,188
-431,905	-53,740	0,083	0,027
-430,890	-200,000	0,020	0,090
-429,876	490,173	0,100	0,167
-428,861	-102,301	0,147	-0,025
-427,846	-14,618	0,032	-0,015
-426,832	-152,629	-0,036	-0,002
-425,817	-43,264	0,028	0,010
-424,803	-200,000	0,005	-0,110
-423,788	800,000	0,063	0,170
-422,773	338,763	0,082	0,116
-421,759	91,407	-0,067	-0,055
-420,744	145,039	0,060	-0,059
-419,730	800,000	-0,033	0,075
-418,715	-33,290	0,068	-0,027
-417,701	800,000	-0,082	-0,173
-416,686	205,544	0,064	-0,072
-415,671	217,728	0,065	-0,075
-414,657	-200,000	-0,016	-0,130
-413,642	-24,205	0,044	-0,019
-412,628	-19,173	0,099	0,044
-411,613	800,000	-0,079	-0,177
-410,598	-200,000	-0,045	0,000
-409,584	291,266	-0,050	0,066
-408,569	-200,000	0,027	0,145
-407,555	-129,509	-0,053	0,005
-406,540	-77,283	0,059	0,015
-405,525	174,235	-0,007	0,008
-404,511	103,102	-0,080	-0,068
-403,496	-200,000	0,006	-0,081
-402,482	-24,043	0,120	0,052
-401,467	2,500	0,094	-0,049
-400,452	80,229	0,069	0,054
-399,438	82,693	-0,028	-0,022
-398,423	800,000	-0,040	-0,097
-397,409	800,000	0,035	-0,108
-396,394	800,000	-0,020	-0,056
-395,379	800,000	0,031	0,076
-394,365	-93,706	0,047	0,009
-393,350	800,000	0,037	-0,077
-392,336	326,414	0,068	0,095
-391,321	634,654	0,043	0,080
-390,306	-101,765	0,002	-0,000
-389,292	-55,763	-0,169	-0,055
-388,277	633,386	-0,028	0,052
-387,263	1,355	0,081	-0,042
-386,248	-200,000	0,014	0,048
-385,233	63,795	0,122	0,089
-384,219	-71,255	-0,028	-0,007
-383,204	425,587	0,012	0,019
-382,190	125,116	0,096	-0,088
-381,175	-28,069	-0,047	0,020
-380,160	-200,000	0,009	-0,058
-379,146	800,000	-0,018	-0,058
-378,131	-164,540	0,080	-0,003
-377,117	-200,000	0,004	0,031
-376,102	266,967	-0,010	-0,012
-375,088	-15,614	-0,095	-0,044
-374,073	-65,671	0,089	-0,026
-373,058	-200,000	0,003	0,096
-372,044	800,000	0,037	0,078
-371,029	182,100	0,117	0,125
-370,015	125,204	-0,083	0,076
-369,000	-200,000	-0,002	0,109
-367,985	-101,102	0,092	-0,016
-366,971	16,782	0,102	0,059
-365,956	-200,000	0,012	-0,107
-364,942	257,385	-0,087	0,109
-363,927	-67,918	0,089	0,025
-362,912	-35,904	0,043	0,017
-361,898	662,578	-0,065	-0,123
-360,883	160,767	-0,084	-0,085
-359,869	-200,000	0,003	-0,104
-358,854	-117,470	0,011	-0,001
-357,839	-59,449	-0,074	-0,023
-356,825	62,486	-0,034	0,024
-355,810	289,554	-0,046	-0,061
-354,796	-12,850	-0,095	-0,045
-353,781	800,000	-0,049	0,122
-352,766	612,591	-0,022	-0,039
-351,752	-200,000	0,001	-0,070
-350,737	-2,837	0,208	0,105
-349,723	800,000	-0,038	0,084
-348,708	37,690	0,061	0,039
-347,693	-42,923	-0,037	-0,014
-346,679	59,439	-0,221	-0,158
-345,664	-200,000	-0,019	-0,086
-344,650	-103,875	0,189	0,032
-343,635	-200,000	0,002	0,045
-342,620	194,635	-0,073	0,080
-341,606	522,202	0,048	-0,082
-340,591	416,221	0,031	0,048
-339,577	100,753	0,175	-0,148
-338,562	-47,456	0,088	-0,031
-337,548	354,540	0,105	-0,152
-336,533	190,688	0,094	0,102
-335,518	-165,186	0,041	0,001
-334,504	-50,371	0,075	0,025
-333,489	250,888	-0,143	0,176
-332,475	305,691	-0,060	0,080
-331,460	-200,000	-0,009	-0,165
-330,445	-13,886	0,036	0,017
-329,431	-200,000	-0,048	0,181
-328,416	-42,894	-0,067	0,025
-327,402	-200,000	0,030	0,113
-326,387	24,065	0,099	0,059
-325,372	-90,862	-0,116	0,024
-324,358	134,811	0,033	0,031
-323,343	185,255	-0,162	0,174
-322,329	323,839	-0,043	0,059
-321,314	-62,005	0,131	0,040
-320,299	-33,917	0,023	0,009
-319,285	-72,336	-0,098	-0,026
-318,270	-148,848	0,062	-0,004
-317,256	800,000	-0,020	-0,043
-316,241	800,000	0,033	-0,084
-315,226	-118,186	0,068	0,009
-314,212	-200,000	0,001	-0,053
-313,197	372,095	0,058	-0,086
-312,183	-167,147	0,085	0,002
-311,168	-112,936	-0,116	-0,016
-310,153	800,000	0,026	0,062
-309,139	800,000	-0,054	-0,160
-308,124	-59,570	0,200	-0,062
-307,110	701,895	-0,063	0,121
-306,095	-10,076	0,073	0,035
-305,080	416,755	0,017	0,027
-304,066	-4,291	0,093	-0,046
-303,051	34,135	-0,117	-0,074
-302,037	346,058	0,115	-0,164
-301,022	-200,000	0,003	0,042
-300,008	-51,403	0,020	0,007
-298,993	-200,000	-0,025	0,098
-297,978	-102,550	-0,065	-0,011
-296,964	151,019	0,036	0,035
-295,949	-85,743	0,035	-0,008
-294,935	-64,259	-0,062	0,018
-293,920	798,739	0,048	0,096
-292,905	10,813	0,152	-0,084
-291,891	-69,656	-0,078	0,021
-290,876	13,054	0,097	-0,054
-289,862	264,398	-0,058	-0,073
-288,847	-153,528	-0,048	-0,002
-287,832	326,187	0,052	0,072
-286,818	65,846	0,034	0,025
-285,803	-67,215	0,099	-0,028
-284,789	128,728	0,028	0,026
-283,774	800,000	-0,031	-0,075
-282,759	-95,317	-0,021	-0,004
-281,745	-102,090	-0,154	0,027
-280,730	370,439	-0,060	-0,089
-279,716	-200,000	0,022	0,074
-278,701	4,532	0,158	0,084
-277,686	-39,253	0,064	0,024
-276,672	197,694	0,051	0,056
-275,657	380,551	-0,086	0,128
-274,643	513,820	-0,060	0,101
-273,628	-200,000	-0,027	0,093
-272,613	-200,000	-0,007	-0,043
-271,599	-90,965	-0,066	0,014
-270,584	-151,847	0,172	-0,009
-269,570	70,278	0,068	0,051
-268,555	-96,267	-0,051	-0,010
-267,540	8,878	-0,078	-0,042
-266,526	494,908	-0,028	0,046
-265,511	257,291	0,059	0,074
-264,497	-200,000	0,001	0,098
-263,482	241,273	-0,060	0,073
-262,467	286,119	-0,043	-0,056
-261,453	-200,000	0,011	-0,103
-260,438	-157,899	0,046	-0,002
-259,424	-49,115	0,072	0,025
-258,409	-65,200	-0,043	-0,012
-257,395	-200,000	-0,007	-0,061
-256,380	800,000	0,024	0,067
-255,365	-200,000	0,006	0,145
-254,351	160,559	-0,070	-0,071
-253,336	-200,000	0,032	-0,113
-252,322	-200,000	-0,020	0,000
-251,307	-138,450	-0,113	-0,009
-250,292	-77,744	0,025	0,006
-249,278	-174,862	-0,093	-0,002
-248,263	-200,000	-0,010	-0,096
-247,249	800,000	-0,058	0,116
-246,234	10,101	-0,145	-0,079
-245,219	107,369	-0,055	-0,047
-244,205	226,677	-0,091	-0,107
-243,190	800,000	0,016	-0,041
-242,176	356,776	0,082	-0,119
-241,161	729,458	-0,084	0,162
-240,146	-52,291	-0,107	0,036
-239,132	800,000	0,041	-0,098
-238,117	-28,653	-0,196	-0,081
-237,103	48,193	-0,069	0,047
-236,088	-200,000	0,001	-0,016
-235,073	-200,000	0,010	0,049
-234,059	535,304	0,011	0,019
-233,044	29,798	-0,083	-0,051
-232,030	800,000	-0,034	-0,071
-231,015	800,000	-0,019	0,045
-230,000	-200,000	-0,030	0,174
-228,986	-64,852	0,115	-0,033
-227,971	-200,000	0,016	-0,074
-226,957	800,000	-0,076	0,184
-225,942	252,838	0,034	-0,042
-224,927	-1,698	0,139	0,070
-223,913	369,120	-0,042	-0,061
-222,898	130,603	-0,174	-0,161
-221,884	85,950	0,063	-0,050
-220,869	-104,121	-0,168	-0,028
-219,855	167,188	0,081	0,083
-218,840	-200,000	0,013	0,085
-217,825	-101,778	-0,141	0,024
-216,811	-200,000	0,001	0,011
-215,796	-59,543	-0,075	-0,023
-214,782	187,436	-0,068	-0,073
-213,767	-200,000	0,006	0,036
-212,752	-200,000	-0,029	0,108
-211,738	-48,133	0,173	0,060
-210,723	-132,604	0,103	0,009
-209,709	800,000	-0,017	-0,046
-208,694	-200,000	-0,004	0,029
-207,679	-200,000	-0,001	0,013
-206,665	48,017	-0,062	-0,042
-205,650	800,000	0,017	0,039
-204,636	45,361	0,041	-0,027
-203,621	-200,000	-0,003	0,249
-202,606	133,565	-0,026	-0,024
-201,592	-200,000	0,011	-0,150
-200,577	800,000	-0,034	0,070
-199,563	-178,294	0,105	0,002
-198,548	-7,929	0,078	0,038
-197,533	800,000	-0,057	0,155
-196,519	80,711	0,225	0,174
-195,504	-87,633	-0,110	-0,024
-194,490	120,177	-0,058	0,052
-193,475	800,000	-0,034	0,109
-192,460	-200,000	0,018	-0,139
-191,446	-200,000	0,020	-0,139
-190,431	546,059	0,028	-0,049
-189,417	22,570	-0,115	0,068
-188,402	22,805	-0,095	-0,056
-187,387	-87,456	0,137	-0,030
-186,373	-130,584	-0,097	-0,009
-185,358	-66,953	0,080	0,023
-184,344	-117,243	0,060	-0,008
-183,329	-54,471	0,069	0,022
-182,315	800,000	-0,035	0,081
-181,300	-200,000	0,016	0,100
-180,285	-200,000	-0,022	-0,118
-179,271	39,065	-0,052	-0,033
-178,256	616,646	-0,037	-0,067
-177,242	-200,000	-0,001	-0,100
-176,227	529,883	0,069	0,117
-175,212	176,105	-0,060	-0,063
-174,198	-10,914	-0,107	0,051
-173,183	-23,908	-0,228	-0,098
-172,169	11,382	-0,048	0,026
-171,154	800,000	-0,026	-0,069
-170,139	129,641	0,100	-0,092
-169,125	-62,680	0,091	0,027
-168,110	-200,000	-0,001	-0,088
-167,096	89,805	-0,065	-0,052
-166,081	-120,982	-0,154	-0,018
-165,066	-64,072	0,057	-0,017
-164,052	-200,000	0,006	-0,120
-163,037	-200,000	0,004	-0,057
-162,023	-200,000	0,027	-0,108
-161,008	95,186	-0,074	-0,061
-159,993	-93,023	0,054	-0,011
-158,979	111,137	0,063	-0,054
-157,964	-200,000	0,006	0,109
-156,950	-200,000	0,016	0,052
-155,935	-200,000	0,027	0,150
-154,920	307,921	-0,068	0,091
-153,906	241,456	-0,033	0,040
-152,891	-200,000	0,017	0,115
-151,877	-200,000	0,023	-0,158
-150,862	-200,000	0,008	-0,081
-149,847	800,000	0,045	-0,132
-148,833	-137,124	-0,027	-0,002
-147,818	98,062	0,071	-0,058
-146,804	68,675	-0,028	0,021
-145,789	-200,000	0,019	-0,070
-144,775	-23,201	0,061	-0,026
-143,760	-44,045	0,013	0,005
-142,745	35,581	-0,036	0,023
-141,731	-135,831	-0,119	-0,010
-140,716	-200,000	0,004	-0,026
-139,702	-200,000	0,003	-0,051
-138,687	-16,231	0,046	0,021
-137,672	-151,401	0,131	0,007
-136,658	585,192	-0,079	-0,140
-135,643	-5,412	-0,039	0,019
-134,629	481,424	0,081	0,132
-133,614	190,466	0,100	0,109
-132,599	104,562	0,056	0,048
-131,585	209,888	0,078	-0,088
-130,570	800,000	-0,045	-0,102
-129,556	160,008	-0,018	0,018
-128,541	769,216	-0,023	-0,045
-127,526	40,415	0,052	-0,034
-126,512	-122,644	0,048	0,006
-125,497	102,797	0,067	-0,056
-124,483	-200,000	-0,006	0,043
-123,468	-100,055	0,109	-0,019
-122,453	-200,000	-0,002	-0,090
-121,439	-164,131	-0,095	0,003
-120,424	-89,209	-0,037	0,008
-119,410	-119,795	0,152	0,019
-118,395	-200,000	0,001	-0,006
-117,380	-92,752	0,026	-0,005
-116,366	-200,000	0,006	-0,036
-115,351	-200,000	-0,004	-0,063
-114,337	-61,918	-0,017	-0,005
-113,322	168,009	0,042	0,043
-112,307	-98,104	-0,071	-0,013
-111,293	73,731	0,015	0,011
-110,278	800,000	-0,020	0,042
-109,264	441,542	0,119	0,188
-108,249	615,013	-0,015	0,027
-107,234	-200,000	-0,002	-0,095
-106,220	-200,000	0,024	0,078
-105,205	-189,360	0,077	0,001
-104,191	-200,000	-0,007	-0,039
-103,176	286,184	0,047	-0,062
-102,162	174,827	-0,053	0,055
-101,147	150,943	0,093	-0,091
-100,132	800,000	-0,068	-0,175
-99,118	-200,000	0,004	-0,156
-98,103	800,000	-0,074	-0,187
-97,089	-160,802	0,153	0,006
-96,074	173,807	0,075	0,077
-95,059	-87,766	-0,036	-0,008
-94,045	-200,000	-0,004	-0,168
-93,030	442,900	-0,098	0,155
-92,016	71,972	0,057	-0,043
-91,001	192,094	-0,079	-0,086
-89,986	-41,884	0,144	-0,053
-88,972	-200,000	0,009	0,043
-87,957	800,000	0,052	-0,113
-86,943	781,594	-0,036	-0,071
-85,928	2,815	0,146	0,076
-84,913	174,528	-0,029	0,030
-83,899	46,835	0,090	-0,060
-82,884	-146,161	0,188	-0,012
-81,870	238,452	-0,039	0,047
-80,855	800,000	-0,003	-0,006
-79,840	209,218	-0,088	-0,100
-78,826	-129,003	0,098	0,010
-77,811	-19,377	0,035	-0,016
-76,797	-120,823	0,095	0,011
-75,782	-49,051	0,132	-0,045
-74,767	130,039	-0,025	0,023
-73,753	244,970	0,025	-0,031
-72,738	-75,379	0,085	-0,022
-71,724	-115,717	-0,167	-0,022
-70,709	-200,000	0,006	-0,096
-69,694	-16,872	-0,127	-0,057
-68,680	800,000	-0,016	-0,047
-67,665	285,391	0,024	0,031
-66,651	91,054	-0,126	0,101
-65,636	-57,314	0,065	-0,020
-64,622	-72,618	0,115	-0,030
-63,607	319,009	-0,052	-0,071
-62,592	-71,703	0,070	0,019
-61,578	527,954	0,076	-0,129
-60,563	-39,363	0,047	-0,018
-59,549	-200,000	-0,023	0,082
-58,534	26,762	-2,128	-1,276
-57,519	-200,000	-0,155	-0,639
-56,505	-200,000	-1,364	-5,021
-55,490	76,215	0,860	0,652
-54,476	800,000	5,405	12,045
-53,461	-200,000	18,649	314,571
-52,446	800,000	740,800	2325,826
-51,432	557,247	1656,762	2874,530
-50,417	110,953	1640,410	1415,452
-49,403	75,218	1290,396	974,432
-48,388	30,441	1031,111	630,276
-47,373	19,927	993,660	572,569
-46,359	17,538	981,330	557,580
-45,344	14,117	977,684	544,242
-44,330	14,501	975,953	544,519
-43,315	13,904	973,971	541,433
-42,300	13,885	972,839	540,719
-41,286	13,722	972,203	539,811
-40,271	13,796	971,212	539,480
-39,257	13,816	970,343	539,045
-38,242	13,797	969,396	538,434
-37,227	13,839	968,472	538,036
-36,213	13,754	967,853	537,394
-35,198	13,821	966,647	536,922
-34,184	13,802	966,025	536,492
-33,169	13,797	964,982	535,876
-32,154	13,840	963,966	535,429
-31,140	13,843	963,144	534,961
-30,125	13,878	962,401	534,641
-29,111	13,811	961,771	534,052
-28,096	13,890	960,927	533,820
-27,082	13,843	960,265	533,279
-26,067	13,781	959,625	532,703
-25,052	13,863	958,732	532,449
-24,038	13,857	958,005	532,006
-23,023	13,800	957,603	531,578
-22,009	13,880	956,869	531,405
-20,994	13,854	956,095	530,872
-19,979	13,880	955,626	530,673
-18,965	13,801	955,095	530,103
-17,950	13,849	954,487	529,900
-16,936	13,804	953,733	529,315
-15,921	13,813	953,022	528,928
-14,906	13,775	952,279	528,374
-13,892	13,746	951,758	527,971
-12,877	13,717	950,973	527,421
-11,863	13,703	950,309	526,988
-10,848	13,730	949,696	526,712
-9,833	13,844	949,180	526,769
-8,819	13,800	948,583	526,277
-7,804	13,804	947,817	525,845
-6,790	13,710	947,347	525,262
-5,775	13,813	946,896	525,320
-4,760	13,734	946,310	524,721
-3,746	13,737	945,496	524,261
-2,731	13,550	944,978	523,359
-1,717	13,569	944,252	522,996
-0,702	13,575	943,586	522,625
0,313	13,370	942,945	522,408
1,327	16,600	940,604	531,282
2,342	25,564	795,535	473,144
3,356	21,996	460,206	268,209
4,371	-4,686	317,316	156,304
5,386	-8,440	299,117	143,492
6,400	-10,315	293,163	138,744
7,415	-10,711	290,478	137,068
8,429	-11,090	289,115	136,038
9,444	-11,094	287,941	135,470
10,459	-11,108	287,444	135,209
11,473	-11,211	287,021	134,898
12,488	-11,071	286,324	134,696
13,502	-11,232	285,841	134,299
14,517	-11,250	285,429	134,076
15,531	-11,385	284,856	133,662
16,546	-11,082	284,407	133,735
17,561	-11,222	284,116	133,450
18,575	-11,215	283,777	133,285
19,590	-11,223	283,322	133,052
20,604	-11,307	283,042	132,828
21,619	-11,324	282,724	132,651
22,634	-11,344	282,363	132,450
23,648	-11,179	281,947	132,402
24,663	-11,232	281,757	132,250
25,677	-11,435	281,581	131,960
26,692	-11,308	281,271	131,925
27,707	-11,270	280,869	131,762
28,721	-11,340	280,621	131,566
29,736	-11,189	280,152	131,479
30,750	-11,270	280,142	131,385
31,765	-11,433	279,939	131,122
32,780	-11,294	279,660	131,113
33,794	-11,642	279,443	130,668
34,809	-11,337	279,213	130,839
35,823	-11,449	278,922	130,584
36,838	-11,407	278,587	130,456
37,853	-11,304	278,231	130,375
38,867	-11,438	278,204	130,224
39,882	-11,385	278,016	130,175
40,896	-11,329	277,562	130,003
41,911	-11,411	277,370	129,824
42,926	-11,571	277,155	129,560
43,940	-11,435	276,962	129,587
44,955	-11,341	276,524	129,460
45,969	-11,372	276,390	129,356
46,984	-11,477	276,204	129,159
47,999	-11,757	275,764	128,678
49,013	-11,881	275,601	128,474
50,028	-12,008	275,255	128,182
51,042	-12,013	275,010	128,052
52,057	-12,145	274,603	127,727
53,071	-12,017	274,529	127,801
54,086	-11,970	274,445	127,795
55,101	-11,760	274,225	127,877
56,115	-11,578	274,076	127,966
57,130	-11,228	274,003	128,247
58,144	-11,076	273,620	128,198
59,159	-11,192	273,553	128,047
60,174	-11,080	273,324	128,033
61,188	-11,178	273,164	127,856
62,203	-11,183	272,875	127,704
63,217	-11,226	272,658	127,551
64,232	-11,369	272,623	127,391
65,247	-11,064	272,107	127,421
66,261	-11,216	272,034	127,235
67,276	-11,382	271,608	126,871
68,290	-11,518	271,512	126,689
69,305	-11,532	271,054	126,451
70,320	-11,374	270,860	126,495
71,334	-11,416	270,885	126,456
72,349	-11,363	270,771	126,441
73,363	-11,162	270,493	126,484
74,378	-10,982	270,116	126,462
75,393	-11,147	269,989	126,241
76,407	-11,116	269,918	126,224
77,422	-11,222	269,451	125,897
78,436	-11,294	269,371	125,783
79,451	-11,152	269,207	125,825
80,466	-11,184	268,756	125,574
81,480	-11,522	268,636	125,198
82,495	-11,522	268,424	125,088
83,509	-11,240	268,283	125,268
84,524	-11,303	267,847	124,996
85,539	-11,631	267,721	124,628
86,553	-11,599	267,470	124,529
87,568	-11,460	267,301	124,566
88,582	-11,211	267,149	124,709
89,597	-11,352	266,883	124,446
90,611	-11,316	266,830	124,443
91,626	-11,163	266,613	124,470
92,641	-11,120	266,381	124,389
93,655	-11,350	266,189	124,080
94,670	-11,445	265,935	123,865
95,684	-11,368	265,800	123,861
96,699	-11,355	265,570	123,753
97,714	-11,301	265,247	123,640
98,728	-11,581	265,045	123,283
99,743	-11,476	264,764	123,237
100,757	-11,452	264,587	123,165
101,772	-11,382	264,399	123,129
102,787	-11,354	264,301	123,098
103,801	-11,249	263,991	123,036
104,816	-11,317	264,041	122,988
105,830	-11,013	263,672	123,076
106,845	-11,095	263,631	122,973
107,860	-11,108	263,362	122,825
108,874	-11,064	263,179	122,768
109,889	-11,239	262,894	122,468
110,903	-11,244	262,596	122,314
111,918	-11,137	262,529	122,367
112,933	-11,356	262,411	122,107
113,947	-11,148	262,146	122,157
114,962	-11,120	261,919	122,065
115,976	-11,258	261,787	121,871
116,991	-11,184	261,649	121,861
118,006	-11,071	261,268	121,773
119,020	-11,201	261,260	121,643
120,035	-11,163	261,144	121,612
121,049	-11,232	260,935	121,442
122,064	-11,244	260,671	121,298
123,079	-11,046	260,415	121,343
124,093	-11,287	260,195	121,018
125,108	-11,338	259,997	120,870
126,122	-11,867	259,816	120,309
127,137	-11,762	259,603	120,293
128,151	-11,456	259,369	120,442
129,166	-11,528	259,253	120,314
130,181	-11,614	259,064	120,140
131,195	-11,429	258,603	120,077
132,210	-11,350	258,646	120,156
133,224	-11,165	258,435	120,209
134,239	-11,167	258,502	120,227
135,254	-11,293	258,175	119,955
136,268	-11,349	257,959	119,795
137,283	-11,394	257,453	119,510
138,297	-11,543	257,266	119,283
139,312	-11,649	257,139	119,121
140,327	-11,426	257,181	119,324
141,341	-11,082	257,007	119,532
142,356	-11,065	256,837	119,456
143,370	-11,176	256,657	119,266
144,385	-11,139	256,507	119,217
145,400	-11,235	256,342	119,047
146,414	-10,954	255,943	119,095
147,429	-11,125	255,976	118,951
148,443	-11,081	255,809	118,901
149,458	-10,968	255,611	118,896
150,473	-11,063	255,415	118,712
151,487	-11,060	255,145	118,579
152,502	-11,005	254,991	118,544
153,516	-10,878	254,855	118,579
154,531	-10,937	254,629	118,413
155,546	-10,878	254,264	118,283
156,560	-11,129	254,323	118,085
157,575	-11,089	254,127	118,017
158,589	-11,033	253,775	117,891
159,604	-11,038	253,724	117,853
160,619	-10,922	253,335	117,761
161,633	-11,051	253,281	117,615
162,648	-11,096	253,229	117,542
163,662	-11,024	253,025	117,498
164,677	-10,896	252,833	117,508
165,692	-10,964	252,691	117,374
166,706	-10,848	252,395	117,324
167,721	-11,012	252,300	117,130
168,735	-11,006	252,064	117,015
169,750	-11,022	252,036	116,978
170,764	-10,789	251,866	117,087
171,779	-10,974	251,815	116,895
172,794	-10,946	251,576	116,797
173,808	-11,080	251,305	116,547
174,823	-11,313	250,994	116,196
175,837	-11,546	250,779	115,889
176,852	-11,050	250,722	116,272
177,867	-10,880	250,706	116,397
178,881	-10,749	250,567	116,433
179,896	-10,800	250,302	116,257
180,910	-10,879	250,085	116,079
181,925	-11,024	250,011	115,912
182,940	-10,965	249,736	115,824
183,954	-10,891	249,516	115,774
184,969	-10,913	249,479	115,728
185,983	-10,805	249,321	115,735
186,998	-10,817	249,116	115,620
188,013	-10,740	248,800	115,527
189,027	-10,795	248,686	115,418
190,042	-10,835	248,534	115,304
191,056	-10,695	248,378	115,338
192,071	-10,966	248,245	115,039
193,086	-10,846	248,082	115,054
194,100	-10,876	247,852	114,911
195,115	-10,774	247,636	114,886
196,129	-10,777	247,586	114,850
197,144	-10,865	247,171	114,574
198,159	-10,982	247,172	114,468
199,173	-10,867	246,870	114,413
200,188	-10,812	246,712	114,375
201,202	-11,065	246,494	114,054
202,217	-11,300	246,101	113,667
203,232	-11,368	246,086	113,594
204,246	-11,048	246,017	113,817
205,261	-10,488	245,842	114,189
206,275	-10,930	245,838	113,812
207,290	-5,446	248,074	119,404
208,304	2,411	250,261	127,022
209,319	4,630	250,882	129,182
210,334	4,973	250,767	129,397
211,348	5,035	250,604	129,353
212,363	5,041	250,459	129,272
213,377	5,006	250,430	129,216
214,392	5,080	250,129	129,112
215,407	4,874	250,123	128,925
216,421	5,183	249,663	128,934
217,436	4,980	249,833	128,841
218,450	5,170	249,571	128,852
219,465	4,802	249,335	128,414
220,480	4,963	249,097	128,413
221,494	4,549	249,065	128,042
222,509	4,511	248,767	127,846
223,523	4,587	248,642	127,833
224,538	4,389	248,489	127,579
225,553	4,624	248,177	127,601
226,567	4,510	248,207	127,512
227,582	4,610	247,967	127,460
228,596	4,826	247,649	127,463
229,611	4,671	247,464	127,228
230,626	4,430	247,333	126,951
231,640	4,283	247,241	126,772
232,655	4,500	247,003	126,817
233,669	4,392	246,813	126,619
234,684	4,365	246,775	126,567
235,699	4,547	246,749	126,691
236,713	4,722	246,470	126,680
237,728	4,467	246,263	126,353
238,742	4,183	246,041	125,996
239,757	4,301	245,952	126,036
240,772	4,507	245,687	126,057
241,786	4,449	245,617	125,963
242,801	4,304	245,446	125,745
243,815	4,294	245,385	125,695
244,830	4,567	245,273	125,848
245,844	4,383	245,034	125,566
246,859	4,408	244,907	125,509
247,874	4,448	244,662	125,405
248,888	4,505	244,661	125,439
249,903	4,616	244,372	125,370
250,917	4,563	244,318	125,288
251,932	4,678	244,032	125,224
252,947	4,621	243,937	125,118
253,961	4,610	243,713	124,982
254,976	4,460	243,579	124,782
255,990	4,374	243,557	124,690
257,005	4,531	243,157	124,600
258,020	4,494	243,187	124,574
259,034	4,249	242,978	124,259
260,049	4,302	242,688	124,142
261,063	4,347	242,598	124,122
262,078	4,371	242,582	124,121
263,093	4,701	242,321	124,242
264,107	4,579	242,125	124,032
265,122	4,392	242,168	123,893
266,136	4,539	241,907	123,867
267,151	4,777	241,777	123,980
268,166	4,486	241,486	123,587
269,180	4,553	241,205	123,485
270,195	4,568	241,304	123,537
271,209	4,662	241,141	123,518
272,224	4,369	241,024	123,212
273,239	4,121	240,731	122,854
274,253	4,275	240,539	122,868
275,268	4,534	240,429	123,007
276,282	4,372	240,414	122,859
277,297	4,318	240,043	122,616
278,312	4,395	239,991	122,640
279,326	4,414	239,904	122,599
280,341	4,513	239,783	122,605
281,355	4,438	239,451	122,365
282,370	4,323	239,402	122,238
283,384	4,260	239,219	122,083
284,399	4,291	239,019	121,995
285,414	4,372	238,984	122,030
286,428	4,376	238,703	121,880
287,443	4,215	238,645	121,712
288,457	4,604	238,544	121,957
289,472	4,548	238,272	121,763
290,487	4,258	238,153	121,462
291,501	4,207	238,032	121,350
292,516	4,214	237,811	121,231
293,530	4,178	237,619	121,095
294,545	4,634	237,614	121,439
295,560	4,326	237,384	121,069
296,574	4,251	237,264	120,939
297,589	4,522	237,119	121,066
298,603	4,623	237,147	121,149
299,618	4,662	236,863	121,024
300,633	4,633	236,704	120,908
301,647	4,675	236,616	120,886
302,662	4,748	236,535	120,891
303,676	4,660	236,255	120,668
304,691	4,566	236,111	120,511
305,706	4,700	235,969	120,532
306,720	4,487	235,805	120,271
307,735	4,229	235,659	119,985
308,749	4,442	235,443	120,030
309,764	4,084	235,165	119,600
310,779	4,240	235,057	119,655
311,793	4,003	234,928	119,395
312,808	4,194	234,675	119,404
313,822	4,209	234,482	119,307
314,837	4,365	234,556	119,455
315,852	4,455	234,485	119,477
316,866	4,778	234,334	119,640
317,881	4,555	234,208	119,392
318,895	4,542	234,148	119,341
319,910	4,816	233,966	119,449
320,925	4,344	233,587	118,881
321,939	4,307	233,418	118,756
322,954	4,371	233,429	118,800
323,968	4,573	233,221	118,839
324,983	4,566	233,203	118,814
325,997	4,737	232,980	118,821
327,012	4,941	232,908	118,930
328,027	4,679	232,628	118,576
329,041	4,870	232,719	118,758
330,056	5,153	232,564	118,885
331,070	4,938	232,460	118,657
332,085	4,741	232,155	118,340
333,100	4,717	231,852	118,157
334,114	4,528	231,774	117,962
335,129	5,000	231,738	118,294
336,143	4,583	231,728	117,960
337,158	4,815	231,344	117,930
338,173	4,538	231,209	117,640
339,187	4,622	230,964	117,569
340,202	4,612	230,952	117,545
341,216	4,593	230,724	117,404
342,231	4,685	230,629	117,415
343,246	4,674	230,656	117,410
344,260	4,687	230,456	117,307
345,275	4,692	230,408	117,276
346,289	4,736	230,156	117,171
347,304	4,959	229,747	117,121
348,319	4,523	229,792	116,803
349,333	4,656	229,640	116,816
350,348	4,345	229,344	116,421
351,362	4,444	229,213	116,418
352,377	3,952	229,067	115,963
353,392	3,904	228,825	115,794
354,406	3,834	228,575	115,605
355,421	195,358	1317,866	1392,337
356,435	156,685	1450,544	1392,298
