DTS Sentinel unit serial number:	SN410029Multiplexer serial number:	ORYXHardware model number:	OX2-SRSoftware version number:	ORYX F/W v4,00 Oryx Data Collector v3.7.2.0data status	okinstallation	B5 Nyhavnadifferential loss correction	single-endedforward channel	channel 2reverse channel	N/Adate	2023/12/12time	11:07:13forward acquisition time	300,00reverse acquisition time	0,00gamma	499,1914k internal	0,3158k external	0,3158temperature offset calibration	1,0000default loss term (dB/km)	0,3820temperature slope calibration	1,0000multiplexer offset coefficient	1,0000multiplexer slope coefficient	1,0000fibre end	0,00T internal ref (°C)	15,02T ext. ref 1 (°C)	-1,20T ext. ref 2 (°C)	-1,43length (m)	temperature (°C)	Stokes	anti-Stokes-744,400	-67,545	0,071	-0,020
-743,385	-88,082	-0,278	-0,061
-742,371	-113,639	0,106	0,015
-741,356	-2,257	-0,242	0,125
-740,342	-80,737	0,208	0,051
-739,327	-73,994	-0,342	0,091
-738,312	-98,464	0,159	-0,030
-737,298	6,714	-0,156	-0,085
-736,283	-200,000	0,030	0,145
-735,269	-87,742	-0,273	0,060
-734,254	800,000	0,027	0,065
-733,239	-144,045	-0,582	0,040
-732,225	-154,812	0,262	-0,013
-731,210	800,000	0,007	-0,022
-730,196	-200,000	0,011	0,054
-729,181	-130,500	0,095	-0,009
-728,167	83,289	0,072	0,057
-727,152	-200,000	-0,002	0,066
-726,137	-200,000	-0,041	0,157
-725,123	-40,588	-0,137	-0,052
-724,108	171,574	-0,126	-0,133
-723,094	-200,000	0,026	-0,177
-722,079	800,000	0,035	-0,110
-721,064	-200,000	-0,001	-0,049
-720,050	39,325	-0,057	-0,037
-719,035	-200,000	-0,020	0,154
-718,021	-128,621	0,151	0,016
-717,006	-169,207	-0,204	0,005
-715,991	800,000	-0,111	-0,235
-714,977	88,624	-0,083	-0,068
-713,962	33,317	-0,124	-0,079
-712,948	328,085	0,125	-0,177
-711,933	-200,000	0,001	-0,050
-710,918	800,000	-0,021	-0,053
-709,904	-81,431	-0,116	-0,028
-708,889	67,925	0,034	0,026
-707,875	-200,000	-0,004	-0,113
-706,860	185,528	0,041	-0,045
-705,845	50,997	0,040	0,028
-704,831	113,385	-0,049	-0,044
-703,816	-200,000	0,048	-0,162
-702,802	186,940	-0,104	0,115
-701,787	-37,364	-0,108	-0,042
-700,772	40,131	-0,102	0,067
-699,758	789,015	-0,023	-0,046
-698,743	-35,918	0,173	0,068
-697,729	800,000	0,048	-0,119
-696,714	741,239	0,019	-0,038
-695,699	595,241	-0,047	-0,087
-694,685	-25,512	-0,122	0,053
-693,670	-116,396	0,131	-0,018
-692,656	-128,047	0,104	-0,011
-691,641	623,092	0,061	0,114
-690,627	-176,388	-0,154	-0,003
-689,612	186,887	0,087	0,096
-688,597	800,000	-0,012	0,030
-687,583	19,221	-0,125	-0,074
-686,568	-200,000	0,008	-0,086
-685,554	-200,000	-0,009	0,082
-684,539	-39,516	-0,045	-0,017
-683,524	-104,304	-0,102	-0,017
-682,510	44,518	-0,046	0,031
-681,495	-137,199	-0,146	-0,012
-680,481	-200,000	0,032	0,141
-679,466	0,946	-0,081	-0,043
-678,451	250,884	-0,048	0,060
-677,437	-200,000	-0,009	0,089
-676,422	68,663	0,060	-0,045
-675,408	70,458	0,003	0,002
-674,393	-114,062	-0,098	0,014
-673,378	800,000	-0,017	0,047
-672,364	206,653	-0,133	-0,153
-671,349	800,000	-0,029	-0,075
-670,335	-200,000	0,020	-0,072
-669,320	293,766	0,060	-0,080
-668,305	87,346	0,015	-0,013
-667,291	685,415	0,046	0,088
-666,276	800,000	0,058	-0,171
-665,262	-130,723	-0,154	-0,015
-664,247	-123,768	-0,064	0,007
-663,232	73,670	-0,065	0,050
-662,218	800,000	0,048	0,101
-661,203	121,523	0,035	0,032
-660,189	-200,000	-0,014	0,046
-659,174	800,000	-0,045	-0,110
-658,159	-200,000	0,007	-0,041
-657,145	26,253	-0,212	0,130
-656,130	-200,000	-0,001	-0,003
-655,116	265,296	-0,053	-0,068
-654,101	-107,463	0,115	0,018
-653,086	-3,055	0,053	-0,027
-652,072	-125,178	-0,176	-0,020
-651,057	-65,771	-0,125	-0,036
-650,043	800,000	0,015	0,041
-649,028	460,598	-0,011	-0,019
-648,014	5,962	0,076	-0,041
-646,999	12,539	0,119	-0,067
-645,984	86,252	-0,094	0,076
-644,970	207,373	-0,113	0,130
-643,955	74,504	-0,118	-0,091
-642,941	544,296	0,034	-0,061
-641,926	-200,000	0,006	-0,048
-640,911	-117,174	-0,086	0,011
-639,897	290,555	-0,020	-0,027
-638,882	-32,517	-0,071	-0,029
-637,868	-200,000	0,020	-0,087
-636,853	-150,841	-0,059	0,003
-635,838	-126,030	0,057	0,006
-634,824	800,000	-0,068	-0,138
-633,809	-180,751	-0,084	0,001
-632,795	-145,048	-0,162	-0,011
-631,780	-200,000	0,018	0,068
-630,765	116,995	-0,094	-0,085
-629,751	-200,000	-0,019	-0,137
-628,736	-39,770	0,095	-0,036
-627,722	-128,482	-0,124	-0,013
-626,707	-200,000	0,013	-0,059
-625,692	362,038	0,062	0,091
-624,678	75,352	-0,067	-0,052
-623,663	27,056	0,043	0,026
-622,649	-51,924	-0,062	0,021
-621,634	-125,672	-0,094	-0,010
-620,619	-143,108	-0,108	0,008
-619,605	800,000	-0,058	-0,139
-618,590	2,806	0,151	-0,080
-617,576	-126,647	-0,071	-0,008
-616,561	199,462	0,060	-0,068
-615,546	-129,681	-0,124	-0,012
-614,532	-200,000	0,000	-0,073
-613,517	66,607	0,067	-0,050
-612,503	396,950	0,096	0,147
-611,488	-126,713	0,088	0,009
-610,474	-59,006	-0,005	-0,002
-609,459	-77,338	0,082	-0,021
-608,444	105,848	-0,057	-0,049
-607,430	-94,785	0,138	-0,027
-606,415	-86,936	-0,136	0,030
-605,401	406,390	-0,048	-0,074
-604,386	772,774	-0,044	0,088
-603,371	-11,066	-0,035	0,017
-602,357	800,000	0,006	-0,017
-601,342	53,270	0,021	0,015
-600,328	-5,359	-0,066	0,033
-599,313	-200,000	0,001	-0,068
-598,298	337,981	-0,064	-0,092
-597,284	-200,000	0,038	-0,127
-596,269	280,292	0,045	0,059
-595,255	251,331	-0,062	-0,078
-594,240	-200,000	-0,015	-0,067
-593,225	-6,492	-0,027	-0,013
-592,211	-196,126	-0,088	-0,000
-591,196	26,176	-0,049	-0,030
-590,182	-200,000	-0,018	-0,102
-589,167	-200,000	-0,014	-0,063
-588,152	-200,000	-0,006	-0,101
-587,138	105,409	0,057	-0,049
-586,123	-83,196	-0,128	0,030
-585,109	-145,904	-0,031	-0,002
-584,094	-200,000	0,045	-0,224
-583,079	472,808	0,017	0,027
-582,065	-158,649	0,164	0,007
-581,050	55,057	0,074	0,052
-580,036	-48,863	0,054	-0,019
-579,021	-43,429	-0,088	0,032
-578,006	10,891	-0,189	0,105
-576,992	227,435	-0,026	-0,031
-575,977	313,179	0,053	-0,073
-574,963	800,000	0,040	0,095
-573,948	101,852	0,043	-0,037
-572,934	15,407	-0,127	-0,073
-571,919	-9,631	0,080	0,039
-570,904	-200,000	0,001	0,038
-569,890	-79,835	0,049	-0,012
-568,875	605,433	0,009	0,017
-567,861	-90,695	0,128	-0,027
-566,846	800,000	-0,016	-0,040
-565,831	-200,000	-0,018	0,094
-564,817	238,404	-0,041	0,049
-563,802	800,000	-0,032	-0,098
-562,788	147,368	-0,014	-0,014
-561,773	271,356	-0,109	0,141
-560,758	-200,000	0,001	0,007
-559,744	106,087	0,069	-0,060
-558,729	-163,484	0,096	0,003
-557,715	-200,000	-0,014	-0,048
-556,700	-133,736	-0,083	0,007
-555,685	94,657	-0,037	-0,031
-554,671	-124,314	-0,056	-0,006
-553,656	244,348	0,018	-0,022
-552,642	-200,000	-0,005	0,024
-551,627	-200,000	0,012	-0,056
-550,612	-62,694	0,084	-0,025
-549,598	-200,000	-0,030	-0,148
-548,583	713,294	0,050	-0,098
-547,569	314,382	-0,048	0,067
-546,554	83,788	0,027	-0,022
-545,539	800,000	-0,073	-0,162
-544,525	-200,000	0,006	0,028
-543,510	-123,333	-0,114	-0,013
-542,496	800,000	0,019	-0,044
-541,481	424,077	0,062	-0,098
-540,466	296,077	-0,075	-0,101
-539,452	130,423	0,106	0,099
-538,437	-200,000	-0,026	0,129
-537,423	-200,000	0,009	0,164
-536,408	157,554	0,031	0,032
-535,393	27,056	0,010	-0,006
-534,379	-200,000	-0,014	-0,116
-533,364	-109,300	-0,115	-0,018
-532,350	-200,000	-0,018	0,066
-531,335	103,776	0,125	0,107
-530,321	-200,000	0,004	-0,024
-529,306	-17,247	-0,019	-0,009
-528,291	-110,238	-0,036	-0,005
-527,277	105,094	-0,014	-0,012
-526,262	177,935	0,042	-0,045
-525,248	-144,956	0,080	0,005
-524,233	245,856	0,104	0,129
-523,218	-58,763	0,132	-0,041
-522,204	-200,000	-0,018	0,131
-521,189	75,925	0,108	-0,083
-520,175	273,552	0,069	-0,090
-519,160	60,715	0,073	-0,053
-518,145	64,350	-0,087	0,064
-517,131	-175,978	0,148	-0,003
-516,116	59,013	-0,063	0,045
-515,102	32,441	-0,102	-0,064
-514,087	92,002	-0,173	-0,143
-513,072	-200,000	-0,006	-0,077
-512,058	800,000	0,100	-0,207
-511,043	-200,000	-0,002	-0,059
-510,029	407,729	-0,044	-0,068
-509,014	365,532	0,063	0,093
-507,999	-50,382	0,046	0,016
-506,985	-200,000	0,010	0,041
-505,970	-200,000	-0,000	0,012
-504,956	800,000	-0,045	-0,092
-503,941	-200,000	0,014	0,097
-502,926	-49,178	0,057	-0,020
-501,912	387,654	0,132	0,199
-500,897	66,430	0,033	-0,025
-499,883	34,573	0,011	-0,007
-498,868	800,000	-0,030	-0,093
-497,853	153,191	-0,032	0,032
-496,839	-22,664	0,233	0,102
-495,824	-200,000	0,000	-0,001
-494,810	-67,424	-0,060	0,017
-493,795	-12,643	-0,067	0,032
-492,781	-76,883	0,007	-0,002
-491,766	-72,501	-0,193	-0,052
-490,751	342,726	-0,033	0,048
-489,737	22,948	0,048	-0,028
-488,722	360,432	0,051	-0,075
-487,708	800,000	0,015	0,044
-486,693	-37,460	0,100	0,039
-485,678	179,051	-0,088	0,094
-484,664	295,133	0,062	-0,083
-483,649	659,722	-0,107	-0,202
-482,635	-152,514	0,124	-0,006
-481,620	-200,000	0,013	-0,050
-480,605	-200,000	0,030	-0,110
-479,591	-200,000	0,015	0,050
-478,576	800,000	-0,016	-0,037
-477,562	-89,680	-0,080	0,017
-476,547	133,685	-0,046	0,044
-475,532	-93,837	0,097	-0,019
-474,518	-4,150	0,058	-0,029
-473,503	631,745	0,027	-0,050
-472,489	300,925	-0,020	-0,027
-471,474	690,791	0,027	-0,052
-470,459	122,387	-0,051	-0,046
-469,445	111,766	-0,030	-0,027
-468,430	800,000	0,065	-0,170
-467,416	225,870	0,016	0,019
-466,401	111,493	0,023	-0,020
-465,386	-29,711	0,147	0,061
-464,372	-200,000	0,015	-0,119
-463,357	100,189	-0,165	0,139
-462,343	800,000	0,044	0,110
-461,328	73,752	-0,086	0,066
-460,313	42,110	-0,106	-0,070
-459,299	-60,041	0,073	-0,023
-458,284	-4,404	0,041	-0,021
-457,270	547,170	-0,047	-0,082
-456,255	-126,756	0,031	0,003
-455,241	148,599	-0,146	-0,144
-454,226	226,814	-0,041	-0,049
-453,211	-87,485	-0,110	-0,024
-452,197	-200,000	0,023	0,076
-451,182	254,133	0,082	0,102
-450,168	188,326	0,050	0,054
-449,153	-200,000	0,016	0,099
-448,138	142,448	-0,080	-0,077
-447,124	-200,000	0,064	-0,218
-446,109	-43,964	0,090	0,033
-445,095	-200,000	0,008	0,105
-444,080	5,949	-0,110	-0,059
-443,065	-69,744	0,083	0,023
-442,051	179,601	-0,024	-0,026
-441,036	800,000	-0,072	-0,158
-440,022	73,019	-0,038	-0,029
-439,007	94,744	0,129	0,107
-437,992	34,562	-0,011	0,007
-436,978	245,461	0,111	-0,136
-435,963	-200,000	0,024	-0,113
-434,949	47,560	-0,054	-0,036
-433,934	-165,378	-0,176	-0,006
-432,919	-137,739	-0,054	-0,004
-431,905	-89,626	-0,104	0,022
-430,890	-200,000	0,004	0,021
-429,876	339,591	0,077	0,109
-428,861	260,326	0,026	0,032
-427,846	-93,687	0,153	-0,030
-426,832	-200,000	-0,019	-0,101
-425,817	192,802	-0,042	0,046
-424,803	174,399	-0,020	0,021
-423,788	698,611	-0,026	0,050
-422,773	800,000	0,037	0,095
-421,759	161,405	-0,087	0,088
-420,744	569,594	0,061	0,109
-419,730	800,000	-0,035	-0,087
-418,715	363,634	0,034	-0,050
-417,701	-105,706	-0,168	0,027
-416,686	16,030	-0,063	-0,036
-415,671	131,806	-0,047	0,044
-414,657	-200,000	0,017	0,206
-413,642	-200,000	-0,016	0,111
-412,628	800,000	0,039	-0,116
-411,613	108,758	-0,044	0,039
-410,598	-200,000	0,004	0,076
-409,584	103,526	0,165	0,141
-408,569	29,783	0,072	0,045
-407,555	-150,074	0,089	-0,005
-406,540	-142,801	-0,145	-0,010
-405,525	800,000	-0,020	-0,048
-404,511	-85,932	-0,105	-0,023
-403,496	-29,673	0,165	0,068
-402,482	163,172	-0,071	-0,073
-401,467	90,362	-0,020	-0,016
-400,452	-200,000	-0,015	0,088
-399,438	342,196	0,042	0,060
-398,423	800,000	0,023	-0,054
-397,409	-132,988	-0,165	-0,015
-396,394	180,238	-0,164	-0,176
-395,379	504,219	-0,054	-0,092
-394,365	594,329	0,018	0,032
-393,350	-145,974	0,150	0,009
-392,336	-118,692	-0,057	0,007
-391,321	-0,950	0,036	0,019
-390,306	-200,000	0,014	0,148
-389,292	800,000	-0,040	0,093
-388,277	-158,942	-0,074	-0,003
-387,263	800,000	-0,030	-0,071
-386,248	-200,000	-0,018	-0,063
-385,233	387,825	-0,058	0,087
-384,219	1,973	-0,015	0,008
-383,204	-111,052	-0,159	-0,023
-382,190	-2,118	-0,076	0,038
-381,175	133,261	-0,141	0,132
-380,160	173,708	0,079	0,083
-379,146	-107,283	0,148	0,023
-378,131	-56,975	-0,088	-0,028
-377,117	-51,354	-0,048	0,016
-376,102	800,000	-0,035	-0,094
-375,088	800,000	0,046	-0,106
-374,073	-38,924	-0,145	-0,055
-373,058	-142,634	0,065	-0,005
-372,044	613,529	0,017	0,030
-371,029	800,000	-0,054	0,142
-370,015	800,000	0,015	0,032
-369,000	599,448	0,037	0,067
-367,985	-200,000	0,026	-0,099
-366,971	45,698	-0,026	-0,018
-365,956	-93,911	-0,156	0,031
-364,942	-58,692	0,084	-0,026
-363,927	-200,000	0,019	0,124
-362,912	800,000	-0,011	-0,026
-361,898	-200,000	0,015	0,093
-360,883	180,597	0,035	0,037
-359,869	67,703	0,050	-0,037
-358,854	115,655	-0,055	0,049
-357,839	625,335	0,064	-0,118
-356,825	301,917	0,015	-0,020
-355,810	800,000	-0,022	0,046
-354,796	627,690	0,015	-0,028
-353,781	45,111	0,024	-0,016
-352,766	800,000	-0,017	0,049
-351,752	800,000	-0,005	-0,012
-350,737	-175,760	0,040	0,001
-349,723	126,792	-0,013	-0,012
-348,708	-15,807	-0,074	0,034
-347,693	800,000	-0,033	-0,081
-346,679	800,000	0,034	0,088
-345,664	114,850	0,104	0,092
-344,650	-2,398	-0,109	0,055
-343,635	-200,000	0,061	0,243
-342,620	-139,915	-0,057	0,004
-341,606	51,959	0,205	0,141
-340,591	-149,776	0,079	0,004
-339,577	-200,000	0,004	0,070
-338,562	800,000	-0,026	0,067
-337,548	-111,453	-0,130	-0,019
-336,533	110,634	0,120	0,105
-335,518	-26,786	0,074	0,031
-334,504	234,828	0,075	0,090
-333,489	25,949	-0,042	-0,025
-332,475	800,000	-0,062	-0,132
-331,460	-115,152	0,004	-0,001
-330,445	800,000	-0,032	0,094
-329,431	-62,724	0,109	0,032
-328,416	-112,013	0,122	0,018
-327,402	318,350	0,072	0,099
-326,387	-99,604	-0,060	0,011
-325,372	800,000	0,051	-0,151
-324,358	-194,127	-0,074	0,000
-323,343	800,000	0,074	0,152
-322,329	277,805	0,026	0,033
-321,314	-200,000	-0,002	-0,024
-320,299	-200,000	-0,006	-0,128
-319,285	-200,000	-0,026	0,108
-318,270	-62,467	0,123	-0,037
-317,256	330,013	0,015	-0,021
-316,241	-200,000	0,038	0,127
-315,226	800,000	-0,024	0,064
-314,212	36,671	-0,032	0,020
-313,197	309,753	-0,020	0,027
-312,183	-105,462	0,132	0,021
-311,168	87,456	0,073	0,058
-310,153	4,048	-0,167	0,088
-309,139	-189,888	0,018	0,000
-308,124	800,000	0,037	0,114
-307,110	800,000	0,022	0,051
-306,095	-98,796	0,124	-0,023
-305,080	758,199	-0,062	-0,123
-304,066	6,222	-0,092	-0,049
-303,051	-13,113	0,092	-0,043
-302,037	8,680	0,042	-0,023
-301,022	-174,505	-0,023	0,000
-300,008	737,773	0,056	0,108
-298,993	-136,664	-0,080	0,007
-297,978	113,679	0,106	0,094
-296,964	98,778	0,093	-0,077
-295,949	-125,551	0,037	0,004
-294,935	800,000	0,028	-0,071
-293,920	154,781	0,061	-0,061
-292,905	-80,404	0,038	0,009
-291,891	334,825	-0,049	0,069
-290,876	-200,000	0,026	0,086
-289,862	800,000	0,030	-0,090
-288,847	800,000	0,065	0,156
-287,832	-112,295	0,079	0,011
-286,818	168,412	0,043	0,044
-285,803	103,324	0,047	0,040
-284,789	800,000	0,015	-0,040
-283,774	103,155	0,040	0,034
-282,759	122,386	0,087	-0,079
-281,745	570,423	0,047	0,084
-280,730	-128,862	-0,154	0,015
-279,716	210,689	-0,053	-0,060
-278,701	-200,000	-0,004	0,046
-277,686	13,916	-0,044	0,025
-276,672	-200,000	0,027	-0,110
-275,657	-200,000	0,000	0,015
-274,643	-200,000	0,009	-0,037
-273,628	33,260	-0,128	-0,080
-272,613	161,409	0,092	-0,093
-271,599	-95,513	-0,081	0,016
-270,584	282,667	0,067	0,087
-269,570	194,286	0,051	-0,056
-268,555	221,347	0,013	0,015
-267,540	-200,000	-0,013	-0,051
-266,526	-139,373	-0,019	0,001
-265,511	314,286	0,126	-0,172
-264,497	-24,247	0,112	0,048
-263,482	-88,736	0,131	-0,028
-262,467	-82,858	-0,066	-0,015
-261,453	121,810	-0,114	0,103
-260,438	-47,408	0,049	0,017
-259,424	199,034	0,059	-0,065
-258,409	611,531	-0,030	0,054
-257,395	-65,443	0,054	-0,016
-256,380	-120,402	0,077	-0,009
-255,365	-3,761	-0,123	-0,062
-254,351	-200,000	0,007	-0,034
-253,336	475,966	-0,022	-0,037
-252,322	-10,341	-0,086	-0,041
-251,307	-200,000	0,011	0,060
-250,292	141,754	0,070	-0,067
-249,278	202,934	0,058	0,065
-248,263	800,000	0,071	0,181
-247,249	-200,000	0,008	0,178
-246,234	-155,213	0,068	0,003
-245,219	514,567	-0,043	0,073
-244,205	-173,910	-0,045	-0,001
-243,190	-137,049	0,029	-0,002
-242,176	800,000	-0,017	0,044
-241,161	53,067	0,087	0,060
-240,146	-200,000	0,001	0,035
-239,132	58,653	-0,031	0,022
-238,117	225,661	-0,110	0,129
-237,103	22,136	-0,075	-0,044
-236,088	-22,750	0,130	0,056
-235,073	109,413	-0,072	0,062
-234,059	67,866	-0,045	0,034
-233,044	-200,000	0,029	0,119
-232,030	-63,677	0,058	0,017
-231,015	-16,771	0,094	0,043
-230,000	-133,452	0,139	0,012
-228,986	359,698	0,042	-0,062
-227,971	146,641	-0,053	0,051
-226,957	361,032	0,033	0,048
-225,942	180,576	-0,049	-0,053
-224,927	-34,581	-0,126	0,049
-223,913	158,931	-0,077	-0,077
-222,898	-7,533	0,121	-0,059
-221,884	-10,194	0,085	0,040
-220,869	132,177	-0,074	0,069
-219,855	176,625	0,095	0,100
-218,840	-200,000	-0,031	0,160
-217,825	-200,000	0,016	0,084
-216,811	-54,671	0,087	-0,028
-215,796	616,843	-0,064	-0,117
-214,782	-200,000	0,016	-0,092
-213,767	-38,940	0,053	0,020
-212,752	281,967	0,047	0,061
-211,738	37,155	0,130	0,083
-210,723	-39,902	-0,026	-0,010
-209,709	-122,441	-0,092	-0,011
-208,694	154,906	-0,027	-0,027
-207,679	-25,478	0,068	-0,029
-206,665	-88,908	0,070	0,015
-205,650	-143,914	0,124	-0,008
-204,636	172,073	0,100	-0,104
-203,621	-200,000	0,000	0,142
-202,606	800,000	0,024	-0,051
-201,592	-200,000	-0,023	-0,113
-200,577	-200,000	-0,001	0,033
-199,563	800,000	-0,038	-0,105
-198,548	190,861	-0,048	0,052
-197,533	800,000	-0,069	0,172
-196,519	-49,936	-0,093	0,032
-195,504	108,054	-0,021	-0,018
-194,490	-91,366	-0,156	0,032
-193,475	-200,000	0,005	-0,064
-192,460	53,639	-0,023	-0,016
-191,446	-200,000	0,000	0,027
-190,431	5,660	-0,055	-0,029
-189,417	800,000	-0,036	-0,096
-188,402	800,000	-0,025	-0,055
-187,387	52,330	0,007	0,005
-186,373	385,988	-0,018	0,028
-185,358	-200,000	-0,014	-0,110
-184,344	800,000	0,030	0,065
-183,329	-200,000	0,000	0,003
-182,315	79,673	-0,097	0,075
-181,300	-131,386	-0,044	0,004
-180,285	-200,000	-0,010	0,069
-179,271	-200,000	-0,029	-0,104
-178,256	-73,690	-0,077	0,020
-177,242	800,000	-0,012	0,027
-176,227	-49,879	-0,068	0,023
-175,212	288,978	-0,043	-0,056
-174,198	114,056	0,017	-0,015
-173,183	-200,000	0,019	-0,061
-172,169	-72,618	0,057	-0,015
-171,154	-200,000	0,004	0,019
-170,139	-20,855	-0,046	-0,020
-169,125	-121,854	0,129	-0,015
-168,110	800,000	-0,043	0,093
-167,096	780,074	0,033	0,065
-166,081	352,639	-0,012	0,017
-165,066	224,647	-0,103	-0,120
-164,052	-3,290	-0,041	-0,021
-163,037	800,000	0,028	-0,073
-162,023	-2,874	0,054	-0,027
-161,008	-39,694	-0,069	-0,026
-159,993	74,276	-0,047	0,035
-158,979	83,095	-0,021	0,016
-157,964	800,000	-0,050	-0,134
-156,950	9,699	0,052	0,028
-155,935	-56,422	0,019	-0,006
-154,920	800,000	-0,014	0,033
-153,906	137,289	-0,058	-0,054
-152,891	-200,000	0,016	0,120
-151,877	341,582	-0,112	0,158
-150,862	-109,758	-0,111	-0,017
-149,847	168,983	0,033	-0,034
-148,833	32,039	0,066	0,041
-147,818	-61,793	0,054	-0,016
-146,804	259,444	0,096	-0,120
-145,789	-200,000	0,022	0,143
-144,775	335,414	0,055	0,077
-143,760	11,690	-0,095	-0,053
-142,745	225,764	-0,038	-0,044
-141,731	-69,516	-0,065	-0,018
-140,716	562,266	-0,014	-0,025
-139,702	157,515	0,053	0,053
-138,687	158,258	0,034	0,034
-137,672	-126,623	-0,062	0,007
-136,658	-200,000	0,000	-0,072
-135,643	-13,623	-0,036	0,017
-134,629	207,347	0,025	-0,028
-133,614	-77,639	0,195	-0,048
-132,599	0,513	-0,043	0,022
-131,585	276,020	-0,035	0,044
-130,570	-55,357	-0,096	0,031
-129,556	-200,000	-0,021	-0,100
-128,541	-53,269	0,059	0,019
-127,526	-200,000	0,018	-0,087
-126,512	800,000	0,045	-0,111
-125,497	-200,000	0,032	0,183
-124,483	-200,000	0,027	0,161
-123,468	-4,225	-0,055	-0,028
-122,453	-200,000	0,014	0,062
-121,439	800,000	0,039	-0,089
-120,424	-35,005	-0,118	0,046
-119,410	-112,211	0,091	-0,013
-118,395	-138,521	0,033	-0,003
-117,380	447,971	-0,053	-0,084
-116,366	-81,570	-0,154	0,036
-115,351	390,548	-0,023	0,034
-114,337	-170,782	-0,104	0,003
-113,322	800,000	0,063	-0,148
-112,307	-200,000	-0,002	0,095
-111,293	800,000	0,005	-0,013
-110,278	143,111	0,041	0,039
-109,264	-59,527	-0,112	-0,034
-108,249	591,381	0,048	-0,086
-107,234	-3,132	0,098	0,049
-106,220	-69,681	-0,026	-0,007
-105,205	81,576	0,112	-0,087
-104,191	678,780	-0,078	0,147
-103,176	-38,634	0,129	-0,049
-102,162	129,592	0,031	0,028
-101,147	54,990	0,057	-0,040
-100,132	-48,980	-0,181	-0,062
-99,118	168,578	-0,044	0,045
-98,103	35,190	0,201	-0,127
-97,089	-200,000	-0,006	0,020
-96,074	800,000	-0,059	0,133
-95,059	492,936	-0,030	-0,050
-94,045	800,000	-0,028	0,064
-93,030	-117,183	-0,195	-0,025
-92,016	2,513	0,107	0,055
-91,001	797,348	-0,006	0,011
-89,986	64,244	0,065	-0,047
-88,972	140,302	0,141	0,134
-87,957	115,686	-0,022	-0,019
-86,943	-200,000	-0,006	-0,026
-85,928	-200,000	-0,038	-0,134
-84,913	800,000	0,036	-0,090
-83,899	53,065	-0,083	0,057
-82,884	-113,886	-0,021	-0,003
-81,870	-200,000	-0,013	0,074
-80,855	-200,000	-0,035	-0,195
-79,840	800,000	-0,023	0,063
-78,826	78,241	-0,106	-0,081
-77,811	-6,886	-0,080	-0,039
-76,797	-178,048	-0,039	0,001
-75,782	-160,754	0,025	-0,001
-74,767	-80,386	0,066	0,016
-73,753	-200,000	0,006	0,082
-72,738	-85,142	0,101	0,022
-71,724	-200,000	0,015	-0,056
-70,709	800,000	0,011	-0,026
-69,694	270,881	-0,069	0,088
-68,680	54,835	-0,076	-0,053
-67,665	-200,000	0,019	-0,076
-66,651	-24,260	-0,039	-0,017
-65,636	-88,122	-0,040	-0,008
-64,622	-132,006	-0,102	0,009
-63,607	-38,516	-0,135	-0,051
-62,592	800,000	-0,041	-0,100
-61,578	-60,508	0,054	0,016
-60,563	3,937	-0,127	0,067
-59,549	568,993	0,100	0,176
-58,534	-7,549	-2,062	-0,997
-57,519	-200,000	-0,206	-0,960
-56,505	-200,000	-1,273	-5,046
-55,490	59,121	0,865	0,610
-54,476	800,000	5,254	12,233
-53,461	-200,000	17,802	287,839
-52,446	800,000	728,973	2229,222
-51,432	537,647	1645,161	2815,740
-50,417	109,552	1635,628	1405,887
-49,403	75,486	1287,032	973,834
-48,388	31,752	1027,457	633,063
-47,373	20,089	989,195	571,041
-46,359	18,294	976,929	558,057
-45,344	15,292	973,001	545,972
-44,330	15,598	971,368	546,034
-43,315	15,138	969,355	543,381
-42,300	15,042	968,421	542,522
-41,286	14,975	967,552	541,796
-40,271	15,107	966,294	541,498
-39,257	14,999	965,624	540,751
-38,242	15,068	964,571	540,364
-37,227	15,089	963,685	539,912
-36,213	15,082	963,067	539,523
-35,198	15,032	962,092	538,795
-34,184	15,072	961,243	538,426
-33,169	15,035	960,337	537,776
-32,154	15,031	959,482	537,265
-31,140	15,060	958,553	536,817
-30,125	15,065	957,887	536,438
-29,111	15,113	956,946	536,043
-28,096	15,051	956,404	535,519
-27,082	15,080	955,796	535,250
-26,067	15,022	954,888	534,536
-25,052	15,034	954,183	534,157
-24,038	15,047	953,490	533,790
-23,023	15,019	952,803	533,296
-22,009	15,060	952,322	533,137
-20,994	15,053	951,654	532,720
-19,979	15,090	950,905	532,396
-18,965	15,051	950,232	531,873
-17,950	15,022	949,689	531,458
-16,936	15,018	948,982	531,026
-15,921	15,023	948,416	530,705
-14,906	14,954	947,546	529,978
-13,892	14,935	946,890	529,530
-12,877	14,974	946,201	529,248
-11,863	14,925	945,795	528,844
-10,848	14,943	945,207	528,549
-9,833	15,039	944,697	528,548
-8,819	15,075	943,815	528,150
-7,804	14,999	943,375	527,642
-6,790	14,972	942,857	527,243
-5,775	14,972	942,398	526,968
-4,760	14,971	941,646	526,524
-3,746	14,968	940,953	526,106
-2,731	14,813	940,307	525,234
-1,717	14,856	939,660	524,985
-0,702	14,859	938,981	524,596
0,313	14,636	938,448	524,385
1,327	17,885	936,124	533,266
2,342	26,986	792,662	475,608
3,356	23,654	457,979	269,685
4,371	-3,364	313,876	156,164
5,386	-7,225	295,638	143,179
6,400	-9,254	289,753	138,305
7,415	-9,638	287,082	136,641
8,429	-9,912	285,599	135,655
9,444	-10,119	284,761	135,044
10,459	-9,819	284,043	134,982
11,473	-9,974	283,545	134,583
12,488	-10,065	283,199	134,319
13,502	-10,118	282,574	133,960
14,517	-9,895	282,030	133,904
15,531	-10,102	281,501	133,442
16,546	-10,135	281,145	133,229
17,561	-10,062	280,752	133,102
18,575	-9,976	280,489	133,048
19,590	-10,186	280,132	132,665
20,604	-9,960	279,796	132,711
21,619	-10,043	279,428	132,445
22,634	-10,102	279,115	132,229
23,648	-10,176	278,871	132,031
24,663	-10,096	278,579	131,957
25,677	-10,056	278,235	131,820
26,692	-10,026	278,050	131,749
27,707	-10,191	277,829	131,476
28,721	-10,119	277,553	131,402
29,736	-10,162	277,231	131,197
30,750	-10,047	276,727	131,056
31,765	-10,086	276,656	130,974
32,780	-10,143	276,354	130,765
33,794	-10,283	276,060	130,483
34,809	-10,274	275,900	130,404
35,823	-10,386	275,598	130,144
36,838	-10,278	275,426	130,153
37,853	-10,201	275,211	130,111
38,867	-10,235	274,944	129,941
39,882	-10,358	274,615	129,660
40,896	-10,174	274,367	129,703
41,911	-10,288	274,203	129,507
42,926	-10,323	273,916	129,328
43,940	-10,173	273,745	129,376
44,955	-10,385	273,567	129,082
45,969	-10,464	273,326	128,883
46,984	-10,416	272,878	128,705
47,999	-10,591	272,763	128,476
49,013	-10,570	272,346	128,288
50,028	-10,744	272,277	128,083
51,042	-11,020	271,882	127,630
52,057	-11,011	271,698	127,541
53,071	-10,895	271,656	127,616
54,086	-10,712	271,266	127,591
55,101	-10,703	271,131	127,524
56,115	-10,468	270,959	127,649
57,130	-10,072	270,796	127,926
58,144	-9,835	270,604	128,043
59,159	-9,955	270,422	127,835
60,174	-9,993	270,188	127,678
61,188	-10,019	270,038	127,572
62,203	-9,933	269,719	127,488
63,217	-9,977	269,431	127,301
64,232	-10,113	269,343	127,123
65,247	-10,091	269,038	126,988
66,261	-9,943	268,793	126,996
67,276	-10,252	268,553	126,589
68,290	-10,332	268,265	126,369
69,305	-10,286	268,054	126,301
70,320	-10,335	267,941	126,191
71,334	-10,142	267,692	126,239
72,349	-9,975	267,486	126,282
73,363	-10,077	267,373	126,125
74,378	-10,009	267,024	126,011
75,393	-9,922	266,837	125,991
76,407	-10,064	266,722	125,796
77,422	-9,874	266,478	125,842
78,436	-10,113	266,175	125,471
79,451	-10,052	266,102	125,481
80,466	-10,162	265,733	125,196
81,480	-10,168	265,546	125,091
82,495	-10,232	265,320	124,916
83,509	-10,161	265,096	124,863
84,524	-10,203	264,865	124,705
85,539	-10,369	264,726	124,480
86,553	-10,396	264,446	124,313
87,568	-10,163	264,131	124,363
88,582	-9,904	264,016	124,530
89,597	-10,100	263,789	124,236
90,611	-10,149	263,834	124,203
91,626	-10,069	263,667	124,185
92,641	-10,124	263,422	124,008
93,655	-10,085	263,139	123,899
94,670	-10,189	262,963	123,712
95,684	-10,186	262,744	123,601
96,699	-10,077	262,357	123,505
97,714	-10,129	262,361	123,449
98,728	-10,345	262,207	123,173
99,743	-10,171	261,734	123,095
100,757	-10,485	261,586	122,736
101,772	-10,507	261,633	122,727
102,787	-10,328	261,375	122,754
103,801	-10,125	261,070	122,780
104,816	-10,053	261,004	122,801
105,830	-10,017	260,790	122,722
106,845	-10,044	260,581	122,589
107,860	-10,124	260,408	122,425
108,874	-10,069	260,151	122,342
109,889	-9,896	259,957	122,393
110,903	-10,235	259,827	122,022
111,918	-10,060	259,521	122,022
112,933	-10,058	259,499	122,002
113,947	-10,001	259,158	121,881
114,962	-10,059	259,024	121,756
115,976	-10,128	258,759	121,560
116,991	-9,992	258,609	121,598
118,006	-10,106	258,418	121,397
119,020	-9,922	258,314	121,498
120,035	-10,023	258,182	121,337
121,049	-10,166	258,095	121,161
122,064	-9,862	257,709	121,234
123,079	-9,908	257,477	121,074
124,093	-10,080	257,262	120,812
125,108	-10,244	257,101	120,583
126,122	-10,401	256,793	120,292
127,137	-10,538	256,537	120,042
128,151	-10,491	256,501	120,054
129,166	-10,228	256,367	120,210
130,181	-10,181	256,080	120,105
131,195	-10,329	255,876	119,871
132,210	-10,113	255,714	119,971
133,224	-9,842	255,559	120,122
134,239	-9,897	255,309	119,946
135,254	-10,032	255,250	119,792
136,268	-10,196	255,091	119,564
137,283	-10,261	254,791	119,357
138,297	-10,401	254,372	119,030
139,312	-10,281	254,282	119,080
140,327	-10,121	254,185	119,162
141,341	-9,791	253,990	119,343
142,356	-9,669	253,882	119,387
143,370	-9,902	253,745	119,111
144,385	-9,831	253,473	119,034
145,400	-9,735	253,324	119,036
146,414	-9,744	252,986	118,859
147,429	-9,794	253,068	118,844
148,443	-9,970	252,878	118,594
149,458	-10,022	252,725	118,466
150,473	-9,913	252,598	118,490
151,487	-10,142	252,441	118,210
152,502	-9,861	252,066	118,263
153,516	-9,879	251,952	118,184
154,531	-9,833	251,706	118,097
155,546	-9,842	251,576	118,018
156,560	-9,751	251,334	117,971
157,575	-10,003	251,188	117,678
158,589	-9,981	251,084	117,638
159,604	-9,893	250,981	117,654
160,619	-9,636	250,595	117,680
161,633	-9,816	250,291	117,374
162,648	-9,964	250,404	117,292
163,662	-9,847	250,177	117,274
164,677	-9,918	250,010	117,125
165,692	-9,805	249,803	117,113
166,706	-9,915	249,710	116,966
167,721	-9,829	249,560	116,958
168,735	-9,937	249,307	116,738
169,750	-9,772	249,225	116,828
170,764	-9,828	249,145	116,733
171,779	-9,768	248,967	116,689
172,794	-9,700	248,792	116,654
173,808	-9,779	248,422	116,404
174,823	-10,006	248,252	116,124
175,837	-10,364	247,959	115,677
176,852	-9,964	248,010	116,026
177,867	-9,790	247,921	116,119
178,881	-9,813	247,703	115,987
179,896	-9,810	247,578	115,921
180,910	-9,581	247,253	115,949
181,925	-9,843	247,159	115,676
182,940	-9,718	247,043	115,716
183,954	-9,871	246,959	115,539
184,969	-9,819	246,715	115,457
185,983	-9,762	246,459	115,375
186,998	-9,789	246,294	115,265
188,013	-9,822	246,226	115,195
189,027	-9,752	246,040	115,156
190,042	-9,818	245,889	115,021
191,056	-9,704	245,717	115,024
192,071	-9,684	245,479	114,919
193,086	-9,678	245,279	114,820
194,100	-9,734	245,071	114,666
195,115	-9,747	245,105	114,662
196,129	-9,668	244,809	114,578
197,144	-9,754	244,539	114,370
198,159	-9,733	244,456	114,338
199,173	-9,742	244,295	114,246
200,188	-9,658	244,047	114,188
201,202	-10,164	243,777	113,637
202,217	-10,102	243,543	113,569
203,232	-10,273	243,404	113,354
204,246	-9,929	243,284	113,569
205,261	-9,286	243,157	114,025
206,275	-9,911	243,238	113,542
207,290	-4,984	244,962	118,391
208,304	1,628	246,903	124,784
209,319	3,665	247,551	126,784
210,334	4,026	247,425	127,006
211,348	4,218	247,301	127,090
212,363	4,448	247,051	127,139
213,377	4,260	246,999	126,947
214,392	4,427	246,765	126,952
215,407	4,231	246,537	126,662
216,421	4,347	246,425	126,689
217,436	4,516	246,349	126,777
218,450	4,342	246,174	126,533
219,465	4,148	245,880	126,212
220,480	3,933	245,766	125,966
221,494	3,853	245,652	125,831
222,509	4,004	245,423	125,826
223,523	3,849	245,205	125,576
224,538	3,720	244,952	125,330
225,553	3,933	244,762	125,395
226,567	3,732	244,562	125,118
227,582	4,008	244,548	125,324
228,596	3,952	244,454	125,219
229,611	3,699	244,123	124,833
230,626	3,652	244,074	124,759
231,640	3,782	243,766	124,696
232,655	4,068	243,624	124,844
233,669	3,785	243,599	124,591
234,684	3,570	243,441	124,324
235,699	3,794	243,138	124,339
236,713	4,132	243,093	124,579
237,728	3,609	243,120	124,159
238,742	3,849	242,634	124,093
239,757	3,685	242,506	123,884
240,772	3,655	242,549	123,871
241,786	3,927	242,371	123,989
242,801	3,505	242,125	123,511
243,815	3,656	242,019	123,568
244,830	3,887	241,856	123,660
245,844	3,855	241,771	123,579
246,859	3,819	241,424	123,362
247,874	3,770	241,504	123,352
248,888	3,977	241,131	123,317
249,903	3,989	241,116	123,308
250,917	3,902	241,113	123,226
251,932	3,897	240,884	123,094
252,947	4,022	240,623	123,049
253,961	3,938	240,343	122,828
254,976	3,699	240,347	122,629
255,990	3,525	240,235	122,421
257,005	3,589	239,958	122,320
258,020	3,736	239,769	122,330
259,034	3,755	239,576	122,236
260,049	3,712	239,482	122,143
261,063	3,809	239,230	122,080
262,078	3,832	239,108	122,025
263,093	3,829	239,237	122,078
264,107	3,733	239,007	121,874
265,122	3,788	238,669	121,734
266,136	3,789	238,640	121,710
267,151	3,928	238,479	121,726
268,166	3,724	238,342	121,485
269,180	3,929	238,052	121,487
270,195	4,272	238,108	121,776
271,209	4,068	238,000	121,549
272,224	3,740	237,693	121,123
273,239	3,551	237,448	120,838
274,253	3,801	237,311	120,954
275,268	4,059	237,234	121,108
276,282	3,868	237,057	120,856
277,297	3,840	236,823	120,704
278,312	3,684	236,920	120,620
279,326	3,888	236,737	120,676
280,341	3,774	236,401	120,405
281,355	3,905	236,210	120,399
282,370	3,720	236,253	120,265
283,384	3,815	236,016	120,209
284,399	3,618	235,763	119,915
285,414	3,622	235,621	119,836
286,428	3,931	235,491	120,000
287,443	3,777	235,352	119,798
288,457	3,838	235,387	119,853
289,472	4,004	235,134	119,842
290,487	3,560	234,961	119,398
291,501	3,584	234,688	119,267
292,516	3,440	234,654	119,127
293,530	3,607	234,594	119,216
294,545	3,863	234,323	119,267
295,560	4,021	234,263	119,348
296,574	3,613	234,246	119,012
297,589	3,765	234,026	119,008
298,603	4,151	233,822	119,192
299,618	3,947	233,758	118,991
300,633	4,002	233,587	118,936
301,647	4,192	233,422	118,988
302,662	4,230	233,390	118,990
303,676	4,200	233,125	118,821
304,691	3,893	233,042	118,532
305,706	4,176	232,823	118,628
306,720	3,900	232,726	118,355
307,735	3,860	232,489	118,193
308,749	3,973	232,321	118,185
309,764	3,831	232,158	117,982
310,779	3,468	232,019	117,622
311,793	3,548	231,848	117,587
312,808	3,619	231,582	117,496
313,822	3,703	231,488	117,502
314,837	3,571	231,378	117,334
315,852	3,716	231,276	117,383
316,866	3,938	231,098	117,452
317,881	3,846	230,988	117,315
318,895	3,964	230,762	117,279
319,910	4,002	230,715	117,275
320,925	3,817	230,432	116,979
321,939	4,089	230,524	117,223
322,954	4,052	230,441	117,142
323,968	3,870	230,252	116,897
324,983	3,791	229,983	116,690
325,997	4,061	229,762	116,772
327,012	3,752	229,671	116,481
328,027	4,265	229,488	116,767
329,041	4,235	229,580	116,780
330,056	4,436	229,467	116,864
331,070	4,596	229,146	116,812
332,085	4,028	229,054	116,325
333,100	3,846	228,862	116,079
334,114	3,897	228,678	116,015
335,129	4,045	228,624	116,089
336,143	4,322	228,478	116,213
337,158	4,228	228,203	115,992
338,173	3,793	228,236	115,670
339,187	4,136	227,872	115,733
340,202	4,170	227,827	115,727
341,216	3,879	227,758	115,462
342,231	4,054	227,524	115,465
343,246	3,965	227,405	115,327
344,260	4,072	227,334	115,361
345,275	4,222	227,260	115,426
346,289	4,034	226,943	115,114
347,304	4,164	226,804	115,130
348,319	4,312	226,575	115,114
349,333	3,886	226,523	114,759
350,348	3,850	226,399	114,660
351,362	3,825	226,192	114,526
352,377	3,389	226,096	114,142
353,392	3,436	225,823	114,029
354,406	3,444	225,662	113,944
355,421	195,830	1322,580	1400,068
356,435	156,968	1456,211	1400,058
