DTS Sentinel unit serial number:	SN410029Multiplexer serial number:	ORYXHardware model number:	OX2-SRSoftware version number:	ORYX F/W v4,00 Oryx Data Collector v3.7.2.0data status	okinstallation	B5 Nyhavnadifferential loss correction	single-endedforward channel	channel 2reverse channel	N/Adate	2023/12/13time	21:57:13forward acquisition time	300,00reverse acquisition time	0,00gamma	499,1914k internal	0,3155k external	0,3155temperature offset calibration	1,0000default loss term (dB/km)	0,3820temperature slope calibration	1,0000multiplexer offset coefficient	1,0000multiplexer slope coefficient	1,0000fibre end	0,00T internal ref (°C)	9,67T ext. ref 1 (°C)	-7,05T ext. ref 2 (°C)	-7,08length (m)	temperature (°C)	Stokes	anti-Stokes-744,400	800,000	0,046	-0,097
-743,385	-130,125	-0,466	-0,046
-742,371	-74,939	0,266	0,070
-741,356	-184,225	-0,332	-0,004
-740,342	-26,595	0,078	0,034
-739,327	-101,463	-0,388	-0,069
-738,312	-182,491	0,137	0,002
-737,298	-47,447	-0,259	-0,092
-736,283	203,785	0,121	0,138
-735,269	19,231	-0,285	-0,168
-734,254	253,340	0,089	0,113
-733,239	-68,067	-0,499	-0,143
-732,225	-68,052	0,267	0,076
-731,210	-162,095	0,082	-0,003
-730,196	800,000	-0,023	-0,051
-729,181	-200,000	-0,002	0,110
-728,167	-94,306	0,067	0,013
-727,152	-200,000	0,018	0,086
-726,137	800,000	0,020	-0,058
-725,123	61,825	-0,109	-0,080
-724,108	72,942	-0,090	-0,070
-723,094	-12,706	0,172	-0,082
-722,079	48,580	-0,176	-0,121
-721,064	-200,000	0,030	-0,131
-720,050	697,404	-0,042	-0,082
-719,035	49,452	-0,070	-0,048
-718,021	-200,000	0,016	-0,121
-717,006	259,844	-0,039	-0,050
-715,991	392,722	-0,106	-0,162
-714,977	-200,000	0,020	0,118
-713,962	-127,760	-0,128	-0,013
-712,948	205,879	0,131	0,151
-711,933	-200,000	-0,001	0,067
-710,918	-45,520	0,025	-0,009
-709,904	800,000	0,035	0,100
-708,889	-55,477	-0,109	-0,036
-707,875	411,386	-0,058	-0,091
-706,860	1,775	0,033	-0,017
-705,845	-71,402	0,146	-0,040
-704,831	-200,000	0,010	0,097
-703,816	-58,143	-0,138	0,044
-702,802	-70,766	-0,040	0,011
-701,787	800,000	-0,066	-0,149
-700,772	-200,000	0,006	-0,074
-699,758	53,510	-0,170	0,120
-698,743	-3,899	0,066	0,034
-697,729	69,499	-0,011	0,009
-696,714	-67,002	-0,100	0,029
-695,699	-7,812	-0,009	-0,004
-694,685	760,152	0,102	-0,205
-693,670	-22,271	-0,162	0,072
-692,656	51,934	0,096	-0,068
-691,641	800,000	0,030	-0,064
-690,627	328,803	-0,022	0,031
-689,612	-200,000	-0,015	0,094
-688,597	129,190	0,012	-0,012
-687,583	-200,000	-0,013	-0,138
-686,568	-54,992	-0,070	-0,023
-685,554	409,056	-0,083	-0,130
-684,539	-200,000	-0,019	0,083
-683,524	-123,679	-0,034	0,004
-682,510	-46,254	0,028	0,010
-681,495	429,378	0,043	-0,069
-680,481	2,967	-0,030	0,016
-679,466	-96,978	-0,129	-0,025
-678,451	-200,000	0,026	0,097
-677,437	135,324	0,040	-0,038
-676,422	-50,305	-0,189	-0,065
-675,408	-160,544	-0,025	0,001
-674,393	-200,000	-0,019	0,066
-673,378	800,000	0,020	0,059
-672,364	-167,137	-0,112	0,003
-671,349	-200,000	-0,019	-0,133
-670,335	255,251	0,042	-0,052
-669,320	124,528	0,064	-0,059
-668,305	216,484	-0,096	0,112
-667,291	-200,000	-0,013	0,178
-666,276	-200,000	-0,001	-0,098
-665,262	112,955	-0,081	-0,072
-664,247	500,451	-0,044	-0,074
-663,232	253,946	0,035	-0,045
-662,218	800,000	-0,022	0,060
-661,203	800,000	-0,021	-0,066
-660,189	588,903	0,048	-0,087
-659,174	-200,000	-0,022	-0,077
-658,159	-99,299	-0,108	0,020
-657,145	526,692	0,060	-0,104
-656,130	482,580	0,059	-0,100
-655,116	527,654	0,082	-0,143
-654,101	68,307	0,147	-0,111
-653,086	-90,631	0,113	-0,024
-652,072	18,457	-0,020	0,011
-651,057	-91,071	-0,234	-0,049
-650,043	10,552	0,068	-0,038
-649,028	-200,000	0,008	-0,087
-648,014	800,000	0,031	0,077
-646,999	293,087	-0,041	0,055
-645,984	-126,829	-0,157	0,017
-644,970	-200,000	-0,001	-0,114
-643,955	50,460	-0,046	-0,032
-642,941	-200,000	0,005	-0,064
-641,926	128,115	-0,102	-0,095
-640,911	-124,032	-0,054	0,006
-639,897	800,000	-0,031	0,063
-638,882	800,000	0,026	-0,063
-637,868	239,124	0,028	-0,035
-636,853	-108,861	-0,109	-0,017
-635,838	-48,829	-0,111	-0,039
-634,824	447,178	0,008	0,013
-633,809	-173,445	-0,102	-0,002
-632,795	-146,170	-0,121	-0,008
-631,780	211,231	0,044	-0,051
-630,765	168,859	-0,086	0,090
-629,751	237,880	0,048	0,059
-628,736	307,798	-0,108	-0,148
-627,722	147,173	-0,099	-0,098
-626,707	249,323	-0,021	0,026
-625,692	51,272	0,053	0,037
-624,678	-26,582	-0,063	0,027
-623,663	-200,000	-0,016	-0,094
-622,649	-62,672	-0,145	0,044
-621,634	595,754	-0,049	-0,089
-620,619	-37,230	0,082	-0,032
-619,605	-41,594	0,063	-0,023
-618,590	-200,000	-0,026	-0,127
-617,576	-84,531	-0,066	-0,015
-616,561	-71,218	0,193	0,053
-615,546	213,487	-0,117	-0,136
-614,532	69,008	0,080	-0,060
-613,517	-93,900	-0,049	-0,010
-612,503	-127,754	0,017	0,002
-611,488	20,133	-0,038	-0,022
-610,474	41,536	-0,085	-0,056
-609,459	85,585	-0,056	0,045
-608,444	-21,802	-0,078	-0,035
-607,430	412,801	-0,075	-0,117
-606,415	0,077	-0,181	0,094
-605,401	-49,191	0,025	0,009
-604,386	-200,000	0,025	-0,121
-603,371	-200,000	0,007	-0,029
-602,357	68,948	-0,115	0,086
-601,342	-130,699	-0,129	-0,013
-600,328	-132,201	0,071	0,007
-599,313	151,638	0,043	-0,043
-598,298	-131,058	-0,127	0,012
-597,284	-73,643	-0,011	0,003
-596,269	-124,739	-0,137	0,015
-595,255	464,977	0,018	0,030
-594,240	800,000	0,050	-0,144
-593,225	800,000	-0,040	-0,084
-592,211	800,000	0,053	-0,140
-591,196	800,000	-0,015	0,039
-590,182	97,270	0,036	0,030
-589,167	9,677	0,013	0,007
-588,152	39,408	-0,130	0,085
-587,138	170,675	0,046	0,048
-586,123	-11,746	0,086	0,041
-585,109	-142,174	-0,138	-0,010
-584,094	482,801	-0,041	-0,069
-583,079	-124,623	0,017	-0,002
-582,065	-144,172	-0,037	-0,003
-581,050	-126,213	-0,088	-0,010
-580,036	65,553	0,058	-0,043
-579,021	769,871	0,013	-0,027
-578,006	800,000	-0,024	-0,067
-576,992	800,000	-0,049	-0,121
-575,977	-200,000	0,024	0,143
-574,963	-79,738	-0,072	-0,018
-573,948	-200,000	-0,036	0,168
-572,934	-200,000	0,003	0,058
-571,919	-62,205	-0,090	0,027
-570,904	-49,905	0,044	-0,015
-569,890	504,529	0,084	-0,142
-568,875	110,630	0,098	-0,086
-567,861	223,751	-0,118	0,140
-566,846	64,926	-0,032	0,024
-565,831	-57,188	-0,090	-0,029
-564,817	-8,863	0,088	-0,043
-563,802	-200,000	0,020	-0,226
-562,788	-79,806	-0,086	0,021
-561,773	-169,955	0,098	-0,003
-560,758	-200,000	0,014	0,173
-559,744	779,819	0,103	0,207
-558,729	-35,324	0,060	0,024
-557,715	156,425	0,065	-0,066
-556,700	-200,000	0,011	-0,047
-555,685	114,819	-0,047	0,042
-554,671	-177,053	0,057	0,001
-553,656	800,000	0,037	0,085
-552,642	-21,444	0,041	0,018
-551,627	-34,113	0,063	-0,025
-550,612	-109,934	0,106	-0,016
-549,598	-75,106	-0,042	-0,011
-548,583	-200,000	0,014	0,085
-547,569	-200,000	0,009	-0,085
-546,554	-25,552	0,115	-0,049
-545,539	-200,000	0,018	0,085
-544,525	-200,000	-0,023	0,086
-543,510	800,000	0,034	-0,107
-542,496	-200,000	-0,019	0,079
-541,481	531,204	0,009	0,017
-540,466	-200,000	-0,003	0,056
-539,452	271,649	-0,104	-0,134
-538,437	183,026	0,045	0,048
-537,423	50,980	-0,090	-0,062
-536,408	-77,507	0,081	-0,020
-535,393	-97,445	-0,062	0,012
-534,379	-57,228	-0,127	0,041
-533,364	-200,000	0,001	0,028
-532,350	-28,900	0,065	0,027
-531,335	800,000	0,057	0,119
-530,321	98,531	-0,074	0,062
-529,306	489,739	0,036	0,061
-528,291	432,634	-0,014	-0,023
-527,277	86,424	0,064	-0,052
-526,262	-200,000	0,010	-0,067
-525,248	-95,787	0,070	0,014
-524,233	-200,000	-0,002	0,084
-523,218	800,000	-0,026	0,065
-522,204	-200,000	-0,003	-0,067
-521,189	-200,000	-0,027	0,100
-520,175	-108,606	-0,104	0,016
-519,160	8,147	0,014	-0,008
-518,145	-200,000	0,007	0,113
-517,131	47,425	-0,040	-0,027
-516,116	261,028	-0,047	-0,060
-515,102	-200,000	0,025	-0,126
-514,087	498,534	-0,033	0,056
-513,072	-40,880	-0,071	0,027
-512,058	208,305	-0,026	-0,030
-511,043	722,134	0,060	-0,117
-510,029	152,383	0,087	-0,087
-509,014	-128,050	0,153	0,016
-507,999	800,000	-0,073	0,156
-506,985	-200,000	0,006	-0,052
-505,970	413,839	0,095	0,148
-504,956	274,447	0,030	-0,039
-503,941	-62,780	0,044	-0,013
-502,926	211,648	0,093	0,108
-501,912	800,000	0,023	0,053
-500,897	800,000	0,060	0,151
-499,883	-200,000	0,013	0,065
-498,868	-40,071	0,110	0,042
-497,853	228,131	0,136	-0,162
-496,839	135,571	-0,051	-0,048
-495,824	-42,258	0,041	0,015
-494,810	-200,000	-0,033	0,204
-493,795	-72,286	0,104	0,028
-492,781	772,852	-0,040	0,081
-491,766	-105,977	-0,020	-0,003
-490,751	-200,000	0,016	-0,058
-489,737	243,664	-0,070	0,086
-488,722	690,277	0,014	0,027
-487,708	800,000	-0,095	0,241
-486,693	800,000	0,040	-0,083
-485,678	800,000	0,023	0,067
-484,664	21,646	-0,222	-0,132
-483,649	349,762	0,050	0,072
-482,635	-164,742	0,060	0,002
-481,620	104,823	-0,096	0,083
-480,605	800,000	0,015	0,035
-479,591	141,774	-0,031	0,030
-478,576	-200,000	0,039	0,126
-477,562	137,388	-0,051	-0,049
-476,547	-10,059	0,040	0,019
-475,532	-131,677	0,082	-0,008
-474,518	-103,493	-0,053	0,009
-473,503	99,076	-0,043	-0,036
-472,489	446,011	-0,050	0,080
-471,474	800,000	0,023	-0,047
-470,459	768,958	0,056	-0,112
-469,445	111,147	-0,060	-0,053
-468,430	-27,754	-0,154	0,065
-467,416	-200,000	0,001	0,023
-466,401	800,000	-0,020	-0,062
-465,386	75,040	-0,014	-0,011
-464,372	800,000	0,040	0,086
-463,357	144,588	-0,128	-0,125
-462,343	-90,243	-0,098	-0,021
-461,328	-200,000	0,005	-0,103
-460,313	800,000	-0,010	0,026
-459,299	-200,000	0,014	0,139
-458,284	800,000	-0,021	-0,055
-457,270	800,000	-0,043	0,127
-456,255	105,058	-0,054	0,046
-455,241	372,560	-0,054	0,080
-454,226	-200,000	0,035	-0,127
-453,211	-200,000	0,041	-0,205
-452,197	-10,138	0,071	-0,034
-451,182	-200,000	-0,010	0,129
-450,168	-13,292	-0,054	0,026
-449,153	-28,802	-0,071	0,030
-448,138	-55,993	-0,149	-0,048
-447,124	108,549	-0,087	-0,076
-446,109	329,276	-0,036	-0,051
-445,095	-99,597	0,171	-0,031
-444,080	121,756	0,059	0,053
-443,065	-112,308	-0,041	-0,006
-442,051	92,441	-0,095	0,078
-441,036	283,017	-0,048	0,063
-440,022	-60,084	0,038	0,012
-439,007	-151,123	-0,035	0,002
-437,992	379,845	0,027	-0,040
-436,978	-40,008	0,085	0,032
-435,963	137,074	0,104	-0,099
-434,949	-200,000	0,001	-0,068
-433,934	-200,000	-0,007	-0,026
-432,919	-116,797	-0,054	0,007
-431,905	-80,104	-0,059	-0,014
-430,890	-61,992	0,138	0,042
-429,876	-61,370	-0,015	-0,004
-428,861	-7,814	-0,036	-0,018
-427,846	84,145	0,058	-0,046
-426,832	-200,000	-0,002	-0,136
-425,817	800,000	-0,036	-0,077
-424,803	-200,000	0,003	-0,142
-423,788	212,999	-0,027	-0,031
-422,773	760,531	-0,026	-0,052
-421,759	68,160	0,134	0,100
-420,744	-134,854	-0,066	0,006
-419,730	-66,035	-0,106	0,031
-418,715	-139,311	0,121	-0,009
-417,701	86,906	-0,089	0,071
-416,686	12,429	-0,018	0,010
-415,671	227,250	0,118	0,140
-414,657	-200,000	0,010	0,098
-413,642	-200,000	-0,010	0,039
-412,628	-39,174	0,030	0,011
-411,613	-138,651	-0,059	-0,005
-410,598	-200,000	-0,027	0,093
-409,584	-69,501	-0,139	0,039
-408,569	170,534	-0,098	0,102
-407,555	7,479	0,081	-0,044
-406,540	196,832	-0,068	0,075
-405,525	-49,112	-0,114	0,040
-404,511	-12,141	-0,120	0,057
-403,496	-106,540	0,033	0,005
-402,482	-173,749	-0,176	-0,004
-401,467	12,299	0,015	-0,008
-400,452	61,697	-0,091	0,066
-399,438	25,403	-0,053	-0,032
-398,423	205,481	-0,032	-0,036
-397,409	16,322	-0,028	-0,016
-396,394	800,000	-0,045	-0,133
-395,379	-200,000	-0,023	-0,084
-394,365	122,465	0,016	0,014
-393,350	-35,412	0,087	0,034
-392,336	-200,000	-0,021	-0,070
-391,321	800,000	-0,038	0,122
-390,306	553,869	0,035	-0,061
-389,292	-174,140	-0,209	-0,004
-388,277	-139,292	-0,143	0,011
-387,263	-46,988	0,160	-0,057
-386,248	-200,000	0,007	0,092
-385,233	22,602	-0,077	0,046
-384,219	72,257	0,159	0,120
-383,204	800,000	-0,065	-0,154
-382,190	-10,105	0,048	-0,023
-381,175	-200,000	0,004	-0,019
-380,160	217,969	0,096	-0,111
-379,146	-200,000	0,027	0,246
-378,131	33,902	0,053	-0,034
-377,117	179,148	-0,037	-0,039
-376,102	-200,000	0,046	-0,160
-375,088	69,884	-0,024	-0,018
-374,073	-151,125	0,055	-0,003
-373,058	800,000	0,026	0,072
-372,044	357,251	-0,031	0,045
-371,029	800,000	-0,037	0,086
-370,015	0,990	-0,040	-0,021
-369,000	72,794	0,076	-0,058
-367,985	154,874	0,078	-0,078
-366,971	198,636	0,029	0,032
-365,956	-17,355	0,027	-0,012
-364,942	-129,292	0,135	-0,014
-363,927	-70,459	0,108	0,030
-362,912	800,000	-0,056	0,125
-361,898	30,313	-0,024	0,015
-360,883	489,546	0,043	-0,072
-359,869	-16,618	0,077	-0,035
-358,854	-200,000	0,002	-0,065
-357,839	122,300	0,045	-0,040
-356,825	800,000	-0,014	0,045
-355,810	59,868	-0,118	0,084
-354,796	352,530	0,067	0,097
-353,781	-200,000	-0,013	-0,095
-352,766	-193,056	-0,157	-0,001
-351,752	544,193	-0,030	-0,052
-350,737	-116,937	0,144	0,019
-349,723	-51,709	-0,082	0,028
-348,708	474,919	-0,001	0,002
-347,693	312,950	0,079	-0,108
-346,679	-12,295	-0,066	-0,031
-345,664	-59,495	0,182	0,056
-344,650	800,000	0,013	-0,025
-343,635	-45,935	0,084	0,030
-342,620	251,177	0,028	0,034
-341,606	-200,000	0,008	0,066
-340,591	800,000	-0,037	0,080
-339,577	-186,866	-0,081	0,001
-338,562	800,000	0,016	-0,050
-337,548	287,001	-0,060	0,079
-336,533	-131,365	0,160	0,015
-335,518	-200,000	-0,016	-0,084
-334,504	20,243	0,115	-0,067
-333,489	800,000	-0,042	0,107
-332,475	-73,109	-0,068	0,018
-331,460	324,713	-0,087	0,121
-330,445	66,410	-0,171	0,126
-329,431	-118,841	0,125	0,016
-328,416	800,000	-0,054	0,135
-327,402	184,818	-0,024	-0,025
-326,387	-90,970	-0,066	0,014
-325,372	-200,000	-0,033	-0,112
-324,358	-167,014	-0,175	-0,005
-323,343	-29,522	-0,051	0,021
-322,329	309,273	0,076	0,104
-321,314	-141,475	0,047	0,003
-320,299	491,968	-0,036	0,060
-319,285	34,491	0,049	0,031
-318,270	648,521	-0,069	-0,129
-317,256	329,019	0,033	-0,046
-316,241	-10,638	-0,016	0,008
-315,226	793,323	-0,041	-0,082
-314,212	277,561	-0,006	0,008
-313,197	374,130	0,054	0,080
-312,183	-189,823	0,056	-0,000
-311,168	-33,722	0,135	-0,054
-310,153	-200,000	0,013	-0,170
-309,139	-200,000	0,004	0,111
-308,124	-56,186	-0,056	0,018
-307,110	800,000	-0,033	-0,080
-306,095	-102,215	-0,057	0,010
-305,080	-200,000	0,044	0,213
-304,066	405,528	0,074	0,114
-303,051	96,154	0,130	-0,108
-302,037	-200,000	0,006	0,024
-301,022	800,000	0,018	-0,050
-300,008	-98,046	0,143	0,026
-298,993	-200,000	0,006	0,040
-297,978	63,366	0,209	-0,152
-296,964	302,231	-0,055	-0,075
-295,949	97,065	0,097	-0,081
-294,935	189,363	-0,036	-0,039
-293,920	-25,204	-0,030	-0,013
-292,905	348,207	0,052	-0,075
-291,891	-200,000	0,008	0,041
-290,876	22,485	-0,088	0,052
-289,862	30,483	0,109	-0,068
-288,847	276,599	-0,070	0,091
-287,832	-28,662	-0,134	-0,056
-286,818	-200,000	0,017	0,059
-285,803	19,281	0,080	-0,046
-284,789	800,000	-0,040	0,124
-283,774	203,412	-0,085	0,096
-282,759	-200,000	0,008	-0,039
-281,745	489,555	0,071	-0,118
-280,730	121,626	0,076	-0,069
-279,716	131,526	0,065	-0,060
-278,701	-200,000	0,014	-0,089
-277,686	17,513	0,100	0,057
-276,672	215,249	0,053	0,061
-275,657	279,079	-0,111	-0,144
-274,643	-200,000	0,002	-0,120
-273,628	114,816	0,069	0,061
-272,613	-85,449	0,120	-0,027
-271,599	239,609	-0,038	-0,046
-270,584	-200,000	-0,012	0,051
-269,570	315,932	0,054	0,074
-268,555	-200,000	0,001	0,008
-267,540	-81,711	-0,164	-0,039
-266,526	-200,000	0,010	0,081
-265,511	800,000	-0,025	0,074
-264,497	114,109	0,045	0,040
-263,482	-155,920	0,146	-0,007
-262,467	770,238	0,054	-0,108
-261,453	-200,000	0,000	-0,001
-260,438	519,540	0,050	0,086
-259,424	-43,226	0,188	-0,069
-258,409	-106,598	-0,163	0,026
-257,395	-200,000	0,010	-0,221
-256,380	246,190	0,144	-0,176
-255,365	-13,205	0,083	-0,039
-254,351	800,000	-0,039	0,083
-253,336	704,136	-0,037	0,071
-252,322	410,451	-0,063	-0,097
-251,307	-200,000	0,009	-0,116
-250,292	-200,000	0,000	-0,034
-249,278	366,136	-0,072	0,106
-248,263	-200,000	0,011	0,043
-247,249	-200,000	0,003	0,126
-246,234	507,035	-0,038	0,063
-245,219	571,488	0,089	-0,157
-244,205	-200,000	-0,037	-0,181
-243,190	-200,000	0,007	-0,035
-242,176	-200,000	0,002	-0,021
-241,161	3,622	0,151	-0,080
-240,146	800,000	-0,036	0,080
-239,132	-83,467	-0,129	-0,030
-238,117	333,898	0,048	0,068
-237,103	488,433	0,036	0,060
-236,088	-79,010	0,077	0,019
-235,073	800,000	0,058	0,154
-234,059	-38,509	-0,055	0,021
-233,044	268,880	0,033	0,042
-232,030	-200,000	0,011	0,114
-231,015	-84,741	-0,015	0,003
-230,000	-112,986	-0,018	0,003
-228,986	-200,000	0,000	0,046
-227,971	0,328	0,043	-0,022
-226,957	33,035	0,071	0,044
-225,942	-35,255	-0,073	-0,029
-224,927	364,362	0,059	-0,086
-223,913	69,472	-0,045	-0,033
-222,898	-59,151	0,053	-0,016
-221,884	-142,219	0,063	0,004
-220,869	800,000	0,030	0,095
-219,855	-200,000	0,015	0,126
-218,840	-48,098	0,037	-0,013
-217,825	-111,845	0,015	-0,002
-216,811	-62,067	-0,074	0,022
-215,796	-42,217	0,096	-0,035
-214,782	-158,432	-0,091	0,004
-213,767	-87,443	0,158	0,034
-212,752	-64,949	-0,090	-0,026
-211,738	800,000	0,046	-0,095
-210,723	136,393	0,099	0,093
-209,709	-200,000	-0,000	-0,078
-208,694	214,883	-0,111	-0,127
-207,679	-23,154	0,103	-0,045
-206,665	-113,593	0,170	0,024
-205,650	156,019	0,036	0,035
-204,636	-200,000	-0,018	-0,077
-203,621	800,000	-0,065	-0,142
-202,606	-102,796	0,065	0,011
-201,592	-136,717	-0,043	0,004
-200,577	-74,064	0,067	-0,018
-199,563	167,542	0,153	0,157
-198,548	248,510	0,096	0,118
-197,533	-37,989	0,043	-0,016
-196,519	-154,220	-0,056	0,003
-195,504	217,049	0,037	0,043
-194,490	-176,677	0,113	0,002
-193,475	-76,993	0,027	0,007
-192,460	572,191	-0,039	-0,069
-191,446	-67,200	0,127	0,036
-190,431	7,248	0,077	-0,041
-189,417	800,000	0,010	-0,027
-188,402	800,000	-0,013	-0,028
-187,387	271,491	-0,064	-0,082
-186,373	-200,000	0,005	-0,027
-185,358	299,095	-0,041	0,055
-184,344	756,175	0,046	-0,089
-183,329	-146,435	0,037	0,002
-182,315	-8,937	-0,099	0,048
-181,300	-1,135	-0,058	0,029
-180,285	21,642	-0,109	0,064
-179,271	72,840	-0,086	-0,065
-178,256	-24,473	0,025	-0,011
-177,242	800,000	-0,027	-0,055
-176,227	-110,844	-0,011	-0,002
-175,212	-15,318	0,014	-0,006
-174,198	624,463	-0,011	-0,019
-173,183	-83,750	-0,084	-0,019
-172,169	-200,000	-0,028	-0,118
-171,154	98,940	0,025	0,020
-170,139	485,000	0,017	0,028
-169,125	-200,000	0,004	0,093
-168,110	800,000	0,043	0,114
-167,096	-124,260	-0,126	-0,014
-166,081	-200,000	-0,013	0,044
-165,066	-185,388	-0,136	-0,001
-164,052	24,045	-0,087	0,052
-163,037	-45,470	0,142	0,051
-162,023	-37,812	0,068	-0,026
-161,008	-48,191	0,122	0,042
-159,993	115,694	0,050	0,044
-158,979	-200,000	0,017	-0,055
-157,964	-200,000	-0,013	-0,054
-156,950	391,344	-0,057	-0,086
-155,935	-115,445	0,121	-0,016
-154,920	3,646	0,116	-0,061
-153,906	-200,000	0,052	0,166
-152,891	116,901	0,062	-0,055
-151,877	203,311	-0,111	0,124
-150,862	-200,000	-0,003	0,035
-149,847	-200,000	-0,031	0,126
-148,833	-65,659	0,036	-0,010
-147,818	205,524	0,038	0,043
-146,804	303,625	0,073	0,098
-145,789	-37,335	-0,013	-0,005
-144,775	514,281	0,094	-0,158
-143,760	511,051	0,029	-0,048
-142,745	329,808	-0,030	-0,042
-141,731	98,970	0,082	-0,068
-140,716	268,911	-0,032	-0,041
-139,702	90,374	-0,090	0,072
-138,687	-13,321	-0,095	0,044
-137,672	457,596	0,064	0,103
-136,658	516,243	-0,034	-0,058
-135,643	138,438	-0,108	-0,102
-134,629	800,000	-0,038	-0,086
-133,614	-1,133	0,103	0,052
-132,599	-52,129	0,086	0,029
-131,585	386,478	0,059	0,088
-130,570	-73,148	-0,155	0,041
-129,556	800,000	0,022	0,061
-128,541	98,619	-0,068	-0,057
-127,526	-200,000	0,020	-0,100
-126,512	289,892	-0,072	-0,094
-125,497	-52,905	0,114	0,037
-124,483	-200,000	0,002	0,070
-123,468	-200,000	0,011	-0,059
-122,453	-62,743	0,092	-0,027
-121,439	110,077	-0,051	-0,044
-120,424	188,465	0,064	-0,069
-119,410	181,503	-0,039	-0,042
-118,395	74,175	0,060	-0,046
-117,380	-200,000	0,001	0,063
-116,366	-70,713	-0,058	0,016
-115,351	-45,113	-0,167	-0,059
-114,337	-54,965	-0,016	-0,005
-113,322	-180,756	-0,054	-0,001
-112,307	-99,355	0,105	-0,019
-111,293	-147,622	-0,027	0,002
-110,278	122,975	-0,016	0,014
-109,264	-64,868	-0,082	-0,024
-108,249	171,727	-0,102	-0,106
-107,234	-200,000	-0,024	-0,083
-106,220	800,000	-0,044	-0,101
-105,205	117,182	-0,071	0,063
-104,191	203,746	0,087	0,097
-103,176	34,377	0,060	0,038
-102,162	-15,266	0,023	-0,010
-101,147	-44,847	0,024	0,009
-100,132	97,659	-0,056	-0,046
-99,118	-112,617	-0,041	-0,006
-98,103	-200,000	-0,029	0,168
-97,089	-43,257	0,128	0,046
-96,074	220,584	-0,080	0,093
-95,059	-200,000	-0,004	0,201
-94,045	-15,540	-0,135	-0,062
-93,030	-166,674	-0,063	-0,002
-92,016	-200,000	-0,027	-0,121
-91,001	451,752	0,015	0,024
-89,986	-102,761	0,061	-0,010
-88,972	-63,373	0,182	0,053
-87,957	-200,000	-0,119	-0,000
-86,943	-200,000	-0,031	-0,121
-85,928	-125,426	-0,125	-0,014
-84,913	28,209	-0,099	0,060
-83,899	580,756	0,060	-0,106
-82,884	60,781	0,076	0,054
-81,870	-200,000	-0,009	0,100
-80,855	44,150	-0,059	0,039
-79,840	-129,445	-0,019	-0,002
-78,826	-200,000	0,012	-0,074
-77,811	27,879	-0,024	-0,015
-76,797	800,000	0,017	0,051
-75,782	-200,000	0,004	0,103
-74,767	189,260	-0,047	0,050
-73,753	33,812	-0,060	0,038
-72,738	-50,110	0,087	-0,029
-71,724	130,152	-0,065	-0,060
-70,709	29,187	0,092	0,056
-69,694	204,548	0,041	-0,046
-68,680	-163,868	0,134	0,004
-67,665	-60,663	0,089	-0,027
-66,651	167,713	0,071	0,073
-65,636	495,403	-0,014	0,023
-64,622	624,269	0,050	-0,091
-63,607	291,064	0,014	-0,018
-62,592	47,992	0,073	-0,049
-61,578	341,655	0,063	-0,089
-60,563	-57,099	0,115	-0,036
-59,549	-7,381	0,051	-0,025
-58,534	67,142	-2,478	-1,812
-57,519	800,000	0,142	-0,396
-56,505	-200,000	-1,618	-5,325
-55,490	463,145	0,926	1,492
-54,476	800,000	5,315	11,749
-53,461	-200,000	21,188	337,259
-52,446	800,000	763,133	2318,642
-51,432	519,567	1663,747	2810,725
-50,417	106,911	1629,535	1389,434
-49,403	76,459	1281,077	974,196
-48,388	26,900	1025,998	616,279
-47,373	19,078	990,985	569,298
-46,359	14,097	978,460	545,678
-45,344	10,247	975,145	531,119
-44,330	10,741	973,043	531,579
-43,315	9,764	971,219	527,348
-42,300	9,714	970,143	526,579
-41,286	9,714	969,028	525,954
-40,271	9,706	968,289	525,507
-39,257	9,727	967,044	524,879
-38,242	9,662	966,246	524,210
-37,227	9,669	965,500	523,808
-36,213	9,611	964,928	523,287
-35,198	9,623	964,114	522,864
-34,184	9,743	963,019	522,640
-33,169	9,667	962,151	521,902
-32,154	9,668	961,404	521,480
-31,140	9,725	960,399	521,099
-30,125	9,812	959,350	520,791
-29,111	9,727	958,717	520,152
-28,096	9,750	958,236	519,946
-27,082	9,763	957,351	519,485
-26,067	9,716	956,707	518,963
-25,052	9,720	955,788	518,459
-24,038	9,678	955,233	518,001
-23,023	9,683	954,640	517,673
-22,009	9,752	953,928	517,490
-20,994	9,772	953,318	517,202
-19,979	9,715	952,741	516,685
-18,965	9,715	952,072	516,301
-17,950	9,693	951,455	515,878
-16,936	9,671	950,822	515,444
-15,921	9,686	950,125	515,093
-14,906	9,633	949,311	514,461
-13,892	9,647	948,652	514,127
-12,877	9,554	948,139	513,530
-11,863	9,558	947,596	513,230
-10,848	9,567	947,047	512,940
-9,833	9,744	946,403	513,137
-8,819	9,679	945,771	512,566
-7,804	9,575	945,166	511,887
-6,790	9,581	944,618	511,588
-5,775	9,608	944,117	511,384
-4,760	9,621	943,413	511,024
-3,746	9,556	942,827	510,479
-2,731	9,444	942,125	509,721
-1,717	9,448	941,326	509,282
-0,702	9,471	940,838	509,070
0,313	9,317	940,042	508,916
1,327	12,599	937,793	518,065
2,342	21,218	787,372	457,755
3,356	16,281	453,515	256,119
4,371	-10,275	315,295	149,575
5,386	-14,178	297,619	137,194
6,400	-16,221	291,433	132,287
7,415	-16,219	288,958	131,154
8,429	-16,780	287,211	129,797
9,444	-16,763	286,219	129,353
10,459	-16,578	285,463	129,181
11,473	-16,728	284,945	128,789
12,488	-16,621	284,561	128,709
13,502	-16,635	283,967	128,415
14,517	-16,713	283,843	128,271
15,531	-16,455	283,234	128,235
16,546	-16,121	282,782	128,343
17,561	-16,324	282,586	128,045
18,575	-16,287	282,178	127,885
19,590	-16,181	281,825	127,817
20,604	-16,229	281,460	127,593
21,619	-16,214	281,163	127,462
22,634	-16,161	280,693	127,288
23,648	-16,231	280,504	127,124
24,663	-16,332	280,219	126,886
25,677	-16,379	279,984	126,723
26,692	-16,154	279,696	126,797
27,707	-16,243	279,428	126,580
28,721	-16,057	279,072	126,585
29,736	-16,297	278,925	126,277
30,750	-16,294	278,624	126,132
31,765	-16,435	278,375	125,875
32,780	-16,041	278,095	126,112
33,794	-16,135	277,866	125,907
34,809	-16,149	277,594	125,759
35,823	-16,114	277,292	125,645
36,838	-16,250	276,960	125,354
37,853	-16,087	276,657	125,360
38,867	-16,254	276,668	125,196
39,882	-16,123	276,248	125,118
40,896	-16,358	276,223	124,874
41,911	-16,010	275,853	125,024
42,926	-16,275	275,768	124,724
43,940	-16,170	275,244	124,574
44,955	-16,037	275,115	124,631
45,969	-16,215	274,820	124,318
46,984	-16,192	274,830	124,334
47,999	-16,120	274,398	124,195
49,013	-16,088	274,410	124,219
50,028	-16,073	274,050	124,059
51,042	-16,215	273,883	123,839
52,057	-16,222	273,518	123,657
53,071	-16,177	273,448	123,656
54,086	-16,133	273,301	123,619
55,101	-15,877	272,905	123,668
56,115	-16,083	272,661	123,355
57,130	-16,069	272,347	123,215
58,144	-16,256	272,168	122,949
59,159	-16,328	271,901	122,750
60,174	-16,255	271,497	122,625
61,188	-16,397	271,453	122,462
62,203	-16,187	271,159	122,513
63,217	-16,112	271,014	122,507
64,232	-16,241	270,761	122,262
65,247	-16,196	270,500	122,174
66,261	-16,146	270,167	122,059
67,276	-16,149	270,052	121,994
68,290	-16,120	269,732	121,865
69,305	-16,139	269,728	121,834
70,320	-16,279	269,499	121,592
71,334	-16,300	269,224	121,438
72,349	-16,145	268,925	121,434
73,363	-16,148	268,615	121,281
74,378	-16,276	268,546	121,121
75,393	-16,159	268,219	121,070
76,407	-16,239	268,110	120,937
77,422	-16,059	267,712	120,911
78,436	-16,263	267,481	120,610
79,451	-16,112	267,443	120,720
80,466	-15,917	267,046	120,707
81,480	-16,108	267,025	120,513
82,495	-16,144	266,658	120,304
83,509	-16,213	266,585	120,198
84,524	-15,986	266,304	120,266
85,539	-16,099	266,182	120,098
86,553	-16,088	265,935	119,985
87,568	-16,067	265,713	119,895
88,582	-16,344	265,434	119,507
89,597	-16,251	265,285	119,514
90,611	-16,288	265,031	119,355
91,626	-16,095	264,802	119,415
92,641	-16,163	264,509	119,211
93,655	-16,158	264,385	119,149
94,670	-16,263	264,280	118,996
95,684	-16,244	263,974	118,865
96,699	-16,327	263,893	118,744
97,714	-16,070	263,436	118,758
98,728	-16,089	263,313	118,675
99,743	-15,996	263,364	118,771
100,757	-15,970	263,001	118,620
101,772	-16,135	262,775	118,359
102,787	-16,022	262,515	118,333
103,801	-16,207	262,328	118,072
104,816	-16,185	262,063	117,962
105,830	-16,195	262,012	117,921
106,845	-16,140	261,637	117,790
107,860	-16,172	261,462	117,672
108,874	-16,161	261,323	117,609
109,889	-16,204	261,119	117,469
110,903	-16,406	260,934	117,195
111,918	-16,290	260,713	117,189
112,933	-16,264	260,555	117,130
113,947	-16,181	260,372	117,111
114,962	-16,140	260,047	116,991
115,976	-16,172	259,962	116,914
116,991	-16,329	259,811	116,696
118,006	-16,296	259,495	116,573
119,020	-16,285	259,307	116,488
120,035	-16,318	259,180	116,391
121,049	-16,163	259,051	116,460
122,064	-16,126	258,696	116,323
123,079	-16,086	258,478	116,250
124,093	-16,216	258,435	116,105
125,108	-16,297	258,286	115,957
126,122	-16,127	258,034	115,983
127,137	-15,888	257,825	116,088
128,151	-16,095	257,649	115,817
129,166	-16,122	257,322	115,636
130,181	-15,836	257,095	115,773
131,195	-15,917	256,988	115,644
132,210	-16,218	256,741	115,260
133,224	-16,325	256,595	115,091
134,239	-16,315	256,335	114,973
135,254	-16,071	256,102	115,070
136,268	-16,246	255,885	114,810
137,283	-15,998	255,696	114,931
138,297	-16,064	255,653	114,844
139,312	-16,218	255,414	114,593
140,327	-15,993	255,128	114,648
141,341	-16,121	255,066	114,500
142,356	-16,372	254,725	114,120
143,370	-16,142	254,720	114,306
144,385	-16,117	254,404	114,176
145,400	-16,000	254,004	114,087
146,414	-16,128	254,006	113,967
147,429	-16,049	253,744	113,907
148,443	-16,049	253,578	113,823
149,458	-16,024	253,496	113,797
150,473	-16,073	253,184	113,605
151,487	-16,171	252,995	113,426
152,502	-16,353	252,967	113,248
153,516	-15,973	252,697	113,441
154,531	-16,142	252,461	113,182
155,546	-16,108	252,163	113,067
156,560	-16,017	252,156	113,131
157,575	-15,902	251,834	113,075
158,589	-16,253	251,690	112,701
159,604	-16,134	251,375	112,651
160,619	-16,121	251,379	112,653
161,633	-16,258	251,164	112,430
162,648	-16,149	251,049	112,462
163,662	-16,049	250,830	112,439
164,677	-16,092	250,691	112,330
165,692	-16,146	250,432	112,159
166,706	-16,053	250,257	112,148
167,721	-15,985	250,076	112,115
168,735	-16,191	249,980	111,888
169,750	-15,884	249,693	112,009
170,764	-16,165	249,677	111,754
171,779	-16,142	249,494	111,682
172,794	-16,163	249,380	111,603
173,808	-15,981	249,111	111,626
174,823	-16,079	248,979	111,474
175,837	-15,948	248,769	111,480
176,852	-16,040	248,714	111,369
177,867	-16,214	248,518	111,124
178,881	-15,987	248,223	111,174
179,896	-16,040	248,003	111,020
180,910	-16,164	247,919	110,869
181,925	-15,938	247,576	110,895
182,940	-16,139	247,608	110,731
183,954	-16,168	247,267	110,545
184,969	-16,020	247,274	110,662
185,983	-16,132	247,248	110,547
186,998	-15,984	246,922	110,514
188,013	-16,080	246,691	110,321
189,027	-16,062	246,500	110,240
190,042	-16,037	246,295	110,160
191,056	-16,121	246,139	110,011
192,071	-16,235	245,923	109,809
193,086	-16,248	245,684	109,682
194,100	-16,237	245,563	109,627
195,115	-15,994	245,231	109,671
196,129	-16,211	245,130	109,436
197,144	-16,107	244,791	109,361
198,159	-16,199	244,685	109,228
199,173	-16,219	244,601	109,164
200,188	-16,168	244,389	109,102
201,202	-16,214	244,271	109,002
202,217	-16,101	244,122	109,018
203,232	-16,021	243,901	108,976
204,246	-16,240	243,617	108,659
205,261	-16,775	243,323	108,080
206,275	-15,797	243,602	108,997
207,290	-11,236	245,257	113,497
208,304	-4,460	247,464	120,147
209,319	-0,938	248,515	123,582
210,334	0,235	248,722	124,651
211,348	0,944	248,691	125,214
212,363	1,546	248,725	125,720
213,377	1,973	248,789	126,097
214,392	2,009	248,758	126,100
215,407	2,238	248,615	126,206
216,421	2,433	248,468	126,282
217,436	2,467	248,199	126,163
218,450	2,378	248,161	126,058
219,465	2,241	247,916	125,809
220,480	2,210	247,864	125,746
221,494	1,893	247,509	125,293
222,509	1,622	247,279	124,942
223,523	1,372	247,045	124,606
224,538	1,208	246,771	124,321
225,553	1,138	246,736	124,234
226,567	1,177	246,352	124,062
227,582	1,258	246,220	124,051
228,596	1,424	246,112	124,123
229,611	1,102	246,029	123,805
230,626	1,252	245,675	123,739
231,640	1,322	245,528	123,711
232,655	1,321	245,389	123,629
233,669	1,239	245,312	123,512
234,684	1,234	245,136	123,409
235,699	1,249	244,931	123,306
236,713	1,426	244,742	123,345
237,728	1,389	244,668	123,267
238,742	1,295	244,576	123,132
239,757	1,336	244,321	123,026
240,772	1,335	244,121	122,914
241,786	1,149	243,936	122,658
242,801	1,102	243,872	122,577
243,815	1,244	243,595	122,543
244,830	1,185	243,561	122,466
245,844	1,191	243,370	122,364
246,859	1,115	243,134	122,173
247,874	1,251	242,983	122,197
248,888	1,158	242,984	122,111
249,903	1,331	242,767	122,130
250,917	1,247	242,566	121,951
251,932	1,333	242,437	121,944
252,947	1,196	242,329	121,769
253,961	1,403	242,164	121,842
254,976	1,383	241,989	121,727
255,990	1,242	241,729	121,472
257,005	1,217	241,697	121,425
258,020	1,244	241,600	121,387
259,034	1,367	241,338	121,343
260,049	1,389	241,265	121,314
261,063	1,120	241,092	121,000
262,078	1,167	240,897	120,928
263,093	1,261	240,593	120,841
264,107	1,245	240,587	120,814
265,122	1,255	240,454	120,744
266,136	1,413	240,260	120,763
267,151	1,340	240,091	120,609
268,166	1,272	239,902	120,449
269,180	1,267	239,715	120,340
270,195	1,214	239,602	120,230
271,209	1,210	239,503	120,167
272,224	1,248	239,375	120,122
273,239	1,324	239,127	120,047
274,253	1,178	238,939	119,826
275,268	1,382	238,893	119,955
276,282	0,994	238,751	119,564
277,297	1,296	238,390	119,613
278,312	1,191	238,229	119,437
279,326	1,321	238,196	119,513
280,341	1,267	238,162	119,443
281,355	1,284	237,954	119,341
282,370	1,311	237,772	119,261
283,384	1,498	237,407	119,214
284,399	1,499	237,366	119,185
285,414	1,296	237,156	118,908
286,428	1,388	237,120	118,952
287,443	1,258	236,933	118,745
288,457	1,199	236,868	118,656
289,472	1,108	236,700	118,490
290,487	1,183	236,548	118,462
291,501	1,264	236,350	118,416
292,516	1,245	236,372	118,402
293,530	1,326	236,193	118,364
294,545	1,483	236,058	118,410
295,560	1,466	235,958	118,335
296,574	1,430	235,727	118,181
297,589	1,324	235,564	118,006
298,603	1,494	235,315	118,003
299,618	1,267	235,219	117,767
300,633	1,266	235,207	117,750
301,647	1,567	234,895	117,818
302,662	1,553	234,834	117,766
303,676	1,489	234,722	117,650
304,691	1,414	234,558	117,498
305,706	1,497	234,333	117,440
306,720	1,451	234,186	117,320
307,735	1,330	234,095	117,170
308,749	1,456	234,019	117,219
309,764	1,640	233,564	117,124
310,779	1,443	233,476	116,916
311,793	1,311	233,321	116,726
312,808	1,607	233,137	116,852
313,822	1,442	233,171	116,732
314,837	1,388	233,038	116,613
315,852	1,492	232,818	116,573
316,866	1,533	232,595	116,482
317,881	1,590	232,670	116,553
318,895	1,681	232,386	116,470
319,910	1,650	232,213	116,350
320,925	1,357	232,132	116,073
321,939	1,340	231,866	115,916
322,954	1,533	231,787	116,015
323,968	1,528	231,704	115,959
324,983	1,608	231,563	115,940
325,997	1,574	231,228	115,736
327,012	1,538	231,247	115,708
328,027	1,516	231,050	115,582
329,041	1,457	230,967	115,485
330,056	1,596	230,650	115,423
331,070	1,443	230,672	115,306
332,085	1,636	230,389	115,302
333,100	1,423	230,197	115,033
334,114	1,585	230,045	115,070
335,129	1,231	230,120	114,828
336,143	1,527	229,854	114,910
337,158	1,510	229,784	114,852
338,173	1,542	229,493	114,720
339,187	1,328	229,465	114,534
340,202	1,408	229,334	114,519
341,216	1,555	229,080	114,493
342,231	1,477	228,992	114,379
343,246	1,509	228,807	114,301
344,260	1,640	228,727	114,351
345,275	1,691	228,685	114,357
346,289	1,650	228,410	114,179
347,304	1,607	228,278	114,070
348,319	1,522	228,203	113,959
349,333	1,787	227,796	113,945
350,348	1,567	227,715	113,729
351,362	1,500	227,716	113,668
352,377	1,666	227,321	113,586
353,392	1,893	227,377	113,774
354,406	1,425	227,243	113,346
355,421	192,598	1313,051	1381,168
356,435	154,346	1445,225	1381,055
