DTS Sentinel unit serial number:	SN410029Multiplexer serial number:	ORYXHardware model number:	OX2-SRSoftware version number:	ORYX F/W v4,00 Oryx Data Collector v3.7.2.0data status	okinstallation	B5 Nyhavnadifferential loss correction	single-endedforward channel	channel 2reverse channel	N/Adate	2023/12/14time	15:37:13forward acquisition time	300,00reverse acquisition time	0,00gamma	499,1914k internal	0,3157k external	0,3157temperature offset calibration	1,0000default loss term (dB/km)	0,3820temperature slope calibration	1,0000multiplexer offset coefficient	1,0000multiplexer slope coefficient	1,0000fibre end	0,00T internal ref (°C)	7,87T ext. ref 1 (°C)	-8,17T ext. ref 2 (°C)	-8,18length (m)	temperature (°C)	Stokes	anti-Stokes-744,400	-7,374	0,304	0,151
-743,385	11,446	-0,330	-0,186
-742,371	-8,076	0,032	0,016
-741,356	-56,142	-0,329	-0,107
-740,342	-190,778	0,235	0,002
-739,327	-120,764	-0,279	-0,034
-738,312	800,000	0,058	0,126
-737,298	-67,636	-0,327	-0,094
-736,283	141,337	0,219	0,214
-735,269	-118,274	-0,322	-0,042
-734,254	-123,635	-0,026	0,003
-733,239	-64,803	-0,559	-0,166
-732,225	51,771	0,167	0,117
-731,210	234,832	-0,115	0,140
-730,196	316,200	0,090	-0,125
-729,181	-76,461	-0,130	0,033
-728,167	366,626	0,078	-0,116
-727,152	-200,000	-0,018	0,063
-726,137	-89,278	-0,111	0,024
-725,123	711,874	0,006	-0,012
-724,108	-200,000	-0,007	-0,049
-723,094	800,000	0,036	0,107
-722,079	-139,055	0,086	-0,007
-721,064	101,451	-0,040	0,034
-720,050	800,000	0,046	-0,137
-719,035	-154,416	-0,049	-0,002
-718,021	-99,172	-0,116	0,021
-717,006	-144,958	-0,067	-0,004
-715,991	-113,311	-0,114	0,016
-714,977	-60,266	-0,111	0,035
-713,962	353,297	-0,062	-0,092
-712,948	-80,157	-0,085	-0,021
-711,933	2,855	-0,082	-0,044
-710,918	800,000	0,090	0,194
-709,904	138,625	-0,128	-0,124
-708,889	-52,589	-0,004	0,001
-707,875	-115,526	-0,162	-0,022
-706,860	195,553	0,052	-0,059
-705,845	99,272	0,159	0,135
-704,831	-115,546	-0,147	0,020
-703,816	-0,976	-0,083	0,043
-702,802	-84,219	0,069	0,016
-701,787	102,363	-0,116	-0,100
-700,772	-13,432	-0,111	-0,053
-699,758	-34,691	-0,072	0,029
-698,743	-200,000	-0,008	0,063
-697,729	800,000	0,020	-0,046
-696,714	41,152	0,081	-0,054
-695,699	-31,117	-0,074	-0,031
-694,685	800,000	-0,022	-0,046
-693,670	27,770	-0,090	-0,055
-692,656	144,853	-0,044	-0,043
-691,641	490,835	0,077	-0,130
-690,627	55,082	0,132	0,094
-689,612	-200,000	0,014	0,081
-688,597	-200,000	-0,012	0,060
-687,583	-166,101	0,090	0,003
-686,568	90,315	-0,081	0,067
-685,554	-170,549	-0,058	0,001
-684,539	27,707	0,008	0,005
-683,524	800,000	-0,058	0,158
-682,510	-200,000	-0,041	0,177
-681,495	335,460	-0,102	0,147
-680,481	800,000	0,029	0,076
-679,466	11,696	-0,208	-0,117
-678,451	230,040	-0,094	0,113
-677,437	23,400	0,019	-0,012
-676,422	800,000	0,018	0,052
-675,408	10,237	-0,089	0,049
-674,393	198,198	-0,049	-0,055
-673,378	800,000	-0,109	-0,242
-672,364	225,906	0,109	-0,130
-671,349	-138,325	-0,078	0,006
-670,335	-200,000	0,027	-0,130
-669,320	-154,092	-0,157	-0,008
-668,305	590,495	-0,048	0,088
-667,291	17,852	0,028	-0,017
-666,276	77,257	-0,105	-0,082
-665,262	-25,702	-0,049	0,021
-664,247	76,458	-0,084	-0,065
-663,232	169,687	-0,060	0,063
-662,218	145,568	-0,046	-0,046
-661,203	614,046	0,069	-0,127
-660,189	8,160	0,102	-0,056
-659,174	-8,906	-0,082	0,040
-658,159	-200,000	-0,007	0,045
-657,145	-200,000	-0,015	0,107
-656,130	308,618	-0,053	-0,073
-655,116	800,000	0,025	-0,065
-654,101	-200,000	0,001	-0,123
-653,086	800,000	0,017	-0,054
-652,072	418,516	0,062	-0,098
-651,057	-200,000	-0,014	-0,101
-650,043	-148,544	-0,110	-0,006
-649,028	-200,000	-0,027	-0,169
-648,014	67,991	-0,030	-0,023
-646,999	250,003	0,044	0,054
-645,984	-200,000	-0,033	-0,150
-644,970	53,571	0,051	0,036
-643,955	-21,819	-0,128	0,057
-642,941	-200,000	-0,021	-0,090
-641,926	436,095	0,045	0,072
-640,911	800,000	0,006	0,014
-639,897	800,000	0,021	0,055
-638,882	800,000	-0,031	0,083
-637,868	-62,259	0,122	-0,037
-636,853	-130,937	-0,095	-0,009
-635,838	-200,000	0,008	-0,042
-634,824	-108,700	0,154	0,024
-633,809	-20,351	-0,054	0,025
-632,795	-12,607	0,111	-0,053
-631,780	-27,237	0,043	-0,018
-630,765	30,243	-0,069	-0,043
-629,751	-200,000	0,015	-0,095
-628,736	238,787	-0,041	-0,050
-627,722	800,000	0,005	-0,014
-626,707	800,000	-0,049	0,144
-625,692	4,781	-0,018	-0,010
-624,678	120,785	-0,019	0,018
-623,663	800,000	-0,020	0,057
-622,649	185,965	-0,067	0,073
-621,634	99,228	-0,115	-0,098
-620,619	485,129	0,083	-0,139
-619,605	-200,000	-0,007	-0,066
-618,590	800,000	0,061	-0,130
-617,576	800,000	-0,019	0,054
-616,561	-200,000	-0,015	0,077
-615,546	-119,770	-0,157	0,020
-614,532	-67,403	-0,143	-0,041
-613,517	800,000	-0,047	-0,103
-612,503	-46,413	0,107	-0,038
-611,488	-200,000	-0,007	0,091
-610,474	800,000	0,039	-0,108
-609,459	316,445	-0,009	0,013
-608,444	-110,295	0,093	-0,014
-607,430	-43,615	-0,143	-0,053
-606,415	-200,000	0,002	0,060
-605,401	-196,101	-0,066	-0,000
-604,386	-200,000	0,007	0,140
-603,371	-82,219	0,145	-0,034
-602,357	-200,000	-0,004	0,102
-601,342	-94,979	0,048	0,010
-600,328	381,652	0,068	0,103
-599,313	-112,959	0,101	0,014
-598,298	-133,323	0,025	-0,002
-597,284	800,000	-0,022	0,063
-596,269	800,000	-0,022	0,058
-595,255	-10,867	-0,063	-0,030
-594,240	-109,694	0,095	-0,015
-593,225	-71,903	-0,139	0,038
-592,211	6,258	-0,056	0,030
-591,196	-150,604	0,151	0,008
-590,182	-101,618	-0,093	0,016
-589,167	52,974	0,051	0,036
-588,152	523,464	-0,013	0,023
-587,138	286,900	-0,044	0,059
-586,123	100,270	-0,103	-0,087
-585,109	33,000	-0,025	0,016
-584,094	115,553	-0,047	0,042
-583,079	-200,000	0,008	0,123
-582,065	-42,457	0,076	-0,028
-581,050	-46,893	0,100	-0,036
-580,036	332,195	-0,048	0,068
-579,021	800,000	0,020	0,052
-578,006	138,972	-0,085	-0,081
-576,992	-86,022	-0,073	0,016
-575,977	394,712	0,045	0,069
-574,963	36,593	0,074	0,048
-573,948	800,000	0,060	-0,150
-572,934	602,850	0,084	-0,154
-571,919	563,291	-0,022	0,039
-570,904	-81,528	-0,148	0,035
-569,890	62,998	-0,067	-0,049
-568,875	-16,203	0,055	-0,026
-567,861	-28,806	0,091	-0,038
-566,846	359,713	-0,137	0,202
-565,831	-200,000	-0,014	-0,045
-564,817	318,241	-0,062	-0,087
-563,802	313,257	-0,085	0,118
-562,788	-133,854	-0,142	-0,013
-561,773	98,839	-0,046	-0,039
-560,758	450,813	0,107	-0,174
-559,744	65,063	-0,064	-0,047
-558,729	-60,221	0,078	-0,024
-557,715	-200,000	-0,018	0,074
-556,700	-70,867	-0,182	0,050
-555,685	428,878	-0,081	-0,129
-554,671	-186,842	-0,163	0,002
-553,656	-200,000	-0,006	-0,087
-552,642	-200,000	-0,019	0,088
-551,627	86,805	0,136	-0,110
-550,612	-36,539	-0,034	-0,013
-549,598	15,909	-0,092	0,053
-548,583	-200,000	-0,009	0,174
-547,569	-19,323	0,104	0,047
-546,554	80,476	-0,024	0,019
-545,539	20,071	0,046	0,027
-544,525	-12,268	0,152	0,073
-543,510	800,000	0,037	-0,094
-542,496	455,388	-0,056	0,091
-541,481	-200,000	0,003	0,056
-540,466	-55,855	-0,081	-0,026
-539,452	293,373	0,059	-0,079
-538,437	-200,000	-0,040	0,187
-537,423	120,911	0,045	-0,041
-536,408	-200,000	-0,007	-0,139
-535,393	-200,000	0,015	-0,151
-534,379	-200,000	-0,007	0,094
-533,364	-50,499	-0,105	-0,036
-532,350	56,676	-0,077	0,055
-531,335	-106,806	0,071	-0,011
-530,321	-121,977	0,173	0,021
-529,306	171,778	-0,133	-0,140
-528,291	-109,281	0,034	0,005
-527,277	-36,856	-0,150	0,059
-526,262	-200,000	-0,010	0,057
-525,248	-158,768	0,099	-0,004
-524,233	-200,000	0,003	0,034
-523,218	800,000	-0,063	0,143
-522,204	-115,797	-0,131	0,018
-521,189	-200,000	-0,000	-0,064
-520,175	24,119	-0,095	0,057
-519,160	-55,344	0,169	-0,055
-518,145	-129,750	0,101	-0,010
-517,131	800,000	0,009	0,029
-516,116	136,543	-0,050	0,048
-515,102	-200,000	0,001	0,068
-514,087	13,728	-0,095	-0,054
-513,072	-148,025	-0,088	0,005
-512,058	115,008	0,056	-0,050
-511,043	-152,853	-0,067	0,003
-510,029	51,924	0,145	-0,101
-509,014	194,130	0,060	-0,067
-507,999	101,800	-0,052	-0,044
-506,985	-200,000	0,016	-0,061
-505,970	108,100	-0,158	-0,138
-504,956	-128,717	0,031	-0,003
-503,941	437,052	0,038	0,061
-502,926	472,300	0,055	0,091
-501,912	-200,000	0,012	-0,052
-500,897	-162,005	0,064	-0,002
-499,883	-200,000	0,016	-0,089
-498,868	182,841	-0,032	0,034
-497,853	-200,000	0,022	-0,094
-496,839	-85,809	-0,069	0,015
-495,824	243,605	0,052	0,064
-494,810	489,787	-0,141	0,236
-493,795	800,000	-0,024	0,057
-492,781	38,845	0,039	0,026
-491,766	267,368	-0,035	-0,045
-490,751	800,000	-0,024	-0,069
-489,737	-200,000	0,035	-0,117
-488,722	800,000	0,029	-0,089
-487,708	-43,165	-0,101	0,037
-486,693	-160,507	0,063	0,002
-485,678	800,000	0,017	0,051
-484,664	553,977	0,032	-0,056
-483,649	-131,394	0,049	-0,005
-482,635	116,898	0,057	0,051
-481,620	-106,722	0,184	-0,029
-480,605	-200,000	-0,002	0,113
-479,591	-20,236	-0,056	0,025
-478,576	800,000	-0,005	0,015
-477,562	72,389	-0,024	-0,019
-476,547	53,177	-0,200	-0,139
-475,532	-41,996	0,057	-0,021
-474,518	-5,080	-0,098	-0,049
-473,503	-71,796	0,011	0,003
-472,489	603,900	-0,097	0,177
-471,474	-112,645	-0,034	-0,005
-470,459	646,003	0,030	0,055
-469,445	-200,000	-0,004	-0,031
-468,430	108,428	0,075	-0,065
-467,416	-33,284	-0,035	0,014
-466,401	-21,237	0,051	-0,023
-465,386	800,000	0,063	0,179
-464,372	127,444	-0,054	-0,050
-463,357	800,000	0,024	-0,055
-462,343	347,064	-0,054	0,078
-461,328	-134,341	0,032	-0,003
-460,313	8,609	0,138	0,075
-459,299	800,000	0,038	-0,087
-458,284	-200,000	-0,010	0,047
-457,270	104,870	-0,099	-0,085
-456,255	200,096	-0,076	-0,085
-455,241	-58,050	0,014	0,004
-454,226	19,987	-0,021	-0,012
-453,211	120,300	-0,068	0,061
-452,197	4,822	0,091	-0,049
-451,182	-43,797	-0,113	0,041
-450,168	184,613	0,066	-0,071
-449,153	1,725	-0,118	-0,062
-448,138	-122,382	-0,102	0,012
-447,124	121,977	-0,097	-0,089
-446,109	73,508	0,059	-0,045
-445,095	8,272	0,065	0,035
-444,080	-62,044	-0,104	-0,032
-443,065	-200,000	-0,001	0,020
-442,051	-57,258	-0,038	-0,012
-441,036	-149,785	-0,171	-0,010
-440,022	674,080	-0,040	-0,075
-439,007	-40,100	-0,141	-0,053
-437,992	-200,000	-0,008	-0,060
-436,978	7,214	-0,051	0,027
-435,963	800,000	0,025	0,065
-434,949	-113,259	-0,031	-0,004
-433,934	-94,185	0,135	0,027
-432,919	717,869	-0,042	-0,081
-431,905	-75,818	-0,124	-0,032
-430,890	-109,600	0,127	0,019
-429,876	-200,000	0,000	-0,002
-428,861	-15,728	0,083	0,038
-427,846	17,172	-0,058	-0,033
-426,832	744,264	-0,068	-0,135
-425,817	-84,539	-0,103	-0,023
-424,803	552,356	0,045	-0,079
-423,788	-200,000	0,027	0,120
-422,773	-200,000	-0,028	-0,164
-421,759	637,514	0,041	0,075
-420,744	659,615	-0,004	-0,008
-419,730	600,315	0,031	-0,055
-418,715	23,152	-0,088	-0,053
-417,701	66,946	0,040	-0,029
-416,686	372,221	0,051	-0,075
-415,671	728,159	0,016	0,032
-414,657	-39,350	0,164	0,062
-413,642	-200,000	-0,006	-0,086
-412,628	173,455	0,136	-0,143
-411,613	-1,329	0,040	0,021
-410,598	-200,000	-0,065	-0,220
-409,584	-69,826	0,071	-0,020
-408,569	-64,636	0,026	0,008
-407,555	112,351	0,150	0,132
-406,540	-44,592	0,064	-0,023
-405,525	213,373	-0,083	-0,095
-404,511	-35,413	-0,119	-0,047
-403,496	-44,668	-0,063	-0,023
-402,482	235,069	-0,055	-0,066
-401,467	128,309	0,056	-0,052
-400,452	-43,435	0,016	0,006
-399,438	-37,915	-0,038	-0,015
-398,423	-92,735	0,014	0,003
-397,409	800,000	0,047	-0,121
-396,394	-41,239	-0,176	0,066
-395,379	-90,083	0,059	-0,012
-394,365	-200,000	-0,005	0,023
-393,350	50,176	0,062	0,042
-392,336	3,511	0,061	-0,032
-391,321	85,995	-0,017	0,013
-390,306	386,807	-0,044	-0,067
-389,292	-147,318	0,070	-0,004
-388,277	-144,860	-0,229	0,015
-387,263	-139,342	0,088	0,007
-386,248	75,692	-0,089	-0,068
-385,233	463,554	-0,040	0,065
-384,219	653,050	-0,068	0,127
-383,204	220,007	0,039	-0,045
-382,190	79,406	-0,138	-0,108
-381,175	-78,151	0,130	-0,032
-380,160	17,999	0,165	-0,095
-379,146	244,654	0,066	-0,081
-378,131	-200,000	-0,002	-0,066
-377,117	-10,746	-0,064	0,031
-376,102	199,605	0,112	-0,125
-375,088	15,096	-0,053	0,030
-374,073	-149,662	0,121	-0,007
-373,058	-200,000	-0,006	0,032
-372,044	6,890	0,034	0,019
-371,029	-125,465	-0,023	0,003
-370,015	-95,120	0,033	0,006
-369,000	800,000	-0,039	-0,090
-367,985	277,771	-0,077	-0,099
-366,971	-17,849	-0,062	0,028
-365,956	503,915	0,070	0,119
-364,942	-200,000	0,030	-0,098
-363,927	-175,788	0,080	-0,002
-362,912	636,386	-0,056	0,103
-361,898	19,936	0,011	-0,006
-360,883	-27,533	0,059	0,025
-359,869	-65,203	-0,074	-0,021
-358,854	-200,000	0,014	0,095
-357,839	800,000	0,026	0,060
-356,825	-200,000	-0,001	-0,062
-355,810	800,000	-0,022	-0,048
-354,796	-112,849	-0,062	-0,009
-353,781	-72,351	0,147	0,039
-352,766	800,000	-0,041	-0,099
-351,752	-84,154	0,190	-0,044
-350,737	79,324	0,043	-0,033
-349,723	105,937	0,091	0,078
-348,708	108,333	0,051	0,044
-347,693	800,000	0,037	0,074
-346,679	210,797	0,063	-0,071
-345,664	-60,093	-0,057	0,018
-344,650	83,686	-0,097	0,077
-343,635	-11,430	0,031	0,015
-342,620	-200,000	-0,004	-0,015
-341,606	-200,000	-0,053	0,195
-340,591	72,195	0,106	-0,080
-339,577	-200,000	-0,023	-0,079
-338,562	-75,241	-0,089	-0,023
-337,548	-200,000	-0,024	0,081
-336,533	-200,000	0,010	0,079
-335,518	800,000	-0,035	0,094
-334,504	58,124	-0,067	-0,047
-333,489	283,748	0,131	-0,171
-332,475	25,854	0,125	0,076
-331,460	800,000	0,016	-0,052
-330,445	-200,000	0,018	-0,080
-329,431	51,871	-0,030	0,021
-328,416	-200,000	-0,034	0,111
-327,402	251,577	0,062	0,076
-326,387	193,537	-0,068	0,075
-325,372	-200,000	0,002	-0,099
-324,358	39,071	-0,033	-0,022
-323,343	109,342	-0,054	-0,047
-322,329	-200,000	0,017	-0,061
-321,314	-200,000	0,021	0,104
-320,299	-53,601	-0,045	0,015
-319,285	6,914	-0,080	-0,043
-318,270	800,000	0,043	-0,104
-317,256	-200,000	0,008	-0,160
-316,241	800,000	-0,046	-0,098
-315,226	-91,827	0,146	-0,030
-314,212	-200,000	-0,019	0,149
-313,197	266,269	0,033	-0,041
-312,183	193,273	0,047	0,052
-311,168	800,000	-0,032	0,071
-310,153	-11,539	-0,153	-0,073
-309,139	800,000	0,010	-0,028
-308,124	-200,000	-0,024	0,187
-307,110	-70,276	0,256	0,070
-306,095	121,191	-0,003	-0,003
-305,080	-4,084	-0,143	0,071
-304,066	13,746	0,115	0,064
-303,051	-143,576	-0,080	-0,005
-302,037	-7,600	-0,070	0,034
-301,022	-146,997	0,048	-0,003
-300,008	-200,000	0,016	-0,083
-298,993	-9,918	-0,053	0,026
-297,978	-200,000	0,007	0,132
-296,964	-200,000	-0,003	-0,155
-295,949	267,430	0,102	0,129
-294,935	337,284	-0,102	-0,143
-293,920	-200,000	-0,006	0,103
-292,905	800,000	-0,093	0,259
-291,891	800,000	-0,009	0,019
-290,876	472,416	0,105	-0,172
-289,862	800,000	-0,015	-0,035
-288,847	-152,600	0,127	-0,006
-287,832	800,000	-0,048	-0,132
-286,818	800,000	-0,017	-0,048
-285,803	-105,055	-0,037	-0,006
-284,789	-200,000	-0,025	0,087
-283,774	-200,000	-0,007	0,054
-282,759	62,527	0,036	-0,026
-281,745	773,971	-0,042	-0,083
-280,730	11,677	-0,042	-0,023
-279,716	76,467	-0,104	-0,079
-278,701	524,990	-0,020	0,034
-277,686	-200,000	0,010	0,130
-276,672	-200,000	-0,002	-0,041
-275,657	55,281	-0,071	0,050
-274,643	397,530	0,090	-0,137
-273,628	23,296	-0,148	-0,088
-272,613	332,228	0,043	-0,060
-271,599	481,251	0,037	0,061
-270,584	-46,408	0,065	-0,023
-269,570	51,990	0,079	0,054
-268,555	-0,419	-0,042	-0,021
-267,540	505,436	0,040	-0,067
-266,526	-32,119	-0,116	0,047
-265,511	267,840	-0,085	0,108
-264,497	116,433	0,038	0,034
-263,482	386,165	0,062	0,093
-262,467	362,557	0,094	0,137
-261,453	35,580	-0,165	0,105
-260,438	800,000	0,056	0,120
-259,424	-41,524	0,121	-0,045
-258,409	-1,986	0,065	0,033
-257,395	800,000	-0,021	0,045
-256,380	800,000	0,038	0,093
-255,365	-200,000	-0,015	-0,055
-254,351	0,241	0,117	-0,060
-253,336	-115,019	0,066	-0,009
-252,322	-16,600	-0,087	0,040
-251,307	130,247	0,086	0,080
-250,292	800,000	-0,010	-0,029
-249,278	-200,000	0,017	-0,136
-248,263	531,816	0,026	-0,045
-247,249	594,686	0,063	-0,114
-246,234	800,000	0,033	-0,067
-245,219	800,000	0,041	0,099
-244,205	800,000	0,027	-0,070
-243,190	-91,567	-0,178	-0,036
-242,176	-200,000	0,028	0,176
-241,161	756,970	-0,086	0,169
-240,146	577,412	0,049	-0,087
-239,132	-200,000	-0,019	-0,136
-238,117	800,000	-0,032	-0,068
-237,103	-200,000	-0,002	-0,051
-236,088	64,304	-0,017	0,012
-235,073	51,026	0,101	0,069
-234,059	800,000	0,063	0,183
-233,044	-111,664	0,096	0,014
-232,030	-14,450	-0,142	-0,066
-231,015	800,000	-0,011	0,026
-230,000	-200,000	0,008	0,099
-228,986	-70,752	0,075	0,020
-227,971	-124,646	0,204	-0,023
-226,957	148,687	-0,022	0,021
-225,942	50,671	0,110	0,075
-224,927	18,997	-0,070	0,040
-223,913	46,677	-0,037	-0,025
-222,898	800,000	-0,063	-0,185
-221,884	189,213	0,038	0,041
-220,869	-200,000	-0,032	0,136
-219,855	-200,000	0,017	0,088
-218,840	800,000	0,033	-0,071
-217,825	87,285	0,022	0,018
-216,811	137,409	-0,081	-0,076
-215,796	-172,578	-0,136	0,003
-214,782	-65,149	-0,052	0,015
-213,767	800,000	0,037	0,085
-212,752	800,000	0,044	0,111
-211,738	-200,000	-0,011	0,047
-210,723	800,000	0,030	-0,078
-209,709	367,813	-0,040	-0,059
-208,694	-85,831	0,093	-0,021
-207,679	-200,000	0,008	0,139
-206,665	135,519	0,035	-0,033
-205,650	-160,160	0,034	0,001
-204,636	31,972	0,047	0,029
-203,621	76,149	-0,002	0,001
-202,606	-172,111	-0,220	0,005
-201,592	520,460	-0,090	-0,154
-200,577	-200,000	-0,027	0,135
-199,563	248,373	-0,049	0,059
-198,548	-200,000	-0,001	0,108
-197,533	-200,000	-0,035	0,120
-196,519	-200,000	0,006	-0,097
-195,504	-79,883	0,099	0,024
-194,490	-56,942	-0,049	0,015
-193,475	-3,279	0,065	-0,033
-192,460	-116,993	-0,076	-0,010
-191,446	800,000	-0,060	0,135
-190,431	286,046	-0,060	0,078
-189,417	-200,000	0,003	-0,109
-188,402	-200,000	0,021	-0,104
-187,387	623,685	-0,049	0,090
-186,373	-30,508	0,084	-0,034
-185,358	246,289	0,047	-0,057
-184,344	-56,698	0,123	0,039
-183,329	128,506	0,114	0,105
-182,315	-43,290	0,015	0,006
-181,300	-52,805	0,059	-0,019
-180,285	137,627	0,061	0,058
-179,271	364,635	-0,081	-0,118
-178,256	-176,228	-0,044	-0,001
-177,242	800,000	0,008	-0,023
-176,227	-200,000	-0,043	-0,172
-175,212	-200,000	-0,003	0,178
-174,198	-122,649	-0,116	0,013
-173,183	394,821	-0,032	0,049
-172,169	556,319	-0,079	-0,138
-171,154	800,000	0,061	-0,129
-170,139	-60,555	0,186	-0,057
-169,125	344,122	0,130	0,184
-168,110	-41,495	0,150	0,055
-167,096	163,016	-0,045	-0,046
-166,081	-59,828	0,053	-0,016
-165,066	31,019	-0,032	-0,020
-164,052	-200,000	-0,008	0,082
-163,037	-200,000	-0,019	0,142
-162,023	239,153	0,097	0,116
-161,008	-200,000	0,022	0,112
-159,993	165,035	0,027	0,027
-158,979	119,927	0,062	0,055
-157,964	373,411	0,023	0,034
-156,950	-17,482	0,010	-0,004
-155,935	-200,000	-0,007	0,039
-154,920	129,267	0,058	-0,053
-153,906	-6,545	0,084	0,041
-152,891	99,068	0,063	0,053
-151,877	58,907	0,106	0,075
-150,862	39,639	-0,058	0,037
-149,847	-7,794	0,160	0,077
-148,833	373,266	-0,073	0,107
-147,818	800,000	0,023	0,065
-146,804	197,694	0,170	0,187
-145,789	133,597	-0,074	-0,069
-144,775	-108,494	-0,113	0,017
-143,760	399,827	0,027	-0,041
-142,745	-56,715	0,082	-0,026
-141,731	4,481	0,116	0,061
-140,716	-10,080	-0,066	0,032
-139,702	800,000	-0,065	0,143
-138,687	247,184	-0,047	0,057
-137,672	-200,000	0,016	-0,073
-136,658	185,640	0,102	0,110
-135,643	-200,000	-0,005	0,048
-134,629	-58,188	-0,189	0,059
-133,614	506,335	0,061	0,102
-132,599	9,662	-0,061	-0,033
-131,585	800,000	-0,021	0,050
-130,570	800,000	0,051	0,137
-129,556	35,755	-0,085	0,054
-128,541	447,718	0,100	-0,159
-127,526	37,200	0,061	0,039
-126,512	-200,000	-0,011	-0,117
-125,497	33,503	0,073	-0,045
-124,483	488,161	-0,031	-0,052
-123,468	-80,198	-0,211	0,050
-122,453	-200,000	-0,034	-0,116
-121,439	-30,561	0,080	0,032
-120,424	165,589	0,061	0,062
-119,410	81,408	-0,013	0,010
-118,395	24,683	0,117	0,070
-117,380	800,000	0,013	0,034
-116,366	126,949	0,044	0,040
-115,351	382,664	-0,032	-0,047
-114,337	-127,393	-0,069	-0,007
-113,322	-56,211	-0,137	-0,043
-112,307	448,373	0,082	-0,130
-111,293	-200,000	-0,007	0,031
-110,278	800,000	0,020	0,046
-109,264	-200,000	-0,002	0,026
-108,249	665,239	-0,026	-0,048
-107,234	166,903	0,074	0,075
-106,220	157,143	0,086	0,086
-105,205	-87,317	0,156	-0,034
-104,191	102,900	0,014	0,012
-103,176	-92,444	0,118	-0,024
-102,162	800,000	-0,024	0,057
-101,147	217,433	0,068	0,079
-100,132	129,631	-0,009	0,008
-99,118	-76,979	0,065	-0,016
-98,103	-83,611	0,106	-0,024
-97,089	-12,662	-0,056	-0,026
-96,074	256,918	0,058	0,072
-95,059	593,286	0,022	0,039
-94,045	104,293	0,056	-0,048
-93,030	-109,828	-0,070	0,010
-92,016	-200,000	0,037	0,135
-91,001	-95,425	0,043	-0,008
-89,986	291,762	0,062	0,082
-88,972	800,000	-0,036	0,101
-87,957	117,726	-0,070	0,062
-86,943	-67,738	-0,060	0,017
-85,928	252,469	-0,038	-0,047
-84,913	-6,515	0,022	0,011
-83,899	-200,000	-0,000	0,082
-82,884	-200,000	0,005	0,037
-81,870	-13,240	0,210	-0,098
-80,855	-7,781	0,016	-0,008
-79,840	-200,000	0,005	0,025
-78,826	-142,983	-0,075	-0,005
-77,811	-45,531	-0,106	0,037
-76,797	-99,431	0,136	0,024
-75,782	-124,682	-0,002	-0,000
-74,767	217,265	-0,058	0,066
-73,753	-169,565	-0,097	0,002
-72,738	800,000	0,048	-0,117
-71,724	-21,143	-0,048	0,021
-70,709	800,000	-0,037	-0,089
-69,694	5,416	0,115	-0,061
-68,680	-66,865	-0,066	-0,019
-67,665	288,981	0,036	0,047
-66,651	-134,270	-0,118	0,010
-65,636	472,401	-0,050	-0,082
-64,622	31,400	-0,061	0,038
-63,607	-200,000	0,001	-0,171
-62,592	-135,696	0,186	0,016
-61,578	-118,466	0,093	0,012
-60,563	800,000	0,027	0,061
-59,549	-200,000	-0,028	0,108
-58,534	99,236	-2,585	-2,145
-57,519	-52,757	0,413	-0,136
-56,505	-200,000	-1,628	-5,381
-55,490	449,853	1,317	2,093
-54,476	800,000	5,239	11,216
-53,461	-200,000	22,255	346,185
-52,446	800,000	759,890	2290,400
-51,432	512,662	1644,914	2761,649
-50,417	96,857	1607,942	1322,034
-49,403	64,641	1265,161	914,575
-48,388	22,907	1016,950	596,873
-47,373	19,397	984,278	566,107
-46,359	12,868	971,234	537,243
-45,344	8,501	968,249	521,272
-44,330	9,018	966,150	521,812
-43,315	8,026	964,398	517,603
-42,300	7,896	963,294	516,567
-41,286	7,917	962,298	516,079
-40,271	7,926	961,218	515,511
-39,257	7,929	960,314	515,016
-38,242	7,861	959,656	514,420
-37,227	7,871	958,806	513,978
-36,213	7,879	957,959	513,529
-35,198	7,883	957,037	513,025
-34,184	7,944	956,160	512,735
-33,169	7,888	955,403	512,128
-32,154	7,919	954,486	511,715
-31,140	7,925	953,426	511,144
-30,125	7,962	952,669	510,839
-29,111	7,974	951,956	510,476
-28,096	7,919	951,447	510,003
-27,082	8,004	950,472	509,737
-26,067	7,931	949,800	509,119
-25,052	7,871	949,164	508,567
-24,038	7,893	948,288	508,146
-23,023	7,836	947,779	507,672
-22,009	7,877	947,216	507,482
-20,994	7,950	946,536	507,331
-19,979	7,895	945,945	506,816
-18,965	7,868	945,340	506,386
-17,950	7,951	944,533	506,200
-16,936	7,848	944,001	505,566
-15,921	7,856	943,309	505,202
-14,906	7,800	942,458	504,545
-13,892	7,837	941,953	504,374
-12,877	7,778	941,463	503,902
-11,863	7,737	941,006	503,508
-10,848	7,758	940,388	503,224
-9,833	7,927	939,819	503,435
-8,819	7,892	939,042	502,888
-7,804	7,820	938,396	502,295
-6,790	7,738	937,837	501,714
-5,775	7,881	937,309	501,866
-4,760	7,840	936,595	501,334
-3,746	7,886	936,133	501,214
-2,731	7,714	935,264	500,184
-1,717	7,643	934,778	499,679
-0,702	7,659	934,117	499,357
0,313	7,473	933,410	499,144
1,327	10,933	931,093	508,765
2,342	19,683	779,554	448,884
3,356	14,840	447,968	250,638
4,371	-11,347	312,739	147,111
5,386	-15,048	295,155	135,083
6,400	-17,169	289,157	130,222
7,415	-17,479	286,460	128,692
8,429	-18,281	284,561	127,044
9,444	-18,331	283,598	126,554
10,459	-18,229	282,872	126,319
11,473	-18,205	282,317	126,082
12,488	-17,984	281,910	126,103
13,502	-18,148	281,550	125,773
14,517	-18,123	280,871	125,482
15,531	-18,168	280,487	125,256
16,546	-18,116	280,198	125,165
17,561	-18,252	279,750	124,823
18,575	-18,237	279,501	124,716
19,590	-18,213	279,137	124,565
20,604	-18,206	278,789	124,406
21,619	-18,127	278,279	124,242
22,634	-18,148	277,885	124,035
23,648	-18,266	277,803	123,876
24,663	-18,218	277,415	123,737
25,677	-18,176	277,186	123,663
26,692	-18,212	277,011	123,541
27,707	-18,053	276,742	123,560
28,721	-18,088	276,391	123,360
29,736	-18,116	275,994	123,145
30,750	-18,262	275,903	122,955
31,765	-18,253	275,638	122,834
32,780	-18,046	275,395	122,910
33,794	-18,172	275,164	122,678
34,809	-18,107	274,834	122,581
35,823	-18,186	274,637	122,407
36,838	-17,997	274,237	122,396
37,853	-18,192	273,957	122,077
38,867	-18,075	273,730	122,075
39,882	-18,125	273,653	121,983
40,896	-18,157	273,353	121,808
41,911	-18,048	273,059	121,768
42,926	-18,056	272,782	121,626
43,940	-18,070	272,588	121,516
44,955	-18,151	272,379	121,336
45,969	-18,139	272,012	121,173
46,984	-18,066	272,002	121,226
47,999	-17,987	271,791	121,194
49,013	-18,026	271,620	121,071
50,028	-17,766	271,313	121,165
51,042	-17,693	270,971	121,069
52,057	-17,787	270,851	120,917
53,071	-17,795	270,592	120,784
54,086	-17,895	270,480	120,631
55,101	-17,961	270,292	120,474
56,115	-18,103	270,021	120,212
57,130	-18,036	269,638	120,093
58,144	-18,219	269,351	119,786
59,159	-17,939	269,092	119,918
60,174	-17,996	268,882	119,760
61,188	-17,948	268,573	119,656
62,203	-18,210	268,705	119,464
63,217	-18,008	268,370	119,489
64,232	-18,141	267,960	119,175
65,247	-18,158	267,856	119,102
66,261	-18,195	267,543	118,919
67,276	-18,145	267,336	118,862
68,290	-18,014	267,171	118,897
69,305	-18,003	266,911	118,781
70,320	-17,931	266,816	118,793
71,334	-17,987	266,424	118,558
72,349	-18,011	266,290	118,466
73,363	-18,040	266,027	118,312
74,378	-18,110	265,813	118,142
75,393	-18,061	265,514	118,044
76,407	-17,959	265,335	118,046
77,422	-17,996	265,088	117,892
78,436	-17,982	264,840	117,784
79,451	-18,016	264,585	117,629
80,466	-17,922	264,278	117,567
81,480	-18,094	264,196	117,365
82,495	-17,963	263,984	117,378
83,509	-17,977	263,794	117,270
84,524	-17,824	263,490	117,263
85,539	-17,910	263,375	117,124
86,553	-17,935	263,133	116,983
87,568	-17,983	263,048	116,892
88,582	-17,941	262,720	116,773
89,597	-18,022	262,563	116,621
90,611	-17,951	262,255	116,537
91,626	-18,011	262,109	116,408
92,641	-17,922	261,961	116,411
93,655	-17,891	261,727	116,325
94,670	-18,047	261,510	116,079
95,684	-18,004	261,115	115,931
96,699	-18,179	261,090	115,755
97,714	-17,939	261,002	115,918
98,728	-17,783	260,693	115,909
99,743	-18,041	260,527	115,596
100,757	-17,907	260,323	115,614
101,772	-17,964	260,131	115,468
102,787	-17,870	259,819	115,403
103,801	-17,981	259,676	115,231
104,816	-17,968	259,619	115,207
105,830	-17,847	259,251	115,139
106,845	-18,141	259,219	114,855
107,860	-17,950	258,940	114,890
108,874	-17,926	258,569	114,736
109,889	-17,960	258,436	114,638
110,903	-18,086	258,309	114,460
111,918	-17,965	258,185	114,502
112,933	-17,869	257,856	114,429
113,947	-17,945	257,599	114,238
114,962	-17,923	257,466	114,189
115,976	-17,714	257,212	114,248
116,991	-18,071	257,014	113,838
118,006	-18,217	256,958	113,676
119,020	-18,017	256,622	113,692
120,035	-17,950	256,645	113,750
121,049	-17,861	256,309	113,669
122,064	-17,937	256,197	113,543
123,079	-17,902	255,891	113,427
124,093	-17,783	255,633	113,406
125,108	-17,870	255,477	113,252
126,122	-17,993	255,468	113,131
127,137	-17,792	255,207	113,179
128,151	-17,904	255,056	113,005
129,166	-17,960	254,749	112,810
130,181	-17,897	254,528	112,757
131,195	-17,677	254,346	112,856
132,210	-17,967	254,084	112,479
133,224	-17,972	253,960	112,410
134,239	-17,971	253,689	112,282
135,254	-17,849	253,580	112,328
136,268	-17,814	253,346	112,245
137,283	-18,044	253,171	111,960
138,297	-17,833	252,934	112,026
139,312	-17,970	252,642	111,769
140,327	-18,005	252,474	111,655
141,341	-18,069	252,401	111,558
142,356	-18,017	252,143	111,478
143,370	-17,932	251,900	111,433
144,385	-17,742	251,668	111,483
145,400	-17,962	251,468	111,197
146,414	-17,816	251,355	111,261
147,429	-17,893	251,145	111,093
148,443	-18,001	250,974	110,915
149,458	-17,947	250,762	110,858
150,473	-18,023	250,711	110,761
151,487	-17,861	250,496	110,794
152,502	-17,888	250,210	110,634
153,516	-17,860	250,029	110,568
154,531	-17,901	249,951	110,489
155,546	-17,747	249,637	110,471
156,560	-17,808	249,567	110,378
157,575	-17,819	249,213	110,203
158,589	-17,859	249,336	110,213
159,604	-17,667	248,801	110,128
160,619	-17,947	248,788	109,877
161,633	-18,045	248,569	109,689
162,648	-17,943	248,519	109,743
163,662	-17,756	248,325	109,804
164,677	-17,667	248,070	109,756
165,692	-17,748	247,933	109,618
166,706	-17,886	247,758	109,415
167,721	-17,907	247,643	109,336
168,735	-18,029	247,372	109,105
169,750	-17,860	247,287	109,199
170,764	-17,890	247,172	109,114
171,779	-17,786	246,882	109,063
172,794	-17,811	246,716	108,959
173,808	-17,850	246,651	108,888
174,823	-17,857	246,464	108,791
175,837	-17,746	246,265	108,785
176,852	-17,903	246,143	108,590
177,867	-17,829	245,916	108,543
178,881	-17,732	245,811	108,567
179,896	-17,954	245,594	108,277
180,910	-17,789	245,348	108,296
181,925	-17,812	245,105	108,160
182,940	-17,942	245,003	107,998
183,954	-17,756	244,726	108,020
184,969	-17,771	244,717	107,994
185,983	-18,035	244,580	107,705
186,998	-17,757	244,373	107,834
188,013	-17,755	244,055	107,686
189,027	-17,788	243,849	107,558
190,042	-17,902	243,718	107,397
191,056	-17,926	243,674	107,348
192,071	-17,902	243,394	107,235
193,086	-17,960	243,350	107,158
194,100	-17,858	243,082	107,115
195,115	-17,726	242,715	107,051
196,129	-18,001	242,751	106,832
197,144	-17,900	242,516	106,802
198,159	-18,003	242,332	106,627
199,173	-17,770	242,113	106,712
200,188	-17,821	241,951	106,589
201,202	-17,865	241,896	106,520
202,217	-17,803	241,692	106,470
203,232	-17,624	241,322	106,444
204,246	-17,653	241,242	106,376
205,261	-17,604	241,094	106,340
206,275	-16,173	241,741	107,783
207,290	-11,160	243,440	112,640
208,304	-5,147	245,082	118,342
209,319	-3,161	245,706	120,270
210,334	-2,709	245,701	120,629
211,348	-1,873	245,848	121,379
212,363	-1,686	245,931	121,563
213,377	-0,698	245,788	122,294
214,392	-0,177	246,046	122,840
215,407	0,235	246,172	123,231
216,421	0,593	245,852	123,354
217,436	0,478	245,704	123,175
218,450	0,725	245,510	123,269
219,465	0,770	245,346	123,213
220,480	0,595	245,322	123,046
221,494	0,530	245,096	122,869
222,509	0,320	244,887	122,581
223,523	0,195	244,668	122,359
224,538	0,046	244,485	122,135
225,553	0,053	244,410	122,092
226,567	0,146	244,152	122,028
227,582	0,160	243,998	121,951
228,596	0,261	243,663	121,855
229,611	0,207	243,571	121,755
230,626	0,077	243,411	121,558
231,640	0,043	243,376	121,502
232,655	0,270	243,046	121,511
233,669	0,059	242,956	121,284
234,684	-0,048	242,786	121,101
235,699	0,131	242,721	121,203
236,713	-0,100	242,702	120,995
237,728	0,040	242,362	120,928
238,742	0,216	241,958	120,858
239,757	0,106	242,021	120,790
240,772	0,037	241,863	120,645
241,786	0,036	241,732	120,568
242,801	-0,029	241,612	120,445
243,815	0,149	241,472	120,508
244,830	0,290	241,141	120,445
245,844	0,062	241,105	120,234
246,859	0,071	240,930	120,142
247,874	-0,100	240,829	119,944
248,888	0,143	240,700	120,064
249,903	0,089	240,529	119,925
250,917	0,104	240,303	119,814
251,932	0,026	240,232	119,705
252,947	-0,068	240,024	119,516
253,961	0,183	239,852	119,620
254,976	-0,018	239,658	119,352
255,990	0,099	239,528	119,370
257,005	0,136	239,330	119,290
258,020	0,150	239,206	119,229
259,034	0,155	239,054	119,146
260,049	0,198	238,961	119,124
261,063	0,044	238,737	118,879
262,078	0,133	238,594	118,868
263,093	0,018	238,458	118,698
264,107	0,030	238,260	118,598
265,122	0,193	238,132	118,653
266,136	0,311	237,916	118,629
267,151	0,249	237,877	118,549
268,166	0,171	237,659	118,368
269,180	0,179	237,377	118,224
270,195	0,203	237,385	118,236
271,209	0,278	237,195	118,190
272,224	0,069	237,106	117,971
273,239	0,010	236,937	117,829
274,253	0,236	236,704	117,881
275,268	0,055	236,677	117,715
276,282	0,167	236,608	117,758
277,297	0,172	236,230	117,563
278,312	0,215	236,133	117,539
279,326	0,324	236,071	117,582
280,341	0,224	235,890	117,403
281,355	0,259	235,676	117,314
282,370	0,231	235,500	117,194
283,384	0,184	235,364	117,079
284,399	0,072	235,351	116,975
285,414	0,089	235,084	116,845
286,428	0,189	234,890	116,815
287,443	0,365	234,764	116,880
288,457	0,152	234,711	116,677
289,472	0,189	234,543	116,612
290,487	0,270	234,313	116,550
291,501	0,136	234,222	116,391
292,516	0,206	233,917	116,283
293,530	0,124	233,956	116,228
294,545	0,376	233,785	116,329
295,560	0,300	233,602	116,168
296,574	0,417	233,527	116,211
297,589	0,292	233,254	115,968
298,603	0,375	233,144	115,968
299,618	0,381	232,928	115,854
300,633	0,357	232,874	115,798
301,647	0,160	232,799	115,599
302,662	0,263	232,570	115,554
303,676	0,521	232,475	115,696
304,691	0,386	232,329	115,508
305,706	0,467	232,133	115,463
306,720	0,311	232,075	115,304
307,735	0,394	231,971	115,306
308,749	0,226	231,743	115,053
309,764	0,487	231,584	115,164
310,779	0,501	231,269	115,008
311,793	0,218	231,409	114,851
312,808	0,577	231,189	115,007
313,822	0,482	230,963	114,811
314,837	0,465	230,818	114,715
315,852	0,775	230,604	114,836
316,866	0,655	230,615	114,739
317,881	0,465	230,446	114,499
318,895	0,672	230,096	114,473
319,910	0,621	229,993	114,373
320,925	0,625	229,898	114,319
321,939	0,389	229,814	114,087
322,954	0,357	229,797	114,044
323,968	0,551	229,689	114,128
324,983	0,515	229,511	114,002
325,997	0,546	229,207	113,864
327,012	0,416	229,035	113,671
328,027	0,215	229,049	113,515
329,041	0,288	228,912	113,492
330,056	0,572	228,634	113,559
331,070	0,627	228,378	113,463
332,085	0,738	228,335	113,516
333,100	0,470	228,233	113,252
334,114	0,530	227,983	113,164
335,129	0,702	227,869	113,227
336,143	0,553	227,760	113,050
337,158	0,611	227,741	113,074
338,173	0,606	227,601	112,991
339,187	0,818	227,352	113,016
340,202	0,780	227,219	112,912
341,216	0,726	227,131	112,817
342,231	0,798	226,953	112,773
343,246	0,645	226,759	112,552
344,260	0,591	226,706	112,475
345,275	0,916	226,507	112,609
346,289	0,741	226,408	112,419
347,304	0,660	226,294	112,292
348,319	0,760	226,085	112,253
349,333	0,495	226,017	112,011
350,348	0,683	225,777	112,022
351,362	0,620	225,625	111,890
352,377	0,695	225,483	111,866
353,392	0,552	225,449	111,732
354,406	0,651	225,353	111,748
355,421	192,284	1313,173	1379,336
356,435	154,019	1445,559	1379,177
