DTS Sentinel unit serial number:	SN410029Multiplexer serial number:	ORYXHardware model number:	OX2-SRSoftware version number:	ORYX F/W v4,00 Oryx Data Collector v3.7.2.0data status	okinstallation	B5 Nyhavnadifferential loss correction	single-endedforward channel	channel 2reverse channel	N/Adate	2023/12/14time	18:27:13forward acquisition time	300,00reverse acquisition time	0,00gamma	499,1914k internal	0,3156k external	0,3156temperature offset calibration	1,0000default loss term (dB/km)	0,3820temperature slope calibration	1,0000multiplexer offset coefficient	1,0000multiplexer slope coefficient	1,0000fibre end	0,00T internal ref (°C)	8,49T ext. ref 1 (°C)	-6,78T ext. ref 2 (°C)	-6,83length (m)	temperature (°C)	Stokes	anti-Stokes-744,400	86,875	0,158	0,129
-743,385	-70,873	-0,430	-0,119
-742,371	251,666	0,139	0,175
-741,356	-138,343	-0,255	-0,020
-740,342	-72,448	0,214	0,058
-739,327	-64,525	-0,422	-0,126
-738,312	-99,130	0,085	-0,016
-737,298	-93,530	-0,396	-0,080
-736,283	-57,650	0,190	-0,061
-735,269	-175,905	-0,280	0,005
-734,254	150,838	0,199	0,199
-733,239	92,766	-0,535	-0,445
-732,225	-43,824	0,224	0,083
-731,210	-60,751	0,163	0,051
-730,196	371,749	-0,046	0,069
-729,181	-200,000	-0,006	-0,095
-728,167	800,000	0,016	-0,051
-727,152	-200,000	0,006	-0,128
-726,137	1,050	-0,088	0,046
-725,123	-100,197	-0,118	-0,022
-724,108	800,000	0,055	-0,126
-723,094	413,041	-0,043	-0,067
-722,079	-3,817	0,104	0,053
-721,064	388,556	0,092	0,141
-720,050	169,533	-0,096	-0,101
-719,035	17,163	0,062	0,036
-718,021	-138,517	-0,110	-0,009
-717,006	86,295	-0,046	0,037
-715,991	800,000	-0,052	-0,144
-714,977	800,000	0,044	-0,139
-713,962	-21,999	-0,041	0,018
-712,948	76,934	-0,053	-0,042
-711,933	-28,723	-0,081	0,034
-710,918	-183,013	-0,125	0,002
-709,904	-200,000	0,012	-0,099
-708,889	-149,885	-0,152	0,009
-707,875	252,017	0,065	-0,082
-706,860	-87,665	0,146	0,032
-705,845	315,502	-0,106	0,147
-704,831	-200,000	0,004	-0,057
-703,816	154,138	-0,103	-0,104
-702,802	27,122	0,014	0,009
-701,787	70,942	-0,069	0,052
-700,772	-200,000	0,000	-0,019
-699,758	424,067	-0,031	-0,049
-698,743	83,222	0,128	0,103
-697,729	-200,000	0,003	-0,060
-696,714	28,356	-0,113	-0,070
-695,699	800,000	-0,025	0,062
-694,685	-149,688	-0,068	0,004
-693,670	-16,943	-0,097	0,045
-692,656	-200,000	-0,012	-0,041
-691,641	-168,195	0,041	0,001
-690,627	58,202	0,067	-0,048
-689,612	-186,023	-0,107	0,001
-688,597	-200,000	-0,009	0,057
-687,583	-94,609	-0,076	-0,015
-686,568	-134,694	-0,109	-0,010
-685,554	-200,000	-0,037	-0,145
-684,539	42,160	0,113	-0,076
-683,524	-200,000	-0,010	0,059
-682,510	-200,000	0,002	-0,048
-681,495	206,094	0,003	-0,004
-680,481	138,050	-0,185	-0,179
-679,466	-70,902	-0,163	0,045
-678,451	3,354	0,036	0,019
-677,437	-200,000	0,002	-0,113
-676,422	-112,359	-0,088	0,013
-675,408	469,920	0,044	0,073
-674,393	-52,702	0,130	0,044
-673,378	-200,000	0,002	-0,114
-672,364	42,902	-0,121	-0,081
-671,349	800,000	-0,026	-0,080
-670,335	71,350	0,111	0,085
-669,320	-200,000	-0,012	-0,050
-668,305	557,666	-0,035	0,063
-667,291	95,446	0,109	0,091
-666,276	39,214	-0,092	-0,060
-665,262	-106,675	-0,030	-0,005
-664,247	-46,986	-0,061	-0,022
-663,232	-158,681	0,064	-0,003
-662,218	-200,000	0,014	0,064
-661,203	-115,975	-0,113	0,015
-660,189	443,527	0,006	0,010
-659,174	750,733	-0,043	-0,086
-658,159	-200,000	-0,032	-0,107
-657,145	123,425	-0,100	-0,092
-656,130	101,442	0,049	0,042
-655,116	262,947	0,088	-0,113
-654,101	249,875	-0,074	-0,092
-653,086	-89,105	-0,013	0,003
-652,072	208,491	-0,025	-0,029
-651,057	39,160	-0,006	-0,004
-650,043	714,967	-0,021	0,040
-649,028	-95,672	-0,098	-0,019
-648,014	-102,444	0,188	0,033
-646,999	133,054	0,046	-0,043
-645,984	155,628	-0,066	-0,067
-644,970	-90,436	0,115	-0,024
-643,955	94,667	-0,101	-0,084
-642,941	241,989	-0,098	-0,121
-641,926	344,331	0,047	-0,068
-640,911	-62,461	-0,081	-0,025
-639,897	125,730	-0,055	0,051
-638,882	-200,000	0,031	0,141
-637,868	-200,000	-0,050	0,227
-636,853	800,000	-0,019	0,056
-635,838	-200,000	-0,010	-0,153
-634,824	800,000	0,020	-0,055
-633,809	143,660	-0,037	-0,036
-632,795	800,000	-0,030	-0,089
-631,780	-200,000	0,015	-0,071
-630,765	61,035	-0,146	-0,107
-629,751	-41,656	-0,128	-0,048
-628,736	75,449	-0,065	0,051
-627,722	-200,000	0,032	-0,205
-626,707	145,527	0,070	0,069
-625,692	800,000	-0,094	0,212
-624,678	22,685	0,174	0,105
-623,663	262,669	-0,030	0,039
-622,649	321,888	0,019	-0,027
-621,634	800,000	-0,007	0,019
-620,619	624,860	0,058	-0,107
-619,605	149,143	-0,056	-0,055
-618,590	-200,000	-0,002	0,026
-617,576	-140,003	-0,031	-0,002
-616,561	347,054	0,037	0,053
-615,546	69,735	0,049	0,037
-614,532	-98,348	-0,102	-0,019
-613,517	-108,605	-0,028	0,004
-612,503	-8,248	0,111	0,054
-611,488	-125,324	0,070	0,008
-610,474	496,648	-0,044	0,074
-609,459	-116,589	-0,190	0,025
-608,444	800,000	-0,017	-0,053
-607,430	-200,000	0,023	-0,133
-606,415	209,620	0,029	-0,033
-605,401	-57,450	0,072	0,023
-604,386	-200,000	0,003	-0,016
-603,371	-200,000	0,004	0,163
-602,357	163,410	0,075	0,078
-601,342	-144,353	-0,087	-0,006
-600,328	-72,875	-0,095	0,026
-599,313	-200,000	0,032	-0,141
-598,298	132,997	0,067	0,063
-597,284	-134,217	0,120	0,011
-596,269	41,716	0,048	0,032
-595,255	291,279	-0,067	-0,089
-594,240	-200,000	-0,045	-0,157
-593,225	800,000	0,045	-0,143
-592,211	153,933	-0,044	-0,044
-591,196	-200,000	-0,004	0,152
-590,182	42,686	0,064	0,043
-589,167	-52,306	0,059	-0,020
-588,152	-73,614	-0,241	0,064
-587,138	151,552	0,050	-0,050
-586,123	-125,232	-0,090	0,010
-585,109	295,711	-0,058	-0,078
-584,094	-29,425	-0,069	-0,029
-583,079	146,597	0,032	-0,032
-582,065	800,000	-0,038	-0,085
-581,050	-12,597	-0,052	0,025
-580,036	-122,570	-0,111	0,013
-579,021	-200,000	0,010	-0,069
-578,006	-200,000	-0,002	-0,072
-576,992	-200,000	-0,022	-0,081
-575,977	-200,000	-0,017	-0,103
-574,963	-200,000	0,053	0,187
-573,948	800,000	-0,018	0,059
-572,934	-200,000	0,041	0,141
-571,919	-69,618	-0,044	-0,012
-570,904	-200,000	0,047	-0,164
-569,890	338,449	0,039	-0,056
-568,875	-200,000	0,015	-0,082
-567,861	800,000	0,106	0,217
-566,846	-200,000	-0,008	0,059
-565,831	204,916	-0,034	-0,039
-564,817	133,463	-0,057	0,054
-563,802	551,593	0,053	-0,093
-562,788	131,543	-0,022	0,020
-561,773	10,076	-0,149	0,083
-560,758	-128,261	0,037	-0,004
-559,744	208,221	0,040	-0,045
-558,729	800,000	0,036	0,089
-557,715	586,872	-0,014	-0,025
-556,700	-200,000	0,013	-0,124
-555,685	-135,798	0,098	-0,008
-554,671	-94,937	-0,091	-0,018
-553,656	-4,040	0,085	0,043
-552,642	-53,071	0,110	0,037
-551,627	800,000	0,075	0,171
-550,612	-63,477	-0,138	-0,041
-549,598	-80,670	-0,116	-0,028
-548,583	-89,805	0,202	0,043
-547,569	-121,866	-0,082	0,010
-546,554	-10,120	0,007	0,003
-545,539	128,454	-0,084	0,078
-544,525	157,456	0,017	0,017
-543,510	351,945	-0,022	-0,033
-542,496	-200,000	0,023	-0,126
-541,481	201,210	-0,060	-0,068
-540,466	452,715	0,054	-0,087
-539,452	275,277	-0,078	0,101
-538,437	-134,409	-0,088	0,008
-537,423	-200,000	0,010	-0,122
-536,408	-200,000	-0,020	0,073
-535,393	95,031	-0,076	-0,064
-534,379	800,000	-0,028	-0,063
-533,364	-111,649	-0,149	-0,022
-532,350	-117,894	0,141	0,018
-531,335	-36,101	0,125	-0,049
-530,321	-200,000	0,018	0,103
-529,306	-119,807	-0,063	-0,008
-528,291	800,000	0,027	-0,087
-527,277	-31,789	0,044	-0,018
-526,262	682,229	-0,064	-0,123
-525,248	-98,692	-0,074	0,014
-524,233	82,756	0,017	0,013
-523,218	800,000	-0,057	0,132
-522,204	-123,385	-0,052	-0,006
-521,189	334,628	0,007	0,010
-520,175	-60,545	-0,094	0,029
-519,160	148,148	-0,080	-0,079
-518,145	268,051	0,053	0,069
-517,131	6,794	0,022	0,012
-516,116	-40,089	-0,058	-0,022
-515,102	-157,753	0,097	-0,004
-514,087	-39,258	0,055	0,021
-513,072	-44,099	0,026	0,009
-512,058	-112,209	0,046	0,007
-511,043	-87,657	0,157	-0,034
-510,029	-94,746	0,188	-0,037
-509,014	388,770	-0,027	-0,040
-507,999	-200,000	0,011	-0,047
-506,985	-8,889	0,045	0,022
-505,970	438,877	-0,070	-0,113
-504,956	800,000	0,049	-0,124
-503,941	-200,000	0,001	0,048
-502,926	522,458	0,040	-0,069
-501,912	-182,520	0,076	-0,001
-500,897	-102,720	0,122	-0,021
-499,883	24,781	-0,143	-0,086
-498,868	77,569	0,059	-0,046
-497,853	143,587	-0,089	0,086
-496,839	-200,000	0,017	-0,112
-495,824	-200,000	0,012	-0,060
-494,810	-200,000	0,059	0,000
-493,795	-200,000	0,004	0,035
-492,781	-200,000	-0,012	0,066
-491,766	144,645	-0,058	0,056
-490,751	-200,000	0,001	-0,065
-489,737	-200,000	-0,000	0,116
-488,722	91,042	0,031	0,025
-487,708	-166,217	0,108	-0,003
-486,693	-77,930	-0,080	-0,020
-485,678	198,989	-0,032	-0,036
-484,664	-85,156	0,109	-0,025
-483,649	210,448	-0,082	0,094
-482,635	577,842	0,022	0,040
-481,620	19,225	0,055	-0,032
-480,605	-200,000	0,012	0,045
-479,591	-79,659	0,115	0,028
-478,576	121,999	0,081	-0,074
-477,562	191,630	-0,087	-0,096
-476,547	-73,518	0,189	-0,050
-475,532	65,144	0,053	-0,039
-474,518	-200,000	-0,004	-0,070
-473,503	-200,000	0,053	0,202
-472,489	211,331	-0,128	0,147
-471,474	-200,000	0,011	-0,073
-470,459	800,000	-0,018	0,038
-469,445	800,000	-0,013	-0,027
-468,430	246,085	-0,108	0,133
-467,416	800,000	0,037	-0,097
-466,401	-4,416	0,080	0,040
-465,386	800,000	0,057	-0,159
-464,372	-75,915	0,127	0,033
-463,357	618,347	0,026	-0,048
-462,343	-200,000	-0,055	-0,207
-461,328	-200,000	0,008	0,031
-460,313	800,000	0,009	-0,028
-459,299	116,148	0,111	0,099
-458,284	99,847	-0,046	0,038
-457,270	800,000	0,023	-0,063
-456,255	479,248	0,069	-0,115
-455,241	700,880	-0,015	0,029
-454,226	-200,000	0,011	-0,076
-453,211	-200,000	0,022	-0,081
-452,197	-200,000	-0,013	0,126
-451,182	-57,897	-0,076	0,024
-450,168	10,482	0,061	-0,034
-449,153	-155,936	-0,116	0,005
-448,138	-133,339	-0,083	-0,008
-447,124	-200,000	-0,054	0,000
-446,109	-56,691	-0,087	0,028
-445,095	-63,280	0,078	0,023
-444,080	108,013	-0,125	0,108
-443,065	51,244	0,142	0,098
-442,051	-105,285	-0,217	-0,036
-441,036	564,637	-0,025	0,045
-440,022	800,000	0,012	0,033
-439,007	-200,000	0,027	-0,152
-437,992	-74,854	0,070	0,018
-436,978	-76,720	0,073	-0,018
-435,963	89,701	0,006	-0,005
-434,949	256,880	0,042	0,052
-433,934	-200,000	-0,010	-0,151
-432,919	-108,720	-0,158	0,024
-431,905	2,524	0,106	0,056
-430,890	18,456	-0,089	-0,052
-429,876	800,000	0,053	0,161
-428,861	7,012	-0,027	-0,015
-427,846	279,685	0,056	-0,072
-426,832	143,618	0,022	0,021
-425,817	-200,000	-0,005	-0,114
-424,803	521,570	0,050	0,086
-423,788	15,185	0,190	0,108
-422,773	800,000	-0,029	-0,076
-421,759	-39,597	-0,052	-0,020
-420,744	-50,901	0,050	0,017
-419,730	-200,000	0,003	0,139
-418,715	-32,722	0,087	-0,035
-417,701	-200,000	0,016	-0,081
-416,686	800,000	-0,025	0,057
-415,671	-200,000	0,023	0,088
-414,657	800,000	-0,030	0,089
-413,642	800,000	-0,012	-0,028
-412,628	-200,000	0,001	-0,007
-411,613	-200,000	-0,023	-0,099
-410,598	-200,000	0,009	0,136
-409,584	-200,000	-0,006	-0,038
-408,569	53,427	0,107	0,074
-407,555	800,000	0,010	0,026
-406,540	247,104	0,079	0,097
-405,525	-124,675	-0,063	0,007
-404,511	363,507	-0,054	-0,079
-403,496	265,310	0,056	0,072
-402,482	18,444	-0,073	-0,042
-401,467	-194,409	-0,067	-0,000
-400,452	118,275	0,050	-0,045
-399,438	-200,000	-0,009	-0,040
-398,423	-78,126	-0,183	0,045
-397,409	-49,884	-0,126	-0,043
-396,394	-165,603	0,140	-0,004
-395,379	-47,172	-0,064	0,023
-394,365	761,360	-0,070	0,138
-393,350	71,953	0,118	0,090
-392,336	703,090	-0,079	0,153
-391,321	39,574	0,093	-0,060
-390,306	198,313	-0,051	-0,057
-389,292	800,000	-0,033	0,083
-388,277	439,328	0,035	0,056
-387,263	22,181	0,058	-0,035
-386,248	-90,508	0,094	0,020
-385,233	-200,000	-0,017	0,100
-384,219	141,662	-0,113	0,109
-383,204	90,196	0,013	0,011
-382,190	226,886	-0,048	-0,057
-381,175	-200,000	-0,002	-0,043
-380,160	-138,380	0,145	-0,011
-379,146	141,584	-0,055	0,053
-378,131	153,107	0,055	-0,054
-377,117	800,000	-0,065	0,144
-376,102	146,448	-0,020	-0,019
-375,088	-98,222	-0,174	-0,032
-374,073	800,000	0,010	0,025
-373,058	-200,000	0,007	-0,026
-372,044	692,507	0,078	0,150
-371,029	646,800	0,057	0,107
-370,015	15,097	0,052	-0,030
-369,000	27,526	-0,014	0,008
-367,985	-200,000	-0,024	-0,122
-366,971	152,069	0,047	-0,047
-365,956	800,000	-0,091	0,249
-364,942	-97,444	0,055	0,010
-363,927	550,664	-0,059	0,103
-362,912	-200,000	-0,007	0,135
-361,898	60,633	0,134	-0,096
-360,883	45,493	0,077	-0,051
-359,869	-200,000	-0,002	-0,094
-358,854	37,906	0,033	0,021
-357,839	-200,000	-0,010	-0,092
-356,825	252,524	0,114	-0,142
-355,810	-200,000	-0,003	-0,037
-354,796	-56,502	-0,158	0,051
-353,781	-100,851	0,080	0,014
-352,766	800,000	0,053	0,108
-351,752	2,029	-0,055	0,029
-350,737	158,004	-0,021	0,021
-349,723	-123,424	0,050	-0,006
-348,708	349,619	0,040	-0,057
-347,693	-38,211	-0,043	0,017
-346,679	-135,976	-0,067	-0,006
-345,664	-101,494	-0,101	-0,018
-344,650	133,543	0,083	0,078
-343,635	-114,748	0,142	0,020
-342,620	-200,000	0,003	0,055
-341,606	-200,000	-0,007	0,111
-340,591	2,360	-0,096	0,050
-339,577	-200,000	-0,012	0,104
-338,562	-30,091	-0,028	-0,011
-337,548	-200,000	-0,010	-0,049
-336,533	200,331	0,054	-0,060
-335,518	82,789	-0,091	0,072
-334,504	26,088	0,057	0,034
-333,489	-82,240	-0,132	0,031
-332,475	-200,000	-0,012	-0,096
-331,460	25,301	-0,151	-0,091
-330,445	-152,456	0,062	0,003
-329,431	-90,668	-0,076	-0,016
-328,416	170,777	0,068	0,070
-327,402	17,396	-0,022	-0,013
-326,387	-67,622	0,048	0,014
-325,372	-79,896	-0,130	0,031
-324,358	-179,380	0,100	-0,002
-323,343	225,372	-0,071	-0,083
-322,329	-194,490	-0,086	-0,000
-321,314	82,451	0,021	0,016
-320,299	268,681	0,073	0,093
-319,285	-140,632	0,132	0,010
-318,270	-116,163	-0,110	-0,015
-317,256	65,821	0,019	-0,014
-316,241	267,962	0,027	0,034
-315,226	211,526	0,052	-0,059
-314,212	800,000	0,030	0,079
-313,197	128,957	0,029	0,027
-312,183	461,437	0,037	0,061
-311,168	426,566	-0,074	-0,116
-310,153	-98,338	-0,055	-0,010
-309,139	-8,495	0,079	0,038
-308,124	-171,731	0,164	-0,004
-307,110	99,199	0,147	-0,123
-306,095	327,902	-0,086	0,119
-305,080	-1,679	0,149	0,076
-304,066	38,906	-0,155	-0,100
-303,051	100,194	-0,114	-0,096
-302,037	-200,000	-0,008	-0,117
-301,022	34,492	0,065	-0,041
-300,008	106,362	0,080	-0,069
-298,993	299,246	-0,020	0,027
-297,978	-200,000	-0,029	0,163
-296,964	20,399	-0,075	0,044
-295,949	-59,507	-0,143	-0,044
-294,935	45,138	0,027	0,018
-293,920	800,000	0,049	-0,116
-292,905	477,551	0,078	0,129
-291,891	800,000	0,025	-0,076
-290,876	85,176	0,122	-0,097
-289,862	-200,000	0,013	-0,092
-288,847	58,418	0,101	0,072
-287,832	-200,000	0,026	-0,125
-286,818	800,000	-0,055	0,115
-285,803	-168,811	0,079	-0,002
-284,789	-200,000	-0,024	0,110
-283,774	-75,358	0,038	-0,010
-282,759	-200,000	0,015	0,068
-281,745	154,986	-0,018	-0,018
-280,730	169,828	0,020	-0,020
-279,716	800,000	-0,032	-0,083
-278,701	-200,000	-0,015	0,059
-277,686	-92,628	0,073	-0,015
-276,672	-26,215	0,093	0,039
-275,657	-67,852	0,115	-0,032
-274,643	-109,367	-0,103	-0,016
-273,628	-156,054	0,020	0,001
-272,613	92,900	-0,100	0,082
-271,599	198,453	-0,026	0,029
-270,584	364,449	0,037	-0,054
-269,570	-50,820	0,052	0,018
-268,555	-200,000	-0,016	0,101
-267,540	800,000	-0,029	-0,071
-266,526	149,665	0,020	-0,019
-265,511	-200,000	-0,001	-0,066
-264,497	-90,256	0,117	-0,024
-263,482	-72,196	0,016	0,004
-262,467	225,452	0,071	0,084
-261,453	800,000	0,027	-0,063
-260,438	201,021	-0,055	-0,061
-259,424	-52,755	-0,131	-0,044
-258,409	238,069	0,065	-0,078
-257,395	800,000	-0,017	-0,034
-256,380	-92,068	-0,035	-0,007
-255,365	-75,842	0,042	0,011
-254,351	-85,938	0,078	-0,017
-253,336	317,063	-0,046	-0,063
-252,322	-200,000	0,014	-0,130
-251,307	-111,591	0,156	-0,023
-250,292	612,631	-0,041	-0,074
-249,278	-100,943	-0,087	-0,015
-248,263	40,660	0,130	0,085
-247,249	-200,000	-0,007	0,044
-246,234	-27,616	-0,016	-0,007
-245,219	18,083	-0,053	0,031
-244,205	274,617	0,056	-0,072
-243,190	-57,641	0,154	-0,049
-242,176	33,591	-0,144	-0,090
-241,161	800,000	-0,029	0,081
-240,146	800,000	0,015	-0,038
-239,132	66,923	-0,123	-0,091
-238,117	-179,293	-0,088	0,001
-237,103	245,012	-0,097	0,118
-236,088	-200,000	0,001	-0,064
-235,073	-200,000	-0,008	-0,085
-234,059	-200,000	0,007	0,044
-233,044	-36,004	0,097	0,038
-232,030	-30,948	0,019	0,008
-231,015	53,800	-0,092	0,064
-230,000	-200,000	0,000	0,020
-228,986	-21,465	0,044	-0,019
-227,971	-200,000	0,002	0,058
-226,957	-200,000	0,030	0,127
-225,942	-120,372	-0,073	0,009
-224,927	-186,911	-0,050	0,000
-223,913	-71,789	-0,033	-0,009
-222,898	-200,000	0,023	-0,120
-221,884	372,353	-0,110	-0,161
-220,869	344,693	0,072	0,103
-219,855	-11,656	-0,042	-0,020
-218,840	187,600	0,116	-0,125
-217,825	-200,000	0,016	0,051
-216,811	-200,000	0,019	0,106
-215,796	-116,136	-0,104	0,014
-214,782	-54,694	0,039	0,013
-213,767	800,000	0,066	0,184
-212,752	67,295	-0,018	-0,013
-211,738	168,607	-0,142	-0,146
-210,723	48,656	0,063	-0,042
-209,709	800,000	-0,041	0,088
-208,694	19,373	-0,067	-0,039
-207,679	800,000	-0,022	0,044
-206,665	-200,000	-0,006	0,156
-205,650	-200,000	0,015	-0,059
-204,636	82,635	-0,010	0,008
-203,621	800,000	-0,023	-0,049
-202,606	-130,183	-0,137	0,013
-201,592	-76,926	-0,098	0,025
-200,577	-124,182	-0,029	0,003
-199,563	452,016	-0,011	-0,017
-198,548	537,459	-0,043	-0,074
-197,533	129,239	-0,038	0,035
-196,519	-144,369	0,202	-0,013
-195,504	-200,000	-0,014	-0,061
-194,490	-117,073	0,084	0,011
-193,475	661,872	-0,020	0,037
-192,460	-200,000	0,000	-0,034
-191,446	800,000	0,033	0,093
-190,431	281,834	0,050	-0,065
-189,417	800,000	-0,022	-0,060
-188,402	-126,859	-0,120	0,013
-187,387	800,000	-0,041	0,082
-186,373	327,431	0,075	-0,104
-185,358	-200,000	-0,025	0,120
-184,344	-109,375	0,042	0,006
-183,329	-40,755	-0,110	-0,041
-182,315	120,152	-0,156	0,140
-181,300	-200,000	0,021	-0,091
-180,285	488,812	-0,106	-0,176
-179,271	67,730	-0,069	-0,051
-178,256	-115,250	0,024	-0,003
-177,242	88,617	0,099	-0,079
-176,227	596,203	-0,031	0,055
-175,212	255,050	0,065	-0,080
-174,198	324,475	0,084	0,116
-173,183	120,169	-0,009	0,008
-172,169	114,599	-0,095	0,084
-171,154	60,855	-0,119	0,085
-170,139	696,869	0,074	0,141
-169,125	-200,000	-0,002	-0,069
-168,110	-101,568	-0,109	-0,019
-167,096	11,004	0,090	-0,050
-166,081	-200,000	0,010	0,101
-165,066	-22,211	0,091	-0,039
-164,052	-15,964	-0,102	-0,047
-163,037	-104,634	0,113	0,019
-162,023	-200,000	0,012	0,182
-161,008	-56,564	-0,096	0,031
-159,993	48,075	0,044	0,029
-158,979	114,444	0,125	0,109
-157,964	800,000	-0,052	-0,136
-156,950	579,970	-0,044	-0,077
-155,935	-152,206	-0,127	0,007
-154,920	48,427	0,030	0,020
-153,906	-128,126	0,083	0,008
-152,891	800,000	-0,034	0,074
-151,877	-98,206	-0,082	0,015
-150,862	113,988	-0,103	-0,091
-149,847	146,571	0,036	-0,035
-148,833	-103,980	0,132	0,022
-147,818	-200,000	-0,007	0,057
-146,804	77,428	0,093	0,071
-145,789	-200,000	-0,006	-0,022
-144,775	-200,000	0,028	-0,103
-143,760	-200,000	0,012	0,095
-142,745	-200,000	-0,016	-0,063
-141,731	-24,283	-0,094	0,040
-140,716	-200,000	-0,007	0,035
-139,702	-74,674	0,075	-0,019
-138,687	800,000	0,022	-0,052
-137,672	-47,407	-0,018	0,006
-136,658	130,097	-0,020	-0,018
-135,643	23,298	-0,121	-0,071
-134,629	-125,399	-0,109	0,012
-133,614	158,942	-0,032	0,032
-132,599	88,253	0,130	-0,104
-131,585	-64,522	-0,014	-0,004
-130,570	194,296	-0,092	-0,100
-129,556	-82,968	0,067	0,015
-128,541	626,008	-0,049	-0,090
-127,526	117,207	-0,113	0,100
-126,512	614,276	0,033	0,061
-125,497	-200,000	0,010	0,057
-124,483	363,763	-0,049	0,071
-123,468	-5,139	0,067	0,033
-122,453	668,594	0,019	-0,036
-121,439	16,188	0,056	0,032
-120,424	178,250	0,056	-0,058
-119,410	800,000	0,049	-0,111
-118,395	-121,265	0,054	-0,006
-117,380	-200,000	-0,029	0,177
-116,366	10,744	-0,086	0,047
-115,351	224,069	0,115	0,134
-114,337	-200,000	0,002	-0,082
-113,322	17,132	0,056	0,032
-112,307	800,000	-0,018	-0,041
-111,293	-43,687	0,142	-0,051
-110,278	800,000	0,027	0,069
-109,264	-200,000	0,013	0,086
-108,249	360,199	-0,087	-0,126
-107,234	-200,000	0,011	-0,055
-106,220	-200,000	-0,024	-0,148
-105,205	-102,062	0,029	-0,005
-104,191	234,302	0,047	0,055
-103,176	800,000	0,003	0,006
-102,162	153,459	0,021	0,021
-101,147	-149,777	-0,073	-0,004
-100,132	800,000	0,028	-0,083
-99,118	-7,338	-0,094	0,045
-98,103	-51,789	-0,077	-0,026
-97,089	-200,000	0,032	-0,108
-96,074	800,000	0,056	0,153
-95,059	681,284	0,059	-0,111
-94,045	-200,000	-0,013	-0,152
-93,030	477,404	-0,056	-0,091
-92,016	-64,334	0,022	0,006
-91,001	65,401	-0,060	0,044
-89,986	-200,000	-0,005	0,056
-88,972	-200,000	-0,004	0,071
-87,957	-91,779	0,093	-0,019
-86,943	325,436	-0,054	0,075
-85,928	132,930	0,037	0,035
-84,913	800,000	-0,014	-0,030
-83,899	7,993	-0,151	0,081
-82,884	11,811	0,048	0,027
-81,870	-66,657	0,086	-0,024
-80,855	-18,942	-0,099	0,044
-79,840	73,428	0,057	0,043
-78,826	-67,885	-0,091	-0,025
-77,811	-200,000	-0,014	-0,080
-76,797	-200,000	0,036	-0,168
-75,782	-129,571	0,133	0,013
-74,767	159,936	-0,082	0,082
-73,753	-51,494	0,114	-0,038
-72,738	188,689	-0,061	0,066
-71,724	-24,102	-0,052	0,022
-70,709	-31,539	-0,146	0,059
-69,694	193,414	0,023	-0,025
-68,680	-200,000	-0,006	0,082
-67,665	-150,651	0,067	-0,004
-66,651	800,000	0,018	-0,039
-65,636	-78,624	-0,040	-0,010
-64,622	427,897	-0,083	-0,129
-63,607	800,000	0,043	-0,104
-62,592	-116,064	-0,107	0,014
-61,578	16,173	-0,107	-0,060
-60,563	137,142	0,049	0,046
-59,549	240,921	-0,134	0,160
-58,534	78,674	-2,570	-1,972
-57,519	82,988	0,349	-0,273
-56,505	800,000	-1,715	-5,387
-55,490	430,703	1,184	1,847
-54,476	800,000	5,242	11,242
-53,461	-200,000	21,970	343,389
-52,446	800,000	761,828	2303,365
-51,432	514,832	1653,459	2781,561
-50,417	103,140	1617,805	1360,791
-49,403	73,086	1272,868	954,161
-48,388	25,089	1021,829	607,336
-47,373	19,044	988,030	567,238
-46,359	13,238	975,377	540,888
-45,344	9,167	971,918	525,574
-44,330	9,678	969,869	526,123
-43,315	8,635	968,105	521,724
-42,300	8,512	967,017	520,716
-41,286	8,558	965,934	520,259
-40,271	8,521	965,051	519,643
-39,257	8,478	964,200	519,023
-38,242	8,525	963,230	518,635
-37,227	8,562	962,247	518,206
-36,213	8,465	961,662	517,556
-35,198	8,554	960,591	517,248
-34,184	8,577	959,819	516,884
-33,169	8,449	958,966	515,989
-32,154	8,592	957,821	515,818
-31,140	8,540	957,245	515,318
-30,125	8,571	956,418	514,952
-29,111	8,573	955,424	514,403
-28,096	8,587	954,799	514,090
-27,082	8,531	954,276	513,610
-26,067	8,519	953,622	513,199
-25,052	8,521	952,731	512,704
-24,038	8,479	952,071	512,195
-23,023	8,507	951,388	511,897
-22,009	8,525	950,916	511,681
-20,994	8,537	950,261	511,346
-19,979	8,570	949,506	511,026
-18,965	8,484	949,061	510,487
-17,950	8,519	948,398	510,224
-16,936	8,501	947,743	509,793
-15,921	8,499	946,935	509,334
-14,906	8,420	946,343	508,740
-13,892	8,402	945,804	508,375
-12,877	8,414	945,114	508,020
-11,863	8,456	944,290	507,691
-10,848	8,410	943,907	507,319
-9,833	8,467	943,434	507,227
-8,819	8,442	942,797	506,784
-7,804	8,415	942,104	506,304
-6,790	8,401	941,647	505,995
-5,775	8,445	940,828	505,676
-4,760	8,472	940,193	505,400
-3,746	8,407	939,773	504,947
-2,731	8,334	939,057	504,311
-1,717	8,230	938,529	503,675
-0,702	8,275	937,641	503,321
0,313	8,099	937,016	503,189
1,327	11,513	934,860	512,785
2,342	20,235	783,182	452,539
3,356	15,659	449,579	252,843
4,371	-10,689	313,110	148,028
5,386	-14,005	295,489	136,327
6,400	-16,176	289,313	131,311
7,415	-16,850	286,761	129,478
8,429	-17,487	284,904	128,006
9,444	-17,615	283,757	127,355
10,459	-17,772	283,401	127,031
11,473	-17,718	282,674	126,745
12,488	-17,752	282,277	126,523
13,502	-17,668	281,724	126,345
14,517	-17,637	281,177	126,119
15,531	-17,844	280,720	125,703
16,546	-17,718	280,437	125,686
17,561	-17,812	279,876	125,334
18,575	-17,603	279,585	125,393
19,590	-17,739	279,182	125,071
20,604	-17,657	278,933	125,026
21,619	-17,788	278,516	124,704
22,634	-17,640	278,285	124,730
23,648	-17,761	277,999	124,475
24,663	-17,807	277,719	124,295
25,677	-17,768	277,491	124,219
26,692	-17,626	277,125	124,179
27,707	-17,809	276,993	123,935
28,721	-17,594	276,618	123,960
29,736	-17,686	276,326	123,731
30,750	-17,813	276,118	123,507
31,765	-17,672	275,740	123,460
32,780	-17,742	275,485	123,268
33,794	-17,605	275,400	123,349
34,809	-17,900	275,111	122,930
35,823	-17,624	274,745	123,016
36,838	-17,828	274,562	122,731
37,853	-17,780	274,232	122,617
38,867	-17,622	274,047	122,672
39,882	-17,571	273,796	122,596
40,896	-17,683	273,627	122,405
41,911	-17,757	273,272	122,166
42,926	-17,634	273,099	122,193
43,940	-17,654	272,772	122,018
44,955	-17,737	272,651	121,875
45,969	-17,791	272,379	121,692
46,984	-17,690	272,244	121,715
47,999	-17,649	272,089	121,673
49,013	-17,549	271,746	121,601
50,028	-17,557	271,695	121,561
51,042	-17,489	271,306	121,438
52,057	-17,602	271,194	121,273
53,071	-17,750	270,949	121,015
54,086	-17,609	270,626	120,990
55,101	-17,585	270,511	120,951
56,115	-17,854	270,373	120,630
57,130	-17,644	269,926	120,613
58,144	-17,716	269,665	120,420
59,159	-17,653	269,444	120,368
60,174	-17,505	269,158	120,365
61,188	-17,695	268,909	120,069
62,203	-17,491	268,650	120,130
63,217	-17,556	268,484	119,986
64,232	-17,636	268,295	119,816
65,247	-17,598	268,125	119,765
66,261	-17,659	267,946	119,618
67,276	-17,653	267,604	119,460
68,290	-17,600	267,542	119,471
69,305	-17,376	267,196	119,510
70,320	-17,658	267,097	119,198
71,334	-17,465	266,828	119,243
72,349	-17,474	266,542	119,096
73,363	-17,561	266,395	118,941
74,378	-17,603	266,121	118,770
75,393	-17,512	265,932	118,757
76,407	-17,507	265,604	118,605
77,422	-17,699	265,478	118,364
78,436	-17,706	265,244	118,243
79,451	-17,539	264,900	118,230
80,466	-17,588	264,723	118,096
81,480	-17,548	264,472	118,010
82,495	-17,667	264,220	117,779
83,509	-17,634	264,187	117,784
84,524	-17,402	263,936	117,870
85,539	-17,621	263,764	117,586
86,553	-17,686	263,581	117,436
87,568	-17,501	263,169	117,407
88,582	-17,479	263,035	117,357
89,597	-17,606	262,967	117,202
90,611	-17,464	262,606	117,158
91,626	-17,543	262,497	117,028
92,641	-17,477	262,228	116,957
93,655	-17,467	262,108	116,902
94,670	-17,706	261,873	116,573
95,684	-17,565	261,540	116,540
96,699	-17,533	261,424	116,507
97,714	-17,637	261,314	116,355
98,728	-17,499	260,999	116,327
99,743	-17,476	260,851	116,271
100,757	-17,704	260,771	116,022
101,772	-17,459	260,505	116,111
102,787	-17,571	260,107	115,825
103,801	-17,701	260,031	115,665
104,816	-17,406	259,906	115,861
105,830	-17,658	259,622	115,500
106,845	-17,622	259,609	115,517
107,860	-17,540	259,349	115,463
108,874	-17,605	258,961	115,222
109,889	-17,640	258,914	115,160
110,903	-17,630	258,667	115,049
111,918	-17,454	258,452	115,098
112,933	-17,573	258,239	114,888
113,947	-17,474	258,013	114,864
114,962	-17,459	257,683	114,720
115,976	-17,512	257,648	114,648
116,991	-17,471	257,433	114,578
118,006	-17,494	257,259	114,470
119,020	-17,764	257,127	114,166
120,035	-17,483	256,966	114,329
121,049	-17,485	256,697	114,197
122,064	-17,470	256,626	114,169
123,079	-17,514	256,248	113,952
124,093	-17,671	256,184	113,777
125,108	-17,530	256,047	113,828
126,122	-17,625	255,722	113,591
127,137	-17,448	255,537	113,653
128,151	-17,588	255,359	113,442
129,166	-17,342	255,133	113,545
130,181	-17,641	255,005	113,219
131,195	-17,392	254,762	113,316
132,210	-17,477	254,437	113,088
133,224	-17,622	254,229	112,861
134,239	-17,339	254,066	113,021
135,254	-17,351	253,963	112,956
136,268	-17,474	253,812	112,773
137,283	-17,567	253,570	112,575
138,297	-17,471	253,405	112,574
139,312	-17,423	253,059	112,451
140,327	-17,421	252,823	112,339
141,341	-17,442	252,539	112,184
142,356	-17,433	252,610	112,214
143,370	-17,580	252,409	111,988
144,385	-17,509	252,205	111,949
145,400	-17,592	251,998	111,776
146,414	-17,573	251,910	111,742
147,429	-17,642	251,627	111,549
148,443	-17,507	251,447	111,574
149,458	-17,623	251,218	111,364
150,473	-17,625	251,108	111,303
151,487	-17,393	250,769	111,340
152,502	-17,476	250,594	111,182
153,516	-17,597	250,480	111,019
154,531	-17,333	250,336	111,169
155,546	-17,610	250,179	110,855
156,560	-17,409	250,035	110,951
157,575	-17,304	249,782	110,918
158,589	-17,368	249,560	110,755
159,604	-17,382	249,365	110,647
160,619	-17,421	249,124	110,497
161,633	-17,250	248,967	110,562
162,648	-17,447	248,950	110,378
163,662	-17,536	248,842	110,246
164,677	-17,274	248,541	110,323
165,692	-17,394	248,413	110,155
166,706	-17,455	248,189	109,995
167,721	-17,440	248,046	109,934
168,735	-17,433	247,933	109,880
169,750	-17,347	247,683	109,832
170,764	-17,354	247,678	109,814
171,779	-17,408	247,430	109,649
172,794	-17,217	247,090	109,649
173,808	-17,486	246,990	109,370
174,823	-17,520	246,843	109,266
175,837	-17,626	246,726	109,116
176,852	-17,352	246,414	109,197
177,867	-17,622	246,357	108,937
178,881	-17,362	246,187	109,069
179,896	-17,457	246,038	108,913
180,910	-17,407	245,825	108,851
181,925	-17,364	245,615	108,784
182,940	-17,561	245,409	108,520
183,954	-17,412	245,137	108,513
184,969	-17,461	245,147	108,468
185,983	-17,311	245,050	108,539
186,998	-17,480	244,766	108,264
188,013	-17,448	244,573	108,196
189,027	-17,369	244,426	108,186
190,042	-17,297	244,309	108,184
191,056	-17,451	244,056	107,935
192,071	-17,217	243,878	108,040
193,086	-17,186	243,783	108,014
194,100	-17,281	243,615	107,851
195,115	-17,310	243,322	107,688
196,129	-17,431	243,148	107,502
197,144	-17,364	242,995	107,480
198,159	-17,437	242,730	107,293
199,173	-17,225	242,529	107,369
200,188	-17,254	242,455	107,303
201,202	-17,236	242,256	107,219
202,217	-17,404	242,145	107,023
203,232	-17,254	241,823	106,995
204,246	-17,089	241,549	106,998
205,261	-17,045	241,740	107,109
206,275	-15,489	242,108	108,532
207,290	-11,448	243,574	112,495
208,304	-5,923	245,229	117,805
209,319	-2,921	246,071	120,678
210,334	-2,423	246,196	121,139
211,348	-1,590	246,219	121,827
212,363	-1,110	246,157	122,180
213,377	-0,613	246,324	122,663
214,392	-0,243	246,436	123,012
215,407	0,173	246,213	123,233
216,421	0,461	246,093	123,398
217,436	0,294	245,938	123,173
218,450	0,123	245,784	122,944
219,465	0,372	245,685	123,088
220,480	0,446	245,572	123,081
221,494	0,465	245,387	122,993
222,509	0,167	245,225	122,656
223,523	-0,058	244,977	122,337
224,538	-0,028	244,751	122,238
225,553	-0,145	244,568	122,040
226,567	-0,070	244,397	122,005
227,582	-0,155	244,264	121,859
228,596	0,037	244,159	121,952
229,611	-0,021	243,921	121,775
230,626	0,060	243,644	121,692
231,640	0,105	243,507	121,648
232,655	0,258	243,290	121,654
233,669	-0,096	243,181	121,301
234,684	-0,002	243,042	121,297
235,699	-0,132	242,849	121,084
236,713	-0,086	242,788	121,080
237,728	-0,072	242,716	121,046
238,742	0,087	242,375	120,993
239,757	0,166	242,223	120,970
240,772	0,082	242,088	120,824
241,786	0,172	241,878	120,781
242,801	-0,056	241,728	120,512
243,815	-0,060	241,670	120,469
244,830	-0,191	241,453	120,244
245,844	-0,234	241,405	120,175
246,859	-0,001	241,013	120,157
247,874	-0,079	241,109	120,130
248,888	0,068	240,734	120,052
249,903	-0,046	240,720	119,942
250,917	0,011	240,488	119,861
251,932	0,009	240,525	119,867
252,947	0,030	240,150	119,688
253,961	-0,002	240,081	119,616
254,976	0,007	239,986	119,566
255,990	0,048	239,774	119,482
257,005	0,069	239,591	119,397
258,020	0,184	239,613	119,489
259,034	-0,029	239,185	119,095
260,049	-0,129	239,142	118,984
261,063	-0,163	238,907	118,829
262,078	-0,058	238,663	118,780
263,093	0,045	238,673	118,857
264,107	0,004	238,659	118,807
265,122	0,149	238,367	118,766
266,136	0,028	238,300	118,626
267,151	0,149	237,975	118,549
268,166	-0,013	237,965	118,406
269,180	-0,172	237,756	118,165
270,195	-0,140	237,656	118,130
271,209	-0,052	237,613	118,168
272,224	-0,024	237,397	118,072
273,239	0,022	237,100	117,950
274,253	-0,052	236,923	117,793
275,268	-0,008	236,762	117,737
276,282	-0,026	236,597	117,631
277,297	0,021	236,502	117,610
278,312	0,005	236,382	117,527
279,326	-0,006	236,202	117,419
280,341	-0,006	235,987	117,301
281,355	0,112	235,981	117,381
282,370	0,195	235,701	117,295
283,384	-0,074	235,691	117,069
284,399	-0,078	235,596	117,008
285,414	0,285	235,267	117,119
286,428	0,077	235,202	116,914
287,443	0,175	235,035	116,896
288,457	0,110	234,853	116,744
289,472	0,028	234,705	116,597
290,487	0,208	234,444	116,597
291,501	-0,024	234,463	116,415
292,516	-0,007	234,305	116,340
293,530	0,101	234,182	116,352
294,545	0,240	234,102	116,410
295,560	0,068	233,970	116,200
296,574	0,053	233,844	116,115
297,589	0,199	233,528	116,062
298,603	0,224	233,306	115,960
299,618	0,284	233,260	115,973
300,633	0,161	233,093	115,785
301,647	0,350	233,020	115,885
302,662	0,337	232,935	115,822
303,676	0,270	232,636	115,611
304,691	0,395	232,511	115,635
305,706	0,413	232,362	115,565
306,720	0,376	232,241	115,466
307,735	0,366	232,104	115,380
308,749	0,321	231,912	115,239
309,764	0,466	231,804	115,287
310,779	0,418	231,583	115,130
311,793	0,362	231,419	114,995
312,808	0,148	231,442	114,832
313,822	0,309	231,236	114,844
314,837	0,434	230,964	114,794
315,852	0,415	230,987	114,780
316,866	0,297	230,805	114,589
317,881	0,301	230,615	114,487
318,895	0,385	230,509	114,489
319,910	0,333	230,262	114,316
320,925	0,499	230,189	114,396
321,939	0,264	230,075	114,151
322,954	0,423	229,984	114,217
323,968	0,453	229,780	114,127
324,983	0,591	229,498	114,083
325,997	0,360	229,564	113,929
327,012	0,181	229,325	113,664
328,027	0,422	229,070	113,711
329,041	0,665	229,002	113,851
330,056	0,576	228,854	113,700
331,070	0,405	228,729	113,498
332,085	0,560	228,624	113,554
333,100	0,481	228,347	113,346
334,114	0,486	228,238	113,286
335,129	0,419	228,027	113,120
336,143	0,397	228,023	113,092
337,158	0,694	227,827	113,208
338,173	0,370	227,668	112,875
339,187	0,683	227,649	113,092
340,202	0,569	227,357	112,851
341,216	0,358	227,385	112,696
342,231	0,509	227,073	112,645
343,246	0,326	227,114	112,517
344,260	0,615	226,861	112,598
345,275	0,650	226,748	112,558
346,289	0,617	226,555	112,428
347,304	0,624	226,568	112,430
348,319	0,565	226,283	112,234
349,333	0,593	226,049	112,129
350,348	0,465	225,992	111,995
351,362	0,665	225,749	112,014
352,377	0,444	225,744	111,836
353,392	0,582	225,631	111,874
354,406	0,612	225,434	111,788
355,421	193,239	1312,535	1382,050
356,435	154,832	1444,839	1381,904
