DTS Sentinel unit serial number:	SN410029Multiplexer serial number:	ORYXHardware model number:	OX2-SRSoftware version number:	ORYX F/W v4,00 Oryx Data Collector v3.7.2.0data status	okinstallation	B5 Nyhavnadifferential loss correction	single-endedforward channel	channel 2reverse channel	N/Adate	2023/12/12time	13:37:13forward acquisition time	300,00reverse acquisition time	0,00gamma	499,1914k internal	0,3157k external	0,3157temperature offset calibration	1,0000default loss term (dB/km)	0,3820temperature slope calibration	1,0000multiplexer offset coefficient	1,0000multiplexer slope coefficient	1,0000fibre end	0,00T internal ref (°C)	15,65T ext. ref 1 (°C)	-0,33T ext. ref 2 (°C)	-0,54length (m)	temperature (°C)	Stokes	anti-Stokes-744,400	-36,118	0,068	-0,027
-743,385	-75,936	-0,294	-0,076
-742,371	17,436	0,130	0,076
-741,356	-133,159	-0,199	-0,018
-740,342	-200,000	-0,000	0,078
-739,327	-90,186	-0,248	0,053
-738,312	800,000	0,039	0,107
-737,298	-2,332	-0,269	0,139
-736,283	-43,502	0,107	-0,040
-735,269	-15,341	-0,206	0,097
-734,254	-200,000	-0,005	-0,046
-733,239	-46,688	-0,390	-0,140
-732,225	-200,000	0,003	-0,092
-731,210	33,646	-0,071	0,046
-730,196	-6,312	0,060	0,030
-729,181	-58,902	0,037	0,012
-728,167	1,995	-0,128	-0,068
-727,152	-200,000	-0,035	0,147
-726,137	-189,121	0,031	0,000
-725,123	-200,000	-0,014	-0,185
-724,108	23,589	-0,142	0,086
-723,094	362,153	-0,041	-0,061
-722,079	103,933	-0,028	0,024
-721,064	223,013	-0,095	0,113
-720,050	-200,000	-0,009	0,068
-719,035	-200,000	0,032	0,120
-718,021	800,000	-0,080	-0,219
-717,006	-139,461	-0,049	-0,004
-715,991	79,020	-0,128	-0,101
-714,977	10,568	0,084	0,047
-713,962	-44,131	-0,139	0,051
-712,948	800,000	-0,032	-0,078
-711,933	533,930	0,041	-0,071
-710,918	800,000	0,019	0,059
-709,904	-36,038	-0,136	0,054
-708,889	508,302	-0,097	-0,166
-707,875	-133,111	-0,084	0,008
-706,860	-200,000	-0,035	-0,204
-705,845	-200,000	-0,016	-0,080
-704,831	29,235	0,147	0,091
-703,816	-200,000	0,005	-0,038
-702,802	-91,871	-0,073	-0,015
-701,787	800,000	-0,037	-0,078
-700,772	-178,433	0,127	0,002
-699,758	-59,967	-0,093	-0,029
-698,743	-44,203	0,023	0,008
-697,729	798,911	0,038	-0,079
-696,714	47,466	-0,155	0,106
-695,699	28,240	-0,124	-0,077
-694,685	800,000	0,051	0,148
-693,670	350,949	0,096	-0,141
-692,656	-200,000	-0,007	-0,038
-691,641	-200,000	-0,022	0,092
-690,627	25,548	0,091	0,055
-689,612	800,000	0,077	0,166
-688,597	58,703	-0,093	-0,067
-687,583	800,000	-0,016	-0,040
-686,568	-200,000	0,003	0,053
-685,554	87,050	-0,067	-0,055
-684,539	800,000	0,048	-0,117
-683,524	-143,538	-0,048	-0,003
-682,510	-15,116	-0,077	0,036
-681,495	614,425	-0,044	-0,081
-680,481	468,497	-0,016	-0,027
-679,466	-21,113	-0,088	-0,039
-678,451	106,553	0,008	0,007
-677,437	57,375	-0,014	-0,010
-676,422	50,544	0,050	0,035
-675,408	43,709	-0,060	-0,040
-674,393	-83,309	0,138	-0,032
-673,378	258,049	-0,076	-0,097
-672,364	800,000	0,057	-0,128
-671,349	-12,917	0,050	-0,024
-670,335	-64,271	0,096	-0,028
-669,320	618,237	-0,027	-0,050
-668,305	-23,672	-0,028	0,012
-667,291	800,000	-0,057	0,134
-666,276	-158,701	-0,150	0,006
-665,262	800,000	-0,018	-0,044
-664,247	196,225	0,013	-0,014
-663,232	-35,536	-0,107	-0,042
-662,218	-200,000	-0,022	-0,074
-661,203	-101,262	-0,054	0,010
-660,189	2,745	0,083	0,044
-659,174	-200,000	0,020	-0,108
-658,159	-200,000	-0,009	-0,087
-657,145	-162,479	-0,044	0,002
-656,130	364,702	-0,104	0,154
-655,116	234,411	-0,048	-0,058
-654,101	30,262	0,080	0,050
-653,086	-200,000	0,037	-0,160
-652,072	-29,808	-0,082	-0,034
-651,057	800,000	0,072	-0,228
-650,043	-200,000	-0,023	0,081
-649,028	-200,000	-0,025	-0,084
-648,014	800,000	0,017	-0,047
-646,999	7,436	0,021	-0,012
-645,984	45,277	0,080	0,054
-644,970	14,760	-0,101	-0,058
-643,955	581,651	-0,056	-0,102
-642,941	99,667	-0,053	0,045
-641,926	-148,953	-0,068	0,004
-640,911	112,233	0,007	0,006
-639,897	645,313	0,035	-0,066
-638,882	-24,934	0,088	-0,038
-637,868	800,000	0,010	-0,022
-636,853	281,443	0,049	-0,065
-635,838	23,705	-0,053	-0,032
-634,824	-121,664	0,080	0,010
-633,809	-200,000	-0,074	-0,252
-632,795	-200,000	0,000	-0,086
-631,780	-200,000	-0,045	0,202
-630,765	-200,000	-0,024	-0,171
-629,751	55,861	0,019	-0,013
-628,736	-69,189	0,076	0,021
-627,722	-57,181	-0,113	0,036
-626,707	105,708	0,060	0,052
-625,692	800,000	0,007	-0,018
-624,678	461,259	-0,069	0,114
-623,663	-119,262	-0,077	0,010
-622,649	-42,870	-0,162	-0,060
-621,634	-200,000	0,032	-0,110
-620,619	-200,000	-0,005	0,108
-619,605	96,959	0,125	-0,105
-618,590	-41,696	0,054	-0,020
-617,576	139,486	-0,065	0,063
-616,561	-200,000	0,024	-0,125
-615,546	140,901	0,049	0,048
-614,532	-9,314	-0,020	-0,010
-613,517	-112,243	-0,127	0,019
-612,503	450,456	-0,091	0,147
-611,488	121,431	0,095	0,087
-610,474	-109,572	0,191	-0,029
-609,459	-200,000	-0,009	0,030
-608,444	106,289	-0,044	-0,039
-607,430	30,370	0,013	-0,008
-606,415	636,809	-0,034	0,063
-605,401	-31,869	0,062	0,025
-604,386	76,263	-0,176	0,137
-603,371	448,528	-0,051	0,083
-602,357	28,741	0,062	-0,039
-601,342	-200,000	0,007	-0,033
-600,328	-200,000	0,014	-0,046
-599,313	-51,279	0,049	0,017
-598,298	190,077	-0,092	-0,102
-597,284	-200,000	0,001	-0,103
-596,269	-140,911	0,049	0,004
-595,255	-107,858	0,137	0,022
-594,240	-200,000	-0,009	0,062
-593,225	310,998	0,036	0,049
-592,211	-200,000	0,017	-0,129
-591,196	5,991	-0,093	0,050
-590,182	-190,268	0,159	-0,001
-589,167	-76,759	0,104	0,027
-588,152	-134,612	-0,019	0,002
-587,138	114,208	-0,028	-0,025
-586,123	-200,000	-0,012	-0,093
-585,109	-200,000	-0,025	-0,145
-584,094	49,610	-0,046	-0,032
-583,079	800,000	-0,043	-0,100
-582,065	-84,456	0,071	-0,016
-581,050	-171,644	-0,108	0,003
-580,036	-53,678	-0,049	-0,016
-579,021	22,668	0,007	-0,004
-578,006	-51,237	-0,056	-0,019
-576,992	-50,621	-0,127	0,044
-575,977	-200,000	-0,006	0,080
-574,963	-200,000	-0,041	-0,138
-573,948	800,000	0,054	0,116
-572,934	-33,863	0,170	-0,068
-571,919	106,764	-0,013	-0,011
-570,904	800,000	0,021	0,055
-569,890	150,427	-0,178	-0,177
-568,875	399,944	-0,059	-0,091
-567,861	800,000	0,001	0,003
-566,846	232,277	0,102	0,123
-565,831	395,257	-0,023	-0,035
-564,817	695,603	-0,079	-0,153
-563,802	164,451	-0,062	-0,064
-562,788	144,843	0,093	-0,091
-561,773	29,343	0,064	0,040
-560,758	-172,014	-0,123	-0,003
-559,744	-200,000	-0,028	-0,111
-558,729	-133,447	-0,103	-0,009
-557,715	-25,988	-0,083	0,036
-556,700	-200,000	0,011	0,040
-555,685	-137,340	-0,061	0,005
-554,671	131,202	0,059	0,055
-553,656	800,000	-0,020	0,041
-552,642	-84,802	0,043	0,010
-551,627	-200,000	-0,004	0,019
-550,612	16,613	-0,035	0,020
-549,598	125,193	-0,143	0,132
-548,583	-200,000	0,017	-0,071
-547,569	-165,585	0,064	-0,002
-546,554	800,000	-0,030	-0,061
-545,539	800,000	0,046	0,098
-544,525	-146,631	-0,059	-0,004
-543,510	800,000	-0,054	-0,127
-542,496	232,780	0,050	-0,060
-541,481	-200,000	0,071	0,000
-540,466	-70,515	0,072	0,020
-539,452	82,889	-0,086	0,069
-538,437	-119,774	-0,030	0,004
-537,423	-109,907	-0,071	0,011
-536,408	355,758	0,024	-0,035
-535,393	-63,247	-0,017	-0,005
-534,379	800,000	-0,038	-0,078
-533,364	-142,788	-0,127	-0,009
-532,350	-33,866	-0,055	0,022
-531,335	800,000	0,018	-0,038
-530,321	800,000	-0,049	-0,131
-529,306	-200,000	-0,049	-0,206
-528,291	206,799	-0,041	-0,047
-527,277	779,525	0,050	-0,101
-526,262	37,310	0,092	0,060
-525,248	48,558	-0,045	-0,031
-524,233	800,000	0,041	0,116
-523,218	-200,000	0,001	0,032
-522,204	-132,265	-0,061	-0,006
-521,189	436,543	0,043	-0,068
-520,175	800,000	0,051	-0,119
-519,160	29,172	0,047	-0,029
-518,145	222,754	0,065	-0,077
-517,131	-200,000	-0,015	0,100
-516,116	800,000	-0,009	0,023
-515,102	-188,309	0,031	-0,000
-514,087	146,513	-0,070	-0,069
-513,072	-65,686	0,093	-0,027
-512,058	370,319	-0,066	-0,099
-511,043	17,559	-0,128	-0,074
-510,029	21,259	-0,072	0,043
-509,014	-121,842	0,092	-0,011
-507,999	-200,000	-0,009	0,094
-506,985	-152,341	0,105	0,005
-505,970	-147,020	0,038	0,002
-504,956	26,757	-0,134	0,082
-503,941	-50,071	-0,123	0,042
-502,926	-129,806	0,089	-0,009
-501,912	38,135	0,063	0,041
-500,897	-190,754	-0,107	0,001
-499,883	800,000	0,019	-0,056
-498,868	-200,000	-0,017	-0,120
-497,853	-147,571	-0,059	-0,004
-496,839	-200,000	-0,004	-0,032
-495,824	121,513	0,057	-0,052
-494,810	-153,093	0,134	0,007
-493,795	800,000	-0,070	0,166
-492,781	130,486	-0,037	-0,035
-491,766	-111,319	-0,079	-0,012
-490,751	-200,000	-0,011	-0,163
-489,737	51,332	0,036	-0,025
-488,722	-159,153	-0,135	0,005
-487,708	-41,240	0,128	0,048
-486,693	-166,253	0,031	-0,001
-485,678	-170,888	0,156	-0,004
-484,664	800,000	-0,053	-0,121
-483,649	-178,530	-0,102	0,002
-482,635	514,843	0,051	-0,087
-481,620	383,118	-0,023	0,034
-480,605	33,524	0,039	0,025
-479,591	-7,768	0,159	0,078
-478,576	154,756	-0,064	-0,064
-477,562	-7,358	-0,048	0,024
-476,547	326,874	0,133	0,186
-475,532	-62,577	-0,010	-0,003
-474,518	152,936	-0,060	-0,060
-473,503	-200,000	0,003	-0,035
-472,489	-200,000	0,050	-0,163
-471,474	9,854	-0,023	0,013
-470,459	240,325	-0,089	0,109
-469,445	1,189	-0,158	-0,083
-468,430	-62,397	-0,036	-0,011
-467,416	502,610	-0,038	-0,065
-466,401	-117,022	0,069	0,009
-465,386	-200,000	-0,002	0,049
-464,372	-85,553	-0,203	-0,046
-463,357	-200,000	-0,006	-0,056
-462,343	-92,596	-0,037	0,007
-461,328	64,546	0,044	0,033
-460,313	143,514	0,061	-0,060
-459,299	55,218	-0,067	-0,047
-458,284	175,019	0,079	0,084
-457,270	-16,572	-0,077	0,035
-456,255	-184,545	0,126	0,001
-455,241	-200,000	0,002	0,107
-454,226	201,432	-0,122	-0,138
-453,211	-200,000	-0,026	-0,091
-452,197	-140,516	0,154	0,011
-451,182	795,334	-0,024	0,048
-450,168	-101,881	0,138	0,024
-449,153	80,808	-0,055	0,043
-448,138	-29,663	-0,089	-0,037
-447,124	-200,000	0,006	0,036
-446,109	-160,137	-0,115	-0,004
-445,095	-75,226	0,078	-0,020
-444,080	109,652	0,049	0,043
-443,065	510,268	-0,022	0,038
-442,051	158,060	0,018	0,018
-441,036	-200,000	-0,028	-0,090
-440,022	179,183	-0,071	-0,076
-439,007	282,831	0,020	-0,026
-437,992	800,000	0,052	0,130
-436,978	-200,000	-0,008	-0,034
-435,963	115,280	0,038	-0,034
-434,949	234,147	0,095	-0,114
-433,934	-200,000	-0,018	-0,138
-432,919	201,270	0,023	-0,026
-431,905	-28,121	0,061	0,026
-430,890	215,493	0,037	0,043
-429,876	294,342	-0,028	-0,037
-428,861	-200,000	-0,021	0,119
-427,846	-25,023	-0,059	0,025
-426,832	-81,646	-0,236	-0,056
-425,817	724,265	-0,031	-0,060
-424,803	800,000	-0,040	-0,101
-423,788	-30,096	-0,020	0,008
-422,773	-178,247	0,205	0,003
-421,759	675,021	0,024	-0,046
-420,744	-32,126	0,057	0,023
-419,730	-76,619	-0,049	0,012
-418,715	57,431	0,053	-0,038
-417,701	-70,086	-0,125	-0,034
-416,686	-200,000	0,008	0,062
-415,671	800,000	0,002	-0,005
-414,657	588,315	0,054	-0,097
-413,642	-200,000	0,010	0,078
-412,628	-15,624	-0,176	0,081
-411,613	-68,552	0,108	0,030
-410,598	-200,000	0,003	-0,036
-409,584	-125,340	0,084	-0,009
-408,569	-200,000	0,010	0,074
-407,555	-15,926	0,075	-0,035
-406,540	-106,917	0,191	-0,030
-405,525	417,655	0,060	0,093
-404,511	-46,359	-0,058	-0,021
-403,496	-108,827	-0,148	-0,023
-402,482	-200,000	0,005	0,138
-401,467	-78,403	0,085	0,021
-400,452	800,000	0,026	-0,077
-399,438	4,419	-0,084	-0,045
-398,423	-48,763	0,039	-0,013
-397,409	-200,000	-0,006	-0,147
-396,394	800,000	0,036	-0,075
-395,379	232,868	0,026	-0,031
-394,365	-88,081	-0,109	-0,024
-393,350	105,155	-0,079	-0,068
-392,336	46,199	0,046	-0,031
-391,321	-200,000	-0,007	0,035
-390,306	395,126	0,014	-0,021
-389,292	70,153	0,013	0,010
-388,277	128,152	-0,082	-0,076
-387,263	122,304	0,019	0,017
-386,248	220,374	0,057	-0,067
-385,233	800,000	-0,022	0,048
-384,219	-0,712	-0,107	0,055
-383,204	-18,820	-0,014	0,006
-382,190	-200,000	0,050	-0,176
-381,175	800,000	-0,038	-0,109
-380,160	-128,532	-0,028	0,003
-379,146	-70,166	0,156	0,043
-378,131	-137,140	0,039	-0,003
-377,117	335,441	0,066	-0,093
-376,102	35,749	0,155	-0,099
-375,088	217,179	-0,035	-0,040
-374,073	96,214	0,144	0,120
-373,058	-200,000	-0,002	-0,032
-372,044	260,281	0,095	0,119
-371,029	-124,617	0,209	0,023
-370,015	542,779	-0,067	-0,116
-369,000	-200,000	0,010	0,046
-367,985	800,000	0,000	0,001
-366,971	398,389	-0,020	0,031
-365,956	-106,968	-0,110	0,017
-364,942	-200,000	0,007	0,055
-363,927	-200,000	0,014	0,144
-362,912	-116,783	0,074	0,010
-361,898	-200,000	0,001	-0,106
-360,883	-144,264	-0,114	0,008
-359,869	-200,000	0,047	0,195
-358,854	60,147	0,099	0,071
-357,839	154,680	-0,042	-0,042
-356,825	565,982	-0,062	0,110
-355,810	-117,960	0,072	0,009
-354,796	-48,446	-0,052	0,018
-353,781	-200,000	-0,003	-0,072
-352,766	-120,484	0,132	-0,016
-351,752	-200,000	0,010	-0,069
-350,737	-82,287	0,156	0,037
-349,723	186,265	-0,076	0,083
-348,708	-70,964	-0,119	0,032
-347,693	18,097	0,098	0,057
-346,679	800,000	0,078	0,165
-345,664	-85,304	0,077	0,017
-344,650	-90,019	0,102	0,021
-343,635	-200,000	-0,051	0,218
-342,620	-41,192	0,057	0,021
-341,606	-20,699	-0,062	0,027
-340,591	-97,648	0,097	-0,018
-339,577	-24,700	-0,165	-0,071
-338,562	800,000	0,028	0,063
-337,548	129,419	-0,056	-0,052
-336,533	17,995	0,148	0,085
-335,518	-200,000	-0,008	-0,044
-334,504	320,908	-0,096	-0,133
-333,489	-19,049	-0,102	0,046
-332,475	800,000	0,015	-0,034
-331,460	148,427	-0,042	-0,041
-330,445	-136,476	-0,064	0,005
-329,431	-200,000	-0,001	-0,011
-328,416	-181,239	-0,042	0,001
-327,402	203,605	0,062	-0,070
-326,387	7,977	0,079	0,043
-325,372	157,735	0,024	-0,024
-324,358	-64,818	0,105	-0,031
-323,343	-157,023	0,137	-0,006
-322,329	60,880	-0,050	0,036
-321,314	130,097	-0,067	-0,063
-320,299	-200,000	0,035	0,118
-319,285	-67,593	0,095	0,027
-318,270	800,000	-0,082	-0,227
-317,256	-200,000	-0,012	-0,057
-316,241	-200,000	-0,000	0,143
-315,226	-200,000	0,018	0,061
-314,212	499,876	-0,046	0,077
-313,197	-56,724	-0,080	0,025
-312,183	-58,337	0,034	-0,011
-311,168	103,894	0,079	0,067
-310,153	140,957	-0,110	0,106
-309,139	-2,448	0,121	0,061
-308,124	-200,000	0,002	0,010
-307,110	1,598	0,063	-0,033
-306,095	91,297	0,024	0,019
-305,080	-200,000	0,008	0,072
-304,066	-200,000	-0,015	0,156
-303,051	588,728	0,066	-0,118
-302,037	190,282	-0,059	-0,064
-301,022	800,000	0,017	-0,053
-300,008	-200,000	-0,004	-0,084
-298,993	547,819	0,048	0,084
-297,978	-200,000	-0,012	0,047
-296,964	-22,851	-0,163	0,071
-295,949	390,172	0,059	0,089
-294,935	44,828	0,085	0,057
-293,920	169,995	-0,035	0,036
-292,905	-48,431	-0,098	-0,034
-291,891	-29,859	0,141	0,058
-290,876	124,453	0,024	-0,022
-289,862	800,000	-0,037	0,105
-288,847	-149,908	0,098	-0,005
-287,832	-22,721	-0,126	0,055
-286,818	-200,000	-0,019	0,082
-285,803	800,000	-0,048	0,114
-284,789	414,699	-0,054	0,083
-283,774	362,948	0,050	-0,072
-282,759	0,600	0,077	0,040
-281,745	-200,000	0,003	-0,079
-280,730	-200,000	-0,032	-0,121
-279,716	800,000	-0,018	0,046
-278,701	82,287	0,085	0,067
-277,686	160,882	0,096	0,097
-276,672	318,432	0,034	0,047
-275,657	-200,000	0,006	-0,033
-274,643	78,884	-0,077	0,059
-273,628	-154,718	0,081	-0,004
-272,613	-200,000	0,018	0,059
-271,599	800,000	0,037	0,083
-270,584	-200,000	-0,007	-0,024
-269,570	-200,000	-0,004	0,015
-268,555	800,000	0,039	0,101
-267,540	-78,697	-0,111	-0,027
-266,526	18,640	0,076	-0,044
-265,511	-142,637	0,073	0,005
-264,497	0,335	-0,064	-0,033
-263,482	365,465	-0,051	0,074
-262,467	165,874	-0,051	0,052
-261,453	800,000	0,101	0,209
-260,438	800,000	0,007	-0,016
-259,424	-31,554	-0,082	-0,033
-258,409	-200,000	0,017	0,210
-257,395	-69,253	-0,111	0,031
-256,380	260,305	0,110	0,138
-255,365	-127,062	0,049	-0,005
-254,351	124,678	0,079	0,072
-253,336	-85,766	-0,203	0,045
-252,322	-59,017	0,035	-0,011
-251,307	22,939	-0,127	-0,075
-250,292	204,689	0,008	0,009
-249,278	427,335	-0,032	0,051
-248,263	800,000	0,042	0,129
-247,249	-200,000	-0,004	0,068
-246,234	-200,000	-0,005	0,122
-245,219	65,841	-0,033	0,024
-244,205	-89,571	-0,112	0,023
-243,190	-139,351	0,056	-0,004
-242,176	408,437	0,071	0,109
-241,161	-71,521	0,074	-0,020
-240,146	-200,000	-0,025	-0,091
-239,132	254,472	0,092	-0,113
-238,117	3,985	-0,040	-0,021
-237,103	69,490	-0,095	0,071
-236,088	40,534	0,093	-0,061
-235,073	-100,275	-0,228	0,041
-234,059	227,636	0,145	0,171
-233,044	800,000	0,071	0,192
-232,030	800,000	-0,050	0,117
-231,015	-100,567	-0,050	0,009
-230,000	137,774	0,074	0,070
-228,986	-8,232	0,042	0,020
-227,971	-200,000	0,019	-0,089
-226,957	-200,000	-0,025	0,125
-225,942	460,990	-0,082	0,133
-224,927	-200,000	0,010	-0,094
-223,913	310,736	-0,078	0,106
-222,898	103,381	0,093	-0,079
-221,884	11,602	0,053	0,030
-220,869	48,154	0,115	-0,077
-219,855	4,750	-0,038	-0,020
-218,840	110,955	-0,054	0,047
-217,825	295,700	-0,013	-0,017
-216,811	322,960	0,022	-0,030
-215,796	-184,293	-0,087	-0,001
-214,782	-114,351	-0,123	0,017
-213,767	277,372	0,087	-0,113
-212,752	442,055	0,117	-0,186
-211,738	-200,000	-0,004	-0,073
-210,723	-87,968	0,070	0,015
-209,709	-104,228	-0,088	0,015
-208,694	-61,377	-0,120	0,036
-207,679	-200,000	-0,012	0,069
-206,665	448,467	-0,030	0,048
-205,650	-89,575	0,108	-0,023
-204,636	800,000	0,013	-0,033
-203,621	-174,812	-0,063	0,001
-202,606	442,852	-0,021	0,033
-201,592	139,011	-0,084	0,080
-200,577	-76,620	-0,092	-0,023
-199,563	127,698	-0,060	-0,055
-198,548	75,034	-0,031	0,024
-197,533	-80,901	0,129	-0,031
-196,519	-44,471	0,054	0,019
-195,504	109,592	0,067	0,058
-194,490	-112,511	-0,027	-0,004
-193,475	-111,280	-0,120	-0,018
-192,460	638,823	0,027	-0,049
-191,446	800,000	-0,003	-0,010
-190,431	118,574	0,038	0,034
-189,417	631,156	0,052	0,095
-188,402	620,201	-0,042	0,076
-187,387	800,000	0,018	0,038
-186,373	-200,000	0,008	-0,037
-185,358	69,554	-0,057	-0,042
-184,344	-95,448	0,139	-0,027
-183,329	87,729	0,100	-0,080
-182,315	433,392	0,072	-0,113
-181,300	800,000	-0,036	0,079
-180,285	209,945	0,022	0,025
-179,271	-200,000	-0,013	-0,067
-178,256	-0,388	0,072	0,037
-177,242	800,000	-0,083	-0,225
-176,227	-33,019	0,083	-0,033
-175,212	-54,684	0,086	0,028
-174,198	83,002	0,018	0,014
-173,183	114,565	-0,068	-0,060
-172,169	-200,000	0,009	0,041
-171,154	-200,000	-0,004	-0,121
-170,139	54,984	-0,091	-0,063
-169,125	123,734	-0,090	0,082
-168,110	308,154	-0,002	-0,003
-167,096	-194,212	-0,101	-0,001
-166,081	-141,454	-0,067	0,005
-165,066	-200,000	0,016	-0,063
-164,052	-50,603	-0,024	0,008
-163,037	-68,392	0,025	-0,007
-162,023	800,000	-0,019	0,043
-161,008	394,265	0,020	-0,030
-159,993	258,852	0,052	0,065
-158,979	113,379	-0,071	-0,062
-157,964	-146,507	-0,104	0,006
-156,950	-58,631	-0,047	-0,015
-155,935	-119,660	0,163	0,020
-154,920	725,000	0,027	0,052
-153,906	1,510	0,046	-0,024
-152,891	-200,000	0,004	0,025
-151,877	10,759	0,074	0,041
-150,862	474,905	0,051	0,083
-149,847	-53,614	0,086	0,028
-148,833	800,000	-0,035	0,099
-147,818	-200,000	-0,002	0,073
-146,804	-200,000	-0,015	-0,096
-145,789	-58,353	0,054	-0,017
-144,775	-200,000	-0,040	-0,225
-143,760	-31,196	-0,036	-0,015
-142,745	334,565	-0,088	0,123
-141,731	-46,777	-0,012	0,004
-140,716	79,778	0,043	0,033
-139,702	-200,000	0,017	0,117
-138,687	-200,000	-0,007	-0,048
-137,672	46,573	-0,088	0,058
-136,658	229,008	0,064	-0,075
-135,643	411,228	-0,097	-0,149
-134,629	-92,125	-0,062	-0,012
-133,614	748,376	-0,046	-0,090
-132,599	-88,555	0,137	0,029
-131,585	53,626	-0,053	0,037
-130,570	-27,511	0,086	0,036
-129,556	-88,789	0,048	0,010
-128,541	-85,522	-0,056	0,012
-127,526	-200,000	-0,007	0,049
-126,512	51,947	-0,014	0,010
-125,497	-50,361	-0,097	0,033
-124,483	567,964	-0,093	0,164
-123,468	-200,000	0,005	-0,059
-122,453	380,826	-0,055	-0,081
-121,439	-15,464	-0,107	0,049
-120,424	-113,471	0,034	-0,005
-119,410	-200,000	0,034	0,168
-118,395	-200,000	-0,027	0,136
-117,380	-200,000	-0,008	0,084
-116,366	800,000	0,036	0,100
-115,351	-114,330	-0,066	-0,009
-114,337	-164,387	-0,155	-0,005
-113,322	-200,000	-0,013	0,115
-112,307	93,970	0,019	-0,015
-111,293	-200,000	-0,028	0,130
-110,278	-200,000	0,005	0,023
-109,264	-200,000	-0,010	0,148
-108,249	-200,000	-0,007	-0,045
-107,234	-100,058	-0,097	-0,017
-106,220	-200,000	-0,020	-0,247
-105,205	-74,885	0,091	-0,023
-104,191	-200,000	-0,002	0,048
-103,176	800,000	0,034	0,088
-102,162	-200,000	-0,021	-0,129
-101,147	-200,000	-0,017	-0,069
-100,132	-141,996	-0,036	-0,003
-99,118	-17,655	0,030	0,013
-98,103	800,000	0,026	0,077
-97,089	464,482	0,076	-0,123
-96,074	-200,000	0,002	0,082
-95,059	59,812	0,052	-0,037
-94,045	-200,000	-0,030	-0,162
-93,030	-35,310	0,037	-0,014
-92,016	122,287	0,087	-0,078
-91,001	800,000	-0,034	0,072
-89,986	-200,000	0,004	-0,131
-88,972	424,288	0,064	-0,100
-87,957	158,401	-0,072	0,072
-86,943	800,000	0,030	-0,061
-85,928	800,000	-0,071	-0,142
-84,913	-200,000	0,023	-0,140
-83,899	-200,000	-0,036	-0,119
-82,884	5,473	-0,109	0,058
-81,870	521,815	0,065	0,111
-80,855	322,732	-0,012	0,016
-79,840	-200,000	-0,004	-0,014
-78,826	-200,000	0,033	0,106
-77,811	111,820	-0,132	-0,115
-76,797	-178,372	-0,037	-0,001
-75,782	447,792	0,042	-0,067
-74,767	-47,393	-0,081	0,028
-73,753	-101,055	0,060	0,010
-72,738	-71,177	-0,081	-0,022
-71,724	-200,000	0,009	-0,222
-70,709	-81,418	-0,042	0,010
-69,694	73,451	0,096	0,072
-68,680	518,053	-0,039	-0,066
-67,665	40,199	-0,042	0,027
-66,651	-14,673	-0,056	0,026
-65,636	800,000	-0,052	-0,108
-64,622	285,618	0,061	-0,080
-63,607	384,147	-0,056	-0,083
-62,592	-40,031	-0,135	-0,050
-61,578	7,633	-0,039	-0,021
-60,563	-200,000	0,007	0,101
-59,549	-200,000	0,003	0,088
-58,534	-22,453	-1,998	-0,865
-57,519	-200,000	-0,226	-0,981
-56,505	-200,000	-1,367	-4,837
-55,490	53,382	0,659	0,453
-54,476	800,000	5,228	11,995
-53,461	-200,000	17,471	285,048
-52,446	800,000	724,774	2225,005
-51,432	540,312	1640,562	2814,580
-50,417	111,155	1631,805	1410,772
-49,403	75,486	1286,039	973,442
-48,388	32,443	1027,975	635,966
-47,373	20,203	989,988	572,090
-46,359	18,640	977,979	559,998
-45,344	16,040	973,928	549,145
-44,330	16,197	972,367	548,759
-43,315	15,690	970,764	546,176
-42,300	15,685	969,508	545,431
-41,286	15,774	968,492	545,129
-40,271	15,684	967,466	544,235
-39,257	15,649	966,746	543,694
-38,242	15,649	965,949	543,223
-37,227	15,704	964,996	542,845
-36,213	15,729	964,173	542,442
-35,198	15,651	963,232	541,638
-34,184	15,689	962,579	541,373
-33,169	15,695	961,482	540,755
-32,154	15,737	960,624	540,387
-31,140	15,651	959,877	539,667
-30,125	15,725	959,078	539,435
-29,111	15,673	958,327	538,825
-28,096	15,710	957,611	538,519
-27,082	15,711	956,933	538,119
-26,067	15,716	956,022	537,603
-25,052	15,684	955,406	537,131
-24,038	15,720	954,727	536,844
-23,023	15,658	954,264	536,362
-22,009	15,734	953,413	536,106
-20,994	15,719	952,897	535,748
-19,979	15,715	952,268	535,360
-18,965	15,661	951,685	534,838
-17,950	15,696	951,089	534,593
-16,936	15,661	950,166	533,941
-15,921	15,613	949,720	533,518
-14,906	15,531	949,009	532,834
-13,892	15,571	948,303	532,546
-12,877	15,570	947,795	532,236
-11,863	15,572	946,890	531,711
-10,848	15,521	946,555	531,339
-9,833	15,628	946,039	531,370
-8,819	15,637	945,417	531,028
-7,804	15,649	944,794	530,695
-6,790	15,552	944,263	530,069
-5,775	15,578	943,823	529,882
-4,760	15,595	943,149	529,537
-3,746	15,647	942,353	529,234
-2,731	15,411	941,652	528,073
-1,717	15,450	941,020	527,821
-0,702	15,367	940,467	527,227
0,313	15,279	939,607	527,262
1,327	18,477	937,500	536,112
2,342	27,430	794,803	478,243
3,356	24,357	459,110	271,530
4,371	-2,762	314,108	156,983
5,386	-6,748	295,992	143,886
6,400	-8,692	289,974	139,020
7,415	-9,222	287,545	137,322
8,429	-9,245	285,857	136,480
9,444	-9,393	285,101	135,963
10,459	-9,442	284,356	135,548
11,473	-9,282	283,799	135,425
12,488	-9,455	283,312	135,014
13,502	-9,450	282,747	134,738
14,517	-9,458	282,334	134,521
15,531	-9,574	281,843	134,163
16,546	-9,516	281,458	134,024
17,561	-9,435	281,174	133,955
18,575	-9,351	280,858	133,873
19,590	-9,579	280,422	133,434
20,604	-9,607	280,195	133,288
21,619	-9,622	279,958	133,149
22,634	-9,699	279,452	132,822
23,648	-9,612	279,202	132,775
24,663	-9,777	278,796	132,412
25,677	-9,576	278,549	132,475
26,692	-9,629	278,403	132,343
27,707	-9,569	278,066	132,228
28,721	-9,485	277,642	132,094
29,736	-9,599	277,630	131,969
30,750	-9,745	277,208	131,619
31,765	-9,579	277,101	131,713
32,780	-9,407	276,813	131,727
33,794	-9,730	276,488	131,255
34,809	-9,625	276,237	131,224
35,823	-9,581	275,994	131,138
36,838	-9,631	275,818	130,995
37,853	-9,526	275,411	130,889
38,867	-9,775	275,269	130,576
39,882	-9,615	275,002	130,587
40,896	-9,525	274,847	130,587
41,911	-9,665	274,567	130,312
42,926	-9,739	274,372	130,137
43,940	-9,916	274,012	129,790
44,955	-9,750	273,809	129,837
45,969	-9,844	273,667	129,671
46,984	-9,936	273,316	129,407
47,999	-10,028	273,033	129,176
49,013	-10,147	272,846	128,965
50,028	-10,422	272,576	128,571
51,042	-10,359	272,238	128,458
52,057	-10,569	272,059	128,167
53,071	-10,218	271,819	128,368
54,086	-10,108	271,479	128,298
55,101	-10,065	271,540	128,355
56,115	-9,832	271,455	128,519
57,130	-9,548	271,328	128,710
58,144	-9,546	270,946	128,519
59,159	-9,455	270,804	128,524
60,174	-9,345	270,491	128,466
61,188	-9,256	270,282	128,437
62,203	-9,477	270,236	128,200
63,217	-9,378	269,872	128,107
64,232	-9,578	269,777	127,867
65,247	-9,422	269,439	127,839
66,261	-9,390	269,233	127,759
67,276	-9,644	268,901	127,357
68,290	-9,670	268,569	127,164
69,305	-9,931	268,580	126,920
70,320	-9,687	268,255	126,978
71,334	-9,509	268,149	127,079
72,349	-9,611	268,106	126,954
73,363	-9,590	267,827	126,829
74,378	-9,358	267,518	126,884
75,393	-9,507	267,485	126,721
76,407	-9,637	267,236	126,473
77,422	-9,418	266,950	126,526
78,436	-9,508	266,751	126,338
79,451	-9,498	266,556	126,244
80,466	-9,684	266,224	125,907
81,480	-9,764	265,890	125,665
82,495	-9,701	265,858	125,696
83,509	-9,529	265,516	125,678
84,524	-9,642	265,305	125,465
85,539	-9,804	265,084	125,203
86,553	-9,842	264,864	125,054
87,568	-9,664	264,802	125,174
88,582	-9,833	264,611	124,921
89,597	-9,824	264,267	124,755
90,611	-9,499	264,347	125,074
91,626	-9,418	264,106	125,021
92,641	-9,516	263,852	124,802
93,655	-9,458	263,403	124,630
94,670	-9,438	263,252	124,566
95,684	-9,484	263,181	124,480
96,699	-9,522	263,079	124,387
97,714	-9,600	262,822	124,184
98,728	-9,813	262,558	123,858
99,743	-9,961	262,353	123,619
100,757	-9,930	262,193	123,560
101,772	-9,875	261,940	123,479
102,787	-9,609	261,870	123,671
103,801	-9,569	261,567	123,552
104,816	-9,525	261,532	123,564
105,830	-9,576	261,277	123,387
106,845	-9,550	261,132	123,331
107,860	-9,609	260,764	123,094
108,874	-9,662	260,786	123,047
109,889	-9,435	260,407	123,057
110,903	-9,515	260,322	122,935
111,918	-9,720	260,051	122,616
112,933	-9,520	259,850	122,686
113,947	-9,415	259,775	122,733
114,962	-9,523	259,489	122,491
115,976	-9,653	259,449	122,347
116,991	-9,650	259,182	122,213
118,006	-9,512	258,930	122,205
119,020	-9,561	258,955	122,162
120,035	-9,505	258,627	122,046
121,049	-9,445	258,420	121,990
122,064	-9,386	258,293	121,970
123,079	-9,476	258,089	121,784
124,093	-9,590	257,872	121,572
125,108	-9,852	257,714	121,257
126,122	-9,845	257,376	121,094
127,137	-9,877	256,966	120,862
128,151	-9,761	257,011	120,973
129,166	-9,932	256,894	120,759
130,181	-9,728	256,485	120,733
131,195	-9,639	256,208	120,670
132,210	-9,724	256,182	120,573
133,224	-9,487	256,153	120,754
134,239	-9,380	255,946	120,738
135,254	-9,489	255,810	120,569
136,268	-9,473	255,469	120,411
137,283	-9,808	255,287	120,025
138,297	-9,801	254,887	119,832
139,312	-9,865	254,936	119,789
140,327	-9,579	254,682	119,906
141,341	-9,326	254,724	120,133
142,356	-9,316	254,476	120,014
143,370	-9,442	254,299	119,811
144,385	-9,277	254,150	119,872
145,400	-9,330	253,993	119,742
146,414	-9,132	253,676	119,752
147,429	-9,123	253,544	119,687
148,443	-9,297	253,413	119,465
149,458	-9,300	253,236	119,368
150,473	-9,278	252,960	119,246
151,487	-9,288	252,842	119,172
152,502	-9,322	252,735	119,081
153,516	-9,296	252,552	119,007
154,531	-9,179	252,076	118,872
155,546	-9,270	252,068	118,779
156,560	-9,406	251,875	118,563
157,575	-9,440	251,799	118,487
158,589	-9,253	251,621	118,552
159,604	-9,433	251,424	118,296
160,619	-9,241	251,049	118,271
161,633	-9,352	251,013	118,150
162,648	-9,211	250,879	118,196
163,662	-9,116	250,778	118,218
164,677	-9,413	250,488	117,819
165,692	-9,303	250,334	117,830
166,706	-9,314	250,269	117,779
167,721	-9,288	249,950	117,641
168,735	-9,213	249,859	117,650
169,750	-9,240	249,790	117,584
170,764	-9,193	249,593	117,521
171,779	-9,225	249,533	117,455
172,794	-9,170	249,370	117,414
173,808	-9,216	249,160	117,266
174,823	-9,533	248,667	116,758
175,837	-9,831	248,436	116,389
176,852	-9,630	248,528	116,591
177,867	-9,258	248,476	116,868
178,881	-9,174	248,126	116,762
179,896	-9,239	248,072	116,673
180,910	-9,127	247,921	116,685
181,925	-9,114	247,673	116,569
182,940	-9,218	247,638	116,455
183,954	-9,089	247,322	116,403
184,969	-9,009	247,268	116,434
185,983	-9,294	247,159	116,135
186,998	-9,275	246,859	116,000
188,013	-9,196	246,763	116,010
189,027	-9,207	246,565	115,897
190,042	-9,133	246,418	115,879
191,056	-8,944	246,106	115,878
192,071	-9,181	245,970	115,608
193,086	-9,069	245,812	115,616
194,100	-9,148	245,922	115,593
195,115	-9,160	245,536	115,391
196,129	-9,102	245,466	115,396
197,144	-9,048	245,049	115,233
198,159	-9,201	244,914	115,033
199,173	-9,161	244,855	115,029
200,188	-9,232	244,723	114,898
201,202	-9,402	244,285	114,542
202,217	-9,747	244,099	114,162
203,232	-9,625	243,898	114,157
204,246	-9,353	243,908	114,375
205,261	-8,670	243,685	114,820
206,275	-9,395	243,499	114,128
207,290	-6,040	244,960	117,565
208,304	0,696	247,020	124,120
209,319	3,628	247,743	126,899
210,334	3,780	247,741	127,012
211,348	4,305	247,493	127,307
212,363	4,253	247,641	127,329
213,377	4,640	247,430	127,528
214,392	4,425	247,329	127,287
215,407	4,253	247,090	127,011
216,421	4,293	246,992	126,983
217,436	4,674	246,792	127,182
218,450	4,545	246,689	127,011
219,465	4,414	246,328	126,706
220,480	4,204	246,132	126,422
221,494	4,241	245,985	126,366
222,509	4,091	245,752	126,112
223,523	3,826	245,695	125,855
224,538	3,618	245,412	125,529
225,553	3,906	245,336	125,714
226,567	3,946	245,212	125,672
227,582	4,147	245,074	125,754
228,596	3,924	244,985	125,515
229,611	3,805	244,598	125,209
230,626	3,676	244,298	124,939
231,640	3,643	244,395	124,951
232,655	3,967	244,238	125,123
233,669	3,848	243,982	124,884
234,684	3,694	243,789	124,649
235,699	4,065	243,804	124,946
236,713	4,495	243,569	125,163
237,728	3,917	243,363	124,579
238,742	3,693	243,162	124,283
239,757	3,765	242,964	124,229
240,772	3,637	242,899	124,081
241,786	3,823	242,777	124,158
242,801	3,672	242,566	123,917
243,815	3,591	242,341	123,726
244,830	3,824	242,351	123,908
245,844	3,692	242,148	123,686
246,859	3,857	241,878	123,670
247,874	3,781	241,796	123,556
248,888	3,715	241,715	123,451
249,903	4,012	241,408	123,521
250,917	4,231	241,446	123,706
251,932	4,292	241,221	123,628
252,947	4,006	241,014	123,282
253,961	3,691	240,877	122,949
254,976	3,987	240,728	123,099
255,990	4,261	240,505	123,192
257,005	3,832	240,412	122,791
258,020	3,619	240,173	122,488
259,034	3,644	240,075	122,447
260,049	3,902	239,993	122,600
261,063	3,616	239,740	122,232
262,078	3,849	239,575	122,322
263,093	3,890	239,566	122,340
264,107	4,096	239,325	122,369
265,122	3,579	239,132	121,850
266,136	3,883	239,062	122,044
267,151	4,134	238,977	122,189
268,166	3,828	238,672	121,780
269,180	3,597	238,535	121,517
270,195	4,062	238,570	121,891
271,209	4,444	238,449	122,121
272,224	3,920	238,028	121,481
273,239	3,471	237,964	121,082
274,253	3,597	237,743	121,058
275,268	3,980	237,636	121,295
276,282	3,757	237,533	121,056
277,297	3,736	237,222	120,870
278,312	3,679	237,197	120,802
279,326	3,756	237,160	120,832
280,341	3,899	236,865	120,784
281,355	3,893	236,753	120,711
282,370	3,864	236,676	120,639
283,384	3,877	236,480	120,539
284,399	3,670	236,181	120,213
285,414	3,646	236,022	120,103
286,428	3,632	236,018	120,079
287,443	3,671	235,955	120,067
288,457	3,916	235,764	120,150
289,472	3,998	235,593	120,116
290,487	3,828	235,345	119,847
291,501	3,555	235,146	119,522
292,516	3,539	234,956	119,402
293,530	3,360	234,852	119,199
294,545	3,753	234,904	119,521
295,560	4,032	234,634	119,590
296,574	3,738	234,382	119,223
297,589	3,754	234,312	119,189
298,603	3,866	234,181	119,198
299,618	4,091	234,205	119,374
300,633	4,134	233,976	119,280
301,647	4,142	233,802	119,187
302,662	4,305	233,717	119,259
303,676	4,262	233,511	119,110
304,691	4,167	233,460	119,000
305,706	4,278	233,244	118,965
306,720	4,099	233,152	118,769
307,735	4,125	232,944	118,673
308,749	3,786	232,695	118,274
309,764	3,809	232,471	118,168
310,779	3,647	232,472	118,034
311,793	3,631	232,123	117,834
312,808	3,788	231,980	117,871
313,822	3,521	231,775	117,551
314,837	3,678	231,652	117,598
315,852	3,414	231,577	117,348
316,866	3,814	231,334	117,520
317,881	3,960	231,397	117,653
318,895	3,783	231,159	117,387
319,910	3,787	231,051	117,324
320,925	4,164	230,950	117,551
321,939	3,927	230,860	117,313
322,954	4,021	230,709	117,298
323,968	4,135	230,440	117,237
324,983	3,758	230,225	116,831
325,997	3,645	230,154	116,698
327,012	3,816	230,136	116,809
328,027	4,235	230,070	117,083
329,041	4,401	230,036	117,182
330,056	4,783	229,895	117,389
331,070	4,770	229,676	117,257
332,085	4,401	229,370	116,811
333,100	4,185	229,279	116,590
334,114	4,075	229,053	116,383
335,129	4,156	228,974	116,393
336,143	4,350	228,821	116,452
337,158	4,408	228,716	116,431
338,173	4,097	228,596	116,126
339,187	4,249	228,356	116,107
340,202	4,269	228,084	115,974
341,216	4,168	228,019	115,855
342,231	3,834	227,908	115,537
343,246	4,027	227,641	115,537
344,260	4,212	227,559	115,623
345,275	4,327	227,472	115,655
346,289	4,107	227,461	115,474
347,304	4,302	227,198	115,476
348,319	4,270	227,241	115,463
349,333	4,171	227,040	115,277
350,348	3,930	226,863	114,997
351,362	4,072	226,624	114,972
352,377	3,940	226,403	114,751
353,392	3,730	226,351	114,557
354,406	3,986	226,122	114,622
355,421	195,199	1321,647	1397,594
356,435	156,452	1455,141	1397,597
