DTS Sentinel unit serial number:	SN410029Multiplexer serial number:	ORYXHardware model number:	OX2-SRSoftware version number:	ORYX F/W v4,00 Oryx Data Collector v3.7.2.0data status	okinstallation	B5 Nyhavnadifferential loss correction	single-endedforward channel	channel 2reverse channel	N/Adate	2023/12/13time	18:12:13forward acquisition time	300,00reverse acquisition time	0,00gamma	499,1914k internal	0,3160k external	0,3160temperature offset calibration	1,0000default loss term (dB/km)	0,3820temperature slope calibration	1,0000multiplexer offset coefficient	1,0000multiplexer slope coefficient	1,0000fibre end	0,00T internal ref (°C)	13,01T ext. ref 1 (°C)	-4,26T ext. ref 2 (°C)	-4,33length (m)	temperature (°C)	Stokes	anti-Stokes-744,400	-149,727	0,153	-0,009
-743,385	-98,328	-0,245	-0,046
-742,371	-98,486	0,142	0,026
-741,356	-153,696	-0,351	0,017
-740,342	6,299	0,129	0,071
-739,327	-156,143	-0,220	-0,010
-738,312	800,000	0,048	0,141
-737,298	-153,335	-0,311	-0,016
-736,283	-164,831	0,089	-0,003
-735,269	-137,121	-0,279	0,023
-734,254	-154,232	0,165	-0,008
-733,239	-58,152	-0,442	-0,141
-732,225	122,754	0,214	0,197
-731,210	222,769	0,137	0,163
-730,196	-76,368	-0,059	-0,015
-729,181	375,263	-0,074	-0,111
-728,167	-200,000	-0,002	-0,025
-727,152	-70,142	-0,018	-0,005
-726,137	98,583	0,112	-0,095
-725,123	-200,000	-0,019	-0,086
-724,108	-200,000	-0,003	-0,079
-723,094	-188,495	0,049	-0,000
-722,079	73,689	-0,037	-0,029
-721,064	192,503	-0,106	0,118
-720,050	-200,000	-0,005	0,096
-719,035	800,000	0,054	-0,128
-718,021	800,000	-0,008	-0,020
-717,006	101,897	-0,099	-0,085
-715,991	-118,434	-0,105	0,014
-714,977	-131,664	-0,076	-0,007
-713,962	-87,408	-0,103	-0,023
-712,948	-130,425	-0,127	-0,013
-711,933	-200,000	0,015	0,060
-710,918	3,690	0,063	0,033
-709,904	-45,660	0,103	-0,037
-708,889	800,000	-0,036	0,107
-707,875	-2,501	0,171	-0,088
-706,860	-13,440	0,081	0,038
-705,845	-38,102	-0,072	0,028
-704,831	-200,000	-0,018	0,088
-703,816	157,377	-0,019	-0,019
-702,802	492,435	0,022	0,037
-701,787	-200,000	-0,022	-0,107
-700,772	-200,000	0,005	0,079
-699,758	-200,000	0,018	0,114
-698,743	203,914	0,038	0,043
-697,729	-72,799	0,166	-0,045
-696,714	-200,000	-0,006	-0,066
-695,699	800,000	0,027	0,057
-694,685	-72,396	-0,074	-0,020
-693,670	-200,000	-0,001	-0,114
-692,656	800,000	0,050	-0,112
-691,641	42,096	-0,118	-0,079
-690,627	7,074	0,106	0,058
-689,612	-83,094	0,087	0,020
-688,597	136,721	-0,197	-0,189
-687,583	155,398	-0,095	0,096
-686,568	101,133	-0,096	0,082
-685,554	94,669	0,082	-0,069
-684,539	16,759	-0,092	-0,054
-683,524	-50,874	-0,081	0,028
-682,510	1,741	0,060	-0,032
-681,495	-85,723	-0,090	0,020
-680,481	73,315	-0,081	-0,062
-679,466	491,247	0,056	0,094
-678,451	-200,000	-0,023	-0,091
-677,437	209,435	-0,029	-0,034
-676,422	-51,439	0,041	-0,014
-675,408	74,826	-0,064	-0,050
-674,393	246,685	-0,064	0,079
-673,378	800,000	-0,035	-0,094
-672,364	-34,139	0,089	-0,036
-671,349	97,716	-0,096	-0,081
-670,335	-200,000	0,043	-0,147
-669,320	800,000	-0,022	-0,046
-668,305	-21,949	-0,013	-0,006
-667,291	-200,000	-0,022	-0,130
-666,276	-2,130	-0,080	-0,041
-665,262	-60,506	-0,197	0,061
-664,247	-75,349	-0,090	-0,023
-663,232	-21,411	0,077	0,035
-662,218	-103,188	0,063	-0,011
-661,203	24,527	-0,104	-0,063
-660,189	-116,735	-0,015	-0,002
-659,174	-148,059	-0,017	0,001
-658,159	70,389	-0,065	-0,049
-657,145	-64,308	-0,125	0,037
-656,130	-99,617	0,189	0,035
-655,116	679,986	0,047	-0,091
-654,101	412,332	-0,102	0,160
-653,086	-111,406	-0,073	-0,011
-652,072	-129,000	0,054	-0,006
-651,057	346,941	0,047	-0,068
-650,043	177,910	0,018	0,019
-649,028	800,000	0,033	-0,102
-648,014	-102,122	0,066	0,012
-646,999	-200,000	-0,009	0,090
-645,984	-174,873	-0,112	0,002
-644,970	-200,000	-0,010	-0,038
-643,955	-200,000	-0,011	0,172
-642,941	90,523	-0,085	-0,070
-641,926	202,342	-0,068	0,077
-640,911	-114,588	0,056	-0,008
-639,897	348,320	0,096	0,139
-638,882	-200,000	-0,001	-0,078
-637,868	-200,000	-0,018	-0,125
-636,853	293,686	-0,057	0,077
-635,838	249,680	-0,047	-0,058
-634,824	467,677	0,062	0,102
-633,809	800,000	-0,017	-0,046
-632,795	0,455	0,051	0,026
-631,780	-200,000	-0,012	0,167
-630,765	149,702	-0,097	-0,096
-629,751	-101,177	-0,066	-0,012
-628,736	-128,161	-0,104	0,011
-627,722	-101,034	-0,008	0,002
-626,707	-200,000	-0,011	-0,165
-625,692	24,130	0,053	0,032
-624,678	800,000	-0,041	0,098
-623,663	250,890	-0,039	-0,049
-622,649	35,953	-0,096	0,062
-621,634	9,918	-0,064	0,036
-620,619	151,553	0,032	-0,032
-619,605	800,000	0,070	-0,144
-618,590	-90,078	-0,125	-0,027
-617,576	800,000	0,016	0,051
-616,561	25,961	-0,084	-0,051
-615,546	19,191	-0,013	0,008
-614,532	-15,120	-0,083	0,039
-613,517	40,442	0,101	0,067
-612,503	390,265	-0,020	-0,031
-611,488	800,000	0,024	0,050
-610,474	-107,889	-0,106	-0,017
-609,459	-138,605	0,026	0,002
-608,444	-145,106	0,142	-0,009
-607,430	171,757	-0,102	-0,108
-606,415	-200,000	0,018	-0,093
-605,401	800,000	0,030	-0,069
-604,386	-79,704	0,104	0,025
-603,371	-200,000	-0,011	0,169
-602,357	228,650	-0,072	-0,086
-601,342	-200,000	0,002	0,040
-600,328	800,000	-0,022	-0,056
-599,313	800,000	-0,016	0,039
-598,298	-200,000	0,023	-0,079
-597,284	-12,027	-0,101	-0,048
-596,269	-93,040	0,120	-0,024
-595,255	800,000	0,016	0,041
-594,240	800,000	0,007	0,019
-593,225	-200,000	0,034	-0,140
-592,211	-24,955	-0,074	-0,032
-591,196	-137,147	-0,075	-0,006
-590,182	76,896	-0,058	0,045
-589,167	-19,779	0,017	-0,008
-588,152	800,000	-0,019	0,041
-587,138	-155,671	-0,084	0,004
-586,123	-105,386	-0,157	-0,026
-585,109	-76,576	-0,106	-0,027
-584,094	236,846	0,036	-0,043
-583,079	-99,249	0,136	-0,025
-582,065	800,000	-0,018	0,050
-581,050	-41,256	0,050	-0,019
-580,036	7,390	-0,056	0,031
-579,021	23,041	-0,055	-0,033
-578,006	-147,626	-0,072	0,004
-576,992	800,000	0,010	-0,021
-575,977	-200,000	0,003	-0,050
-574,963	-200,000	-0,010	-0,096
-573,948	800,000	-0,011	-0,027
-572,934	379,729	-0,054	0,082
-571,919	-102,401	0,094	-0,016
-570,904	198,610	-0,043	0,049
-569,890	-48,933	0,053	0,018
-568,875	-200,000	0,025	0,138
-567,861	161,664	0,094	-0,096
-566,846	165,027	-0,088	0,091
-565,831	800,000	-0,057	-0,161
-564,817	-200,000	-0,021	0,081
-563,802	76,296	-0,087	-0,068
-562,788	204,043	-0,047	-0,054
-561,773	-71,795	0,049	-0,013
-560,758	-150,097	0,150	0,008
-559,744	-1,794	0,006	-0,003
-558,729	23,776	-0,055	0,033
-557,715	-139,064	-0,098	-0,008
-556,700	-200,000	-0,010	0,038
-555,685	-200,000	-0,014	0,091
-554,671	-200,000	0,003	0,017
-553,656	-43,474	0,121	0,044
-552,642	128,698	0,089	-0,083
-551,627	800,000	0,057	-0,136
-550,612	-200,000	0,000	0,043
-549,598	-200,000	0,003	-0,069
-548,583	100,186	-0,017	0,015
-547,569	800,000	0,079	-0,204
-546,554	218,018	-0,017	0,019
-545,539	800,000	0,040	0,085
-544,525	-200,000	-0,007	0,025
-543,510	708,317	-0,042	0,082
-542,496	18,547	-0,057	-0,033
-541,481	-200,000	0,042	-0,151
-540,466	431,158	0,130	0,206
-539,452	131,437	0,051	0,048
-538,437	20,259	0,077	-0,046
-537,423	262,800	-0,073	0,093
-536,408	-200,000	0,008	-0,037
-535,393	-35,399	0,099	-0,039
-534,379	-124,477	-0,103	-0,012
-533,364	-200,000	-0,016	-0,214
-532,350	-60,877	0,164	0,050
-531,335	-171,925	-0,016	0,000
-530,321	-200,000	-0,003	0,012
-529,306	-200,000	0,003	0,044
-528,291	800,000	-0,049	-0,147
-527,277	-200,000	0,029	0,110
-526,262	-92,698	0,058	0,012
-525,248	-144,154	-0,118	-0,008
-524,233	-51,582	0,012	0,004
-523,218	-200,000	0,014	0,056
-522,204	312,784	0,034	-0,046
-521,189	-181,289	-0,135	-0,002
-520,175	26,051	-0,102	0,062
-519,160	231,961	0,047	0,057
-518,145	95,672	0,062	0,052
-517,131	622,703	0,083	0,154
-516,116	105,401	0,073	-0,063
-515,102	182,778	-0,029	-0,031
-514,087	292,868	-0,068	-0,090
-513,072	-168,850	-0,099	-0,003
-512,058	-64,904	-0,153	-0,045
-511,043	-72,063	-0,096	-0,026
-510,029	108,269	0,150	0,131
-509,014	38,048	0,121	0,078
-507,999	370,353	-0,051	-0,076
-506,985	800,000	-0,010	-0,027
-505,970	800,000	0,050	-0,141
-504,956	-200,000	0,018	-0,074
-503,941	800,000	-0,010	0,032
-502,926	-69,412	0,160	-0,045
-501,912	255,801	-0,090	0,113
-500,897	-125,397	0,162	-0,018
-499,883	79,753	-0,077	-0,060
-498,868	-200,000	0,017	-0,163
-497,853	237,882	0,115	-0,140
-496,839	800,000	-0,060	0,125
-495,824	-96,402	0,143	0,027
-494,810	240,328	0,054	-0,065
-493,795	-76,933	0,034	0,009
-492,781	-26,615	-0,065	-0,028
-491,766	-200,000	-0,049	-0,191
-490,751	-83,798	-0,048	0,011
-489,737	773,431	-0,026	-0,052
-488,722	-42,902	-0,019	0,007
-487,708	-200,000	-0,031	0,000
-486,693	-114,603	0,032	0,004
-485,678	212,228	-0,040	-0,046
-484,664	1,514	-0,023	-0,012
-483,649	-200,000	0,016	0,063
-482,635	-48,225	-0,107	-0,037
-481,620	214,288	0,094	-0,109
-480,605	-200,000	0,005	-0,152
-479,591	-61,830	0,028	0,008
-478,576	71,755	0,093	-0,070
-477,562	-200,000	0,056	-0,184
-476,547	54,456	-0,081	0,057
-475,532	77,673	0,105	-0,081
-474,518	11,472	0,137	-0,076
-473,503	800,000	-0,030	-0,080
-472,489	33,706	0,045	-0,029
-471,474	-0,187	-0,104	0,054
-470,459	-200,000	-0,007	0,117
-469,445	271,865	-0,045	-0,057
-468,430	-154,568	-0,078	0,004
-467,416	194,458	0,075	-0,083
-466,401	-55,424	0,220	-0,072
-465,386	-200,000	-0,004	-0,087
-464,372	567,920	0,041	0,072
-463,357	-200,000	-0,000	0,056
-462,343	285,403	-0,036	0,047
-461,328	-0,819	0,026	0,013
-460,313	800,000	0,056	0,143
-459,299	229,020	0,112	0,134
-458,284	0,929	-0,106	0,055
-457,270	-132,567	-0,040	-0,004
-456,255	-200,000	-0,031	-0,114
-455,241	473,650	-0,035	-0,057
-454,226	496,334	-0,064	-0,108
-453,211	336,184	0,076	0,108
-452,197	439,694	-0,041	0,065
-451,182	3,006	0,096	0,051
-450,168	66,356	-0,103	0,076
-449,153	83,264	-0,079	-0,063
-448,138	-177,237	-0,120	-0,002
-447,124	-26,254	0,056	-0,024
-446,109	-200,000	-0,039	-0,177
-445,095	-86,066	-0,043	0,009
-444,080	800,000	0,011	0,027
-443,065	-200,000	-0,001	-0,026
-442,051	-35,638	-0,089	-0,035
-441,036	137,344	-0,078	-0,074
-440,022	800,000	-0,018	0,041
-439,007	99,147	-0,114	0,096
-437,992	-13,755	0,080	0,038
-436,978	225,925	-0,050	0,059
-435,963	124,402	-0,089	-0,082
-434,949	179,837	0,008	-0,009
-433,934	-200,000	0,001	-0,074
-432,919	-200,000	0,004	-0,032
-431,905	800,000	0,040	0,096
-430,890	-200,000	0,001	-0,045
-429,876	-200,000	-0,048	0,212
-428,861	54,837	-0,052	-0,036
-427,846	-200,000	0,003	0,088
-426,832	565,050	0,036	-0,063
-425,817	117,260	-0,031	-0,028
-424,803	800,000	-0,041	-0,110
-423,788	339,096	0,052	0,074
-422,773	389,204	0,095	0,144
-421,759	-168,821	0,030	0,001
-420,744	549,425	-0,092	-0,162
-419,730	-200,000	0,002	-0,012
-418,715	653,224	0,038	0,072
-417,701	-200,000	0,018	0,061
-416,686	-200,000	0,005	0,166
-415,671	176,863	0,032	0,034
-414,657	800,000	-0,079	0,232
-413,642	800,000	0,049	-0,117
-412,628	800,000	-0,032	-0,101
-411,613	-27,316	-0,133	-0,056
-410,598	800,000	0,071	-0,154
-409,584	-87,751	-0,072	0,016
-408,569	664,110	0,030	0,056
-407,555	800,000	0,044	0,113
-406,540	-160,819	0,072	-0,003
-405,525	356,360	0,071	0,103
-404,511	52,372	-0,055	-0,038
-403,496	-92,054	-0,093	0,019
-402,482	-114,996	0,054	0,007
-401,467	-200,000	-0,013	0,055
-400,452	800,000	0,050	0,103
-399,438	8,813	0,018	-0,010
-398,423	-110,728	0,051	0,008
-397,409	23,612	-0,123	0,074
-396,394	-13,482	0,086	0,041
-395,379	-200,000	-0,033	-0,157
-394,365	-19,389	0,184	0,082
-393,350	-48,928	-0,079	-0,027
-392,336	128,616	0,022	0,020
-391,321	-63,185	0,050	-0,015
-390,306	-200,000	0,004	-0,085
-389,292	9,070	-0,095	-0,052
-388,277	333,573	-0,039	-0,055
-387,263	-176,146	-0,032	-0,001
-386,248	-127,501	-0,093	0,010
-385,233	-200,000	-0,017	0,079
-384,219	-200,000	-0,003	0,061
-383,204	-200,000	-0,010	-0,080
-382,190	205,564	0,084	-0,095
-381,175	800,000	0,063	-0,146
-380,160	-200,000	0,020	0,077
-379,146	53,391	0,127	-0,088
-378,131	489,806	0,033	0,055
-377,117	289,866	-0,033	0,043
-376,102	242,504	0,034	-0,041
-375,088	58,494	-0,146	0,104
-374,073	45,125	0,048	0,032
-373,058	-142,312	-0,071	-0,005
-372,044	129,949	0,027	-0,025
-371,029	104,446	-0,050	0,042
-370,015	800,000	-0,003	0,008
-369,000	-59,471	0,066	-0,021
-367,985	-165,651	-0,172	-0,005
-366,971	800,000	0,042	-0,085
-365,956	-41,502	0,086	-0,032
-364,942	567,682	-0,008	-0,015
-363,927	800,000	0,057	-0,174
-362,912	-200,000	0,014	0,136
-361,898	-200,000	-0,000	0,031
-360,883	716,451	0,038	-0,074
-359,869	-61,920	0,077	0,023
-358,854	-200,000	-0,028	-0,136
-357,839	800,000	-0,046	0,137
-356,825	110,866	0,139	0,122
-355,810	-200,000	0,009	0,160
-354,796	-200,000	-0,021	0,074
-353,781	800,000	-0,025	0,059
-352,766	492,033	0,056	-0,094
-351,752	12,132	0,055	0,031
-350,737	-142,558	0,135	-0,009
-349,723	310,762	0,018	0,024
-348,708	800,000	0,022	-0,051
-347,693	60,245	0,033	-0,024
-346,679	-56,293	0,024	0,008
-345,664	108,642	-0,056	0,048
-344,650	-200,000	0,031	-0,109
-343,635	187,014	-0,027	-0,030
-342,620	800,000	0,006	0,014
-341,606	364,230	-0,024	0,036
-340,591	800,000	0,039	-0,101
-339,577	79,092	-0,133	-0,103
-338,562	52,783	0,061	-0,042
-337,548	-200,000	-0,001	-0,015
-336,533	169,046	-0,031	-0,032
-335,518	800,000	0,024	0,072
-334,504	-152,795	0,025	-0,001
-333,489	-114,220	-0,065	-0,009
-332,475	386,899	-0,065	-0,098
-331,460	-200,000	-0,027	-0,129
-330,445	78,037	0,061	0,047
-329,431	-137,022	0,162	0,013
-328,416	800,000	-0,075	0,165
-327,402	-200,000	-0,007	0,055
-326,387	139,834	0,083	-0,079
-325,372	614,327	0,026	-0,048
-324,358	-200,000	-0,029	0,163
-323,343	-200,000	-0,011	0,062
-322,329	64,084	-0,082	0,060
-321,314	97,844	-0,042	0,035
-320,299	776,686	0,020	0,039
-319,285	-101,250	-0,050	0,009
-318,270	13,228	0,129	0,072
-317,256	368,350	0,085	-0,125
-316,241	-10,752	-0,180	0,086
-315,226	-99,668	0,065	-0,012
-314,212	457,712	0,059	0,095
-313,197	800,000	0,038	0,080
-312,183	67,885	0,032	-0,024
-311,168	-167,346	-0,075	0,002
-310,153	628,253	-0,012	-0,022
-309,139	-200,000	-0,013	-0,132
-308,124	-114,814	0,114	-0,016
-307,110	350,191	-0,047	0,067
-306,095	18,654	-0,091	0,053
-305,080	9,473	0,058	-0,032
-304,066	-200,000	0,013	-0,046
-303,051	-47,835	0,050	-0,017
-302,037	50,327	-0,080	-0,055
-301,022	-5,356	0,059	-0,029
-300,008	-103,993	0,096	-0,016
-298,993	180,115	0,036	0,038
-297,978	-200,000	0,024	0,079
-296,964	78,936	-0,033	-0,026
-295,949	-47,085	-0,075	-0,026
-294,935	232,374	0,087	-0,103
-293,920	-200,000	0,011	0,050
-292,905	-200,000	-0,004	0,091
-291,891	-200,000	-0,020	0,072
-290,876	-58,962	-0,157	0,049
-289,862	6,786	0,147	0,079
-288,847	-104,569	-0,168	-0,028
-287,832	800,000	0,028	-0,085
-286,818	415,660	0,022	-0,034
-285,803	87,748	0,066	0,053
-284,789	-134,961	0,174	0,015
-283,774	-81,237	-0,076	0,018
-282,759	-200,000	-0,008	-0,164
-281,745	-200,000	-0,002	0,024
-280,730	436,307	-0,063	-0,099
-279,716	-200,000	0,018	0,066
-278,701	800,000	-0,029	-0,080
-277,686	398,741	0,024	0,036
-276,672	209,949	-0,041	-0,047
-275,657	800,000	0,016	-0,040
-274,643	583,562	0,061	-0,109
-273,628	-40,069	-0,053	0,020
-272,613	800,000	0,011	-0,034
-271,599	800,000	-0,016	0,050
-270,584	-200,000	0,001	-0,018
-269,570	-200,000	0,002	0,031
-268,555	763,787	0,027	-0,053
-267,540	40,134	-0,047	0,031
-266,526	-61,106	-0,164	-0,050
-265,511	253,016	0,074	-0,092
-264,497	-200,000	-0,016	0,105
-263,482	800,000	-0,022	0,061
-262,467	-56,338	-0,070	0,022
-261,453	-19,045	-0,062	0,028
-260,438	-83,581	0,056	0,013
-259,424	240,970	-0,013	-0,015
-258,409	-125,875	-0,119	-0,013
-257,395	232,382	-0,063	-0,075
-256,380	-200,000	-0,003	0,199
-255,365	-169,106	-0,166	-0,004
-254,351	22,298	0,062	0,036
-253,336	-93,789	-0,247	0,049
-252,322	-118,102	0,104	-0,013
-251,307	-47,763	-0,038	0,013
-250,292	-99,004	0,072	-0,013
-249,278	-47,631	0,090	0,031
-248,263	-121,435	-0,183	-0,022
-247,249	321,321	-0,022	-0,030
-246,234	-64,373	0,068	-0,020
-245,219	-89,914	0,171	0,036
-244,205	86,255	-0,072	-0,058
-243,190	-200,000	-0,003	-0,013
-242,176	-200,000	0,033	0,121
-241,161	-148,662	-0,019	0,001
-240,146	-91,456	0,056	-0,011
-239,132	-200,000	0,049	0,165
-238,117	421,966	-0,059	0,092
-237,103	283,259	0,032	-0,042
-236,088	39,798	-0,126	0,081
-235,073	649,312	-0,032	-0,059
-234,059	334,911	-0,064	0,090
-233,044	-96,361	0,118	-0,022
-232,030	149,861	-0,032	-0,032
-231,015	388,733	0,031	-0,047
-230,000	116,036	0,029	-0,025
-228,986	-200,000	-0,011	-0,170
-227,971	-200,000	-0,007	-0,037
-226,957	-6,042	0,124	-0,061
-225,942	-33,895	0,077	0,030
-224,927	267,031	-0,070	0,088
-223,913	362,200	0,045	-0,066
-222,898	-129,984	-0,061	0,006
-221,884	-108,441	-0,132	-0,020
-220,869	-78,178	0,184	0,045
-219,855	-200,000	-0,004	0,192
-218,840	87,718	0,100	0,080
-217,825	-200,000	-0,015	-0,067
-216,811	-200,000	0,009	-0,046
-215,796	-200,000	-0,004	-0,039
-214,782	-200,000	-0,001	0,107
-213,767	73,615	0,092	0,069
-212,752	307,753	0,076	-0,103
-211,738	-6,138	-0,093	-0,046
-210,723	-200,000	-0,001	-0,054
-209,709	455,766	-0,097	-0,156
-208,694	486,344	-0,081	0,134
-207,679	-174,027	-0,036	0,001
-206,665	-77,265	-0,144	0,036
-205,650	23,111	0,017	-0,010
-204,636	-200,000	0,033	0,209
-203,621	-175,027	0,083	-0,002
-202,606	800,000	0,046	0,108
-201,592	-131,344	-0,149	-0,014
-200,577	-116,336	0,113	-0,015
-199,563	265,053	0,078	-0,098
-198,548	800,000	0,031	0,074
-197,533	56,977	0,036	-0,025
-196,519	178,232	0,100	0,105
-195,504	135,341	-0,056	0,053
-194,490	60,153	0,111	-0,079
-193,475	800,000	-0,044	-0,108
-192,460	-200,000	-0,021	0,068
-191,446	800,000	-0,026	-0,058
-190,431	414,320	-0,029	-0,044
-189,417	-99,167	0,091	-0,016
-188,402	-200,000	0,007	-0,089
-187,387	-200,000	0,003	-0,011
-186,373	-85,840	-0,199	-0,044
-185,358	-110,458	0,133	0,020
-184,344	-32,439	-0,063	-0,025
-183,329	608,906	0,029	0,052
-182,315	676,052	0,026	-0,049
-181,300	800,000	-0,047	0,129
-180,285	311,141	-0,011	-0,015
-179,271	-54,110	0,190	-0,062
-178,256	-200,000	0,011	-0,051
-177,242	578,051	-0,072	0,128
-176,227	-7,342	0,058	-0,028
-175,212	-200,000	-0,001	0,048
-174,198	323,113	-0,036	0,050
-173,183	-46,572	-0,130	-0,046
-172,169	164,870	-0,032	-0,033
-171,154	2,134	-0,049	-0,025
-170,139	-2,443	-0,015	-0,007
-169,125	351,938	0,016	-0,023
-168,110	-200,000	0,001	0,110
-167,096	800,000	0,015	-0,037
-166,081	65,416	0,128	-0,093
-165,066	584,210	-0,010	0,017
-164,052	187,462	0,042	-0,046
-163,037	-113,674	0,070	0,010
-162,023	263,474	0,074	0,092
-161,008	-31,353	-0,045	0,018
-159,993	25,007	0,181	0,108
-158,979	28,784	-0,180	0,110
-157,964	362,701	-0,080	0,116
-156,950	-81,061	-0,067	0,016
-155,935	64,979	-0,044	-0,032
-154,920	283,167	0,129	0,167
-153,906	31,854	0,091	0,056
-152,891	70,898	0,091	0,068
-151,877	618,838	-0,046	-0,084
-150,862	521,253	-0,069	-0,117
-149,847	-7,195	-0,100	-0,049
-148,833	385,300	0,042	-0,063
-147,818	-69,295	-0,062	0,017
-146,804	-200,000	0,009	0,071
-145,789	219,013	0,102	-0,117
-144,775	54,832	-0,079	-0,055
-143,760	54,898	-0,118	-0,082
-142,745	-8,532	-0,077	-0,037
-141,731	800,000	0,025	-0,068
-140,716	-79,437	-0,052	0,013
-139,702	-125,435	0,178	-0,019
-138,687	-83,595	-0,053	-0,012
-137,672	-77,791	-0,122	0,030
-136,658	-134,769	-0,120	0,010
-135,643	-53,650	-0,020	-0,006
-134,629	-200,000	-0,010	-0,109
-133,614	-36,281	-0,140	0,054
-132,599	100,015	-0,107	-0,089
-131,585	800,000	0,087	-0,182
-130,570	238,401	0,086	-0,103
-129,556	-134,209	-0,212	0,019
-128,541	90,315	-0,035	-0,028
-127,526	-132,606	0,104	-0,009
-126,512	335,239	-0,016	-0,022
-125,497	800,000	0,017	-0,036
-124,483	-200,000	0,013	0,076
-123,468	-200,000	-0,015	0,049
-122,453	23,428	0,056	-0,033
-121,439	12,763	-0,050	0,027
-120,424	42,442	-0,045	0,030
-119,410	-20,109	0,078	0,035
-118,395	800,000	-0,012	0,024
-117,380	-200,000	0,003	0,119
-116,366	510,414	0,009	-0,014
-115,351	800,000	-0,038	-0,107
-114,337	-79,559	-0,081	0,020
-113,322	-200,000	0,002	-0,041
-112,307	-73,913	-0,079	0,020
-111,293	-200,000	-0,011	-0,138
-110,278	-3,026	-0,102	-0,051
-109,264	-42,766	0,052	-0,019
-108,249	800,000	0,064	-0,129
-107,234	-27,984	-0,046	-0,019
-106,220	76,973	-0,076	0,058
-105,205	-168,499	0,038	-0,001
-104,191	-108,140	-0,029	0,005
-103,176	90,431	0,114	0,092
-102,162	158,080	-0,073	-0,073
-101,147	51,749	-0,129	-0,088
-100,132	32,821	0,098	-0,061
-99,118	-53,164	-0,142	0,046
-98,103	603,250	0,029	0,053
-97,089	800,000	0,024	-0,052
-96,074	-200,000	-0,007	-0,037
-95,059	228,482	0,023	0,027
-94,045	-62,082	-0,056	-0,017
-93,030	-200,000	-0,006	-0,019
-92,016	126,118	-0,075	-0,069
-91,001	-200,000	-0,001	0,072
-89,986	-125,948	0,071	0,008
-88,972	755,279	-0,022	-0,043
-87,957	516,511	0,051	0,087
-86,943	28,120	0,050	0,030
-85,928	-57,616	-0,035	-0,011
-84,913	140,644	0,093	-0,088
-83,899	207,691	0,107	0,120
-82,884	-4,441	0,130	0,064
-81,870	62,011	-0,071	0,050
-80,855	-200,000	0,010	0,156
-79,840	800,000	0,031	-0,065
-78,826	-32,499	-0,231	-0,092
-77,811	183,071	-0,032	-0,034
-76,797	-200,000	-0,009	-0,192
-75,782	-87,635	-0,088	-0,019
-74,767	74,087	-0,065	-0,049
-73,753	45,126	-0,052	-0,034
-72,738	256,947	-0,061	-0,075
-71,724	800,000	0,041	-0,125
-70,709	340,693	-0,042	-0,059
-69,694	185,507	-0,122	-0,130
-68,680	-200,000	0,010	0,078
-67,665	-200,000	-0,022	0,104
-66,651	116,628	-0,160	-0,141
-65,636	407,716	0,011	-0,017
-64,622	667,798	0,078	-0,146
-63,607	-200,000	-0,011	-0,110
-62,592	-150,501	0,125	-0,007
-61,578	800,000	-0,053	0,112
-60,563	485,765	0,021	0,035
-59,549	652,154	-0,026	0,047
-58,534	25,054	-2,153	-1,279
-57,519	-200,000	-0,051	-0,647
-56,505	-200,000	-1,354	-5,186
-55,490	198,094	0,782	0,858
-54,476	800,000	5,309	12,064
-53,461	-200,000	19,209	326,523
-52,446	800,000	746,095	2338,304
-51,432	552,150	1659,284	2869,445
-50,417	113,958	1641,166	1431,064
-49,403	79,953	1290,934	994,167
-48,388	30,886	1031,357	632,210
-47,373	19,805	994,086	572,648
-46,359	16,805	982,088	555,829
-45,344	13,446	978,570	542,752
-44,330	13,816	976,607	542,858
-43,315	13,126	974,876	539,608
-42,300	13,110	973,656	538,861
-41,286	13,085	972,804	538,284
-40,271	13,037	971,968	537,643
-39,257	13,039	970,959	537,071
-38,242	13,012	970,320	536,606
-37,227	13,066	969,312	536,206
-36,213	13,012	968,314	535,453
-35,198	12,986	967,440	534,867
-34,184	13,049	966,900	534,751
-33,169	13,068	965,805	534,184
-32,154	13,039	964,882	533,561
-31,140	13,003	964,142	533,012
-30,125	13,064	963,202	532,672
-29,111	13,105	962,179	532,217
-28,096	13,078	961,659	531,821
-27,082	12,985	961,113	531,196
-26,067	13,056	960,131	530,860
-25,052	13,033	959,486	530,411
-24,038	13,064	958,901	530,165
-23,023	13,052	958,267	529,756
-22,009	13,060	957,693	529,441
-20,994	13,054	956,977	529,005
-19,979	13,062	956,246	528,606
-18,965	13,022	955,547	528,071
-17,950	13,022	955,187	527,852
-16,936	13,009	954,410	527,359
-15,921	13,007	953,859	527,028
-14,906	12,927	953,087	526,323
-13,892	12,991	952,332	526,091
-12,877	12,937	951,778	525,589
-11,863	12,878	951,085	524,997
-10,848	12,955	950,590	524,952
-9,833	13,032	950,080	524,894
-8,819	13,024	949,318	524,425
-7,804	12,923	948,627	523,702
-6,790	12,929	948,097	523,406
-5,775	12,928	947,529	523,071
-4,760	12,958	947,148	522,933
-3,746	12,948	946,462	522,504
-2,731	12,828	945,693	521,676
-1,717	12,792	944,996	521,155
-0,702	12,734	944,403	520,623
0,313	12,612	943,601	520,580
1,327	15,904	941,289	529,692
2,342	24,776	794,322	470,537
3,356	20,517	458,017	264,781
4,371	-6,824	315,778	153,306
5,386	-11,175	297,890	140,177
6,400	-13,049	291,905	135,475
7,415	-13,336	289,486	134,057
8,429	-13,329	287,894	133,314
9,444	-13,494	287,069	132,758
10,459	-13,326	286,374	132,589
11,473	-13,449	285,888	132,233
12,488	-13,350	285,372	132,078
13,502	-13,402	284,726	131,717
14,517	-13,150	284,420	131,809
15,531	-12,873	284,149	131,941
16,546	-12,686	283,762	131,931
17,561	-12,884	283,256	131,492
18,575	-12,865	283,178	131,462
19,590	-12,754	282,752	131,361
20,604	-12,827	282,342	131,088
21,619	-12,904	281,989	130,838
22,634	-12,856	281,757	130,765
23,648	-12,720	281,396	130,716
24,663	-12,753	281,172	130,569
25,677	-12,768	280,790	130,366
26,692	-12,787	280,583	130,240
27,707	-12,702	280,369	130,211
28,721	-12,639	280,065	130,118
29,736	-12,716	279,787	129,903
30,750	-12,693	279,189	129,636
31,765	-12,751	279,165	129,558
32,780	-12,611	278,881	129,548
33,794	-12,622	278,676	129,431
34,809	-12,531	278,446	129,399
35,823	-12,726	278,219	129,097
36,838	-12,868	277,908	128,807
37,853	-12,774	277,677	128,776
38,867	-12,898	277,470	128,552
39,882	-12,575	277,067	128,659
40,896	-12,665	276,851	128,463
41,911	-12,588	276,625	128,419
42,926	-12,691	276,448	128,228
43,940	-12,638	276,139	128,123
44,955	-12,825	275,965	127,854
45,969	-12,700	275,737	127,856
46,984	-12,823	275,399	127,572
47,999	-12,781	275,295	127,551
49,013	-12,795	274,972	127,377
50,028	-12,855	274,858	127,257
51,042	-12,884	274,434	127,023
52,057	-12,880	274,419	127,008
53,071	-12,893	274,057	126,816
54,086	-12,861	273,839	126,734
55,101	-12,922	273,641	126,575
56,115	-12,778	273,361	126,568
57,130	-12,815	273,311	126,499
58,144	-12,909	273,012	126,261
59,159	-12,772	272,686	126,227
60,174	-12,903	272,469	125,994
61,188	-12,879	272,271	125,913
62,203	-12,734	272,077	125,947
63,217	-12,613	271,874	125,954
64,232	-12,748	271,725	125,748
65,247	-12,824	271,405	125,518
66,261	-12,802	271,108	125,390
67,276	-12,665	270,771	125,350
68,290	-12,719	270,620	125,219
69,305	-12,998	270,488	124,890
70,320	-12,853	270,225	124,891
71,334	-12,749	270,032	124,886
72,349	-12,896	269,875	124,667
73,363	-12,840	269,484	124,527
74,378	-12,785	269,320	124,490
75,393	-13,007	269,115	124,181
76,407	-12,761	268,772	124,236
77,422	-12,652	268,574	124,234
78,436	-12,694	268,498	124,150
79,451	-12,777	268,134	123,894
80,466	-12,884	267,912	123,683
81,480	-12,693	267,836	123,811
82,495	-12,654	267,342	123,607
83,509	-12,736	267,347	123,524
84,524	-12,674	267,073	123,442
85,539	-12,542	266,833	123,440
86,553	-12,737	266,743	123,211
87,568	-12,937	266,577	122,942
88,582	-12,839	266,329	122,905
89,597	-12,604	266,101	123,001
90,611	-12,759	265,936	122,774
91,626	-12,736	265,734	122,691
92,641	-12,874	265,564	122,476
93,655	-12,929	265,416	122,348
94,670	-12,980	265,154	122,170
95,684	-12,927	265,020	122,145
96,699	-12,929	264,664	121,969
97,714	-12,623	264,468	122,142
98,728	-12,675	264,354	122,032
99,743	-12,856	264,160	121,769
100,757	-12,561	263,823	121,868
101,772	-12,865	263,778	121,564
102,787	-12,879	263,324	121,331
103,801	-12,837	263,280	121,337
104,816	-12,862	263,109	121,226
105,830	-12,896	262,850	121,065
106,845	-12,926	262,763	120,987
107,860	-12,816	262,343	120,881
108,874	-13,025	262,275	120,653
109,889	-12,834	261,861	120,621
110,903	-12,898	261,666	120,464
111,918	-12,893	261,587	120,421
112,933	-13,022	261,507	120,259
113,947	-12,873	261,328	120,299
114,962	-12,754	260,922	120,206
115,976	-12,744	260,875	120,183
116,991	-12,829	260,730	120,030
118,006	-12,712	260,478	120,007
119,020	-12,784	260,276	119,839
120,035	-12,863	260,111	119,683
121,049	-12,902	259,887	119,535
122,064	-13,062	259,811	119,348
123,079	-12,925	259,681	119,398
124,093	-12,688	259,346	119,442
125,108	-12,789	259,185	119,268
126,122	-12,768	258,982	119,183
127,137	-12,717	258,724	119,098
128,151	-12,793	258,518	118,926
129,166	-12,911	258,454	118,783
130,181	-12,858	258,218	118,710
131,195	-12,814	257,974	118,626
132,210	-12,970	257,724	118,364
133,224	-12,997	257,531	118,242
134,239	-13,011	257,288	118,108
135,254	-13,032	257,085	117,985
136,268	-12,730	256,873	118,140
137,283	-12,627	256,794	118,182
138,297	-12,916	256,470	117,772
139,312	-13,104	256,350	117,544
140,327	-12,791	256,065	117,674
141,341	-12,683	255,996	117,725
142,356	-12,868	255,850	117,487
143,370	-12,838	255,624	117,399
144,385	-12,577	255,464	117,540
145,400	-12,667	255,277	117,366
146,414	-12,613	255,213	117,373
147,429	-12,646	254,916	117,197
148,443	-12,844	254,669	116,902
149,458	-12,818	254,513	116,843
150,473	-12,739	254,254	116,781
151,487	-13,081	254,196	116,451
152,502	-12,815	253,921	116,543
153,516	-12,725	253,762	116,537
154,531	-12,714	253,497	116,414
155,546	-12,700	253,313	116,331
156,560	-12,763	253,188	116,209
157,575	-12,955	253,047	115,970
158,589	-12,927	252,725	115,836
159,604	-12,616	252,465	115,972
160,619	-12,700	252,383	115,853
161,633	-12,721	252,242	115,760
162,648	-12,575	252,105	115,810
163,662	-12,823	251,947	115,516
164,677	-12,611	251,713	115,579
165,692	-12,676	251,553	115,441
166,706	-12,506	251,313	115,464
167,721	-12,562	251,186	115,347
168,735	-12,626	251,120	115,253
169,750	-12,719	251,000	115,109
170,764	-12,766	250,724	114,932
171,779	-12,690	250,557	114,910
172,794	-12,730	250,492	114,836
173,808	-12,719	250,163	114,684
174,823	-12,897	250,068	114,480
175,837	-13,038	249,869	114,260
176,852	-12,851	249,513	114,244
177,867	-12,542	249,469	114,474
178,881	-12,829	249,285	114,138
179,896	-12,707	249,108	114,149
180,910	-12,687	248,962	114,089
181,925	-12,478	248,781	114,171
182,940	-12,837	248,554	113,756
183,954	-12,784	248,493	113,762
184,969	-12,708	248,409	113,778
185,983	-12,624	248,137	113,713
186,998	-12,598	248,078	113,697
188,013	-12,699	247,734	113,445
189,027	-12,473	247,422	113,481
190,042	-12,742	247,314	113,197
191,056	-12,981	247,295	112,979
192,071	-12,828	246,952	112,939
193,086	-13,002	246,816	112,722
194,100	-12,755	246,555	112,798
195,115	-12,829	246,406	112,659
196,129	-12,808	246,255	112,597
197,144	-12,823	245,995	112,456
198,159	-12,738	245,809	112,431
199,173	-12,985	245,751	112,190
200,188	-13,122	245,512	111,958
201,202	-13,083	245,143	111,812
202,217	-13,024	245,241	111,895
203,232	-12,990	244,942	111,776
204,246	-13,318	244,562	111,323
205,261	-14,179	244,037	110,367
206,275	-14,012	244,098	110,522
207,290	-10,145	245,702	114,435
208,304	-2,874	248,017	121,553
209,319	1,296	249,230	125,612
210,334	2,412	249,365	126,599
211,348	3,024	249,291	127,059
212,363	3,357	249,392	127,376
213,377	3,500	249,344	127,459
214,392	3,787	249,287	127,657
215,407	3,938	249,078	127,664
216,421	3,910	248,907	127,542
217,436	3,970	248,764	127,507
218,450	3,711	248,587	127,190
219,465	3,816	248,340	127,139
220,480	3,546	248,207	126,837
221,494	3,392	248,068	126,627
222,509	2,979	247,778	126,127
223,523	3,051	247,379	125,971
224,538	2,599	247,247	125,521
225,553	2,751	246,955	125,487
226,567	2,437	246,771	125,123
227,582	2,751	246,433	125,199
228,596	2,659	246,505	125,148
229,611	2,524	246,378	124,962
230,626	2,598	246,217	124,930
231,640	2,444	246,049	124,708
232,655	2,709	245,823	124,799
233,669	2,558	245,619	124,560
234,684	2,498	245,562	124,472
235,699	2,484	245,516	124,425
236,713	2,868	245,258	124,598
237,728	2,709	245,159	124,406
238,742	2,684	244,856	124,221
239,757	2,618	244,755	124,105
240,772	2,554	244,669	123,998
241,786	2,433	244,568	123,837
242,801	2,472	244,206	123,675
243,815	2,367	244,032	123,490
244,830	2,424	243,813	123,415
245,844	2,459	243,947	123,500
246,859	2,568	243,619	123,411
247,874	2,423	243,508	123,227
248,888	2,696	243,165	123,263
249,903	2,651	243,135	123,200
250,917	2,840	243,132	123,341
251,932	2,951	242,973	123,338
252,947	2,748	242,673	123,012
253,961	2,843	242,448	122,963
254,976	2,714	242,324	122,786
255,990	2,669	242,217	122,684
257,005	2,681	242,077	122,612
258,020	2,745	241,894	122,559
259,034	2,547	241,819	122,352
260,049	2,735	241,595	122,378
261,063	2,486	241,505	122,122
262,078	2,656	241,231	122,109
263,093	2,727	241,110	122,093
264,107	2,772	240,992	122,058
265,122	2,524	240,822	121,763
266,136	2,665	240,533	121,719
267,151	2,715	240,588	121,776
268,166	2,672	240,298	121,584
269,180	2,474	240,091	121,310
270,195	2,541	240,108	121,362
271,209	2,817	239,895	121,463
272,224	2,589	239,792	121,218
273,239	2,584	239,539	121,076
274,253	2,797	239,365	121,146
275,268	2,641	239,346	121,002
276,282	2,649	239,040	120,842
277,297	2,582	238,881	120,698
278,312	2,514	238,982	120,685
279,326	2,582	238,659	120,565
280,341	2,588	238,256	120,356
281,355	2,770	238,334	120,528
282,370	2,644	238,233	120,366
283,384	2,711	238,024	120,303
284,399	2,738	237,798	120,200
285,414	2,513	237,762	119,994
286,428	2,582	237,511	119,910
287,443	2,562	237,385	119,820
288,457	2,689	237,268	119,850
289,472	2,713	237,101	119,774
290,487	2,636	236,849	119,576
291,501	2,757	236,619	119,543
292,516	2,595	236,653	119,423
293,530	2,594	236,573	119,371
294,545	2,592	236,364	119,253
295,560	2,621	236,309	119,238
296,574	2,583	236,060	119,072
297,589	2,459	235,988	118,928
298,603	2,772	235,774	119,054
299,618	2,735	235,673	118,964
300,633	2,642	235,575	118,831
301,647	2,802	235,362	118,837
302,662	2,968	235,118	118,833
303,676	2,729	235,164	118,660
304,691	2,712	234,838	118,472
305,706	2,878	234,706	118,523
306,720	2,925	234,622	118,507
307,735	2,873	234,504	118,396
308,749	2,763	234,329	118,212
309,764	2,491	234,060	117,855
310,779	2,594	233,840	117,814
311,793	2,483	233,720	117,657
312,808	2,555	233,611	117,647
313,822	2,787	233,576	117,798
314,837	2,622	233,415	117,579
315,852	2,975	233,110	117,687
316,866	2,851	233,164	117,609
317,881	2,730	232,982	117,412
318,895	2,991	232,857	117,540
319,910	2,831	232,692	117,323
320,925	2,852	232,357	117,160
321,939	2,668	232,198	116,928
322,954	2,705	232,110	116,902
323,968	2,641	232,004	116,789
324,983	2,855	231,823	116,851
325,997	2,760	231,669	116,690
327,012	2,738	231,607	116,632
328,027	2,852	231,405	116,607
329,041	2,668	231,402	116,454
330,056	2,585	231,311	116,335
331,070	2,934	231,045	116,458
332,085	2,713	230,883	116,197
333,100	2,867	230,626	116,174
334,114	2,779	230,457	116,012
335,129	2,792	230,295	115,929
336,143	2,649	230,154	115,740
337,158	2,837	230,111	115,850
338,173	2,987	229,741	115,768
339,187	2,777	229,713	115,584
340,202	2,660	229,586	115,421
341,216	2,791	229,483	115,458
342,231	2,653	229,333	115,269
343,246	2,873	229,151	115,333
344,260	2,842	229,097	115,272
345,275	2,835	228,910	115,162
346,289	2,916	228,715	115,115
347,304	2,850	228,697	115,046
348,319	2,780	228,520	114,894
349,333	2,588	228,403	114,680
350,348	2,838	228,109	114,710
351,362	2,724	228,062	114,590
352,377	2,488	227,870	114,306
353,392	2,722	227,725	114,399
354,406	2,509	227,605	114,169
355,421	195,241	1315,319	1389,860
356,435	156,572	1447,780	1389,804
