DTS Sentinel unit serial number:	SN410029Multiplexer serial number:	ORYXHardware model number:	OX2-SRSoftware version number:	ORYX F/W v4,00 Oryx Data Collector v3.7.2.0data status	okinstallation	B5 Nyhavnadifferential loss correction	single-endedforward channel	channel 2reverse channel	N/Adate	2023/12/13time	23:57:13forward acquisition time	300,00reverse acquisition time	0,00gamma	499,1914k internal	0,3154k external	0,3154temperature offset calibration	1,0000default loss term (dB/km)	0,3820temperature slope calibration	1,0000multiplexer offset coefficient	1,0000multiplexer slope coefficient	1,0000fibre end	0,00T internal ref (°C)	8,75T ext. ref 1 (°C)	-7,55T ext. ref 2 (°C)	-7,55length (m)	temperature (°C)	Stokes	anti-Stokes-744,400	-131,534	0,125	-0,012
-743,385	-112,354	-0,473	-0,069
-742,371	310,138	0,109	0,151
-741,356	-51,885	-0,252	-0,086
-740,342	800,000	0,083	0,217
-739,327	-84,826	-0,418	-0,096
-738,312	-28,994	0,154	0,065
-737,298	-168,682	-0,329	0,009
-736,283	-18,931	0,108	0,049
-735,269	-60,662	-0,329	-0,102
-734,254	800,000	0,027	0,057
-733,239	-4,142	-0,508	-0,259
-732,225	-84,720	0,269	0,062
-731,210	106,702	0,034	-0,030
-730,196	800,000	-0,073	-0,172
-729,181	800,000	-0,087	0,200
-728,167	540,459	-0,052	-0,091
-727,152	-80,229	-0,048	0,012
-726,137	-200,000	0,005	-0,125
-725,123	800,000	-0,023	0,064
-724,108	-200,000	-0,011	-0,239
-723,094	-200,000	-0,006	0,028
-722,079	-200,000	-0,010	0,052
-721,064	564,281	-0,048	-0,086
-720,050	-13,790	-0,048	0,023
-719,035	129,817	-0,033	0,031
-718,021	676,471	-0,028	-0,054
-717,006	367,562	-0,067	0,100
-715,991	719,806	-0,022	0,043
-714,977	385,327	-0,059	-0,090
-713,962	-200,000	0,004	0,083
-712,948	57,793	0,096	0,069
-711,933	-48,624	-0,054	-0,019
-710,918	45,012	-0,009	-0,006
-709,904	24,982	0,104	-0,063
-708,889	213,929	-0,064	-0,074
-707,875	170,797	-0,094	-0,099
-706,860	-95,152	0,106	0,021
-705,845	89,765	0,159	0,131
-704,831	54,188	0,040	0,028
-703,816	5,294	-0,064	-0,035
-702,802	280,614	-0,046	0,061
-701,787	800,000	-0,042	0,091
-700,772	-22,206	-0,043	0,019
-699,758	15,905	-0,074	0,043
-698,743	800,000	0,054	0,121
-697,729	-200,000	0,031	0,170
-696,714	43,044	0,155	0,104
-695,699	-7,986	-0,120	0,059
-694,685	20,957	-0,053	-0,032
-693,670	-137,367	-0,217	-0,018
-692,656	779,215	0,065	0,131
-691,641	800,000	0,028	0,084
-690,627	292,852	0,053	0,071
-689,612	-200,000	-0,043	0,151
-688,597	800,000	-0,013	-0,034
-687,583	440,863	-0,063	0,101
-686,568	800,000	-0,058	-0,119
-685,554	-9,759	-0,080	0,039
-684,539	-197,227	0,223	0,001
-683,524	-163,751	-0,090	0,003
-682,510	800,000	0,058	0,129
-681,495	257,048	0,067	0,085
-680,481	142,798	-0,057	0,056
-679,466	19,116	0,040	-0,024
-678,451	33,044	0,044	0,028
-677,437	-68,927	0,108	0,031
-676,422	-15,956	-0,013	-0,006
-675,408	-114,922	-0,142	0,020
-674,393	-200,000	-0,001	0,053
-673,378	486,653	-0,090	-0,152
-672,364	-200,000	0,013	-0,082
-671,349	70,351	-0,131	-0,100
-670,335	-200,000	0,000	-0,024
-669,320	800,000	0,042	0,112
-668,305	800,000	0,061	0,154
-667,291	-200,000	-0,021	0,123
-666,276	157,533	-0,078	-0,080
-665,262	800,000	-0,036	-0,105
-664,247	-103,460	-0,043	-0,007
-663,232	800,000	0,053	0,121
-662,218	104,946	0,032	0,028
-661,203	84,516	-0,076	0,061
-660,189	-71,758	0,127	-0,035
-659,174	800,000	-0,026	-0,077
-658,159	-66,049	0,106	-0,031
-657,145	-200,000	-0,003	-0,110
-656,130	188,397	0,116	0,128
-655,116	-51,731	0,125	-0,043
-654,101	-42,576	-0,073	0,027
-653,086	-200,000	-0,025	-0,088
-652,072	-200,000	0,038	-0,174
-651,057	-115,823	-0,162	0,022
-650,043	313,210	-0,070	0,098
-649,028	473,438	-0,058	0,096
-648,014	646,544	-0,060	0,113
-646,999	-200,000	0,026	0,137
-645,984	17,855	-0,132	-0,077
-644,970	200,868	-0,046	-0,052
-643,955	-19,930	0,042	-0,019
-642,941	33,708	-0,145	0,092
-641,926	-40,851	0,117	-0,044
-640,911	-147,260	-0,162	0,010
-639,897	340,055	0,068	0,097
-638,882	795,625	-0,012	0,024
-637,868	-70,855	-0,030	-0,008
-636,853	10,552	-0,175	-0,098
-635,838	-200,000	-0,013	-0,099
-634,824	229,033	0,059	-0,071
-633,809	13,018	0,080	-0,045
-632,795	36,391	0,097	0,062
-631,780	-130,922	0,113	-0,011
-630,765	629,016	-0,032	0,060
-629,751	32,537	-0,059	0,037
-628,736	-200,000	0,029	0,103
-627,722	-200,000	0,005	-0,067
-626,707	-134,593	-0,111	0,010
-625,692	69,866	0,066	0,050
-624,678	-200,000	0,023	0,077
-623,663	253,494	-0,015	-0,019
-622,649	-200,000	-0,027	-0,130
-621,634	232,205	-0,027	0,033
-620,619	102,589	-0,103	-0,088
-619,605	-113,190	0,126	0,018
-618,590	-16,443	-0,108	0,050
-617,576	26,109	0,069	0,042
-616,561	150,520	0,055	-0,055
-615,546	318,466	-0,114	-0,159
-614,532	225,306	-0,069	0,083
-613,517	-151,270	0,143	-0,008
-612,503	19,554	0,042	-0,025
-611,488	-148,480	0,047	-0,003
-610,474	120,707	-0,099	0,090
-609,459	-151,988	-0,077	0,004
-608,444	-200,000	0,008	-0,102
-607,430	276,827	0,035	-0,046
-606,415	-200,000	0,007	-0,240
-605,401	-200,000	-0,019	-0,085
-604,386	536,651	-0,037	-0,065
-603,371	-67,705	0,118	0,034
-602,357	192,294	0,028	-0,031
-601,342	-76,925	-0,100	0,025
-600,328	6,061	0,045	0,025
-599,313	208,535	-0,026	-0,030
-598,298	-200,000	0,001	0,096
-597,284	800,000	-0,029	0,075
-596,269	-131,228	0,054	0,005
-595,255	800,000	0,019	0,039
-594,240	8,322	0,056	-0,031
-593,225	36,806	-0,080	0,052
-592,211	240,173	0,071	0,087
-591,196	-121,918	-0,074	0,009
-590,182	62,940	0,067	0,049
-589,167	-173,356	-0,048	-0,001
-588,152	800,000	-0,017	0,054
-587,138	109,405	0,022	-0,019
-586,123	759,168	-0,060	-0,119
-585,109	-5,579	-0,190	-0,095
-584,094	800,000	-0,030	-0,093
-583,079	25,251	0,097	0,059
-582,065	-200,000	0,024	0,200
-581,050	800,000	-0,034	0,075
-580,036	-100,949	0,140	-0,025
-579,021	52,246	-0,031	0,022
-578,006	165,314	-0,049	0,051
-576,992	-200,000	0,020	0,096
-575,977	-162,423	0,037	0,001
-574,963	-93,909	0,093	0,019
-573,948	256,737	-0,116	0,146
-572,934	-200,000	-0,003	0,033
-571,919	623,301	-0,124	0,230
-570,904	6,149	-0,158	-0,086
-569,890	-68,359	-0,157	-0,044
-568,875	113,910	0,085	-0,076
-567,861	-146,231	-0,017	0,001
-566,846	556,764	-0,048	0,085
-565,831	99,214	-0,070	-0,059
-564,817	345,407	-0,095	-0,137
-563,802	-129,723	0,103	-0,010
-562,788	-200,000	0,033	-0,168
-561,773	33,502	0,104	0,066
-560,758	-75,300	-0,116	0,030
-559,744	123,515	0,037	0,034
-558,729	-27,215	-0,074	-0,032
-557,715	-34,695	-0,058	-0,023
-556,700	-95,869	-0,080	0,016
-555,685	75,905	-0,078	-0,060
-554,671	800,000	0,030	-0,088
-553,656	347,995	0,081	0,118
-552,642	-73,042	-0,060	0,016
-551,627	800,000	0,010	0,026
-550,612	-31,788	-0,056	0,023
-549,598	-125,229	-0,195	-0,022
-548,583	-200,000	-0,017	0,069
-547,569	-153,071	-0,060	0,003
-546,554	-50,230	0,111	-0,038
-545,539	106,141	0,030	0,026
-544,525	-118,838	0,097	0,012
-543,510	77,008	-0,068	0,053
-542,496	71,197	0,149	-0,113
-541,481	289,063	-0,057	-0,075
-540,466	376,334	-0,074	-0,112
-539,452	-52,266	0,060	0,020
-538,437	800,000	0,028	-0,076
-537,423	-35,838	0,085	0,034
-536,408	479,313	0,055	0,092
-535,393	-110,609	-0,217	-0,032
-534,379	-139,691	0,037	0,003
-533,364	-19,316	-0,026	-0,012
-532,350	464,748	-0,053	-0,087
-531,335	262,746	-0,045	0,057
-530,321	-200,000	0,008	0,035
-529,306	159,525	0,085	0,087
-528,291	-200,000	-0,017	-0,068
-527,277	37,474	0,015	-0,010
-526,262	5,045	-0,112	0,060
-525,248	-83,518	-0,091	-0,021
-524,233	-200,000	-0,020	0,118
-523,218	0,413	0,107	0,056
-522,204	-200,000	-0,019	0,105
-521,189	-15,654	-0,130	-0,060
-520,175	-100,966	0,033	-0,006
-519,160	23,390	-0,051	0,031
-518,145	101,224	0,061	-0,052
-517,131	-42,922	-0,111	0,041
-516,116	165,239	0,091	0,094
-515,102	800,000	-0,020	0,045
-514,087	-200,000	-0,008	0,033
-513,072	33,598	-0,089	-0,057
-512,058	655,590	-0,064	0,120
-511,043	800,000	0,083	0,210
-510,029	-200,000	-0,022	0,123
-509,014	140,944	0,059	-0,057
-507,999	-200,000	0,001	0,172
-506,985	-143,900	-0,143	0,010
-505,970	-127,204	0,070	0,007
-504,956	-190,400	-0,040	-0,000
-503,941	103,842	-0,093	0,080
-502,926	-17,919	-0,136	-0,062
-501,912	410,659	0,102	0,159
-500,897	-195,290	-0,119	-0,001
-499,883	291,847	0,038	-0,051
-498,868	319,191	-0,041	-0,056
-497,853	-200,000	0,012	0,093
-496,839	187,677	0,067	-0,073
-495,824	557,652	-0,046	0,082
-494,810	-200,000	-0,035	0,123
-493,795	800,000	0,019	0,045
-492,781	-200,000	-0,010	0,062
-491,766	-63,658	0,069	-0,021
-490,751	-200,000	0,066	0,250
-489,737	800,000	0,029	0,073
-488,722	351,999	-0,015	0,022
-487,708	51,933	-0,051	0,036
-486,693	214,778	0,056	-0,065
-485,678	800,000	-0,055	0,123
-484,664	176,594	-0,015	-0,016
-483,649	-200,000	0,010	-0,060
-482,635	-200,000	0,005	-0,028
-481,620	100,524	-0,062	-0,053
-480,605	-47,960	0,069	0,024
-479,591	296,109	0,038	0,051
-478,576	146,060	0,066	-0,065
-477,562	-200,000	-0,001	-0,027
-476,547	-200,000	0,011	0,048
-475,532	744,194	-0,031	-0,061
-474,518	86,237	-0,096	0,077
-473,503	328,182	0,061	-0,086
-472,489	-200,000	0,005	-0,127
-471,474	-9,046	0,074	0,036
-470,459	-151,124	0,132	0,007
-469,445	110,738	0,066	-0,058
-468,430	-23,429	-0,093	0,041
-467,416	-108,310	0,016	-0,003
-466,401	800,000	0,036	-0,095
-465,386	16,279	0,027	-0,016
-464,372	526,155	0,070	-0,122
-463,357	-200,000	-0,014	-0,144
-462,343	1,427	0,046	-0,024
-461,328	-200,000	-0,003	-0,076
-460,313	-109,776	-0,034	0,005
-459,299	-39,917	-0,141	-0,054
-458,284	286,681	0,055	-0,073
-457,270	-36,944	-0,059	0,023
-456,255	-106,071	0,059	0,010
-455,241	20,196	-0,122	0,072
-454,226	-49,944	-0,050	-0,017
-453,211	697,395	-0,024	0,047
-452,197	433,793	0,046	-0,074
-451,182	800,000	0,038	-0,100
-450,168	-200,000	0,006	-0,023
-449,153	-12,909	0,072	0,034
-448,138	-200,000	0,004	-0,140
-447,124	-200,000	0,040	-0,149
-446,109	-68,069	0,049	0,014
-445,095	75,954	-0,023	0,018
-444,080	111,368	-0,119	0,105
-443,065	-128,404	0,090	-0,009
-442,051	-200,000	0,013	-0,070
-441,036	-200,000	0,009	-0,040
-440,022	-131,772	-0,039	0,004
-439,007	12,139	0,014	0,008
-437,992	37,760	-0,050	-0,032
-436,978	-200,000	-0,006	0,029
-435,963	313,019	-0,074	0,102
-434,949	-200,000	-0,013	0,088
-433,934	75,701	0,004	-0,003
-432,919	-200,000	0,010	-0,103
-431,905	-200,000	0,028	0,112
-430,890	800,000	-0,040	0,092
-429,876	-200,000	-0,014	0,086
-428,861	-200,000	-0,012	-0,044
-427,846	-80,169	0,071	-0,017
-426,832	-3,852	-0,086	-0,043
-425,817	-106,112	-0,107	-0,017
-424,803	800,000	0,053	-0,117
-423,788	800,000	0,016	-0,042
-422,773	351,319	0,066	0,095
-421,759	395,101	0,072	0,110
-420,744	-200,000	0,010	-0,185
-419,730	-200,000	-0,006	-0,066
-418,715	-3,007	-0,055	0,028
-417,701	-66,515	-0,112	0,032
-416,686	-75,298	0,104	-0,027
-415,671	295,795	0,073	-0,097
-414,657	-102,814	0,117	0,020
-413,642	87,915	0,077	-0,062
-412,628	-200,000	-0,014	0,087
-411,613	-200,000	-0,008	-0,065
-410,598	-200,000	-0,032	-0,108
-409,584	-69,252	0,061	0,017
-408,569	73,149	0,086	0,066
-407,555	-23,450	0,047	-0,020
-406,540	800,000	0,035	0,096
-405,525	65,953	0,006	0,004
-404,511	73,668	0,035	0,026
-403,496	-62,035	0,072	-0,022
-402,482	115,388	0,062	-0,055
-401,467	-200,000	0,000	-0,102
-400,452	42,275	-0,053	0,035
-399,438	302,762	0,073	-0,098
-398,423	800,000	-0,057	-0,134
-397,409	171,129	-0,066	-0,069
-396,394	54,947	-0,158	0,111
-395,379	-16,940	0,109	0,050
-394,365	122,443	0,047	-0,043
-393,350	-200,000	-0,029	0,175
-392,336	116,581	-0,118	0,106
-391,321	-169,938	-0,064	0,002
-390,306	800,000	0,044	-0,108
-389,292	271,678	0,043	-0,055
-388,277	5,910	-0,093	0,050
-387,263	66,054	-0,024	0,018
-386,248	-23,393	0,049	0,021
-385,233	415,558	-0,047	-0,073
-384,219	13,697	0,073	-0,041
-383,204	-94,575	-0,169	-0,033
-382,190	147,222	-0,044	0,043
-381,175	800,000	-0,058	0,151
-380,160	800,000	0,053	0,151
-379,146	71,395	0,044	0,033
-378,131	386,892	0,055	0,084
-377,117	800,000	0,043	0,093
-376,102	-96,735	0,065	-0,012
-375,088	765,919	-0,011	0,021
-374,073	200,332	-0,081	-0,090
-373,058	-200,000	0,010	-0,080
-372,044	-200,000	-0,006	-0,061
-371,029	-171,998	0,094	0,002
-370,015	166,323	0,052	-0,054
-369,000	-200,000	0,044	-0,161
-367,985	-200,000	0,031	0,105
-366,971	-200,000	-0,002	-0,045
-365,956	-200,000	0,001	-0,046
-364,942	195,633	0,015	-0,017
-363,927	497,962	-0,024	-0,041
-362,912	101,018	0,042	0,036
-361,898	40,179	0,059	0,038
-360,883	-2,384	-0,041	0,021
-359,869	-200,000	0,002	-0,061
-358,854	-82,724	0,075	-0,018
-357,839	600,759	-0,040	0,072
-356,825	800,000	-0,008	-0,018
-355,810	596,740	-0,041	-0,074
-354,796	800,000	0,023	-0,048
-353,781	-126,792	-0,170	-0,018
-352,766	-54,807	0,174	0,057
-351,752	-11,076	-0,002	0,001
-350,737	245,029	-0,058	0,071
-349,723	-69,054	-0,061	0,017
-348,708	-11,345	0,047	-0,022
-347,693	297,141	-0,028	0,038
-346,679	-112,799	-0,092	0,013
-345,664	178,285	-0,060	-0,063
-344,650	63,520	0,067	0,049
-343,635	514,678	-0,063	-0,107
-342,620	-120,563	0,110	0,013
-341,606	-200,000	-0,010	0,216
-340,591	800,000	0,047	-0,120
-339,577	92,201	-0,098	-0,080
-338,562	97,191	-0,102	0,085
-337,548	800,000	0,048	0,107
-336,533	800,000	0,046	0,108
-335,518	55,929	0,127	-0,090
-334,504	434,255	0,006	0,009
-333,489	151,493	0,009	-0,009
-332,475	-12,500	0,090	-0,043
-331,460	476,614	-0,068	-0,112
-330,445	-146,319	-0,014	0,001
-329,431	800,000	0,018	0,055
-328,416	-68,034	-0,039	0,011
-327,402	338,408	-0,055	0,078
-326,387	-200,000	0,006	0,056
-325,372	150,071	-0,031	0,031
-324,358	-200,000	-0,004	-0,073
-323,343	800,000	0,014	-0,039
-322,329	316,936	-0,005	-0,007
-321,314	11,511	0,106	-0,059
-320,299	57,328	0,141	0,100
-319,285	800,000	0,047	0,102
-318,270	-200,000	-0,038	-0,143
-317,256	660,243	-0,035	0,066
-316,241	-43,863	0,025	-0,009
-315,226	172,832	0,030	0,031
-314,212	800,000	0,020	-0,043
-313,197	-41,078	0,074	0,028
-312,183	-50,514	-0,088	0,030
-311,168	769,151	-0,060	-0,119
-310,153	-200,000	0,030	0,000
-309,139	511,221	0,062	0,105
-308,124	800,000	0,046	-0,136
-307,110	596,396	0,021	0,038
-306,095	-51,161	0,058	0,020
-305,080	-105,702	0,093	0,015
-304,066	-80,235	0,045	0,011
-303,051	800,000	0,040	-0,084
-302,037	-200,000	-0,013	0,103
-301,022	312,131	0,096	0,130
-300,008	-46,167	0,092	0,033
-298,993	167,646	0,070	0,073
-297,978	-19,550	-0,077	0,034
-296,964	-200,000	-0,098	-0,000
-295,949	-68,634	0,013	-0,004
-294,935	-145,969	-0,069	0,004
-293,920	87,086	0,069	-0,056
-292,905	800,000	0,018	0,049
-291,891	299,626	-0,081	0,108
-290,876	800,000	-0,035	0,093
-289,862	-71,069	0,038	0,010
-288,847	-119,372	-0,090	0,011
-287,832	-26,576	-0,034	-0,014
-286,818	-38,040	0,087	0,033
-285,803	-200,000	0,000	-0,100
-284,789	143,180	0,090	0,087
-283,774	-200,000	-0,014	-0,076
-282,759	-18,762	0,059	0,026
-281,745	-135,887	0,141	0,012
-280,730	800,000	0,057	-0,162
-279,716	-200,000	-0,010	-0,107
-278,701	-200,000	0,025	0,160
-277,686	-200,000	0,031	-0,103
-276,672	225,121	0,038	0,045
-275,657	-143,611	0,077	0,005
-274,643	4,838	0,124	-0,066
-273,628	-200,000	0,006	-0,084
-272,613	-200,000	0,023	-0,075
-271,599	-200,000	-0,010	0,069
-270,584	-200,000	-0,012	0,041
-269,570	-94,482	0,114	-0,022
-268,555	-3,987	-0,176	0,088
-267,540	-200,000	0,014	0,056
-266,526	-200,000	-0,003	0,056
-265,511	-200,000	-0,007	0,111
-264,497	-160,352	-0,067	-0,003
-263,482	-123,198	0,106	-0,012
-262,467	19,674	0,205	0,119
-261,453	-200,000	0,016	0,095
-260,438	-200,000	-0,026	0,085
-259,424	-100,666	-0,057	-0,010
-258,409	800,000	0,032	-0,103
-257,395	711,480	0,058	-0,111
-256,380	-103,323	0,068	-0,012
-255,365	41,476	0,055	0,036
-254,351	115,551	-0,123	-0,109
-253,336	800,000	-0,018	-0,046
-252,322	800,000	0,039	0,084
-251,307	24,484	0,103	-0,062
-250,292	-53,974	0,017	-0,005
-249,278	-81,877	-0,049	-0,011
-248,263	-200,000	-0,011	-0,043
-247,249	558,729	-0,041	0,071
-246,234	430,296	0,034	0,053
-245,219	800,000	0,037	-0,084
-244,205	800,000	0,044	-0,096
-243,190	42,260	-0,046	-0,030
-242,176	514,303	-0,043	0,074
-241,161	434,266	-0,037	0,059
-240,146	394,664	-0,040	-0,061
-239,132	63,569	0,084	-0,061
-238,117	-200,000	-0,002	-0,146
-237,103	30,616	-0,058	-0,036
-236,088	-105,935	0,119	-0,019
-235,073	-200,000	-0,000	0,009
-234,059	-200,000	0,025	0,163
-233,044	442,170	-0,053	0,084
-232,030	40,282	0,070	0,045
-231,015	-37,727	-0,147	-0,056
-230,000	219,622	-0,096	0,111
-228,986	-200,000	0,049	0,192
-227,971	800,000	0,054	-0,162
-226,957	156,678	-0,043	0,043
-225,942	165,580	-0,059	0,060
-224,927	110,776	-0,117	0,102
-223,913	608,895	-0,010	0,019
-222,898	197,599	-0,109	0,121
-221,884	604,875	-0,050	-0,091
-220,869	117,797	0,018	-0,016
-219,855	291,828	-0,065	0,086
-218,840	-141,751	0,299	0,021
-217,825	75,899	-0,043	0,033
-216,811	-200,000	0,008	-0,185
-215,796	139,192	-0,128	-0,122
-214,782	307,578	0,037	0,050
-213,767	800,000	0,035	-0,071
-212,752	-104,252	0,165	0,027
-211,738	-130,398	0,105	-0,010
-210,723	151,636	-0,048	-0,047
-209,709	80,325	-0,068	-0,053
-208,694	-71,564	-0,108	-0,029
-207,679	483,346	-0,061	-0,100
-206,665	155,963	-0,003	0,003
-205,650	36,271	0,119	-0,076
-204,636	-122,800	-0,064	-0,007
-203,621	-200,000	-0,006	0,021
-202,606	89,150	-0,084	-0,068
-201,592	800,000	0,021	0,045
-200,577	-38,574	0,052	0,020
-199,563	-200,000	0,052	-0,173
-198,548	304,219	-0,023	0,030
-197,533	-153,465	-0,135	-0,007
-196,519	139,552	-0,009	0,009
-195,504	800,000	0,008	0,022
-194,490	7,305	0,054	-0,029
-193,475	-189,645	-0,169	-0,001
-192,460	-200,000	-0,024	-0,122
-191,446	559,868	0,051	-0,090
-190,431	-115,589	0,051	-0,007
-189,417	-60,336	0,072	0,022
-188,402	41,837	0,111	-0,073
-187,387	-165,578	-0,092	0,003
-186,373	-200,000	-0,003	0,029
-185,358	471,095	0,049	-0,080
-184,344	-200,000	-0,006	-0,113
-183,329	160,259	0,086	-0,086
-182,315	-200,000	0,011	-0,093
-181,300	141,989	-0,087	-0,083
-180,285	138,666	0,063	-0,060
-179,271	6,166	-0,137	-0,073
-178,256	-200,000	0,010	-0,127
-177,242	536,640	-0,039	0,067
-176,227	-200,000	-0,004	0,058
-175,212	800,000	0,076	0,160
-174,198	-102,501	-0,028	0,005
-173,183	17,441	0,047	-0,027
-172,169	-26,469	0,124	0,052
-171,154	384,077	-0,044	-0,065
-170,139	1,359	0,079	-0,041
-169,125	107,217	0,015	0,013
-168,110	-200,000	-0,014	-0,127
-167,096	435,532	-0,031	-0,049
-166,081	800,000	-0,057	0,147
-165,066	336,178	-0,089	-0,125
-164,052	155,696	0,060	-0,059
-163,037	195,538	0,022	0,024
-162,023	181,635	0,023	0,024
-161,008	286,238	0,013	-0,017
-159,993	72,590	-0,055	-0,041
-158,979	800,000	0,015	-0,038
-157,964	-200,000	0,001	-0,063
-156,950	170,994	-0,037	-0,039
-155,935	800,000	0,003	0,010
-154,920	-200,000	-0,018	-0,090
-153,906	800,000	0,026	0,064
-152,891	-200,000	-0,019	0,136
-151,877	-200,000	0,001	-0,066
-150,862	262,358	-0,038	-0,047
-149,847	240,706	-0,061	-0,073
-148,833	296,967	-0,090	-0,119
-147,818	-108,939	0,165	-0,025
-146,804	-127,347	0,060	-0,006
-145,789	-165,344	-0,053	0,002
-144,775	222,327	-0,037	-0,043
-143,760	-176,764	-0,053	-0,001
-142,745	-108,408	0,033	0,005
-141,731	800,000	0,030	-0,066
-140,716	47,298	-0,019	-0,012
-139,702	-57,548	0,091	0,029
-138,687	189,266	0,053	-0,058
-137,672	315,230	-0,055	0,075
-136,658	28,088	0,217	-0,131
-135,643	-26,415	-0,091	0,038
-134,629	616,247	0,014	-0,025
-133,614	531,764	0,050	0,086
-132,599	800,000	-0,060	0,129
-131,585	-128,833	0,070	-0,007
-130,570	-42,012	0,026	-0,010
-129,556	-20,527	0,027	0,012
-128,541	22,500	0,069	-0,040
-127,526	-200,000	-0,016	-0,062
-126,512	-74,312	0,100	0,026
-125,497	-3,580	0,156	-0,078
-124,483	-200,000	-0,027	0,107
-123,468	139,854	0,017	-0,016
-122,453	52,043	0,068	0,047
-121,439	285,661	-0,093	-0,121
-120,424	-200,000	-0,007	-0,054
-119,410	-79,128	0,045	0,011
-118,395	52,218	0,108	0,074
-117,380	511,382	0,067	0,113
-116,366	189,322	-0,074	-0,080
-115,351	-68,449	0,099	0,027
-114,337	-200,000	-0,012	0,128
-113,322	-159,434	0,120	-0,005
-112,307	-30,746	-0,122	-0,050
-111,293	-70,377	-0,150	-0,041
-110,278	-200,000	-0,027	0,109
-109,264	81,553	-0,107	0,083
-108,249	-200,000	-0,008	0,073
-107,234	201,046	-0,075	0,083
-106,220	188,718	0,072	-0,077
-105,205	467,323	-0,092	0,149
-104,191	800,000	0,024	0,073
-103,176	-3,809	-0,053	0,027
-102,162	166,597	-0,051	-0,052
-101,147	-59,383	-0,086	-0,027
-100,132	800,000	0,027	-0,084
-99,118	800,000	-0,006	-0,012
-98,103	-54,072	-0,090	-0,029
-97,089	-59,473	0,096	0,029
-96,074	-200,000	-0,006	0,182
-95,059	18,447	0,078	-0,045
-94,045	-84,818	-0,180	-0,040
-93,030	52,982	0,041	0,028
-92,016	207,017	0,051	-0,057
-91,001	-200,000	-0,041	-0,148
-89,986	800,000	-0,033	-0,097
-88,972	80,180	-0,060	0,046
-87,957	800,000	-0,026	-0,059
-86,943	7,387	0,114	-0,061
-85,928	73,282	-0,030	-0,023
-84,913	-151,135	-0,071	-0,004
-83,899	800,000	0,035	-0,109
-82,884	100,971	0,110	-0,092
-81,870	122,126	0,070	0,063
-80,855	65,438	0,062	-0,045
-79,840	-200,000	0,011	-0,093
-78,826	571,126	-0,095	-0,167
-77,811	313,539	-0,067	0,091
-76,797	-83,727	-0,031	0,007
-75,782	724,161	0,048	-0,092
-74,767	-200,000	-0,016	0,126
-73,753	-76,060	-0,087	-0,022
-72,738	-41,982	0,162	-0,059
-71,724	484,093	-0,058	-0,095
-70,709	800,000	-0,059	-0,140
-69,694	-200,000	-0,012	0,045
-68,680	249,213	-0,105	0,128
-67,665	58,500	0,055	0,039
-66,651	-82,475	0,030	-0,007
-65,636	800,000	0,021	-0,057
-64,622	-31,553	-0,096	-0,039
-63,607	-3,052	-0,103	-0,051
-62,592	87,450	-0,017	0,014
-61,578	-132,504	0,113	-0,010
-60,563	-51,011	0,065	0,022
-59,549	55,505	-0,173	0,120
-58,534	92,118	-2,503	-2,025
-57,519	125,372	0,307	-0,279
-56,505	800,000	-1,760	-5,436
-55,490	414,098	1,193	1,830
-54,476	800,000	5,216	11,436
-53,461	-200,000	21,932	345,598
-52,446	800,000	761,356	2312,325
-51,432	518,164	1653,189	2790,401
-50,417	103,982	1618,167	1366,043
-49,403	73,660	1273,652	957,668
-48,388	25,518	1022,245	609,452
-47,373	19,322	988,623	568,880
-46,359	13,508	975,741	542,342
-45,344	9,399	972,775	527,153
-44,330	9,938	970,457	527,646
-43,315	8,888	968,757	523,254
-42,300	8,756	967,607	522,179
-41,286	8,788	966,496	521,666
-40,271	8,802	965,620	521,217
-39,257	8,772	964,664	520,581
-38,242	8,797	963,953	520,260
-37,227	8,751	963,064	519,609
-36,213	8,718	962,280	519,058
-35,198	8,783	961,438	518,794
-34,184	8,882	960,453	518,565
-33,169	8,775	959,569	517,720
-32,154	8,842	958,539	517,361
-31,140	8,832	957,817	516,917
-30,125	8,833	956,983	516,449
-29,111	8,770	956,165	515,784
-28,096	8,789	955,751	515,602
-27,082	8,789	954,948	515,148
-26,067	8,834	954,104	514,818
-25,052	8,761	953,357	514,158
-24,038	8,725	952,804	513,723
-23,023	8,749	952,144	513,425
-22,009	8,798	951,390	513,155
-20,994	8,725	951,266	512,833
-19,979	8,831	950,286	512,626
-18,965	8,762	949,722	512,080
-17,950	8,789	949,008	511,761
-16,936	8,734	948,516	511,301
-15,921	8,761	947,660	510,905
-14,906	8,713	946,856	510,298
-13,892	8,681	946,371	509,911
-12,877	8,672	945,732	509,518
-11,863	8,650	945,063	509,066
-10,848	8,660	944,569	508,814
-9,833	8,746	944,018	508,771
-8,819	8,722	943,274	508,274
-7,804	8,701	942,540	507,792
-6,790	8,606	942,128	507,245
-5,775	8,704	941,664	507,287
-4,760	8,686	940,938	506,820
-3,746	8,695	940,163	506,412
-2,731	8,513	939,656	505,538
-1,717	8,575	939,080	505,406
-0,702	8,548	938,301	504,882
0,313	8,370	937,654	504,728
1,327	11,797	935,425	514,337
2,342	20,434	783,941	453,802
3,356	15,550	450,700	253,478
4,371	-10,915	313,696	148,162
5,386	-14,779	296,067	135,898
6,400	-16,605	289,931	131,253
7,415	-16,803	287,303	129,856
8,429	-17,493	285,509	128,357
9,444	-17,504	284,622	127,937
10,459	-17,473	284,015	127,683
11,473	-17,429	283,372	127,424
12,488	-17,391	282,910	127,243
13,502	-17,514	282,317	126,845
14,517	-17,245	281,960	126,934
15,531	-17,242	281,499	126,718
16,546	-17,208	281,080	126,551
17,561	-17,179	280,845	126,462
18,575	-16,960	280,551	126,529
19,590	-17,147	280,096	126,133
20,604	-17,299	279,868	125,873
21,619	-17,338	279,450	125,636
22,634	-17,120	279,048	125,653
23,648	-17,362	278,843	125,318
24,663	-17,173	278,525	125,344
25,677	-16,991	278,157	125,342
26,692	-17,115	278,159	125,213
27,707	-17,120	277,661	124,972
28,721	-17,256	277,415	124,722
29,736	-17,223	277,090	124,596
30,750	-17,077	276,821	124,602
31,765	-17,139	276,550	124,410
32,780	-17,098	276,322	124,335
33,794	-17,169	276,128	124,169
34,809	-17,008	275,867	124,193
35,823	-17,177	275,741	123,966
36,838	-17,175	275,379	123,794
37,853	-16,993	274,992	123,780
38,867	-17,050	274,944	123,694
39,882	-17,086	274,655	123,520
40,896	-17,173	274,350	123,290
41,911	-16,880	274,159	123,468
42,926	-17,092	273,862	123,124
43,940	-17,092	273,724	123,051
44,955	-17,079	273,393	122,904
45,969	-17,187	273,136	122,676
46,984	-17,021	272,996	122,758
47,999	-17,035	272,890	122,686
49,013	-16,989	272,593	122,584
50,028	-17,101	272,373	122,370
51,042	-17,067	272,184	122,306
52,057	-16,945	271,776	122,225
53,071	-16,886	271,618	122,198
54,086	-16,887	271,442	122,107
55,101	-16,853	271,032	121,943
56,115	-16,986	271,068	121,825
57,130	-16,997	270,607	121,597
58,144	-17,208	270,519	121,351
59,159	-17,183	270,138	121,193
60,174	-17,221	270,004	121,086
61,188	-17,209	269,747	120,972
62,203	-17,077	269,556	120,997
63,217	-17,024	269,299	120,919
64,232	-17,277	269,159	120,613
65,247	-17,253	268,761	120,447
66,261	-16,939	268,511	120,611
67,276	-17,130	268,424	120,387
68,290	-17,170	268,274	120,272
69,305	-16,973	267,970	120,305
70,320	-16,821	267,851	120,380
71,334	-17,004	267,520	120,053
72,349	-17,283	267,328	119,702
73,363	-17,133	267,109	119,730
74,378	-16,827	266,758	119,841
75,393	-17,039	266,590	119,561
76,407	-17,086	266,419	119,431
77,422	-17,101	266,177	119,298
78,436	-17,094	265,937	119,186
79,451	-16,987	265,727	119,179
80,466	-17,083	265,406	118,937
81,480	-17,043	265,266	118,900
82,495	-17,080	265,051	118,759
83,509	-17,134	264,794	118,585
84,524	-16,974	264,645	118,652
85,539	-16,871	264,472	118,657
86,553	-16,942	264,237	118,477
87,568	-17,045	264,140	118,330
88,582	-17,019	263,816	118,198
89,597	-17,026	263,602	118,085
90,611	-17,055	263,411	117,963
91,626	-16,951	263,268	117,982
92,641	-17,013	263,064	117,824
93,655	-17,015	262,743	117,669
94,670	-16,908	262,481	117,636
95,684	-16,920	262,308	117,537
96,699	-17,078	262,161	117,320
97,714	-17,095	262,001	117,222
98,728	-16,975	261,830	117,243
99,743	-17,091	261,716	117,078
100,757	-16,843	261,354	117,126
101,772	-17,110	261,087	116,759
102,787	-17,093	260,893	116,677
103,801	-17,099	260,640	116,548
104,816	-16,886	260,506	116,667
105,830	-16,939	260,242	116,491
106,845	-17,112	260,167	116,294
107,860	-16,960	259,841	116,272
108,874	-17,056	259,749	116,135
109,889	-17,116	259,456	115,941
110,903	-17,179	259,249	115,782
111,918	-17,001	259,118	115,872
112,933	-16,993	258,959	115,797
113,947	-17,048	258,769	115,653
114,962	-17,053	258,573	115,551
115,976	-16,955	258,223	115,469
116,991	-17,035	258,055	115,314
118,006	-16,834	257,869	115,397
119,020	-16,910	257,786	115,283
120,035	-16,632	257,493	115,385
121,049	-16,852	257,369	115,126
122,064	-16,972	257,152	114,914
123,079	-16,993	256,817	114,736
124,093	-17,051	256,797	114,666
125,108	-16,975	256,593	114,631
126,122	-17,035	256,367	114,468
127,137	-17,009	256,251	114,429
128,151	-16,744	255,915	114,499
129,166	-17,073	255,865	114,181
130,181	-16,943	255,626	114,176
131,195	-16,968	255,436	114,060
132,210	-16,928	255,185	113,972
133,224	-17,036	254,881	113,732
134,239	-16,867	254,690	113,783
135,254	-17,071	254,571	113,544
136,268	-17,078	254,369	113,437
137,283	-16,718	254,116	113,625
138,297	-16,807	253,931	113,455
139,312	-16,852	253,723	113,314
140,327	-16,906	253,657	113,227
141,341	-16,813	253,315	113,145
142,356	-16,955	253,054	112,897
143,370	-16,998	253,046	112,846
144,385	-17,016	252,810	112,714
145,400	-16,958	252,586	112,654
146,414	-17,014	252,541	112,577
147,429	-16,841	252,096	112,516
148,443	-17,059	252,029	112,290
149,458	-16,773	251,774	112,411
150,473	-16,844	251,641	112,281
151,487	-16,983	251,491	112,085
152,502	-17,063	251,365	111,951
153,516	-16,980	251,095	111,891
154,531	-17,080	250,909	111,713
155,546	-16,822	250,686	111,823
156,560	-16,981	250,653	111,663
157,575	-16,948	250,417	111,577
158,589	-16,867	250,211	111,543
159,604	-16,970	249,947	111,328
160,619	-17,071	249,851	111,190
161,633	-16,942	249,539	111,150
162,648	-16,955	249,365	111,052
163,662	-16,978	249,307	110,997
164,677	-16,852	249,054	110,980
165,692	-16,950	248,855	110,799
166,706	-17,133	248,883	110,647
167,721	-17,016	248,563	110,594
168,735	-17,005	248,477	110,555
169,750	-17,060	248,325	110,432
170,764	-17,110	248,316	110,376
171,779	-16,957	248,041	110,372
172,794	-16,837	247,762	110,338
173,808	-16,892	247,624	110,222
174,823	-16,648	247,447	110,337
175,837	-16,807	247,187	110,078
176,852	-16,872	247,068	109,961
177,867	-17,103	246,965	109,712
178,881	-16,979	246,829	109,746
179,896	-16,911	246,609	109,695
180,910	-17,084	246,385	109,441
181,925	-16,952	246,225	109,470
182,940	-17,048	245,999	109,280
183,954	-16,806	245,867	109,413
184,969	-16,803	245,618	109,295
185,983	-17,073	245,562	109,037
186,998	-16,913	245,338	109,060
188,013	-16,874	245,018	108,940
189,027	-16,751	244,928	108,992
190,042	-16,964	244,717	108,713
191,056	-16,968	244,558	108,628
192,071	-16,909	244,326	108,565
193,086	-17,206	244,267	108,284
194,100	-16,844	243,952	108,432
195,115	-17,026	243,905	108,252
196,129	-17,045	243,690	108,131
197,144	-17,076	243,505	108,014
198,159	-16,982	243,387	108,030
199,173	-16,929	243,171	107,967
200,188	-16,919	242,870	107,833
201,202	-16,791	242,741	107,871
202,217	-16,771	242,447	107,747
203,232	-16,831	242,402	107,668
204,246	-16,919	242,099	107,451
205,261	-17,255	241,781	107,027
206,275	-15,735	242,313	108,496
207,290	-10,536	244,165	113,593
208,304	-4,414	246,120	119,559
209,319	-1,703	246,865	122,156
210,334	-0,682	247,076	123,095
211,348	0,231	247,216	123,909
212,363	0,919	247,205	124,462
213,377	1,085	247,326	124,649
214,392	1,532	247,243	124,966
215,407	1,735	247,111	125,056
216,421	1,901	247,143	125,198
217,436	2,068	246,907	125,206
218,450	1,956	246,740	125,017
219,465	1,861	246,461	124,786
220,480	1,763	246,404	124,665
221,494	1,599	246,104	124,368
222,509	1,240	245,789	123,903
223,523	1,160	245,501	123,681
224,538	1,010	245,375	123,483
225,553	0,906	245,181	123,289
226,567	0,910	244,940	123,161
227,582	1,030	244,957	123,256
228,596	0,870	244,756	123,013
229,611	1,087	244,474	123,038
230,626	0,896	244,336	122,801
231,640	0,868	244,309	122,754
232,655	0,933	244,128	122,705
233,669	0,693	243,888	122,379
234,684	0,741	243,702	122,313
235,699	0,785	243,715	122,345
236,713	0,712	243,560	122,196
237,728	0,682	243,366	122,064
238,742	0,931	243,186	122,165
239,757	0,928	243,029	122,072
240,772	0,973	242,756	121,960
241,786	0,857	242,629	121,793
242,801	0,780	242,466	121,638
243,815	1,033	242,257	121,726
244,830	0,929	242,010	121,508
245,844	0,734	242,044	121,356
246,859	1,048	241,866	121,509
247,874	0,925	241,641	121,286
248,888	0,793	241,518	121,107
249,903	0,907	241,445	121,151
250,917	0,889	241,275	121,041
251,932	1,043	241,050	121,041
252,947	1,005	240,894	120,921
253,961	0,900	240,733	120,746
254,976	0,920	240,542	120,655
255,990	0,870	240,472	120,569
257,005	0,946	240,249	120,508
258,020	0,860	240,264	120,435
259,034	1,045	240,013	120,446
260,049	1,127	239,799	120,394
261,063	0,909	239,632	120,125
262,078	0,862	239,375	119,949
263,093	0,850	239,340	119,911
264,107	0,751	239,302	119,802
265,122	0,979	239,090	119,867
266,136	0,976	238,911	119,764
267,151	1,029	238,741	119,710
268,166	0,988	238,503	119,547
269,180	1,084	238,319	119,521
270,195	0,845	238,332	119,327
271,209	0,877	238,061	119,206
272,224	0,911	238,031	119,207
273,239	0,805	237,833	119,014
274,253	0,875	237,719	119,001
275,268	0,685	237,547	118,755
276,282	0,849	237,350	118,775
277,297	0,908	237,358	118,815
278,312	1,002	237,170	118,784
279,326	0,677	237,087	118,475
280,341	0,737	236,867	118,403
281,355	0,972	236,616	118,452
282,370	1,165	236,341	118,455
283,384	0,942	236,277	118,237
284,399	0,880	236,165	118,122
285,414	0,973	235,886	118,045
286,428	0,992	235,726	117,969
287,443	0,890	235,793	117,912
288,457	0,780	235,677	117,757
289,472	0,959	235,546	117,821
290,487	1,038	235,301	117,751
291,501	1,058	235,050	117,630
292,516	0,863	235,052	117,468
293,530	1,131	234,748	117,515
294,545	0,982	234,709	117,369
295,560	0,844	234,554	117,173
296,574	0,882	234,611	117,221
297,589	0,836	234,334	117,036
298,603	0,958	234,171	117,039
299,618	1,049	233,872	116,950
300,633	0,992	233,787	116,853
301,647	1,125	233,706	116,905
302,662	1,291	233,473	116,907
303,676	1,218	233,443	116,824
304,691	1,210	233,149	116,661
305,706	1,271	233,205	116,725
306,720	1,082	232,969	116,451
307,735	1,081	232,681	116,296
308,749	1,247	232,520	116,333
309,764	1,395	232,516	116,435
310,779	1,099	232,258	116,067
311,793	1,168	232,078	116,020
312,808	1,139	231,976	115,936
313,822	0,963	231,877	115,741
314,837	1,230	231,661	115,828
315,852	1,130	231,499	115,660
316,866	1,186	231,541	115,714
317,881	1,156	231,357	115,589
318,895	1,141	231,160	115,469
319,910	1,194	231,023	115,431
320,925	1,078	230,762	115,201
321,939	1,226	230,576	115,211
322,954	0,998	230,594	115,035
323,968	1,292	230,333	115,119
324,983	1,310	230,255	115,084
325,997	1,277	230,081	114,961
327,012	1,086	230,017	114,773
328,027	1,130	229,749	114,663
329,041	0,994	229,595	114,473
330,056	1,143	229,488	114,523
331,070	1,300	229,319	114,546
332,085	1,372	229,061	114,463
333,100	1,198	229,031	114,305
334,114	1,337	228,781	114,276
335,129	1,262	228,617	114,127
336,143	1,226	228,534	114,048
337,158	1,190	228,452	113,969
338,173	1,314	228,296	113,975
339,187	1,155	228,209	113,802
340,202	1,368	227,982	113,839
341,216	1,207	227,881	113,657
342,231	1,247	227,620	113,547
343,246	1,386	227,570	113,617
344,260	1,214	227,484	113,433
345,275	1,272	227,328	113,389
346,289	1,368	227,209	113,392
347,304	1,281	227,087	113,255
348,319	1,229	226,894	113,111
349,333	1,412	226,678	113,130
350,348	1,187	226,583	112,904
351,362	1,096	226,478	112,773
352,377	1,151	226,341	112,736
353,392	1,485	226,081	112,846
354,406	1,392	225,959	112,706
355,421	191,138	1312,457	1376,208
356,435	153,078	1444,704	1376,080
