DTS Sentinel unit serial number:	SN410029Multiplexer serial number:	ORYXHardware model number:	OX2-SRSoftware version number:	ORYX F/W v4,00 Oryx Data Collector v3.7.2.0data status	okinstallation	B5 Nyhavnadifferential loss correction	single-endedforward channel	channel 2reverse channel	N/Adate	2023/12/14time	07:42:13forward acquisition time	300,00reverse acquisition time	0,00gamma	499,1914k internal	0,3159k external	0,3159temperature offset calibration	1,0000default loss term (dB/km)	0,3820temperature slope calibration	1,0000multiplexer offset coefficient	1,0000multiplexer slope coefficient	1,0000fibre end	0,00T internal ref (°C)	7,12T ext. ref 1 (°C)	-9,28T ext. ref 2 (°C)	-9,36length (m)	temperature (°C)	Stokes	anti-Stokes-744,400	201,402	0,100	0,114
-743,385	-29,163	-0,457	-0,192
-742,371	110,283	0,224	0,198
-741,356	-149,022	-0,399	-0,023
-740,342	410,120	0,107	0,168
-739,327	-124,798	-0,357	0,040
-738,312	574,965	0,108	0,195
-737,298	-59,844	-0,283	-0,089
-736,283	2,006	0,280	0,148
-735,269	-126,170	-0,536	-0,058
-734,254	178,146	0,102	0,110
-733,239	-100,344	-0,628	-0,114
-732,225	-154,325	0,410	0,020
-731,210	-159,341	-0,146	0,006
-730,196	-97,238	0,157	-0,030
-729,181	-4,728	-0,127	-0,064
-728,167	65,201	-0,159	0,119
-727,152	203,499	0,034	-0,038
-726,137	-168,626	-0,107	0,003
-725,123	9,658	-0,066	-0,037
-724,108	-165,478	-0,075	-0,002
-723,094	555,058	-0,104	-0,185
-722,079	-69,578	-0,058	0,016
-721,064	800,000	0,062	0,144
-720,050	-200,000	0,036	0,131
-719,035	-200,000	-0,010	0,124
-718,021	125,249	0,041	0,038
-717,006	-82,593	-0,127	-0,030
-715,991	-200,000	0,003	-0,077
-714,977	-15,323	-0,064	-0,030
-713,962	1,061	0,192	0,101
-712,948	260,913	0,061	0,078
-711,933	800,000	-0,041	-0,099
-710,918	126,022	-0,119	-0,110
-709,904	-200,000	0,001	0,080
-708,889	273,452	-0,105	-0,137
-707,875	800,000	0,036	0,083
-706,860	-200,000	-0,028	-0,097
-705,845	137,775	-0,023	0,022
-704,831	172,868	0,062	-0,065
-703,816	800,000	0,037	0,097
-702,802	800,000	-0,046	-0,144
-701,787	-45,499	0,098	-0,036
-700,772	-115,195	-0,112	0,015
-699,758	-182,893	0,084	0,001
-698,743	-200,000	-0,009	0,071
-697,729	232,224	-0,065	0,079
-696,714	492,432	0,010	-0,018
-695,699	471,301	-0,143	-0,238
-694,685	-134,474	-0,070	-0,006
-693,670	183,502	0,047	-0,051
-692,656	12,162	-0,106	0,060
-691,641	-55,535	0,064	0,021
-690,627	-54,760	0,101	-0,033
-689,612	88,404	0,087	0,071
-688,597	-123,541	-0,062	-0,007
-687,583	228,780	0,046	0,055
-686,568	259,789	-0,081	-0,103
-685,554	800,000	0,015	0,044
-684,539	-133,424	-0,070	-0,006
-683,524	-98,725	0,055	-0,010
-682,510	-130,430	-0,133	0,013
-681,495	-7,579	0,074	0,037
-680,481	199,180	-0,126	-0,142
-679,466	591,175	0,056	-0,102
-678,451	-1,838	-0,021	0,011
-677,437	-200,000	-0,005	-0,027
-676,422	800,000	-0,017	-0,050
-675,408	-111,591	0,054	0,008
-674,393	800,000	0,027	0,064
-673,378	155,433	-0,126	-0,127
-672,364	800,000	-0,058	-0,152
-671,349	800,000	-0,038	-0,084
-670,335	800,000	0,035	-0,106
-669,320	89,934	0,049	-0,040
-668,305	-200,000	-0,026	-0,160
-667,291	-200,000	0,044	0,158
-666,276	-99,317	-0,036	0,007
-665,262	21,842	-0,143	0,085
-664,247	-77,842	-0,040	0,010
-663,232	126,849	-0,068	-0,064
-662,218	52,483	0,098	0,069
-661,203	-75,646	-0,059	0,015
-660,189	9,386	0,072	-0,040
-659,174	800,000	-0,073	0,151
-658,159	-57,466	-0,101	0,032
-657,145	-156,994	-0,213	-0,009
-656,130	-134,535	0,086	-0,008
-655,116	79,646	0,066	-0,052
-654,101	566,497	-0,089	0,160
-653,086	-200,000	0,017	0,058
-652,072	-142,077	-0,182	-0,013
-651,057	22,569	0,179	-0,107
-650,043	-48,613	-0,108	0,038
-649,028	-200,000	0,007	0,062
-648,014	454,145	0,025	0,040
-646,999	-200,000	-0,000	0,018
-645,984	145,565	-0,022	-0,022
-644,970	96,863	-0,048	0,040
-643,955	45,508	-0,067	-0,045
-642,941	99,977	-0,105	-0,089
-641,926	55,233	0,109	0,077
-640,911	34,866	0,097	0,062
-639,897	245,887	0,095	-0,118
-638,882	-129,594	0,134	-0,013
-637,868	-188,176	-0,116	0,001
-636,853	98,673	0,016	0,013
-635,838	394,397	0,035	0,054
-634,824	560,592	-0,029	-0,052
-633,809	-186,508	0,083	0,001
-632,795	34,045	-0,028	0,018
-631,780	-200,000	-0,039	0,145
-630,765	-130,671	-0,124	0,012
-629,751	-25,111	0,015	-0,006
-628,736	-115,816	-0,119	0,016
-627,722	536,373	0,046	0,080
-626,707	-42,834	0,076	0,028
-625,692	-200,000	0,004	-0,043
-624,678	-151,040	-0,079	-0,004
-623,663	366,320	-0,013	0,020
-622,649	58,492	0,011	0,008
-621,634	-113,199	0,086	-0,012
-620,619	244,272	-0,093	-0,114
-619,605	800,000	-0,009	-0,020
-618,590	-200,000	0,002	-0,054
-617,576	-200,000	-0,023	0,099
-616,561	-200,000	-0,001	0,054
-615,546	187,533	-0,049	-0,054
-614,532	-95,447	-0,074	-0,014
-613,517	-200,000	0,033	-0,170
-612,503	-100,375	-0,059	0,011
-611,488	229,862	0,097	-0,117
-610,474	218,052	0,043	0,050
-609,459	-200,000	-0,015	-0,097
-608,444	-200,000	-0,013	-0,041
-607,430	-200,000	0,003	-0,066
-606,415	179,724	-0,042	-0,046
-605,401	-200,000	0,002	0,009
-604,386	-200,000	0,004	-0,117
-603,371	-200,000	0,019	0,071
-602,357	800,000	-0,050	0,117
-601,342	-98,751	-0,102	0,019
-600,328	35,319	-0,136	-0,087
-599,313	324,272	0,043	-0,061
-598,298	-200,000	0,031	0,125
-597,284	295,946	0,014	-0,019
-596,269	800,000	-0,028	-0,088
-595,255	-200,000	-0,025	-0,114
-594,240	43,498	-0,124	-0,083
-593,225	-200,000	-0,035	-0,136
-592,211	22,057	0,037	-0,022
-591,196	-200,000	-0,020	-0,081
-590,182	25,838	0,057	0,035
-589,167	220,343	0,074	0,087
-588,152	-120,609	-0,024	0,003
-587,138	331,583	-0,029	0,041
-586,123	74,181	-0,038	0,029
-585,109	-200,000	-0,005	-0,017
-584,094	-200,000	0,009	0,115
-583,079	-200,000	-0,002	0,099
-582,065	40,259	0,057	0,038
-581,050	71,704	-0,089	0,067
-580,036	800,000	0,064	0,130
-579,021	55,012	-0,081	-0,057
-578,006	-200,000	0,014	0,095
-576,992	-200,000	-0,012	-0,044
-575,977	100,961	-0,064	-0,055
-574,963	-200,000	0,011	0,114
-573,948	-66,593	0,146	-0,042
-572,934	191,840	-0,114	0,126
-571,919	602,864	-0,068	0,124
-570,904	147,270	-0,078	-0,077
-569,890	-19,019	-0,116	0,053
-568,875	-121,987	0,073	0,009
-567,861	94,865	-0,047	0,039
-566,846	-61,363	-0,121	0,037
-565,831	49,820	0,012	0,008
-564,817	-84,885	0,139	-0,032
-563,802	800,000	-0,019	-0,043
-562,788	-7,046	0,106	0,053
-561,773	543,789	0,057	0,100
-560,758	-150,711	0,060	-0,003
-559,744	-200,000	-0,008	-0,140
-558,729	-200,000	-0,004	0,104
-557,715	-64,246	-0,117	-0,035
-556,700	-142,383	-0,177	-0,013
-555,685	-43,629	-0,139	-0,051
-554,671	-127,563	0,157	-0,016
-553,656	626,042	0,060	-0,112
-552,642	-34,892	-0,042	0,017
-551,627	-200,000	0,017	0,087
-550,612	-74,244	-0,059	-0,015
-549,598	416,500	0,091	-0,142
-548,583	17,747	0,078	-0,045
-547,569	138,043	0,049	-0,047
-546,554	441,884	0,091	0,145
-545,539	-3,271	0,026	0,013
-544,525	67,759	0,025	0,019
-543,510	79,831	-0,096	0,075
-542,496	-147,613	-0,178	0,011
-541,481	-200,000	-0,036	-0,150
-540,466	376,440	0,047	0,071
-539,452	-76,581	0,056	0,014
-538,437	95,201	0,095	-0,079
-537,423	-200,000	-0,000	-0,028
-536,408	-200,000	-0,011	-0,052
-535,393	519,731	-0,064	-0,110
-534,379	-200,000	-0,009	0,052
-533,364	-200,000	0,013	-0,089
-532,350	-39,121	0,137	0,052
-531,335	85,234	-0,117	-0,094
-530,321	239,735	0,042	0,051
-529,306	800,000	-0,039	0,095
-528,291	-72,276	0,018	-0,005
-527,277	403,228	-0,067	0,103
-526,262	800,000	-0,019	-0,038
-525,248	333,144	0,136	-0,192
-524,233	-200,000	-0,032	0,134
-523,218	-200,000	0,006	0,034
-522,204	-200,000	-0,015	0,113
-521,189	-200,000	-0,001	0,056
-520,175	800,000	0,058	-0,117
-519,160	244,427	0,094	0,116
-518,145	-200,000	0,006	0,034
-517,131	-114,871	0,018	0,002
-516,116	-200,000	0,052	0,221
-515,102	800,000	0,043	0,112
-514,087	-41,309	-0,068	-0,026
-513,072	54,215	-0,056	0,040
-512,058	-200,000	0,015	-0,078
-511,043	338,873	0,031	0,044
-510,029	-2,098	0,034	-0,017
-509,014	800,000	0,020	-0,062
-507,999	-188,460	-0,058	0,001
-506,985	-32,603	-0,121	0,049
-505,970	-200,000	-0,006	-0,022
-504,956	-106,460	0,034	0,006
-503,941	-102,858	-0,129	0,022
-502,926	-200,000	-0,037	0,139
-501,912	602,816	-0,072	-0,131
-500,897	348,590	-0,078	0,112
-499,883	-200,000	0,008	-0,104
-498,868	19,702	0,103	-0,060
-497,853	800,000	0,030	-0,072
-496,839	-200,000	0,015	0,065
-495,824	131,326	-0,109	0,102
-494,810	-94,857	0,167	0,033
-493,795	-200,000	-0,012	0,081
-492,781	0,137	-0,108	-0,056
-491,766	211,685	-0,042	-0,048
-490,751	-200,000	0,011	-0,180
-489,737	181,801	-0,072	0,078
-488,722	8,168	0,113	0,062
-487,708	-99,321	0,242	-0,044
-486,693	105,658	-0,089	-0,077
-485,678	73,096	0,041	0,031
-484,664	800,000	0,060	-0,122
-483,649	-39,423	0,073	0,028
-482,635	512,802	0,070	0,119
-481,620	800,000	-0,012	-0,029
-480,605	-200,000	0,008	-0,038
-479,591	172,817	0,157	-0,165
-478,576	205,314	-0,036	-0,041
-477,562	-150,834	-0,060	-0,003
-476,547	-120,467	0,042	0,005
-475,532	152,709	0,046	-0,046
-474,518	-56,610	-0,073	-0,023
-473,503	800,000	-0,050	0,104
-472,489	-200,000	0,046	0,187
-471,474	800,000	0,071	0,223
-470,459	-57,612	0,168	0,053
-469,445	265,902	-0,058	-0,074
-468,430	-87,767	-0,038	-0,008
-467,416	16,268	-0,060	0,035
-466,401	-200,000	0,002	0,071
-465,386	-41,919	0,170	0,063
-464,372	-200,000	-0,009	0,112
-463,357	-72,453	-0,023	0,006
-462,343	800,000	0,003	-0,008
-461,328	659,491	-0,033	0,062
-460,313	-143,128	0,069	0,005
-459,299	-200,000	-0,002	0,014
-458,284	31,307	0,099	0,062
-457,270	46,784	0,025	0,017
-456,255	-132,288	0,109	0,010
-455,241	30,672	-0,062	-0,038
-454,226	-200,000	0,021	-0,117
-453,211	-200,000	-0,021	0,080
-452,197	-56,531	0,089	0,029
-451,182	120,771	-0,041	0,037
-450,168	-30,431	0,093	-0,038
-449,153	-80,289	0,069	0,017
-448,138	800,000	-0,043	0,129
-447,124	32,393	-0,054	-0,034
-446,109	-104,202	0,101	0,017
-445,095	-200,000	0,017	0,108
-444,080	-4,395	0,106	0,053
-443,065	-200,000	0,009	0,105
-442,051	639,853	-0,041	0,075
-441,036	13,664	-0,113	-0,064
-440,022	43,814	-0,036	0,024
-439,007	-25,288	0,036	0,016
-437,992	-97,862	0,125	-0,023
-436,978	369,406	0,035	-0,051
-435,963	800,000	0,051	0,149
-434,949	181,279	0,007	0,007
-433,934	800,000	-0,004	0,011
-432,919	-5,839	-0,064	0,032
-431,905	-16,197	0,135	0,062
-430,890	308,510	0,103	0,141
-429,876	-2,673	0,090	0,046
-428,861	152,148	-0,082	0,081
-427,846	-200,000	-0,024	-0,126
-426,832	-200,000	-0,001	-0,072
-425,817	35,900	0,059	0,038
-424,803	-22,032	-0,073	0,032
-423,788	298,832	0,081	0,109
-422,773	-147,447	0,069	0,004
-421,759	-93,128	-0,137	0,027
-420,744	-200,000	-0,002	-0,019
-419,730	800,000	-0,005	-0,014
-418,715	-117,705	-0,106	-0,014
-417,701	800,000	0,046	-0,111
-416,686	800,000	-0,012	0,033
-415,671	-200,000	-0,016	0,064
-414,657	328,830	-0,055	0,078
-413,642	170,795	0,019	0,020
-412,628	-110,711	-0,128	-0,019
-411,613	109,740	-0,043	-0,037
-410,598	-74,956	0,120	0,031
-409,584	-200,000	-0,032	0,130
-408,569	277,023	-0,038	0,050
-407,555	-200,000	0,077	-0,000
-406,540	157,302	-0,104	-0,105
-405,525	-87,790	-0,041	0,009
-404,511	-63,211	-0,027	-0,008
-403,496	-200,000	0,003	-0,092
-402,482	108,188	0,088	0,077
-401,467	216,780	0,108	0,125
-400,452	-117,159	-0,060	-0,008
-399,438	-200,000	-0,006	0,090
-398,423	157,897	0,089	-0,090
-397,409	341,621	-0,098	-0,140
-396,394	-120,065	0,101	0,012
-395,379	-109,118	0,023	0,003
-394,365	-82,450	-0,137	0,032
-393,350	36,351	0,056	-0,036
-392,336	-200,000	0,029	-0,112
-391,321	312,588	0,037	-0,051
-390,306	-95,183	-0,057	-0,011
-389,292	-131,061	0,042	0,004
-388,277	359,490	0,069	0,100
-387,263	-200,000	0,024	0,173
-386,248	108,896	0,084	0,073
-385,233	89,734	0,032	0,026
-384,219	127,850	-0,023	-0,021
-383,204	652,037	0,011	0,020
-382,190	258,103	-0,034	0,043
-381,175	-26,403	0,021	0,009
-380,160	542,629	0,044	0,077
-379,146	-200,000	-0,003	0,046
-378,131	800,000	0,031	0,068
-377,117	-200,000	-0,016	-0,053
-376,102	-200,000	0,001	0,035
-375,088	-61,275	-0,124	-0,038
-374,073	-49,701	0,104	-0,036
-373,058	117,605	-0,099	-0,089
-372,044	-61,903	0,109	0,033
-371,029	160,892	0,075	-0,076
-370,015	-153,762	-0,180	0,009
-369,000	-79,020	0,030	-0,007
-367,985	439,901	0,042	0,067
-366,971	-200,000	0,022	-0,110
-365,956	159,803	-0,056	0,057
-364,942	-200,000	-0,013	0,084
-363,927	-115,290	0,116	-0,016
-362,912	145,399	-0,030	-0,029
-361,898	104,021	0,017	-0,015
-360,883	800,000	0,018	0,052
-359,869	165,531	-0,046	-0,048
-358,854	-200,000	-0,004	0,047
-357,839	-27,873	-0,030	0,013
-356,825	-154,752	-0,133	0,006
-355,810	-151,264	-0,059	-0,003
-354,796	71,402	-0,099	0,074
-353,781	-199,063	0,063	-0,000
-352,766	800,000	0,026	0,062
-351,752	-92,440	-0,136	-0,027
-350,737	-46,194	0,061	0,021
-349,723	175,475	0,029	0,031
-348,708	-200,000	-0,017	-0,089
-347,693	157,632	-0,084	0,084
-346,679	-200,000	0,004	-0,029
-345,664	735,452	-0,082	-0,160
-344,650	-12,790	-0,033	-0,015
-343,635	-145,181	0,048	0,003
-342,620	-71,765	0,049	-0,013
-341,606	-62,858	-0,184	-0,055
-340,591	-200,000	-0,005	-0,050
-339,577	-3,750	-0,158	0,079
-338,562	-166,250	-0,083	-0,002
-337,548	-200,000	0,003	-0,110
-336,533	85,854	-0,089	-0,071
-335,518	800,000	0,059	0,148
-334,504	788,421	0,022	-0,044
-333,489	436,073	0,066	-0,105
-332,475	127,458	-0,045	-0,041
-331,460	800,000	-0,022	-0,070
-330,445	800,000	-0,035	0,093
-329,431	-92,986	0,073	0,015
-328,416	58,790	-0,082	0,058
-327,402	-200,000	-0,009	-0,069
-326,387	-200,000	0,181	-0,000
-325,372	-200,000	-0,038	-0,180
-324,358	-151,548	-0,022	-0,001
-323,343	294,181	0,014	-0,019
-322,329	115,858	0,005	0,005
-321,314	59,198	-0,058	-0,042
-320,299	333,964	0,031	-0,043
-319,285	-200,000	-0,004	0,079
-318,270	97,924	-0,093	-0,078
-317,256	513,304	-0,070	-0,118
-316,241	59,207	0,020	-0,015
-315,226	-200,000	-0,023	-0,098
-314,212	91,540	0,084	-0,068
-313,197	-131,396	-0,080	-0,008
-312,183	-200,000	-0,026	-0,111
-311,168	-200,000	-0,003	-0,121
-310,153	800,000	-0,093	-0,239
-309,139	-200,000	-0,034	-0,142
-308,124	163,342	0,077	0,078
-307,110	-200,000	-0,024	0,163
-306,095	800,000	0,061	0,167
-305,080	800,000	0,028	0,069
-304,066	-66,919	-0,092	0,026
-303,051	137,867	-0,056	-0,053
-302,037	-8,845	-0,085	-0,041
-301,022	20,128	0,085	0,050
-300,008	800,000	0,032	0,102
-298,993	298,026	0,059	0,078
-297,978	-123,674	-0,102	-0,012
-296,964	-110,968	-0,074	0,011
-295,949	-144,138	-0,121	0,008
-294,935	-127,542	0,036	0,004
-293,920	800,000	0,036	-0,096
-292,905	-200,000	0,031	-0,120
-291,891	-158,287	0,083	-0,003
-290,876	-70,936	0,050	-0,014
-289,862	-44,035	-0,167	0,060
-288,847	747,841	0,040	-0,078
-287,832	800,000	-0,037	0,076
-286,818	-200,000	0,023	-0,150
-285,803	-189,397	0,040	0,000
-284,789	-72,113	0,115	0,031
-283,774	67,923	-0,054	-0,040
-282,759	-200,000	-0,007	0,039
-281,745	356,991	0,019	0,028
-280,730	-200,000	-0,012	0,077
-279,716	-89,688	0,055	-0,012
-278,701	58,429	-0,146	0,103
-277,686	142,586	0,057	0,055
-276,672	-74,936	-0,066	-0,017
-275,657	-79,692	0,071	0,017
-274,643	130,873	0,017	-0,016
-273,628	800,000	-0,016	0,040
-272,613	41,013	-0,127	-0,083
-271,599	800,000	-0,043	-0,124
-270,584	-69,431	0,196	0,054
-269,570	207,943	0,065	0,074
-268,555	150,049	-0,026	-0,025
-267,540	-200,000	0,019	0,130
-266,526	79,011	-0,088	-0,068
-265,511	-116,671	-0,075	0,010
-264,497	-200,000	0,009	0,090
-263,482	-87,944	0,232	0,050
-262,467	800,000	0,023	0,048
-261,453	800,000	0,030	-0,065
-260,438	-200,000	0,010	-0,123
-259,424	-200,000	-0,003	-0,079
-258,409	489,713	-0,064	-0,106
-257,395	61,054	-0,096	-0,069
-256,380	800,000	-0,012	-0,027
-255,365	8,367	-0,034	-0,018
-254,351	-200,000	-0,013	0,078
-253,336	-42,760	-0,070	0,025
-252,322	-145,691	-0,052	0,003
-251,307	-99,047	0,118	0,021
-250,292	117,628	-0,143	-0,127
-249,278	65,761	0,155	-0,113
-248,263	-200,000	0,023	0,144
-247,249	-200,000	0,006	-0,070
-246,234	134,313	0,056	0,053
-245,219	-61,326	-0,108	-0,033
-244,205	-200,000	-0,027	-0,139
-243,190	800,000	-0,046	-0,136
-242,176	-200,000	0,002	0,084
-241,161	-200,000	-0,014	-0,060
-240,146	800,000	0,029	0,068
-239,132	187,972	-0,097	0,105
-238,117	-55,931	0,011	0,004
-237,103	-200,000	0,029	-0,187
-236,088	-80,508	0,177	0,042
-235,073	57,126	-0,080	-0,056
-234,059	103,162	0,077	-0,065
-233,044	201,654	-0,016	-0,018
-232,030	-200,000	-0,004	-0,082
-231,015	282,272	-0,089	-0,115
-230,000	324,792	-0,112	0,154
-228,986	-151,544	0,064	0,003
-227,971	384,138	0,027	-0,040
-226,957	-200,000	0,034	0,111
-225,942	167,060	-0,049	-0,050
-224,927	454,484	-0,033	0,054
-223,913	41,402	0,062	-0,041
-222,898	281,298	0,074	-0,096
-221,884	660,912	0,032	-0,059
-220,869	239,736	0,109	-0,131
-219,855	-33,319	-0,111	-0,044
-218,840	67,667	0,069	0,051
-217,825	33,090	0,114	-0,071
-216,811	800,000	-0,020	-0,049
-215,796	156,300	-0,011	-0,011
-214,782	-82,221	0,175	-0,041
-213,767	800,000	0,012	-0,033
-212,752	98,753	-0,106	0,088
-211,738	800,000	-0,020	-0,055
-210,723	96,475	-0,023	0,019
-209,709	-183,885	-0,044	0,001
-208,694	-200,000	-0,018	-0,092
-207,679	-15,373	0,105	0,048
-206,665	-200,000	0,012	-0,120
-205,650	-163,613	0,219	0,007
-204,636	292,779	-0,052	0,069
-203,621	-156,087	0,060	0,003
-202,606	124,879	-0,019	-0,017
-201,592	-63,377	0,035	-0,010
-200,577	-30,018	0,080	0,033
-199,563	800,000	0,094	-0,188
-198,548	-132,772	0,039	-0,004
-197,533	132,712	-0,094	-0,088
-196,519	-86,423	-0,107	-0,024
-195,504	190,302	0,090	-0,098
-194,490	-113,901	-0,043	-0,006
-193,475	-14,562	-0,169	0,078
-192,460	123,937	0,046	0,042
-191,446	-64,208	0,050	-0,015
-190,431	346,643	0,025	-0,036
-189,417	729,472	-0,029	0,056
-188,402	598,200	-0,012	-0,021
-187,387	-119,007	-0,021	0,003
-186,373	-200,000	0,016	0,062
-185,358	179,811	0,086	-0,091
-184,344	456,838	-0,032	0,051
-183,329	-102,177	0,168	0,029
-182,315	112,814	-0,080	-0,070
-181,300	132,860	0,060	-0,056
-180,285	272,291	0,016	-0,021
-179,271	461,263	-0,038	0,062
-178,256	394,283	-0,077	-0,116
-177,242	120,575	0,035	0,031
-176,227	800,000	-0,020	0,060
-175,212	12,958	0,033	0,018
-174,198	-71,102	0,093	-0,025
-173,183	-97,918	-0,098	0,018
-172,169	-59,451	-0,058	0,018
-171,154	92,955	-0,038	0,031
-170,139	-116,642	-0,118	0,015
-169,125	800,000	0,025	0,059
-168,110	-200,000	0,023	0,079
-167,096	-6,115	-0,018	-0,009
-166,081	-200,000	0,036	0,179
-165,066	800,000	0,006	-0,017
-164,052	-66,971	-0,166	-0,047
-163,037	31,740	0,017	0,010
-162,023	111,277	-0,046	-0,040
-161,008	-200,000	0,004	0,095
-159,993	800,000	0,022	0,060
-158,979	570,155	-0,061	-0,107
-157,964	-22,890	0,088	0,038
-156,950	-5,515	-0,044	-0,022
-155,935	-200,000	0,017	-0,143
-154,920	-159,514	0,058	-0,002
-153,906	-97,324	0,042	-0,008
-152,891	-21,519	-0,096	0,042
-151,877	199,236	-0,060	0,066
-150,862	265,609	0,061	-0,077
-149,847	-200,000	-0,007	-0,163
-148,833	-200,000	-0,012	0,174
-147,818	23,931	-0,057	0,034
-146,804	136,901	-0,096	0,091
-145,789	178,368	0,107	0,113
-144,775	68,667	0,074	-0,055
-143,760	-200,000	-0,046	-0,160
-142,745	-200,000	-0,000	-0,063
-141,731	25,842	0,113	0,068
-140,716	-158,159	-0,055	-0,002
-139,702	140,826	0,081	-0,077
-138,687	-156,286	-0,068	0,003
-137,672	509,350	-0,033	0,055
-136,658	-68,248	-0,157	-0,044
-135,643	-200,000	-0,013	0,045
-134,629	-38,462	-0,028	0,011
-133,614	-58,315	0,115	0,036
-132,599	-200,000	-0,001	-0,026
-131,585	348,797	-0,047	-0,067
-130,570	-121,533	0,136	0,016
-129,556	-157,531	-0,102	0,004
-128,541	4,931	-0,105	-0,056
-127,526	-91,337	0,027	0,005
-126,512	-200,000	-0,015	-0,050
-125,497	-87,224	-0,066	-0,014
-124,483	-200,000	0,006	0,123
-123,468	-91,469	0,083	-0,017
-122,453	-24,305	-0,110	0,047
-121,439	327,208	0,043	-0,060
-120,424	800,000	-0,064	-0,141
-119,410	561,383	0,067	0,117
-118,395	-200,000	0,010	-0,111
-117,380	-200,000	0,006	0,107
-116,366	-200,000	0,006	0,045
-115,351	-6,249	0,191	-0,093
-114,337	-72,304	-0,079	-0,021
-113,322	-100,836	0,163	-0,029
-112,307	-124,915	0,104	-0,011
-111,293	-92,616	0,031	0,006
-110,278	-3,062	0,036	-0,018
-109,264	517,686	-0,045	-0,076
-108,249	279,849	-0,049	-0,063
-107,234	-187,755	-0,105	-0,001
-106,220	492,318	0,013	0,022
-105,205	-200,000	-0,015	-0,098
-104,191	-37,321	-0,138	0,053
-103,176	-200,000	0,014	0,064
-102,162	-92,853	0,035	0,007
-101,147	-44,899	0,019	0,007
-100,132	-154,002	-0,147	-0,007
-99,118	-200,000	0,011	-0,153
-98,103	198,091	-0,077	0,085
-97,089	56,341	-0,074	0,052
-96,074	-200,000	0,016	0,090
-95,059	-63,267	-0,058	-0,017
-94,045	-23,167	-0,097	-0,042
-93,030	-166,497	0,085	0,002
-92,016	39,251	-0,078	-0,050
-91,001	-3,219	0,082	-0,041
-89,986	-200,000	0,015	0,052
-88,972	-200,000	0,012	0,056
-87,957	800,000	-0,062	0,130
-86,943	94,013	-0,089	-0,072
-85,928	68,309	-0,054	-0,039
-84,913	800,000	-0,008	-0,019
-83,899	160,440	0,031	-0,031
-82,884	239,460	-0,063	-0,075
-81,870	376,656	0,016	0,024
-80,855	-151,548	-0,070	-0,004
-79,840	-155,413	0,108	0,005
-78,826	-35,512	-0,104	0,040
-77,811	37,761	0,009	-0,006
-76,797	800,000	-0,013	-0,032
-75,782	-200,000	-0,024	0,086
-74,767	173,687	-0,124	0,128
-73,753	-70,101	-0,070	0,019
-72,738	-139,374	-0,109	-0,008
-71,724	-123,904	-0,138	0,015
-70,709	-7,920	-0,045	-0,022
-69,694	173,733	-0,049	-0,050
-68,680	800,000	0,004	-0,008
-67,665	26,846	-0,091	0,055
-66,651	128,446	0,032	0,029
-65,636	800,000	0,034	0,084
-64,622	-87,271	0,113	0,024
-63,607	-200,000	-0,010	-0,083
-62,592	17,801	0,089	-0,051
-61,578	196,644	0,100	-0,110
-60,563	800,000	0,067	0,182
-59,549	-200,000	0,024	0,164
-58,534	81,038	-2,733	-2,114
-57,519	-81,266	0,543	-0,127
-56,505	-200,000	-1,704	-5,402
-55,490	554,383	1,180	2,044
-54,476	800,000	5,235	11,295
-53,461	-200,000	23,140	347,943
-52,446	800,000	765,272	2264,283
-51,432	497,430	1643,180	2722,332
-50,417	93,384	1599,467	1297,417
-49,403	61,159	1254,770	892,559
-48,388	21,218	1007,322	585,104
-47,373	18,471	974,900	557,278
-46,359	11,929	961,767	528,571
-45,344	7,803	958,660	513,467
-44,330	8,124	956,465	513,313
-43,315	7,188	954,723	509,330
-42,300	7,140	953,742	508,630
-41,286	7,157	952,630	508,071
-40,271	7,163	951,730	507,591
-39,257	7,203	950,679	507,141
-38,242	7,191	949,870	506,649
-37,227	7,129	949,201	506,074
-36,213	7,156	948,228	505,622
-35,198	7,131	947,556	505,162
-34,184	7,188	946,802	504,924
-33,169	7,175	945,709	504,277
-32,154	7,135	945,100	503,806
-31,140	7,228	944,088	503,544
-30,125	7,190	943,559	503,120
-29,111	7,206	942,454	502,561
-28,096	7,182	941,935	502,187
-27,082	7,199	941,346	501,908
-26,067	7,119	940,635	501,257
-25,052	7,118	939,800	500,786
-24,038	7,176	938,984	500,515
-23,023	7,051	938,540	499,865
-22,009	7,110	937,961	499,722
-20,994	7,178	937,249	499,539
-19,979	7,155	936,566	499,081
-18,965	7,179	935,821	498,741
-17,950	7,113	935,378	498,277
-16,936	7,110	934,699	497,885
-15,921	7,079	934,143	497,471
-14,906	7,049	933,451	496,987
-13,892	7,095	932,856	496,797
-12,877	7,039	932,087	496,192
-11,863	7,032	931,749	495,970
-10,848	7,065	931,057	495,687
-9,833	7,155	930,501	495,653
-8,819	7,081	929,770	495,010
-7,804	7,064	929,251	494,663
-6,790	7,036	928,539	494,175
-5,775	7,083	928,131	494,086
-4,760	7,061	927,510	493,667
-3,746	7,038	926,802	493,199
-2,731	6,885	926,290	492,426
-1,717	6,903	925,540	492,063
-0,702	6,937	924,890	491,805
0,313	6,753	924,130	491,568
1,327	10,080	921,793	500,662
2,342	18,541	770,527	440,416
3,356	13,333	442,363	245,077
4,371	-12,336	309,171	144,281
5,386	-15,959	291,790	132,534
6,400	-18,267	285,750	127,519
7,415	-18,278	283,187	126,353
8,429	-18,998	281,490	124,890
9,444	-19,076	280,371	124,307
10,459	-18,966	279,866	124,178
11,473	-18,927	279,211	123,913
12,488	-19,075	278,851	123,601
13,502	-18,839	278,221	123,536
14,517	-18,667	277,772	123,489
15,531	-18,815	277,473	123,205
16,546	-18,675	277,050	123,138
17,561	-18,874	276,667	122,768
18,575	-18,590	276,341	122,882
19,590	-18,784	275,853	122,471
20,604	-18,867	275,885	122,396
21,619	-18,812	275,210	122,137
22,634	-18,803	275,129	122,099
23,648	-18,683	274,635	121,981
24,663	-18,794	274,450	121,784
25,677	-18,737	274,166	121,701
26,692	-18,700	273,936	121,622
27,707	-18,651	273,586	121,502
28,721	-18,751	273,365	121,299
29,736	-18,952	273,120	120,993
30,750	-18,720	272,792	121,053
31,765	-18,792	272,526	120,857
32,780	-18,711	272,449	120,888
33,794	-18,813	272,139	120,644
34,809	-18,811	271,921	120,538
35,823	-18,828	271,626	120,381
36,838	-18,750	271,336	120,315
37,853	-18,652	271,104	120,291
38,867	-18,698	270,865	120,132
39,882	-18,778	270,561	119,913
40,896	-18,615	270,439	119,999
41,911	-18,757	270,109	119,710
42,926	-18,802	269,953	119,589
43,940	-18,750	269,625	119,481
44,955	-18,684	269,339	119,404
45,969	-18,564	269,168	119,428
46,984	-18,620	269,111	119,341
47,999	-18,420	268,846	119,397
49,013	-18,473	268,558	119,209
50,028	-18,476	268,279	119,072
51,042	-18,443	268,019	118,976
52,057	-18,693	267,997	118,727
53,071	-18,413	267,637	118,813
54,086	-18,479	267,407	118,640
55,101	-18,593	267,159	118,415
56,115	-18,491	266,909	118,387
57,130	-18,671	266,736	118,135
58,144	-18,753	266,459	117,928
59,159	-18,827	266,262	117,763
60,174	-18,750	266,030	117,720
61,188	-18,697	265,661	117,594
62,203	-18,705	265,559	117,531
63,217	-18,622	265,345	117,502
64,232	-18,556	265,059	117,424
65,247	-18,707	264,734	117,132
66,261	-18,853	264,506	116,889
67,276	-18,642	264,342	116,997
68,290	-18,617	264,075	116,891
69,305	-18,527	264,005	116,931
70,320	-18,732	263,899	116,689
71,334	-18,701	263,618	116,582
72,349	-18,886	263,349	116,286
73,363	-18,768	263,051	116,251
74,378	-18,654	262,728	116,200
75,393	-18,744	262,589	116,047
76,407	-18,806	262,426	115,909
77,422	-18,756	262,277	115,877
78,436	-18,678	261,944	115,790
79,451	-18,625	261,628	115,687
80,466	-18,644	261,504	115,605
81,480	-18,564	261,241	115,549
82,495	-18,637	261,057	115,393
83,509	-18,718	260,870	115,228
84,524	-18,704	260,752	115,179
85,539	-18,566	260,366	115,120
86,553	-18,563	260,190	115,034
87,568	-18,598	260,082	114,946
88,582	-18,557	259,721	114,811
89,597	-18,477	259,602	114,820
90,611	-18,581	259,257	114,565
91,626	-18,768	259,262	114,392
92,641	-18,639	259,020	114,388
93,655	-18,683	258,867	114,272
94,670	-18,582	258,381	114,136
95,684	-18,761	258,329	113,946
96,699	-18,819	258,136	113,800
97,714	-18,545	257,968	113,956
98,728	-18,656	257,745	113,750
99,743	-18,314	257,541	113,949
100,757	-18,672	257,356	113,544
101,772	-18,516	257,141	113,576
102,787	-18,540	256,784	113,387
103,801	-18,713	256,923	113,287
104,816	-18,674	256,540	113,142
105,830	-18,752	256,321	112,967
106,845	-18,569	256,063	113,003
107,860	-18,648	255,931	112,866
108,874	-18,590	255,636	112,776
109,889	-18,620	255,607	112,726
110,903	-18,760	255,275	112,449
111,918	-18,835	255,311	112,390
112,933	-18,564	254,959	112,459
113,947	-18,634	254,725	112,286
114,962	-18,552	254,458	112,229
115,976	-18,618	254,365	112,121
116,991	-18,703	254,146	111,941
118,006	-18,480	253,931	112,029
119,020	-18,515	253,715	111,893
120,035	-18,683	253,702	111,733
121,049	-18,793	253,469	111,525
122,064	-18,520	253,291	111,672
123,079	-18,652	252,947	111,397
124,093	-18,521	252,837	111,451
125,108	-18,574	252,508	111,251
126,122	-18,541	252,379	111,212
127,137	-18,612	252,184	111,056
128,151	-18,436	252,109	111,163
129,166	-18,651	251,886	110,871
130,181	-18,364	251,704	111,027
131,195	-18,402	251,357	110,831
132,210	-18,578	251,211	110,607
133,224	-18,649	251,004	110,445
134,239	-18,621	250,812	110,374
135,254	-18,708	250,645	110,217
136,268	-18,479	250,469	110,324
137,283	-18,507	250,163	110,156
138,297	-18,400	249,943	110,140
139,312	-18,459	249,852	110,040
140,327	-18,500	249,707	109,932
141,341	-18,776	249,521	109,607
142,356	-18,599	249,162	109,589
143,370	-18,680	249,071	109,471
144,385	-18,336	248,832	109,646
145,400	-18,404	248,521	109,442
146,414	-18,355	248,391	109,416
147,429	-18,578	248,165	109,119
148,443	-18,685	248,134	109,006
149,458	-18,433	247,958	109,131
150,473	-18,651	247,791	108,865
151,487	-18,387	247,428	108,916
152,502	-18,608	247,489	108,748
153,516	-18,430	247,063	108,701
154,531	-18,653	246,963	108,460
155,546	-18,566	246,929	108,509
156,560	-18,635	246,661	108,323
157,575	-18,475	246,411	108,337
158,589	-18,439	246,182	108,257
159,604	-18,556	246,079	108,104
160,619	-18,572	245,912	108,008
161,633	-18,740	245,710	107,771
162,648	-18,595	245,435	107,761
163,662	-18,568	245,414	107,764
164,677	-18,508	245,299	107,754
165,692	-18,680	245,156	107,539
166,706	-18,722	245,031	107,439
167,721	-18,582	244,567	107,342
168,735	-18,562	244,489	107,314
169,750	-18,604	244,364	107,215
170,764	-18,537	244,385	107,271
171,779	-18,517	243,980	107,100
172,794	-18,444	243,886	107,109
173,808	-18,307	243,680	107,122
174,823	-18,347	243,599	107,044
175,837	-18,366	243,313	106,893
176,852	-18,633	243,142	106,589
177,867	-18,489	243,091	106,676
178,881	-18,628	242,870	106,455
179,896	-18,300	242,622	106,605
180,910	-18,636	242,550	106,289
181,925	-18,572	242,264	106,207
182,940	-18,484	242,038	106,170
183,954	-18,568	241,950	106,053
184,969	-18,292	241,802	106,204
185,983	-18,536	241,560	105,890
186,998	-18,340	241,347	105,947
188,013	-18,539	241,228	105,723
189,027	-18,438	241,143	105,759
190,042	-18,555	241,015	105,597
191,056	-18,589	240,782	105,458
192,071	-18,562	240,416	105,311
193,086	-18,503	240,414	105,349
194,100	-18,683	240,197	105,098
195,115	-18,532	240,066	105,154
196,129	-18,355	239,755	105,151
197,144	-18,342	239,474	105,029
198,159	-18,671	239,533	104,780
199,173	-18,511	239,201	104,754
200,188	-18,605	238,890	104,533
201,202	-18,433	238,852	104,645
202,217	-18,468	238,723	104,551
203,232	-18,499	238,524	104,431
204,246	-18,446	238,247	104,342
205,261	-18,603	238,142	104,161
206,275	-17,059	238,612	105,599
207,290	-12,404	240,181	110,047
208,304	-5,776	242,261	116,385
209,319	-2,163	243,125	119,733
210,334	-0,917	243,441	120,893
211,348	-0,128	243,652	121,629
212,363	0,077	243,585	121,752
213,377	0,367	243,478	121,923
214,392	0,640	243,460	122,126
215,407	0,759	243,485	122,224
216,421	1,030	243,212	122,296
217,436	1,066	242,978	122,197
218,450	1,007	242,879	122,088
219,465	1,101	242,906	122,168
220,480	1,083	242,679	122,028
221,494	0,988	242,565	121,882
222,509	0,567	242,257	121,376
223,523	0,567	242,024	121,249
224,538	0,555	241,854	121,143
225,553	0,570	241,530	120,983
226,567	0,454	241,390	120,808
227,582	0,481	241,344	120,796
228,596	0,431	241,229	120,687
229,611	0,518	241,034	120,649
230,626	0,596	240,891	120,629
231,640	0,425	240,609	120,340
232,655	0,371	240,573	120,268
233,669	0,430	240,490	120,264
234,684	0,311	240,101	119,963
235,699	0,384	240,111	120,015
236,713	0,463	240,024	120,024
237,728	0,573	239,867	120,023
238,742	0,581	239,561	119,866
239,757	0,597	239,422	119,798
240,772	0,435	239,273	119,584
241,786	0,571	239,119	119,605
242,801	0,207	238,868	119,178
243,815	0,429	238,852	119,337
244,830	0,396	238,780	119,264
245,844	0,263	238,559	119,037
246,859	0,444	238,313	119,047
247,874	0,572	238,160	119,062
248,888	0,566	237,997	118,965
249,903	0,238	237,935	118,664
250,917	0,413	237,667	118,658
251,932	0,752	237,540	118,852
252,947	0,478	237,326	118,518
253,961	0,610	237,304	118,601
254,976	0,518	237,092	118,411
255,990	0,630	236,948	118,417
257,005	0,535	236,870	118,292
258,020	0,713	236,633	118,304
259,034	0,655	236,474	118,168
260,049	0,596	236,421	118,085
261,063	0,593	236,105	117,914
262,078	0,490	235,952	117,746
263,093	0,405	235,888	117,637
264,107	0,500	235,687	117,601
265,122	0,590	235,476	117,555
266,136	0,530	235,381	117,451
267,151	0,557	235,209	117,375
268,166	0,501	235,032	117,233
269,180	0,599	234,820	117,194
270,195	0,401	234,717	116,977
271,209	0,530	234,542	116,980
272,224	0,425	234,639	116,936
273,239	0,490	234,281	116,798
274,253	0,532	234,218	116,789
275,268	0,363	234,067	116,572
276,282	0,497	233,844	116,554
277,297	0,470	233,587	116,395
278,312	0,630	233,459	116,445
279,326	0,356	233,445	116,215
280,341	0,759	233,167	116,378
281,355	0,538	233,056	116,141
282,370	0,544	233,091	116,153
283,384	0,693	232,823	116,124
284,399	0,560	232,688	115,944
285,414	0,538	232,399	115,773
286,428	0,680	232,332	115,838
287,443	0,613	232,243	115,732
288,457	0,674	231,969	115,632
289,472	0,449	231,950	115,440
290,487	0,520	231,857	115,437
291,501	0,424	231,643	115,247
292,516	0,409	231,552	115,179
293,530	0,755	231,295	115,307
294,545	0,519	231,243	115,090
295,560	0,653	231,002	115,063
296,574	0,419	231,024	114,884
297,589	0,597	230,806	114,901
298,603	0,665	230,674	114,877
299,618	0,538	230,410	114,638
300,633	0,659	230,382	114,707
301,647	0,794	230,218	114,718
302,662	0,902	229,921	114,641
303,676	0,787	229,820	114,493
304,691	0,717	229,905	114,473
305,706	0,612	229,661	114,261
306,720	0,782	229,387	114,244
307,735	0,816	229,264	114,198
308,749	0,914	229,223	114,242
309,764	0,656	229,037	113,944
310,779	0,867	228,972	114,061
311,793	0,745	228,680	113,812
312,808	0,702	228,637	113,749
313,822	0,608	228,322	113,511
314,837	0,721	228,263	113,557
315,852	1,057	228,088	113,713
316,866	0,996	227,900	113,563
317,881	0,906	227,870	113,470
318,895	0,769	227,785	113,314
319,910	0,873	227,451	113,217
320,925	0,863	227,252	113,100
321,939	0,681	227,355	113,004
322,954	0,817	227,243	113,041
323,968	0,895	226,927	112,932
324,983	0,814	226,889	112,842
325,997	0,877	226,662	112,767
327,012	0,838	226,557	112,675
328,027	0,712	226,414	112,500
329,041	0,950	226,243	112,582
330,056	0,862	226,166	112,468
331,070	1,196	225,957	112,604
332,085	0,996	225,708	112,320
333,100	0,921	225,588	112,195
334,114	0,552	225,592	111,912
335,129	0,887	225,230	111,972
336,143	0,811	225,307	111,944
337,158	0,826	225,099	111,841
338,173	0,891	224,825	111,743
339,187	0,951	224,603	111,667
340,202	0,847	224,734	111,645
341,216	1,098	224,540	111,725
342,231	1,089	224,351	111,614
343,246	0,676	224,498	111,372
344,260	0,962	224,160	111,405
345,275	1,063	223,924	111,353
346,289	0,935	223,915	111,244
347,304	0,921	223,573	111,054
348,319	1,093	223,611	111,190
349,333	1,019	223,396	111,019
350,348	0,909	223,322	110,891
351,362	1,013	223,118	110,856
352,377	0,963	222,946	110,723
353,392	0,930	222,874	110,654
354,406	0,948	222,795	110,618
355,421	192,232	1311,652	1376,574
356,435	153,905	1444,133	1376,387
