DTS Sentinel unit serial number:	SN410029Multiplexer serial number:	ORYXHardware model number:	OX2-SRSoftware version number:	ORYX F/W v4,00 Oryx Data Collector v3.7.2.0data status	okinstallation	B5 Nyhavnadifferential loss correction	single-endedforward channel	channel 2reverse channel	N/Adate	2023/12/14time	10:52:13forward acquisition time	300,00reverse acquisition time	0,00gamma	499,1914k internal	0,3161k external	0,3161temperature offset calibration	1,0000default loss term (dB/km)	0,3820temperature slope calibration	1,0000multiplexer offset coefficient	1,0000multiplexer slope coefficient	1,0000fibre end	0,00T internal ref (°C)	7,10T ext. ref 1 (°C)	-8,11T ext. ref 2 (°C)	-8,19length (m)	temperature (°C)	Stokes	anti-Stokes-744,400	-200,000	0,054	0,179
-743,385	-32,370	-0,388	-0,159
-742,371	-57,869	0,061	0,019
-741,356	-92,438	-0,418	-0,086
-740,342	-96,432	0,173	0,033
-739,327	-56,952	-0,472	-0,153
-738,312	-141,079	0,147	0,011
-737,298	-28,575	-0,381	-0,161
-736,283	-164,697	0,167	0,005
-735,269	-20,740	-0,335	-0,151
-734,254	-44,781	0,281	0,103
-733,239	-45,271	-0,683	-0,248
-732,225	26,914	0,295	0,182
-731,210	800,000	-0,059	0,147
-730,196	-200,000	0,015	0,132
-729,181	107,275	0,037	0,032
-728,167	-126,200	0,095	0,010
-727,152	-7,539	-0,073	0,036
-726,137	-150,593	-0,107	-0,006
-725,123	248,694	-0,106	-0,132
-724,108	-137,157	-0,121	0,010
-723,094	138,745	-0,042	-0,040
-722,079	37,040	-0,058	-0,038
-721,064	-200,000	-0,010	0,082
-720,050	335,980	0,057	-0,082
-719,035	-200,000	0,029	0,105
-718,021	121,309	-0,096	0,088
-717,006	-13,400	-0,176	-0,084
-715,991	8,997	-0,118	-0,065
-714,977	-50,231	0,082	-0,028
-713,962	800,000	-0,046	-0,102
-712,948	771,999	-0,103	0,208
-711,933	800,000	0,045	-0,106
-710,918	10,917	-0,194	0,109
-709,904	677,951	0,012	0,023
-708,889	-200,000	0,002	0,068
-707,875	102,595	-0,069	-0,060
-706,860	800,000	0,042	0,128
-705,845	-155,054	-0,168	-0,008
-704,831	-81,549	0,074	0,018
-703,816	-200,000	0,002	-0,007
-702,802	151,717	-0,103	0,103
-701,787	31,375	-0,020	0,012
-700,772	182,841	-0,042	0,046
-699,758	-200,000	-0,009	0,034
-698,743	-200,000	0,022	0,083
-697,729	690,420	0,037	0,072
-696,714	161,708	0,096	0,099
-695,699	-37,072	-0,063	0,025
-694,685	524,153	-0,050	-0,086
-693,670	-23,250	-0,136	0,060
-692,656	-200,000	-0,021	0,092
-691,641	-100,169	-0,028	-0,005
-690,627	800,000	0,021	0,043
-689,612	93,164	0,099	0,082
-688,597	29,404	0,022	0,014
-687,583	252,821	-0,040	0,051
-686,568	120,421	-0,105	-0,096
-685,554	365,853	0,066	-0,097
-684,539	-70,780	0,050	-0,014
-683,524	10,484	-0,032	0,018
-682,510	-28,315	0,119	0,050
-681,495	111,352	0,063	-0,056
-680,481	-200,000	-0,025	-0,111
-679,466	-200,000	-0,018	-0,059
-678,451	9,325	-0,136	-0,075
-677,437	-200,000	-0,004	-0,027
-676,422	130,273	0,173	0,163
-675,408	169,067	-0,070	0,074
-674,393	-200,000	-0,004	0,108
-673,378	59,610	0,094	-0,068
-672,364	800,000	-0,035	-0,078
-671,349	-200,000	-0,036	-0,137
-670,335	380,274	0,052	-0,078
-669,320	91,869	-0,063	-0,052
-668,305	-200,000	-0,012	-0,084
-667,291	-12,462	0,037	-0,018
-666,276	-200,000	-0,034	-0,115
-665,262	-200,000	-0,029	-0,104
-664,247	64,896	0,032	-0,024
-663,232	113,863	0,088	0,078
-662,218	656,227	0,022	0,042
-661,203	800,000	0,040	0,106
-660,189	244,232	-0,038	0,047
-659,174	-86,837	0,080	0,018
-658,159	148,799	-0,119	-0,118
-657,145	-66,616	-0,057	-0,017
-656,130	-78,290	0,088	0,022
-655,116	185,871	-0,044	0,048
-654,101	-144,907	-0,131	0,009
-653,086	612,130	-0,059	-0,109
-652,072	191,656	-0,091	-0,101
-651,057	210,464	-0,062	-0,071
-650,043	-7,572	0,079	-0,039
-649,028	-136,458	-0,012	0,001
-648,014	191,567	0,069	0,076
-646,999	-3,290	0,049	-0,025
-645,984	93,747	0,065	0,054
-644,970	370,325	0,031	0,046
-643,955	-165,256	-0,052	0,002
-642,941	191,545	-0,083	0,092
-641,926	308,782	-0,037	-0,051
-640,911	800,000	-0,019	0,048
-639,897	102,274	0,033	0,029
-638,882	302,595	0,061	-0,083
-637,868	-171,299	-0,019	0,000
-636,853	-200,000	0,004	-0,047
-635,838	205,275	-0,140	0,160
-634,824	-48,018	0,094	0,033
-633,809	689,938	0,078	0,151
-632,795	-200,000	0,028	0,111
-631,780	-66,589	-0,075	-0,022
-630,765	613,110	0,051	-0,093
-629,751	-10,404	-0,035	0,017
-628,736	-149,377	-0,123	0,007
-627,722	-108,706	0,038	0,006
-626,707	-85,866	-0,051	-0,012
-625,692	-200,000	0,018	0,147
-624,678	-200,000	0,014	-0,064
-623,663	-200,000	-0,020	0,093
-622,649	246,505	0,062	0,077
-621,634	88,586	-0,063	-0,051
-620,619	-14,122	-0,020	0,009
-619,605	-128,161	0,107	-0,011
-618,590	68,432	-0,056	0,042
-617,576	-200,000	-0,009	-0,067
-616,561	374,164	-0,010	0,014
-615,546	238,554	-0,046	0,057
-614,532	301,016	-0,097	-0,131
-613,517	800,000	0,034	0,107
-612,503	-200,000	0,001	0,025
-611,488	-29,559	0,010	-0,004
-610,474	-85,642	0,149	-0,034
-609,459	13,103	0,180	0,102
-608,444	631,391	-0,102	-0,190
-607,430	370,736	-0,028	0,041
-606,415	207,499	-0,035	-0,040
-605,401	-200,000	-0,028	-0,160
-604,386	249,291	-0,090	-0,112
-603,371	121,291	-0,051	0,046
-602,357	800,000	0,042	0,089
-601,342	-150,430	-0,026	0,001
-600,328	52,388	0,100	-0,070
-599,313	384,424	-0,051	0,077
-598,298	72,936	-0,036	-0,028
-597,284	-200,000	-0,041	0,217
-596,269	-76,813	0,092	-0,023
-595,255	-100,846	-0,111	-0,020
-594,240	-27,187	0,013	0,005
-593,225	251,998	-0,036	-0,046
-592,211	800,000	-0,032	-0,073
-591,196	800,000	0,051	0,113
-590,182	177,974	-0,019	-0,020
-589,167	-40,351	0,124	-0,047
-588,152	-114,861	0,156	0,022
-587,138	228,455	0,062	0,075
-586,123	-35,961	-0,086	0,034
-585,109	-76,674	-0,099	0,025
-584,094	800,000	0,021	-0,051
-583,079	460,048	0,020	-0,033
-582,065	67,631	-0,095	0,071
-581,050	28,544	-0,028	-0,018
-580,036	-38,338	-0,136	-0,052
-579,021	-200,000	0,014	-0,051
-578,006	-178,131	-0,106	-0,002
-576,992	-88,484	0,083	0,018
-575,977	231,653	0,051	0,062
-574,963	800,000	-0,019	0,041
-573,948	25,083	-0,028	0,017
-572,934	204,597	-0,046	-0,052
-571,919	151,125	0,033	0,032
-570,904	201,434	-0,044	0,050
-569,890	-136,533	0,032	-0,003
-568,875	22,246	-0,020	-0,012
-567,861	-200,000	0,024	0,101
-566,846	-200,000	-0,001	0,134
-565,831	-137,649	0,041	-0,003
-564,817	54,967	-0,059	-0,042
-563,802	800,000	-0,015	-0,033
-562,788	-141,713	-0,139	0,010
-561,773	-131,241	0,147	-0,014
-560,758	-200,000	0,004	0,095
-559,744	-84,250	0,108	-0,025
-558,729	-200,000	0,033	0,108
-557,715	800,000	-0,021	0,058
-556,700	11,163	-0,065	0,036
-555,685	-10,106	-0,070	0,034
-554,671	34,965	0,211	0,135
-553,656	-200,000	-0,011	0,069
-552,642	-200,000	0,011	-0,052
-551,627	272,583	0,055	0,071
-550,612	159,233	-0,033	-0,033
-549,598	178,753	-0,040	0,043
-548,583	632,828	0,086	-0,160
-547,569	800,000	0,023	-0,067
-546,554	327,280	0,035	-0,050
-545,539	800,000	0,014	-0,041
-544,525	800,000	0,077	-0,158
-543,510	-27,232	-0,068	-0,029
-542,496	800,000	-0,047	-0,151
-541,481	-200,000	0,021	-0,110
-540,466	800,000	0,029	-0,087
-539,452	-117,066	0,089	-0,012
-538,437	-200,000	-0,004	-0,034
-537,423	-200,000	-0,005	-0,025
-536,408	800,000	-0,050	-0,135
-535,393	-200,000	-0,020	0,068
-534,379	394,595	0,022	-0,034
-533,364	376,039	0,004	-0,007
-532,350	162,440	0,109	0,112
-531,335	230,611	0,045	0,054
-530,321	-200,000	0,026	0,246
-529,306	497,616	0,064	0,108
-528,291	-120,054	-0,097	-0,012
-527,277	-129,181	-0,110	0,011
-526,262	57,532	-0,096	-0,068
-525,248	-115,881	0,145	-0,020
-524,233	-136,284	-0,063	0,005
-523,218	-200,000	-0,005	0,059
-522,204	762,797	-0,041	-0,081
-521,189	-55,257	-0,073	-0,024
-520,175	-13,148	-0,050	0,023
-519,160	-200,000	-0,007	-0,089
-518,145	250,897	0,077	0,096
-517,131	41,249	0,079	-0,052
-516,116	-200,000	0,031	0,121
-515,102	-105,730	-0,138	-0,023
-514,087	-129,602	0,083	-0,008
-513,072	-78,809	-0,180	-0,044
-512,058	-110,948	-0,283	-0,042
-511,043	-200,000	-0,011	0,047
-510,029	163,774	0,057	0,058
-509,014	-200,000	0,000	0,033
-507,999	269,804	0,079	0,102
-506,985	92,820	0,087	0,072
-505,970	-200,000	0,018	-0,095
-504,956	-200,000	-0,028	-0,094
-503,941	-149,789	0,046	-0,003
-502,926	-55,536	-0,010	0,003
-501,912	800,000	-0,032	-0,065
-500,897	-200,000	-0,017	-0,057
-499,883	181,370	0,091	-0,097
-498,868	-33,944	0,018	0,007
-497,853	-11,476	-0,111	0,053
-496,839	-28,517	0,088	-0,037
-495,824	800,000	0,037	-0,111
-494,810	445,191	-0,024	0,038
-493,795	69,102	0,035	-0,026
-492,781	-200,000	-0,006	0,117
-491,766	-200,000	0,003	-0,028
-490,751	-200,000	0,012	-0,049
-489,737	-200,000	-0,012	0,063
-488,722	-24,849	0,080	0,034
-487,708	349,292	0,030	0,043
-486,693	-200,000	0,018	0,123
-485,678	-200,000	0,018	0,064
-484,664	199,012	-0,033	-0,037
-483,649	-131,345	0,145	-0,014
-482,635	15,108	-0,029	0,016
-481,620	-1,793	0,037	0,019
-480,605	31,509	0,047	0,029
-479,591	-158,539	-0,044	-0,002
-478,576	800,000	-0,061	-0,130
-477,562	39,988	-0,048	0,031
-476,547	395,310	0,056	0,085
-475,532	587,948	-0,074	0,133
-474,518	387,820	0,078	-0,118
-473,503	-79,909	0,088	0,021
-472,489	-33,737	-0,074	0,030
-471,474	374,522	0,023	-0,035
-470,459	-84,372	-0,134	0,031
-469,445	203,456	0,032	0,037
-468,430	272,414	0,034	-0,044
-467,416	-122,281	0,141	-0,017
-466,401	-200,000	-0,005	0,047
-465,386	84,714	0,048	-0,039
-464,372	800,000	0,045	0,137
-463,357	-6,577	-0,048	-0,024
-462,343	800,000	0,045	-0,100
-461,328	-200,000	-0,012	-0,142
-460,313	510,207	0,048	-0,081
-459,299	-200,000	-0,000	-0,006
-458,284	220,542	-0,043	0,050
-457,270	-126,811	-0,131	-0,014
-456,255	283,471	-0,033	-0,043
-455,241	-200,000	-0,015	-0,058
-454,226	-200,000	-0,011	0,044
-453,211	-200,000	0,007	0,133
-452,197	178,454	0,077	0,082
-451,182	-200,000	0,010	0,088
-450,168	-69,448	-0,079	0,022
-449,153	122,801	-0,174	-0,158
-448,138	-200,000	0,034	-0,219
-447,124	-16,839	-0,137	0,063
-446,109	46,111	-0,079	-0,053
-445,095	518,262	0,044	0,076
-444,080	-200,000	0,035	0,165
-443,065	-31,839	-0,095	-0,039
-442,051	-200,000	0,009	0,042
-441,036	-200,000	-0,006	-0,130
-440,022	543,881	-0,018	0,031
-439,007	137,913	0,098	-0,094
-437,992	-200,000	-0,013	0,123
-436,978	-200,000	-0,000	0,134
-435,963	155,412	0,035	0,035
-434,949	445,437	-0,062	-0,099
-433,934	135,122	0,094	0,089
-432,919	24,309	0,094	-0,056
-431,905	9,780	-0,091	-0,050
-430,890	-2,694	-0,089	-0,045
-429,876	800,000	0,026	0,080
-428,861	-200,000	-0,024	0,137
-427,846	513,247	-0,065	0,110
-426,832	7,714	0,045	0,024
-425,817	-200,000	-0,036	-0,145
-424,803	722,759	-0,014	-0,028
-423,788	345,297	0,087	0,124
-422,773	271,827	0,067	0,087
-421,759	-200,000	-0,008	-0,041
-420,744	221,946	-0,070	0,082
-419,730	-200,000	-0,010	-0,145
-418,715	-71,449	-0,039	-0,011
-417,701	800,000	-0,031	0,074
-416,686	91,627	-0,080	0,066
-415,671	62,163	0,102	0,074
-414,657	588,164	0,072	0,129
-413,642	-4,565	0,078	-0,039
-412,628	257,873	-0,051	-0,064
-411,613	800,000	0,015	-0,031
-410,598	-200,000	0,019	-0,120
-409,584	-159,476	-0,039	0,002
-408,569	164,584	0,135	0,139
-407,555	-200,000	-0,006	0,038
-406,540	-200,000	-0,019	-0,162
-405,525	-144,468	-0,105	-0,007
-404,511	43,439	-0,120	-0,080
-403,496	117,236	-0,103	-0,092
-402,482	1,347	-0,050	-0,026
-401,467	-200,000	0,019	0,065
-400,452	461,886	-0,071	0,115
-399,438	-200,000	-0,007	-0,033
-398,423	153,579	0,089	0,089
-397,409	300,171	-0,077	0,104
-396,394	113,119	0,100	-0,088
-395,379	800,000	-0,026	0,062
-394,365	-27,065	-0,124	0,052
-393,350	50,548	0,061	0,042
-392,336	51,839	-0,040	0,028
-391,321	15,549	-0,051	-0,029
-390,306	67,311	0,118	-0,087
-389,292	-200,000	0,000	0,035
-388,277	24,054	0,026	0,015
-387,263	183,147	-0,112	0,121
-386,248	220,439	-0,047	0,055
-385,233	413,057	-0,056	0,087
-384,219	-200,000	0,042	0,150
-383,204	329,223	0,072	-0,100
-382,190	184,554	-0,052	-0,056
-381,175	60,647	0,104	0,075
-380,160	800,000	-0,053	0,122
-379,146	800,000	-0,012	-0,027
-378,131	-200,000	-0,006	0,068
-377,117	162,944	0,062	0,063
-376,102	232,088	0,043	-0,051
-375,088	209,096	-0,044	-0,050
-374,073	83,152	0,029	-0,023
-373,058	800,000	0,050	0,117
-372,044	52,223	0,119	0,082
-371,029	130,553	0,056	0,053
-370,015	-200,000	0,010	-0,034
-369,000	800,000	0,036	0,096
-367,985	121,548	0,129	-0,117
-366,971	-200,000	-0,034	-0,130
-365,956	2,342	-0,067	0,035
-364,942	-116,612	0,186	0,025
-363,927	800,000	0,036	0,075
-362,912	-70,096	0,084	0,023
-361,898	-200,000	0,004	-0,060
-360,883	429,391	-0,089	-0,139
-359,869	-200,000	0,008	0,069
-358,854	51,218	0,012	-0,008
-357,839	-24,869	-0,038	-0,016
-356,825	-20,555	-0,109	0,048
-355,810	62,263	0,073	0,053
-354,796	472,579	-0,048	-0,078
-353,781	288,473	-0,032	-0,042
-352,766	-35,139	-0,086	-0,034
-351,752	-44,570	0,133	0,048
-350,737	-46,896	0,022	0,008
-349,723	391,129	-0,009	0,014
-348,708	800,000	-0,021	-0,053
-347,693	60,978	-0,092	0,066
-346,679	702,264	0,022	-0,042
-345,664	-153,503	-0,150	-0,007
-344,650	4,476	-0,031	0,016
-343,635	800,000	-0,043	-0,104
-342,620	165,319	-0,073	-0,075
-341,606	213,241	0,009	0,011
-340,591	-200,000	0,004	-0,077
-339,577	480,946	0,063	-0,104
-338,562	-200,000	0,018	-0,072
-337,548	75,992	0,078	-0,060
-336,533	800,000	-0,004	-0,013
-335,518	-135,382	0,069	0,006
-334,504	-200,000	-0,020	0,154
-333,489	-200,000	0,004	-0,064
-332,475	-84,546	-0,174	-0,039
-331,460	223,156	-0,024	-0,028
-330,445	-20,406	-0,085	-0,038
-329,431	-36,147	0,039	0,015
-328,416	-87,893	-0,098	-0,021
-327,402	-171,935	-0,038	0,001
-326,387	347,131	0,027	-0,038
-325,372	-85,905	-0,056	-0,013
-324,358	-44,476	-0,054	0,019
-323,343	-200,000	0,002	0,007
-322,329	-20,141	0,086	-0,038
-321,314	19,109	0,124	0,072
-320,299	-200,000	0,000	-0,096
-319,285	78,139	0,050	0,039
-318,270	88,524	0,067	-0,054
-317,256	800,000	0,023	-0,064
-316,241	312,779	0,010	0,014
-315,226	647,662	-0,057	-0,106
-314,212	-74,082	0,156	0,041
-313,197	-200,000	0,033	0,115
-312,183	133,699	-0,115	-0,108
-311,168	-200,000	-0,017	0,070
-310,153	-200,000	-0,011	0,043
-309,139	-115,803	-0,092	0,012
-308,124	145,610	0,045	0,044
-307,110	76,547	0,069	-0,053
-306,095	16,429	-0,085	-0,049
-305,080	-62,094	0,061	0,018
-304,066	-200,000	0,001	-0,028
-303,051	-82,565	-0,155	-0,036
-302,037	-200,000	-0,019	-0,085
-301,022	-115,477	0,113	-0,015
-300,008	12,041	0,074	-0,041
-298,993	106,026	0,146	0,125
-297,978	-69,288	0,024	-0,007
-296,964	-72,654	0,096	-0,026
-295,949	-105,972	-0,065	0,011
-294,935	40,078	-0,057	0,037
-293,920	-200,000	0,013	-0,110
-292,905	800,000	-0,010	0,026
-291,891	-200,000	0,016	0,079
-290,876	800,000	0,012	-0,034
-289,862	95,233	-0,042	-0,034
-288,847	562,570	-0,095	-0,167
-287,832	-77,744	0,081	0,020
-286,818	50,705	0,057	-0,039
-285,803	347,445	-0,004	0,005
-284,789	85,035	0,089	0,070
-283,774	-200,000	-0,022	0,082
-282,759	242,722	-0,025	0,030
-281,745	98,202	-0,079	-0,066
-280,730	322,838	-0,024	-0,033
-279,716	800,000	0,010	0,028
-278,701	-53,545	0,080	0,026
-277,686	239,867	-0,032	0,038
-276,672	105,134	0,022	0,019
-275,657	78,682	-0,087	-0,067
-274,643	44,125	-0,121	0,080
-273,628	-81,851	0,125	-0,029
-272,613	-200,000	-0,019	0,160
-271,599	209,680	0,091	0,103
-270,584	-83,420	0,072	0,017
-269,570	136,275	-0,078	0,074
-268,555	-200,000	-0,041	0,136
-267,540	-16,058	0,064	0,029
-266,526	-15,562	0,064	-0,029
-265,511	-200,000	0,009	-0,072
-264,497	-4,419	0,053	-0,026
-263,482	-200,000	0,009	-0,032
-262,467	-53,880	0,080	0,026
-261,453	-200,000	0,007	-0,062
-260,438	800,000	0,067	-0,135
-259,424	-67,506	-0,142	-0,040
-258,409	339,974	0,041	-0,057
-257,395	135,903	-0,059	0,056
-256,380	19,885	-0,102	-0,059
-255,365	-200,000	-0,005	-0,102
-254,351	-55,807	0,105	-0,034
-253,336	-120,353	0,102	-0,012
-252,322	-7,768	-0,098	-0,048
-251,307	440,279	0,034	-0,054
-250,292	276,165	-0,053	-0,068
-249,278	3,943	0,115	0,060
-248,263	398,393	0,035	0,053
-247,249	-200,000	0,007	-0,075
-246,234	-200,000	0,011	-0,079
-245,219	98,858	0,112	0,093
-244,205	-32,498	-0,151	-0,061
-243,190	508,662	-0,020	0,034
-242,176	-73,112	0,072	0,019
-241,161	29,303	0,077	-0,047
-240,146	116,155	0,066	-0,058
-239,132	21,234	-0,103	0,060
-238,117	6,011	-0,125	0,066
-237,103	145,787	-0,082	0,080
-236,088	-200,000	-0,004	-0,092
-235,073	-134,102	0,203	-0,018
-234,059	-200,000	-0,017	0,068
-233,044	-200,000	0,030	-0,107
-232,030	800,000	0,040	-0,108
-231,015	-87,496	-0,048	-0,010
-230,000	-41,568	0,124	-0,046
-228,986	288,226	-0,032	-0,042
-227,971	800,000	-0,036	0,084
-226,957	98,088	-0,070	-0,058
-225,942	-46,014	0,049	0,017
-224,927	167,620	-0,124	0,128
-223,913	225,909	-0,114	-0,134
-222,898	-123,221	0,115	0,013
-221,884	164,560	-0,056	0,057
-220,869	186,802	0,058	0,062
-219,855	-47,443	-0,009	-0,003
-218,840	254,279	0,107	0,133
-217,825	786,921	0,053	-0,105
-216,811	800,000	-0,047	-0,107
-215,796	595,705	0,044	-0,079
-214,782	-52,217	-0,114	0,038
-213,767	293,863	-0,054	-0,071
-212,752	800,000	0,047	0,107
-211,738	-200,000	0,080	0,000
-210,723	-200,000	0,002	-0,071
-209,709	-200,000	-0,034	-0,191
-208,694	-6,198	-0,149	-0,073
-207,679	584,741	-0,065	-0,115
-206,665	-200,000	-0,022	0,103
-205,650	-58,975	-0,088	-0,027
-204,636	-200,000	-0,005	0,041
-203,621	305,768	-0,043	-0,058
-202,606	-24,292	0,085	0,036
-201,592	800,000	0,065	-0,174
-200,577	800,000	-0,065	-0,144
-199,563	76,404	-0,058	-0,044
-198,548	470,045	0,049	-0,080
-197,533	27,401	0,048	-0,029
-196,519	468,108	0,042	-0,069
-195,504	800,000	-0,039	-0,106
-194,490	132,675	0,025	-0,023
-193,475	-164,821	-0,035	0,001
-192,460	-200,000	-0,002	-0,013
-191,446	-56,940	0,057	0,018
-190,431	-73,407	0,096	0,025
-189,417	-87,764	-0,055	0,012
-188,402	-84,922	0,096	0,022
-187,387	800,000	-0,038	0,095
-186,373	334,966	0,023	-0,033
-185,358	710,065	-0,044	-0,083
-184,344	-200,000	-0,016	0,142
-183,329	-148,365	-0,078	0,005
-182,315	800,000	0,025	0,077
-181,300	351,627	0,037	-0,054
-180,285	-200,000	-0,079	0,000
-179,271	125,563	-0,068	-0,062
-178,256	800,000	0,020	-0,045
-177,242	800,000	0,030	0,077
-176,227	-7,372	0,027	0,013
-175,212	560,886	0,047	-0,082
-174,198	-33,502	-0,077	-0,031
-173,183	326,013	-0,065	0,090
-172,169	439,853	0,051	-0,080
-171,154	169,996	-0,106	-0,109
-170,139	-35,188	0,012	0,005
-169,125	313,976	-0,036	0,049
-168,110	-200,000	0,009	-0,071
-167,096	800,000	0,010	0,023
-166,081	-44,467	-0,091	-0,033
-165,066	800,000	-0,073	0,154
-164,052	-89,531	0,115	-0,024
-163,037	296,213	-0,036	0,048
-162,023	-200,000	-0,005	0,071
-161,008	79,212	0,130	-0,100
-159,993	542,492	-0,031	0,054
-158,979	-72,588	-0,013	-0,003
-157,964	-125,961	-0,063	-0,007
-156,950	-58,296	-0,064	0,020
-155,935	-200,000	-0,028	0,130
-154,920	-17,321	0,202	-0,091
-153,906	128,780	0,034	-0,031
-152,891	120,596	0,004	0,004
-151,877	443,879	0,075	-0,119
-150,862	-200,000	0,005	-0,024
-149,847	-22,226	0,081	-0,035
-148,833	-137,523	0,053	0,004
-147,818	800,000	0,055	0,147
-146,804	-8,647	0,035	0,017
-145,789	-29,872	0,049	0,020
-144,775	79,771	0,076	0,059
-143,760	-200,000	-0,007	-0,036
-142,745	57,070	-0,082	-0,058
-141,731	800,000	0,057	0,114
-140,716	-53,674	0,071	-0,023
-139,702	58,596	0,166	0,117
-138,687	-37,789	-0,160	-0,061
-137,672	-200,000	-0,011	-0,116
-136,658	191,081	-0,093	0,100
-135,643	-83,498	-0,034	0,008
-134,629	201,657	-0,102	0,113
-133,614	-200,000	0,004	-0,035
-132,599	-2,966	-0,097	0,049
-131,585	147,780	0,115	-0,111
-130,570	800,000	-0,105	-0,210
-129,556	800,000	0,029	-0,083
-128,541	-3,334	-0,123	-0,061
-127,526	800,000	0,045	0,114
-126,512	-200,000	0,019	-0,088
-125,497	-108,997	0,127	-0,019
-124,483	195,829	0,105	-0,115
-123,468	132,397	-0,038	-0,035
-122,453	-23,045	-0,050	0,021
-121,439	-101,988	-0,105	0,018
-120,424	-200,000	-0,003	-0,025
-119,410	-121,534	0,089	0,011
-118,395	506,128	-0,067	-0,112
-117,380	158,950	-0,019	0,019
-116,366	35,802	-0,147	0,093
-115,351	-17,636	-0,019	0,009
-114,337	59,902	-0,028	-0,020
-113,322	-200,000	0,030	0,112
-112,307	-77,470	-0,136	0,034
-111,293	451,575	0,105	0,167
-110,278	-162,138	0,095	0,003
-109,264	-200,000	-0,001	0,104
-108,249	473,170	0,035	0,057
-107,234	-200,000	0,009	-0,040
-106,220	800,000	-0,040	0,082
-105,205	48,881	0,038	-0,025
-104,191	683,174	0,067	0,125
-103,176	-89,444	-0,076	0,016
-102,162	-57,527	-0,049	-0,015
-101,147	-168,440	-0,147	-0,004
-100,132	12,868	-0,069	0,038
-99,118	12,989	-0,072	0,040
-98,103	11,768	-0,135	-0,074
-97,089	485,083	0,024	-0,040
-96,074	-115,802	0,060	-0,008
-95,059	-58,091	-0,145	0,045
-94,045	-28,899	-0,147	0,060
-93,030	-66,881	0,067	0,019
-92,016	-72,102	-0,078	0,021
-91,001	800,000	-0,020	-0,039
-89,986	-54,744	0,027	-0,009
-88,972	414,085	-0,036	-0,055
-87,957	-200,000	0,007	0,027
-86,943	-200,000	-0,020	0,085
-85,928	-123,692	-0,063	0,007
-84,913	751,874	0,016	0,031
-83,899	800,000	0,049	0,138
-82,884	-200,000	-0,010	0,107
-81,870	-200,000	0,007	-0,097
-80,855	88,289	-0,065	0,052
-79,840	-200,000	-0,006	-0,089
-78,826	800,000	-0,035	-0,072
-77,811	116,485	0,052	-0,046
-76,797	-200,000	-0,007	-0,074
-75,782	-144,473	0,039	-0,003
-74,767	-200,000	0,023	0,160
-73,753	-200,000	0,013	0,059
-72,738	-120,852	0,070	0,008
-71,724	-200,000	-0,034	-0,112
-70,709	800,000	-0,026	-0,062
-69,694	-200,000	0,007	0,032
-68,680	431,791	-0,012	-0,018
-67,665	800,000	0,067	0,145
-66,651	-78,606	0,053	0,013
-65,636	-200,000	-0,026	-0,163
-64,622	57,825	-0,028	-0,020
-63,607	-200,000	0,025	-0,135
-62,592	-45,199	-0,072	-0,026
-61,578	216,897	-0,041	-0,047
-60,563	-200,000	-0,012	-0,083
-59,549	-200,000	0,076	0,251
-58,534	105,771	-2,650	-2,247
-57,519	-59,411	0,375	-0,115
-56,505	800,000	-1,776	-5,596
-55,490	450,742	1,300	2,066
-54,476	800,000	5,162	11,111
-53,461	-200,000	23,038	348,416
-52,446	800,000	765,407	2265,120
-51,432	497,512	1644,486	2723,555
-50,417	93,326	1601,252	1298,048
-49,403	61,171	1256,448	893,431
-48,388	21,216	1008,763	585,693
-47,373	18,512	976,204	557,925
-46,359	11,906	963,310	529,126
-45,344	7,752	960,055	513,835
-44,330	8,107	957,847	513,785
-43,315	7,240	955,978	509,957
-42,300	7,091	955,100	508,984
-41,286	7,090	954,017	508,386
-40,271	7,118	953,046	507,936
-39,257	7,160	952,222	507,614
-38,242	7,121	951,244	506,948
-37,227	7,120	950,444	506,495
-36,213	7,089	949,910	506,093
-35,198	7,145	948,755	505,637
-34,184	7,141	948,103	505,258
-33,169	7,101	947,151	504,602
-32,154	7,137	946,266	504,226
-31,140	7,180	945,455	503,912
-30,125	7,180	944,759	503,518
-29,111	7,156	943,845	502,936
-28,096	7,222	943,231	502,799
-27,082	7,114	942,649	502,125
-26,067	7,132	941,954	501,793
-25,052	7,128	941,065	501,285
-24,038	7,090	940,370	500,773
-23,023	7,098	939,762	500,457
-22,009	7,162	939,086	500,281
-20,994	7,172	938,455	499,956
-19,979	7,148	937,998	499,615
-18,965	7,042	937,270	498,873
-17,950	7,102	936,890	498,841
-16,936	7,104	936,111	498,413
-15,921	7,085	935,372	497,939
-14,906	7,027	934,766	497,413
-13,892	7,023	934,151	497,053
-12,877	6,990	933,670	496,674
-11,863	7,038	932,900	496,395
-10,848	6,991	932,269	495,893
-9,833	7,157	931,923	496,210
-8,819	7,030	931,389	495,507
-7,804	6,975	930,669	494,933
-6,790	7,056	929,944	494,782
-5,775	7,124	929,322	494,643
-4,760	7,019	929,085	494,168
-3,746	7,032	928,341	493,794
-2,731	6,899	927,574	492,949
-1,717	6,916	926,994	492,675
-0,702	6,938	926,196	492,300
0,313	6,720	925,733	492,113
1,327	10,145	923,177	501,407
2,342	18,686	772,231	441,582
3,356	14,280	443,625	247,089
4,371	-10,839	310,532	146,447
5,386	-14,521	293,301	134,610
6,400	-16,572	287,154	129,760
7,415	-17,365	284,292	127,683
8,429	-18,298	282,576	125,997
9,444	-18,317	281,495	125,486
10,459	-18,263	280,752	125,195
11,473	-18,377	280,224	124,839
12,488	-18,278	279,786	124,728
13,502	-18,457	279,326	124,341
14,517	-18,432	278,766	124,104
15,531	-18,679	278,357	123,675
16,546	-18,570	277,863	123,548
17,561	-18,687	277,417	123,228
18,575	-18,434	277,269	123,392
19,590	-18,636	276,720	122,945
20,604	-18,714	276,630	122,821
21,619	-18,850	276,214	122,496
22,634	-18,658	275,756	122,464
23,648	-18,739	275,426	122,229
24,663	-18,759	275,188	122,094
25,677	-18,612	274,947	122,115
26,692	-18,884	274,859	121,809
27,707	-18,706	274,324	121,728
28,721	-18,570	274,039	121,718
29,736	-18,753	273,851	121,452
30,750	-18,745	273,631	121,351
31,765	-18,673	273,340	121,279
32,780	-18,961	273,214	120,943
33,794	-18,707	272,912	121,035
34,809	-18,614	272,595	120,970
35,823	-18,585	272,311	120,861
36,838	-18,683	272,204	120,711
37,853	-18,733	271,798	120,474
38,867	-18,636	271,556	120,446
39,882	-18,748	271,445	120,283
40,896	-18,724	271,202	120,186
41,911	-18,683	270,733	120,006
42,926	-18,715	270,663	119,934
43,940	-18,656	270,341	119,836
44,955	-18,645	270,147	119,749
45,969	-18,708	269,935	119,587
46,984	-18,648	269,644	119,501
47,999	-18,610	269,634	119,522
49,013	-18,343	269,383	119,645
50,028	-18,730	269,105	119,156
51,042	-18,684	268,844	119,071
52,057	-18,570	268,595	119,055
53,071	-18,466	268,425	119,065
54,086	-18,514	268,095	118,863
55,101	-18,765	268,120	118,635
56,115	-18,457	267,540	118,649
57,130	-18,556	267,603	118,575
58,144	-18,551	267,111	118,352
59,159	-18,627	266,974	118,211
60,174	-18,485	266,765	118,237
61,188	-18,605	266,490	117,995
62,203	-18,577	266,253	117,906
63,217	-18,583	266,022	117,787
64,232	-18,460	265,859	117,817
65,247	-18,550	265,649	117,631
66,261	-18,520	265,312	117,499
67,276	-18,605	265,173	117,349
68,290	-18,584	264,796	117,191
69,305	-18,535	264,789	117,222
70,320	-18,630	264,548	117,019
71,334	-18,605	264,218	116,885
72,349	-18,485	263,917	116,850
73,363	-18,592	263,959	116,762
74,378	-18,700	263,551	116,474
75,393	-18,639	263,465	116,480
76,407	-18,440	263,042	116,461
77,422	-18,569	263,004	116,319
78,436	-18,479	262,606	116,212
79,451	-18,420	262,419	116,172
80,466	-18,569	262,055	115,867
81,480	-18,470	261,992	115,917
82,495	-18,583	261,726	115,688
83,509	-18,481	261,622	115,724
84,524	-18,590	261,404	115,520
85,539	-18,571	261,156	115,417
86,553	-18,717	260,888	115,158
87,568	-18,450	260,546	115,234
88,582	-18,476	260,425	115,148
89,597	-18,469	260,344	115,107
90,611	-18,444	260,114	115,018
91,626	-18,515	259,960	114,876
92,641	-18,569	259,641	114,678
93,655	-18,586	259,381	114,537
94,670	-18,538	259,141	114,464
95,684	-18,650	258,999	114,292
96,699	-18,525	258,983	114,384
97,714	-18,542	258,595	114,188
98,728	-18,479	258,523	114,201
99,743	-18,526	258,453	114,119
100,757	-18,367	258,047	114,069
101,772	-18,379	257,869	113,970
102,787	-18,435	257,650	113,813
103,801	-18,450	257,359	113,662
104,816	-18,374	257,183	113,641
105,830	-18,472	257,206	113,555
106,845	-18,261	256,852	113,573
107,860	-18,439	256,720	113,349
108,874	-18,509	256,360	113,119
109,889	-18,464	256,238	113,094
110,903	-18,388	255,964	113,030
111,918	-18,438	255,925	112,959
112,933	-18,187	255,610	113,027
113,947	-18,263	255,433	112,873
114,962	-18,341	255,195	112,690
115,976	-18,376	254,940	112,537
116,991	-18,671	254,969	112,284
118,006	-18,504	254,818	112,353
119,020	-18,298	254,519	112,388
120,035	-18,449	254,395	112,193
121,049	-18,608	254,249	111,982
122,064	-18,439	254,027	112,020
123,079	-18,550	253,829	111,827
124,093	-18,603	253,478	111,617
125,108	-18,283	253,192	111,755
126,122	-18,569	253,141	111,477
127,137	-18,533	252,796	111,346
128,151	-18,371	252,724	111,443
129,166	-18,458	252,523	111,271
130,181	-18,327	252,312	111,280
131,195	-18,410	251,975	111,050
132,210	-18,394	251,988	111,060
133,224	-18,433	251,924	110,989
134,239	-18,477	251,594	110,796
135,254	-18,248	251,383	110,888
136,268	-18,323	251,156	110,714
137,283	-18,323	250,882	110,584
138,297	-18,472	250,827	110,423
139,312	-18,314	250,410	110,364
140,327	-18,422	250,455	110,281
141,341	-18,323	250,114	110,206
142,356	-18,193	250,002	110,257
143,370	-18,485	249,870	109,942
144,385	-18,203	249,630	110,065
145,400	-18,233	249,422	109,937
146,414	-18,614	249,235	109,524
147,429	-18,581	249,092	109,479
148,443	-18,519	248,912	109,443
149,458	-18,345	248,800	109,529
150,473	-18,482	248,554	109,297
151,487	-18,411	248,411	109,284
152,502	-18,308	248,107	109,227
153,516	-18,261	247,860	109,147
154,531	-18,363	247,678	108,973
155,546	-18,492	247,530	108,789
156,560	-18,245	247,340	108,903
157,575	-18,253	247,193	108,822
158,589	-18,241	247,033	108,751
159,604	-18,260	246,855	108,648
160,619	-18,395	246,584	108,406
161,633	-18,394	246,196	108,227
162,648	-18,492	246,215	108,144
163,662	-18,479	246,082	108,087
164,677	-18,185	245,960	108,267
165,692	-18,361	245,892	108,082
166,706	-18,354	245,639	107,967
167,721	-18,347	245,527	107,914
168,735	-18,247	245,215	107,850
169,750	-18,441	245,138	107,645
170,764	-18,287	245,138	107,764
171,779	-18,081	244,823	107,786
172,794	-18,225	244,599	107,559
173,808	-18,272	244,515	107,474
174,823	-18,369	244,502	107,378
175,837	-18,251	244,114	107,295
176,852	-18,125	243,935	107,311
177,867	-18,305	243,739	107,067
178,881	-18,378	243,692	106,977
179,896	-18,325	243,559	106,952
180,910	-18,063	243,208	107,004
181,925	-18,405	243,103	106,667
182,940	-18,219	242,942	106,740
183,954	-18,206	242,702	106,636
184,969	-18,245	242,597	106,548
185,983	-18,454	242,484	106,318
186,998	-18,348	242,237	106,287
188,013	-18,502	241,951	106,026
189,027	-18,433	241,935	106,066
190,042	-18,244	241,697	106,106
191,056	-18,266	241,583	106,029
192,071	-17,977	241,285	106,124
193,086	-18,216	241,218	105,890
194,100	-18,084	241,029	105,905
195,115	-17,950	240,837	105,920
196,129	-17,998	240,551	105,746
197,144	-18,167	240,466	105,562
198,159	-18,093	240,328	105,552
199,173	-18,132	240,113	105,417
200,188	-18,157	239,959	105,320
201,202	-18,052	239,694	105,279
202,217	-18,112	239,498	105,135
203,232	-17,991	239,293	105,133
204,246	-17,915	239,108	105,103
205,261	-17,657	239,125	105,309
206,275	-15,946	239,732	106,949
207,290	-10,844	241,581	111,910
208,304	-4,684	243,160	117,658
209,319	-2,825	243,925	119,537
210,334	-2,172	243,914	120,053
211,348	-1,005	244,178	121,126
212,363	-0,438	244,107	121,542
213,377	-0,036	244,162	121,886
214,392	0,543	243,988	122,261
215,407	0,809	244,113	122,530
216,421	0,861	243,918	122,463
217,436	0,757	243,771	122,293
218,450	0,785	243,715	122,278
219,465	0,925	243,504	122,275
220,480	0,989	243,399	122,263
221,494	1,069	243,292	122,264
222,509	0,600	243,020	121,736
223,523	0,478	242,754	121,492
224,538	0,528	242,495	121,392
225,553	0,627	242,215	121,321
226,567	0,331	242,165	121,047
227,582	0,442	242,004	121,045
228,596	0,335	241,932	120,912
229,611	0,313	241,808	120,821
230,626	0,540	241,579	120,879
231,640	0,325	241,449	120,629
232,655	0,238	241,152	120,401
233,669	0,148	241,161	120,322
234,684	0,276	240,866	120,267
235,699	0,342	240,784	120,268
236,713	0,451	240,599	120,253
237,728	0,419	240,509	120,171
238,742	0,292	240,215	119,911
239,757	0,254	240,142	119,834
240,772	0,366	239,977	119,830
241,786	0,153	239,804	119,563
242,801	0,382	239,622	119,645
243,815	0,155	239,555	119,420
244,830	0,358	239,441	119,514
245,844	0,369	239,272	119,428
246,859	0,301	239,036	119,246
247,874	0,352	238,919	119,217
248,888	0,447	238,650	119,147
249,903	0,601	238,439	119,154
250,917	0,293	238,398	118,878
251,932	0,481	238,288	118,962
252,947	0,523	238,047	118,864
253,961	0,499	238,001	118,812
254,976	0,201	237,772	118,451
255,990	0,556	237,707	118,689
257,005	0,456	237,379	118,436
258,020	0,408	237,391	118,393
259,034	0,511	237,174	118,356
260,049	0,330	236,909	118,070
261,063	0,351	236,876	118,060
262,078	0,495	236,666	118,058
263,093	0,419	236,454	117,881
264,107	0,453	236,292	117,817
265,122	0,192	236,313	117,612
266,136	0,458	236,147	117,727
267,151	0,289	236,007	117,515
268,166	0,313	235,772	117,406
269,180	0,319	235,562	117,296
270,195	0,459	235,395	117,312
271,209	0,321	235,516	117,254
272,224	0,376	235,201	117,129
273,239	0,164	235,025	116,866
274,253	0,194	234,885	116,809
275,268	0,386	234,763	116,888
276,282	0,255	234,677	116,732
277,297	0,443	234,327	116,694
278,312	0,046	234,296	116,360
279,326	0,481	234,079	116,580
280,341	0,394	233,956	116,440
281,355	0,616	233,718	116,483
282,370	0,274	233,637	116,167
283,384	0,489	233,466	116,239
284,399	0,332	233,305	116,027
285,414	0,492	233,151	116,064
286,428	0,488	233,077	116,013
287,443	0,509	233,059	116,010
288,457	0,540	232,649	115,820
289,472	0,406	232,728	115,746
290,487	0,437	232,584	115,687
291,501	0,453	232,277	115,536
292,516	0,428	232,197	115,467
293,530	0,302	232,141	115,332
294,545	0,448	232,018	115,373
295,560	0,546	231,770	115,315
296,574	0,423	231,605	115,128
297,589	0,633	231,355	115,154
298,603	0,555	231,204	115,010
299,618	0,578	231,211	115,020
300,633	0,725	231,027	115,031
301,647	0,443	230,966	114,774
302,662	0,538	230,800	114,754
303,676	0,522	230,673	114,668
304,691	0,442	230,528	114,525
305,706	0,627	230,269	114,527
306,720	0,760	230,202	114,585
307,735	0,806	230,107	114,563
308,749	0,629	230,024	114,376
309,764	0,564	229,884	114,247
310,779	0,563	229,620	114,105
311,793	0,795	229,345	114,134
312,808	0,661	229,267	113,984
313,822	0,645	229,177	113,916
314,837	0,516	228,980	113,711
315,852	0,744	228,778	113,773
316,866	0,603	228,847	113,690
317,881	0,681	228,491	113,562
318,895	0,661	228,519	113,551
319,910	0,559	228,317	113,363
320,925	0,616	228,135	113,306
321,939	0,698	227,866	113,224
322,954	0,720	227,935	113,265
323,968	0,675	227,797	113,152
324,983	0,635	227,507	112,968
325,997	0,760	227,352	112,975
327,012	0,678	227,401	112,927
328,027	0,867	227,059	112,890
329,041	0,587	227,000	112,640
330,056	0,649	226,831	112,592
331,070	0,724	226,801	112,624
332,085	0,730	226,458	112,448
333,100	0,871	226,372	112,501
334,114	0,849	226,175	112,377
335,129	0,624	226,111	112,166
336,143	0,793	226,039	112,247
337,158	0,659	225,868	112,052
338,173	0,529	225,799	111,911
339,187	0,818	225,603	112,019
340,202	0,719	225,382	111,826
341,216	0,937	225,263	111,919
342,231	1,016	225,156	111,915
343,246	0,686	225,089	111,626
344,260	0,750	224,855	111,548
345,275	0,986	224,623	111,597
346,289	1,040	224,488	111,560
347,304	1,265	224,288	111,618
348,319	0,723	224,334	111,230
349,333	0,793	224,117	111,163
350,348	0,654	223,995	110,991
351,362	0,762	223,922	111,023
352,377	0,782	223,818	110,977
353,392	0,907	223,577	110,941
354,406	0,923	223,469	110,889
355,421	191,976	1311,861	1375,410
356,435	153,711	1444,292	1375,239
