DTS Sentinel unit serial number:	SN410029Multiplexer serial number:	ORYXHardware model number:	OX2-SRSoftware version number:	ORYX F/W v4,00 Oryx Data Collector v3.7.2.0data status	okinstallation	B5 Nyhavnadifferential loss correction	single-endedforward channel	channel 2reverse channel	N/Adate	2023/12/13time	05:12:13forward acquisition time	300,00reverse acquisition time	0,00gamma	499,1914k internal	0,3160k external	0,3160temperature offset calibration	1,0000default loss term (dB/km)	0,3820temperature slope calibration	1,0000multiplexer offset coefficient	1,0000multiplexer slope coefficient	1,0000fibre end	0,00T internal ref (°C)	13,88T ext. ref 1 (°C)	-2,52T ext. ref 2 (°C)	-2,82length (m)	temperature (°C)	Stokes	anti-Stokes-744,400	-200,000	0,004	0,075
-743,385	-132,873	-0,387	-0,036
-742,371	-117,753	0,245	-0,032
-741,356	-159,893	-0,283	0,011
-740,342	-200,000	-0,022	0,129
-739,327	-26,373	-0,352	0,151
-738,312	68,936	-0,052	0,039
-737,298	-120,044	-0,361	0,045
-736,283	-200,000	0,009	0,104
-735,269	8,631	-0,288	0,159
-734,254	348,997	0,036	0,052
-733,239	12,946	-0,391	-0,222
-732,225	38,586	0,171	0,112
-731,210	800,000	0,024	-0,058
-730,196	-87,221	-0,096	-0,021
-729,181	142,704	-0,093	-0,091
-728,167	-200,000	0,017	-0,177
-727,152	481,127	-0,006	0,011
-726,137	36,513	-0,046	0,030
-725,123	450,707	-0,099	-0,162
-724,108	-200,000	-0,005	-0,065
-723,094	-101,169	0,045	-0,008
-722,079	-130,872	-0,188	0,018
-721,064	-115,218	0,121	0,017
-720,050	-3,169	-0,029	0,015
-719,035	-29,825	-0,043	-0,018
-718,021	800,000	-0,070	-0,146
-717,006	-127,178	-0,075	-0,008
-715,991	-55,243	-0,098	-0,032
-714,977	765,272	-0,041	-0,081
-713,962	-200,000	0,000	0,022
-712,948	-200,000	0,004	0,048
-711,933	199,119	-0,011	-0,012
-710,918	534,012	-0,065	0,113
-709,904	-200,000	0,007	-0,110
-708,889	779,246	-0,037	-0,075
-707,875	-200,000	-0,023	-0,087
-706,860	48,985	-0,093	-0,064
-705,845	214,967	0,049	-0,057
-704,831	-64,466	0,192	0,057
-703,816	37,760	-0,071	-0,046
-702,802	-155,850	-0,160	-0,007
-701,787	-200,000	0,005	-0,077
-700,772	-200,000	0,002	-0,014
-699,758	699,966	0,034	-0,065
-698,743	-29,979	0,045	0,019
-697,729	102,838	0,120	0,103
-696,714	142,278	-0,057	0,056
-695,699	-138,831	0,084	0,007
-694,685	800,000	0,031	-0,075
-693,670	78,861	-0,078	-0,061
-692,656	-107,667	-0,109	-0,017
-691,641	-200,000	0,007	0,030
-690,627	519,347	-0,031	0,054
-689,612	-26,177	-0,104	-0,045
-688,597	-200,000	-0,005	0,039
-687,583	-191,656	-0,034	-0,000
-686,568	-200,000	0,018	-0,158
-685,554	92,859	-0,044	0,037
-684,539	800,000	0,004	-0,008
-683,524	408,389	-0,040	-0,063
-682,510	-135,411	0,055	0,005
-681,495	-35,804	-0,178	-0,071
-680,481	-200,000	0,030	-0,154
-679,466	-162,220	-0,074	0,003
-678,451	30,354	-0,115	0,072
-677,437	-97,588	-0,048	0,009
-676,422	-200,000	0,029	-0,107
-675,408	144,866	-0,060	0,059
-674,393	333,296	0,046	-0,066
-673,378	-81,188	-0,136	-0,033
-672,364	-200,000	0,001	-0,067
-671,349	22,655	-0,110	0,066
-670,335	-102,421	-0,056	0,010
-669,320	-200,000	-0,020	0,128
-668,305	683,009	0,025	0,048
-667,291	-200,000	-0,023	-0,109
-666,276	-130,093	-0,187	0,019
-665,262	68,998	-0,106	0,080
-664,247	67,352	-0,012	0,009
-663,232	-87,521	0,050	0,011
-662,218	408,391	-0,065	0,101
-661,203	55,189	-0,098	0,069
-660,189	83,767	-0,060	0,048
-659,174	-200,000	0,018	-0,192
-658,159	-113,549	-0,104	0,015
-657,145	183,716	0,080	-0,087
-656,130	-112,068	0,034	-0,005
-655,116	800,000	-0,032	-0,099
-654,101	-200,000	-0,028	-0,090
-653,086	800,000	0,044	0,121
-652,072	-200,000	0,014	0,169
-651,057	-200,000	-0,022	-0,111
-650,043	800,000	-0,037	-0,082
-649,028	59,217	0,128	-0,092
-648,014	9,680	-0,064	0,036
-646,999	-200,000	-0,036	-0,148
-645,984	-200,000	-0,024	0,112
-644,970	409,228	-0,081	0,126
-643,955	800,000	-0,060	-0,149
-642,941	-118,185	0,035	0,005
-641,926	33,571	0,146	0,093
-640,911	-200,000	0,015	0,078
-639,897	-200,000	0,024	-0,084
-638,882	687,640	0,043	0,082
-637,868	178,072	-0,045	-0,048
-636,853	-43,629	-0,100	-0,037
-635,838	-200,000	-0,007	-0,069
-634,824	-200,000	-0,026	-0,104
-633,809	-200,000	-0,008	0,144
-632,795	109,722	-0,069	0,061
-631,780	342,784	0,047	0,068
-630,765	-44,901	-0,091	-0,033
-629,751	-44,244	0,050	-0,018
-628,736	-76,518	-0,060	-0,015
-627,722	-200,000	0,011	0,065
-626,707	459,158	-0,078	0,128
-625,692	-135,345	0,123	0,011
-624,678	-13,679	-0,117	-0,055
-623,663	-104,267	-0,164	-0,028
-622,649	70,413	0,044	-0,033
-621,634	-58,456	0,120	-0,038
-620,619	800,000	-0,024	0,055
-619,605	102,923	0,120	0,103
-618,590	-29,360	-0,035	-0,015
-617,576	-8,438	-0,109	-0,054
-616,561	-63,450	0,126	-0,038
-615,546	259,382	-0,148	-0,188
-614,532	-200,000	0,001	-0,031
-613,517	-200,000	-0,025	-0,189
-612,503	232,191	0,065	-0,078
-611,488	800,000	-0,015	0,048
-610,474	357,757	0,049	-0,071
-609,459	800,000	0,039	0,093
-608,444	-200,000	-0,012	0,100
-607,430	82,801	0,070	-0,055
-606,415	-58,573	0,007	0,002
-605,401	492,011	-0,051	0,085
-604,386	-200,000	-0,016	-0,079
-603,371	22,811	0,138	0,082
-602,357	271,443	-0,123	-0,159
-601,342	-134,373	-0,038	-0,003
-600,328	41,785	0,085	-0,056
-599,313	12,943	-0,046	-0,026
-598,298	92,138	-0,050	0,041
-597,284	104,125	0,085	-0,073
-596,269	-200,000	-0,010	0,082
-595,255	481,562	-0,010	-0,017
-594,240	65,185	-0,136	-0,101
-593,225	26,141	-0,137	-0,083
-592,211	-200,000	-0,009	0,040
-591,196	-200,000	-0,006	-0,026
-590,182	-200,000	0,013	0,108
-589,167	-76,550	-0,032	-0,008
-588,152	89,273	-0,056	-0,046
-587,138	800,000	0,027	-0,064
-586,123	-37,304	-0,105	0,041
-585,109	-3,658	-0,090	-0,046
-584,094	-200,000	0,024	-0,088
-583,079	-74,849	-0,101	-0,026
-582,065	73,522	0,048	0,037
-581,050	800,000	-0,043	0,134
-580,036	34,768	0,059	-0,038
-579,021	-200,000	0,001	0,020
-578,006	446,234	-0,080	-0,129
-576,992	193,000	-0,115	0,127
-575,977	46,309	0,036	0,024
-574,963	-141,584	0,092	0,007
-573,948	693,158	-0,027	-0,052
-572,934	-48,417	0,035	-0,012
-571,919	-200,000	0,005	-0,028
-570,904	-200,000	-0,031	-0,128
-569,890	63,963	-0,112	-0,082
-568,875	-91,187	0,171	0,036
-567,861	800,000	-0,029	0,076
-566,846	-24,201	0,051	-0,022
-565,831	-76,972	-0,110	0,028
-564,817	-200,000	0,032	0,130
-563,802	800,000	-0,054	-0,123
-562,788	-200,000	0,011	-0,152
-561,773	-200,000	0,006	0,042
-560,758	328,025	0,062	0,088
-559,744	118,093	0,062	-0,056
-558,729	-200,000	-0,013	0,122
-557,715	121,491	-0,036	0,033
-556,700	-200,000	-0,006	-0,053
-555,685	-200,000	0,017	0,058
-554,671	-89,630	0,150	-0,032
-553,656	285,882	0,049	-0,065
-552,642	-200,000	0,004	0,095
-551,627	-112,446	-0,018	0,003
-550,612	574,733	-0,014	-0,026
-549,598	-78,947	-0,162	-0,040
-548,583	-38,349	-0,063	-0,024
-547,569	-200,000	0,013	-0,082
-546,554	800,000	0,039	0,093
-545,539	-34,330	0,135	-0,054
-544,525	479,944	-0,061	-0,101
-543,510	494,010	-0,107	-0,179
-542,496	600,802	0,027	0,048
-541,481	18,414	-0,060	0,035
-540,466	-91,325	-0,059	0,012
-539,452	-54,672	0,067	-0,022
-538,437	368,653	0,018	-0,026
-537,423	54,739	-0,086	-0,061
-536,408	45,892	-0,130	-0,088
-535,393	-200,000	0,004	-0,040
-534,379	-150,515	-0,083	-0,005
-533,364	-123,560	-0,055	0,006
-532,350	800,000	0,042	0,116
-531,335	-102,375	0,044	0,008
-530,321	21,038	-0,065	-0,038
-529,306	38,276	0,067	0,044
-528,291	-200,000	0,002	-0,100
-527,277	800,000	-0,052	-0,130
-526,262	-200,000	-0,011	-0,092
-525,248	800,000	0,049	0,112
-524,233	153,684	0,087	0,087
-523,218	49,689	-0,058	0,040
-522,204	-160,231	-0,103	0,004
-521,189	-175,089	0,015	0,000
-520,175	413,173	0,051	-0,080
-519,160	-116,637	-0,020	0,003
-518,145	-42,033	-0,117	-0,043
-517,131	800,000	0,058	0,135
-516,116	-180,112	-0,128	0,002
-515,102	-124,397	0,059	-0,007
-514,087	-129,892	0,011	0,001
-513,072	800,000	-0,046	-0,104
-512,058	-200,000	0,011	-0,083
-511,043	596,961	-0,016	0,028
-510,029	145,228	0,066	0,065
-509,014	97,690	0,093	0,078
-507,999	-200,000	-0,025	0,154
-506,985	-200,000	-0,031	-0,126
-505,970	-94,480	-0,085	0,017
-504,956	354,059	-0,025	0,036
-503,941	-200,000	0,044	0,147
-502,926	6,408	0,112	-0,060
-501,912	800,000	-0,030	-0,092
-500,897	164,535	-0,009	0,009
-499,883	-122,719	-0,145	0,017
-498,868	441,396	-0,084	-0,134
-497,853	-134,054	-0,040	-0,004
-496,839	-200,000	0,023	0,105
-495,824	-200,000	0,023	0,088
-494,810	283,315	-0,131	0,172
-493,795	54,115	-0,056	0,039
-492,781	109,273	-0,078	-0,068
-491,766	-124,155	-0,213	-0,024
-490,751	800,000	0,040	0,084
-489,737	-83,776	0,103	-0,024
-488,722	85,411	0,057	-0,046
-487,708	407,856	0,089	0,137
-486,693	-200,000	-0,002	0,106
-485,678	182,117	0,043	0,046
-484,664	259,000	-0,044	-0,056
-483,649	-200,000	-0,029	-0,125
-482,635	-30,090	-0,090	0,037
-481,620	332,126	-0,070	0,098
-480,605	-125,180	0,052	-0,006
-479,591	-67,826	-0,104	-0,029
-478,576	800,000	0,068	0,146
-477,562	388,421	-0,013	-0,019
-476,547	134,990	0,037	0,035
-475,532	800,000	-0,026	0,082
-474,518	556,678	0,090	0,160
-473,503	217,752	-0,050	-0,058
-472,489	-200,000	0,007	-0,135
-471,474	337,805	0,060	-0,085
-470,459	-52,175	0,076	-0,026
-469,445	752,095	0,064	-0,126
-468,430	65,599	-0,056	-0,041
-467,416	122,205	-0,030	0,027
-466,401	18,782	0,144	0,084
-465,386	-200,000	-0,012	0,080
-464,372	-42,749	0,041	-0,015
-463,357	-103,398	-0,075	0,013
-462,343	395,279	0,044	-0,067
-461,328	-3,067	0,077	-0,039
-460,313	281,974	0,052	0,068
-459,299	565,561	0,045	0,079
-458,284	27,023	0,095	0,058
-457,270	321,517	-0,071	-0,099
-456,255	156,826	-0,008	0,008
-455,241	-200,000	-0,017	0,137
-454,226	-200,000	0,030	-0,126
-453,211	-162,631	-0,068	-0,002
-452,197	-200,000	0,001	0,062
-451,182	173,045	0,109	0,115
-450,168	376,422	-0,056	-0,084
-449,153	-174,922	-0,097	0,002
-448,138	800,000	-0,025	0,054
-447,124	-200,000	0,000	-0,055
-446,109	333,939	0,051	-0,073
-445,095	-200,000	-0,007	0,061
-444,080	434,442	0,099	0,157
-443,065	-200,000	0,005	-0,062
-442,051	36,196	0,103	0,066
-441,036	117,895	-0,089	-0,080
-440,022	100,890	0,102	-0,087
-439,007	114,351	-0,051	-0,045
-437,992	800,000	0,035	0,103
-436,978	-96,901	0,107	0,020
-435,963	800,000	0,041	0,108
-434,949	105,386	-0,123	0,105
-433,934	178,182	-0,077	-0,082
-432,919	-200,000	-0,024	-0,191
-431,905	-85,252	-0,040	-0,009
-430,890	-200,000	0,002	0,151
-429,876	800,000	-0,030	-0,068
-428,861	-200,000	-0,007	0,057
-427,846	-200,000	0,000	-0,101
-426,832	-158,828	-0,117	-0,005
-425,817	306,385	-0,061	0,083
-424,803	52,049	-0,070	-0,049
-423,788	733,399	-0,015	-0,030
-422,773	156,728	0,078	0,078
-421,759	42,491	-0,058	-0,038
-420,744	115,842	0,104	-0,092
-419,730	-2,790	-0,081	-0,041
-418,715	20,173	-0,065	0,038
-417,701	532,543	0,048	0,084
-416,686	800,000	0,040	0,091
-415,671	-52,698	0,158	0,053
-414,657	800,000	0,055	0,141
-413,642	800,000	0,011	0,025
-412,628	31,461	-0,110	0,068
-411,613	-46,516	-0,090	0,032
-410,598	-200,000	0,003	0,102
-409,584	-46,880	0,098	-0,035
-408,569	-157,278	0,093	-0,004
-407,555	800,000	0,012	0,028
-406,540	490,006	-0,057	0,095
-405,525	-200,000	0,026	-0,101
-404,511	-142,167	0,013	0,001
-403,496	-200,000	-0,014	0,071
-402,482	-200,000	0,042	0,143
-401,467	-200,000	0,047	0,217
-400,452	-49,923	0,007	-0,002
-399,438	-21,798	0,229	-0,101
-398,423	-138,181	-0,107	0,009
-397,409	97,442	0,042	-0,035
-396,394	800,000	0,024	-0,071
-395,379	199,916	0,029	0,033
-394,365	17,001	0,065	0,038
-393,350	194,515	0,126	0,139
-392,336	153,967	0,067	0,067
-391,321	257,033	0,058	0,073
-390,306	-186,519	-0,148	0,001
-389,292	179,500	0,044	-0,047
-388,277	800,000	-0,024	-0,064
-387,263	228,216	0,078	-0,093
-386,248	-6,655	0,123	-0,061
-385,233	-200,000	0,031	0,112
-384,219	-200,000	-0,007	-0,028
-383,204	33,888	-0,049	-0,031
-382,190	800,000	-0,055	-0,132
-381,175	-200,000	-0,010	0,083
-380,160	-102,594	0,155	-0,027
-379,146	288,214	0,122	0,160
-378,131	-165,794	0,095	0,003
-377,117	471,076	-0,028	0,046
-376,102	-116,360	0,066	0,009
-375,088	-32,090	-0,156	-0,063
-374,073	223,586	0,052	0,061
-373,058	-27,382	-0,123	0,052
-372,044	113,266	0,138	0,121
-371,029	217,882	-0,075	0,087
-370,015	-200,000	0,000	0,030
-369,000	223,421	0,048	-0,056
-367,985	277,563	0,040	-0,052
-366,971	800,000	-0,046	0,138
-365,956	79,693	-0,060	0,047
-364,942	800,000	0,031	0,072
-363,927	78,721	0,043	-0,033
-362,912	-200,000	0,018	0,121
-361,898	119,183	0,160	-0,144
-360,883	-200,000	-0,002	0,042
-359,869	56,603	0,079	-0,055
-358,854	-200,000	0,017	-0,070
-357,839	-200,000	0,019	-0,177
-356,825	134,548	-0,032	0,031
-355,810	-200,000	0,003	0,082
-354,796	800,000	0,044	0,118
-353,781	-200,000	-0,005	-0,035
-352,766	120,445	0,066	-0,060
-351,752	800,000	0,033	0,083
-350,737	103,777	-0,027	0,023
-349,723	478,034	0,025	0,041
-348,708	25,257	-0,104	0,062
-347,693	-34,452	-0,007	0,003
-346,679	800,000	0,057	-0,163
-345,664	-37,368	-0,158	-0,061
-344,650	-200,000	0,003	-0,137
-343,635	800,000	0,043	-0,090
-342,620	-200,000	-0,006	-0,056
-341,606	177,933	-0,045	-0,048
-340,591	397,641	-0,030	-0,046
-339,577	-200,000	0,004	-0,044
-338,562	175,689	-0,018	-0,019
-337,548	-77,396	0,069	-0,017
-336,533	800,000	0,031	-0,094
-335,518	-200,000	-0,002	-0,130
-334,504	-200,000	-0,011	-0,047
-333,489	800,000	0,079	-0,178
-332,475	-200,000	-0,032	-0,106
-331,460	-200,000	0,019	0,095
-330,445	-101,453	0,154	0,027
-329,431	-200,000	0,031	0,199
-328,416	800,000	0,044	0,112
-327,402	50,370	0,029	-0,020
-326,387	330,562	-0,024	-0,033
-325,372	-200,000	0,001	0,061
-324,358	717,052	0,075	-0,144
-323,343	-200,000	-0,007	0,108
-322,329	529,688	-0,041	0,071
-321,314	800,000	0,023	-0,048
-320,299	-19,979	-0,120	0,054
-319,285	-33,818	-0,058	-0,023
-318,270	96,792	0,197	-0,163
-317,256	636,528	0,066	-0,121
-316,241	-139,964	-0,020	0,001
-315,226	-200,000	0,001	0,126
-314,212	-76,375	-0,104	-0,026
-313,197	-200,000	0,023	0,191
-312,183	-200,000	0,015	0,190
-311,168	339,795	-0,007	-0,010
-310,153	800,000	0,029	-0,081
-309,139	-61,098	-0,030	0,009
-308,124	124,703	0,059	0,054
-307,110	-56,743	0,037	0,012
-306,095	-79,094	0,064	0,016
-305,080	-19,442	0,014	0,006
-304,066	-147,553	-0,047	-0,003
-303,051	77,921	-0,083	-0,064
-302,037	-200,000	0,005	-0,161
-301,022	573,779	0,030	-0,053
-300,008	206,296	-0,092	0,104
-298,993	168,801	0,137	0,142
-297,978	528,656	0,058	0,099
-296,964	800,000	0,051	0,148
-295,949	99,516	-0,038	-0,032
-294,935	-200,000	0,003	-0,041
-293,920	-5,343	-0,106	-0,053
-292,905	-200,000	-0,010	-0,138
-291,891	665,519	0,019	0,036
-290,876	-72,050	0,085	0,023
-289,862	35,209	-0,103	-0,065
-288,847	-182,299	-0,130	0,002
-287,832	-200,000	0,010	-0,106
-286,818	-146,575	-0,114	-0,007
-285,803	215,678	0,036	0,042
-284,789	124,421	0,079	0,072
-283,774	800,000	0,018	0,053
-282,759	-200,000	-0,015	-0,148
-281,745	-98,254	-0,096	-0,018
-280,730	52,560	0,034	0,024
-279,716	800,000	-0,069	-0,164
-278,701	-195,113	0,078	0,000
-277,686	-88,522	0,085	-0,018
-276,672	-4,792	-0,031	0,015
-275,657	-63,663	0,117	0,035
-274,643	117,780	-0,056	-0,049
-273,628	86,344	0,094	-0,075
-272,613	476,503	-0,083	-0,136
-271,599	-29,957	0,051	-0,021
-270,584	-153,130	0,076	-0,004
-269,570	-200,000	0,014	0,073
-268,555	165,684	-0,030	0,030
-267,540	-135,235	0,099	-0,008
-266,526	579,745	0,021	-0,037
-265,511	800,000	0,020	-0,051
-264,497	-25,154	-0,106	-0,045
-263,482	-81,265	0,040	0,010
-262,467	100,884	-0,085	0,071
-261,453	-200,000	-0,000	-0,045
-260,438	-15,785	-0,160	0,073
-259,424	-94,039	0,067	-0,013
-258,409	-0,318	-0,050	0,026
-257,395	-200,000	0,040	0,135
-256,380	78,389	0,133	-0,103
-255,365	-59,515	0,124	0,038
-254,351	-200,000	-0,004	-0,062
-253,336	-57,197	-0,259	0,082
-252,322	-42,611	-0,038	-0,014
-251,307	-28,083	0,114	0,047
-250,292	400,432	-0,020	0,030
-249,278	47,701	0,129	0,087
-248,263	-152,502	0,195	0,010
-247,249	63,863	0,053	0,039
-246,234	62,834	-0,108	-0,078
-245,219	215,068	-0,034	-0,039
-244,205	-200,000	0,009	0,037
-243,190	319,580	0,043	0,059
-242,176	-200,000	0,005	-0,033
-241,161	-37,863	-0,048	-0,018
-240,146	273,005	0,066	-0,084
-239,132	800,000	0,013	-0,030
-238,117	-77,324	-0,175	0,044
-237,103	474,454	0,030	0,049
-236,088	-164,704	-0,136	-0,004
-235,073	572,874	0,030	-0,053
-234,059	140,089	0,086	-0,082
-233,044	-200,000	-0,013	0,115
-232,030	-200,000	0,004	-0,078
-231,015	50,659	-0,158	-0,108
-230,000	17,378	-0,080	0,046
-228,986	-200,000	0,020	-0,145
-227,971	800,000	-0,030	-0,075
-226,957	-61,076	-0,150	0,045
-225,942	-165,053	0,169	-0,005
-224,927	-78,648	-0,043	0,011
-223,913	391,289	0,077	-0,116
-222,898	-200,000	0,003	0,081
-221,884	-200,000	-0,011	-0,091
-220,869	-200,000	-0,003	-0,036
-219,855	399,535	0,089	0,135
-218,840	-64,028	-0,048	-0,014
-217,825	-159,020	-0,026	0,001
-216,811	184,083	-0,019	0,021
-215,796	800,000	-0,040	-0,116
-214,782	-135,119	0,126	-0,011
-213,767	-200,000	-0,010	0,125
-212,752	-35,924	0,066	0,025
-211,738	-200,000	0,005	0,078
-210,723	62,978	-0,042	-0,030
-209,709	392,235	0,088	-0,132
-208,694	-37,978	-0,111	0,042
-207,679	384,513	-0,035	-0,052
-206,665	-200,000	0,005	-0,023
-205,650	92,264	0,095	-0,077
-204,636	488,712	-0,080	0,132
-203,621	-126,493	-0,077	0,008
-202,606	-123,063	-0,101	-0,012
-201,592	385,590	0,057	-0,085
-200,577	-57,561	-0,046	0,014
-199,563	151,462	0,087	0,085
-198,548	-80,769	-0,142	0,034
-197,533	-28,628	0,042	0,017
-196,519	25,103	-0,125	-0,074
-195,504	800,000	0,042	0,088
-194,490	-200,000	-0,008	-0,054
-193,475	-18,445	0,123	-0,055
-192,460	58,362	0,035	-0,025
-191,446	-69,875	0,081	0,022
-190,431	-200,000	0,026	0,112
-189,417	-200,000	0,016	-0,061
-188,402	120,393	-0,056	-0,050
-187,387	20,949	-0,033	0,019
-186,373	-200,000	0,025	0,126
-185,358	-120,178	-0,072	-0,009
-184,344	-200,000	-0,008	0,115
-183,329	-41,954	-0,037	0,014
-182,315	-200,000	-0,001	-0,108
-181,300	453,857	-0,058	-0,092
-180,285	249,425	-0,026	0,032
-179,271	401,389	-0,056	0,085
-178,256	280,231	0,050	0,065
-177,242	121,980	0,049	0,044
-176,227	410,797	-0,087	0,133
-175,212	-82,810	0,101	-0,023
-174,198	-200,000	0,014	-0,075
-173,183	800,000	-0,056	-0,160
-172,169	13,018	0,051	-0,028
-171,154	-200,000	-0,007	0,093
-170,139	-200,000	-0,026	-0,170
-169,125	353,420	0,085	0,122
-168,110	544,040	0,082	0,141
-167,096	-4,399	0,104	0,051
-166,081	800,000	-0,007	-0,021
-165,066	-200,000	0,022	0,123
-164,052	-50,400	-0,108	-0,037
-163,037	-85,741	-0,100	0,022
-162,023	8,968	0,172	-0,093
-161,008	800,000	-0,056	0,152
-159,993	191,175	-0,013	-0,014
-158,979	322,693	0,013	0,017
-157,964	-3,004	-0,183	-0,092
-156,950	304,810	-0,062	-0,083
-155,935	232,121	-0,028	-0,033
-154,920	636,564	-0,065	-0,119
-153,906	-75,008	0,038	-0,010
-152,891	800,000	0,031	-0,063
-151,877	-109,733	0,033	-0,005
-150,862	800,000	-0,006	0,013
-149,847	176,105	-0,089	-0,093
-148,833	-200,000	0,003	-0,024
-147,818	-15,534	-0,012	0,006
-146,804	370,769	-0,020	-0,030
-145,789	58,012	-0,065	-0,046
-144,775	125,514	0,030	-0,027
-143,760	-200,000	-0,007	-0,125
-142,745	111,159	-0,097	-0,084
-141,731	800,000	-0,055	-0,115
-140,716	-63,629	0,123	0,036
-139,702	800,000	0,048	0,144
-138,687	-70,968	0,114	-0,031
-137,672	-200,000	-0,010	-0,091
-136,658	274,733	0,005	-0,007
-135,643	-47,489	-0,074	-0,026
-134,629	-85,161	0,074	-0,016
-133,614	-139,918	-0,099	0,007
-132,599	-200,000	0,059	-0,000
-131,585	238,098	-0,061	0,073
-130,570	126,968	-0,170	0,155
-129,556	-113,571	0,052	0,007
-128,541	-37,788	-0,146	0,055
-127,526	-200,000	-0,003	0,011
-126,512	24,858	0,048	0,028
-125,497	-200,000	0,006	0,091
-124,483	-171,691	0,071	-0,002
-123,468	274,426	0,076	-0,097
-122,453	-200,000	-0,003	-0,135
-121,439	154,937	0,095	-0,094
-120,424	189,904	-0,064	0,069
-119,410	-200,000	0,008	0,109
-118,395	-21,212	-0,078	-0,034
-117,380	559,264	0,013	-0,022
-116,366	41,431	-0,117	0,076
-115,351	-150,123	0,076	0,004
-114,337	-200,000	0,017	0,118
-113,322	101,804	-0,064	-0,054
-112,307	46,792	0,081	-0,054
-111,293	800,000	0,071	0,145
-110,278	667,854	0,045	-0,084
-109,264	-110,034	0,116	-0,017
-108,249	54,306	0,024	-0,017
-107,234	36,935	-0,065	0,041
-106,220	-200,000	0,005	-0,100
-105,205	7,987	0,070	0,038
-104,191	111,668	0,023	0,020
-103,176	682,511	0,008	0,015
-102,162	-200,000	0,009	-0,128
-101,147	-19,093	-0,086	-0,038
-100,132	197,742	0,056	-0,062
-99,118	800,000	-0,009	-0,029
-98,103	-6,483	0,024	-0,012
-97,089	315,125	-0,023	0,031
-96,074	-72,098	-0,048	-0,013
-95,059	-58,496	-0,080	0,025
-94,045	-12,612	0,082	-0,038
-93,030	-41,343	-0,009	0,003
-92,016	724,009	-0,053	-0,103
-91,001	-200,000	-0,014	0,082
-89,986	42,395	-0,076	-0,049
-88,972	81,609	-0,091	0,070
-87,957	4,984	-0,135	-0,071
-86,943	800,000	-0,039	0,104
-85,928	-112,445	0,045	0,006
-84,913	-87,732	-0,091	-0,020
-83,899	-126,951	0,159	-0,017
-82,884	-200,000	-0,010	0,142
-81,870	-69,538	0,102	-0,028
-80,855	299,377	-0,071	0,094
-79,840	-66,906	-0,088	-0,025
-78,826	415,418	0,117	-0,180
-77,811	800,000	-0,047	-0,121
-76,797	89,282	-0,019	-0,015
-75,782	-200,000	0,000	-0,066
-74,767	359,936	-0,056	0,081
-73,753	-121,367	-0,057	0,007
-72,738	49,607	-0,072	-0,049
-71,724	380,608	-0,020	-0,030
-70,709	226,486	-0,066	0,077
-69,694	544,440	-0,005	0,008
-68,680	766,617	-0,060	-0,118
-67,665	-82,308	0,134	-0,031
-66,651	-200,000	0,041	0,163
-65,636	-200,000	-0,003	0,069
-64,622	-141,420	0,021	0,001
-63,607	63,354	-0,152	-0,110
-62,592	300,008	-0,109	-0,145
-61,578	800,000	-0,034	0,072
-60,563	129,258	0,044	0,040
-59,549	800,000	-0,064	0,156
-58,534	29,355	-1,997	-1,214
-57,519	-200,000	-0,216	-0,721
-56,505	-200,000	-1,356	-5,084
-55,490	98,369	0,773	0,639
-54,476	800,000	5,455	11,996
-53,461	-200,000	18,570	314,178
-52,446	800,000	740,794	2325,782
-51,432	557,899	1656,847	2876,962
-50,417	111,018	1640,591	1416,377
-49,403	75,266	1290,526	975,038
-48,388	30,489	1031,216	630,705
-47,373	20,008	993,772	573,088
-46,359	17,672	981,271	558,168
-45,344	14,296	977,459	544,883
-44,330	14,579	975,968	544,958
-43,315	13,962	974,072	541,853
-42,300	13,928	973,004	541,127
-41,286	13,864	972,195	540,447
-40,271	13,927	971,108	540,026
-39,257	13,910	970,270	539,483
-38,242	13,930	969,249	538,959
-37,227	13,909	968,581	538,497
-36,213	13,874	967,758	537,907
-35,198	13,923	966,635	537,419
-34,184	13,927	966,099	537,113
-33,169	13,807	965,180	536,192
-32,154	13,946	963,977	535,953
-31,140	13,861	963,371	535,319
-30,125	13,947	962,620	535,159
-29,111	13,925	961,850	534,639
-28,096	13,929	960,905	534,103
-27,082	13,901	960,414	533,719
-26,067	13,897	959,765	533,325
-25,052	13,899	958,741	532,741
-24,038	13,855	958,269	532,317
-23,023	13,891	957,573	532,026
-22,009	13,977	956,738	531,817
-20,994	13,881	956,395	531,295
-19,979	13,958	955,613	531,087
-18,965	13,942	954,872	530,605
-17,950	13,951	954,435	530,367
-16,936	13,868	953,754	529,703
-15,921	13,939	952,994	529,488
-14,906	13,836	952,294	528,749
-13,892	13,800	951,583	528,217
-12,877	13,818	950,971	527,912
-11,863	13,763	950,331	527,360
-10,848	13,783	949,772	527,093
-9,833	13,872	949,365	527,131
-8,819	13,860	948,623	526,660
-7,804	13,806	948,172	526,218
-6,790	13,777	947,668	525,823
-5,775	13,854	946,947	525,648
-4,760	13,845	946,297	525,238
-3,746	13,775	945,788	524,713
-2,731	13,661	945,064	523,925
-1,717	13,700	944,293	523,602
-0,702	13,701	943,618	523,210
0,313	13,502	942,874	522,956
1,327	16,530	940,720	531,300
2,342	25,332	795,567	472,701
3,356	21,591	460,246	267,695
4,371	-4,910	317,460	156,183
5,386	-8,755	299,163	143,238
6,400	-10,686	293,075	138,375
7,415	-11,117	290,612	136,772
8,429	-11,223	288,925	135,861
9,444	-11,450	288,227	135,297
10,459	-11,218	287,356	135,104
11,473	-11,323	286,926	134,786
12,488	-11,291	286,086	134,411
13,502	-11,133	285,500	134,278
14,517	-11,355	285,508	134,053
15,531	-11,254	284,866	133,838
16,546	-11,366	284,713	133,645
17,561	-11,367	284,103	133,346
18,575	-11,190	283,887	133,405
19,590	-11,415	283,544	133,013
20,604	-11,277	283,158	132,954
21,619	-11,389	282,746	132,640
22,634	-11,330	282,569	132,603
23,648	-11,218	282,016	132,440
24,663	-11,294	281,937	132,318
25,677	-11,291	281,536	132,120
26,692	-11,366	281,371	131,958
27,707	-11,299	281,073	131,872
28,721	-11,375	280,799	131,659
29,736	-11,284	280,550	131,618
30,750	-11,207	280,068	131,453
31,765	-11,312	279,856	131,241
32,780	-11,363	279,729	131,122
33,794	-11,264	279,419	131,059
34,809	-11,236	279,215	130,978
35,823	-11,286	278,904	130,773
36,838	-11,316	278,671	130,624
37,853	-11,468	278,431	130,355
38,867	-11,241	278,132	130,419
39,882	-11,367	277,837	130,149
40,896	-11,416	277,738	130,045
41,911	-11,491	277,328	129,770
42,926	-11,446	277,155	129,721
43,940	-11,487	276,845	129,525
44,955	-11,294	276,606	129,584
45,969	-11,526	276,477	129,293
46,984	-11,474	276,185	129,194
47,999	-11,731	275,938	128,826
49,013	-11,924	275,618	128,483
50,028	-11,946	275,480	128,386
51,042	-12,071	275,167	128,111
52,057	-11,975	274,760	128,001
53,071	-11,941	274,779	128,030
54,086	-11,825	274,493	127,994
55,101	-11,604	274,351	128,123
56,115	-11,588	274,166	128,041
57,130	-11,330	274,017	128,200
58,144	-11,307	273,853	128,133
59,159	-10,994	273,570	128,281
60,174	-11,326	273,284	127,826
61,188	-11,316	273,301	127,833
62,203	-11,105	272,787	127,776
63,217	-11,180	272,570	127,594
64,232	-11,268	272,424	127,433
65,247	-11,087	272,223	127,495
66,261	-11,272	271,978	127,198
67,276	-11,206	271,538	127,041
68,290	-11,740	271,489	126,513
69,305	-11,677	271,204	126,428
70,320	-11,462	270,948	126,495
71,334	-11,348	270,784	126,512
72,349	-11,299	270,737	126,525
73,363	-11,217	270,351	126,408
74,378	-11,253	270,217	126,301
75,393	-11,112	269,997	126,317
76,407	-11,244	269,515	125,958
77,422	-11,295	269,528	125,907
78,436	-11,179	269,400	125,943
79,451	-11,184	268,889	125,687
80,466	-11,238	268,756	125,565
81,480	-11,361	268,602	125,370
82,495	-11,299	268,494	125,365
83,509	-11,301	268,300	125,261
84,524	-11,332	267,955	125,060
85,539	-11,485	267,886	124,878
86,553	-11,543	267,645	124,702
87,568	-11,514	267,349	124,579
88,582	-11,509	267,227	124,515
89,597	-11,473	266,857	124,364
90,611	-11,350	266,716	124,399
91,626	-11,116	266,592	124,542
92,641	-11,246	266,490	124,366
93,655	-11,291	266,198	124,178
94,670	-11,218	265,964	124,123
95,684	-11,352	265,810	123,920
96,699	-11,266	265,596	123,886
97,714	-11,484	265,406	123,590
98,728	-11,382	265,221	123,585
99,743	-11,645	264,856	123,167
100,757	-11,367	264,568	123,272
101,772	-11,438	264,510	123,170
102,787	-11,354	264,301	123,137
103,801	-11,152	264,004	123,169
104,816	-11,305	263,984	123,012
105,830	-11,119	263,771	123,068
106,845	-11,146	263,618	122,962
107,860	-11,244	263,487	122,801
108,874	-11,321	263,213	122,595
109,889	-11,205	262,941	122,559
110,903	-11,139	262,605	122,451
111,918	-11,245	262,465	122,281
112,933	-11,199	262,398	122,279
113,947	-11,294	262,246	122,113
114,962	-11,257	262,122	122,078
115,976	-11,234	261,865	121,968
116,991	-11,319	261,679	121,794
118,006	-11,206	261,439	121,772
119,020	-11,184	261,395	121,760
120,035	-11,105	261,075	121,670
121,049	-11,188	260,942	121,524
122,064	-11,196	260,837	121,457
123,079	-11,142	260,494	121,334
124,093	-11,444	260,314	120,973
125,108	-11,285	260,041	120,975
126,122	-11,785	259,819	120,421
127,137	-11,725	259,530	120,330
128,151	-11,464	259,496	120,532
129,166	-11,344	259,233	120,505
130,181	-11,664	259,155	120,177
131,195	-11,621	258,791	120,035
132,210	-11,313	258,624	120,217
133,224	-11,308	258,569	120,185
134,239	-11,196	258,220	120,110
135,254	-11,192	258,237	120,110
136,268	-11,227	257,937	119,930
137,283	-11,455	257,621	119,573
138,297	-11,668	257,602	119,369
139,312	-11,628	257,323	119,263
140,327	-11,466	257,105	119,292
141,341	-11,097	257,051	119,577
142,356	-11,067	256,860	119,504
143,370	-11,149	256,725	119,360
144,385	-10,812	256,371	119,476
145,400	-10,863	256,141	119,314
146,414	-11,336	256,160	118,903
147,429	-11,224	255,961	118,896
148,443	-11,200	255,699	118,785
149,458	-10,954	255,602	118,942
150,473	-10,906	255,287	118,826
151,487	-11,136	255,281	118,615
152,502	-10,973	255,014	118,620
153,516	-11,142	254,747	118,340
154,531	-11,143	254,627	118,273
155,546	-10,894	254,351	118,348
156,560	-11,169	254,385	118,117
157,575	-11,476	254,033	117,679
158,589	-11,087	253,791	117,890
159,604	-10,930	253,550	117,903
160,619	-11,050	253,329	117,687
161,633	-11,157	253,189	117,519
162,648	-10,952	253,116	117,650
163,662	-10,830	252,853	117,621
164,677	-10,909	252,679	117,463
165,692	-10,977	252,576	117,347
166,706	-11,017	252,441	117,239
167,721	-10,879	252,278	117,271
168,735	-11,060	252,158	117,050
169,750	-11,036	251,919	116,949
170,764	-10,847	251,900	117,091
171,779	-10,999	251,772	116,892
172,794	-11,045	251,623	116,773
173,808	-11,146	251,318	116,535
174,823	-11,507	251,056	116,099
175,837	-11,770	250,845	115,767
176,852	-11,112	250,624	116,212
177,867	-11,160	250,646	116,171
178,881	-11,011	250,575	116,253
179,896	-11,060	250,247	116,050
180,910	-10,855	250,050	116,120
181,925	-10,899	249,872	115,990
182,940	-11,017	249,729	115,814
183,954	-10,916	249,610	115,834
184,969	-11,002	249,304	115,609
185,983	-11,124	249,383	115,533
186,998	-10,889	249,152	115,613
188,013	-11,027	248,981	115,407
189,027	-10,823	248,718	115,446
190,042	-10,957	248,620	115,278
191,056	-11,024	248,359	115,091
192,071	-11,024	248,228	115,020
193,086	-10,949	248,009	114,970
194,100	-11,243	247,968	114,696
195,115	-11,018	247,599	114,703
196,129	-11,050	247,457	114,600
197,144	-10,974	247,185	114,527
198,159	-11,041	247,172	114,455
199,173	-10,895	246,845	114,414
200,188	-11,059	246,593	114,152
201,202	-11,392	246,408	113,780
202,217	-11,478	246,215	113,609
203,232	-11,450	245,848	113,453
204,246	-11,147	245,918	113,726
205,261	-10,898	245,863	113,896
206,275	-12,107	245,495	112,717
207,290	-8,350	246,958	116,497
208,304	0,185	249,651	124,897
209,319	4,123	250,797	128,756
210,334	4,710	250,666	129,168
211,348	5,050	250,722	129,468
212,363	5,078	250,723	129,481
213,377	5,193	250,420	129,409
214,392	5,188	250,188	129,273
215,407	4,971	250,104	129,038
216,421	4,810	249,854	128,764
217,436	5,033	249,881	128,951
218,450	5,186	249,601	128,922
219,465	5,040	249,318	128,644
220,480	4,941	249,160	128,468
221,494	4,600	249,077	128,131
222,509	4,641	248,873	128,049
223,523	4,815	248,656	128,070
224,538	4,122	248,541	127,426
225,553	4,673	248,118	127,653
226,567	4,544	248,161	127,557
227,582	4,575	247,920	127,447
228,596	4,548	247,918	127,412
229,611	4,402	247,580	127,108
230,626	4,154	247,459	126,830
231,640	4,065	247,262	126,644
232,655	4,592	247,029	126,947
233,669	4,346	246,966	126,701
234,684	4,207	246,644	126,411
235,699	4,602	246,639	126,721
236,713	4,615	246,622	126,711
237,728	4,460	246,180	126,346
238,742	4,247	246,181	126,160
239,757	4,255	245,773	125,947
240,772	4,426	245,694	126,035
241,786	4,238	245,694	125,871
242,801	4,206	245,474	125,720
243,815	4,354	245,359	125,771
244,830	4,696	245,155	125,934
245,844	4,531	244,996	125,707
246,859	4,241	244,882	125,401
247,874	4,371	244,783	125,444
248,888	4,584	244,520	125,471
249,903	4,320	244,420	125,195
250,917	4,543	244,257	125,281
251,932	4,759	244,144	125,387
252,947	4,529	243,991	125,111
253,961	4,455	243,666	124,873
254,976	4,591	243,615	124,946
255,990	4,571	243,470	124,844
257,005	4,415	243,199	124,568
258,020	4,062	243,125	124,235
259,034	4,376	242,890	124,356
260,049	4,599	242,790	124,474
261,063	4,161	242,654	124,041
262,078	4,171	242,472	123,944
263,093	4,540	242,391	124,188
264,107	4,508	242,222	124,066
265,122	4,365	242,050	123,851
266,136	4,442	241,953	123,852
267,151	4,803	241,765	124,034
268,166	4,396	241,528	123,576
269,180	4,315	241,410	123,439
270,195	4,679	241,434	123,733
271,209	5,003	241,295	123,909
272,224	4,539	240,919	123,334
273,239	3,931	240,723	122,738
274,253	4,021	240,611	122,742
275,268	4,469	240,419	122,989
276,282	4,422	240,413	122,938
277,297	4,201	240,047	122,564
278,312	4,137	240,205	122,584
279,326	4,281	239,904	122,533
280,341	4,392	239,765	122,539
281,355	4,306	239,545	122,348
282,370	4,530	239,375	122,427
283,384	4,548	239,246	122,365
284,399	4,279	239,171	122,102
285,414	4,308	238,829	121,940
286,428	4,370	238,646	121,884
287,443	4,331	238,589	121,814
288,457	4,478	238,482	121,865
289,472	4,547	238,393	121,863
290,487	4,272	238,264	121,569
291,501	4,316	237,958	121,437
292,516	4,123	237,802	121,194
293,530	3,998	237,507	120,935
294,545	4,351	237,540	121,218
295,560	4,645	237,309	121,320
296,574	4,273	237,159	120,941
297,589	4,085	237,189	120,798
298,603	4,350	237,127	120,964
299,618	4,734	236,717	121,044
300,633	4,681	236,734	121,001
301,647	4,588	236,616	120,856
302,662	4,757	236,545	120,942
303,676	5,026	236,337	121,035
304,691	4,654	236,298	120,713
305,706	4,568	236,153	120,562
306,720	4,754	235,872	120,552
307,735	4,653	235,772	120,412
308,749	4,552	235,547	120,208
309,764	4,334	235,421	119,963
310,779	4,266	235,085	119,728
311,793	3,918	234,909	119,358
312,808	4,086	234,664	119,353
313,822	4,006	234,674	119,286
314,837	4,107	234,540	119,285
315,852	4,211	234,303	119,235
316,866	4,206	234,250	119,193
317,881	4,370	234,077	119,221
318,895	4,384	233,937	119,150
319,910	4,408	233,913	119,146
320,925	4,636	233,681	119,192
321,939	4,305	233,485	118,827
322,954	4,448	233,461	118,914
323,968	4,520	233,246	118,849
324,983	4,529	233,131	118,787
325,997	4,682	232,899	118,776
327,012	4,780	232,867	118,824
328,027	4,446	232,697	118,471
329,041	4,698	232,697	118,653
330,056	5,001	232,705	118,879
331,070	5,269	232,404	118,920
332,085	4,879	232,176	118,495
333,100	4,499	232,049	118,128
334,114	4,457	231,914	118,017
335,129	4,703	231,703	118,087
336,143	4,874	231,754	118,233
337,158	4,986	231,332	118,093
338,173	4,700	231,241	117,818
339,187	4,349	231,056	117,446
340,202	4,665	230,959	117,627
341,216	4,565	230,729	117,423
342,231	4,423	230,465	117,170
343,246	4,367	230,580	117,175
344,260	4,677	230,427	117,323
345,275	4,717	230,349	117,303
346,289	4,861	230,141	117,296
347,304	4,631	230,022	117,051
348,319	4,591	229,878	116,937
349,333	4,732	229,555	116,868
350,348	4,426	229,434	116,565
351,362	4,411	229,338	116,495
352,377	4,471	229,034	116,376
353,392	4,128	228,991	116,085
354,406	4,254	228,720	116,031
355,421	195,443	1319,525	1394,809
356,435	156,751	1452,394	1394,773
