DTS Sentinel unit serial number:	SN410029Multiplexer serial number:	ORYXHardware model number:	OX2-SRSoftware version number:	ORYX F/W v4,00 Oryx Data Collector v3.7.2.0data status	okinstallation	B5 Nyhavnadifferential loss correction	single-endedforward channel	channel 2reverse channel	N/Adate	2023/12/12time	13:52:13forward acquisition time	300,00reverse acquisition time	0,00gamma	499,1914k internal	0,3157k external	0,3157temperature offset calibration	1,0000default loss term (dB/km)	0,3820temperature slope calibration	1,0000multiplexer offset coefficient	1,0000multiplexer slope coefficient	1,0000fibre end	0,00T internal ref (°C)	15,74T ext. ref 1 (°C)	-0,30T ext. ref 2 (°C)	-0,52length (m)	temperature (°C)	Stokes	anti-Stokes-744,400	-35,426	0,073	0,029
-743,385	-88,285	-0,367	0,080
-742,371	683,189	0,040	0,077
-741,356	-192,897	-0,311	-0,002
-740,342	50,414	0,148	0,103
-739,327	-61,311	-0,300	0,092
-738,312	-83,155	0,190	-0,045
-737,298	-89,516	-0,257	0,055
-736,283	378,553	0,114	0,173
-735,269	-149,153	-0,345	0,020
-734,254	435,352	0,095	-0,153
-733,239	-73,640	-0,347	-0,093
-732,225	-62,989	0,221	0,067
-731,210	800,000	-0,023	0,057
-730,196	8,759	-0,048	-0,027
-729,181	800,000	-0,026	-0,061
-728,167	163,272	-0,074	-0,076
-727,152	-200,000	0,004	0,131
-726,137	-200,000	0,001	-0,054
-725,123	279,639	-0,117	-0,155
-724,108	-4,165	-0,032	-0,016
-723,094	-200,000	0,016	0,085
-722,079	705,451	-0,035	0,068
-721,064	-200,000	-0,034	-0,121
-720,050	3,171	-0,114	-0,061
-719,035	-200,000	-0,008	0,055
-718,021	51,724	0,049	0,034
-717,006	339,865	-0,068	-0,098
-715,991	-21,786	-0,088	-0,039
-714,977	-16,953	-0,102	-0,047
-713,962	-5,567	-0,032	-0,016
-712,948	800,000	0,011	-0,028
-711,933	-200,000	0,017	0,121
-710,918	-101,037	0,114	-0,020
-709,904	189,623	-0,103	-0,114
-708,889	-200,000	-0,001	-0,187
-707,875	678,259	-0,078	-0,150
-706,860	-45,031	-0,082	0,030
-705,845	705,950	0,043	-0,084
-704,831	-107,259	0,083	-0,013
-703,816	57,935	0,003	-0,002
-702,802	789,383	-0,088	0,178
-701,787	-200,000	-0,032	0,158
-700,772	800,000	0,025	-0,061
-699,758	365,895	-0,060	-0,089
-698,743	131,532	0,054	0,051
-697,729	107,226	-0,027	0,023
-696,714	-200,000	0,033	0,117
-695,699	535,901	-0,022	0,039
-694,685	-131,324	-0,121	-0,012
-693,670	-75,397	-0,015	0,004
-692,656	-108,404	0,156	-0,024
-691,641	-134,046	0,109	0,010
-690,627	599,365	-0,056	-0,102
-689,612	193,935	-0,034	-0,037
-688,597	-200,000	0,002	0,012
-687,583	-139,819	0,080	-0,006
-686,568	-200,000	0,013	0,090
-685,554	-106,928	-0,105	-0,017
-684,539	32,358	0,068	-0,043
-683,524	159,232	0,113	0,116
-682,510	565,496	0,079	0,141
-681,495	-100,673	0,046	-0,008
-680,481	111,846	-0,014	-0,012
-679,466	-200,000	0,022	-0,188
-678,451	-200,000	-0,002	-0,026
-677,437	-200,000	-0,012	-0,109
-676,422	-200,000	-0,008	-0,066
-675,408	202,976	0,066	0,075
-674,393	-117,594	-0,130	-0,017
-673,378	800,000	-0,059	-0,172
-672,364	546,631	-0,065	-0,115
-671,349	30,638	0,030	-0,019
-670,335	800,000	0,065	0,171
-669,320	-200,000	0,004	-0,022
-668,305	-101,122	-0,063	0,011
-667,291	-200,000	-0,018	0,093
-666,276	-200,000	-0,007	0,145
-665,262	279,823	-0,044	0,058
-664,247	-200,000	0,016	-0,093
-663,232	-77,332	-0,150	-0,038
-662,218	204,577	-0,076	0,087
-661,203	-200,000	0,008	0,045
-660,189	2,819	0,054	0,029
-659,174	71,784	-0,091	-0,070
-658,159	-111,716	-0,101	0,015
-657,145	273,950	0,073	-0,096
-656,130	-113,179	0,080	-0,012
-655,116	141,140	0,059	0,057
-654,101	-200,000	0,008	0,109
-653,086	148,895	-0,038	0,037
-652,072	10,266	-0,048	0,026
-651,057	800,000	-0,060	-0,162
-650,043	-200,000	0,032	0,177
-649,028	-21,391	0,018	-0,008
-648,014	69,296	-0,043	0,032
-646,999	600,778	-0,033	0,061
-645,984	88,553	-0,071	0,058
-644,970	-200,000	0,025	-0,140
-643,955	-200,000	0,015	-0,067
-642,941	-200,000	0,005	-0,059
-641,926	800,000	-0,047	0,116
-640,911	41,937	0,066	-0,044
-639,897	177,084	0,071	-0,076
-638,882	-200,000	-0,008	0,070
-637,868	800,000	-0,011	-0,031
-636,853	-11,208	-0,058	0,028
-635,838	800,000	-0,028	0,071
-634,824	-106,383	-0,122	0,020
-633,809	-51,990	0,055	0,019
-632,795	800,000	0,013	0,030
-631,780	259,755	-0,027	-0,034
-630,765	5,854	-0,079	-0,043
-629,751	-200,000	0,013	-0,093
-628,736	800,000	-0,077	-0,195
-627,722	800,000	0,009	0,020
-626,707	59,722	0,037	0,027
-625,692	-131,642	-0,047	0,004
-624,678	433,864	0,048	-0,076
-623,663	800,000	0,083	-0,218
-622,649	-33,371	-0,059	-0,024
-621,634	-45,104	-0,097	-0,035
-620,619	112,736	0,022	0,020
-619,605	248,313	0,059	0,073
-618,590	116,696	0,043	0,039
-617,576	742,406	-0,027	-0,054
-616,561	-47,566	-0,099	0,035
-615,546	-56,158	0,078	0,025
-614,532	-74,482	-0,080	-0,021
-613,517	27,344	-0,125	-0,077
-612,503	-200,000	0,003	-0,026
-611,488	65,909	0,159	-0,118
-610,474	-17,158	-0,087	-0,040
-609,459	18,843	-0,118	-0,069
-608,444	-200,000	-0,008	0,089
-607,430	64,444	-0,048	0,036
-606,415	101,586	-0,036	-0,031
-605,401	85,488	-0,082	0,066
-604,386	-82,179	0,133	0,032
-603,371	-200,000	0,014	0,060
-602,357	-200,000	-0,016	-0,073
-601,342	-54,036	-0,095	0,032
-600,328	-25,693	0,031	-0,013
-599,313	-133,583	0,040	-0,004
-598,298	187,619	-0,069	0,075
-597,284	-123,284	-0,067	-0,008
-596,269	24,106	-0,117	-0,070
-595,255	498,120	0,005	-0,008
-594,240	-134,772	0,058	0,005
-593,225	-31,490	0,027	0,011
-592,211	-25,353	0,092	0,040
-591,196	29,987	0,066	0,041
-590,182	-200,000	-0,002	-0,050
-589,167	580,688	0,014	-0,026
-588,152	800,000	0,050	0,157
-587,138	-48,175	-0,054	-0,019
-586,123	-200,000	-0,007	-0,031
-585,109	196,293	-0,101	-0,113
-584,094	-17,473	0,114	-0,052
-583,079	-25,231	-0,033	-0,014
-582,065	586,178	-0,042	-0,076
-581,050	-200,000	0,032	0,133
-580,036	21,757	-0,036	-0,022
-579,021	300,005	-0,076	0,103
-578,006	50,683	-0,024	-0,017
-576,992	-1,590	-0,072	0,037
-575,977	167,757	0,020	0,021
-574,963	280,760	-0,055	0,072
-573,948	482,556	0,087	0,146
-572,934	221,529	0,014	-0,017
-571,919	49,449	-0,052	-0,036
-570,904	-102,364	-0,122	-0,021
-569,890	-29,166	0,066	0,028
-568,875	69,693	-0,034	0,025
-567,861	800,000	0,065	0,167
-566,846	76,275	0,034	-0,026
-565,831	107,472	-0,079	-0,069
-564,817	-45,414	0,145	0,052
-563,802	-63,220	-0,276	-0,083
-562,788	-8,476	0,048	-0,023
-561,773	541,654	0,058	-0,102
-560,758	35,856	-0,092	0,059
-559,744	-164,266	-0,118	-0,004
-558,729	-10,072	-0,118	0,057
-557,715	751,766	-0,008	0,016
-556,700	800,000	0,038	-0,107
-555,685	800,000	-0,074	-0,181
-554,671	800,000	-0,013	0,041
-553,656	-151,153	0,118	0,006
-552,642	-147,782	0,060	0,004
-551,627	54,853	0,104	-0,073
-550,612	28,616	-0,093	-0,057
-549,598	-200,000	-0,001	0,076
-548,583	160,725	0,007	0,007
-547,569	-83,568	0,015	0,004
-546,554	800,000	0,020	0,056
-545,539	72,616	-0,075	0,057
-544,525	106,438	-0,041	0,035
-543,510	541,100	0,051	0,089
-542,496	47,165	0,033	0,023
-541,481	-200,000	-0,025	-0,083
-540,466	-200,000	-0,004	-0,040
-539,452	-74,043	-0,024	0,006
-538,437	57,106	-0,168	0,120
-537,423	-200,000	0,012	0,073
-536,408	800,000	-0,036	0,098
-535,393	-15,741	-0,143	-0,066
-534,379	-200,000	0,029	-0,139
-533,364	292,323	-0,074	0,099
-532,350	113,373	0,154	0,137
-531,335	800,000	-0,052	0,114
-530,321	79,933	-0,032	0,025
-529,306	11,197	-0,114	0,063
-528,291	185,074	-0,084	0,092
-527,277	36,498	-0,137	0,088
-526,262	800,000	0,040	0,086
-525,248	210,948	0,096	0,111
-524,233	-53,039	0,047	-0,016
-523,218	800,000	0,012	-0,037
-522,204	-134,355	-0,092	-0,008
-521,189	329,160	0,030	0,043
-520,175	-200,000	0,036	-0,145
-519,160	-200,000	-0,006	-0,103
-518,145	-200,000	0,007	0,069
-517,131	-123,599	0,068	0,008
-516,116	-200,000	-0,003	0,088
-515,102	159,700	-0,053	-0,054
-514,087	800,000	0,068	-0,196
-513,072	20,290	-0,113	-0,067
-512,058	105,651	-0,019	-0,016
-511,043	-37,967	-0,013	0,005
-510,029	-84,877	0,105	-0,024
-509,014	43,426	0,061	0,041
-507,999	-35,844	-0,128	0,050
-506,985	800,000	-0,042	-0,112
-505,970	-164,589	-0,059	-0,002
-504,956	71,711	0,114	0,086
-503,941	589,427	0,006	-0,011
-502,926	-53,725	0,104	0,034
-501,912	109,058	0,039	-0,034
-500,897	-200,000	0,011	-0,087
-499,883	-115,108	0,016	-0,002
-498,868	-1,748	-0,147	-0,075
-497,853	390,346	0,128	-0,195
-496,839	-3,859	-0,020	0,010
-495,824	800,000	0,027	0,067
-494,810	535,686	0,034	0,058
-493,795	5,525	0,069	0,037
-492,781	149,630	0,032	-0,032
-491,766	219,978	0,007	-0,008
-490,751	-34,178	0,137	0,055
-489,737	-79,038	-0,150	-0,037
-488,722	-198,420	0,106	0,000
-487,708	352,350	-0,068	0,099
-486,693	-22,066	0,097	0,043
-485,678	-60,147	0,090	-0,028
-484,664	-200,000	0,016	-0,154
-483,649	128,845	-0,098	-0,091
-482,635	206,423	-0,022	-0,025
-481,620	-166,143	-0,070	-0,002
-480,605	-105,656	0,040	-0,007
-479,591	50,021	-0,056	0,039
-478,576	-200,000	-0,007	-0,047
-477,562	-200,000	-0,017	-0,136
-476,547	-47,821	-0,085	-0,030
-475,532	800,000	0,080	-0,254
-474,518	-200,000	0,029	-0,189
-473,503	-43,048	-0,015	-0,006
-472,489	-200,000	-0,010	0,044
-471,474	-106,534	-0,099	-0,016
-470,459	-17,755	0,057	0,026
-469,445	570,905	0,066	-0,117
-468,430	80,374	-0,096	-0,076
-467,416	-174,474	0,171	0,003
-466,401	-200,000	0,016	-0,069
-465,386	-200,000	-0,029	0,115
-464,372	-5,178	-0,045	0,022
-463,357	137,172	0,013	0,012
-462,343	-200,000	0,010	0,034
-461,328	81,031	-0,087	0,068
-460,313	-131,957	0,038	-0,004
-459,299	-89,372	-0,038	0,008
-458,284	86,560	0,062	0,050
-457,270	41,505	0,013	-0,008
-456,255	31,029	-0,061	0,038
-455,241	-95,559	-0,111	-0,022
-454,226	182,743	0,049	-0,053
-453,211	19,155	0,088	-0,051
-452,197	10,492	0,082	-0,046
-451,182	105,653	0,104	0,089
-450,168	-55,224	0,152	0,050
-449,153	562,545	-0,036	-0,063
-448,138	-38,879	-0,114	-0,043
-447,124	-137,052	0,138	0,011
-446,109	-200,000	-0,006	0,033
-445,095	-55,529	0,033	0,011
-444,080	-200,000	0,018	0,163
-443,065	-107,081	0,090	0,014
-442,051	800,000	-0,039	0,116
-441,036	-22,789	0,087	0,038
-440,022	800,000	-0,027	-0,071
-439,007	-200,000	-0,023	-0,124
-437,992	255,436	0,047	-0,059
-436,978	-200,000	0,017	0,060
-435,963	66,379	-0,051	-0,038
-434,949	-200,000	-0,013	-0,082
-433,934	639,853	-0,023	-0,044
-432,919	-11,448	0,052	-0,025
-431,905	-200,000	-0,017	0,057
-430,890	128,653	0,021	-0,020
-429,876	-200,000	0,014	0,093
-428,861	800,000	0,040	0,101
-427,846	-200,000	0,011	0,089
-426,832	-107,957	-0,051	0,008
-425,817	308,782	-0,039	-0,053
-424,803	-200,000	-0,031	-0,113
-423,788	-85,040	-0,053	-0,012
-422,773	39,257	-0,143	0,093
-421,759	325,086	0,045	-0,063
-420,744	85,945	-0,061	-0,049
-419,730	12,372	-0,108	-0,060
-418,715	-2,108	0,038	0,019
-417,701	169,694	-0,079	-0,082
-416,686	-5,074	-0,064	-0,032
-415,671	-73,356	0,061	-0,016
-414,657	91,244	-0,041	-0,033
-413,642	73,559	0,060	0,046
-412,628	-200,000	0,025	-0,084
-411,613	175,209	-0,082	-0,086
-410,598	-44,231	0,067	0,024
-409,584	800,000	-0,018	0,040
-408,569	24,715	-0,048	-0,029
-407,555	800,000	0,063	0,145
-406,540	1,100	-0,146	0,076
-405,525	-200,000	0,027	-0,108
-404,511	-31,222	-0,075	0,031
-403,496	94,306	0,015	0,012
-402,482	532,769	0,046	-0,080
-401,467	-93,670	0,064	-0,013
-400,452	2,401	0,016	-0,008
-399,438	-200,000	0,018	0,060
-398,423	331,889	-0,033	-0,046
-397,409	-96,762	-0,114	0,022
-396,394	-200,000	0,019	-0,075
-395,379	-200,000	-0,024	-0,083
-394,365	-93,717	-0,046	0,009
-393,350	-85,246	0,078	0,018
-392,336	800,000	0,041	0,132
-391,321	-47,420	-0,111	-0,039
-390,306	29,982	-0,129	0,080
-389,292	47,872	0,010	-0,007
-388,277	-11,803	-0,078	0,037
-387,263	-200,000	0,002	-0,101
-386,248	67,266	-0,088	-0,065
-385,233	85,069	-0,067	-0,054
-384,219	-59,616	-0,099	0,031
-383,204	52,462	-0,029	-0,020
-382,190	-200,000	0,011	-0,050
-381,175	800,000	-0,088	-0,187
-380,160	-200,000	0,024	0,131
-379,146	458,057	0,076	0,124
-378,131	-161,229	0,139	-0,005
-377,117	319,579	-0,103	0,142
-376,102	177,030	-0,046	0,049
-375,088	542,749	0,049	0,086
-374,073	-200,000	-0,008	-0,057
-373,058	-39,806	-0,123	0,046
-372,044	-200,000	-0,018	0,062
-371,029	529,766	-0,097	0,167
-370,015	-179,662	0,058	0,001
-369,000	298,484	-0,056	-0,075
-367,985	31,424	-0,062	-0,039
-366,971	-200,000	0,015	-0,143
-365,956	-200,000	-0,021	0,092
-364,942	493,613	-0,045	0,075
-363,927	-161,400	0,156	0,006
-362,912	46,460	-0,082	0,055
-361,898	-86,133	-0,116	-0,026
-360,883	572,066	0,024	-0,043
-359,869	47,536	0,185	0,125
-358,854	194,119	-0,113	0,125
-357,839	-200,000	0,055	0,180
-356,825	585,958	0,069	0,124
-355,810	800,000	-0,045	0,130
-354,796	124,042	-0,101	-0,092
-353,781	800,000	0,013	-0,035
-352,766	67,020	0,087	-0,064
-351,752	-47,237	-0,142	0,050
-350,737	-72,900	0,111	0,029
-349,723	-59,102	0,078	0,024
-348,708	47,634	-0,049	-0,033
-347,693	800,000	-0,048	-0,151
-346,679	-75,587	-0,022	-0,006
-345,664	-200,000	0,007	-0,122
-344,650	10,896	0,092	0,051
-343,635	-18,946	0,015	-0,007
-342,620	-200,000	0,005	0,145
-341,606	-11,288	0,038	-0,018
-340,591	800,000	-0,010	0,028
-339,577	-200,000	0,009	-0,157
-338,562	58,739	0,128	-0,091
-337,548	-92,903	0,065	0,013
-336,533	-200,000	-0,012	0,110
-335,518	800,000	0,053	0,108
-334,504	800,000	-0,022	-0,061
-333,489	-200,000	-0,015	0,201
-332,475	-102,529	0,106	-0,018
-331,460	-200,000	0,002	0,030
-330,445	123,891	-0,012	0,011
-329,431	-200,000	0,032	0,156
-328,416	-200,000	0,049	0,205
-327,402	678,555	-0,078	0,147
-326,387	-200,000	-0,018	0,140
-325,372	-169,365	-0,208	0,005
-324,358	121,609	-0,119	-0,107
-323,343	-6,413	0,047	0,023
-322,329	121,029	0,067	-0,060
-321,314	-200,000	-0,036	0,123
-320,299	-200,000	-0,031	-0,114
-319,285	-55,914	0,155	-0,050
-318,270	-38,893	0,108	-0,041
-317,256	161,797	-0,128	0,130
-316,241	800,000	-0,048	-0,099
-315,226	13,035	0,056	-0,031
-314,212	318,606	-0,034	0,047
-313,197	240,894	-0,029	-0,035
-312,183	-200,000	-0,001	0,097
-311,168	-200,000	-0,003	-0,039
-310,153	-200,000	-0,003	-0,141
-309,139	141,846	0,083	0,079
-308,124	-57,069	0,078	-0,025
-307,110	403,618	-0,044	-0,067
-306,095	-200,000	0,039	0,134
-305,080	-140,173	-0,123	0,009
-304,066	65,510	0,025	-0,018
-303,051	-200,000	0,011	-0,199
-302,037	-200,000	0,015	-0,051
-301,022	-79,019	0,038	0,009
-300,008	781,112	-0,030	-0,060
-298,993	780,734	0,093	0,186
-297,978	-200,000	-0,004	0,088
-296,964	79,527	0,111	-0,087
-295,949	59,951	-0,140	-0,100
-294,935	-200,000	0,005	-0,076
-293,920	734,684	0,066	-0,129
-292,905	17,723	0,069	-0,040
-291,891	381,758	0,023	0,034
-290,876	-200,000	-0,004	0,100
-289,862	386,124	-0,035	-0,052
-288,847	-200,000	0,004	-0,030
-287,832	665,474	-0,040	-0,075
-286,818	697,478	0,021	0,041
-285,803	-200,000	-0,117	-0,000
-284,789	677,587	0,025	0,048
-283,774	800,000	0,048	0,126
-282,759	-200,000	0,002	0,030
-281,745	800,000	-0,057	-0,119
-280,730	800,000	0,053	-0,115
-279,716	-157,629	-0,127	-0,005
-278,701	14,220	-0,049	0,027
-277,686	-7,966	-0,081	0,040
-276,672	800,000	-0,011	-0,031
-275,657	673,840	0,064	-0,121
-274,643	215,849	0,016	0,018
-273,628	345,320	-0,067	-0,096
-272,613	-20,169	0,149	-0,066
-271,599	347,643	0,043	0,061
-270,584	-200,000	0,004	-0,086
-269,570	-38,165	0,058	0,022
-268,555	-42,746	-0,070	-0,026
-267,540	800,000	-0,035	-0,078
-266,526	115,262	-0,106	-0,093
-265,511	800,000	0,022	-0,059
-264,497	49,667	0,085	-0,058
-263,482	-86,206	0,081	-0,018
-262,467	605,783	0,064	0,116
-261,453	800,000	0,013	0,032
-260,438	194,984	0,052	0,058
-259,424	467,844	0,015	-0,025
-258,409	197,232	0,139	-0,154
-257,395	-200,000	0,005	0,163
-256,380	85,637	0,121	-0,096
-255,365	-200,000	-0,010	0,073
-254,351	147,424	-0,072	0,070
-253,336	-200,000	-0,002	-0,031
-252,322	-23,817	-0,055	0,024
-251,307	800,000	0,029	-0,083
-250,292	-83,640	0,043	-0,010
-249,278	345,319	0,106	0,150
-248,263	-200,000	0,033	0,156
-247,249	-92,411	-0,078	-0,016
-246,234	16,984	0,065	-0,037
-245,219	150,023	0,076	-0,074
-244,205	104,171	0,047	-0,040
-243,190	-200,000	-0,000	0,030
-242,176	-80,918	-0,017	0,004
-241,161	31,792	0,099	0,061
-240,146	-200,000	-0,022	0,127
-239,132	246,692	-0,059	0,072
-238,117	800,000	0,049	-0,106
-237,103	800,000	-0,033	0,084
-236,088	-200,000	-0,004	0,075
-235,073	65,545	0,108	-0,079
-234,059	-121,345	0,126	0,015
-233,044	-200,000	-0,011	-0,073
-232,030	-200,000	0,027	-0,143
-231,015	-200,000	0,026	-0,162
-230,000	-200,000	0,004	-0,083
-228,986	195,836	-0,069	-0,076
-227,971	800,000	0,024	0,049
-226,957	-107,914	0,101	0,016
-225,942	165,446	0,089	0,091
-224,927	41,272	0,067	-0,044
-223,913	-117,156	-0,092	0,012
-222,898	-130,257	0,126	0,012
-221,884	135,809	0,044	-0,042
-220,869	221,950	0,140	-0,163
-219,855	-72,071	-0,142	-0,038
-218,840	-200,000	0,022	0,124
-217,825	299,663	-0,021	-0,027
-216,811	800,000	-0,010	0,028
-215,796	137,046	0,026	-0,024
-214,782	224,508	0,122	-0,143
-213,767	-20,387	0,048	0,021
-212,752	-200,000	-0,013	0,088
-211,738	782,418	0,122	0,243
-210,723	-12,591	-0,030	-0,014
-209,709	196,564	0,052	-0,057
-208,694	-87,476	0,042	0,009
-207,679	-20,702	-0,021	-0,009
-206,665	-200,000	-0,018	0,146
-205,650	-200,000	0,030	-0,134
-204,636	719,267	-0,054	0,104
-203,621	337,031	-0,034	-0,048
-202,606	618,865	0,040	0,073
-201,592	-200,000	-0,005	-0,105
-200,577	683,778	0,074	-0,140
-199,563	287,438	0,097	-0,127
-198,548	800,000	0,036	-0,082
-197,533	32,087	0,075	0,046
-196,519	150,678	-0,058	0,057
-195,504	221,065	-0,104	0,120
-194,490	-200,000	0,017	-0,073
-193,475	-200,000	0,017	-0,121
-192,460	-138,591	0,202	-0,016
-191,446	80,520	0,112	0,087
-190,431	314,896	-0,074	0,101
-189,417	-44,376	0,051	0,018
-188,402	64,174	-0,109	0,079
-187,387	-200,000	0,014	-0,055
-186,373	-200,000	-0,000	-0,051
-185,358	-13,246	-0,053	-0,025
-184,344	-122,586	0,044	0,005
-183,329	206,970	-0,064	0,072
-182,315	-200,000	-0,010	0,068
-181,300	-200,000	-0,032	0,104
-180,285	287,332	-0,060	-0,079
-179,271	-77,299	0,171	0,043
-178,256	-200,000	0,015	0,060
-177,242	-200,000	0,012	-0,059
-176,227	800,000	0,034	0,106
-175,212	488,105	-0,074	-0,123
-174,198	148,477	0,047	-0,045
-173,183	725,590	-0,029	-0,057
-172,169	340,117	0,060	0,085
-171,154	6,213	-0,051	-0,027
-170,139	800,000	0,010	0,021
-169,125	162,970	0,127	-0,128
-168,110	87,030	0,079	0,063
-167,096	-190,015	0,018	0,000
-166,081	-147,337	0,084	0,005
-165,066	-124,436	-0,141	0,016
-164,052	-43,372	-0,047	0,017
-163,037	-30,125	-0,030	-0,012
-162,023	734,511	-0,059	0,114
-161,008	-200,000	-0,012	0,079
-159,993	-90,928	-0,134	0,028
-158,979	-20,736	-0,028	-0,012
-157,964	192,083	0,098	-0,107
-156,950	105,458	-0,048	-0,040
-155,935	800,000	0,038	0,115
-154,920	-200,000	-0,005	0,105
-153,906	-200,000	0,026	0,152
-152,891	58,227	-0,070	0,049
-151,877	86,202	-0,009	-0,007
-150,862	447,481	-0,046	-0,073
-149,847	37,960	0,058	0,037
-148,833	514,038	0,075	0,126
-147,818	800,000	-0,008	-0,017
-146,804	-200,000	0,042	0,186
-145,789	-58,864	0,115	-0,036
-144,775	490,782	0,028	-0,047
-143,760	-200,000	0,029	-0,107
-142,745	575,344	0,060	-0,107
-141,731	220,969	-0,062	-0,071
-140,716	190,556	0,015	-0,016
-139,702	-200,000	-0,008	0,077
-138,687	53,886	0,071	-0,049
-137,672	800,000	0,034	-0,086
-136,658	-3,385	0,097	-0,048
-135,643	-200,000	-0,007	-0,025
-134,629	800,000	0,050	-0,114
-133,614	-77,896	0,039	-0,010
-132,599	196,624	-0,032	-0,036
-131,585	-124,214	0,091	0,010
-130,570	42,127	-0,046	-0,030
-129,556	209,401	0,047	-0,053
-128,541	800,000	-0,005	0,013
-127,526	-19,135	0,030	-0,013
-126,512	-79,888	-0,019	0,004
-125,497	652,297	0,032	0,059
-124,483	-200,000	0,004	-0,038
-123,468	800,000	-0,026	0,067
-122,453	-77,664	-0,047	0,012
-121,439	-200,000	0,015	-0,053
-120,424	800,000	-0,058	0,129
-119,410	67,545	0,075	0,055
-118,395	-200,000	0,020	0,075
-117,380	326,464	0,059	-0,082
-116,366	-24,097	-0,179	-0,076
-115,351	17,599	-0,091	-0,052
-114,337	304,804	-0,094	-0,126
-113,322	-30,520	-0,030	-0,012
-112,307	580,914	0,022	-0,038
-111,293	-200,000	0,031	-0,104
-110,278	225,899	0,120	0,141
-109,264	613,702	-0,060	-0,109
-108,249	280,979	-0,051	-0,066
-107,234	-61,707	0,099	-0,030
-106,220	-70,236	0,104	-0,028
-105,205	154,586	0,037	-0,037
-104,191	-200,000	-0,021	-0,078
-103,176	800,000	0,013	-0,031
-102,162	-200,000	0,010	0,050
-101,147	95,018	0,036	-0,029
-100,132	800,000	-0,062	0,145
-99,118	-200,000	0,006	-0,090
-98,103	-200,000	-0,004	0,093
-97,089	800,000	0,065	-0,141
-96,074	49,410	-0,082	-0,055
-95,059	800,000	0,037	-0,075
-94,045	56,335	-0,109	0,076
-93,030	78,463	-0,127	-0,098
-92,016	187,642	-0,073	0,078
-91,001	-133,806	0,135	0,012
-89,986	-5,226	-0,020	-0,010
-88,972	74,474	0,039	-0,030
-87,957	42,487	0,212	-0,139
-86,943	7,461	0,038	-0,020
-85,928	800,000	0,071	-0,161
-84,913	674,762	-0,084	0,157
-83,899	22,211	-0,109	0,064
-82,884	800,000	0,035	0,109
-81,870	-5,909	0,168	0,083
-80,855	225,262	-0,029	0,033
-79,840	-12,694	-0,046	0,022
-78,826	800,000	-0,055	-0,146
-77,811	-92,977	-0,184	0,037
-76,797	38,370	0,100	-0,064
-75,782	128,786	-0,037	0,034
-74,767	800,000	0,099	0,199
-73,753	157,625	0,052	-0,052
-72,738	38,612	0,041	-0,026
-71,724	771,800	-0,038	-0,074
-70,709	800,000	-0,037	-0,086
-69,694	800,000	-0,042	0,085
-68,680	-200,000	0,004	0,153
-67,665	1,121	-0,065	0,033
-66,651	-200,000	0,007	-0,104
-65,636	-200,000	0,007	0,051
-64,622	-132,063	-0,042	-0,004
-63,607	345,176	-0,121	-0,172
-62,592	-200,000	-0,007	-0,086
-61,578	-200,000	-0,009	-0,071
-60,563	265,889	0,057	0,071
-59,549	-62,434	-0,150	0,045
-58,534	1,639	-1,876	-0,967
-57,519	-200,000	-0,306	-1,078
-56,505	-200,000	-1,092	-4,911
-55,490	12,411	0,842	0,465
-54,476	800,000	5,270	12,096
-53,461	-200,000	17,271	284,589
-52,446	800,000	723,823	2226,616
-51,432	542,471	1639,795	2817,685
-50,417	111,578	1631,506	1412,456
-49,403	75,851	1286,221	974,988
-48,388	32,627	1028,154	636,668
-47,373	20,216	990,217	572,234
-46,359	18,704	978,154	560,281
-45,344	16,130	974,044	549,477
-44,330	16,292	972,715	549,237
-43,315	15,829	970,796	546,617
-42,300	15,738	969,913	545,802
-41,286	15,711	968,947	545,148
-40,271	15,735	967,792	544,555
-39,257	15,798	966,862	544,216
-38,242	15,771	966,083	543,667
-37,227	15,794	965,426	543,350
-36,213	15,743	964,367	542,569
-35,198	15,730	963,480	542,007
-34,184	15,775	962,772	541,731
-33,169	15,718	961,802	540,980
-32,154	15,784	960,940	540,688
-31,140	15,781	959,884	540,060
-30,125	15,787	959,402	539,788
-29,111	15,746	958,474	539,113
-28,096	15,773	957,936	538,874
-27,082	15,779	957,383	538,561
-26,067	15,749	956,374	537,875
-25,052	15,788	955,465	537,470
-24,038	15,761	955,018	537,111
-23,023	15,753	954,265	536,641
-22,009	15,853	953,441	536,477
-20,994	15,803	953,008	536,050
-19,979	15,822	952,288	535,684
-18,965	15,781	951,940	535,336
-17,950	15,704	951,289	534,703
-16,936	15,764	950,503	534,431
-15,921	15,701	949,749	533,784
-14,906	15,590	949,438	533,236
-13,892	15,688	948,524	533,012
-12,877	15,639	947,786	532,421
-11,863	15,585	947,316	531,965
-10,848	15,674	946,634	531,843
-9,833	15,820	946,232	532,061
-8,819	15,718	945,482	531,293
-7,804	15,689	945,059	530,942
-6,790	15,679	944,415	530,529
-5,775	15,694	943,882	530,254
-4,760	15,702	943,128	529,835
-3,746	15,698	942,479	529,439
-2,731	15,543	941,869	528,582
-1,717	15,534	941,081	528,091
-0,702	15,477	940,628	527,638
0,313	15,319	939,866	527,506
1,327	18,449	937,700	536,111
2,342	27,324	795,235	478,198
3,356	24,257	459,459	271,568
4,371	-2,556	314,361	157,322
5,386	-6,638	296,112	144,048
6,400	-8,632	290,175	139,168
7,415	-9,067	287,602	137,494
8,429	-9,319	286,114	136,523
9,444	-9,442	285,297	136,001
10,459	-9,371	284,567	135,711
11,473	-9,173	283,890	135,567
12,488	-9,220	283,570	135,358
13,502	-9,245	282,898	135,000
14,517	-9,462	282,593	134,633
15,531	-9,353	281,913	134,402
16,546	-9,387	281,619	134,217
17,561	-9,390	281,287	134,044
18,575	-9,537	281,007	133,758
19,590	-9,494	280,474	133,533
20,604	-9,368	280,388	133,601
21,619	-9,729	280,013	133,065
22,634	-9,516	279,726	133,121
23,648	-9,450	279,211	132,927
24,663	-9,476	278,957	132,768
25,677	-9,526	278,879	132,672
26,692	-9,485	278,578	132,556
27,707	-9,516	278,256	132,362
28,721	-9,513	278,009	132,236
29,736	-9,650	277,675	131,935
30,750	-9,558	277,414	131,886
31,765	-9,601	277,202	131,733
32,780	-9,386	276,898	131,780
33,794	-9,598	276,608	131,430
34,809	-9,515	276,410	131,403
35,823	-9,388	276,105	131,365
36,838	-9,670	275,957	131,018
37,853	-9,435	275,653	131,083
38,867	-9,602	275,469	130,827
39,882	-9,410	275,056	130,799
40,896	-9,733	274,995	130,455
41,911	-9,580	274,786	130,488
42,926	-9,625	274,487	130,293
43,940	-9,694	274,200	130,080
44,955	-9,559	273,817	130,013
45,969	-9,732	273,834	129,847
46,984	-9,933	273,537	129,508
47,999	-10,084	273,271	129,229
49,013	-9,949	272,795	129,118
50,028	-10,309	272,609	128,684
51,042	-10,196	272,491	128,721
52,057	-10,573	272,271	128,256
53,071	-10,305	272,036	128,382
54,086	-10,161	271,838	128,411
55,101	-10,122	271,749	128,394
56,115	-9,762	271,459	128,579
57,130	-9,501	271,336	128,750
58,144	-9,404	271,310	128,817
59,159	-9,241	271,024	128,820
60,174	-9,276	270,683	128,613
61,188	-9,382	270,623	128,476
62,203	-9,346	270,407	128,395
63,217	-9,306	270,059	128,255
64,232	-9,289	269,774	128,124
65,247	-9,191	269,522	128,083
66,261	-9,322	269,423	127,904
67,276	-9,589	269,204	127,544
68,290	-9,701	268,877	127,275
69,305	-9,633	268,583	127,186
70,320	-9,622	268,499	127,145
71,334	-9,587	268,334	127,088
72,349	-9,595	268,152	126,983
73,363	-9,413	267,986	127,059
74,378	-9,218	267,515	127,002
75,393	-9,389	267,484	126,821
76,407	-9,494	267,280	126,617
77,422	-9,331	267,195	126,714
78,436	-9,420	266,939	126,500
79,451	-9,342	266,641	126,418
80,466	-9,474	266,484	126,213
81,480	-9,423	266,035	126,035
82,495	-9,741	265,997	125,719
83,509	-9,783	265,962	125,652
84,524	-9,598	265,565	125,621
85,539	-9,653	265,188	125,382
86,553	-9,839	265,019	125,123
87,568	-9,791	264,896	125,097
88,582	-9,708	264,807	125,119
89,597	-9,644	264,380	124,964
90,611	-9,339	264,300	125,188
91,626	-9,382	264,140	125,063
92,641	-9,338	264,007	125,028
93,655	-9,379	263,770	124,868
94,670	-9,562	263,511	124,570
95,684	-9,611	263,273	124,404
96,699	-9,311	263,034	124,547
97,714	-9,460	262,872	124,326
98,728	-9,725	262,641	123,970
99,743	-9,727	262,370	123,829
100,757	-9,599	262,202	123,852
101,772	-9,671	262,033	123,697
102,787	-9,627	261,929	123,676
103,801	-9,508	261,780	123,701
104,816	-9,437	261,543	123,641
105,830	-9,424	261,434	123,590
106,845	-9,336	261,227	123,559
107,860	-9,246	261,050	123,543
108,874	-9,308	260,641	123,285
109,889	-9,575	260,707	123,069
110,903	-9,443	260,443	123,050
111,918	-9,436	260,080	122,874
112,933	-9,314	259,861	122,867
113,947	-9,251	259,800	122,882
114,962	-9,477	259,721	122,635
115,976	-9,351	259,450	122,607
116,991	-9,431	259,218	122,415
118,006	-9,440	259,041	122,314
119,020	-9,478	259,012	122,256
120,035	-9,475	258,832	122,162
121,049	-9,306	258,592	122,186
122,064	-9,410	258,308	121,950
123,079	-9,386	258,206	121,912
124,093	-9,473	258,073	121,763
125,108	-9,506	257,673	121,534
126,122	-9,793	257,535	121,207
127,137	-9,906	257,151	120,918
128,151	-9,771	257,029	120,967
129,166	-9,755	257,114	121,010
130,181	-9,671	256,890	120,967
131,195	-9,621	256,493	120,812
132,210	-9,405	256,405	120,948
133,224	-9,442	256,240	120,827
134,239	-9,135	256,097	121,015
135,254	-9,355	255,947	120,743
136,268	-9,433	255,579	120,491
137,283	-9,526	255,287	120,263
138,297	-9,671	255,150	120,062
139,312	-9,865	254,919	119,775
140,327	-9,549	254,970	120,061
141,341	-9,209	254,745	120,237
142,356	-9,324	254,657	120,086
143,370	-9,211	254,424	120,063
144,385	-9,157	254,266	120,024
145,400	-9,206	254,139	119,911
146,414	-9,214	253,985	119,820
147,429	-9,276	253,686	119,616
148,443	-9,268	253,542	119,544
149,458	-9,291	253,351	119,424
150,473	-9,159	253,109	119,412
151,487	-9,191	252,973	119,309
152,502	-9,230	252,883	119,224
153,516	-9,200	252,619	119,114
154,531	-9,430	252,523	118,862
155,546	-9,238	252,230	118,876
156,560	-9,326	252,056	118,709
157,575	-9,245	251,837	118,665
158,589	-9,098	251,742	118,734
159,604	-9,260	251,518	118,480
160,619	-9,172	251,242	118,414
161,633	-9,351	251,179	118,222
162,648	-9,279	251,130	118,250
163,662	-9,172	250,886	118,215
164,677	-9,201	250,726	118,104
165,692	-9,346	250,758	117,987
166,706	-9,061	250,396	118,046
167,721	-9,040	250,119	117,923
168,735	-9,153	250,132	117,823
169,750	-9,115	249,817	117,696
170,764	-8,987	249,731	117,753
171,779	-9,093	249,676	117,628
172,794	-9,081	249,459	117,525
173,808	-9,274	249,201	117,231
174,823	-9,602	248,833	116,771
175,837	-9,877	248,811	116,520
176,852	-9,382	248,710	116,878
177,867	-8,980	248,552	117,130
178,881	-9,031	248,459	117,033
179,896	-9,071	248,139	116,838
180,910	-8,967	248,098	116,895
181,925	-9,036	247,867	116,719
182,940	-8,962	247,766	116,722
183,954	-9,075	247,587	116,533
184,969	-9,056	247,410	116,456
185,983	-9,117	247,337	116,360
186,998	-9,164	247,068	116,184
188,013	-9,056	246,915	116,192
189,027	-9,009	246,752	116,144
190,042	-9,080	246,462	115,937
191,056	-9,024	246,362	115,926
192,071	-8,947	246,298	115,950
193,086	-9,074	246,074	115,729
194,100	-9,012	245,757	115,621
195,115	-8,857	245,652	115,689
196,129	-8,959	245,371	115,463
197,144	-9,101	245,397	115,347
198,159	-9,284	245,223	115,104
199,173	-9,254	245,088	115,055
200,188	-9,391	244,969	114,876
201,202	-9,458	244,499	114,591
202,217	-9,681	244,210	114,262
203,232	-9,687	243,873	114,089
204,246	-9,380	243,999	114,389
205,261	-8,594	244,106	115,075
206,275	-9,206	243,604	114,326
207,290	-5,832	245,041	117,768
208,304	0,571	247,118	124,059
209,319	3,762	247,845	127,055
210,334	3,887	247,865	127,157
211,348	4,177	247,810	127,358
212,363	4,629	247,647	127,636
213,377	4,576	247,568	127,540
214,392	4,542	247,373	127,400
215,407	4,393	247,273	127,214
216,421	4,451	247,038	127,130
217,436	4,555	246,988	127,178
218,450	4,644	246,697	127,090
219,465	4,365	246,449	126,722
220,480	4,285	246,369	126,604
221,494	4,324	246,175	126,525
222,509	4,044	246,029	126,209
223,523	4,028	245,905	126,121
224,538	3,850	245,525	125,769
225,553	3,639	245,527	125,586
226,567	3,946	245,257	125,688
227,582	4,038	245,189	125,717
228,596	4,095	245,055	125,684
229,611	3,868	244,758	125,335
230,626	3,826	244,523	125,170
231,640	3,858	244,376	125,109
232,655	3,906	244,340	125,119
233,669	3,858	244,138	124,965
234,684	3,870	243,894	124,839
235,699	4,411	243,852	125,246
236,713	4,397	243,765	125,178
237,728	3,791	243,581	124,581
238,742	3,876	243,273	124,481
239,757	3,717	243,092	124,248
240,772	3,836	242,935	124,254
241,786	3,840	242,927	124,241
242,801	3,820	242,709	124,103
243,815	3,716	242,577	123,941
244,830	3,983	242,430	124,070
245,844	4,106	242,343	124,113
246,859	3,948	241,988	123,794
247,874	3,687	241,996	123,576
248,888	3,936	241,635	123,581
249,903	3,988	241,662	123,625
250,917	4,176	241,533	123,699
251,932	4,264	241,375	123,678
252,947	4,110	241,264	123,487
253,961	3,841	240,923	123,086
254,976	3,834	240,815	123,014
255,990	4,160	240,724	123,218
257,005	3,967	240,396	122,885
258,020	3,857	240,395	122,785
259,034	3,940	240,187	122,734
260,049	3,986	240,121	122,726
261,063	3,860	239,934	122,519
262,078	3,805	239,607	122,298
263,093	4,054	239,694	122,529
264,107	4,009	239,482	122,374
265,122	3,876	239,329	122,179
266,136	3,918	239,255	122,164
267,151	4,248	239,089	122,330
268,166	3,924	238,724	121,876
269,180	3,643	238,632	121,595
270,195	4,402	238,591	122,165
271,209	4,677	238,484	122,317
272,224	4,146	238,245	121,763
273,239	3,699	237,924	121,236
274,253	3,878	237,881	121,344
275,268	3,844	237,715	121,221
276,282	3,805	237,634	121,139
277,297	3,794	237,350	120,975
278,312	3,809	237,402	121,002
279,326	3,876	237,264	120,974
280,341	3,871	237,117	120,884
281,355	4,222	236,810	120,993
282,370	4,163	236,787	120,923
283,384	3,906	236,567	120,599
284,399	3,974	236,221	120,464
285,414	3,581	236,180	120,126
286,428	3,724	236,126	120,200
287,443	3,687	235,947	120,069
288,457	3,857	235,800	120,116
289,472	4,175	235,717	120,311
290,487	4,111	235,507	120,144
291,501	3,869	235,284	119,830
292,516	3,705	235,106	119,601
293,530	3,646	234,968	119,474
294,545	3,894	234,966	119,656
295,560	3,854	234,735	119,497
296,574	3,642	234,550	119,227
297,589	3,846	234,337	119,266
298,603	4,150	234,420	119,534
299,618	4,271	234,205	119,507
300,633	4,255	234,038	119,400
301,647	4,267	233,933	119,344
302,662	4,356	233,948	119,410
303,676	4,436	233,486	119,225
304,691	4,184	233,487	119,021
305,706	4,470	233,353	119,163
306,720	4,421	233,317	119,096
307,735	4,276	233,130	118,877
308,749	4,079	232,827	118,561
309,764	3,731	232,664	118,200
310,779	3,715	232,440	118,063
311,793	3,620	232,074	117,793
312,808	3,900	231,930	117,925
313,822	3,616	231,868	117,665
314,837	3,645	231,851	117,668
315,852	3,604	231,554	117,475
316,866	3,785	231,560	117,607
317,881	4,063	231,445	117,750
318,895	3,860	231,332	117,527
319,910	3,971	231,231	117,550
320,925	4,128	231,081	117,584
321,939	3,881	230,973	117,329
322,954	4,087	230,817	117,397
323,968	3,988	230,599	117,200
324,983	3,731	230,446	116,917
325,997	3,739	230,230	116,802
327,012	4,190	230,219	117,129
328,027	4,198	229,962	116,994
329,041	4,662	229,967	117,338
330,056	4,965	229,924	117,536
331,070	4,660	229,799	117,230
332,085	4,370	229,517	116,856
333,100	4,110	229,321	116,549
334,114	4,127	229,182	116,481
335,129	4,452	229,205	116,728
336,143	4,517	229,084	116,705
337,158	4,370	228,937	116,509
338,173	4,150	228,677	116,200
339,187	3,895	228,570	115,943
340,202	4,446	228,282	116,202
341,216	4,225	228,120	115,943
342,231	3,914	227,956	115,615
343,246	4,015	227,888	115,646
344,260	4,135	227,735	115,649
345,275	4,255	227,719	115,720
346,289	4,332	227,614	115,714
347,304	4,527	227,392	115,737
348,319	4,278	227,263	115,474
349,333	4,320	226,955	115,339
350,348	4,047	226,884	115,089
351,362	4,122	226,776	115,080
352,377	3,939	226,576	114,832
353,392	3,924	226,352	114,697
354,406	4,018	226,307	114,734
355,421	196,487	1321,857	1401,834
356,435	157,548	1455,328	1401,842
