DTS Sentinel unit serial number:	SN410029Multiplexer serial number:	ORYXHardware model number:	OX2-SRSoftware version number:	ORYX F/W v4,00 Oryx Data Collector v3.7.2.0data status	okinstallation	B5 Nyhavnadifferential loss correction	single-endedforward channel	channel 2reverse channel	N/Adate	2023/12/12time	13:32:13forward acquisition time	300,00reverse acquisition time	0,00gamma	499,1914k internal	0,3157k external	0,3157temperature offset calibration	1,0000default loss term (dB/km)	0,3820temperature slope calibration	1,0000multiplexer offset coefficient	1,0000multiplexer slope coefficient	1,0000fibre end	0,00T internal ref (°C)	15,63T ext. ref 1 (°C)	-0,33T ext. ref 2 (°C)	-0,56length (m)	temperature (°C)	Stokes	anti-Stokes-744,400	68,558	0,062	0,047
-743,385	-32,992	-0,223	0,091
-742,371	-40,491	0,272	0,104
-741,356	-44,192	-0,218	0,080
-740,342	-153,968	0,090	-0,004
-739,327	-82,921	-0,246	0,058
-738,312	151,778	0,118	-0,119
-737,298	-128,560	-0,212	0,022
-736,283	31,065	0,080	0,050
-735,269	-104,767	-0,164	0,027
-734,254	351,596	0,068	0,100
-733,239	-102,448	-0,582	-0,102
-732,225	-11,814	0,167	0,080
-731,210	358,498	-0,157	0,232
-730,196	-16,552	-0,031	0,015
-729,181	800,000	-0,061	-0,161
-728,167	-92,779	0,105	-0,022
-727,152	-25,871	-0,075	-0,033
-726,137	21,114	-0,045	-0,027
-725,123	-70,073	0,084	-0,023
-724,108	-4,584	-0,084	-0,043
-723,094	-200,000	0,003	-0,032
-722,079	96,340	-0,112	-0,094
-721,064	307,422	-0,123	-0,170
-720,050	-200,000	0,028	-0,108
-719,035	205,371	0,065	0,075
-718,021	-152,640	-0,150	0,008
-717,006	-200,000	0,011	-0,044
-715,991	-181,592	0,026	-0,000
-714,977	689,516	-0,065	-0,126
-713,962	160,178	0,094	-0,096
-712,948	32,632	0,168	-0,107
-711,933	-200,000	-0,019	0,065
-710,918	255,022	-0,026	0,033
-709,904	5,838	0,031	0,017
-708,889	65,437	-0,041	0,031
-707,875	31,250	-0,055	-0,035
-706,860	-12,932	-0,113	0,054
-705,845	-109,463	0,036	0,006
-704,831	-200,000	-0,009	-0,134
-703,816	-125,456	0,091	-0,010
-702,802	-200,000	0,048	-0,165
-701,787	156,430	0,027	0,028
-700,772	231,065	0,013	0,016
-699,758	-200,000	0,010	-0,080
-698,743	88,832	0,046	-0,038
-697,729	70,792	0,102	0,077
-696,714	255,154	-0,021	0,027
-695,699	-165,282	-0,127	-0,004
-694,685	-119,524	-0,166	-0,021
-693,670	614,377	-0,033	0,062
-692,656	127,258	-0,040	-0,037
-691,641	-47,363	-0,130	0,046
-690,627	-40,882	0,035	0,013
-689,612	-200,000	-0,012	-0,046
-688,597	-39,702	0,093	-0,036
-687,583	-14,689	-0,060	0,028
-686,568	39,350	0,099	-0,065
-685,554	-82,626	-0,056	0,013
-684,539	-63,058	-0,069	-0,021
-683,524	508,007	0,052	0,089
-682,510	-112,635	-0,163	0,024
-681,495	-200,000	-0,025	-0,090
-680,481	-37,690	-0,025	-0,010
-679,466	-200,000	0,015	-0,247
-678,451	-200,000	0,047	-0,176
-677,437	-128,452	0,063	-0,007
-676,422	-56,882	0,017	0,006
-675,408	-200,000	-0,019	-0,071
-674,393	-7,244	-0,096	-0,048
-673,378	-37,790	-0,014	0,006
-672,364	-96,203	-0,107	0,021
-671,349	50,582	0,076	-0,053
-670,335	-200,000	-0,001	0,038
-669,320	325,079	0,058	0,081
-668,305	107,591	-0,058	0,051
-667,291	800,000	-0,028	-0,061
-666,276	-96,541	-0,101	0,019
-665,262	-200,000	0,004	-0,059
-664,247	-72,750	-0,052	-0,014
-663,232	-200,000	-0,018	-0,085
-662,218	-44,767	-0,024	0,009
-661,203	17,133	-0,118	-0,069
-660,189	800,000	0,050	0,119
-659,174	700,491	-0,055	-0,107
-658,159	412,128	-0,105	-0,164
-657,145	-200,000	-0,001	-0,062
-656,130	-130,366	0,108	-0,011
-655,116	-149,586	-0,043	0,002
-654,101	-200,000	0,001	-0,072
-653,086	289,715	-0,085	-0,114
-652,072	200,799	0,042	-0,047
-651,057	800,000	-0,048	0,128
-650,043	-79,411	-0,180	-0,044
-649,028	-22,072	-0,076	-0,034
-648,014	-132,743	0,057	-0,005
-646,999	-25,266	-0,066	0,028
-645,984	-200,000	0,007	0,104
-644,970	-109,817	-0,074	-0,011
-643,955	143,102	-0,103	-0,100
-642,941	179,979	-0,076	-0,082
-641,926	800,000	-0,079	-0,164
-640,911	-110,021	-0,122	-0,019
-639,897	768,094	-0,019	0,038
-638,882	11,618	0,053	-0,030
-637,868	800,000	-0,058	-0,179
-636,853	-200,000	0,041	-0,160
-635,838	800,000	-0,029	-0,063
-634,824	118,479	-0,036	0,032
-633,809	-200,000	-0,021	0,076
-632,795	784,262	-0,051	0,103
-631,780	800,000	0,027	0,065
-630,765	187,234	-0,087	-0,096
-629,751	248,888	0,130	-0,162
-628,736	-66,761	-0,124	0,036
-627,722	251,194	-0,098	0,122
-626,707	-161,464	0,109	-0,004
-625,692	163,144	-0,029	-0,030
-624,678	651,253	0,064	0,121
-623,663	-132,250	-0,165	0,015
-622,649	-47,005	-0,046	-0,016
-621,634	-89,124	-0,100	0,022
-620,619	651,082	0,015	0,027
-619,605	229,451	0,082	-0,098
-618,590	-93,858	-0,085	0,017
-617,576	-51,630	0,098	0,034
-616,561	-200,000	0,006	0,066
-615,546	-71,077	-0,092	-0,025
-614,532	135,757	-0,096	-0,091
-613,517	165,419	0,039	-0,040
-612,503	306,950	0,024	-0,033
-611,488	-200,000	-0,021	0,154
-610,474	800,000	0,059	0,143
-609,459	-11,477	-0,076	0,037
-608,444	83,934	0,146	0,117
-607,430	-9,996	-0,228	-0,111
-606,415	173,882	0,032	-0,034
-605,401	-200,000	0,001	0,063
-604,386	415,062	0,040	-0,062
-603,371	-7,931	0,118	0,058
-602,357	800,000	-0,066	-0,149
-601,342	800,000	0,025	-0,061
-600,328	348,958	-0,061	0,088
-599,313	318,467	-0,065	-0,090
-598,298	800,000	-0,012	-0,028
-597,284	149,730	-0,031	0,031
-596,269	-24,440	0,078	0,034
-595,255	256,659	-0,029	0,036
-594,240	-98,911	0,132	0,024
-593,225	12,131	0,053	0,030
-592,211	132,880	0,028	0,026
-591,196	114,021	-0,055	0,049
-590,182	-2,240	0,068	0,035
-589,167	800,000	0,021	-0,057
-588,152	-200,000	0,006	-0,191
-587,138	-200,000	-0,004	0,021
-586,123	404,547	-0,026	-0,040
-585,109	800,000	-0,021	0,059
-584,094	-37,302	0,191	-0,074
-583,079	582,151	-0,041	-0,073
-582,065	-57,016	0,091	0,029
-581,050	272,331	-0,040	-0,052
-580,036	800,000	-0,018	-0,050
-579,021	-109,867	-0,107	0,016
-578,006	90,988	-0,112	0,092
-576,992	-108,250	-0,080	-0,012
-575,977	-200,000	-0,009	-0,097
-574,963	-65,462	-0,198	0,058
-573,948	-200,000	-0,011	-0,060
-572,934	-200,000	-0,001	-0,062
-571,919	-115,579	-0,032	0,004
-570,904	164,465	0,102	-0,105
-569,890	19,762	-0,105	-0,062
-568,875	112,701	0,023	0,020
-567,861	457,055	-0,057	-0,092
-566,846	469,323	0,047	-0,078
-565,831	-72,116	0,021	0,006
-564,817	-200,000	0,009	0,041
-563,802	-41,541	-0,127	0,047
-562,788	305,085	-0,020	0,028
-561,773	378,459	-0,055	-0,083
-560,758	323,269	0,127	0,177
-559,744	777,084	0,022	0,044
-558,729	516,037	-0,062	-0,106
-557,715	-200,000	0,001	0,049
-556,700	143,680	0,078	-0,076
-555,685	-43,704	0,022	-0,008
-554,671	-200,000	-0,037	-0,128
-553,656	-200,000	0,003	0,024
-552,642	90,930	0,041	0,034
-551,627	-20,883	0,095	-0,042
-550,612	746,054	-0,009	0,018
-549,598	-200,000	-0,024	-0,138
-548,583	-200,000	0,005	0,056
-547,569	-73,575	-0,060	0,016
-546,554	56,748	0,063	0,045
-545,539	19,674	-0,119	-0,070
-544,525	-77,031	-0,052	-0,013
-543,510	-24,296	-0,111	-0,048
-542,496	95,656	0,032	0,027
-541,481	-11,379	-0,117	-0,056
-540,466	-146,471	0,155	0,010
-539,452	348,573	-0,052	0,075
-538,437	22,779	0,073	0,043
-537,423	-200,000	-0,003	-0,028
-536,408	286,605	-0,057	0,075
-535,393	-200,000	0,007	-0,027
-534,379	44,053	-0,027	-0,018
-533,364	800,000	-0,049	0,102
-532,350	-163,725	0,068	0,002
-531,335	649,114	-0,020	0,038
-530,321	237,762	0,070	0,085
-529,306	-200,000	-0,010	-0,089
-528,291	-200,000	-0,002	-0,054
-527,277	350,382	0,047	-0,068
-526,262	-200,000	-0,010	-0,035
-525,248	108,240	-0,042	0,037
-524,233	-133,359	0,069	-0,006
-523,218	63,213	-0,056	-0,041
-522,204	-31,898	-0,154	-0,063
-521,189	25,788	0,091	0,055
-520,175	216,549	0,077	-0,089
-519,160	-38,738	0,058	0,022
-518,145	-200,000	0,041	-0,229
-517,131	-200,000	0,010	0,043
-516,116	139,933	0,100	0,097
-515,102	560,061	0,040	-0,070
-514,087	-67,990	-0,016	0,004
-513,072	47,257	0,097	0,066
-512,058	-87,763	0,136	0,030
-511,043	305,815	-0,083	0,112
-510,029	-200,000	-0,016	0,098
-509,014	-200,000	-0,010	0,140
-507,999	39,680	0,080	0,052
-506,985	290,011	-0,043	-0,057
-505,970	158,181	0,080	0,081
-504,956	290,627	0,019	0,026
-503,941	800,000	0,023	-0,050
-502,926	-124,413	-0,064	0,007
-501,912	800,000	-0,036	0,106
-500,897	-200,000	0,001	0,062
-499,883	276,227	-0,036	-0,046
-498,868	-200,000	0,050	-0,168
-497,853	21,046	-0,095	-0,056
-496,839	-200,000	0,003	-0,112
-495,824	441,781	-0,057	0,092
-494,810	-92,059	0,135	0,028
-493,795	-97,314	0,016	0,003
-492,781	290,979	-0,022	-0,029
-491,766	67,717	-0,114	0,085
-490,751	-127,283	-0,134	0,014
-489,737	137,856	-0,047	0,045
-488,722	54,146	-0,015	-0,011
-487,708	800,000	-0,011	0,035
-486,693	800,000	0,038	0,078
-485,678	-126,312	0,086	-0,009
-484,664	-200,000	-0,016	-0,070
-483,649	-45,932	-0,156	-0,056
-482,635	184,006	0,018	0,019
-481,620	800,000	-0,008	0,021
-480,605	800,000	-0,024	-0,054
-479,591	73,802	0,078	-0,060
-478,576	-200,000	0,015	0,076
-477,562	-200,000	0,009	-0,034
-476,547	55,439	0,093	0,065
-475,532	124,395	0,039	0,036
-474,518	-83,167	-0,040	-0,009
-473,503	108,716	0,047	-0,041
-472,489	-200,000	-0,007	0,104
-471,474	800,000	0,052	-0,110
-470,459	-46,384	0,018	0,006
-469,445	-78,622	-0,100	-0,025
-468,430	277,497	-0,076	-0,099
-467,416	-200,000	-0,022	-0,127
-466,401	295,672	-0,028	-0,037
-465,386	-110,897	-0,160	-0,024
-464,372	-68,431	0,088	-0,025
-463,357	-91,137	-0,157	0,033
-462,343	-92,191	0,042	0,008
-461,328	-135,150	0,106	-0,009
-460,313	51,211	0,029	-0,020
-459,299	6,554	0,044	-0,024
-458,284	-49,138	0,087	0,030
-457,270	166,335	-0,071	0,073
-456,255	-175,245	0,073	-0,001
-455,241	-200,000	-0,012	0,131
-454,226	-200,000	0,017	0,092
-453,211	-200,000	0,010	0,118
-452,197	-200,000	-0,002	-0,064
-451,182	577,017	0,057	0,102
-450,168	51,073	-0,062	-0,043
-449,153	86,115	0,018	0,014
-448,138	-94,247	0,087	-0,017
-447,124	-200,000	-0,001	-0,041
-446,109	388,266	-0,014	0,021
-445,095	800,000	-0,062	0,153
-444,080	78,277	0,058	0,045
-443,065	-20,157	-0,083	-0,037
-442,051	-200,000	-0,002	-0,162
-441,036	740,585	0,102	0,200
-440,022	110,672	0,038	0,033
-439,007	800,000	-0,059	-0,142
-437,992	-59,866	-0,085	-0,026
-436,978	-102,896	0,083	0,014
-435,963	800,000	-0,022	0,051
-434,949	-117,763	0,020	0,003
-433,934	123,180	-0,107	0,097
-432,919	-37,291	0,034	-0,013
-431,905	-2,029	0,177	-0,090
-430,890	-101,654	0,195	0,034
-429,876	-200,000	-0,006	0,087
-428,861	255,661	0,057	-0,071
-427,846	-107,210	0,040	0,006
-426,832	-3,302	-0,212	-0,107
-425,817	-200,000	0,017	-0,069
-424,803	-16,818	-0,117	0,053
-423,788	141,022	-0,047	0,045
-422,773	425,645	0,072	0,114
-421,759	-102,685	0,037	-0,006
-420,744	-200,000	-0,004	0,087
-419,730	19,012	-0,028	-0,016
-418,715	206,182	-0,027	-0,031
-417,701	23,184	-0,193	-0,115
-416,686	-78,512	0,105	-0,026
-415,671	246,614	0,063	0,077
-414,657	-200,000	-0,001	-0,269
-413,642	-200,000	-0,010	-0,088
-412,628	-53,634	-0,027	0,009
-411,613	800,000	-0,050	-0,151
-410,598	108,968	-0,046	0,040
-409,584	-200,000	-0,009	-0,168
-408,569	-179,918	0,054	-0,001
-407,555	89,868	0,054	0,044
-406,540	-91,398	-0,048	0,010
-405,525	-200,000	0,010	-0,051
-404,511	187,323	0,089	-0,097
-403,496	-166,950	-0,197	-0,006
-402,482	-200,000	0,004	0,019
-401,467	193,461	0,039	-0,043
-400,452	157,015	0,060	-0,060
-399,438	-200,000	0,015	0,055
-398,423	-54,650	-0,108	0,035
-397,409	-200,000	-0,003	-0,058
-396,394	-120,667	-0,087	-0,011
-395,379	-154,945	0,138	-0,007
-394,365	340,992	-0,041	-0,059
-393,350	24,070	0,133	-0,080
-392,336	-55,827	0,121	-0,039
-391,321	-36,055	-0,163	0,064
-390,306	-200,000	0,013	0,081
-389,292	-200,000	0,001	-0,061
-388,277	42,667	0,019	0,012
-387,263	-200,000	0,016	0,099
-386,248	-141,752	-0,064	0,005
-385,233	250,079	0,047	-0,058
-384,219	800,000	-0,017	-0,036
-383,204	27,792	-0,080	0,049
-382,190	299,134	-0,030	0,040
-381,175	-164,579	0,068	-0,002
-380,160	-200,000	0,008	0,070
-379,146	239,641	0,012	0,015
-378,131	-200,000	-0,001	0,097
-377,117	656,194	0,032	-0,061
-376,102	-156,732	-0,127	-0,006
-375,088	664,498	0,024	-0,045
-374,073	-133,770	-0,119	0,011
-373,058	-140,850	0,109	0,008
-372,044	45,004	0,115	0,077
-371,029	-79,642	-0,080	0,019
-370,015	-200,000	0,019	-0,146
-369,000	-200,000	0,007	-0,081
-367,985	-171,648	0,094	0,002
-366,971	-200,000	-0,010	0,065
-365,956	-41,729	-0,025	0,009
-364,942	800,000	-0,056	0,113
-363,927	-200,000	0,034	0,129
-362,912	131,251	0,099	0,092
-361,898	-37,450	0,031	0,012
-360,883	-19,128	-0,070	-0,032
-359,869	-200,000	-0,008	-0,137
-358,854	-96,231	0,172	-0,033
-357,839	586,670	0,105	0,188
-356,825	800,000	-0,003	0,006
-355,810	-200,000	-0,022	0,163
-354,796	-200,000	-0,005	-0,015
-353,781	54,032	-0,134	-0,093
-352,766	384,435	0,016	0,025
-351,752	163,612	0,066	-0,067
-350,737	237,778	-0,023	0,028
-349,723	-117,656	0,197	-0,025
-348,708	-98,466	-0,075	0,014
-347,693	-200,000	0,025	-0,091
-346,679	-7,963	-0,024	0,012
-345,664	800,000	-0,080	-0,175
-344,650	376,860	0,083	0,123
-343,635	702,255	0,041	0,078
-342,620	800,000	-0,008	-0,019
-341,606	-61,757	0,076	0,023
-340,591	-62,870	-0,010	-0,003
-339,577	260,128	-0,078	-0,098
-338,562	-11,101	0,081	-0,039
-337,548	332,097	0,036	0,050
-336,533	-15,833	0,148	0,068
-335,518	-200,000	0,028	0,143
-334,504	-200,000	0,001	0,030
-333,489	468,358	-0,048	0,078
-332,475	38,903	-0,078	0,050
-331,460	54,981	-0,021	-0,014
-330,445	800,000	-0,036	-0,078
-329,431	305,525	0,067	-0,091
-328,416	-200,000	0,018	0,139
-327,402	-73,697	0,092	-0,024
-326,387	173,887	-0,068	-0,072
-325,372	-72,812	-0,019	-0,005
-324,358	192,900	-0,015	-0,017
-323,343	797,911	0,030	-0,060
-322,329	800,000	-0,034	-0,091
-321,314	-200,000	0,020	-0,070
-320,299	38,954	-0,092	-0,059
-319,285	800,000	0,029	0,088
-318,270	-120,323	0,135	-0,016
-317,256	220,792	-0,062	-0,072
-316,241	-200,000	-0,002	-0,097
-315,226	800,000	-0,018	0,057
-314,212	-38,737	0,040	-0,015
-313,197	-25,763	0,096	-0,041
-312,183	800,000	-0,062	0,127
-311,168	195,930	-0,038	-0,042
-310,153	-116,070	0,128	0,017
-309,139	151,752	0,073	0,072
-308,124	-147,951	-0,107	0,006
-307,110	117,860	-0,066	-0,059
-306,095	800,000	-0,046	0,096
-305,080	299,301	-0,090	0,121
-304,066	-200,000	0,000	-0,178
-303,051	-200,000	-0,016	-0,096
-302,037	-200,000	0,006	0,038
-301,022	48,645	0,161	-0,109
-300,008	766,486	0,032	0,064
-298,993	-45,157	0,196	0,070
-297,978	-200,000	-0,020	0,099
-296,964	32,031	0,037	-0,023
-295,949	94,214	-0,040	-0,033
-294,935	-200,000	0,003	-0,070
-293,920	-200,000	-0,004	-0,137
-292,905	235,810	0,131	0,157
-291,891	800,000	0,040	0,109
-290,876	380,015	-0,079	0,118
-289,862	-200,000	-0,008	0,039
-288,847	-169,987	-0,057	0,001
-287,832	21,258	-0,114	-0,067
-286,818	-53,118	0,087	-0,029
-285,803	800,000	-0,060	-0,130
-284,789	514,477	-0,018	-0,030
-283,774	-200,000	0,008	0,076
-282,759	-200,000	0,029	-0,196
-281,745	231,524	-0,128	-0,152
-280,730	-200,000	-0,048	-0,214
-279,716	-200,000	0,006	-0,133
-278,701	16,253	-0,086	0,049
-277,686	-200,000	-0,005	0,047
-276,672	434,857	-0,036	-0,056
-275,657	48,782	0,139	0,095
-274,643	-47,050	-0,083	-0,029
-273,628	-200,000	0,005	-0,104
-272,613	-200,000	0,002	-0,108
-271,599	471,541	0,066	0,107
-270,584	591,882	-0,034	0,061
-269,570	-10,619	-0,036	-0,017
-268,555	793,161	-0,033	0,066
-267,540	-75,133	-0,121	0,031
-266,526	-31,126	-0,054	0,022
-265,511	-200,000	-0,012	-0,096
-264,497	-189,051	0,047	-0,000
-263,482	-133,401	-0,068	-0,006
-262,467	-4,421	0,140	-0,070
-261,453	-43,074	-0,040	-0,015
-260,438	-122,434	-0,032	0,004
-259,424	397,998	-0,037	-0,057
-258,409	81,948	-0,136	-0,107
-257,395	-200,000	-0,002	-0,072
-256,380	585,568	0,103	0,185
-255,365	-200,000	0,019	-0,078
-254,351	336,004	0,051	0,072
-253,336	-15,504	0,075	0,034
-252,322	-48,857	0,071	-0,025
-251,307	-96,079	-0,080	-0,015
-250,292	44,297	0,036	0,024
-249,278	99,556	0,065	0,054
-248,263	-66,625	-0,043	0,012
-247,249	159,392	0,051	0,052
-246,234	648,080	-0,070	-0,130
-245,219	-200,000	0,004	-0,027
-244,205	800,000	0,020	-0,041
-243,190	-200,000	0,016	-0,076
-242,176	800,000	0,024	-0,071
-241,161	114,155	0,045	0,039
-240,146	26,023	-0,021	0,012
-239,132	114,486	0,023	0,020
-238,117	49,513	-0,045	0,031
-237,103	231,706	-0,055	0,065
-236,088	-200,000	-0,004	0,028
-235,073	-200,000	0,024	0,134
-234,059	309,715	-0,092	0,124
-233,044	-200,000	0,008	0,073
-232,030	288,628	-0,026	-0,034
-231,015	794,096	0,005	0,010
-230,000	55,477	-0,057	-0,040
-228,986	-200,000	0,020	0,098
-227,971	623,730	-0,068	0,124
-226,957	-200,000	0,014	0,052
-225,942	800,000	0,025	0,067
-224,927	365,404	0,074	0,108
-223,913	126,428	-0,094	0,086
-222,898	110,763	0,097	-0,084
-221,884	74,771	0,026	0,020
-220,869	-87,098	0,039	-0,008
-219,855	-200,000	-0,014	0,095
-218,840	-131,990	-0,115	-0,011
-217,825	357,737	0,075	0,108
-216,811	444,911	0,061	-0,096
-215,796	-3,469	0,096	0,048
-214,782	131,777	-0,121	0,113
-213,767	95,559	0,068	0,056
-212,752	178,437	-0,068	0,072
-211,738	-200,000	0,008	0,110
-210,723	-116,982	-0,046	0,006
-209,709	-200,000	-0,008	0,027
-208,694	800,000	-0,045	-0,137
-207,679	139,207	-0,094	-0,089
-206,665	607,189	-0,069	0,124
-205,650	800,000	0,067	-0,186
-204,636	-39,345	-0,090	-0,034
-203,621	-26,882	0,097	0,041
-202,606	800,000	0,036	-0,111
-201,592	-151,407	-0,179	-0,009
-200,577	-200,000	0,039	-0,132
-199,563	130,507	0,080	-0,074
-198,548	242,751	0,045	0,055
-197,533	40,342	0,073	-0,047
-196,519	97,041	-0,068	0,056
-195,504	-200,000	0,012	0,125
-194,490	-182,391	-0,055	0,001
-193,475	-200,000	-0,017	-0,063
-192,460	-64,757	0,112	0,032
-191,446	80,764	0,051	-0,039
-190,431	-32,340	0,065	0,026
-189,417	800,000	0,020	0,062
-188,402	-200,000	-0,021	0,119
-187,387	30,412	0,129	-0,080
-186,373	-200,000	0,004	-0,058
-185,358	-43,776	0,227	0,082
-184,344	-176,061	0,083	-0,002
-183,329	800,000	-0,054	-0,136
-182,315	110,501	-0,024	0,021
-181,300	-200,000	-0,011	0,043
-180,285	-105,255	0,154	0,025
-179,271	-200,000	-0,033	-0,128
-178,256	-200,000	-0,010	-0,144
-177,242	286,684	0,071	0,093
-176,227	-200,000	-0,012	0,099
-175,212	-14,083	-0,113	0,053
-174,198	-200,000	0,010	0,035
-173,183	-200,000	-0,005	-0,072
-172,169	-61,231	-0,125	0,038
-171,154	-116,060	-0,114	-0,015
-170,139	800,000	-0,039	0,110
-169,125	-200,000	-0,009	0,094
-168,110	-200,000	0,052	0,195
-167,096	-111,248	0,060	-0,009
-166,081	-18,532	0,123	-0,055
-165,066	501,354	0,044	-0,073
-164,052	-200,000	-0,003	0,104
-163,037	177,149	0,026	0,028
-162,023	-200,000	-0,014	0,063
-161,008	12,716	0,078	0,043
-159,993	459,915	-0,057	0,091
-158,979	-144,051	-0,083	0,006
-157,964	43,652	0,183	0,120
-156,950	-131,797	-0,099	-0,009
-155,935	351,223	0,026	0,037
-154,920	343,490	0,013	0,018
-153,906	-54,356	0,211	0,069
-152,891	11,474	-0,126	0,070
-151,877	-175,316	-0,063	-0,001
-150,862	50,064	-0,026	0,018
-149,847	800,000	-0,017	0,040
-148,833	-159,005	-0,096	-0,004
-147,818	-126,262	-0,027	0,003
-146,804	518,260	0,032	-0,054
-145,789	-54,921	-0,061	0,020
-144,775	800,000	-0,054	0,153
-143,760	45,311	-0,120	-0,080
-142,745	800,000	-0,065	-0,137
-141,731	-200,000	-0,017	0,055
-140,716	800,000	0,006	0,015
-139,702	-24,049	-0,146	0,063
-138,687	24,449	0,042	0,025
-137,672	-75,833	-0,055	-0,014
-136,658	-121,181	-0,127	-0,015
-135,643	731,873	-0,009	0,018
-134,629	-166,759	-0,016	0,000
-133,614	-35,291	0,048	0,019
-132,599	800,000	0,026	0,055
-131,585	800,000	0,043	-0,099
-130,570	762,766	0,013	-0,025
-129,556	33,362	0,019	-0,012
-128,541	640,126	-0,073	0,134
-127,526	347,266	0,064	-0,090
-126,512	-83,900	0,181	-0,041
-125,497	292,250	-0,079	-0,104
-124,483	-53,488	0,074	0,024
-123,468	180,484	-0,097	-0,103
-122,453	528,849	0,021	0,037
-121,439	800,000	0,006	-0,015
-120,424	-200,000	0,039	0,155
-119,410	55,107	0,081	0,056
-118,395	-161,661	0,127	0,005
-117,380	126,394	0,031	-0,029
-116,366	78,002	0,064	0,049
-115,351	-79,987	0,086	-0,021
-114,337	-35,168	-0,102	-0,040
-113,322	800,000	0,016	-0,042
-112,307	800,000	0,040	0,121
-111,293	53,891	-0,050	-0,034
-110,278	-26,674	-0,141	0,059
-109,264	-200,000	0,010	0,046
-108,249	-97,664	0,088	0,016
-107,234	131,417	-0,130	0,121
-106,220	800,000	-0,013	0,032
-105,205	-102,794	0,155	0,026
-104,191	-200,000	0,004	-0,062
-103,176	210,456	-0,052	0,059
-102,162	56,910	0,060	0,042
-101,147	-200,000	0,009	-0,038
-100,132	280,871	-0,044	-0,056
-99,118	52,575	-0,054	-0,037
-98,103	-200,000	0,012	-0,092
-97,089	185,390	0,151	-0,161
-96,074	8,200	0,068	0,037
-95,059	-75,150	0,060	0,015
-94,045	-200,000	0,006	-0,037
-93,030	-200,000	0,017	0,066
-92,016	218,305	0,075	-0,086
-91,001	-39,341	-0,064	0,024
-89,986	200,480	0,041	0,045
-88,972	-200,000	-0,043	0,161
-87,957	98,113	0,116	0,096
-86,943	-200,000	0,016	0,053
-85,928	800,000	0,015	-0,042
-84,913	-181,995	0,070	0,001
-83,899	-200,000	-0,016	-0,203
-82,884	-97,671	-0,068	-0,013
-81,870	-200,000	-0,012	-0,067
-80,855	-120,522	0,036	0,004
-79,840	-200,000	0,010	-0,086
-78,826	-94,700	-0,026	-0,005
-77,811	-151,164	0,073	-0,004
-76,797	-85,199	-0,077	0,017
-75,782	311,169	0,044	0,059
-74,767	24,449	0,108	0,064
-73,753	-62,736	0,088	0,026
-72,738	490,790	-0,072	-0,118
-71,724	413,640	-0,108	-0,166
-70,709	-200,000	-0,016	-0,065
-69,694	-200,000	-0,022	0,142
-68,680	463,222	0,018	-0,028
-67,665	800,000	-0,078	0,175
-66,651	-73,743	-0,028	-0,007
-65,636	-200,000	0,020	0,142
-64,622	-114,084	-0,043	-0,006
-63,607	-145,215	0,020	-0,001
-62,592	-50,575	0,029	0,010
-61,578	-200,000	-0,016	0,127
-60,563	92,372	-0,052	0,042
-59,549	329,476	-0,083	-0,115
-58,534	20,152	-1,878	-1,086
-57,519	800,000	-0,318	-0,964
-56,505	-200,000	-1,119	-4,810
-55,490	7,202	0,753	0,402
-54,476	800,000	5,172	12,033
-53,461	-200,000	17,431	284,981
-52,446	800,000	724,816	2224,142
-51,432	539,966	1640,483	2813,493
-50,417	111,028	1631,907	1410,149
-49,403	75,413	1286,039	973,074
-48,388	32,392	1027,898	635,698
-47,373	20,209	989,887	572,008
-46,359	18,627	977,935	559,888
-45,344	15,981	974,001	548,952
-44,330	16,153	972,432	548,609
-43,315	15,769	970,595	546,294
-42,300	15,689	969,500	545,398
-41,286	15,604	968,738	544,668
-40,271	15,612	967,550	544,005
-39,257	15,623	966,848	543,627
-38,242	15,710	965,609	543,189
-37,227	15,702	965,093	542,854
-36,213	15,666	964,297	542,265
-35,198	15,622	963,243	541,510
-34,184	15,728	962,514	541,420
-33,169	15,650	961,606	540,638
-32,154	15,710	960,556	540,220
-31,140	15,693	959,721	539,674
-30,125	15,703	959,038	539,301
-29,111	15,708	958,148	538,795
-28,096	15,667	957,587	538,325
-27,082	15,660	957,128	538,023
-26,067	15,688	956,200	537,569
-25,052	15,663	955,495	537,072
-24,038	15,674	954,606	536,586
-23,023	15,614	954,207	536,150
-22,009	15,698	953,443	535,969
-20,994	15,647	952,869	535,460
-19,979	15,689	952,166	535,178
-18,965	15,662	951,454	534,670
-17,950	15,631	951,136	534,372
-16,936	15,643	950,162	533,842
-15,921	15,596	949,660	533,388
-14,906	15,511	949,051	532,754
-13,892	15,541	948,310	532,412
-12,877	15,515	947,659	531,942
-11,863	15,505	947,126	531,591
-10,848	15,528	946,465	531,272
-9,833	15,634	946,104	531,385
-8,819	15,576	945,300	530,728
-7,804	15,592	944,741	530,443
-6,790	15,564	944,131	529,991
-5,775	15,604	943,545	529,769
-4,760	15,626	942,860	529,432
-3,746	15,529	942,398	528,846
-2,731	15,446	941,617	528,122
-1,717	15,403	941,070	527,657
-0,702	15,438	940,220	527,273
0,313	15,187	939,747	527,010
1,327	18,428	937,356	535,836
2,342	27,279	794,680	477,732
3,356	24,099	459,325	271,239
4,371	-2,592	314,325	157,261
5,386	-6,648	296,063	144,011
6,400	-8,624	290,045	139,111
7,415	-9,181	287,675	137,413
8,429	-9,257	286,080	136,565
9,444	-9,408	285,186	135,978
10,459	-9,377	284,518	135,678
11,473	-9,339	283,873	135,396
12,488	-9,431	283,480	135,107
13,502	-9,425	282,991	134,868
14,517	-9,393	282,439	134,623
15,531	-9,513	282,009	134,290
16,546	-9,481	281,548	134,090
17,561	-9,352	281,170	134,021
18,575	-9,507	280,986	133,774
19,590	-9,596	280,399	133,396
20,604	-9,670	280,219	133,228
21,619	-9,530	279,798	133,150
22,634	-9,663	279,589	132,912
23,648	-9,639	279,214	132,744
24,663	-9,526	278,856	132,670
25,677	-9,533	278,613	132,536
26,692	-9,472	278,426	132,494
27,707	-9,658	278,159	132,178
28,721	-9,597	277,760	132,034
29,736	-9,623	277,627	131,935
30,750	-9,686	277,300	131,708
31,765	-9,611	277,063	131,654
32,780	-9,408	276,689	131,656
33,794	-9,494	276,447	131,449
34,809	-9,597	276,361	131,298
35,823	-9,581	276,052	131,155
36,838	-9,809	275,832	130,825
37,853	-9,490	275,417	130,916
38,867	-9,742	275,324	130,623
39,882	-9,707	275,154	130,564
40,896	-9,645	274,845	130,464
41,911	-9,620	274,504	130,313
42,926	-9,604	274,219	130,181
43,940	-9,649	274,009	130,028
44,955	-9,618	273,977	130,030
45,969	-9,871	273,602	129,604
46,984	-10,128	273,501	129,305
47,999	-10,090	273,065	129,123
49,013	-10,143	272,863	128,967
50,028	-10,068	272,475	128,842
51,042	-10,471	272,332	128,388
52,057	-10,366	272,085	128,358
53,071	-10,169	271,816	128,402
54,086	-10,412	271,817	128,166
55,101	-10,088	271,581	128,343
56,115	-9,849	271,371	128,454
57,130	-9,476	271,167	128,690
58,144	-9,514	271,147	128,634
59,159	-9,378	270,922	128,642
60,174	-9,524	270,749	128,413
61,188	-9,440	270,432	128,329
62,203	-9,463	270,229	128,200
63,217	-9,378	269,830	128,077
64,232	-9,298	269,702	128,078
65,247	-9,260	269,471	127,992
66,261	-9,467	269,349	127,733
67,276	-9,527	269,013	127,507
68,290	-9,707	268,737	127,201
69,305	-9,906	268,461	126,877
70,320	-9,856	268,324	126,846
71,334	-9,620	268,201	126,993
72,349	-9,448	268,111	127,095
73,363	-9,379	267,891	127,043
74,378	-9,412	267,748	126,933
75,393	-9,344	267,360	126,800
76,407	-9,572	267,177	126,495
77,422	-9,279	267,001	126,666
78,436	-9,488	266,615	126,282
79,451	-9,519	266,393	126,138
80,466	-9,441	266,276	126,142
81,480	-9,683	266,084	125,820
82,495	-9,675	265,762	125,664
83,509	-9,676	265,708	125,627
84,524	-9,615	265,264	125,461
85,539	-9,822	265,113	125,191
86,553	-9,768	264,897	125,126
87,568	-9,665	264,735	125,132
88,582	-9,506	264,543	125,173
89,597	-9,569	264,373	125,024
90,611	-9,504	264,237	125,007
91,626	-9,507	264,089	124,924
92,641	-9,319	263,781	124,936
93,655	-9,494	263,638	124,699
94,670	-9,701	263,401	124,391
95,684	-9,725	263,324	124,323
96,699	-9,387	262,984	124,452
97,714	-9,687	262,972	124,168
98,728	-9,782	262,559	123,877
99,743	-9,944	262,508	123,698
100,757	-9,734	262,104	123,683
101,772	-9,757	261,941	123,574
102,787	-9,739	261,890	123,556
103,801	-9,524	261,543	123,572
104,816	-9,378	261,536	123,687
105,830	-9,368	261,314	123,580
106,845	-9,339	260,968	123,431
107,860	-9,263	260,894	123,452
108,874	-9,451	260,723	123,193
109,889	-9,495	260,527	123,052
110,903	-9,441	260,310	122,986
111,918	-9,356	260,003	122,904
112,933	-9,897	260,048	122,438
113,947	-9,544	259,687	122,568
114,962	-9,407	259,490	122,584
115,976	-9,431	259,351	122,487
116,991	-9,571	259,222	122,292
118,006	-9,520	259,043	122,241
119,020	-9,362	258,723	122,218
120,035	-9,393	258,780	122,206
121,049	-9,407	258,494	122,048
122,064	-9,261	258,247	122,049
123,079	-9,439	258,162	121,842
124,093	-9,512	257,904	121,645
125,108	-9,793	257,660	121,275
126,122	-9,996	257,483	121,003
127,137	-10,068	257,147	120,772
128,151	-9,851	256,936	120,851
129,166	-9,613	256,869	121,016
130,181	-9,844	256,642	120,697
131,195	-9,562	256,235	120,740
132,210	-9,658	256,269	120,662
133,224	-9,429	256,087	120,764
134,239	-9,428	255,972	120,699
135,254	-9,391	255,806	120,642
136,268	-9,629	255,619	120,338
137,283	-9,586	255,150	120,144
138,297	-9,892	254,949	119,774
139,312	-9,919	254,753	119,647
140,327	-9,427	254,710	120,041
141,341	-9,150	254,615	120,224
142,356	-9,451	254,481	119,891
143,370	-9,507	254,443	119,814
144,385	-9,203	254,087	119,897
145,400	-9,077	253,828	119,873
146,414	-9,453	253,894	119,570
147,429	-9,322	253,498	119,485
148,443	-9,337	253,398	119,414
149,458	-9,236	253,347	119,466
150,473	-9,231	253,083	119,335
151,487	-9,395	252,854	119,076
152,502	-9,171	252,719	119,194
153,516	-9,101	252,425	119,104
154,531	-9,459	252,403	118,778
155,546	-9,180	252,006	118,818
156,560	-9,158	251,900	118,776
157,575	-9,375	251,700	118,487
158,589	-9,300	251,452	118,423
159,604	-9,358	251,433	118,355
160,619	-9,278	251,194	118,299
161,633	-9,327	251,091	118,198
162,648	-9,200	251,042	118,272
163,662	-9,098	250,596	118,138
164,677	-9,064	250,592	118,155
165,692	-9,438	250,392	117,734
166,706	-9,336	250,228	117,732
167,721	-9,111	249,939	117,775
168,735	-9,217	249,901	117,657
169,750	-9,053	249,737	117,708
170,764	-9,168	249,703	117,585
171,779	-9,309	249,527	117,373
172,794	-9,235	249,310	117,322
173,808	-9,177	248,922	117,178
174,823	-9,688	248,792	116,678
175,837	-9,687	248,454	116,510
176,852	-9,441	248,517	116,735
177,867	-9,351	248,428	116,758
178,881	-9,109	248,231	116,858
179,896	-9,022	248,107	116,861
180,910	-9,054	247,913	116,733
181,925	-9,117	247,832	116,632
182,940	-9,329	247,722	116,393
183,954	-9,211	247,457	116,357
184,969	-9,237	247,469	116,330
185,983	-9,158	247,110	116,216
186,998	-9,076	246,990	116,218
188,013	-9,179	246,751	116,009
189,027	-9,268	246,618	115,862
190,042	-8,969	246,346	115,972
191,056	-9,083	246,171	115,786
192,071	-9,017	246,058	115,776
193,086	-9,182	245,919	115,564
194,100	-9,185	245,911	115,547
195,115	-9,090	245,368	115,361
196,129	-9,112	245,311	115,306
197,144	-9,034	244,980	115,204
198,159	-9,023	244,946	115,187
199,173	-9,187	244,874	115,008
200,188	-9,068	244,660	114,995
201,202	-9,478	244,413	114,531
202,217	-9,772	244,146	114,154
203,232	-9,851	243,999	114,011
204,246	-9,515	244,048	114,299
205,261	-8,677	243,781	114,851
206,275	-9,431	243,545	114,112
207,290	-5,895	245,023	117,705
208,304	0,680	247,096	124,135
209,319	3,680	247,801	126,961
210,334	3,989	247,725	127,167
211,348	4,230	247,556	127,268
212,363	4,366	247,627	127,405
213,377	4,632	247,434	127,514
214,392	4,449	247,387	127,328
215,407	4,391	247,047	127,093
216,421	4,319	246,900	126,947
217,436	4,443	246,898	127,037
218,450	4,756	246,629	127,145
219,465	4,299	246,457	126,669
220,480	4,296	246,074	126,459
221,494	4,072	246,006	126,229
222,509	4,197	245,815	126,221
223,523	4,081	245,768	126,091
224,538	3,714	245,497	125,641
225,553	3,881	245,307	125,669
226,567	3,956	245,087	125,606
227,582	4,090	245,010	125,665
228,596	4,119	244,959	125,651
229,611	3,714	244,663	125,158
230,626	3,776	244,476	125,102
231,640	3,820	244,220	124,995
232,655	4,099	244,139	125,170
233,669	3,868	244,028	124,914
234,684	3,570	243,882	124,586
235,699	4,277	243,767	125,090
236,713	4,199	243,775	125,020
237,728	3,777	243,493	124,522
238,742	3,871	243,159	124,416
239,757	3,730	242,951	124,184
240,772	3,840	242,862	124,216
241,786	3,954	242,693	124,212
242,801	3,692	242,700	123,992
243,815	3,762	242,488	123,929
244,830	3,900	242,309	123,938
245,844	3,850	242,168	123,815
246,859	3,901	242,039	123,779
247,874	3,687	241,820	123,483
248,888	4,017	241,693	123,673
249,903	3,985	241,599	123,588
250,917	4,147	241,414	123,613
251,932	4,161	241,390	123,600
252,947	4,198	241,188	123,516
253,961	3,827	240,891	123,055
254,976	3,996	240,908	123,188
255,990	4,277	240,741	123,317
257,005	4,070	240,314	122,922
258,020	3,712	240,337	122,636
259,034	3,732	240,155	122,549
260,049	3,988	239,999	122,663
261,063	3,909	239,706	122,439
262,078	3,739	239,571	122,223
263,093	4,113	239,475	122,461
264,107	3,916	239,426	122,269
265,122	3,793	239,182	122,035
266,136	3,947	239,150	122,131
267,151	4,060	239,149	122,209
268,166	3,927	238,604	121,814
269,180	3,474	238,561	121,422
270,195	4,163	238,663	122,010
271,209	4,663	238,443	122,282
272,224	3,948	238,056	121,507
273,239	3,683	237,904	121,210
274,253	3,703	237,734	121,128
275,268	3,928	237,686	121,270
276,282	3,961	237,502	121,192
277,297	3,672	237,313	120,857
278,312	3,812	237,077	120,836
279,326	3,971	237,019	120,921
280,341	4,147	236,769	120,921
281,355	3,926	236,704	120,703
282,370	3,982	236,645	120,707
283,384	3,968	236,405	120,562
284,399	3,829	236,082	120,278
285,414	3,621	235,999	120,062
286,428	3,778	235,921	120,135
287,443	3,890	235,911	120,206
288,457	4,016	235,714	120,193
289,472	4,221	235,602	120,286
290,487	4,009	235,413	120,013
291,501	3,933	235,205	119,837
292,516	3,541	234,953	119,393
293,530	3,714	234,777	119,428
294,545	3,961	234,760	119,600
295,560	4,031	234,597	119,561
296,574	3,765	234,331	119,208
297,589	3,644	234,211	119,043
298,603	3,980	234,307	119,341
299,618	4,089	233,997	119,257
300,633	4,165	233,864	119,238
301,647	4,085	233,832	119,149
302,662	4,571	233,777	119,486
303,676	4,417	233,636	119,285
304,691	4,289	233,528	119,120
305,706	4,212	233,351	118,960
306,720	4,203	233,112	118,820
307,735	4,327	232,895	118,794
308,749	4,007	232,791	118,485
309,764	3,771	232,576	118,183
310,779	3,663	232,320	117,959
311,793	3,658	232,151	117,859
312,808	3,689	231,889	117,739
313,822	3,646	231,872	117,687
314,837	3,699	231,665	117,612
315,852	3,392	231,650	117,359
316,866	3,898	231,537	117,678
317,881	4,074	231,319	117,692
318,895	4,015	231,185	117,568
319,910	4,180	231,000	117,590
320,925	4,268	230,951	117,621
321,939	3,875	230,908	117,289
322,954	4,127	230,730	117,380
323,968	4,025	230,555	117,204
324,983	3,602	230,367	116,775
325,997	3,578	230,151	116,637
327,012	4,254	229,999	117,063
328,027	4,391	229,955	117,135
329,041	4,317	229,966	117,074
330,056	4,634	229,840	117,239
331,070	4,607	229,846	117,212
332,085	4,373	229,463	116,828
333,100	4,226	229,205	116,575
334,114	4,082	229,037	116,371
335,129	4,487	228,905	116,599
336,143	4,447	228,962	116,588
337,158	4,262	228,827	116,369
338,173	4,197	228,558	116,173
339,187	4,124	228,389	116,022
340,202	4,145	228,276	115,969
341,216	4,158	228,036	115,847
342,231	3,915	227,878	115,574
343,246	4,092	227,841	115,678
344,260	4,014	227,648	115,511
345,275	4,353	227,628	115,745
346,289	4,438	227,522	115,745
347,304	4,123	227,379	115,425
348,319	4,222	227,119	115,357
349,333	4,101	226,983	115,187
350,348	3,930	226,765	114,938
351,362	4,034	226,674	114,959
352,377	4,063	226,304	114,783
353,392	4,028	226,226	114,707
354,406	3,762	226,078	114,424
355,421	195,239	1321,178	1397,118
356,435	156,492	1454,596	1397,119
