DTS Sentinel unit serial number:	SN410029Multiplexer serial number:	ORYXHardware model number:	OX2-SRSoftware version number:	ORYX F/W v4,00 Oryx Data Collector v3.7.2.0data status	okinstallation	B5 Nyhavnadifferential loss correction	single-endedforward channel	channel 2reverse channel	N/Adate	2023/12/12time	10:07:13forward acquisition time	300,00reverse acquisition time	0,00gamma	499,1914k internal	0,3158k external	0,3158temperature offset calibration	1,0000default loss term (dB/km)	0,3820temperature slope calibration	1,0000multiplexer offset coefficient	1,0000multiplexer slope coefficient	1,0000fibre end	0,00T internal ref (°C)	15,00T ext. ref 1 (°C)	-1,31T ext. ref 2 (°C)	-1,61length (m)	temperature (°C)	Stokes	anti-Stokes-744,400	151,152	0,031	-0,031
-743,385	-139,359	-0,283	0,022
-742,371	166,103	0,053	0,055
-741,356	-168,145	-0,211	-0,006
-740,342	-27,659	0,123	0,052
-739,327	-121,556	-0,377	0,046
-738,312	-8,126	0,093	0,046
-737,298	-106,326	-0,292	0,048
-736,283	-94,317	0,160	0,032
-735,269	-89,046	-0,318	0,069
-734,254	-200,000	-0,026	0,145
-733,239	-51,045	-0,469	-0,161
-732,225	-141,269	0,144	-0,011
-731,210	369,911	-0,033	0,049
-730,196	-200,000	-0,024	0,116
-729,181	399,698	-0,032	-0,050
-728,167	-200,000	-0,008	0,086
-727,152	63,426	0,047	-0,035
-726,137	470,366	-0,084	-0,139
-725,123	106,084	-0,090	0,079
-724,108	162,379	-0,068	-0,070
-723,094	-16,878	-0,041	0,019
-722,079	389,438	0,086	-0,132
-721,064	-200,000	0,014	-0,090
-720,050	24,261	-0,196	-0,119
-719,035	57,072	-0,021	0,015
-718,021	-200,000	0,030	-0,113
-717,006	10,157	-0,053	-0,030
-715,991	5,524	-0,036	0,020
-714,977	5,531	-0,080	0,043
-713,962	69,984	-0,007	-0,005
-712,948	-186,469	0,128	0,001
-711,933	-29,021	-0,146	0,061
-710,918	-200,000	0,007	0,040
-709,904	201,771	-0,131	0,149
-708,889	-126,158	-0,129	-0,014
-707,875	800,000	0,003	0,009
-706,860	800,000	-0,033	0,069
-705,845	-200,000	-0,027	0,116
-704,831	800,000	-0,046	-0,107
-703,816	623,312	-0,034	0,064
-702,802	220,220	-0,029	0,034
-701,787	-96,203	-0,123	-0,024
-700,772	-124,225	0,079	-0,009
-699,758	-29,484	-0,088	0,037
-698,743	21,544	0,139	-0,083
-697,729	369,474	-0,066	-0,099
-696,714	-200,000	-0,009	0,094
-695,699	248,790	-0,028	-0,035
-694,685	151,913	-0,031	0,031
-693,670	-2,379	-0,088	-0,045
-692,656	-81,994	-0,016	-0,004
-691,641	215,181	0,025	0,030
-690,627	800,000	0,064	0,141
-689,612	-70,774	0,065	-0,018
-688,597	427,718	0,039	0,062
-687,583	65,421	-0,086	-0,064
-686,568	-104,799	-0,140	-0,023
-685,554	-200,000	0,005	-0,098
-684,539	350,028	-0,010	0,014
-683,524	179,494	0,022	-0,024
-682,510	3,971	0,157	-0,084
-681,495	-31,343	0,031	-0,013
-680,481	673,858	-0,072	-0,137
-679,466	-25,710	-0,077	-0,033
-678,451	800,000	-0,022	-0,063
-677,437	45,755	-0,048	0,033
-676,422	800,000	-0,015	0,038
-675,408	75,662	0,119	0,092
-674,393	36,434	-0,128	0,083
-673,378	-149,352	-0,136	0,008
-672,364	-85,085	0,048	-0,011
-671,349	800,000	-0,045	0,102
-670,335	-35,832	0,045	0,018
-669,320	-94,714	0,069	0,014
-668,305	-59,979	-0,043	0,014
-667,291	-35,010	0,051	0,020
-666,276	800,000	0,004	0,009
-665,262	486,801	-0,081	-0,136
-664,247	-143,229	-0,102	-0,007
-663,232	-67,888	-0,134	-0,038
-662,218	-200,000	-0,000	-0,100
-661,203	-13,573	-0,111	-0,053
-660,189	-200,000	-0,002	0,008
-659,174	500,860	-0,024	-0,041
-658,159	-43,605	0,003	-0,001
-657,145	30,761	-0,026	-0,016
-656,130	11,728	0,041	-0,023
-655,116	-158,575	0,087	0,004
-654,101	-104,393	0,041	0,007
-653,086	800,000	0,074	0,189
-652,072	78,863	0,013	0,011
-651,057	22,753	0,075	0,045
-650,043	-200,000	0,011	-0,109
-649,028	267,559	0,025	0,032
-648,014	-6,277	0,037	-0,019
-646,999	23,658	0,064	-0,038
-645,984	-114,675	0,118	0,016
-644,970	-71,354	-0,117	0,032
-643,955	2,133	-0,088	0,047
-642,941	-200,000	0,009	-0,093
-641,926	-200,000	-0,005	0,051
-640,911	-149,849	-0,045	0,003
-639,897	-55,516	0,147	-0,048
-638,882	-200,000	0,003	0,103
-637,868	-200,000	-0,001	-0,012
-636,853	-200,000	-0,008	-0,050
-635,838	598,785	-0,073	-0,134
-634,824	457,208	0,031	-0,050
-633,809	374,941	-0,032	0,048
-632,795	-200,000	-0,012	0,072
-631,780	702,333	0,015	0,029
-630,765	-88,322	0,016	0,003
-629,751	-200,000	0,018	-0,154
-628,736	28,195	-0,053	0,033
-627,722	285,859	0,079	-0,104
-626,707	1,627	0,066	-0,035
-625,692	0,086	0,017	-0,009
-624,678	-74,942	0,066	-0,017
-623,663	800,000	0,041	0,120
-622,649	178,330	0,110	0,118
-621,634	-190,924	0,099	-0,001
-620,619	-27,662	-0,044	0,019
-619,605	153,980	-0,114	0,115
-618,590	800,000	0,018	0,059
-617,576	47,142	-0,092	0,063
-616,561	451,647	-0,047	0,076
-615,546	134,726	0,073	-0,070
-614,532	19,548	-0,156	0,092
-613,517	78,227	-0,046	0,036
-612,503	116,411	-0,094	-0,085
-611,488	200,724	0,111	-0,125
-610,474	560,485	0,015	0,027
-609,459	-65,414	-0,151	0,044
-608,444	-200,000	-0,009	-0,118
-607,430	-200,000	-0,007	-0,125
-606,415	31,139	-0,016	-0,010
-605,401	81,756	0,102	0,081
-604,386	-200,000	-0,010	0,051
-603,371	27,578	-0,073	0,045
-602,357	-145,475	-0,103	-0,007
-601,342	-67,371	-0,195	-0,056
-600,328	-155,993	-0,051	-0,002
-599,313	19,293	-0,032	-0,019
-598,298	-84,050	-0,132	0,031
-597,284	63,915	0,039	0,029
-596,269	800,000	0,052	-0,105
-595,255	-200,000	-0,006	-0,107
-594,240	257,226	-0,099	-0,125
-593,225	-61,866	0,076	-0,023
-592,211	325,392	-0,045	-0,063
-591,196	186,791	0,075	0,081
-590,182	-31,001	-0,078	-0,032
-589,167	-109,192	0,076	-0,012
-588,152	101,328	0,016	0,013
-587,138	800,000	-0,030	-0,089
-586,123	246,896	0,049	-0,061
-585,109	-200,000	-0,007	-0,037
-584,094	341,308	-0,083	0,119
-583,079	149,306	0,082	0,082
-582,065	-24,507	-0,037	0,016
-581,050	-200,000	0,002	0,047
-580,036	-21,066	-0,084	0,038
-579,021	-20,442	-0,127	0,057
-578,006	-147,885	-0,054	0,003
-576,992	614,143	0,055	0,102
-575,977	158,614	-0,099	-0,101
-574,963	221,196	0,070	0,082
-573,948	-65,845	0,034	-0,010
-572,934	-42,803	0,078	-0,029
-571,919	-200,000	0,006	-0,052
-570,904	457,574	-0,029	-0,048
-569,890	74,633	0,047	-0,036
-568,875	-34,574	0,084	0,033
-567,861	800,000	0,064	0,137
-566,846	800,000	0,044	0,114
-565,831	800,000	0,044	0,133
-564,817	-82,006	-0,112	0,026
-563,802	512,428	-0,071	-0,122
-562,788	188,920	-0,032	-0,035
-561,773	524,249	-0,010	-0,018
-560,758	-65,525	0,114	0,033
-559,744	-200,000	-0,005	0,088
-558,729	147,730	-0,041	0,040
-557,715	185,820	0,127	-0,139
-556,700	303,383	-0,093	-0,126
-555,685	-91,323	0,060	-0,012
-554,671	99,782	0,038	-0,032
-553,656	506,990	0,033	-0,056
-552,642	173,530	-0,065	0,069
-551,627	115,255	0,088	0,078
-550,612	800,000	0,037	-0,093
-549,598	22,955	-0,152	-0,091
-548,583	-200,000	-0,026	0,113
-547,569	-17,872	-0,082	-0,037
-546,554	-96,960	0,047	-0,009
-545,539	-137,469	0,124	0,010
-544,525	-59,440	-0,080	-0,025
-543,510	-200,000	0,013	-0,107
-542,496	800,000	-0,047	0,118
-541,481	-16,335	-0,144	-0,066
-540,466	-174,121	-0,046	-0,001
-539,452	800,000	-0,033	0,090
-538,437	1,208	0,080	-0,042
-537,423	6,518	0,087	-0,047
-536,408	-108,005	-0,161	-0,025
-535,393	-200,000	0,008	-0,043
-534,379	-200,000	-0,011	-0,074
-533,364	271,853	-0,054	-0,070
-532,350	16,206	0,075	-0,043
-531,335	-200,000	-0,028	-0,103
-530,321	-134,247	0,115	0,010
-529,306	-200,000	0,013	0,105
-528,291	648,196	-0,036	-0,068
-527,277	-38,494	0,095	-0,037
-526,262	-128,210	-0,023	0,002
-525,248	47,391	-0,127	0,086
-524,233	-60,631	0,062	0,019
-523,218	5,613	-0,090	-0,048
-522,204	-200,000	0,028	-0,150
-521,189	-92,955	-0,072	0,015
-520,175	-127,966	-0,109	0,011
-519,160	383,451	-0,038	-0,057
-518,145	-200,000	-0,015	0,081
-517,131	171,163	0,031	-0,033
-516,116	800,000	0,040	0,094
-515,102	-124,689	-0,045	0,005
-514,087	-51,837	-0,079	-0,027
-513,072	70,341	-0,060	-0,045
-512,058	469,010	0,050	0,083
-511,043	800,000	-0,039	-0,088
-510,029	183,241	0,104	0,112
-509,014	800,000	-0,010	-0,032
-507,999	800,000	0,034	0,082
-506,985	-200,000	-0,012	0,047
-505,970	800,000	0,047	-0,096
-504,956	241,653	-0,020	0,024
-503,941	-77,889	-0,053	-0,013
-502,926	101,875	0,052	-0,045
-501,912	133,312	-0,060	0,056
-500,897	-138,734	0,127	-0,010
-499,883	37,174	-0,094	0,061
-498,868	-150,363	0,134	-0,007
-497,853	-7,113	-0,098	-0,048
-496,839	236,323	-0,006	-0,007
-495,824	-106,582	-0,073	0,012
-494,810	-200,000	-0,030	-0,158
-493,795	-129,697	-0,139	-0,014
-492,781	-200,000	0,004	0,032
-491,766	15,691	0,065	0,037
-490,751	800,000	-0,045	0,142
-489,737	23,949	-0,080	-0,048
-488,722	208,669	0,061	-0,070
-487,708	39,094	0,051	-0,033
-486,693	-95,666	0,123	0,024
-485,678	140,071	-0,043	0,042
-484,664	-52,005	-0,034	-0,011
-483,649	457,726	0,043	-0,069
-482,635	444,888	0,047	-0,075
-481,620	-105,819	-0,051	-0,008
-480,605	-11,669	0,120	0,057
-479,591	-200,000	-0,015	0,057
-478,576	256,541	-0,060	0,076
-477,562	800,000	0,011	-0,029
-476,547	-200,000	0,011	-0,055
-475,532	19,206	-0,081	-0,047
-474,518	-73,469	0,065	0,017
-473,503	-200,000	-0,007	-0,043
-472,489	170,740	0,124	0,129
-471,474	800,000	-0,048	0,100
-470,459	10,180	-0,150	0,083
-469,445	21,011	0,024	0,014
-468,430	-200,000	0,014	-0,059
-467,416	306,365	0,051	0,069
-466,401	800,000	0,019	0,050
-465,386	147,600	0,058	-0,057
-464,372	275,541	0,092	0,119
-463,357	-8,297	-0,096	0,047
-462,343	-200,000	-0,036	0,127
-461,328	-78,578	0,025	0,006
-460,313	800,000	0,014	-0,029
-459,299	-200,000	-0,002	0,007
-458,284	-78,196	0,068	0,017
-457,270	-200,000	-0,023	-0,146
-456,255	800,000	0,065	-0,192
-455,241	590,255	0,053	-0,096
-454,226	64,012	0,042	0,030
-453,211	-200,000	0,015	-0,099
-452,197	-47,085	0,061	0,022
-451,182	347,594	-0,056	0,081
-450,168	44,858	0,082	0,055
-449,153	-40,845	-0,163	0,061
-448,138	129,636	-0,042	-0,039
-447,124	116,353	0,027	0,024
-446,109	-176,980	0,098	0,002
-445,095	-48,306	0,048	0,017
-444,080	-47,020	0,066	-0,023
-443,065	288,350	0,084	0,111
-442,051	800,000	-0,028	-0,090
-441,036	518,813	-0,056	-0,095
-440,022	-124,901	0,104	0,012
-439,007	-106,106	-0,105	0,017
-437,992	8,410	-0,073	0,040
-436,978	-200,000	0,002	0,079
-435,963	463,633	0,069	0,113
-434,949	800,000	-0,028	-0,086
-433,934	-200,000	0,020	-0,100
-432,919	394,891	-0,062	-0,094
-431,905	377,803	0,071	-0,106
-430,890	-8,850	0,014	0,007
-429,876	95,641	-0,041	-0,034
-428,861	-35,148	0,036	-0,014
-427,846	406,653	0,037	0,056
-426,832	-198,174	-0,048	-0,000
-425,817	104,428	0,115	-0,099
-424,803	-200,000	0,022	-0,079
-423,788	23,584	0,088	0,053
-422,773	-200,000	0,005	0,083
-421,759	-68,370	-0,106	0,030
-420,744	177,563	-0,036	-0,039
-419,730	185,524	-0,060	0,065
-418,715	-121,110	0,016	-0,002
-417,701	800,000	0,047	0,097
-416,686	14,501	-0,073	-0,041
-415,671	-200,000	0,002	-0,033
-414,657	35,320	-0,106	0,068
-413,642	573,868	-0,084	-0,151
-412,628	-200,000	0,033	0,130
-411,613	800,000	0,026	0,062
-410,598	51,263	-0,010	0,007
-409,584	109,119	0,061	0,053
-408,569	148,588	0,058	0,057
-407,555	427,908	-0,046	0,073
-406,540	77,423	-0,038	-0,030
-405,525	99,739	-0,147	-0,124
-404,511	324,442	0,044	-0,061
-403,496	114,477	0,077	0,068
-402,482	-120,154	0,163	0,020
-401,467	800,000	-0,032	0,073
-400,452	639,226	0,020	0,037
-399,438	298,732	-0,049	0,065
-398,423	312,475	0,053	-0,072
-397,409	-84,922	-0,055	-0,012
-396,394	-200,000	-0,040	-0,146
-395,379	-200,000	0,017	0,110
-394,365	43,548	0,083	0,055
-393,350	539,435	0,014	0,024
-392,336	-140,620	-0,094	-0,007
-391,321	800,000	0,015	-0,040
-390,306	697,917	-0,024	0,046
-389,292	-106,474	-0,091	0,015
-388,277	-16,786	0,054	0,025
-387,263	800,000	-0,026	-0,066
-386,248	-200,000	-0,023	0,075
-385,233	87,340	0,002	0,002
-384,219	-67,296	-0,083	-0,024
-383,204	-200,000	-0,005	-0,020
-382,190	-20,494	-0,070	0,031
-381,175	800,000	-0,023	-0,074
-380,160	800,000	0,078	0,179
-379,146	646,517	-0,009	0,017
-378,131	-200,000	-0,004	-0,050
-377,117	-101,098	-0,038	-0,007
-376,102	-200,000	-0,012	-0,121
-375,088	-200,000	-0,025	-0,122
-374,073	-200,000	-0,014	-0,167
-373,058	800,000	-0,058	0,127
-372,044	96,914	-0,077	0,064
-371,029	136,344	0,056	-0,053
-370,015	-200,000	0,040	0,143
-369,000	3,233	-0,136	-0,072
-367,985	-200,000	0,014	-0,164
-366,971	91,969	-0,090	-0,074
-365,956	-200,000	0,031	-0,102
-364,942	800,000	0,060	0,169
-363,927	-162,856	0,133	-0,005
-362,912	-200,000	0,024	0,104
-361,898	-200,000	0,015	-0,084
-360,883	-30,667	0,087	0,036
-359,869	-200,000	-0,019	0,094
-358,854	267,507	0,123	0,156
-357,839	-200,000	-0,016	0,107
-356,825	41,463	0,051	-0,034
-355,810	-130,472	-0,059	-0,006
-354,796	-200,000	-0,013	0,054
-353,781	116,859	0,037	-0,033
-352,766	-100,378	-0,129	-0,023
-351,752	800,000	0,037	-0,095
-350,737	83,740	-0,031	-0,025
-349,723	800,000	-0,022	0,051
-348,708	800,000	0,055	0,136
-347,693	-18,611	0,045	-0,020
-346,679	-76,194	-0,071	0,018
-345,664	-99,686	-0,119	0,021
-344,650	390,019	0,011	0,017
-343,635	-116,241	0,071	0,009
-342,620	-92,988	-0,030	-0,006
-341,606	-150,896	0,108	0,006
-340,591	189,641	-0,083	-0,091
-339,577	-62,972	-0,089	0,027
-338,562	40,172	-0,053	-0,035
-337,548	-49,950	-0,115	0,039
-336,533	143,730	0,079	-0,077
-335,518	220,075	-0,073	-0,085
-334,504	-200,000	0,023	-0,112
-333,489	-119,652	-0,138	0,017
-332,475	-24,527	-0,181	-0,078
-331,460	252,986	-0,058	-0,072
-330,445	223,182	-0,040	0,047
-329,431	-182,102	0,066	0,001
-328,416	800,000	-0,056	0,124
-327,402	-74,435	0,091	0,024
-326,387	97,947	-0,077	-0,064
-325,372	43,228	-0,093	0,062
-324,358	421,274	-0,068	-0,106
-323,343	42,467	-0,055	0,036
-322,329	-60,967	0,122	0,037
-321,314	-200,000	-0,027	0,129
-320,299	-200,000	-0,001	0,035
-319,285	35,442	0,085	0,054
-318,270	-79,573	-0,075	-0,018
-317,256	-200,000	-0,001	-0,052
-316,241	-200,000	-0,024	-0,088
-315,226	83,989	0,201	0,159
-314,212	-200,000	0,011	0,072
-313,197	335,546	0,043	0,060
-312,183	-200,000	0,005	0,097
-311,168	-200,000	0,015	-0,061
-310,153	-200,000	-0,001	0,081
-309,139	329,830	0,037	-0,051
-308,124	800,000	0,009	0,022
-307,110	-61,198	-0,076	-0,023
-306,095	3,089	-0,137	-0,072
-305,080	800,000	-0,064	0,169
-304,066	145,907	0,083	0,080
-303,051	-200,000	0,031	0,129
-302,037	105,033	-0,078	0,067
-301,022	55,766	0,132	-0,093
-300,008	-200,000	-0,003	0,183
-298,993	28,964	0,037	-0,023
-297,978	800,000	-0,030	0,089
-296,964	614,266	0,090	0,164
-295,949	800,000	-0,035	-0,070
-294,935	1,513	0,015	0,008
-293,920	634,254	0,038	-0,070
-292,905	-200,000	0,013	0,061
-291,891	283,264	-0,059	0,076
-290,876	-200,000	0,019	0,134
-289,862	800,000	-0,012	-0,025
-288,847	55,953	-0,154	-0,108
-287,832	-200,000	0,047	-0,159
-286,818	-3,836	0,148	-0,074
-285,803	-200,000	-0,007	-0,039
-284,789	-23,325	0,159	-0,069
-283,774	-40,304	0,109	-0,041
-282,759	-12,601	-0,164	-0,077
-281,745	-93,607	0,049	0,010
-280,730	-123,964	0,101	-0,011
-279,716	248,973	0,060	-0,074
-278,701	-200,000	0,004	0,056
-277,686	407,597	-0,095	-0,146
-276,672	-200,000	-0,022	-0,074
-275,657	482,260	-0,018	-0,030
-274,643	17,625	0,028	-0,016
-273,628	-130,802	-0,143	0,014
-272,613	21,877	-0,071	-0,042
-271,599	145,870	0,090	0,087
-270,584	42,670	-0,083	-0,055
-269,570	-200,000	-0,003	-0,071
-268,555	-30,084	0,161	-0,066
-267,540	800,000	-0,005	-0,015
-266,526	-102,615	-0,094	0,016
-265,511	800,000	0,080	-0,187
-264,497	800,000	-0,016	0,049
-263,482	-99,473	0,032	-0,006
-262,467	-75,921	0,126	0,032
-261,453	-34,754	-0,048	0,019
-260,438	-200,000	0,017	-0,194
-259,424	-123,010	-0,033	0,004
-258,409	-130,708	-0,115	0,011
-257,395	800,000	0,005	0,011
-256,380	-200,000	0,016	-0,150
-255,365	124,968	0,057	-0,052
-254,351	69,055	0,086	-0,064
-253,336	223,517	0,017	-0,020
-252,322	-25,142	0,049	-0,021
-251,307	-200,000	-0,010	0,053
-250,292	17,715	-0,023	-0,013
-249,278	-65,339	0,094	0,027
-248,263	-34,504	0,025	-0,010
-247,249	800,000	0,053	0,111
-246,234	-6,141	0,044	-0,022
-245,219	516,596	-0,048	-0,081
-244,205	-28,688	0,115	0,048
-243,190	417,565	0,082	0,127
-242,176	99,804	0,073	-0,061
-241,161	800,000	-0,013	0,035
-240,146	2,175	-0,093	-0,048
-239,132	97,545	0,056	-0,046
-238,117	-200,000	-0,011	-0,111
-237,103	-33,082	0,036	-0,015
-236,088	-200,000	-0,006	-0,034
-235,073	176,930	0,108	0,114
-234,059	51,832	0,085	0,058
-233,044	800,000	-0,027	0,054
-232,030	-200,000	0,021	0,082
-231,015	192,689	0,065	-0,071
-230,000	-200,000	-0,005	-0,250
-228,986	-65,810	0,087	-0,025
-227,971	800,000	0,050	-0,135
-226,957	168,061	0,047	0,049
-225,942	-35,021	0,079	0,031
-224,927	62,666	-0,027	-0,020
-223,913	-200,000	-0,009	-0,148
-222,898	-89,965	0,038	0,008
-221,884	-166,313	-0,151	-0,005
-220,869	-69,778	0,053	-0,015
-219,855	726,908	0,037	0,071
-218,840	278,540	-0,088	0,114
-217,825	800,000	0,015	0,047
-216,811	-200,000	-0,031	0,118
-215,796	769,191	-0,021	0,042
-214,782	-70,675	-0,033	-0,009
-213,767	32,917	0,038	0,023
-212,752	-84,426	0,098	-0,022
-211,738	-10,835	-0,026	0,012
-210,723	-53,868	-0,056	-0,018
-209,709	-39,254	-0,040	-0,015
-208,694	7,368	-0,084	-0,045
-207,679	83,369	-0,049	-0,039
-206,665	-91,342	0,176	-0,036
-205,650	-200,000	0,006	0,115
-204,636	-86,450	0,037	-0,008
-203,621	74,827	-0,159	0,121
-202,606	11,872	0,123	0,068
-201,592	-200,000	0,003	-0,032
-200,577	-200,000	-0,017	-0,107
-199,563	-200,000	0,012	-0,164
-198,548	-124,363	0,147	-0,016
-197,533	-52,132	0,047	0,016
-196,519	-17,779	0,044	0,020
-195,504	800,000	0,075	0,166
-194,490	-4,534	0,132	0,066
-193,475	330,056	0,019	-0,027
-192,460	43,876	-0,057	0,037
-191,446	-19,479	0,073	-0,033
-190,431	800,000	-0,079	0,194
-189,417	347,179	-0,020	0,028
-188,402	-74,491	-0,136	0,035
-187,387	257,452	0,042	-0,052
-186,373	-200,000	0,019	-0,112
-185,358	-124,108	0,112	-0,013
-184,344	122,822	0,071	0,064
-183,329	94,053	-0,085	-0,069
-182,315	800,000	0,016	-0,035
-181,300	-91,128	0,046	0,009
-180,285	664,558	0,019	-0,035
-179,271	275,977	-0,055	0,071
-178,256	-116,640	0,089	-0,012
-177,242	-200,000	-0,006	0,067
-176,227	800,000	0,030	-0,065
-175,212	800,000	0,054	-0,110
-174,198	-93,953	-0,118	0,023
-173,183	-200,000	0,002	0,047
-172,169	14,668	-0,049	0,028
-171,154	-42,833	0,012	0,004
-170,139	800,000	0,040	-0,085
-169,125	80,019	-0,059	0,046
-168,110	800,000	-0,016	0,048
-167,096	-3,508	0,150	0,075
-166,081	89,180	-0,084	-0,067
-165,066	-200,000	-0,013	0,052
-164,052	800,000	0,025	0,079
-163,037	800,000	-0,021	0,062
-162,023	-200,000	0,016	-0,070
-161,008	-70,411	-0,081	0,022
-159,993	79,401	0,017	-0,013
-158,979	-78,187	-0,043	-0,011
-157,964	686,335	-0,027	-0,051
-156,950	-98,532	-0,134	-0,024
-155,935	634,835	-0,067	0,123
-154,920	-200,000	0,061	0,210
-153,906	145,665	0,028	-0,027
-152,891	-67,598	-0,115	-0,032
-151,877	69,813	-0,142	0,105
-150,862	-16,176	0,036	0,017
-149,847	-75,131	-0,116	-0,030
-148,833	749,902	0,032	-0,062
-147,818	-11,186	0,096	-0,046
-146,804	-200,000	-0,007	0,136
-145,789	-200,000	-0,015	0,109
-144,775	67,914	-0,036	-0,026
-143,760	-200,000	-0,014	-0,073
-142,745	800,000	0,016	-0,035
-141,731	637,895	0,081	-0,149
-140,716	-200,000	0,009	-0,070
-139,702	800,000	0,053	-0,114
-138,687	677,034	-0,031	-0,058
-137,672	96,828	-0,092	0,076
-136,658	-77,979	-0,078	-0,019
-135,643	256,635	-0,030	-0,038
-134,629	-52,347	0,122	0,040
-133,614	7,814	0,051	-0,027
-132,599	-37,495	0,181	-0,069
-131,585	-146,321	-0,088	-0,005
-130,570	-149,463	-0,130	-0,007
-129,556	-9,446	-0,045	0,022
-128,541	206,384	0,033	-0,037
-127,526	-200,000	-0,015	0,069
-126,512	-200,000	-0,001	0,022
-125,497	65,562	0,127	-0,092
-124,483	147,439	-0,110	0,106
-123,468	107,475	-0,097	0,083
-122,453	263,993	0,074	0,092
-121,439	-200,000	0,009	0,073
-120,424	-118,273	-0,006	-0,001
-119,410	-86,468	0,147	0,032
-118,395	-200,000	-0,007	0,263
-117,380	-200,000	-0,050	0,167
-116,366	-88,642	0,091	0,019
-115,351	-181,251	0,073	0,001
-114,337	301,476	-0,022	0,030
-113,322	148,465	0,024	0,023
-112,307	800,000	0,023	0,058
-111,293	-55,601	-0,050	-0,016
-110,278	-91,904	0,049	0,010
-109,264	-54,520	0,126	0,041
-108,249	91,225	0,116	0,094
-107,234	329,938	-0,084	-0,116
-106,220	196,027	0,105	-0,115
-105,205	31,256	0,108	-0,066
-104,191	800,000	0,013	-0,031
-103,176	179,439	0,132	0,140
-102,162	800,000	0,022	-0,065
-101,147	-33,362	0,030	-0,012
-100,132	-46,153	-0,080	0,028
-99,118	-200,000	0,009	0,201
-98,103	280,177	-0,036	-0,046
-97,089	800,000	0,011	-0,023
-96,074	418,101	0,084	0,129
-95,059	67,312	-0,099	0,072
-94,045	49,891	-0,109	-0,074
-93,030	292,339	0,042	-0,055
-92,016	207,878	0,016	-0,017
-91,001	-14,777	0,020	-0,009
-89,986	-200,000	-0,028	0,116
-88,972	-200,000	-0,027	0,157
-87,957	800,000	0,045	0,092
-86,943	-82,325	0,065	-0,015
-85,928	-200,000	-0,007	0,124
-84,913	-200,000	-0,016	-0,104
-83,899	-200,000	0,009	0,055
-82,884	104,885	0,052	0,044
-81,870	561,793	0,010	0,018
-80,855	103,813	-0,039	0,033
-79,840	-16,896	0,003	-0,001
-78,826	-51,906	-0,140	0,046
-77,811	-25,976	0,160	0,067
-76,797	210,320	-0,069	-0,078
-75,782	-22,263	0,119	-0,052
-74,767	580,530	0,036	-0,063
-73,753	-47,774	-0,052	0,018
-72,738	800,000	0,047	0,141
-71,724	800,000	0,008	-0,021
-70,709	800,000	0,038	-0,102
-69,694	653,833	-0,069	-0,128
-68,680	-123,827	0,153	0,017
-67,665	-200,000	0,037	0,199
-66,651	-3,558	0,112	0,056
-65,636	-200,000	-0,010	0,035
-64,622	-69,998	-0,084	-0,023
-63,607	-91,499	-0,065	-0,013
-62,592	-12,277	0,154	0,072
-61,578	-63,036	-0,043	-0,013
-60,563	-200,000	0,005	0,153
-59,549	-113,603	-0,145	0,020
-58,534	22,061	-1,922	-1,123
-57,519	-200,000	-0,195	-0,902
-56,505	-200,000	-1,390	-5,050
-55,490	19,163	0,878	0,504
-54,476	800,000	5,447	12,091
-53,461	-200,000	17,778	289,630
-52,446	800,000	729,528	2232,897
-51,432	537,492	1645,494	2816,277
-50,417	109,416	1635,600	1405,357
-49,403	75,339	1287,078	973,382
-48,388	31,690	1027,339	632,846
-47,373	20,160	989,057	571,258
-46,359	18,305	976,864	558,115
-45,344	15,315	972,836	546,013
-44,330	15,574	971,194	545,915
-43,315	15,072	969,417	543,257
-42,300	14,963	968,346	542,278
-41,286	15,016	967,252	541,817
-40,271	15,011	966,326	541,263
-39,257	15,017	965,353	540,714
-38,242	15,043	964,540	540,321
-37,227	15,012	963,793	539,783
-36,213	15,021	962,847	539,261
-35,198	15,012	961,953	538,707
-34,184	14,994	961,466	538,355
-33,169	14,991	960,298	537,673
-32,154	15,057	959,320	537,316
-31,140	15,085	958,352	536,842
-30,125	15,069	957,724	536,419
-29,111	15,051	956,852	535,848
-28,096	15,030	956,384	535,497
-27,082	15,080	955,576	535,186
-26,067	15,072	954,573	534,576
-25,052	15,045	953,890	534,087
-24,038	15,022	953,487	533,765
-23,023	15,006	952,802	533,311
-22,009	14,993	952,206	532,912
-20,994	15,038	951,459	532,619
-19,979	15,010	950,904	532,198
-18,965	14,991	950,168	531,705
-17,950	15,070	949,485	531,552
-16,936	15,018	948,875	531,025
-15,921	14,932	948,323	530,421
-14,906	14,930	947,508	529,937
-13,892	14,927	946,983	529,614
-12,877	14,895	946,324	529,120
-11,863	14,890	945,781	528,782
-10,848	14,959	944,934	528,505
-9,833	15,016	944,649	528,505
-8,819	15,029	943,875	528,093
-7,804	14,932	943,398	527,495
-6,790	14,919	942,783	527,092
-5,775	15,003	942,130	526,971
-4,760	14,919	941,615	526,395
-3,746	14,854	941,081	525,872
-2,731	14,796	940,202	525,175
-1,717	14,738	939,748	524,717
-0,702	14,830	938,851	524,487
0,313	14,532	938,514	524,148
1,327	17,789	936,268	533,105
2,342	26,755	792,408	474,898
3,356	23,408	457,302	268,940
4,371	-3,612	313,623	155,790
5,386	-7,503	295,394	142,795
6,400	-9,420	289,178	137,881
7,415	-9,980	286,861	136,215
8,429	-10,336	285,500	135,208
9,444	-10,214	284,401	134,795
10,459	-9,978	283,747	134,702
11,473	-10,214	283,191	134,197
12,488	-10,270	282,713	133,904
13,502	-10,235	282,040	133,608
14,517	-10,265	281,684	133,398
15,531	-10,297	281,358	133,201
16,546	-10,042	280,996	133,263
17,561	-10,008	280,420	133,010
18,575	-10,069	280,214	132,842
19,590	-10,232	279,759	132,459
20,604	-10,349	279,597	132,258
21,619	-10,213	279,243	132,209
22,634	-10,281	278,889	131,965
23,648	-10,160	278,426	131,849
24,663	-10,094	278,274	131,828
25,677	-10,261	278,000	131,528
26,692	-10,228	277,681	131,397
27,707	-10,239	277,604	131,338
28,721	-10,215	277,232	131,173
29,736	-10,184	276,981	131,072
30,750	-10,379	276,771	130,777
31,765	-10,434	276,425	130,549
32,780	-10,214	276,183	130,631
33,794	-10,434	275,916	130,286
34,809	-10,417	275,819	130,245
35,823	-10,266	275,360	130,158
36,838	-10,380	275,101	129,917
37,853	-10,294	274,885	129,884
38,867	-10,372	274,763	129,741
39,882	-10,140	274,476	129,812
40,896	-10,161	274,154	129,628
41,911	-10,437	273,935	129,255
42,926	-10,402	273,644	129,139
43,940	-10,384	273,367	129,014
44,955	-10,303	273,173	128,986
45,969	-10,476	273,081	128,770
46,984	-10,556	272,642	128,478
47,999	-10,707	272,495	128,256
49,013	-10,639	272,108	128,126
50,028	-10,825	271,989	127,885
51,042	-10,874	271,743	127,713
52,057	-11,036	271,535	127,454
53,071	-10,851	271,249	127,480
54,086	-10,876	271,145	127,396
55,101	-10,728	270,914	127,413
56,115	-10,472	270,854	127,610
57,130	-10,269	270,674	127,701
58,144	-10,058	270,355	127,733
59,159	-10,257	270,220	127,475
60,174	-10,242	269,958	127,354
61,188	-10,138	269,616	127,276
62,203	-10,113	269,447	127,208
63,217	-10,239	269,354	127,037
64,232	-10,266	269,110	126,886
65,247	-10,045	268,858	126,959
66,261	-10,144	268,469	126,673
67,276	-10,290	268,284	126,441
68,290	-10,403	268,014	126,200
69,305	-10,687	267,782	125,820
70,320	-10,604	267,598	125,798
71,334	-10,253	267,498	126,060
72,349	-10,128	267,274	126,056
73,363	-10,127	266,973	125,904
74,378	-9,925	266,756	125,974
75,393	-10,249	266,642	125,614
76,407	-10,247	266,447	125,513
77,422	-10,208	266,272	125,455
78,436	-10,213	266,085	125,352
79,451	-10,091	265,652	125,246
80,466	-10,339	265,453	124,918
81,480	-10,318	265,176	124,795
82,495	-10,391	264,954	124,613
83,509	-10,371	264,929	124,609
84,524	-10,401	264,666	124,447
85,539	-10,377	264,353	124,310
86,553	-10,395	264,141	124,183
87,568	-10,372	263,989	124,122
88,582	-10,410	263,600	123,893
89,597	-10,384	263,473	123,846
90,611	-10,200	263,404	123,967
91,626	-10,082	263,383	124,052
92,641	-10,077	263,086	123,906
93,655	-10,204	262,793	123,643
94,670	-10,466	262,637	123,325
95,684	-10,280	262,479	123,406
96,699	-10,128	262,104	123,354
97,714	-10,431	262,066	123,055
98,728	-10,397	261,763	122,932
99,743	-10,435	261,637	122,828
100,757	-10,375	261,329	122,726
101,772	-10,399	261,183	122,625
102,787	-10,256	260,995	122,652
103,801	-10,239	260,761	122,546
104,816	-10,362	260,702	122,399
105,830	-10,004	260,387	122,556
106,845	-10,059	260,342	122,476
107,860	-10,270	260,121	122,174
108,874	-10,304	259,957	122,057
109,889	-10,322	259,757	121,936
110,903	-10,181	259,523	121,939
111,918	-10,253	259,234	121,730
112,933	-10,139	259,012	121,715
113,947	-10,302	258,966	121,539
114,962	-10,186	258,687	121,499
115,976	-10,175	258,480	121,401
116,991	-10,369	258,289	121,130
118,006	-10,227	258,262	121,231
119,020	-10,346	258,118	121,049
120,035	-10,084	257,950	121,188
121,049	-10,143	257,771	121,042
122,064	-10,234	257,521	120,834
123,079	-9,968	257,223	120,915
124,093	-10,150	257,079	120,678
125,108	-10,365	256,875	120,385
126,122	-10,480	256,625	120,157
127,137	-10,725	256,400	119,828
128,151	-10,611	256,406	119,919
129,166	-10,296	256,003	119,993
130,181	-10,229	255,833	119,961
131,195	-10,384	255,485	119,653
132,210	-10,270	255,434	119,717
133,224	-10,341	255,451	119,652
134,239	-10,301	255,350	119,629
135,254	-10,123	254,793	119,511
136,268	-10,219	254,705	119,376
137,283	-10,541	254,504	118,994
138,297	-10,632	254,183	118,755
139,312	-10,461	253,995	118,804
140,327	-10,399	253,815	118,762
141,341	-10,080	253,933	119,081
142,356	-10,210	253,758	118,876
143,370	-10,146	253,559	118,828
144,385	-10,003	253,315	118,825
145,400	-10,027	253,117	118,701
146,414	-10,038	253,041	118,646
147,429	-10,098	252,813	118,477
148,443	-10,012	252,616	118,448
149,458	-9,933	252,400	118,403
150,473	-9,997	252,364	118,321
151,487	-10,120	251,963	118,017
152,502	-10,181	251,968	117,958
153,516	-10,256	251,712	117,763
154,531	-9,980	251,447	117,864
155,546	-10,028	251,260	117,725
156,560	-10,044	251,131	117,640
157,575	-10,035	250,802	117,483
158,589	-10,252	250,806	117,290
159,604	-9,781	250,380	117,479
160,619	-10,043	250,378	117,246
161,633	-9,980	250,241	117,225
162,648	-10,009	250,181	117,162
163,662	-10,055	249,953	117,006
164,677	-10,009	249,768	116,948
165,692	-9,973	249,561	116,870
166,706	-9,854	249,501	116,932
167,721	-10,018	249,293	116,686
168,735	-10,085	249,209	116,581
169,750	-10,026	248,934	116,491
170,764	-9,971	248,849	116,487
171,779	-9,703	248,544	116,558
172,794	-10,002	248,622	116,334
173,808	-9,995	248,179	116,122
174,823	-10,430	247,930	115,632
175,837	-10,455	247,828	115,553
176,852	-10,244	247,726	115,671
177,867	-10,009	247,519	115,760
178,881	-10,064	247,445	115,669
179,896	-9,907	247,245	115,697
180,910	-9,920	247,029	115,574
181,925	-9,988	246,965	115,477
182,940	-9,919	246,672	115,387
183,954	-10,102	246,534	115,160
184,969	-9,924	246,556	115,308
185,983	-9,927	246,301	115,176
186,998	-10,009	246,151	115,027
188,013	-9,882	245,952	115,030
189,027	-9,890	245,767	114,927
190,042	-10,000	245,536	114,717
191,056	-9,829	245,231	114,706
192,071	-9,935	245,187	114,587
193,086	-9,879	244,957	114,516
194,100	-10,114	244,884	114,278
195,115	-9,952	244,588	114,262
196,129	-9,893	244,462	114,242
197,144	-9,992	244,259	114,055
198,159	-10,009	244,081	113,949
199,173	-9,909	243,842	113,909
200,188	-10,174	243,747	113,637
201,202	-10,238	243,558	113,486
202,217	-10,495	243,268	113,130
203,232	-10,748	243,021	112,799
204,246	-10,179	243,083	113,283
205,261	-9,807	242,894	113,489
206,275	-10,049	242,653	113,169
207,290	-5,312	244,665	117,990
208,304	1,764	246,748	124,831
209,319	3,953	247,083	126,795
210,334	4,063	247,084	126,875
211,348	4,076	246,928	126,795
212,363	4,015	246,772	126,653
213,377	4,182	246,717	126,751
214,392	4,347	246,577	126,803
215,407	4,195	246,459	126,606
216,421	4,263	246,273	126,556
217,436	4,276	246,048	126,439
218,450	4,169	245,901	126,264
219,465	3,846	245,759	125,915
220,480	3,902	245,295	125,712
221,494	3,744	245,383	125,617
222,509	3,984	245,087	125,650
223,523	3,915	245,038	125,558
224,538	3,682	244,766	125,217
225,553	3,654	244,637	125,117
226,567	3,808	244,426	125,123
227,582	3,628	244,361	124,932
228,596	3,899	244,232	125,076
229,611	3,706	243,928	124,752
230,626	3,521	243,758	124,504
231,640	3,682	243,867	124,679
232,655	3,599	243,563	124,445
233,669	3,707	243,305	124,390
234,684	3,612	243,088	124,191
235,699	3,981	243,114	124,492
236,713	3,845	242,930	124,277
237,728	3,747	242,702	124,070
238,742	3,555	242,551	123,827
239,757	3,589	242,382	123,757
240,772	3,784	242,124	123,771
241,786	3,513	242,042	123,500
242,801	3,789	241,838	123,606
243,815	3,909	241,818	123,682
244,830	3,804	241,720	123,536
245,844	3,878	241,439	123,441
246,859	3,642	241,312	123,176
247,874	3,922	241,025	123,243
248,888	3,935	240,896	123,177
249,903	3,987	240,767	123,141
250,917	3,616	240,795	122,848
251,932	3,879	240,574	122,934
252,947	3,729	240,447	122,738
253,961	3,756	240,274	122,660
254,976	3,712	239,961	122,455
255,990	3,897	239,830	122,524
257,005	3,700	239,683	122,281
258,020	3,583	239,554	122,111
259,034	3,685	239,529	122,169
260,049	3,724	239,324	122,085
261,063	3,723	239,154	121,986
262,078	3,369	238,986	121,608
263,093	3,719	238,813	121,788
264,107	3,516	238,766	121,592
265,122	3,721	238,444	121,579
266,136	3,874	238,445	121,690
267,151	3,998	238,180	121,642
268,166	3,791	238,026	121,389
269,180	3,731	237,841	121,236
270,195	3,809	237,817	121,275
271,209	3,919	237,537	121,208
272,224	3,666	237,398	120,927
273,239	3,573	237,324	120,805
274,253	3,644	237,200	120,787
275,268	3,736	237,005	120,749
276,282	3,697	236,862	120,635
277,297	3,724	236,811	120,620
278,312	3,597	236,456	120,328
279,326	3,868	236,397	120,500
280,341	3,808	236,268	120,377
281,355	3,907	236,058	120,336
282,370	3,906	235,939	120,264
283,384	3,555	235,808	119,912
284,399	3,543	235,555	119,764
285,414	3,714	235,481	119,849
286,428	3,665	235,360	119,738
287,443	3,680	235,050	119,582
288,457	3,839	235,088	119,714
289,472	3,949	234,827	119,656
290,487	3,583	234,683	119,288
291,501	3,516	234,427	119,095
292,516	3,756	234,357	119,235
293,530	3,568	234,498	119,150
294,545	3,840	234,360	119,281
295,560	3,955	234,009	119,180
296,574	3,636	233,854	118,844
297,589	3,870	233,610	118,890
298,603	3,875	233,652	118,904
299,618	3,849	233,471	118,782
300,633	3,786	233,359	118,665
301,647	3,957	233,154	118,682
302,662	3,885	233,131	118,605
303,676	3,946	232,856	118,501
304,691	3,986	232,723	118,454
305,706	3,779	232,775	118,310
306,720	3,803	232,480	118,168
307,735	3,776	232,205	117,997
308,749	3,682	232,066	117,844
309,764	3,835	231,924	117,878
310,779	3,605	231,717	117,587
311,793	3,505	231,628	117,454
312,808	3,465	231,530	117,364
313,822	3,849	231,214	117,486
314,837	3,846	231,196	117,465
315,852	3,820	230,967	117,318
316,866	3,798	230,891	117,252
317,881	4,005	230,756	117,331
318,895	3,870	230,628	117,153
319,910	3,851	230,527	117,076
320,925	3,935	230,200	116,964
321,939	3,848	230,162	116,868
322,954	3,894	230,172	116,897
323,968	3,781	229,933	116,680
324,983	3,804	229,771	116,604
325,997	4,093	229,598	116,726
327,012	3,878	229,417	116,460
328,027	3,802	229,376	116,371
329,041	4,205	229,239	116,597
330,056	4,352	229,281	116,719
331,070	4,199	229,018	116,459
332,085	4,011	228,840	116,216
333,100	3,861	228,583	115,962
334,114	4,050	228,466	116,035
335,129	4,225	228,252	116,047
336,143	4,185	228,165	115,963
337,158	4,004	228,042	115,753
338,173	3,797	227,952	115,542
339,187	3,892	227,699	115,475
340,202	3,983	227,549	115,457
341,216	3,799	227,470	115,268
342,231	3,861	227,222	115,179
343,246	3,892	227,137	115,149
344,260	3,564	227,139	114,894
345,275	3,727	226,841	114,855
346,289	3,969	226,604	114,905
347,304	3,329	226,593	114,412
348,319	3,552	226,275	114,407
349,333	3,221	226,256	114,140
350,348	3,308	225,911	114,021
351,362	3,161	225,623	113,756
352,377	2,974	225,500	113,545
353,392	2,693	225,384	113,268
354,406	2,562	225,149	113,042
355,421	194,190	1321,124	1393,463
356,435	155,584	1454,631	1393,459
