DTS Sentinel unit serial number:	SN410029Multiplexer serial number:	ORYXHardware model number:	OX2-SRSoftware version number:	ORYX F/W v4,00 Oryx Data Collector v3.7.2.0data status	okinstallation	B5 Nyhavnadifferential loss correction	single-endedforward channel	channel 2reverse channel	N/Adate	2023/12/14time	10:42:13forward acquisition time	300,00reverse acquisition time	0,00gamma	499,1914k internal	0,3161k external	0,3161temperature offset calibration	1,0000default loss term (dB/km)	0,3820temperature slope calibration	1,0000multiplexer offset coefficient	1,0000multiplexer slope coefficient	1,0000fibre end	0,00T internal ref (°C)	7,02T ext. ref 1 (°C)	-8,48T ext. ref 2 (°C)	-8,51length (m)	temperature (°C)	Stokes	anti-Stokes-744,400	20,926	0,145	0,086
-743,385	-108,002	-0,516	-0,082
-742,371	177,487	0,255	0,273
-741,356	-98,649	-0,314	0,058
-740,342	-91,495	0,173	0,036
-739,327	-105,905	-0,427	-0,070
-738,312	261,020	0,024	0,030
-737,298	-13,493	-0,429	-0,204
-736,283	-21,787	0,172	0,077
-735,269	-140,380	-0,381	0,029
-734,254	-118,272	0,068	-0,009
-733,239	-5,405	-0,510	-0,257
-732,225	20,941	0,225	0,134
-731,210	0,060	-0,142	0,074
-730,196	123,003	0,057	0,053
-729,181	-50,093	0,070	0,024
-728,167	195,388	0,054	0,061
-727,152	566,946	-0,034	0,061
-726,137	176,753	-0,143	0,153
-725,123	393,648	-0,031	-0,048
-724,108	-23,549	-0,082	0,036
-723,094	28,248	-0,038	-0,023
-722,079	-200,000	-0,001	0,011
-721,064	90,512	-0,066	0,054
-720,050	101,928	0,153	-0,131
-719,035	-96,877	0,118	-0,023
-718,021	-200,000	0,001	0,144
-717,006	800,000	-0,010	-0,026
-715,991	-159,641	0,042	0,002
-714,977	-177,669	0,021	0,000
-713,962	800,000	-0,048	0,126
-712,948	800,000	0,072	0,165
-711,933	800,000	0,040	0,094
-710,918	13,941	-0,077	0,044
-709,904	-52,639	-0,134	-0,045
-708,889	-17,994	-0,125	-0,057
-707,875	107,496	0,091	-0,080
-706,860	-141,749	-0,062	0,004
-705,845	-90,560	0,028	0,006
-704,831	-126,416	-0,100	0,011
-703,816	-40,716	-0,075	0,028
-702,802	129,509	-0,086	-0,081
-701,787	-38,273	-0,041	0,016
-700,772	-98,426	-0,054	0,010
-699,758	123,006	-0,028	-0,026
-698,743	-89,733	0,030	0,006
-697,729	-200,000	0,010	0,047
-696,714	800,000	-0,005	0,013
-695,699	-200,000	0,009	0,038
-694,685	20,426	-0,047	0,028
-693,670	800,000	-0,039	-0,120
-692,656	-58,550	-0,054	0,017
-691,641	142,017	-0,046	0,044
-690,627	-200,000	0,022	0,188
-689,612	-168,870	-0,022	-0,001
-688,597	524,492	0,034	0,060
-687,583	387,751	-0,043	-0,065
-686,568	-200,000	0,035	-0,123
-685,554	-128,149	-0,082	0,008
-684,539	-74,510	0,104	0,027
-683,524	197,058	-0,037	-0,041
-682,510	33,071	0,030	0,019
-681,495	800,000	-0,014	-0,041
-680,481	-181,266	0,041	0,001
-679,466	53,605	0,094	-0,066
-678,451	-200,000	0,007	0,031
-677,437	-103,764	-0,033	0,006
-676,422	295,175	-0,057	-0,076
-675,408	-65,725	-0,099	-0,029
-674,393	691,676	-0,008	-0,015
-673,378	-137,309	0,026	-0,002
-672,364	-127,662	-0,067	0,007
-671,349	46,362	-0,052	-0,035
-670,335	299,988	0,037	-0,050
-669,320	-72,145	-0,119	0,032
-668,305	-200,000	0,021	0,104
-667,291	694,694	-0,048	0,092
-666,276	-72,026	-0,057	0,015
-665,262	546,665	0,008	-0,014
-664,247	-200,000	-0,062	-0,264
-663,232	161,200	0,041	0,042
-662,218	-200,000	-0,012	-0,126
-661,203	-153,661	-0,168	0,008
-660,189	157,164	0,048	0,049
-659,174	49,685	-0,054	-0,037
-658,159	-141,447	0,085	0,006
-657,145	-200,000	-0,007	-0,065
-656,130	-200,000	-0,001	0,013
-655,116	177,223	0,067	0,072
-654,101	-83,723	0,104	-0,024
-653,086	43,684	-0,140	0,094
-652,072	478,770	-0,111	-0,184
-651,057	-45,921	-0,099	-0,036
-650,043	414,334	-0,065	-0,102
-649,028	29,148	-0,149	-0,092
-648,014	682,353	0,065	-0,124
-646,999	284,910	-0,036	-0,048
-645,984	301,222	-0,056	0,076
-644,970	-108,304	-0,061	-0,010
-643,955	-200,000	0,007	-0,088
-642,941	75,232	0,027	-0,021
-641,926	-138,727	0,061	-0,005
-640,911	12,421	0,094	0,053
-639,897	-200,000	-0,039	0,131
-638,882	800,000	-0,020	-0,048
-637,868	51,612	-0,120	-0,083
-636,853	31,339	-0,131	-0,082
-635,838	-119,114	0,104	-0,013
-634,824	34,894	-0,110	-0,070
-633,809	507,824	-0,016	-0,027
-632,795	800,000	0,006	-0,014
-631,780	348,941	0,054	0,079
-630,765	800,000	0,033	-0,089
-629,751	442,578	-0,118	-0,190
-628,736	-200,000	-0,052	-0,171
-627,722	212,377	-0,063	0,073
-626,707	602,878	-0,043	-0,079
-625,692	-200,000	0,009	0,037
-624,678	450,710	-0,066	0,107
-623,663	-130,738	0,055	0,005
-622,649	-200,000	-0,008	-0,042
-621,634	-118,582	-0,078	0,010
-620,619	53,497	-0,105	-0,074
-619,605	-200,000	0,004	-0,067
-618,590	-103,762	0,070	-0,012
-617,576	-33,230	0,034	-0,014
-616,561	-116,110	-0,061	-0,008
-615,546	35,763	-0,101	-0,065
-614,532	84,968	-0,170	-0,137
-613,517	-200,000	-0,003	0,023
-612,503	28,290	-0,118	0,073
-611,488	5,578	0,053	0,028
-610,474	358,594	-0,047	0,069
-609,459	572,488	0,133	-0,238
-608,444	-80,412	-0,151	0,037
-607,430	-136,845	-0,051	-0,004
-606,415	157,765	-0,046	-0,047
-605,401	-69,147	-0,124	0,035
-604,386	356,339	-0,124	0,181
-603,371	26,566	0,092	-0,056
-602,357	800,000	-0,015	-0,048
-601,342	388,156	0,043	0,065
-600,328	-200,000	-0,002	-0,200
-599,313	-200,000	-0,032	-0,119
-598,298	800,000	0,050	-0,148
-597,284	800,000	-0,030	0,063
-596,269	-92,340	-0,058	-0,012
-595,255	756,974	-0,023	0,047
-594,240	35,898	-0,067	0,043
-593,225	-200,000	0,000	-0,108
-592,211	-35,277	-0,096	-0,038
-591,196	193,664	0,058	-0,065
-590,182	-184,722	0,014	0,000
-589,167	-200,000	-0,004	-0,027
-588,152	407,529	0,017	-0,026
-587,138	-3,357	0,091	0,046
-586,123	-200,000	-0,011	-0,102
-585,109	-32,629	-0,127	-0,051
-584,094	28,359	0,189	0,117
-583,079	474,257	0,044	-0,074
-582,065	-200,000	-0,002	0,042
-581,050	800,000	-0,031	-0,088
-580,036	514,743	-0,075	-0,129
-579,021	48,721	0,061	-0,042
-578,006	13,200	0,065	-0,037
-576,992	-200,000	-0,008	0,062
-575,977	-200,000	0,011	0,061
-574,963	-200,000	0,002	-0,077
-573,948	-59,746	-0,123	0,038
-572,934	225,863	-0,057	-0,068
-571,919	-16,606	-0,107	0,049
-570,904	-15,312	-0,104	0,049
-569,890	800,000	-0,053	-0,115
-568,875	49,256	0,101	-0,069
-567,861	-40,352	-0,067	0,026
-566,846	-200,000	0,019	0,178
-565,831	12,229	0,121	0,068
-564,817	18,482	-0,102	-0,059
-563,802	-197,788	-0,115	-0,000
-562,788	-150,924	-0,031	0,002
-561,773	34,920	0,084	-0,054
-560,758	123,996	0,034	0,032
-559,744	160,395	0,028	0,029
-558,729	-133,725	-0,024	-0,002
-557,715	-200,000	-0,021	0,137
-556,700	17,289	-0,117	-0,068
-555,685	-51,350	0,128	-0,043
-554,671	778,505	-0,070	0,140
-553,656	9,720	-0,029	0,016
-552,642	-154,256	0,157	-0,008
-551,627	-32,451	-0,023	-0,009
-550,612	-97,880	0,096	-0,018
-549,598	-12,635	0,099	0,047
-548,583	-200,000	-0,027	-0,155
-547,569	800,000	0,084	-0,190
-546,554	-37,782	0,127	0,049
-545,539	301,712	0,019	0,026
-544,525	295,207	0,024	0,033
-543,510	640,891	-0,055	0,102
-542,496	167,597	-0,115	-0,119
-541,481	800,000	-0,051	-0,130
-540,466	93,068	-0,088	0,073
-539,452	66,106	-0,052	0,039
-538,437	800,000	0,046	0,124
-537,423	-101,811	0,074	0,013
-536,408	92,041	-0,122	0,100
-535,393	90,534	0,121	-0,099
-534,379	-54,882	-0,068	-0,022
-533,364	-20,927	0,079	-0,035
-532,350	-24,429	-0,080	0,035
-531,335	-200,000	0,010	0,066
-530,321	-200,000	0,013	0,084
-529,306	800,000	0,076	0,154
-528,291	57,973	-0,133	-0,095
-527,277	260,262	0,057	-0,072
-526,262	800,000	0,023	-0,053
-525,248	96,548	-0,038	-0,031
-524,233	20,508	0,039	0,023
-523,218	-53,851	0,081	-0,027
-522,204	271,718	0,028	-0,036
-521,189	-200,000	-0,001	-0,034
-520,175	-64,065	-0,077	0,023
-519,160	-102,959	-0,027	-0,005
-518,145	-200,000	-0,002	-0,048
-517,131	800,000	0,061	-0,134
-516,116	-200,000	0,031	0,149
-515,102	-200,000	0,025	0,195
-514,087	-41,020	-0,114	-0,043
-513,072	-50,671	0,050	-0,017
-512,058	-200,000	0,030	0,135
-511,043	57,254	0,066	0,047
-510,029	757,366	0,015	-0,030
-509,014	-21,937	0,128	0,057
-507,999	13,653	-0,150	0,085
-506,985	-32,549	0,075	0,030
-505,970	133,489	0,058	0,054
-504,956	-72,449	-0,085	-0,023
-503,941	-30,940	-0,034	0,014
-502,926	-76,038	0,017	0,004
-501,912	-200,000	0,025	0,112
-500,897	395,631	0,036	0,054
-499,883	-200,000	0,007	0,039
-498,868	-55,375	-0,119	-0,039
-497,853	628,721	0,037	-0,069
-496,839	-200,000	0,006	-0,138
-495,824	0,954	0,060	0,031
-494,810	170,511	0,068	0,071
-493,795	67,411	-0,101	0,075
-492,781	-26,165	-0,055	-0,023
-491,766	800,000	0,029	-0,062
-490,751	-200,000	0,014	-0,083
-489,737	-22,815	0,079	0,035
-488,722	800,000	-0,059	-0,181
-487,708	630,884	0,050	0,093
-486,693	84,537	0,049	0,039
-485,678	322,984	-0,076	0,106
-484,664	-200,000	0,060	-0,195
-483,649	800,000	-0,054	-0,134
-482,635	96,498	-0,044	-0,037
-481,620	800,000	0,022	0,050
-480,605	-200,000	0,037	-0,124
-479,591	-93,386	-0,100	-0,020
-478,576	181,075	0,038	-0,041
-477,562	-200,000	0,001	-0,114
-476,547	332,355	0,057	0,080
-475,532	345,390	-0,073	-0,105
-474,518	-200,000	0,044	0,000
-473,503	65,529	0,038	0,028
-472,489	-38,489	-0,056	-0,021
-471,474	-5,279	0,086	0,043
-470,459	132,919	-0,058	0,054
-469,445	800,000	0,068	-0,197
-468,430	520,997	-0,018	-0,030
-467,416	34,835	-0,062	0,040
-466,401	91,769	-0,106	0,087
-465,386	394,889	0,075	0,115
-464,372	147,043	-0,019	0,019
-463,357	185,278	-0,103	0,112
-462,343	800,000	-0,003	0,006
-461,328	32,456	-0,037	0,023
-460,313	37,666	0,027	0,017
-459,299	-200,000	0,054	0,187
-458,284	-200,000	-0,002	0,108
-457,270	346,686	-0,028	-0,040
-456,255	-3,458	-0,042	0,021
-455,241	-146,895	0,038	0,002
-454,226	487,642	-0,063	0,105
-453,211	114,056	0,091	-0,081
-452,197	-200,000	0,170	-0,000
-451,182	-200,000	-0,028	0,146
-450,168	177,214	0,059	-0,063
-449,153	-142,719	-0,072	-0,005
-448,138	299,703	-0,024	0,032
-447,124	310,609	0,064	-0,087
-446,109	-103,756	-0,066	0,011
-445,095	330,447	0,076	0,107
-444,080	-151,376	0,092	-0,005
-443,065	-19,363	0,053	0,024
-442,051	-114,822	-0,061	-0,008
-441,036	-10,808	-0,085	-0,041
-440,022	-200,000	0,002	0,043
-439,007	54,473	-0,039	0,027
-437,992	800,000	-0,013	0,026
-436,978	-200,000	-0,007	0,068
-435,963	7,426	-0,086	0,046
-434,949	-200,000	0,003	0,083
-433,934	800,000	-0,033	0,091
-432,919	-200,000	-0,005	0,021
-431,905	-200,000	-0,014	-0,050
-430,890	10,653	0,131	-0,072
-429,876	101,816	0,045	0,038
-428,861	210,203	-0,044	-0,051
-427,846	-200,000	0,006	-0,070
-426,832	-99,812	-0,071	-0,013
-425,817	-38,696	-0,089	-0,034
-424,803	-61,858	-0,097	-0,029
-423,788	800,000	0,041	-0,102
-422,773	-200,000	0,009	0,175
-421,759	130,336	-0,032	0,030
-420,744	257,971	0,022	-0,028
-419,730	266,749	0,043	0,054
-418,715	-200,000	-0,009	-0,094
-417,701	-79,427	-0,078	0,019
-416,686	800,000	-0,012	0,024
-415,671	-181,187	0,066	-0,001
-414,657	-200,000	0,008	0,026
-413,642	800,000	0,007	-0,015
-412,628	495,073	-0,087	-0,145
-411,613	-65,420	0,013	0,004
-410,598	-200,000	-0,006	0,077
-409,584	-57,504	0,059	0,019
-408,569	151,167	0,030	0,030
-407,555	800,000	-0,103	0,230
-406,540	49,918	-0,068	-0,046
-405,525	113,184	-0,025	-0,022
-404,511	582,495	-0,066	-0,118
-403,496	-200,000	-0,012	0,045
-402,482	184,251	-0,096	0,103
-401,467	-136,271	0,118	0,010
-400,452	800,000	0,016	-0,042
-399,438	49,376	-0,018	-0,012
-398,423	-200,000	0,010	-0,145
-397,409	800,000	-0,048	-0,101
-396,394	619,412	0,043	-0,079
-395,379	185,497	-0,046	0,050
-394,365	-200,000	0,038	-0,159
-393,350	800,000	-0,075	0,190
-392,336	-14,650	0,094	-0,044
-391,321	-92,488	0,127	-0,026
-390,306	-200,000	-0,015	0,066
-389,292	800,000	0,008	0,024
-388,277	-146,832	0,078	-0,005
-387,263	242,120	-0,064	0,078
-386,248	324,851	0,027	-0,037
-385,233	-97,575	0,062	-0,012
-384,219	-77,916	0,033	0,008
-383,204	45,428	0,054	-0,036
-382,190	800,000	-0,040	-0,088
-381,175	-101,561	0,103	-0,018
-380,160	143,279	-0,134	0,130
-379,146	141,349	0,130	0,125
-378,131	439,977	-0,074	0,118
-377,117	800,000	-0,025	0,072
-376,102	-200,000	-0,010	-0,051
-375,088	-153,268	-0,103	0,005
-374,073	800,000	-0,043	-0,094
-373,058	266,064	-0,024	-0,030
-372,044	739,862	0,019	0,036
-371,029	359,686	0,028	-0,041
-370,015	-200,000	-0,008	0,192
-369,000	206,232	-0,044	0,050
-367,985	386,223	0,052	0,079
-366,971	-2,389	0,047	-0,024
-365,956	800,000	-0,048	0,112
-364,942	-200,000	0,006	0,159
-363,927	-15,469	0,102	0,047
-362,912	621,258	0,061	0,112
-361,898	-200,000	-0,023	-0,097
-360,883	50,169	0,044	0,030
-359,869	-200,000	-0,037	0,135
-358,854	176,275	0,046	-0,049
-357,839	-200,000	0,011	0,136
-356,825	-166,138	0,073	0,002
-355,810	-71,415	0,124	0,033
-354,796	800,000	0,010	0,023
-353,781	113,671	0,035	0,031
-352,766	97,860	0,037	-0,031
-351,752	18,727	0,026	-0,015
-350,737	-71,640	-0,103	0,028
-349,723	-0,297	0,041	0,021
-348,708	44,342	-0,090	-0,060
-347,693	-200,000	-0,017	-0,090
-346,679	-200,000	-0,027	0,095
-345,664	38,413	0,071	-0,046
-344,650	-200,000	0,011	-0,103
-343,635	-200,000	-0,013	0,089
-342,620	800,000	-0,022	-0,061
-341,606	266,470	0,070	-0,089
-340,591	-200,000	0,008	-0,088
-339,577	-200,000	-0,025	-0,216
-338,562	-200,000	-0,035	0,114
-337,548	-200,000	0,001	-0,021
-336,533	-200,000	0,021	0,086
-335,518	-200,000	-0,008	-0,035
-334,504	800,000	0,028	0,081
-333,489	-103,120	0,136	0,023
-332,475	800,000	-0,024	-0,052
-331,460	800,000	0,047	-0,120
-330,445	-6,317	0,163	-0,080
-329,431	-200,000	-0,073	0,242
-328,416	-161,866	-0,115	0,004
-327,402	287,361	0,053	0,070
-326,387	253,288	0,093	0,115
-325,372	254,847	-0,036	0,045
-324,358	186,930	0,035	-0,038
-323,343	275,458	-0,057	0,073
-322,329	341,361	0,028	-0,040
-321,314	-16,512	0,054	0,025
-320,299	-6,220	0,070	0,034
-319,285	-20,668	-0,085	-0,037
-318,270	258,422	0,035	0,044
-317,256	445,192	0,043	-0,069
-316,241	-110,012	-0,041	-0,006
-315,226	-200,000	-0,020	0,078
-314,212	-200,000	0,014	-0,141
-313,197	-32,191	0,205	0,083
-312,183	-144,579	0,120	0,008
-311,168	800,000	0,011	0,029
-310,153	32,900	-0,188	-0,118
-309,139	-24,435	-0,062	-0,027
-308,124	-141,358	0,016	0,001
-307,110	507,029	0,018	0,030
-306,095	143,737	-0,066	-0,064
-305,080	-115,602	-0,098	-0,013
-304,066	800,000	-0,040	-0,091
-303,051	-200,000	0,014	0,107
-302,037	172,825	0,093	-0,097
-301,022	-40,278	0,090	-0,034
-300,008	33,117	0,048	0,030
-298,993	-200,000	-0,002	-0,099
-297,978	376,302	-0,023	-0,033
-296,964	50,897	-0,091	-0,062
-295,949	800,000	-0,058	-0,167
-294,935	-200,000	-0,003	-0,134
-293,920	78,889	0,040	-0,031
-292,905	-79,391	0,081	-0,020
-291,891	-200,000	0,029	0,138
-290,876	-97,346	-0,082	0,015
-289,862	-192,823	-0,128	-0,001
-288,847	476,107	0,028	-0,045
-287,832	61,596	-0,103	0,074
-286,818	-17,564	0,028	-0,013
-285,803	6,990	0,166	0,089
-284,789	800,000	0,019	0,060
-283,774	-200,000	-0,015	-0,064
-282,759	97,258	-0,050	-0,042
-281,745	-79,265	0,079	-0,019
-280,730	290,762	-0,046	-0,060
-279,716	-117,405	-0,119	0,015
-278,701	376,769	0,058	0,086
-277,686	161,561	-0,115	0,116
-276,672	206,504	0,097	0,110
-275,657	58,302	-0,113	0,080
-274,643	800,000	0,067	-0,175
-273,628	447,585	-0,047	0,076
-272,613	-153,975	-0,072	0,004
-271,599	-142,652	0,064	-0,004
-270,584	800,000	-0,006	-0,019
-269,570	-55,646	-0,059	-0,019
-268,555	184,102	0,064	0,068
-267,540	17,034	0,048	0,028
-266,526	-82,542	-0,034	0,008
-265,511	-112,357	0,057	-0,008
-264,497	-200,000	-0,010	0,051
-263,482	164,463	-0,090	0,091
-262,467	1,964	0,034	0,018
-261,453	-176,513	0,075	-0,001
-260,438	-200,000	0,028	-0,141
-259,424	449,996	0,077	-0,123
-258,409	-200,000	-0,014	-0,049
-257,395	800,000	-0,073	0,195
-256,380	456,706	0,064	-0,103
-255,365	-42,095	0,042	0,015
-254,351	126,029	0,095	-0,086
-253,336	-111,985	-0,152	0,022
-252,322	-67,277	-0,051	-0,014
-251,307	3,205	-0,084	-0,044
-250,292	-40,227	0,068	0,025
-249,278	-45,583	0,058	0,021
-248,263	3,313	0,077	0,040
-247,249	-38,954	0,041	-0,016
-246,234	-165,101	-0,135	0,004
-245,219	242,443	0,068	0,083
-244,205	800,000	0,058	0,127
-243,190	48,570	0,034	-0,023
-242,176	-42,257	0,174	0,064
-241,161	56,255	0,145	0,101
-240,146	708,389	0,065	-0,125
-239,132	-3,670	0,070	-0,035
-238,117	-200,000	-0,023	-0,092
-237,103	-53,610	-0,073	0,024
-236,088	283,344	0,023	0,030
-235,073	800,000	-0,036	0,086
-234,059	-200,000	-0,005	0,149
-233,044	800,000	0,016	-0,049
-232,030	-76,611	-0,110	-0,028
-231,015	12,300	-0,090	0,050
-230,000	3,075	0,063	-0,033
-228,986	99,627	0,052	0,043
-227,971	-11,010	-0,139	-0,066
-226,957	35,168	0,096	0,061
-225,942	-99,153	-0,081	-0,015
-224,927	800,000	-0,027	0,077
-223,913	706,252	-0,075	-0,143
-222,898	10,105	0,045	0,024
-221,884	-180,044	0,084	-0,001
-220,869	-97,041	0,139	0,026
-219,855	-114,948	-0,065	0,009
-218,840	26,475	0,071	-0,043
-217,825	800,000	0,018	-0,047
-216,811	800,000	-0,027	0,056
-215,796	-200,000	0,018	-0,144
-214,782	712,141	-0,064	-0,124
-213,767	104,478	0,114	0,097
-212,752	82,915	0,124	0,097
-211,738	-200,000	-0,015	0,103
-210,723	7,423	0,066	-0,036
-209,709	-200,000	-0,010	0,085
-208,694	-154,878	-0,073	0,003
-207,679	10,328	-0,052	0,028
-206,665	70,899	0,109	0,081
-205,650	30,888	-0,079	0,049
-204,636	176,168	0,070	0,074
-203,621	800,000	0,024	0,061
-202,606	-200,000	-0,003	-0,014
-201,592	800,000	-0,032	-0,084
-200,577	-179,158	0,044	0,001
-199,563	14,295	0,161	-0,090
-198,548	-4,604	-0,080	-0,040
-197,533	510,784	-0,024	-0,041
-196,519	-99,302	0,066	-0,012
-195,504	800,000	0,019	-0,047
-194,490	21,616	-0,169	0,099
-193,475	-200,000	-0,003	0,034
-192,460	576,791	0,026	0,047
-191,446	-147,771	0,017	-0,001
-190,431	91,290	0,081	0,066
-189,417	-200,000	-0,011	0,042
-188,402	-8,489	0,069	0,033
-187,387	-200,000	0,002	-0,155
-186,373	-200,000	-0,035	-0,116
-185,358	132,056	-0,071	-0,066
-184,344	389,887	0,043	0,065
-183,329	704,920	0,033	0,062
-182,315	191,718	0,076	0,083
-181,300	800,000	-0,020	0,061
-180,285	-156,582	-0,104	0,005
-179,271	49,307	-0,113	-0,076
-178,256	-200,000	-0,003	-0,138
-177,242	-200,000	-0,030	-0,128
-176,227	800,000	0,029	-0,068
-175,212	800,000	-0,023	0,062
-174,198	-200,000	-0,042	-0,140
-173,183	-150,834	-0,082	-0,004
-172,169	-200,000	-0,007	-0,127
-171,154	-172,237	-0,040	0,001
-170,139	240,703	-0,044	-0,053
-169,125	33,786	0,045	0,028
-168,110	209,475	0,074	-0,084
-167,096	63,299	0,113	0,081
-166,081	-200,000	0,005	0,043
-165,066	-117,977	-0,105	0,013
-164,052	-44,542	-0,141	-0,050
-163,037	25,161	0,117	0,070
-162,023	-41,305	0,084	0,031
-161,008	-54,764	0,109	-0,035
-159,993	69,141	-0,048	0,036
-158,979	60,476	0,110	0,078
-157,964	265,385	-0,038	0,048
-156,950	-74,844	0,093	-0,024
-155,935	-186,541	-0,082	-0,001
-154,920	-200,000	-0,023	0,086
-153,906	-59,643	0,202	-0,062
-152,891	373,979	-0,082	0,121
-151,877	-200,000	-0,006	0,202
-150,862	260,201	-0,069	-0,086
-149,847	-2,987	-0,097	-0,048
-148,833	374,746	-0,043	-0,063
-147,818	-63,450	0,013	-0,004
-146,804	-8,655	0,049	-0,024
-145,789	68,511	0,119	-0,088
-144,775	-200,000	0,018	0,072
-143,760	-200,000	0,011	-0,048
-142,745	-126,661	-0,093	0,010
-141,731	125,089	0,083	0,075
-140,716	800,000	-0,028	-0,075
-139,702	-175,250	0,064	-0,001
-138,687	20,734	0,069	-0,040
-137,672	-114,103	-0,029	0,004
-136,658	-181,045	-0,158	-0,002
-135,643	585,800	0,050	-0,089
-134,629	215,858	0,072	0,082
-133,614	-87,340	-0,036	-0,008
-132,599	-200,000	-0,006	-0,042
-131,585	50,848	0,081	0,055
-130,570	14,534	-0,060	0,033
-129,556	1,997	0,056	-0,029
-128,541	-94,084	-0,041	-0,008
-127,526	800,000	-0,018	0,049
-126,512	-142,437	-0,153	0,011
-125,497	253,330	-0,143	0,175
-124,483	302,203	-0,098	0,131
-123,468	670,315	0,092	-0,173
-122,453	-103,353	-0,045	-0,008
-121,439	-68,577	-0,069	0,019
-120,424	-132,547	-0,080	-0,007
-119,410	-100,358	0,112	0,020
-118,395	542,725	0,023	0,039
-117,380	139,654	0,085	0,080
-116,366	800,000	-0,045	-0,116
-115,351	-96,469	0,031	0,006
-114,337	-110,466	0,202	-0,030
-113,322	-114,524	-0,232	-0,032
-112,307	246,912	0,060	0,073
-111,293	588,667	-0,051	0,091
-110,278	212,609	0,079	0,090
-109,264	17,024	-0,089	-0,050
-108,249	-200,000	0,004	0,022
-107,234	-89,646	0,017	0,004
-106,220	-49,105	0,165	-0,057
-105,205	-200,000	0,020	-0,164
-104,191	-183,790	0,132	-0,002
-103,176	298,461	0,051	0,067
-102,162	172,492	0,088	0,091
-101,147	-3,945	-0,043	-0,021
-100,132	39,250	-0,130	-0,083
-99,118	99,116	-0,034	-0,028
-98,103	-28,654	0,077	-0,032
-97,089	800,000	0,033	-0,098
-96,074	-32,208	-0,070	0,028
-95,059	334,689	0,071	0,099
-94,045	-200,000	-0,021	-0,087
-93,030	504,762	-0,018	-0,030
-92,016	644,205	-0,024	-0,044
-91,001	800,000	0,068	0,146
-89,986	256,227	0,030	0,036
-88,972	800,000	-0,036	0,099
-87,957	800,000	-0,032	0,065
-86,943	459,910	-0,046	0,074
-85,928	24,429	-0,114	0,068
-84,913	124,725	-0,020	0,018
-83,899	-200,000	0,001	-0,017
-82,884	-120,057	0,057	0,007
-81,870	-155,099	0,197	0,009
-80,855	6,801	-0,083	-0,044
-79,840	79,175	-0,043	0,033
-78,826	-200,000	0,011	0,076
-77,811	-200,000	0,006	-0,089
-76,797	-106,081	0,029	0,005
-75,782	583,413	-0,040	-0,071
-74,767	212,428	0,072	0,081
-73,753	-101,844	0,066	-0,011
-72,738	-22,687	0,024	-0,011
-71,724	-200,000	-0,004	-0,095
-70,709	147,371	-0,133	-0,128
-69,694	119,499	-0,131	0,116
-68,680	147,678	0,057	-0,055
-67,665	533,297	-0,029	0,049
-66,651	304,441	0,057	-0,076
-65,636	-62,092	0,037	0,011
-64,622	-200,000	-0,010	-0,039
-63,607	498,270	-0,022	-0,037
-62,592	54,101	-0,058	-0,040
-61,578	-14,201	-0,124	0,057
-60,563	114,303	0,107	-0,093
-59,549	117,491	0,111	0,098
-58,534	103,463	-2,792	-2,348
-57,519	-150,587	0,496	-0,027
-56,505	-200,000	-1,757	-5,563
-55,490	530,115	1,239	2,107
-54,476	800,000	5,237	11,239
-53,461	-200,000	22,975	347,239
-52,446	800,000	765,494	2262,186
-51,432	496,986	1643,816	2720,751
-50,417	93,130	1599,937	1295,800
-49,403	60,833	1255,087	890,952
-48,388	21,125	1007,119	584,327
-47,373	18,420	974,705	556,666
-46,359	11,802	961,881	527,909
-45,344	7,742	958,578	512,920
-44,330	8,056	956,257	512,676
-43,315	7,118	954,606	508,736
-42,300	7,070	953,494	507,969
-41,286	7,095	952,344	507,417
-40,271	7,073	951,565	506,912
-39,257	7,037	950,785	506,359
-38,242	6,960	949,971	505,658
-37,227	7,041	949,114	505,442
-36,213	7,011	948,128	504,801
-35,198	7,016	947,326	504,370
-34,184	7,058	946,773	504,190
-33,169	6,962	945,755	503,320
-32,154	7,103	944,851	503,269
-31,140	7,147	943,923	502,898
-30,125	7,136	943,353	502,539
-29,111	7,046	942,448	501,749
-28,096	7,077	942,075	501,631
-27,082	7,089	941,211	501,189
-26,067	7,028	940,641	500,670
-25,052	7,036	939,613	500,129
-24,038	7,042	939,021	499,814
-23,023	7,034	938,369	499,420
-22,009	7,071	937,662	499,140
-20,994	7,046	937,211	498,804
-19,979	7,024	936,567	498,369
-18,965	7,081	935,661	498,048
-17,950	7,109	935,249	497,898
-16,936	7,029	934,676	497,320
-15,921	7,071	933,825	496,982
-14,906	6,988	933,148	496,340
-13,892	6,943	932,715	495,947
-12,877	6,975	931,986	495,639
-11,863	6,894	931,526	495,120
-10,848	6,905	930,997	494,855
-9,833	6,995	930,568	494,890
-8,819	6,977	929,771	494,390
-7,804	6,928	929,161	493,893
-6,790	6,935	928,562	493,577
-5,775	6,992	928,172	493,530
-4,760	6,981	927,290	493,006
-3,746	6,919	926,827	492,546
-2,731	6,793	926,145	491,767
-1,717	6,788	925,559	491,423
-0,702	6,804	924,731	491,013
0,313	6,680	924,163	491,066
1,327	10,101	921,715	500,387
2,342	18,742	770,676	440,758
3,356	14,196	443,317	246,748
4,371	-11,356	310,722	145,959
5,386	-14,902	293,253	134,182
6,400	-16,988	287,139	129,321
7,415	-17,732	284,709	127,490
8,429	-18,514	282,658	125,803
9,444	-18,795	281,715	125,100
10,459	-18,612	281,112	124,997
11,473	-18,596	280,505	124,732
12,488	-18,491	279,942	124,571
13,502	-18,510	279,339	124,273
14,517	-18,529	278,994	124,090
15,531	-18,671	278,615	123,776
16,546	-18,935	278,186	123,322
17,561	-18,759	277,537	123,191
18,575	-18,643	277,339	123,202
19,590	-18,929	277,049	122,791
20,604	-18,756	276,834	122,848
21,619	-18,697	276,499	122,745
22,634	-18,841	275,965	122,362
23,648	-18,765	275,574	122,249
24,663	-18,756	275,466	122,198
25,677	-18,755	275,324	122,125
26,692	-18,704	274,954	121,999
27,707	-18,868	274,556	121,657
28,721	-18,895	274,436	121,568
29,736	-18,798	274,071	121,486
30,750	-18,856	273,991	121,385
31,765	-18,766	273,664	121,314
32,780	-18,803	273,321	121,117
33,794	-18,913	273,226	120,961
34,809	-18,388	272,631	121,176
35,823	-18,666	272,475	120,837
36,838	-18,793	272,337	120,646
37,853	-18,804	272,042	120,495
38,867	-18,745	271,627	120,355
39,882	-18,823	271,570	120,247
40,896	-18,862	271,440	120,143
41,911	-18,735	271,159	120,124
42,926	-18,798	270,830	119,910
43,940	-18,731	270,650	119,882
44,955	-18,691	270,423	119,807
45,969	-18,795	270,138	119,574
46,984	-18,631	270,131	119,712
47,999	-18,517	269,738	119,632
49,013	-18,653	269,612	119,440
50,028	-18,562	269,291	119,371
51,042	-18,368	269,128	119,467
52,057	-18,588	268,968	119,183
53,071	-18,673	268,551	118,909
54,086	-18,421	268,407	119,066
55,101	-18,550	268,234	118,861
56,115	-18,580	267,975	118,708
57,130	-18,587	267,665	118,554
58,144	-18,605	267,380	118,400
59,159	-18,747	267,308	118,228
60,174	-18,710	266,965	118,099
61,188	-18,678	266,704	118,003
62,203	-18,675	266,582	117,941
63,217	-18,753	266,353	117,758
64,232	-18,687	266,184	117,733
65,247	-18,606	265,917	117,678
66,261	-18,578	265,508	117,512
67,276	-18,559	265,394	117,468
68,290	-18,643	265,351	117,362
69,305	-18,416	264,979	117,392
70,320	-18,764	264,814	116,995
71,334	-18,703	264,461	116,884
72,349	-18,575	264,125	116,840
73,363	-18,571	264,067	116,807
74,378	-18,720	263,818	116,553
75,393	-18,450	263,497	116,643
76,407	-18,482	263,271	116,504
77,422	-18,690	263,183	116,268
78,436	-18,544	262,982	116,300
79,451	-18,461	262,580	116,186
80,466	-18,604	262,381	115,959
81,480	-18,524	262,263	115,969
82,495	-18,686	262,062	115,724
83,509	-18,586	261,772	115,675
84,524	-18,574	261,693	115,640
85,539	-18,675	261,453	115,435
86,553	-18,759	261,285	115,275
87,568	-18,664	260,987	115,218
88,582	-18,630	260,765	115,140
89,597	-18,655	260,500	114,990
90,611	-18,647	260,328	114,911
91,626	-18,676	260,284	114,856
92,641	-18,674	259,965	114,707
93,655	-18,497	259,635	114,707
94,670	-18,563	259,537	114,595
95,684	-18,541	259,244	114,476
96,699	-18,732	259,160	114,260
97,714	-18,794	258,920	114,089
98,728	-18,761	258,726	114,022
99,743	-18,619	258,541	114,055
100,757	-18,527	258,316	114,027
101,772	-18,649	258,189	113,854
102,787	-18,733	257,847	113,619
103,801	-18,671	257,661	113,582
104,816	-18,673	257,494	113,495
105,830	-18,398	257,272	113,628
106,845	-18,507	257,139	113,464
107,860	-18,514	256,948	113,363
108,874	-18,523	256,692	113,232
109,889	-18,554	256,509	113,115
110,903	-18,550	256,287	113,011
111,918	-18,464	256,088	112,987
112,933	-18,385	255,801	112,919
113,947	-18,652	255,765	112,662
114,962	-18,432	255,520	112,734
115,976	-18,411	255,211	112,606
116,991	-18,651	255,224	112,394
118,006	-18,576	254,833	112,277
119,020	-18,328	254,703	112,424
120,035	-18,493	254,637	112,242
121,049	-18,553	254,500	112,119
122,064	-18,377	254,194	112,127
123,079	-18,601	254,056	111,863
124,093	-18,368	253,749	111,918
125,108	-18,589	253,586	111,647
126,122	-18,731	253,367	111,418
127,137	-18,598	253,182	111,441
128,151	-18,427	253,090	111,537
129,166	-18,507	252,795	111,329
130,181	-18,442	252,556	111,269
131,195	-18,407	252,371	111,208
132,210	-18,618	252,266	110,971
133,224	-18,535	251,996	110,913
134,239	-18,449	251,823	110,900
135,254	-18,376	251,626	110,866
136,268	-18,204	251,362	110,886
137,283	-18,443	251,073	110,545
138,297	-18,557	251,077	110,441
139,312	-18,597	250,940	110,337
140,327	-18,446	250,590	110,300
141,341	-18,448	250,468	110,236
142,356	-18,347	250,208	110,197
143,370	-18,306	249,992	110,127
144,385	-18,566	249,893	109,854
145,400	-18,575	249,580	109,699
146,414	-18,528	249,421	109,658
147,429	-18,478	249,385	109,675
148,443	-18,517	249,129	109,520
149,458	-18,470	248,849	109,427
150,473	-18,311	248,785	109,523
151,487	-18,368	248,412	109,300
152,502	-18,291	248,268	109,292
153,516	-18,515	248,210	109,068
154,531	-18,548	247,992	108,935
155,546	-18,544	247,886	108,883
156,560	-18,366	247,663	108,924
157,575	-18,533	247,539	108,720
158,589	-18,367	247,216	108,707
159,604	-18,454	246,985	108,523
160,619	-18,369	246,636	108,431
161,633	-18,509	246,609	108,293
162,648	-18,528	246,578	108,254
163,662	-18,535	246,433	108,175
164,677	-18,350	246,237	108,233
165,692	-18,493	246,092	108,041
166,706	-18,483	245,714	107,873
167,721	-18,537	245,767	107,842
168,735	-18,454	245,442	107,758
169,750	-18,615	245,597	107,683
170,764	-18,326	245,210	107,744
171,779	-18,358	245,206	107,706
172,794	-18,332	244,885	107,577
173,808	-18,312	244,648	107,480
174,823	-18,435	244,583	107,340
175,837	-18,368	244,383	107,298
176,852	-18,304	244,147	107,237
177,867	-18,214	243,955	107,217
178,881	-18,376	243,807	107,010
179,896	-18,275	243,640	107,010
180,910	-18,256	243,401	106,911
181,925	-18,319	243,407	106,853
182,940	-18,374	243,073	106,651
183,954	-18,347	243,028	106,644
184,969	-18,430	242,921	106,520
185,983	-18,485	242,510	106,284
186,998	-18,467	242,494	106,283
188,013	-18,420	242,368	106,256
189,027	-18,622	242,052	105,944
190,042	-18,321	242,003	106,158
191,056	-18,180	241,764	106,159
192,071	-18,218	241,573	106,035
193,086	-18,158	241,414	106,004
194,100	-18,217	241,136	105,825
195,115	-18,289	241,035	105,712
196,129	-18,256	240,661	105,566
197,144	-18,255	240,638	105,547
198,159	-18,186	240,402	105,490
199,173	-18,231	240,332	105,414
200,188	-18,206	240,156	105,347
201,202	-18,041	239,993	105,400
202,217	-18,132	239,740	105,206
203,232	-18,281	239,616	105,022
204,246	-18,245	239,470	104,977
205,261	-17,764	239,304	105,283
206,275	-16,181	239,916	106,822
207,290	-11,147	241,622	111,662
208,304	-5,335	243,638	117,337
209,319	-2,765	244,064	119,632
210,334	-1,900	244,243	120,416
211,348	-0,890	244,336	121,276
212,363	-0,392	244,538	121,773
213,377	0,387	244,471	122,364
214,392	0,502	244,394	122,409
215,407	0,928	244,318	122,707
216,421	0,771	244,146	122,483
217,436	0,804	244,063	122,456
218,450	0,905	243,836	122,414
219,465	0,870	243,784	122,348
220,480	1,028	243,627	122,387
221,494	0,814	243,459	122,118
222,509	0,582	243,285	121,831
223,523	0,405	242,952	121,511
224,538	0,383	242,797	121,404
225,553	0,472	242,520	121,326
226,567	0,244	242,533	121,138
227,582	0,387	242,174	121,063
228,596	0,251	242,256	120,984
229,611	0,522	241,974	121,050
230,626	0,225	241,993	120,810
231,640	0,426	241,643	120,787
232,655	0,239	241,499	120,553
233,669	0,402	241,232	120,540
234,684	0,513	241,126	120,566
235,699	0,295	240,961	120,297
236,713	0,363	240,833	120,277
237,728	0,296	240,946	120,269
238,742	0,192	240,559	119,982
239,757	0,499	240,285	120,080
240,772	0,067	240,372	119,767
241,786	0,203	240,024	119,691
242,801	0,237	239,948	119,670
243,815	0,307	239,824	119,653
244,830	0,238	239,612	119,482
245,844	0,133	239,514	119,339
246,859	0,468	239,266	119,471
247,874	0,509	239,100	119,410
248,888	0,352	238,911	119,181
249,903	0,578	238,945	119,367
250,917	0,568	238,844	119,298
251,932	0,558	238,595	119,154
252,947	0,364	238,338	118,862
253,961	0,491	238,218	118,893
254,976	0,370	238,047	118,700
255,990	0,582	237,908	118,788
257,005	0,308	237,911	118,563
258,020	0,369	237,639	118,464
259,034	0,388	237,413	118,357
260,049	0,436	237,412	118,383
261,063	0,167	237,225	118,067
262,078	0,351	237,016	118,098
263,093	-0,025	236,896	117,731
264,107	0,593	236,678	118,098
265,122	0,431	236,488	117,866
266,136	0,640	236,336	117,943
267,151	0,481	236,213	117,747
268,166	0,199	236,134	117,475
269,180	0,459	235,823	117,515
270,195	0,489	235,614	117,423
271,209	0,454	235,517	117,337
272,224	0,545	235,424	117,352
273,239	0,302	235,356	117,117
274,253	0,342	235,171	117,046
275,268	0,226	234,993	116,856
276,282	0,321	234,891	116,869
277,297	0,255	234,804	116,764
278,312	0,257	234,638	116,673
279,326	0,638	234,312	116,796
280,341	0,403	234,208	116,551
281,355	0,528	234,035	116,552
282,370	0,425	234,008	116,448
283,384	0,519	233,843	116,429
284,399	0,574	233,605	116,343
285,414	0,344	233,468	116,086
286,428	0,571	233,303	116,169
287,443	0,536	233,181	116,071
288,457	0,498	233,265	116,073
289,472	0,516	232,917	115,903
290,487	0,385	232,913	115,789
291,501	0,534	232,597	115,737
292,516	0,475	232,619	115,692
293,530	0,334	232,403	115,466
294,545	0,405	232,407	115,513
295,560	0,432	232,125	115,383
296,574	0,661	231,923	115,448
297,589	0,632	231,826	115,367
298,603	0,537	231,692	115,217
299,618	0,588	231,425	115,113
300,633	0,701	231,399	115,177
301,647	0,395	231,404	114,934
302,662	0,703	231,112	115,015
303,676	0,587	230,976	114,848
304,691	0,713	230,675	114,785
305,706	0,745	230,518	114,720
306,720	0,785	230,519	114,741
307,735	0,727	230,229	114,543
308,749	0,518	230,167	114,342
309,764	0,605	230,063	114,346
310,779	0,741	229,859	114,339
311,793	0,445	229,728	114,038
312,808	0,808	229,551	114,216
313,822	0,680	229,332	113,999
314,837	0,684	229,326	113,990
315,852	0,902	229,139	114,051
316,866	0,904	228,806	113,878
317,881	0,888	228,761	113,832
318,895	0,666	228,703	113,626
319,910	0,734	228,534	113,583
320,925	0,796	228,344	113,525
321,939	0,732	228,132	113,362
322,954	0,532	228,154	113,211
323,968	0,639	228,066	113,238
324,983	0,867	227,853	113,294
325,997	0,609	227,648	112,988
327,012	0,807	227,668	113,137
328,027	0,725	227,393	112,929
329,041	0,631	227,380	112,841
330,056	0,892	226,965	112,821
331,070	0,855	227,056	112,828
332,085	0,734	226,772	112,586
333,100	0,835	226,667	112,600
334,114	0,929	226,485	112,570
335,129	0,568	226,427	112,261
336,143	1,080	226,169	112,505
337,158	0,596	226,158	112,129
338,173	0,717	226,018	112,139
339,187	0,821	225,803	112,100
340,202	0,860	225,652	112,045
341,216	1,010	225,594	112,118
342,231	0,866	225,480	111,944
343,246	0,793	225,166	111,724
344,260	0,664	225,216	111,642
345,275	0,975	224,945	111,729
346,289	1,000	224,823	111,677
347,304	0,711	224,605	111,344
348,319	1,167	224,406	111,574
349,333	0,714	224,509	111,279
350,348	0,989	224,126	111,283
351,362	1,086	224,130	111,347
352,377	0,896	223,875	111,070
353,392	0,851	223,977	111,077
354,406	0,973	223,799	111,069
355,421	192,190	1311,514	1375,478
356,435	153,899	1443,868	1375,295
