DTS Sentinel unit serial number:	SN410029Multiplexer serial number:	ORYXHardware model number:	OX2-SRSoftware version number:	ORYX F/W v4,00 Oryx Data Collector v3.7.2.0data status	okinstallation	B5 Nyhavnadifferential loss correction	single-endedforward channel	channel 2reverse channel	N/Adate	2023/12/13time	14:47:13forward acquisition time	300,00reverse acquisition time	0,00gamma	499,1914k internal	0,3160k external	0,3160temperature offset calibration	1,0000default loss term (dB/km)	0,3820temperature slope calibration	1,0000multiplexer offset coefficient	1,0000multiplexer slope coefficient	1,0000fibre end	0,00T internal ref (°C)	14,99T ext. ref 1 (°C)	-1,25T ext. ref 2 (°C)	-1,55length (m)	temperature (°C)	Stokes	anti-Stokes-744,400	169,159	0,045	-0,048
-743,385	-5,802	-0,284	0,143
-742,371	-31,985	0,251	0,103
-741,356	228,338	-0,168	0,201
-740,342	-200,000	-0,013	0,044
-739,327	-109,265	-0,254	-0,039
-738,312	-22,560	0,081	-0,036
-737,298	7,651	-0,204	-0,112
-736,283	-200,000	-0,006	0,025
-735,269	-138,308	-0,291	0,023
-734,254	-79,309	0,159	-0,039
-733,239	-58,830	-0,518	-0,164
-732,225	-88,362	0,189	0,041
-731,210	251,614	-0,103	0,129
-730,196	-200,000	-0,013	-0,090
-729,181	302,335	0,061	-0,084
-728,167	25,150	-0,036	-0,022
-727,152	-72,044	0,061	0,017
-726,137	-5,536	-0,042	0,021
-725,123	-1,204	-0,084	-0,044
-724,108	283,929	-0,086	0,115
-723,094	233,790	-0,137	-0,166
-722,079	460,617	0,033	0,055
-721,064	-63,128	-0,068	0,021
-720,050	500,292	0,112	-0,191
-719,035	251,633	-0,062	-0,078
-718,021	-147,400	-0,020	0,001
-717,006	145,670	-0,019	-0,019
-715,991	151,614	-0,037	-0,037
-714,977	268,080	-0,082	0,106
-713,962	100,120	0,051	-0,043
-712,948	-200,000	0,007	-0,061
-711,933	-36,702	0,113	0,044
-710,918	-200,000	0,028	-0,100
-709,904	-143,111	-0,058	0,004
-708,889	-11,973	-0,127	-0,061
-707,875	280,027	-0,129	-0,170
-706,860	-200,000	0,000	0,020
-705,845	78,860	-0,100	0,078
-704,831	-70,976	-0,056	0,015
-703,816	800,000	-0,049	0,130
-702,802	-91,309	-0,104	-0,022
-701,787	206,416	0,024	0,028
-700,772	-200,000	0,014	-0,105
-699,758	-200,000	-0,026	0,101
-698,743	147,949	0,050	0,050
-697,729	509,800	0,083	0,142
-696,714	800,000	0,107	0,234
-695,699	156,231	-0,108	-0,109
-694,685	694,197	0,026	-0,049
-693,670	64,890	-0,067	0,050
-692,656	278,584	-0,090	-0,118
-691,641	87,448	-0,087	-0,071
-690,627	800,000	0,023	0,073
-689,612	-105,964	0,042	-0,007
-688,597	800,000	0,033	0,086
-687,583	-200,000	0,022	-0,098
-686,568	800,000	-0,050	-0,125
-685,554	-42,850	-0,084	-0,031
-684,539	185,898	-0,039	0,043
-683,524	-200,000	-0,013	0,172
-682,510	-86,629	0,028	-0,006
-681,495	-20,751	-0,047	-0,021
-680,481	-200,000	-0,021	-0,077
-679,466	572,216	0,057	0,103
-678,451	735,380	-0,040	0,079
-677,437	-33,031	-0,100	0,041
-676,422	-117,319	0,179	-0,024
-675,408	343,306	0,020	-0,028
-674,393	-200,000	0,005	-0,053
-673,378	800,000	0,015	0,039
-672,364	13,381	-0,055	-0,031
-671,349	644,215	-0,025	-0,047
-670,335	750,022	0,049	0,098
-669,320	121,293	-0,179	-0,163
-668,305	336,216	-0,045	-0,065
-667,291	703,060	0,038	0,074
-666,276	-200,000	-0,006	-0,063
-665,262	800,000	-0,059	-0,122
-664,247	174,028	-0,102	-0,109
-663,232	-0,617	-0,046	-0,024
-662,218	800,000	-0,020	0,050
-661,203	-59,680	-0,093	-0,029
-660,189	-44,944	-0,096	0,035
-659,174	-200,000	0,006	-0,226
-658,159	-79,512	-0,069	-0,017
-657,145	-43,977	-0,053	0,020
-656,130	-70,917	0,099	0,027
-655,116	-67,317	0,036	0,010
-654,101	-200,000	0,003	0,042
-653,086	122,956	-0,071	0,065
-652,072	-200,000	-0,009	-0,093
-651,057	155,312	0,100	-0,101
-650,043	-200,000	0,020	-0,070
-649,028	-40,243	0,222	0,084
-648,014	-200,000	-0,005	0,044
-646,999	-200,000	0,009	0,034
-645,984	800,000	-0,022	-0,069
-644,970	800,000	-0,049	-0,118
-643,955	48,143	-0,143	0,098
-642,941	560,847	-0,041	-0,072
-641,926	8,896	0,084	0,046
-640,911	-142,035	0,082	-0,006
-639,897	800,000	0,060	0,165
-638,882	34,764	-0,104	0,067
-637,868	336,030	-0,073	0,104
-636,853	-78,362	-0,040	0,010
-635,838	78,812	-0,091	-0,071
-634,824	-42,537	0,036	0,014
-633,809	284,881	-0,083	-0,110
-632,795	800,000	-0,061	0,149
-631,780	-62,053	0,083	-0,025
-630,765	-200,000	-0,006	0,071
-629,751	-200,000	0,021	-0,118
-628,736	182,267	-0,059	0,064
-627,722	94,554	-0,040	0,033
-626,707	-200,000	-0,023	0,136
-625,692	94,823	0,033	0,027
-624,678	800,000	-0,012	-0,033
-623,663	78,208	0,146	0,114
-622,649	17,436	0,074	0,043
-621,634	48,016	0,090	0,062
-620,619	92,520	0,031	-0,026
-619,605	800,000	-0,014	-0,043
-618,590	-97,722	0,089	0,017
-617,576	-107,483	0,034	0,005
-616,561	800,000	0,071	-0,160
-615,546	68,454	-0,079	0,059
-614,532	-200,000	-0,028	-0,095
-613,517	-200,000	-0,005	0,071
-612,503	278,648	0,051	-0,067
-611,488	800,000	-0,019	0,042
-610,474	27,800	-0,039	0,024
-609,459	110,504	-0,079	0,070
-608,444	289,047	-0,078	-0,104
-607,430	169,377	-0,072	-0,076
-606,415	-30,770	0,115	0,047
-605,401	-86,917	0,217	-0,048
-604,386	-126,768	0,147	0,016
-603,371	254,199	0,062	0,078
-602,357	37,851	0,082	-0,053
-601,342	284,377	-0,014	-0,018
-600,328	33,909	-0,074	-0,047
-599,313	-113,502	0,051	-0,007
-598,298	-200,000	0,010	0,062
-597,284	-94,227	0,130	0,026
-596,269	-114,097	-0,074	-0,010
-595,255	-200,000	0,017	-0,101
-594,240	317,601	0,065	-0,091
-593,225	311,985	0,031	-0,043
-592,211	619,850	0,045	-0,084
-591,196	39,738	-0,045	0,029
-590,182	-98,428	0,107	-0,020
-589,167	245,496	0,035	-0,043
-588,152	746,087	0,026	0,052
-587,138	-96,517	0,037	-0,007
-586,123	-51,327	0,089	-0,030
-585,109	540,653	-0,039	0,068
-584,094	324,733	0,040	-0,056
-583,079	634,278	0,027	0,051
-582,065	-200,000	0,016	0,094
-581,050	39,089	0,069	-0,045
-580,036	-47,794	-0,258	0,091
-579,021	-200,000	0,012	-0,165
-578,006	800,000	0,027	-0,073
-576,992	-69,138	-0,046	-0,013
-575,977	-142,715	-0,061	0,004
-574,963	390,962	-0,059	0,090
-573,948	800,000	0,010	0,023
-572,934	-200,000	-0,002	0,058
-571,919	800,000	0,017	-0,053
-570,904	-80,749	-0,077	-0,019
-569,890	38,124	-0,105	-0,069
-568,875	-122,393	0,066	-0,008
-567,861	-23,780	0,041	-0,018
-566,846	-200,000	-0,003	0,020
-565,831	-6,156	0,068	0,034
-564,817	64,726	-0,149	-0,110
-563,802	-110,383	0,059	0,009
-562,788	149,062	-0,040	0,040
-561,773	150,374	-0,067	-0,067
-560,758	800,000	0,028	0,061
-559,744	-116,685	0,091	-0,012
-558,729	-25,702	0,063	-0,027
-557,715	-123,537	0,013	0,001
-556,700	399,572	-0,053	-0,081
-555,685	-127,628	-0,197	-0,021
-554,671	-104,008	0,056	-0,009
-553,656	40,156	0,102	0,067
-552,642	800,000	-0,056	-0,145
-551,627	-97,460	-0,178	-0,034
-550,612	-121,297	0,036	0,004
-549,598	-200,000	-0,023	0,101
-548,583	323,387	-0,136	-0,190
-547,569	-200,000	-0,010	0,040
-546,554	154,902	-0,025	0,025
-545,539	800,000	-0,035	-0,100
-544,525	186,750	-0,055	-0,060
-543,510	576,836	-0,033	-0,059
-542,496	-135,068	-0,065	-0,006
-541,481	-200,000	-0,007	0,074
-540,466	202,385	0,054	0,061
-539,452	-58,959	0,114	0,036
-538,437	121,571	0,080	-0,073
-537,423	-200,000	-0,011	0,064
-536,408	-200,000	0,001	0,006
-535,393	307,497	0,052	-0,071
-534,379	-155,127	0,108	0,005
-533,364	149,729	-0,046	-0,046
-532,350	65,943	0,048	-0,036
-531,335	-200,000	0,014	0,084
-530,321	-59,471	0,042	-0,013
-529,306	-200,000	-0,031	-0,135
-528,291	32,748	-0,064	0,040
-527,277	49,272	0,027	0,019
-526,262	-200,000	0,025	-0,087
-525,248	800,000	0,040	0,090
-524,233	-191,104	-0,061	-0,000
-523,218	271,502	0,038	-0,050
-522,204	-200,000	0,032	0,173
-521,189	410,062	0,120	0,186
-520,175	5,245	-0,109	0,059
-519,160	-200,000	0,017	-0,084
-518,145	292,393	-0,036	0,048
-517,131	-200,000	0,004	0,052
-516,116	-200,000	0,012	0,138
-515,102	800,000	0,031	-0,072
-514,087	800,000	-0,007	-0,021
-513,072	-200,000	0,014	0,061
-512,058	209,544	0,094	-0,107
-511,043	554,295	-0,037	0,065
-510,029	-10,435	0,134	0,065
-509,014	44,248	-0,176	-0,117
-507,999	327,225	-0,023	0,032
-506,985	754,950	-0,079	0,156
-505,970	-96,245	-0,199	0,038
-504,956	-99,137	0,065	0,012
-503,941	800,000	0,031	-0,081
-502,926	800,000	-0,026	-0,073
-501,912	343,733	0,118	-0,169
-500,897	40,962	-0,045	-0,029
-499,883	-67,041	-0,065	0,019
-498,868	100,039	0,076	-0,064
-497,853	266,798	0,040	-0,051
-496,839	800,000	0,021	-0,044
-495,824	181,397	0,052	0,055
-494,810	111,183	0,152	0,133
-493,795	-200,000	-0,032	0,136
-492,781	800,000	0,039	0,081
-491,766	451,358	-0,044	-0,071
-490,751	51,087	-0,038	-0,027
-489,737	-200,000	-0,053	0,176
-488,722	-1,533	-0,089	-0,045
-487,708	366,598	0,078	-0,115
-486,693	-62,915	-0,207	-0,062
-485,678	-54,546	0,125	0,041
-484,664	-184,523	-0,089	-0,001
-483,649	-200,000	0,017	0,061
-482,635	-200,000	0,001	-0,049
-481,620	-200,000	0,005	-0,089
-480,605	-89,915	-0,089	-0,019
-479,591	186,349	0,051	0,055
-478,576	42,306	-0,167	-0,110
-477,562	-2,676	-0,089	-0,045
-476,547	301,076	-0,078	-0,105
-475,532	-52,722	-0,034	-0,011
-474,518	-200,000	-0,002	0,038
-473,503	644,128	0,016	0,031
-472,489	479,678	-0,050	-0,082
-471,474	5,851	0,091	0,049
-470,459	-110,562	0,078	-0,012
-469,445	108,042	0,062	0,054
-468,430	-200,000	0,033	-0,157
-467,416	-78,546	0,125	-0,031
-466,401	-200,000	0,013	-0,184
-465,386	190,918	-0,042	0,047
-464,372	-32,254	0,074	-0,030
-463,357	-109,265	-0,030	0,005
-462,343	-200,000	0,022	0,080
-461,328	-134,507	-0,076	-0,007
-460,313	-200,000	-0,013	-0,095
-459,299	-99,513	0,064	-0,012
-458,284	566,686	-0,034	0,061
-457,270	-200,000	-0,018	-0,112
-456,255	-200,000	-0,004	-0,044
-455,241	197,017	0,071	-0,079
-454,226	292,306	-0,037	0,049
-453,211	195,115	0,094	-0,104
-452,197	141,466	0,058	-0,056
-451,182	-200,000	-0,004	0,164
-450,168	-126,063	-0,050	0,005
-449,153	683,291	0,085	-0,163
-448,138	-128,369	-0,159	0,016
-447,124	-19,790	0,025	0,011
-446,109	52,383	-0,009	0,006
-445,095	-200,000	0,005	0,113
-444,080	539,944	0,029	0,050
-443,065	80,980	-0,027	0,022
-442,051	35,178	-0,038	-0,024
-441,036	-102,877	-0,129	-0,022
-440,022	-200,000	0,011	-0,057
-439,007	62,991	0,086	0,062
-437,992	-63,745	-0,123	-0,037
-436,978	227,221	-0,055	0,065
-435,963	64,495	0,040	0,029
-434,949	104,709	-0,073	0,063
-433,934	118,784	-0,060	-0,054
-432,919	602,476	-0,019	-0,034
-431,905	-14,263	-0,073	-0,034
-430,890	-163,657	0,049	-0,002
-429,876	-200,000	-0,025	0,097
-428,861	-79,113	0,085	0,021
-427,846	161,034	-0,087	-0,088
-426,832	-47,256	-0,119	0,042
-425,817	323,580	-0,040	-0,056
-424,803	-175,707	-0,080	-0,002
-423,788	54,830	-0,137	0,096
-422,773	570,977	-0,038	0,068
-421,759	197,221	-0,057	0,064
-420,744	-147,134	0,129	-0,008
-419,730	-61,910	-0,008	-0,002
-418,715	724,445	-0,026	-0,051
-417,701	800,000	0,014	0,039
-416,686	246,770	-0,076	-0,094
-415,671	-46,811	0,086	-0,030
-414,657	-84,773	0,165	0,037
-413,642	800,000	-0,040	0,119
-412,628	-63,159	-0,118	-0,035
-411,613	-200,000	-0,001	-0,036
-410,598	624,219	-0,044	-0,081
-409,584	-200,000	-0,013	0,090
-408,569	179,336	0,059	0,063
-407,555	-146,696	-0,018	0,001
-406,540	78,710	0,050	-0,038
-405,525	-49,003	0,109	-0,038
-404,511	116,747	-0,027	0,024
-403,496	2,838	-0,097	0,051
-402,482	-29,977	0,097	-0,040
-401,467	-69,084	-0,111	-0,031
-400,452	312,022	0,067	-0,092
-399,438	256,174	0,067	0,084
-398,423	800,000	0,019	-0,042
-397,409	61,308	-0,119	-0,086
-396,394	407,056	-0,050	-0,078
-395,379	800,000	0,046	0,128
-394,365	656,185	0,048	0,089
-393,350	-103,472	0,148	0,025
-392,336	29,574	-0,114	0,070
-391,321	-143,812	0,098	0,007
-390,306	343,336	0,072	-0,103
-389,292	19,862	-0,049	0,029
-388,277	466,662	0,040	-0,065
-387,263	115,229	0,105	0,093
-386,248	-200,000	-0,058	0,191
-385,233	-145,735	0,082	-0,005
-384,219	-92,275	-0,206	0,042
-383,204	157,730	-0,112	0,113
-382,190	800,000	0,025	0,063
-381,175	800,000	0,025	0,063
-380,160	116,051	0,036	0,032
-379,146	-73,895	-0,049	-0,013
-378,131	73,218	-0,133	-0,101
-377,117	-200,000	0,044	0,184
-376,102	-58,934	-0,064	0,020
-375,088	-166,286	-0,056	0,002
-374,073	111,155	0,048	0,042
-373,058	-200,000	0,029	0,199
-372,044	800,000	0,069	0,157
-371,029	84,540	0,038	0,030
-370,015	-30,645	-0,052	0,021
-369,000	115,666	-0,143	0,127
-367,985	-1,174	0,056	-0,029
-366,971	-200,000	-0,002	-0,032
-365,956	370,369	-0,009	0,013
-364,942	30,284	-0,132	0,082
-363,927	800,000	-0,007	0,017
-362,912	-200,000	-0,053	-0,206
-361,898	3,006	-0,104	0,054
-360,883	-127,981	-0,070	-0,007
-359,869	21,792	-0,123	0,072
-358,854	800,000	0,019	0,053
-357,839	65,470	0,080	-0,059
-356,825	-200,000	0,007	0,119
-355,810	255,629	-0,040	0,049
-354,796	171,546	-0,071	0,074
-353,781	-1,047	-0,057	0,029
-352,766	-153,932	-0,190	-0,009
-351,752	-200,000	0,009	-0,113
-350,737	-200,000	-0,010	-0,124
-349,723	-34,416	-0,052	-0,021
-348,708	77,843	-0,037	-0,029
-347,693	-128,934	-0,061	0,006
-346,679	-44,754	-0,180	-0,065
-345,664	-165,362	-0,039	-0,001
-344,650	800,000	-0,043	-0,093
-343,635	507,051	0,025	0,042
-342,620	-174,796	0,127	0,003
-341,606	-200,000	0,009	-0,049
-340,591	800,000	0,020	-0,058
-339,577	12,511	0,107	0,060
-338,562	-200,000	-0,016	-0,086
-337,548	401,493	-0,035	-0,053
-336,533	351,687	0,034	0,049
-335,518	-200,000	-0,002	-0,025
-334,504	-200,000	0,007	0,092
-333,489	296,047	-0,014	0,018
-332,475	12,416	0,033	-0,019
-331,460	630,438	-0,064	-0,118
-330,445	766,421	-0,061	-0,121
-329,431	583,283	-0,036	-0,064
-328,416	-92,215	0,141	-0,029
-327,402	-200,000	-0,011	0,123
-326,387	-29,209	0,116	0,048
-325,372	-67,136	-0,106	0,030
-324,358	221,414	0,060	-0,070
-323,343	190,817	0,057	-0,062
-322,329	153,905	-0,035	-0,035
-321,314	-200,000	-0,019	-0,067
-320,299	-35,839	0,053	0,021
-319,285	37,158	-0,083	-0,053
-318,270	23,927	-0,144	-0,086
-317,256	12,332	-0,096	-0,053
-316,241	102,791	-0,050	-0,042
-315,226	713,572	-0,008	0,015
-314,212	-43,212	-0,023	-0,008
-313,197	-152,573	0,061	0,003
-312,183	214,248	0,109	-0,125
-311,168	-126,583	-0,129	0,014
-310,153	134,657	-0,092	0,087
-309,139	614,822	-0,065	0,119
-308,124	118,232	0,086	-0,077
-307,110	-200,000	-0,012	0,085
-306,095	80,669	0,048	-0,038
-305,080	716,842	-0,025	0,049
-304,066	-200,000	-0,014	-0,121
-303,051	93,296	-0,086	0,070
-302,037	-200,000	0,039	-0,137
-301,022	-2,249	0,096	0,049
-300,008	694,146	-0,039	0,075
-298,993	-200,000	-0,039	0,000
-297,978	325,359	0,068	0,094
-296,964	-34,325	0,146	-0,058
-295,949	-200,000	-0,006	-0,034
-294,935	800,000	-0,031	0,075
-293,920	199,951	-0,066	-0,074
-292,905	-156,831	0,056	0,002
-291,891	-142,975	0,021	-0,001
-290,876	651,935	0,060	-0,113
-289,862	174,867	0,118	-0,123
-288,847	-73,551	-0,168	0,044
-287,832	0,135	-0,131	-0,067
-286,818	-108,193	-0,067	-0,010
-285,803	28,987	0,065	-0,040
-284,789	92,007	-0,086	-0,070
-283,774	-200,000	0,002	0,101
-282,759	-101,440	0,084	0,015
-281,745	800,000	-0,009	0,023
-280,730	800,000	0,030	-0,074
-279,716	800,000	-0,102	0,240
-278,701	-200,000	0,000	0,031
-277,686	-54,017	0,114	0,037
-276,672	-163,176	-0,051	-0,002
-275,657	13,915	-0,063	0,035
-274,643	441,753	-0,016	-0,026
-273,628	54,410	0,101	-0,070
-272,613	-200,000	-0,033	-0,130
-271,599	-112,296	0,092	-0,013
-270,584	-200,000	0,005	0,042
-269,570	-200,000	-0,007	-0,024
-268,555	-113,011	-0,182	0,026
-267,540	295,790	-0,046	0,061
-266,526	-142,478	0,060	-0,004
-265,511	72,321	-0,091	-0,068
-264,497	-200,000	-0,018	0,108
-263,482	-169,887	0,011	-0,000
-262,467	195,923	0,095	0,105
-261,453	-200,000	-0,006	-0,033
-260,438	-129,886	0,163	-0,016
-259,424	-154,902	-0,052	-0,002
-258,409	187,497	0,005	-0,005
-257,395	-200,000	-0,009	-0,076
-256,380	-161,442	0,089	-0,003
-255,365	-56,716	0,061	-0,019
-254,351	28,232	0,126	0,076
-253,336	455,482	0,032	-0,051
-252,322	52,782	-0,072	0,050
-251,307	-123,216	0,095	-0,011
-250,292	-82,715	0,054	-0,012
-249,278	-180,628	0,175	-0,003
-248,263	42,195	0,057	-0,038
-247,249	-200,000	-0,010	0,098
-246,234	298,066	0,022	-0,029
-245,219	800,000	-0,022	0,047
-244,205	-14,099	-0,091	0,042
-243,190	800,000	0,077	0,193
-242,176	-200,000	0,046	0,163
-241,161	-200,000	0,032	0,164
-240,146	463,167	0,090	-0,146
-239,132	-87,075	0,120	0,026
-238,117	-6,911	-0,149	-0,073
-237,103	-178,881	-0,145	0,002
-236,088	-137,696	0,053	-0,004
-235,073	-200,000	-0,003	-0,016
-234,059	7,368	0,033	0,018
-233,044	14,060	0,114	-0,064
-232,030	-25,711	0,122	-0,052
-231,015	-118,451	-0,140	0,018
-230,000	254,414	-0,063	-0,078
-228,986	-173,626	0,084	-0,002
-227,971	-30,607	0,150	-0,061
-226,957	-133,656	0,087	0,008
-225,942	800,000	0,028	-0,069
-224,927	3,186	-0,075	0,039
-223,913	-200,000	0,038	-0,195
-222,898	-200,000	-0,004	-0,092
-221,884	275,529	0,040	-0,051
-220,869	-29,905	0,124	0,051
-219,855	-200,000	0,007	0,038
-218,840	360,804	-0,028	-0,041
-217,825	-47,648	0,032	0,011
-216,811	800,000	-0,042	-0,098
-215,796	-74,296	-0,138	-0,036
-214,782	800,000	-0,043	-0,123
-213,767	800,000	0,057	-0,153
-212,752	76,401	-0,044	0,034
-211,738	-8,969	-0,100	-0,048
-210,723	800,000	0,039	0,091
-209,709	-200,000	0,014	-0,061
-208,694	196,670	0,013	-0,014
-207,679	-49,187	-0,091	0,031
-206,665	-155,531	0,048	0,002
-205,650	630,113	0,092	0,168
-204,636	-200,000	-0,009	0,113
-203,621	-200,000	0,002	0,029
-202,606	160,514	0,074	-0,075
-201,592	638,877	-0,029	-0,053
-200,577	800,000	0,026	0,060
-199,563	-200,000	-0,011	0,043
-198,548	-200,000	0,014	-0,070
-197,533	44,371	0,122	-0,081
-196,519	-200,000	0,000	0,009
-195,504	115,199	-0,050	0,044
-194,490	-200,000	0,007	0,042
-193,475	800,000	-0,051	0,127
-192,460	-60,664	0,212	-0,064
-191,446	219,059	0,139	0,160
-190,431	151,303	0,096	0,094
-189,417	27,515	0,012	0,008
-188,402	800,000	-0,008	0,022
-187,387	800,000	-0,050	-0,112
-186,373	-146,971	0,162	0,010
-185,358	405,587	-0,064	0,098
-184,344	274,869	0,022	0,028
-183,329	-200,000	0,004	0,061
-182,315	192,752	-0,070	-0,076
-181,300	403,066	0,039	-0,059
-180,285	-58,759	-0,130	-0,040
-179,271	-58,308	0,091	0,028
-178,256	6,366	0,054	0,029
-177,242	-101,896	0,026	-0,005
-176,227	-91,109	0,030	-0,006
-175,212	-50,651	-0,113	-0,038
-174,198	-6,558	-0,105	-0,052
-173,183	-141,564	-0,070	-0,005
-172,169	622,292	-0,024	-0,043
-171,154	531,598	0,064	-0,110
-170,139	29,932	0,101	0,062
-169,125	-57,975	-0,095	-0,030
-168,110	-200,000	-0,018	-0,061
-167,096	800,000	0,027	0,055
-166,081	88,773	-0,145	0,116
-165,066	-200,000	0,010	-0,055
-164,052	-12,692	0,118	-0,055
-163,037	142,041	0,056	-0,054
-162,023	93,288	0,101	0,082
-161,008	-200,000	0,010	0,120
-159,993	250,760	0,020	0,025
-158,979	800,000	0,020	-0,058
-157,964	116,417	0,030	-0,027
-156,950	-119,594	-0,119	-0,015
-155,935	-200,000	-0,011	0,057
-154,920	154,163	-0,052	0,052
-153,906	-200,000	0,035	0,121
-152,891	183,312	0,073	-0,078
-151,877	198,402	-0,063	0,070
-150,862	28,921	0,021	-0,013
-149,847	-171,675	0,119	0,003
-148,833	-61,226	-0,023	-0,007
-147,818	-138,408	0,125	-0,010
-146,804	-139,320	0,102	0,008
-145,789	157,917	0,057	-0,057
-144,775	-200,000	-0,012	0,082
-143,760	-119,817	-0,121	0,015
-142,745	800,000	-0,059	-0,157
-141,731	-200,000	0,002	-0,055
-140,716	-200,000	-0,001	-0,002
-139,702	-110,476	0,128	0,019
-138,687	567,164	0,077	-0,136
-137,672	-182,242	-0,128	0,002
-136,658	419,254	0,063	-0,097
-135,643	210,269	0,050	0,057
-134,629	98,374	0,111	-0,092
-133,614	46,467	0,106	-0,071
-132,599	70,380	-0,056	0,041
-131,585	-200,000	0,020	-0,079
-130,570	-14,341	-0,134	0,062
-129,556	-40,368	-0,111	-0,041
-128,541	-7,074	-0,112	-0,054
-127,526	513,725	-0,033	0,055
-126,512	178,950	-0,063	-0,066
-125,497	800,000	0,043	0,116
-124,483	105,058	0,075	-0,064
-123,468	-65,943	0,072	0,021
-122,453	-87,047	-0,134	-0,029
-121,439	-200,000	-0,012	0,051
-120,424	-200,000	-0,023	-0,104
-119,410	-77,118	0,054	0,013
-118,395	58,061	-0,030	-0,021
-117,380	-33,253	0,133	0,053
-116,366	-200,000	-0,031	0,148
-115,351	87,708	-0,052	-0,041
-114,337	473,675	0,042	-0,068
-113,322	-200,000	-0,015	-0,106
-112,307	-200,000	0,010	0,125
-111,293	-142,293	-0,132	0,009
-110,278	-200,000	-0,006	0,071
-109,264	800,000	-0,032	-0,069
-108,249	319,353	-0,034	0,047
-107,234	800,000	0,012	-0,030
-106,220	-143,839	-0,056	0,004
-105,205	-20,446	0,145	0,064
-104,191	800,000	0,030	-0,063
-103,176	364,107	0,056	-0,081
-102,162	-78,312	0,011	0,003
-101,147	-51,437	-0,084	-0,028
-100,132	225,445	-0,025	0,029
-99,118	8,422	0,065	0,035
-98,103	380,907	0,055	-0,081
-97,089	-126,122	-0,093	-0,010
-96,074	83,177	-0,098	-0,077
-95,059	-48,000	0,167	0,058
-94,045	344,781	-0,025	-0,036
-93,030	-79,481	-0,208	-0,050
-92,016	26,952	-0,095	0,057
-91,001	154,586	0,091	0,090
-89,986	191,154	-0,021	-0,022
-88,972	301,822	0,023	-0,030
-87,957	-95,160	0,042	-0,008
-86,943	-200,000	-0,009	0,030
-85,928	-95,108	-0,117	0,023
-84,913	-200,000	-0,040	-0,140
-83,899	99,165	0,082	-0,068
-82,884	21,886	-0,049	0,028
-81,870	157,434	0,067	0,067
-80,855	275,204	0,069	0,088
-79,840	21,134	-0,092	-0,054
-78,826	-42,171	-0,055	0,020
-77,811	-200,000	-0,028	0,093
-76,797	39,806	-0,010	-0,006
-75,782	220,902	0,059	0,068
-74,767	102,643	0,042	0,036
-73,753	-33,699	0,065	-0,026
-72,738	-67,038	-0,141	0,040
-71,724	-200,000	-0,009	0,076
-70,709	-0,273	-0,061	0,031
-69,694	422,728	-0,056	-0,086
-68,680	-68,020	-0,044	-0,012
-67,665	-139,990	-0,006	0,000
-66,651	-99,564	-0,055	-0,010
-65,636	-200,000	0,007	0,112
-64,622	-78,793	-0,035	0,009
-63,607	800,000	0,018	-0,047
-62,592	-200,000	-0,034	-0,135
-61,578	147,305	0,123	0,119
-60,563	404,919	-0,093	0,141
-59,549	156,025	-0,090	0,089
-58,534	22,972	-1,855	-1,089
-57,519	-200,000	-0,221	-0,972
-56,505	-200,000	-1,186	-5,089
-55,490	110,521	0,731	0,630
-54,476	800,000	5,292	11,956
-53,461	-200,000	17,671	288,052
-52,446	800,000	729,461	2226,316
-51,432	534,667	1645,109	2807,216
-50,417	109,425	1634,736	1403,488
-49,403	75,235	1286,482	971,704
-48,388	31,723	1027,030	632,240
-47,373	20,053	989,026	570,408
-46,359	18,260	976,817	557,474
-45,344	15,275	972,792	545,400
-44,330	15,556	971,275	545,446
-43,315	15,055	969,334	542,700
-42,300	15,022	968,344	542,019
-41,286	14,977	967,327	541,281
-40,271	15,015	966,368	540,845
-39,257	15,037	965,402	540,354
-38,242	15,045	964,487	539,846
-37,227	14,987	963,804	539,257
-36,213	15,019	962,816	538,787
-35,198	14,937	962,074	538,084
-34,184	14,984	961,277	537,769
-33,169	14,965	960,264	537,119
-32,154	15,040	959,456	536,888
-31,140	15,014	958,415	536,201
-30,125	15,062	957,747	535,960
-29,111	15,068	956,829	535,442
-28,096	15,058	956,158	535,015
-27,082	15,030	955,525	534,548
-26,067	15,086	954,636	534,209
-25,052	15,076	953,913	533,752
-24,038	14,977	953,406	533,129
-23,023	14,967	952,817	532,749
-22,009	15,066	952,051	532,615
-20,994	15,057	951,507	532,261
-19,979	15,028	950,833	531,770
-18,965	15,082	950,243	531,591
-17,950	14,995	949,699	530,990
-16,936	14,916	949,254	530,466
-15,921	14,945	948,251	529,979
-14,906	14,929	947,546	529,511
-13,892	14,917	946,939	529,112
-12,877	14,867	946,358	528,610
-11,863	14,865	945,646	528,183
-10,848	14,912	945,038	527,972
-9,833	15,056	944,573	528,149
-8,819	14,964	943,997	527,514
-7,804	14,941	943,398	527,086
-6,790	14,891	942,991	526,680
-5,775	14,949	942,263	526,435
-4,760	14,939	941,689	526,061
-3,746	14,954	940,794	525,588
-2,731	14,774	940,355	524,755
-1,717	14,769	939,672	524,337
-0,702	14,692	938,954	523,671
0,313	14,538	938,252	523,584
1,327	17,789	936,147	532,590
2,342	26,771	792,640	474,682
3,356	23,384	457,769	268,954
4,371	-3,534	313,977	155,919
5,386	-7,443	295,801	142,933
6,400	-9,586	289,663	137,833
7,415	-9,906	287,282	136,373
8,429	-10,172	285,680	135,341
9,444	-10,129	284,836	134,971
10,459	-10,147	284,291	134,684
11,473	-10,234	283,709	134,311
12,488	-10,266	283,218	134,035
13,502	-10,134	282,644	133,879
14,517	-10,085	281,996	133,608
15,531	-10,174	281,704	133,372
16,546	-10,096	281,411	133,297
17,561	-10,208	280,971	132,969
18,575	-10,331	280,633	132,679
19,590	-10,295	280,240	132,515
20,604	-10,175	279,875	132,446
21,619	-10,236	279,491	132,194
22,634	-10,251	279,249	132,053
23,648	-10,220	278,912	131,912
24,663	-10,090	278,495	131,827
25,677	-10,261	278,333	131,575
26,692	-10,306	278,050	131,387
27,707	-10,150	277,902	131,453
28,721	-10,279	277,537	131,147
29,736	-10,168	277,273	131,116
30,750	-10,176	276,984	130,960
31,765	-10,424	276,850	130,651
32,780	-10,256	276,648	130,702
33,794	-10,414	276,477	130,461
34,809	-10,233	276,032	130,410
35,823	-10,316	275,753	130,188
36,838	-10,272	275,575	130,134
37,853	-10,406	275,191	129,815
38,867	-10,276	274,963	129,817
39,882	-10,356	274,951	129,726
40,896	-10,321	274,609	129,586
41,911	-10,399	274,394	129,400
42,926	-10,121	274,064	129,492
43,940	-10,407	273,824	129,100
44,955	-10,268	273,658	129,140
45,969	-10,390	273,422	128,904
46,984	-10,481	273,034	128,625
47,999	-11,016	273,016	128,107
49,013	-11,013	272,657	127,929
50,028	-10,959	272,252	127,778
51,042	-11,190	272,034	127,450
52,057	-11,224	271,836	127,315
53,071	-11,125	271,576	127,273
54,086	-10,886	271,609	127,498
55,101	-10,672	271,285	127,532
56,115	-10,702	271,193	127,450
57,130	-10,266	270,965	127,734
58,144	-10,051	270,726	127,808
59,159	-10,031	270,462	127,691
60,174	-10,105	270,388	127,576
61,188	-10,050	270,132	127,495
62,203	-10,259	269,954	127,207
63,217	-10,097	269,547	127,153
64,232	-10,184	269,451	127,016
65,247	-10,052	269,285	127,048
66,261	-10,311	268,953	126,642
67,276	-10,316	268,727	126,521
68,290	-10,590	268,496	126,150
69,305	-10,552	268,299	126,081
70,320	-10,501	268,107	126,026
71,334	-10,446	267,823	125,931
72,349	-10,242	267,684	126,040
73,363	-10,004	267,395	126,109
74,378	-10,096	267,193	125,919
75,393	-10,211	266,994	125,710
76,407	-10,198	266,847	125,641
77,422	-10,252	266,586	125,458
78,436	-10,209	266,413	125,404
79,451	-10,265	266,203	125,244
80,466	-10,365	265,920	125,010
81,480	-10,240	265,581	124,952
82,495	-10,466	265,390	124,646
83,509	-10,269	265,296	124,770
84,524	-10,268	265,136	124,683
85,539	-10,427	264,802	124,373
86,553	-10,553	264,723	124,211
87,568	-10,315	264,315	124,222
88,582	-10,207	264,147	124,229
89,597	-10,369	264,093	124,047
90,611	-10,108	263,766	124,117
91,626	-10,070	263,729	124,122
92,641	-10,188	263,517	123,905
93,655	-10,250	263,336	123,754
94,670	-10,474	263,037	123,402
95,684	-10,351	263,010	123,489
96,699	-10,096	262,673	123,546
97,714	-10,386	262,511	123,201
98,728	-10,281	262,276	123,173
99,743	-10,432	262,032	122,914
100,757	-10,417	261,796	122,805
101,772	-10,350	261,461	122,696
102,787	-10,515	261,414	122,517
103,801	-10,442	261,315	122,525
104,816	-10,374	261,184	122,512
105,830	-10,131	260,981	122,621
106,845	-10,267	260,777	122,394
107,860	-10,126	260,435	122,347
108,874	-10,338	260,315	122,093
109,889	-10,232	260,165	122,105
110,903	-10,232	259,868	121,955
111,918	-10,233	259,719	121,873
112,933	-10,174	259,445	121,786
113,947	-10,278	259,293	121,612
114,962	-10,143	259,148	121,652
115,976	-10,084	259,038	121,641
116,991	-10,353	258,846	121,305
118,006	-10,224	258,736	121,355
119,020	-10,180	258,485	121,265
120,035	-10,159	258,385	121,225
121,049	-9,995	258,045	121,198
122,064	-10,108	258,046	121,089
123,079	-10,297	257,597	120,703
124,093	-10,381	257,516	120,581
125,108	-10,451	257,281	120,399
126,122	-10,595	257,055	120,158
127,137	-10,623	256,755	119,982
128,151	-10,370	256,596	120,117
129,166	-10,584	256,470	119,862
130,181	-10,503	256,353	119,866
131,195	-10,540	256,084	119,697
132,210	-10,332	255,933	119,797
133,224	-10,256	255,760	119,771
134,239	-10,205	255,680	119,766
135,254	-10,150	255,348	119,648
136,268	-10,335	255,177	119,398
137,283	-10,458	255,011	119,204
138,297	-10,506	254,551	118,936
139,312	-10,636	254,490	118,786
140,327	-10,283	254,337	119,007
141,341	-10,059	254,297	119,170
142,356	-10,020	254,190	119,143
143,370	-10,187	254,035	118,916
144,385	-10,224	253,787	118,758
145,400	-10,095	253,616	118,777
146,414	-10,002	253,530	118,807
147,429	-9,951	253,164	118,668
148,443	-10,145	253,218	118,517
149,458	-10,290	253,033	118,296
150,473	-9,877	252,745	118,503
151,487	-9,934	252,421	118,292
152,502	-10,029	252,224	118,108
153,516	-10,185	252,165	117,937
154,531	-10,038	251,926	117,940
155,546	-10,065	251,709	117,805
156,560	-9,881	251,537	117,870
157,575	-10,245	251,382	117,478
158,589	-9,971	251,095	117,565
159,604	-9,929	251,030	117,561
160,619	-10,156	250,873	117,284
161,633	-9,857	250,693	117,443
162,648	-9,897	250,582	117,346
163,662	-10,018	250,408	117,152
164,677	-10,144	250,199	116,937
165,692	-10,137	250,022	116,850
166,706	-9,904	249,788	116,927
167,721	-10,183	249,705	116,642
168,735	-9,949	249,531	116,748
169,750	-10,027	249,419	116,619
170,764	-10,102	249,194	116,441
171,779	-9,774	249,014	116,621
172,794	-9,896	248,929	116,469
173,808	-10,070	248,675	116,194
174,823	-10,413	248,308	115,725
175,837	-10,666	248,111	115,412
176,852	-10,069	248,067	115,880
177,867	-9,903	248,034	115,993
178,881	-10,106	248,026	115,809
179,896	-10,047	247,752	115,720
180,910	-9,685	247,547	115,916
181,925	-9,825	247,283	115,665
182,940	-9,950	247,154	115,490
183,954	-10,015	246,959	115,335
184,969	-9,888	246,757	115,336
185,983	-9,987	246,538	115,140
186,998	-9,830	246,518	115,251
188,013	-9,793	246,337	115,187
189,027	-9,871	246,125	115,013
190,042	-9,753	245,856	114,975
191,056	-9,751	245,759	114,921
192,071	-9,909	245,637	114,724
193,086	-9,849	245,411	114,656
194,100	-9,834	245,257	114,587
195,115	-9,848	245,163	114,522
196,129	-10,024	244,881	114,234
197,144	-9,865	244,620	114,233
198,159	-10,004	244,705	114,149
199,173	-10,035	244,431	113,985
200,188	-10,091	244,151	113,798
201,202	-10,303	243,905	113,499
202,217	-10,615	243,640	113,111
203,232	-10,643	243,418	112,975
204,246	-10,157	243,574	113,435
205,261	-9,591	243,345	113,781
206,275	-10,579	243,004	112,805
207,290	-6,705	244,633	116,733
208,304	1,055	246,976	124,257
209,319	4,462	247,866	127,512
210,334	4,756	247,918	127,770
211,348	5,276	247,698	128,073
212,363	5,111	247,887	128,024
213,377	5,606	247,644	128,295
214,392	5,497	247,311	128,021
215,407	5,220	247,306	127,779
216,421	5,233	246,980	127,610
217,436	5,492	246,888	127,764
218,450	5,619	246,788	127,805
219,465	5,161	246,568	127,304
220,480	4,933	246,359	126,998
221,494	5,080	246,221	127,036
222,509	5,100	245,987	126,920
223,523	4,922	245,868	126,702
224,538	4,473	245,445	126,106
225,553	4,686	245,433	126,263
226,567	5,017	245,362	126,485
227,582	5,071	245,098	126,381
228,596	4,975	245,104	126,295
229,611	4,525	244,852	125,787
230,626	4,634	244,458	125,662
231,640	4,560	244,458	125,591
232,655	4,800	244,293	125,690
233,669	4,669	244,098	125,472
234,684	4,419	243,942	125,179
235,699	4,752	243,905	125,418
236,713	4,843	243,889	125,472
237,728	4,664	243,389	125,059
238,742	4,574	243,248	124,903
239,757	4,419	243,079	124,679
240,772	4,359	242,975	124,567
241,786	4,623	242,790	124,674
242,801	4,381	242,644	124,393
243,815	4,619	242,363	124,429
244,830	4,877	242,420	124,655
245,844	4,874	242,223	124,540
246,859	4,526	242,140	124,207
247,874	4,671	241,879	124,177
248,888	4,458	241,748	123,928
249,903	4,781	241,581	124,091
250,917	4,913	241,521	124,155
251,932	4,916	241,455	124,113
252,947	4,810	241,323	123,949
253,961	4,698	240,891	123,626
254,976	4,877	240,728	123,674
255,990	4,855	240,689	123,626
257,005	4,521	240,491	123,247
258,020	4,419	240,169	122,989
259,034	4,870	240,230	123,369
260,049	4,906	240,088	123,314
261,063	4,544	239,842	122,889
262,078	4,556	239,652	122,789
263,093	4,703	239,648	122,894
264,107	4,982	239,503	123,030
265,122	4,568	239,280	122,576
266,136	4,781	239,132	122,658
267,151	4,981	238,934	122,703
268,166	4,683	238,612	122,292
269,180	4,637	238,499	122,187
270,195	4,997	238,743	122,586
271,209	5,318	238,466	122,686
272,224	4,979	238,096	122,218
273,239	4,293	237,939	121,585
274,253	4,182	237,806	121,419
275,268	4,777	237,620	121,781
276,282	4,691	237,655	121,721
277,297	4,319	237,398	121,285
278,312	4,447	237,321	121,336
279,326	4,515	237,237	121,336
280,341	4,779	236,955	121,388
281,355	4,590	236,946	121,224
282,370	4,514	236,819	121,089
283,384	4,646	236,508	121,023
284,399	4,568	236,415	120,903
285,414	4,345	236,149	120,582
286,428	4,597	236,119	120,753
287,443	4,631	235,875	120,644
288,457	4,799	235,924	120,789
289,472	4,807	235,661	120,650
290,487	4,736	235,557	120,531
291,501	4,609	235,371	120,326
292,516	4,351	235,098	119,974
293,530	4,429	234,832	119,889
294,545	4,541	234,933	120,017
295,560	4,497	234,815	119,912
296,574	4,455	234,494	119,705
297,589	4,475	234,417	119,670
298,603	4,863	234,422	119,963
299,618	5,073	234,118	119,959
300,633	4,792	234,110	119,727
301,647	4,751	234,025	119,641
302,662	5,020	233,933	119,791
303,676	5,101	233,585	119,664
304,691	4,832	233,608	119,458
305,706	4,987	233,452	119,487
306,720	5,144	233,149	119,442
307,735	5,036	232,970	119,257
308,749	4,702	232,881	118,944
309,764	4,450	232,635	118,614
310,779	4,361	232,471	118,452
311,793	4,252	232,144	118,191
312,808	3,963	232,071	117,921
313,822	4,599	232,048	118,387
314,837	4,740	231,927	118,423
315,852	4,651	231,708	118,232
316,866	4,858	231,733	118,393
317,881	5,052	231,659	118,492
318,895	5,042	231,520	118,403
319,910	4,981	231,288	118,227
320,925	4,777	231,114	117,973
321,939	4,254	230,945	117,477
322,954	4,658	230,785	117,693
323,968	4,724	230,539	117,606
324,983	4,630	230,469	117,489
325,997	4,957	230,396	117,690
327,012	4,859	230,347	117,580
328,027	4,645	230,080	117,271
329,041	4,987	229,901	117,429
330,056	5,481	230,018	117,852
331,070	5,528	229,893	117,813
332,085	5,046	229,687	117,332
333,100	4,938	229,397	117,092
334,114	4,840	229,299	116,958
335,129	4,984	229,132	116,971
336,143	5,229	229,062	117,109
337,158	5,153	228,773	116,894
338,173	4,640	228,672	116,446
339,187	4,676	228,448	116,348
340,202	4,593	228,560	116,333
341,216	4,886	228,083	116,299
342,231	4,694	227,991	116,098
343,246	4,817	227,857	116,111
344,260	4,722	227,882	116,043
345,275	5,019	227,763	116,194
346,289	5,252	227,505	116,227
347,304	5,160	227,414	116,101
348,319	4,988	227,165	115,835
349,333	4,989	227,096	115,790
350,348	4,787	226,865	115,511
351,362	4,843	226,786	115,503
352,377	4,775	226,502	115,297
353,392	4,633	226,465	115,163
354,406	4,501	226,215	114,927
355,421	194,796	1318,435	1391,389
356,435	156,136	1451,490	1391,370
