DTS Sentinel unit serial number:	SN410029Multiplexer serial number:	ORYXHardware model number:	OX2-SRSoftware version number:	ORYX F/W v4,00 Oryx Data Collector v3.7.2.0data status	okinstallation	B5 Nyhavnadifferential loss correction	single-endedforward channel	channel 2reverse channel	N/Adate	2023/12/12time	17:12:13forward acquisition time	300,00reverse acquisition time	0,00gamma	499,1914k internal	0,3156k external	0,3156temperature offset calibration	1,0000default loss term (dB/km)	0,3820temperature slope calibration	1,0000multiplexer offset coefficient	1,0000multiplexer slope coefficient	1,0000fibre end	0,00T internal ref (°C)	15,75T ext. ref 1 (°C)	-0,85T ext. ref 2 (°C)	-1,16length (m)	temperature (°C)	Stokes	anti-Stokes-744,400	-37,385	0,131	0,051
-743,385	-87,445	-0,237	-0,053
-742,371	-133,829	0,088	0,008
-741,356	36,114	-0,111	0,072
-740,342	82,152	0,138	-0,110
-739,327	-152,737	-0,283	0,015
-738,312	-157,466	0,036	-0,002
-737,298	-125,494	-0,245	-0,027
-736,283	-200,000	0,101	0,000
-735,269	-116,552	-0,154	0,021
-734,254	-200,000	0,012	0,063
-733,239	-83,272	-0,432	-0,101
-732,225	-167,518	0,099	0,003
-731,210	-200,000	-0,001	0,043
-730,196	-200,000	-0,001	-0,066
-729,181	36,111	0,138	0,090
-728,167	403,047	-0,114	-0,177
-727,152	-200,000	0,019	0,117
-726,137	-54,981	-0,183	-0,061
-725,123	567,849	-0,074	-0,132
-724,108	800,000	-0,054	-0,164
-723,094	-200,000	0,010	-0,129
-722,079	428,329	-0,028	-0,045
-721,064	110,107	0,034	0,030
-720,050	2,300	-0,073	0,039
-719,035	800,000	-0,013	-0,030
-718,021	-140,228	0,097	0,007
-717,006	-4,168	-0,124	0,063
-715,991	-53,892	-0,123	0,041
-714,977	46,261	-0,077	0,053
-713,962	92,452	-0,069	0,057
-712,948	800,000	-0,021	-0,047
-711,933	85,846	-0,030	-0,024
-710,918	521,950	-0,101	-0,176
-709,904	-77,993	-0,085	0,022
-708,889	239,829	-0,082	-0,101
-707,875	455,793	0,108	0,178
-706,860	800,000	0,050	-0,107
-705,845	52,425	0,121	-0,085
-704,831	-18,492	0,108	0,050
-703,816	-167,824	0,067	-0,002
-702,802	-35,729	-0,111	0,044
-701,787	-200,000	0,013	-0,139
-700,772	-200,000	-0,024	-0,108
-699,758	-200,000	0,013	-0,155
-698,743	-105,362	0,032	0,005
-697,729	-200,000	-0,005	-0,032
-696,714	599,857	0,023	-0,042
-695,699	13,244	0,040	0,023
-694,685	174,695	-0,130	-0,138
-693,670	-200,000	0,011	-0,182
-692,656	-200,000	0,009	-0,094
-691,641	-200,000	-0,025	-0,165
-690,627	40,608	-0,039	-0,026
-689,612	800,000	-0,036	0,081
-688,597	106,467	0,020	0,017
-687,583	-200,000	-0,033	-0,266
-686,568	105,006	0,014	-0,013
-685,554	169,950	0,055	0,058
-684,539	-200,000	0,008	0,056
-683,524	800,000	0,058	0,173
-682,510	152,024	-0,066	0,066
-681,495	-200,000	-0,020	-0,088
-680,481	-72,718	0,057	-0,015
-679,466	-200,000	0,015	-0,160
-678,451	800,000	-0,041	-0,106
-677,437	-41,332	0,058	-0,022
-676,422	-86,618	0,199	0,044
-675,408	-84,992	-0,130	0,030
-674,393	-200,000	-0,005	0,022
-673,378	524,468	0,044	-0,076
-672,364	144,330	-0,101	-0,099
-671,349	-200,000	-0,002	-0,034
-670,335	293,638	0,055	-0,075
-669,320	14,590	-0,031	0,018
-668,305	-200,000	0,001	0,127
-667,291	141,506	-0,055	0,053
-666,276	96,126	0,119	-0,100
-665,262	345,290	-0,059	-0,086
-664,247	140,581	0,055	-0,054
-663,232	-31,947	-0,054	-0,022
-662,218	-90,423	-0,072	0,015
-661,203	-200,000	0,037	0,182
-660,189	-50,256	0,068	0,024
-659,174	361,366	0,036	0,053
-658,159	331,271	0,076	-0,108
-657,145	-60,910	-0,108	-0,033
-656,130	-200,000	0,034	0,132
-655,116	248,405	-0,036	0,045
-654,101	-200,000	-0,008	-0,029
-653,086	-173,451	-0,007	0,000
-652,072	744,149	-0,048	-0,095
-651,057	800,000	-0,035	0,077
-650,043	243,198	-0,114	-0,141
-649,028	157,133	0,057	0,058
-648,014	-200,000	0,014	0,145
-646,999	57,615	-0,092	-0,066
-645,984	88,715	-0,047	-0,038
-644,970	392,186	-0,044	0,068
-643,955	151,748	-0,082	-0,082
-642,941	576,277	0,027	0,049
-641,926	-60,511	0,206	-0,064
-640,911	526,411	-0,092	-0,159
-639,897	-122,250	0,068	-0,008
-638,882	177,312	-0,070	0,075
-637,868	213,773	-0,053	-0,061
-636,853	-105,336	0,048	0,008
-635,838	-86,947	-0,055	-0,012
-634,824	-28,970	-0,113	-0,047
-633,809	208,940	-0,092	-0,106
-632,795	280,379	0,027	-0,036
-631,780	-155,114	-0,071	0,003
-630,765	18,215	-0,139	0,081
-629,751	6,372	0,026	-0,014
-628,736	-12,204	-0,100	-0,048
-627,722	180,528	0,022	-0,024
-626,707	-4,026	0,062	0,032
-625,692	-169,828	-0,071	0,002
-624,678	308,629	0,039	0,053
-623,663	-200,000	0,049	0,171
-622,649	-30,318	0,055	-0,023
-621,634	-84,897	-0,135	-0,031
-620,619	49,247	0,064	-0,044
-619,605	209,537	-0,042	-0,048
-618,590	87,078	-0,056	-0,045
-617,576	609,147	-0,057	0,104
-616,561	-5,557	0,083	-0,041
-615,546	45,606	-0,173	-0,117
-614,532	94,574	-0,151	-0,126
-613,517	228,241	-0,010	0,012
-612,503	9,893	0,028	0,015
-611,488	18,517	-0,058	0,034
-610,474	47,188	-0,037	-0,025
-609,459	-200,000	0,009	0,053
-608,444	217,676	-0,067	-0,078
-607,430	-71,130	0,085	0,023
-606,415	-75,725	-0,149	-0,039
-605,401	-107,728	0,023	0,004
-604,386	1,449	0,092	0,049
-603,371	-178,792	-0,113	0,002
-602,357	-134,638	-0,140	-0,012
-601,342	-31,295	-0,151	-0,062
-600,328	800,000	0,035	-0,100
-599,313	390,141	-0,068	-0,104
-598,298	-200,000	0,007	-0,025
-597,284	132,229	-0,097	-0,092
-596,269	800,000	0,018	0,046
-595,255	141,261	-0,020	-0,020
-594,240	-133,832	-0,068	-0,006
-593,225	71,212	-0,178	-0,135
-592,211	6,766	-0,055	0,030
-591,196	-86,967	0,061	-0,013
-590,182	800,000	0,071	0,147
-589,167	88,573	-0,053	-0,043
-588,152	733,010	-0,021	-0,041
-587,138	-137,690	0,069	-0,006
-586,123	81,231	-0,068	-0,054
-585,109	-200,000	-0,010	-0,037
-584,094	-111,223	0,111	-0,016
-583,079	629,767	-0,038	0,071
-582,065	221,985	0,136	0,161
-581,050	-200,000	0,003	0,032
-580,036	-155,118	-0,012	0,001
-579,021	800,000	0,016	-0,048
-578,006	248,313	0,009	0,011
-576,992	-200,000	0,016	-0,072
-575,977	298,289	-0,062	0,084
-574,963	22,249	0,074	-0,044
-573,948	233,151	-0,032	-0,039
-572,934	-200,000	0,031	-0,109
-571,919	-175,733	0,042	-0,001
-570,904	800,000	-0,087	-0,210
-569,890	773,260	-0,064	-0,128
-568,875	46,663	-0,110	-0,075
-567,861	-200,000	0,015	-0,064
-566,846	-200,000	0,001	0,069
-565,831	122,853	-0,056	0,051
-564,817	126,734	-0,068	0,063
-563,802	-200,000	-0,000	0,108
-562,788	-59,418	-0,158	-0,049
-561,773	-78,553	0,147	-0,037
-560,758	-200,000	-0,005	0,085
-559,744	800,000	0,046	0,129
-558,729	800,000	-0,048	0,107
-557,715	-66,496	-0,131	0,038
-556,700	-37,778	0,099	-0,039
-555,685	642,125	-0,031	0,057
-554,671	10,800	0,086	0,048
-553,656	604,785	0,045	0,082
-552,642	-200,000	0,001	0,034
-551,627	382,459	0,048	0,072
-550,612	62,695	-0,049	0,036
-549,598	195,487	-0,077	-0,085
-548,583	800,000	-0,018	0,038
-547,569	800,000	0,026	0,057
-546,554	800,000	0,032	0,068
-545,539	-71,484	-0,092	0,025
-544,525	-10,715	0,054	-0,026
-543,510	-62,959	-0,145	-0,044
-542,496	585,239	-0,010	-0,018
-541,481	800,000	-0,066	-0,139
-540,466	-200,000	0,017	-0,083
-539,452	-200,000	0,024	-0,100
-538,437	-81,223	0,119	0,029
-537,423	84,945	-0,016	0,013
-536,408	103,582	-0,063	-0,054
-535,393	236,908	-0,038	-0,046
-534,379	158,605	0,029	-0,029
-533,364	323,391	0,072	-0,100
-532,350	352,973	0,078	-0,114
-531,335	-25,491	-0,039	0,017
-530,321	243,526	-0,084	0,103
-529,306	-148,304	-0,180	-0,011
-528,291	-200,000	-0,028	-0,096
-527,277	800,000	-0,048	-0,147
-526,262	-200,000	-0,015	0,134
-525,248	196,245	-0,075	-0,084
-524,233	800,000	0,042	0,088
-523,218	554,786	0,052	0,092
-522,204	266,516	0,051	0,065
-521,189	-146,764	-0,142	-0,009
-520,175	-116,614	0,063	0,008
-519,160	800,000	-0,028	-0,064
-518,145	-200,000	0,004	-0,025
-517,131	-118,764	-0,047	-0,006
-516,116	800,000	0,064	0,170
-515,102	498,583	0,022	-0,037
-514,087	-40,852	-0,079	0,030
-513,072	-16,375	-0,096	0,044
-512,058	-200,000	0,007	-0,033
-511,043	-48,978	0,061	-0,021
-510,029	404,398	0,019	-0,030
-509,014	800,000	-0,041	-0,086
-507,999	-200,000	0,007	0,050
-506,985	-200,000	0,002	-0,031
-505,970	307,860	0,070	0,096
-504,956	45,241	-0,081	-0,054
-503,941	64,056	0,058	-0,043
-502,926	-56,462	0,140	0,045
-501,912	-148,031	0,074	0,004
-500,897	763,387	-0,024	-0,047
-499,883	-85,999	0,131	-0,029
-498,868	800,000	0,018	-0,050
-497,853	66,309	0,077	-0,057
-496,839	371,333	-0,043	-0,063
-495,824	-200,000	-0,016	0,110
-494,810	730,069	0,051	0,100
-493,795	-6,631	0,006	0,003
-492,781	-67,441	-0,113	-0,032
-491,766	-146,221	0,077	-0,005
-490,751	86,184	-0,144	-0,115
-489,737	234,458	-0,092	-0,112
-488,722	-41,495	0,086	0,032
-487,708	353,461	-0,014	-0,021
-486,693	-182,092	0,109	-0,001
-485,678	-68,994	-0,063	-0,018
-484,664	800,000	-0,016	0,036
-483,649	-110,226	-0,065	-0,010
-482,635	439,843	0,035	-0,056
-481,620	250,608	0,027	-0,033
-480,605	-200,000	-0,004	-0,050
-479,591	-96,524	-0,060	0,011
-478,576	116,159	0,003	-0,003
-477,562	-119,244	-0,106	-0,013
-476,547	451,053	-0,010	-0,017
-475,532	-76,909	0,061	-0,015
-474,518	-200,000	0,003	0,072
-473,503	89,531	0,065	0,053
-472,489	481,386	-0,039	-0,064
-471,474	-200,000	-0,015	-0,051
-470,459	295,176	0,097	0,129
-469,445	52,873	0,044	-0,030
-468,430	-58,381	-0,073	-0,023
-467,416	669,341	-0,031	0,059
-466,401	-60,144	0,169	-0,052
-465,386	758,661	0,085	0,169
-464,372	-20,478	0,022	0,010
-463,357	-200,000	0,024	-0,086
-462,343	-80,137	0,079	0,019
-461,328	-200,000	-0,013	-0,065
-460,313	462,985	0,068	0,111
-459,299	-200,000	0,014	-0,049
-458,284	-65,649	0,126	0,037
-457,270	-31,481	-0,117	0,048
-456,255	800,000	-0,022	-0,056
-455,241	-10,340	-0,136	-0,066
-454,226	-60,558	0,097	0,030
-453,211	112,029	0,050	0,044
-452,197	283,380	0,036	-0,047
-451,182	-152,441	0,138	-0,007
-450,168	-200,000	-0,015	-0,063
-449,153	31,191	0,072	-0,045
-448,138	-65,967	-0,072	-0,021
-447,124	-194,805	0,038	-0,000
-446,109	476,546	-0,053	0,087
-445,095	-24,589	0,136	0,059
-444,080	95,041	0,049	-0,040
-443,065	22,987	-0,080	0,048
-442,051	456,657	-0,054	-0,088
-441,036	800,000	-0,043	0,137
-440,022	-133,834	0,102	-0,009
-439,007	-29,877	-0,044	0,018
-437,992	-200,000	-0,004	-0,056
-436,978	-200,000	-0,019	-0,170
-435,963	362,667	0,057	-0,084
-434,949	-131,978	-0,108	0,010
-433,934	185,551	0,041	-0,045
-432,919	473,728	-0,060	-0,099
-431,905	-200,000	-0,041	-0,238
-430,890	52,281	0,125	-0,087
-429,876	-97,929	-0,008	0,002
-428,861	527,320	0,031	0,054
-427,846	93,316	-0,018	-0,015
-426,832	-200,000	0,014	-0,124
-425,817	-200,000	-0,006	-0,155
-424,803	-200,000	0,019	-0,211
-423,788	-200,000	0,021	-0,095
-422,773	-117,712	0,093	0,012
-421,759	173,655	0,099	0,104
-420,744	60,551	-0,048	0,034
-419,730	-136,458	0,090	0,007
-418,715	619,376	0,027	-0,051
-417,701	-200,000	-0,005	-0,054
-416,686	-85,933	0,116	0,026
-415,671	-200,000	0,014	0,083
-414,657	453,238	0,073	0,117
-413,642	-148,811	-0,064	-0,004
-412,628	112,715	0,039	0,034
-411,613	617,687	-0,034	-0,062
-410,598	13,361	0,061	-0,034
-409,584	-13,377	0,019	-0,009
-408,569	29,632	0,180	0,111
-407,555	-200,000	-0,004	0,028
-406,540	-163,350	0,028	-0,001
-405,525	200,992	-0,126	0,141
-404,511	194,582	-0,042	-0,046
-403,496	-200,000	-0,023	0,089
-402,482	800,000	0,040	0,111
-401,467	32,103	0,149	-0,093
-400,452	-200,000	0,011	0,056
-399,438	-200,000	0,029	0,119
-398,423	365,727	0,061	0,089
-397,409	-200,000	0,026	-0,128
-396,394	-200,000	0,032	-0,161
-395,379	160,146	-0,021	0,021
-394,365	15,785	0,054	0,031
-393,350	202,219	0,053	-0,060
-392,336	284,576	0,006	-0,008
-391,321	-200,000	0,006	0,043
-390,306	-200,000	-0,007	-0,071
-389,292	80,866	-0,152	-0,119
-388,277	-200,000	0,029	0,123
-387,263	98,509	0,156	0,130
-386,248	-86,881	0,052	0,011
-385,233	-74,677	0,038	-0,010
-384,219	12,891	0,124	-0,069
-383,204	-200,000	-0,006	-0,046
-382,190	800,000	-0,018	-0,041
-381,175	-112,087	-0,044	-0,006
-380,160	800,000	0,032	-0,093
-379,146	243,216	0,023	-0,027
-378,131	-200,000	-0,004	0,122
-377,117	-200,000	-0,008	-0,078
-376,102	-3,110	-0,172	-0,087
-375,088	35,463	0,095	-0,060
-374,073	-177,532	0,094	0,002
-373,058	-58,185	0,113	0,035
-372,044	800,000	0,045	0,114
-371,029	373,198	-0,015	0,022
-370,015	65,762	0,011	-0,008
-369,000	-200,000	-0,029	-0,208
-367,985	-60,305	-0,147	-0,045
-366,971	152,307	0,075	0,074
-365,956	242,425	0,047	0,057
-364,942	30,971	-0,171	0,106
-363,927	336,142	0,062	-0,087
-362,912	58,629	-0,094	-0,067
-361,898	79,241	-0,069	0,054
-360,883	-29,512	0,177	-0,073
-359,869	-200,000	0,027	-0,124
-358,854	236,233	0,032	-0,038
-357,839	-200,000	-0,003	0,067
-356,825	-60,145	0,072	0,022
-355,810	-125,835	-0,042	-0,005
-354,796	800,000	-0,019	0,039
-353,781	-120,054	-0,117	-0,014
-352,766	800,000	-0,032	0,069
-351,752	93,850	-0,064	0,053
-350,737	-121,569	-0,055	0,007
-349,723	576,200	-0,035	0,062
-348,708	800,000	-0,020	0,048
-347,693	140,788	-0,055	-0,053
-346,679	-200,000	-0,008	-0,076
-345,664	-200,000	-0,001	-0,018
-344,650	-47,939	-0,058	0,020
-343,635	800,000	0,050	0,136
-342,620	-200,000	-0,004	0,094
-341,606	132,894	0,131	0,123
-340,591	800,000	-0,044	-0,090
-339,577	-47,689	-0,024	-0,009
-338,562	-69,612	-0,109	0,030
-337,548	-200,000	-0,002	0,016
-336,533	-91,504	0,162	0,033
-335,518	8,557	0,099	-0,054
-334,504	202,668	-0,035	0,039
-333,489	-108,784	-0,020	0,003
-332,475	541,438	-0,067	-0,116
-331,460	-200,000	0,035	-0,000
-330,445	-200,000	0,030	-0,129
-329,431	175,830	0,149	0,157
-328,416	233,713	-0,128	0,154
-327,402	-8,967	-0,070	0,034
-326,387	73,998	-0,004	-0,003
-325,372	-33,611	-0,092	0,037
-324,358	800,000	0,030	-0,072
-323,343	-138,963	-0,117	-0,009
-322,329	32,359	-0,059	0,037
-321,314	161,088	-0,085	0,086
-320,299	-4,557	0,052	0,026
-319,285	-200,000	0,005	-0,152
-318,270	401,535	-0,067	-0,103
-317,256	210,900	0,055	-0,063
-316,241	-21,425	-0,168	0,074
-315,226	-102,066	0,019	0,003
-314,212	800,000	-0,019	0,056
-313,197	215,252	0,029	0,033
-312,183	800,000	0,050	0,117
-311,168	22,315	0,105	-0,062
-310,153	800,000	-0,028	0,075
-309,139	115,627	-0,032	-0,028
-308,124	61,640	0,061	0,044
-307,110	-75,356	0,066	-0,017
-306,095	-200,000	-0,017	0,067
-305,080	-95,238	0,179	0,035
-304,066	-200,000	-0,001	-0,124
-303,051	-200,000	-0,011	-0,125
-302,037	-0,429	-0,047	-0,024
-301,022	44,671	-0,092	-0,061
-300,008	389,741	0,020	-0,030
-298,993	313,257	-0,101	0,138
-297,978	-200,000	0,023	0,087
-296,964	456,656	-0,074	0,119
-295,949	-88,133	0,041	-0,009
-294,935	800,000	-0,025	-0,062
-293,920	145,409	0,112	0,108
-292,905	800,000	0,017	0,039
-291,891	800,000	-0,033	-0,077
-290,876	-174,662	-0,134	-0,003
-289,862	283,377	0,103	0,134
-288,847	71,462	-0,095	-0,072
-287,832	136,757	-0,075	0,071
-286,818	-146,722	-0,131	0,008
-285,803	134,019	0,058	0,055
-284,789	800,000	0,014	0,030
-283,774	-98,439	0,151	0,028
-282,759	71,714	-0,044	-0,033
-281,745	-99,035	-0,132	-0,024
-280,730	-65,032	0,138	0,040
-279,716	-127,014	-0,254	0,027
-278,701	436,180	0,045	-0,071
-277,686	203,156	0,064	0,072
-276,672	-102,897	0,131	-0,022
-275,657	-42,706	0,100	0,037
-274,643	-179,121	-0,075	0,001
-273,628	-200,000	-0,010	0,038
-272,613	63,591	0,018	-0,013
-271,599	800,000	0,026	0,078
-270,584	-200,000	0,045	0,190
-269,570	214,902	0,072	0,083
-268,555	293,512	0,081	0,107
-267,540	-14,205	-0,055	-0,025
-266,526	-58,641	0,134	-0,042
-265,511	-101,843	-0,082	-0,014
-264,497	105,070	-0,088	-0,075
-263,482	-200,000	-0,005	0,136
-262,467	-200,000	-0,001	0,009
-261,453	195,918	-0,077	0,085
-260,438	-200,000	-0,035	-0,155
-259,424	477,775	-0,049	-0,081
-258,409	-61,638	-0,110	-0,033
-257,395	800,000	0,034	0,069
-256,380	-107,763	0,154	0,024
-255,365	-200,000	-0,001	0,061
-254,351	-37,814	-0,089	-0,034
-253,336	-25,702	-0,054	-0,023
-252,322	-200,000	0,028	0,122
-251,307	-200,000	0,035	-0,125
-250,292	47,945	-0,061	-0,041
-249,278	77,233	-0,042	0,033
-248,263	800,000	0,028	0,063
-247,249	-200,000	-0,008	-0,036
-246,234	133,700	0,057	0,053
-245,219	-200,000	-0,052	-0,185
-244,205	165,639	0,074	-0,076
-243,190	-200,000	-0,007	0,029
-242,176	800,000	-0,025	0,057
-241,161	150,779	0,079	-0,078
-240,146	366,608	0,056	0,081
-239,132	517,734	-0,078	0,133
-238,117	-200,000	-0,025	-0,083
-237,103	612,411	0,037	-0,068
-236,088	800,000	0,044	0,088
-235,073	-196,833	-0,036	-0,000
-234,059	63,683	0,031	-0,022
-233,044	800,000	-0,044	0,109
-232,030	-30,022	0,052	0,021
-231,015	-200,000	-0,002	-0,012
-230,000	-113,558	0,063	0,009
-228,986	-50,025	0,050	-0,017
-227,971	182,189	0,040	0,042
-226,957	-200,000	0,012	0,129
-225,942	-12,846	-0,128	0,060
-224,927	-77,070	0,090	-0,023
-223,913	461,190	-0,033	0,053
-222,898	394,927	0,027	-0,040
-221,884	225,702	0,056	0,066
-220,869	-51,623	0,095	0,032
-219,855	289,136	-0,094	0,123
-218,840	-161,830	0,173	-0,006
-217,825	-107,666	0,143	-0,022
-216,811	800,000	-0,042	-0,117
-215,796	-200,000	-0,017	-0,217
-214,782	-75,404	0,113	0,029
-213,767	-200,000	-0,048	0,000
-212,752	-200,000	0,033	0,107
-211,738	-200,000	0,006	0,046
-210,723	-72,610	0,065	0,017
-209,709	243,710	-0,052	-0,063
-208,694	800,000	0,053	-0,111
-207,679	-30,023	0,026	0,011
-206,665	-200,000	0,027	0,116
-205,650	709,644	0,052	0,100
-204,636	117,604	-0,076	0,067
-203,621	495,354	0,050	0,083
-202,606	800,000	-0,027	0,061
-201,592	-89,315	-0,148	-0,031
-200,577	401,424	-0,062	-0,095
-199,563	46,612	0,066	-0,044
-198,548	-23,727	-0,097	0,042
-197,533	-200,000	0,005	-0,047
-196,519	267,907	-0,024	0,030
-195,504	-27,729	-0,009	-0,004
-194,490	800,000	-0,024	-0,051
-193,475	800,000	-0,037	-0,099
-192,460	-200,000	0,012	-0,060
-191,446	-46,620	0,158	0,056
-190,431	239,855	-0,068	0,081
-189,417	1,563	0,041	0,021
-188,402	-144,140	0,053	-0,004
-187,387	243,976	-0,104	-0,127
-186,373	-161,275	0,037	0,001
-185,358	-200,000	-0,019	-0,082
-184,344	800,000	0,081	0,179
-183,329	-200,000	-0,027	0,228
-182,315	661,434	0,021	0,039
-181,300	-200,000	-0,008	0,035
-180,285	-200,000	0,012	-0,089
-179,271	-37,330	-0,096	-0,037
-178,256	-200,000	0,028	0,180
-177,242	800,000	-0,039	-0,108
-176,227	-200,000	-0,005	-0,075
-175,212	53,406	0,064	-0,044
-174,198	-200,000	0,025	-0,139
-173,183	263,449	-0,056	0,071
-172,169	261,769	0,052	-0,065
-171,154	-41,371	-0,079	-0,029
-170,139	189,944	0,084	0,091
-169,125	684,280	0,074	0,140
-168,110	-11,387	0,135	0,064
-167,096	-200,000	0,020	0,104
-166,081	800,000	0,045	-0,111
-165,066	-148,655	0,064	0,004
-164,052	-124,939	0,038	0,004
-163,037	143,330	0,064	-0,062
-162,023	140,919	-0,096	0,091
-161,008	800,000	-0,040	-0,081
-159,993	12,538	0,097	-0,054
-158,979	-190,717	-0,101	-0,001
-157,964	207,353	0,107	0,120
-156,950	-104,960	-0,057	-0,009
-155,935	800,000	0,055	0,128
-154,920	119,135	-0,077	0,069
-153,906	-200,000	0,014	0,081
-152,891	-94,284	-0,054	-0,010
-151,877	-71,371	-0,090	-0,024
-150,862	-200,000	0,018	0,090
-149,847	66,771	0,088	-0,064
-148,833	143,684	0,048	-0,047
-147,818	289,376	0,084	-0,110
-146,804	172,792	0,040	0,042
-145,789	800,000	-0,021	0,050
-144,775	701,451	-0,039	-0,074
-143,760	304,411	0,038	0,051
-142,745	800,000	-0,006	-0,017
-141,731	-165,068	0,094	0,003
-140,716	48,793	0,089	0,060
-139,702	-200,000	0,019	0,096
-138,687	47,059	-0,105	-0,070
-137,672	-79,277	-0,074	-0,018
-136,658	199,775	-0,027	-0,030
-135,643	117,853	-0,121	-0,107
-134,629	-74,184	0,058	0,015
-133,614	800,000	0,012	-0,026
-132,599	29,268	0,149	-0,091
-131,585	-200,000	-0,005	0,156
-130,570	-200,000	0,022	0,132
-129,556	-200,000	0,022	-0,093
-128,541	-200,000	0,003	0,022
-127,526	-200,000	-0,006	0,057
-126,512	-179,631	0,028	-0,000
-125,497	-14,818	0,048	0,022
-124,483	116,374	0,053	0,047
-123,468	476,987	-0,032	0,053
-122,453	97,648	0,122	-0,101
-121,439	-8,442	-0,123	0,059
-120,424	-200,000	0,001	-0,037
-119,410	163,784	-0,070	-0,071
-118,395	-40,643	0,147	-0,055
-117,380	-150,375	0,110	-0,006
-116,366	-132,957	-0,063	0,006
-115,351	-200,000	0,018	0,133
-114,337	476,257	-0,081	-0,132
-113,322	-129,497	0,086	-0,008
-112,307	179,813	-0,009	0,010
-111,293	7,967	0,168	0,090
-110,278	800,000	0,031	0,099
-109,264	132,787	0,058	0,054
-108,249	-200,000	-0,003	0,029
-107,234	-104,381	-0,073	0,012
-106,220	178,593	-0,067	-0,071
-105,205	67,740	0,115	-0,085
-104,191	-2,297	0,102	0,051
-103,176	-200,000	0,073	0,248
-102,162	-200,000	-0,007	-0,046
-101,147	16,577	-0,102	0,058
-100,132	290,400	-0,013	-0,018
-99,118	46,177	0,054	-0,036
-98,103	-200,000	0,034	-0,126
-97,089	-200,000	0,025	-0,107
-96,074	-57,871	0,063	-0,020
-95,059	-200,000	0,036	-0,122
-94,045	418,533	-0,014	0,021
-93,030	-136,955	-0,091	-0,007
-92,016	17,453	-0,028	-0,016
-91,001	185,523	-0,025	-0,027
-89,986	-200,000	-0,014	-0,057
-88,972	162,359	0,084	0,085
-87,957	-200,000	-0,017	0,091
-86,943	-141,354	0,145	0,010
-85,928	160,074	-0,099	-0,099
-84,913	-40,708	-0,111	-0,041
-83,899	800,000	0,029	0,090
-82,884	436,256	-0,053	-0,083
-81,870	675,969	0,040	0,075
-80,855	-136,796	-0,099	0,008
-79,840	46,253	0,109	-0,072
-78,826	-200,000	0,042	-0,199
-77,811	-154,458	0,043	-0,002
-76,797	-56,595	0,113	-0,036
-75,782	-200,000	0,007	-0,098
-74,767	285,349	-0,034	0,045
-73,753	-200,000	0,019	0,143
-72,738	800,000	-0,021	0,052
-71,724	800,000	-0,054	-0,142
-70,709	122,284	0,031	-0,027
-69,694	-99,369	0,092	-0,017
-68,680	800,000	-0,073	0,160
-67,665	-172,704	0,054	0,001
-66,651	-200,000	0,013	0,069
-65,636	32,831	-0,083	-0,051
-64,622	156,094	0,024	-0,023
-63,607	17,578	-0,182	-0,104
-62,592	195,822	0,080	-0,087
-61,578	-199,172	0,028	-0,000
-60,563	134,562	-0,013	-0,012
-59,549	1,112	0,068	-0,035
-58,534	9,460	-1,865	-1,011
-57,519	-200,000	-0,290	-1,076
-56,505	-200,000	-1,259	-4,879
-55,490	-31,068	0,795	0,321
-54,476	800,000	5,302	12,121
-53,461	-200,000	17,327	284,429
-52,446	800,000	723,841	2226,699
-51,432	542,376	1639,585	2817,948
-50,417	111,494	1631,456	1412,425
-49,403	75,854	1286,034	975,140
-48,388	32,548	1028,301	636,677
-47,373	20,210	990,279	572,417
-46,359	18,671	978,186	560,353
-45,344	16,057	974,315	549,550
-44,330	16,219	972,688	549,142
-43,315	15,824	971,009	546,880
-42,300	15,766	969,949	546,072
-41,286	15,751	968,852	545,383
-40,271	15,734	967,789	544,709
-39,257	15,824	966,882	544,471
-38,242	15,800	966,005	543,879
-37,227	15,750	965,242	543,262
-36,213	15,779	964,398	542,863
-35,198	15,754	963,619	542,318
-34,184	15,833	962,859	542,126
-33,169	15,798	961,943	541,477
-32,154	15,768	961,056	540,857
-31,140	15,779	960,084	540,324
-30,125	15,888	959,215	540,165
-29,111	15,741	958,489	539,260
-28,096	15,764	958,021	539,052
-27,082	15,767	957,323	538,647
-26,067	15,784	956,316	538,115
-25,052	15,796	955,730	537,801
-24,038	15,751	955,041	537,249
-23,023	15,783	954,384	536,958
-22,009	15,854	953,522	536,680
-20,994	15,836	953,106	536,369
-19,979	15,815	952,456	535,913
-18,965	15,806	951,896	535,550
-17,950	15,808	951,127	535,099
-16,936	15,734	950,644	534,573
-15,921	15,712	950,008	534,121
-14,906	15,676	949,199	533,532
-13,892	15,706	948,693	533,320
-12,877	15,601	948,134	532,651
-11,863	15,579	947,263	532,070
-10,848	15,683	946,743	532,087
-9,833	15,695	946,315	531,865
-8,819	15,802	945,469	531,708
-7,804	15,667	945,065	531,030
-6,790	15,693	944,389	530,711
-5,775	15,636	944,026	530,309
-4,760	15,653	943,402	529,989
-3,746	15,663	942,513	529,500
-2,731	15,549	941,966	528,812
-1,717	15,490	941,387	528,279
-0,702	15,504	940,681	527,906
0,313	15,298	939,871	527,597
1,327	18,347	937,665	535,926
2,342	27,127	795,056	477,706
3,356	23,784	459,365	270,867
4,371	-3,160	314,194	156,637
5,386	-7,368	295,894	143,245
6,400	-9,108	289,916	138,612
7,415	-9,717	287,436	136,815
8,429	-9,676	285,828	136,078
9,444	-9,735	285,051	135,638
10,459	-9,634	284,392	135,411
11,473	-9,776	283,840	134,998
12,488	-9,591	283,190	134,856
13,502	-9,714	282,760	134,520
14,517	-9,596	282,284	134,396
15,531	-9,618	281,906	134,183
16,546	-9,603	281,478	133,981
17,561	-9,879	281,229	133,585
18,575	-9,469	280,864	133,794
19,590	-9,469	280,502	133,610
20,604	-9,573	280,310	133,406
21,619	-9,723	279,890	133,051
22,634	-9,670	279,563	132,934
23,648	-9,717	279,326	132,765
24,663	-9,688	279,081	132,664
25,677	-9,684	278,824	132,535
26,692	-9,648	278,467	132,387
27,707	-9,667	278,075	132,171
28,721	-9,691	277,949	132,077
29,736	-9,844	277,652	131,778
30,750	-9,826	277,474	131,699
31,765	-9,664	277,132	131,678
32,780	-9,676	276,814	131,504
33,794	-9,567	276,544	131,468
34,809	-9,577	276,357	131,357
35,823	-9,453	275,986	131,286
36,838	-9,873	275,886	130,831
37,853	-9,735	275,602	130,815
38,867	-9,632	275,300	130,756
39,882	-9,713	275,146	130,596
40,896	-9,800	274,989	130,427
41,911	-9,719	274,691	130,351
42,926	-9,765	274,330	130,124
43,940	-9,855	274,103	129,921
44,955	-9,807	274,083	129,944
45,969	-9,938	273,734	129,646
46,984	-10,007	273,431	129,427
47,999	-10,296	273,218	129,044
49,013	-10,258	272,865	128,901
50,028	-10,433	272,657	128,629
51,042	-10,321	272,267	128,538
52,057	-10,275	272,072	128,476
53,071	-10,467	272,051	128,277
54,086	-10,336	271,819	128,278
55,101	-10,102	271,726	128,439
56,115	-10,086	271,507	128,339
57,130	-9,674	271,287	128,605
58,144	-9,654	271,216	128,578
59,159	-9,583	270,859	128,463
60,174	-9,606	270,749	128,378
61,188	-9,659	270,473	128,187
62,203	-9,754	270,407	128,057
63,217	-9,466	269,981	128,108
64,232	-9,618	269,833	127,887
65,247	-9,737	269,541	127,628
66,261	-9,684	269,452	127,623
67,276	-9,891	269,183	127,295
68,290	-10,023	268,838	126,999
69,305	-10,015	268,576	126,871
70,320	-9,899	268,289	126,830
71,334	-9,781	268,214	126,891
72,349	-9,592	268,098	126,997
73,363	-9,622	267,840	126,837
74,378	-9,751	267,741	126,661
75,393	-9,548	267,302	126,627
76,407	-9,633	267,043	126,415
77,422	-9,754	267,037	126,291
78,436	-9,588	266,707	126,275
79,451	-9,584	266,470	126,155
80,466	-9,647	266,183	125,950
81,480	-9,597	266,003	125,900
82,495	-9,523	265,835	125,876
83,509	-9,747	265,604	125,553
84,524	-9,779	265,381	125,407
85,539	-9,816	265,194	125,275
86,553	-9,916	264,807	124,990
87,568	-9,880	264,824	125,020
88,582	-9,677	264,574	125,073
89,597	-9,865	264,467	124,842
90,611	-9,550	264,259	125,016
91,626	-9,563	264,001	124,871
92,641	-9,660	263,825	124,689
93,655	-9,547	263,571	124,660
94,670	-9,720	263,411	124,418
95,684	-9,762	263,280	124,307
96,699	-9,669	263,086	124,288
97,714	-9,732	262,952	124,158
98,728	-9,941	262,587	123,787
99,743	-9,922	262,252	123,635
100,757	-9,953	262,135	123,542
101,772	-9,859	261,970	123,536
102,787	-9,710	261,675	123,519
103,801	-9,675	261,706	123,553
104,816	-9,836	261,532	123,317
105,830	-9,643	261,367	123,401
106,845	-9,568	261,036	123,299
107,860	-9,703	260,873	123,092
108,874	-9,602	260,644	123,062
109,889	-9,728	260,576	122,907
110,903	-9,552	260,255	122,901
111,918	-9,676	260,160	122,735
112,933	-9,673	259,827	122,570
113,947	-9,560	259,706	122,601
114,962	-9,643	259,496	122,418
115,976	-9,651	259,363	122,338
116,991	-9,490	259,073	122,331
118,006	-9,676	258,859	122,056
119,020	-9,656	258,831	122,050
120,035	-9,778	258,805	121,919
121,049	-9,777	258,518	121,774
122,064	-9,541	258,281	121,858
123,079	-9,456	258,137	121,853
124,093	-9,721	257,898	121,499
125,108	-9,691	257,571	121,359
126,122	-10,083	257,448	120,949
127,137	-9,956	257,149	120,908
128,151	-9,957	257,092	120,870
129,166	-9,947	256,780	120,721
130,181	-10,028	256,689	120,597
131,195	-9,867	256,304	120,546
132,210	-9,688	256,123	120,605
133,224	-9,681	256,021	120,552
134,239	-9,680	256,016	120,540
135,254	-9,715	255,813	120,403
136,268	-9,724	255,542	120,258
137,283	-9,915	255,290	119,963
138,297	-10,008	255,054	119,761
139,312	-10,249	255,042	119,537
140,327	-9,548	254,711	119,975
141,341	-9,633	254,642	119,858
142,356	-9,675	254,565	119,776
143,370	-9,514	254,267	119,763
144,385	-9,388	254,126	119,795
145,400	-9,333	253,815	119,684
146,414	-9,438	253,773	119,563
147,429	-9,542	253,611	119,388
148,443	-9,429	253,479	119,412
149,458	-9,632	253,272	119,130
150,473	-9,283	253,082	119,328
151,487	-9,624	252,798	118,892
152,502	-9,277	252,566	119,069
153,516	-9,403	252,475	118,908
154,531	-9,413	252,475	118,888
155,546	-9,448	252,183	118,710
156,560	-9,578	251,969	118,488
157,575	-9,714	251,728	118,249
158,589	-9,547	251,450	118,250
159,604	-9,492	251,373	118,250
160,619	-9,516	251,323	118,195
161,633	-9,583	251,026	117,988
162,648	-9,233	250,778	118,157
163,662	-9,271	250,643	118,051
164,677	-9,530	250,590	117,797
165,692	-9,501	250,392	117,717
166,706	-9,495	250,296	117,667
167,721	-9,334	250,033	117,669
168,735	-9,685	250,076	117,382
169,750	-9,644	249,910	117,329
170,764	-9,315	249,431	117,370
171,779	-9,250	249,440	117,418
172,794	-9,158	249,283	117,411
173,808	-9,348	249,047	117,131
174,823	-9,850	248,706	116,538
175,837	-10,013	248,509	116,299
176,852	-9,650	248,562	116,617
177,867	-9,445	248,372	116,690
178,881	-9,405	248,323	116,689
179,896	-9,484	248,148	116,531
180,910	-9,323	247,746	116,466
181,925	-9,305	247,627	116,415
182,940	-9,306	247,539	116,362
183,954	-9,346	247,380	116,244
184,969	-9,396	247,198	116,107
185,983	-9,347	247,116	116,098
186,998	-9,511	246,783	115,795
188,013	-9,313	246,691	115,907
189,027	-9,304	246,533	115,829
190,042	-9,551	246,237	115,475
191,056	-9,374	246,181	115,585
192,071	-9,426	245,991	115,442
193,086	-9,508	245,871	115,308
194,100	-9,339	245,636	115,328
195,115	-9,187	245,493	115,376
196,129	-9,372	245,340	115,141
197,144	-9,475	244,972	114,872
198,159	-9,469	244,874	114,821
199,173	-9,565	244,761	114,679
200,188	-9,583	244,690	114,621
201,202	-9,517	244,238	114,453
202,217	-9,809	243,976	114,080
203,232	-9,948	243,726	113,839
204,246	-9,589	243,898	114,204
205,261	-9,217	243,660	114,387
206,275	-10,038	243,370	113,569
207,290	-7,010	244,624	116,635
208,304	0,176	246,752	123,585
209,319	4,048	247,907	127,361
210,334	4,144	247,956	127,454
211,348	4,482	247,728	127,604
212,363	4,744	247,571	127,729
213,377	5,020	247,404	127,859
214,392	4,775	247,307	127,595
215,407	4,549	247,159	127,321
216,421	4,540	246,973	127,207
217,436	4,814	246,837	127,351
218,450	5,096	246,661	127,480
219,465	4,702	246,531	127,078
220,480	4,564	246,234	126,800
221,494	4,291	246,082	126,487
222,509	4,303	245,919	126,402
223,523	4,224	245,714	126,220
224,538	4,031	245,536	125,960
225,553	4,005	245,275	125,794
226,567	4,159	245,193	125,866
227,582	4,322	245,135	125,958
228,596	4,399	244,953	125,916
229,611	3,873	244,692	125,342
230,626	3,664	244,593	125,110
231,640	4,119	244,234	125,285
232,655	4,315	244,259	125,446
233,669	4,182	243,999	125,193
234,684	3,977	243,889	124,959
235,699	4,269	243,883	125,182
236,713	4,377	243,767	125,199
237,728	4,265	243,332	124,874
238,742	3,789	243,302	124,462
239,757	3,829	242,997	124,327
240,772	3,983	242,881	124,381
241,786	3,970	242,795	124,316
242,801	3,841	242,611	124,106
243,815	3,952	242,429	124,091
244,830	4,043	242,330	124,103
245,844	4,190	242,192	124,140
246,859	4,025	242,020	123,908
247,874	3,899	241,961	123,765
248,888	4,094	241,754	123,805
249,903	4,285	241,530	123,833
250,917	4,242	241,527	123,786
251,932	4,264	241,513	123,785
252,947	4,266	241,080	123,554
253,961	4,075	240,843	123,268
254,976	4,080	240,824	123,252
255,990	4,127	240,702	123,215
257,005	3,904	240,411	122,878
258,020	3,774	240,243	122,677
259,034	4,027	240,123	122,807
260,049	4,127	240,077	122,852
261,063	4,072	239,740	122,625
262,078	3,974	239,616	122,472
263,093	4,340	239,417	122,651
264,107	4,371	239,332	122,621
265,122	4,066	239,272	122,337
266,136	4,044	239,127	122,234
267,151	4,349	238,934	122,367
268,166	4,077	238,728	122,035
269,180	3,876	238,502	121,749
270,195	4,431	238,603	122,229
271,209	4,782	238,498	122,442
272,224	4,144	238,129	121,738
273,239	3,841	237,852	121,347
274,253	3,693	237,776	121,180
275,268	4,153	237,688	121,487
276,282	4,176	237,504	121,400
277,297	3,766	237,465	121,046
278,312	3,934	237,262	121,065
279,326	4,004	237,235	121,095
280,341	4,206	236,909	121,076
281,355	4,322	236,626	121,012
282,370	4,134	236,673	120,878
283,384	4,002	236,601	120,726
284,399	3,951	236,249	120,496
285,414	3,844	236,132	120,343
286,428	3,831	236,149	120,330
287,443	3,793	235,983	120,205
288,457	3,924	235,866	120,237
289,472	4,278	235,768	120,453
290,487	4,067	235,431	120,105
291,501	3,999	235,278	119,963
292,516	3,609	235,165	119,592
293,530	3,741	234,968	119,583
294,545	4,051	234,995	119,827
295,560	4,041	234,734	119,677
296,574	3,943	234,451	119,445
297,589	4,161	234,279	119,516
298,603	4,090	234,314	119,468
299,618	4,109	234,228	119,429
300,633	4,146	234,056	119,359
301,647	4,085	233,982	119,263
302,662	4,255	233,946	119,365
303,676	4,465	233,523	119,302
304,691	4,330	233,401	119,124
305,706	4,677	233,313	119,336
306,720	4,477	233,285	119,157
307,735	4,528	232,878	118,978
308,749	4,176	232,773	118,643
309,764	3,905	232,684	118,379
310,779	3,835	232,561	118,251
311,793	3,961	232,213	118,161
312,808	3,799	232,109	117,973
313,822	3,643	231,951	117,762
314,837	3,977	231,818	117,940
315,852	3,797	231,616	117,689
316,866	4,004	231,465	117,760
317,881	3,853	231,427	117,615
318,895	4,029	231,238	117,643
319,910	4,511	231,242	118,003
320,925	4,277	230,976	117,678
321,939	3,988	230,857	117,387
322,954	4,266	230,695	117,505
323,968	4,076	230,451	117,226
324,983	3,863	230,283	116,968
325,997	4,297	230,321	117,307
327,012	4,412	230,154	117,299
328,027	4,203	230,064	117,084
329,041	4,558	230,035	117,329
330,056	4,924	229,919	117,536
331,070	4,891	229,807	117,444
332,085	4,662	229,537	117,122
333,100	4,247	229,295	116,674
334,114	4,010	229,206	116,439
335,129	4,493	229,054	116,716
336,143	4,556	229,069	116,761
337,158	4,674	228,733	116,669
338,173	4,369	228,530	116,325
339,187	4,392	228,382	116,257
340,202	4,059	228,381	115,994
341,216	4,211	228,057	115,934
342,231	4,178	227,991	115,865
343,246	3,845	227,911	115,564
344,260	4,163	227,727	115,699
345,275	4,541	227,663	115,940
346,289	4,629	227,509	115,918
347,304	4,817	227,230	115,906
348,319	4,586	227,235	115,725
349,333	4,371	226,989	115,428
350,348	4,228	226,712	115,170
351,362	4,259	226,699	115,177
352,377	4,069	226,498	114,922
353,392	4,171	226,214	114,845
354,406	4,105	226,201	114,778
355,421	195,708	1323,115	1401,100
356,435	156,884	1456,751	1401,112
