DTS Sentinel unit serial number:	SN410029Multiplexer serial number:	ORYXHardware model number:	OX2-SRSoftware version number:	ORYX F/W v4,00 Oryx Data Collector v3.7.2.0data status	okinstallation	B5 Nyhavnadifferential loss correction	single-endedforward channel	channel 2reverse channel	N/Adate	2023/12/12time	20:37:13forward acquisition time	300,00reverse acquisition time	0,00gamma	499,1914k internal	0,3157k external	0,3157temperature offset calibration	1,0000default loss term (dB/km)	0,3820temperature slope calibration	1,0000multiplexer offset coefficient	1,0000multiplexer slope coefficient	1,0000fibre end	0,00T internal ref (°C)	15,17T ext. ref 1 (°C)	-1,55T ext. ref 2 (°C)	-1,87length (m)	temperature (°C)	Stokes	anti-Stokes-744,400	30,101	0,103	0,065
-743,385	-134,072	-0,307	0,028
-742,371	33,555	0,177	0,113
-741,356	27,811	-0,255	0,158
-740,342	-81,259	0,128	0,031
-739,327	-88,743	-0,233	-0,051
-738,312	-200,000	-0,004	-0,026
-737,298	-132,092	-0,302	-0,029
-736,283	7,232	0,061	-0,034
-735,269	-140,718	-0,290	0,022
-734,254	-21,004	0,077	0,035
-733,239	-75,610	-0,363	-0,094
-732,225	29,172	0,075	0,047
-731,210	-200,000	-0,007	0,173
-730,196	-93,444	-0,047	-0,010
-729,181	57,391	-0,119	-0,085
-728,167	800,000	-0,024	0,075
-727,152	96,138	-0,111	-0,093
-726,137	-118,559	-0,180	-0,023
-725,123	31,229	0,040	0,025
-724,108	78,565	-0,196	-0,154
-723,094	-200,000	0,010	-0,087
-722,079	800,000	-0,063	-0,173
-721,064	-84,513	0,081	-0,019
-720,050	158,814	-0,065	0,066
-719,035	107,460	-0,093	0,082
-718,021	-39,150	-0,121	-0,047
-717,006	411,776	-0,100	-0,156
-715,991	50,429	-0,070	-0,049
-714,977	119,106	0,023	-0,021
-713,962	559,026	-0,015	-0,026
-712,948	715,305	0,010	-0,019
-711,933	-125,194	-0,063	-0,007
-710,918	800,000	-0,038	-0,081
-709,904	377,387	-0,054	-0,081
-708,889	271,670	-0,055	0,071
-707,875	800,000	-0,028	-0,063
-706,860	89,343	-0,151	-0,124
-705,845	151,739	-0,097	-0,098
-704,831	249,847	0,062	-0,077
-703,816	72,938	0,062	0,048
-702,802	-108,740	-0,081	0,013
-701,787	800,000	-0,042	-0,088
-700,772	404,880	-0,081	-0,125
-699,758	-148,524	-0,054	-0,003
-698,743	276,810	-0,052	-0,068
-697,729	257,722	0,045	0,058
-696,714	311,975	0,077	-0,106
-695,699	-200,000	-0,021	-0,097
-694,685	-91,515	-0,250	0,052
-693,670	800,000	-0,059	-0,158
-692,656	800,000	-0,031	0,064
-691,641	165,356	-0,092	-0,096
-690,627	800,000	0,010	-0,025
-689,612	63,523	0,008	-0,006
-688,597	800,000	-0,033	-0,089
-687,583	-69,641	0,042	-0,012
-686,568	398,222	-0,099	-0,153
-685,554	-200,000	0,017	-0,089
-684,539	-200,000	0,014	-0,049
-683,524	-115,322	0,150	-0,021
-682,510	113,144	-0,133	-0,119
-681,495	457,869	-0,034	-0,056
-680,481	-200,000	0,029	-0,163
-679,466	15,596	-0,110	-0,063
-678,451	-165,913	-0,195	0,006
-677,437	-200,000	0,013	0,058
-676,422	-200,000	0,011	-0,037
-675,408	70,840	0,040	-0,031
-674,393	456,289	-0,013	-0,022
-673,378	199,508	-0,062	-0,070
-672,364	544,915	-0,051	0,090
-671,349	-20,829	0,035	0,016
-670,335	-200,000	0,021	0,106
-669,320	119,003	0,030	-0,027
-668,305	14,566	0,073	0,042
-667,291	141,230	-0,111	0,108
-666,276	-200,000	-0,011	-0,047
-665,262	459,734	-0,080	-0,132
-664,247	110,988	-0,024	-0,021
-663,232	85,152	0,051	0,041
-662,218	800,000	0,022	-0,049
-661,203	-98,696	-0,054	0,010
-660,189	340,022	-0,034	-0,049
-659,174	413,628	0,027	-0,043
-658,159	173,235	-0,110	-0,117
-657,145	-11,939	0,029	-0,014
-656,130	-58,040	-0,061	-0,019
-655,116	55,481	-0,095	-0,067
-654,101	-12,470	0,120	-0,057
-653,086	800,000	0,020	-0,051
-652,072	-23,880	-0,124	0,054
-651,057	229,239	-0,096	-0,115
-650,043	40,397	-0,058	-0,038
-649,028	-8,968	-0,128	0,063
-648,014	777,424	0,056	-0,112
-646,999	-200,000	0,006	-0,125
-645,984	-200,000	-0,007	-0,034
-644,970	589,110	0,035	0,064
-643,955	-9,428	-0,104	-0,051
-642,941	800,000	-0,041	-0,126
-641,926	-200,000	-0,021	-0,129
-640,911	-200,000	0,034	-0,132
-639,897	-160,443	-0,046	-0,002
-638,882	176,036	-0,064	-0,068
-637,868	156,263	-0,121	-0,123
-636,853	300,664	-0,040	0,054
-635,838	800,000	0,010	0,027
-634,824	-200,000	0,016	0,066
-633,809	49,732	-0,034	0,023
-632,795	800,000	0,035	0,109
-631,780	-130,383	-0,059	-0,006
-630,765	800,000	-0,024	-0,054
-629,751	-144,271	-0,109	-0,007
-628,736	97,681	-0,032	-0,027
-627,722	-200,000	-0,012	0,062
-626,707	114,064	-0,031	-0,027
-625,692	29,636	0,130	-0,081
-624,678	247,590	0,050	0,062
-623,663	-200,000	0,012	0,052
-622,649	-200,000	0,000	-0,024
-621,634	191,449	0,048	-0,053
-620,619	-200,000	-0,049	-0,180
-619,605	357,645	0,064	-0,094
-618,590	365,584	0,063	-0,094
-617,576	304,796	0,075	-0,102
-616,561	246,181	-0,037	-0,046
-615,546	-200,000	-0,007	-0,051
-614,532	211,912	-0,078	-0,090
-613,517	-66,801	0,086	0,025
-612,503	357,419	0,060	-0,088
-611,488	-59,596	-0,036	-0,011
-610,474	-128,526	-0,179	-0,018
-609,459	-200,000	-0,009	0,050
-608,444	179,490	-0,110	-0,119
-607,430	183,185	-0,042	-0,045
-606,415	434,936	0,054	-0,087
-605,401	-200,000	-0,019	0,178
-604,386	-200,000	-0,048	0,164
-603,371	-200,000	0,027	0,096
-602,357	800,000	0,032	-0,066
-601,342	800,000	0,027	-0,061
-600,328	-200,000	-0,001	-0,071
-599,313	113,277	0,122	0,108
-598,298	-200,000	-0,003	-0,046
-597,284	287,691	0,100	-0,133
-596,269	-200,000	-0,004	0,015
-595,255	-85,955	-0,156	0,035
-594,240	800,000	0,070	0,147
-593,225	198,434	-0,045	0,050
-592,211	255,729	0,089	-0,112
-591,196	87,478	0,145	-0,118
-590,182	800,000	0,022	0,051
-589,167	75,510	0,088	-0,068
-588,152	-21,107	0,057	-0,026
-587,138	-200,000	-0,008	-0,094
-586,123	-27,025	0,093	-0,040
-585,109	-182,429	-0,178	0,002
-584,094	-122,209	0,061	-0,007
-583,079	800,000	-0,004	0,010
-582,065	129,907	0,063	0,060
-581,050	501,465	-0,030	0,051
-580,036	458,154	-0,073	-0,119
-579,021	154,559	0,078	-0,079
-578,006	635,511	-0,033	0,061
-576,992	-48,184	0,103	-0,036
-575,977	-83,199	-0,047	-0,011
-574,963	-200,000	0,004	0,015
-573,948	800,000	0,040	0,125
-572,934	-59,656	-0,059	-0,018
-571,919	-20,007	-0,095	0,043
-570,904	-70,108	-0,126	0,035
-569,890	-104,630	-0,153	0,026
-568,875	800,000	-0,064	0,144
-567,861	362,372	-0,037	-0,054
-566,846	-200,000	0,004	0,020
-565,831	287,321	-0,047	0,062
-564,817	66,880	0,138	-0,103
-563,802	-146,626	-0,122	-0,008
-562,788	-6,902	0,086	-0,043
-561,773	83,115	-0,084	-0,067
-560,758	-105,738	0,033	0,005
-559,744	-24,596	-0,031	-0,013
-558,729	55,880	0,068	0,049
-557,715	58,506	0,113	0,081
-556,700	-200,000	-0,049	-0,181
-555,685	-200,000	-0,005	0,054
-554,671	-200,000	0,042	0,181
-553,656	13,627	-0,032	-0,018
-552,642	67,060	-0,045	0,033
-551,627	15,324	-0,059	-0,034
-550,612	8,227	-0,101	0,055
-549,598	800,000	-0,027	0,075
-548,583	254,069	-0,049	0,061
-547,569	20,428	0,033	-0,019
-546,554	-200,000	0,000	0,024
-545,539	80,235	0,148	0,117
-544,525	-200,000	0,008	-0,069
-543,510	194,461	0,019	-0,021
-542,496	-7,132	0,077	-0,038
-541,481	56,893	-0,125	-0,089
-540,466	62,228	0,066	0,048
-539,452	800,000	0,063	0,142
-538,437	410,265	-0,036	0,056
-537,423	-57,169	-0,148	-0,047
-536,408	203,716	-0,013	0,015
-535,393	-136,781	0,134	0,011
-534,379	-84,392	-0,018	0,004
-533,364	114,840	0,012	0,010
-532,350	-200,000	-0,002	-0,031
-531,335	211,852	0,018	-0,021
-530,321	-200,000	-0,001	-0,083
-529,306	-24,432	0,032	-0,014
-528,291	304,111	-0,066	0,090
-527,277	-23,386	0,102	-0,045
-526,262	-113,961	-0,136	-0,019
-525,248	-200,000	-0,005	0,090
-524,233	32,655	0,102	0,065
-523,218	-105,938	0,108	-0,018
-522,204	-65,826	0,011	-0,003
-521,189	-200,000	-0,010	-0,061
-520,175	-3,518	0,058	-0,030
-519,160	75,896	-0,079	0,061
-518,145	-5,147	0,219	-0,110
-517,131	638,588	-0,015	0,028
-516,116	-2,597	0,104	0,053
-515,102	188,189	-0,102	0,112
-514,087	-33,426	-0,022	-0,009
-513,072	-23,917	-0,089	-0,039
-512,058	107,587	-0,165	0,143
-511,043	800,000	0,012	-0,026
-510,029	499,128	0,077	0,130
-509,014	-200,000	0,013	-0,152
-507,999	47,101	0,040	0,027
-506,985	14,405	-0,061	0,035
-505,970	-200,000	-0,003	-0,028
-504,956	-200,000	-0,006	0,090
-503,941	35,204	0,101	-0,065
-502,926	-82,281	0,040	-0,009
-501,912	416,749	0,025	0,039
-500,897	94,383	-0,127	0,105
-499,883	-200,000	-0,002	-0,066
-498,868	800,000	-0,034	0,097
-497,853	-65,556	-0,059	-0,017
-496,839	-49,716	-0,093	-0,032
-495,824	-200,000	0,013	0,061
-494,810	-200,000	-0,042	0,207
-493,795	-200,000	0,030	0,195
-492,781	-200,000	-0,033	-0,109
-491,766	-200,000	0,003	0,019
-490,751	49,108	0,027	-0,018
-489,737	-183,266	-0,106	-0,001
-488,722	250,158	0,101	0,126
-487,708	-114,059	0,043	0,006
-486,693	-7,460	0,056	-0,028
-485,678	369,238	-0,090	-0,134
-484,664	-147,641	-0,036	0,002
-483,649	217,888	-0,112	0,130
-482,635	-200,000	-0,016	-0,066
-481,620	800,000	-0,034	0,069
-480,605	-55,867	-0,027	-0,009
-479,591	-54,979	0,081	-0,026
-478,576	49,090	0,091	0,062
-477,562	-129,738	-0,087	-0,009
-476,547	-146,208	0,057	0,004
-475,532	599,470	-0,089	-0,162
-474,518	-141,368	-0,070	0,005
-473,503	-91,519	-0,006	0,001
-472,489	469,520	-0,045	0,074
-471,474	-109,274	0,113	0,017
-470,459	-200,000	0,014	0,106
-469,445	800,000	-0,018	-0,042
-468,430	-200,000	0,002	-0,057
-467,416	-176,513	0,075	0,001
-466,401	731,920	0,067	0,131
-465,386	-200,000	0,001	0,089
-464,372	-87,596	-0,070	-0,015
-463,357	800,000	-0,033	-0,076
-462,343	184,796	0,100	0,108
-461,328	-200,000	0,013	-0,062
-460,313	-200,000	0,034	-0,111
-459,299	-80,270	0,081	-0,020
-458,284	-200,000	-0,005	-0,101
-457,270	119,982	-0,042	0,038
-456,255	-200,000	-0,006	-0,025
-455,241	304,280	-0,037	-0,050
-454,226	-50,950	-0,045	-0,015
-453,211	-200,000	-0,018	0,092
-452,197	83,924	0,113	0,090
-451,182	800,000	0,024	0,074
-450,168	287,479	0,063	0,083
-449,153	112,836	-0,078	0,069
-448,138	528,574	-0,098	-0,170
-447,124	800,000	-0,025	-0,053
-446,109	4,087	0,066	0,035
-445,095	800,000	0,052	0,141
-444,080	614,474	0,025	0,045
-443,065	800,000	-0,015	0,046
-442,051	800,000	-0,039	0,083
-441,036	-15,919	0,018	0,008
-440,022	64,819	0,064	-0,047
-439,007	224,258	0,034	-0,040
-437,992	344,248	0,023	0,033
-436,978	-63,687	0,044	0,013
-435,963	-6,172	0,109	0,054
-434,949	-11,373	-0,124	-0,059
-433,934	-98,708	-0,111	0,020
-432,919	55,582	0,151	0,106
-431,905	-200,000	-0,002	0,057
-430,890	800,000	0,008	-0,022
-429,876	800,000	0,026	0,062
-428,861	-200,000	0,005	0,089
-427,846	-20,278	-0,027	0,012
-426,832	800,000	0,031	0,066
-425,817	240,738	-0,055	-0,066
-424,803	-127,858	-0,086	0,009
-423,788	84,367	0,085	-0,068
-422,773	415,933	0,028	0,044
-421,759	-200,000	0,014	-0,087
-420,744	352,733	0,014	0,020
-419,730	-200,000	-0,013	0,048
-418,715	-69,996	-0,104	-0,029
-417,701	37,122	-0,067	0,043
-416,686	80,684	-0,014	0,011
-415,671	683,978	-0,015	0,028
-414,657	300,250	0,020	0,027
-413,642	50,852	0,141	-0,097
-412,628	345,675	-0,056	-0,080
-411,613	138,030	0,054	0,051
-410,598	-200,000	0,017	0,125
-409,584	-10,998	-0,043	0,021
-408,569	170,788	-0,084	0,088
-407,555	172,143	0,076	0,080
-406,540	133,440	-0,074	-0,070
-405,525	687,941	-0,006	-0,012
-404,511	39,895	-0,066	-0,043
-403,496	19,510	-0,056	0,033
-402,482	273,724	-0,116	0,150
-401,467	271,989	0,047	0,060
-400,452	284,245	0,034	0,044
-399,438	473,528	0,090	0,148
-398,423	-27,240	-0,009	-0,004
-397,409	800,000	0,052	0,159
-396,394	-121,472	-0,156	-0,019
-395,379	372,103	0,031	0,046
-394,365	-200,000	-0,056	0,223
-393,350	59,076	-0,056	-0,040
-392,336	-136,529	0,094	0,008
-391,321	6,116	0,058	-0,031
-390,306	-200,000	0,008	0,038
-389,292	-17,590	0,051	0,023
-388,277	58,233	-0,029	0,021
-387,263	-81,933	-0,024	-0,006
-386,248	-200,000	0,028	0,126
-385,233	-200,000	0,003	0,025
-384,219	55,193	-0,069	0,049
-383,204	99,010	0,039	-0,032
-382,190	-78,248	0,082	0,020
-381,175	-134,657	-0,116	-0,010
-380,160	-200,000	-0,021	-0,073
-379,146	27,441	0,037	0,022
-378,131	-109,221	0,050	-0,008
-377,117	-59,470	0,081	0,025
-376,102	800,000	0,021	0,059
-375,088	344,298	0,088	0,126
-374,073	800,000	-0,028	-0,084
-373,058	800,000	0,009	0,019
-372,044	37,402	0,021	-0,013
-371,029	-200,000	-0,002	0,009
-370,015	-75,571	0,037	-0,010
-369,000	63,213	-0,017	0,012
-367,985	112,734	0,031	0,027
-366,971	-200,000	-0,022	0,110
-365,956	-200,000	-0,010	-0,070
-364,942	735,715	-0,067	-0,130
-363,927	-118,164	-0,061	0,008
-362,912	-200,000	-0,000	-0,093
-361,898	548,051	-0,066	-0,115
-360,883	59,611	0,041	0,030
-359,869	-200,000	0,022	0,112
-358,854	-200,000	-0,021	-0,120
-357,839	80,133	0,079	-0,061
-356,825	-33,011	-0,023	0,009
-355,810	194,520	-0,052	-0,057
-354,796	800,000	0,024	-0,076
-353,781	156,492	0,098	-0,099
-352,766	163,182	-0,069	-0,071
-351,752	-27,811	0,008	-0,003
-350,737	-200,000	-0,003	0,065
-349,723	-200,000	-0,012	0,136
-348,708	-109,115	-0,034	-0,005
-347,693	-116,488	-0,039	-0,005
-346,679	-5,131	0,176	0,087
-345,664	-200,000	0,002	-0,012
-344,650	128,237	-0,052	-0,048
-343,635	407,655	-0,030	0,047
-342,620	-200,000	-0,013	0,070
-341,606	25,023	-0,039	-0,023
-340,591	167,587	-0,005	0,005
-339,577	223,485	-0,117	0,137
-338,562	-170,470	-0,094	-0,002
-337,548	-200,000	0,021	0,085
-336,533	800,000	-0,089	0,226
-335,518	426,567	0,065	-0,101
-334,504	72,701	-0,024	0,018
-333,489	-187,998	0,146	-0,001
-332,475	95,724	-0,076	0,063
-331,460	292,393	0,023	0,031
-330,445	800,000	0,008	-0,025
-329,431	99,079	0,125	0,105
-328,416	-74,426	0,127	-0,033
-327,402	301,075	0,074	-0,100
-326,387	-144,655	0,129	-0,008
-325,372	800,000	-0,047	-0,112
-324,358	-200,000	0,025	-0,092
-323,343	-200,000	0,046	-0,150
-322,329	-34,181	0,051	0,020
-321,314	800,000	0,012	-0,033
-320,299	654,380	0,032	0,060
-319,285	800,000	-0,079	0,195
-318,270	-200,000	0,012	-0,102
-317,256	-200,000	-0,025	-0,170
-316,241	-109,488	-0,095	0,014
-315,226	242,725	0,101	0,123
-314,212	800,000	-0,013	-0,036
-313,197	-40,488	0,046	-0,017
-312,183	800,000	-0,060	-0,157
-311,168	27,065	-0,181	0,110
-310,153	800,000	0,036	0,088
-309,139	800,000	-0,021	0,053
-308,124	74,232	0,044	-0,033
-307,110	71,348	0,023	-0,018
-306,095	66,304	-0,071	-0,052
-305,080	83,233	0,039	-0,031
-304,066	-38,577	0,050	-0,019
-303,051	121,859	-0,067	-0,061
-302,037	-200,000	-0,018	-0,081
-301,022	-118,954	0,068	0,008
-300,008	-200,000	-0,002	-0,047
-298,993	135,983	0,023	0,021
-297,978	-47,644	-0,060	0,021
-296,964	66,137	-0,049	-0,036
-295,949	373,356	-0,070	-0,104
-294,935	77,221	0,065	-0,050
-293,920	800,000	-0,008	0,020
-292,905	-73,359	0,120	0,031
-291,891	-108,368	0,210	0,033
-290,876	431,433	0,091	-0,144
-289,862	-70,766	0,068	-0,019
-288,847	-200,000	-0,006	0,089
-287,832	-11,687	-0,086	-0,041
-286,818	534,194	0,033	-0,057
-285,803	691,908	-0,009	-0,018
-284,789	490,011	0,030	0,050
-283,774	-200,000	-0,024	0,084
-282,759	800,000	-0,050	0,111
-281,745	-28,699	0,082	-0,034
-280,730	24,349	-0,116	-0,069
-279,716	-200,000	-0,001	-0,031
-278,701	75,613	-0,058	-0,044
-277,686	325,380	0,044	-0,061
-276,672	-200,000	0,024	0,120
-275,657	125,495	-0,069	-0,063
-274,643	-57,093	-0,128	-0,041
-273,628	190,055	-0,086	-0,093
-272,613	516,553	0,018	-0,031
-271,599	28,965	0,132	0,081
-270,584	-29,187	0,076	-0,031
-269,570	800,000	0,029	-0,077
-268,555	-108,068	-0,042	0,007
-267,540	-200,000	-0,039	0,171
-266,526	-101,408	0,024	-0,004
-265,511	-0,744	0,010	-0,005
-264,497	-39,506	-0,051	0,019
-263,482	-200,000	-0,001	0,109
-262,467	390,802	-0,036	0,055
-261,453	800,000	-0,053	-0,109
-260,438	-139,364	-0,105	0,008
-259,424	33,394	-0,151	-0,095
-258,409	-94,162	0,077	0,015
-257,395	-200,000	0,016	-0,106
-256,380	713,923	-0,032	-0,062
-255,365	-200,000	-0,006	0,045
-254,351	416,306	-0,035	-0,054
-253,336	-34,081	-0,056	-0,022
-252,322	800,000	0,025	-0,074
-251,307	72,955	0,040	0,030
-250,292	800,000	0,034	-0,088
-249,278	208,723	-0,094	0,107
-248,263	84,200	-0,064	-0,051
-247,249	-69,469	0,077	-0,021
-246,234	800,000	-0,017	-0,035
-245,219	-200,000	-0,026	0,133
-244,205	282,612	0,080	0,104
-243,190	-23,094	0,129	0,056
-242,176	347,919	-0,029	0,041
-241,161	800,000	0,011	-0,030
-240,146	178,851	-0,019	0,020
-239,132	-127,911	0,085	-0,009
-238,117	59,550	0,094	-0,067
-237,103	529,942	0,053	-0,091
-236,088	800,000	-0,020	0,049
-235,073	-200,000	0,010	-0,096
-234,059	-3,981	0,106	0,053
-233,044	-8,113	-0,044	0,022
-232,030	-183,132	0,171	0,002
-231,015	103,335	-0,028	0,024
-230,000	-98,749	-0,064	0,012
-228,986	101,144	0,034	0,028
-227,971	-200,000	0,006	0,032
-226,957	-200,000	-0,039	0,154
-225,942	612,576	0,042	-0,076
-224,927	-45,554	0,029	0,010
-223,913	496,536	0,017	0,028
-222,898	-200,000	-0,021	-0,108
-221,884	-200,000	0,006	0,037
-220,869	-200,000	-0,001	-0,077
-219,855	689,553	-0,038	-0,071
-218,840	-159,392	0,023	0,001
-217,825	105,982	0,067	0,058
-216,811	-200,000	0,014	-0,064
-215,796	-200,000	-0,017	-0,130
-214,782	800,000	0,025	0,067
-213,767	-5,512	-0,055	0,027
-212,752	228,624	-0,038	-0,045
-211,738	800,000	-0,044	0,099
-210,723	652,403	0,028	-0,052
-209,709	553,975	-0,088	-0,154
-208,694	-200,000	-0,003	-0,178
-207,679	97,444	-0,147	-0,122
-206,665	-89,399	0,060	-0,013
-205,650	319,427	0,052	-0,072
-204,636	800,000	0,029	0,067
-203,621	87,507	0,076	0,061
-202,606	-200,000	0,027	0,093
-201,592	-200,000	-0,019	-0,081
-200,577	189,294	-0,049	0,053
-199,563	800,000	0,004	-0,011
-198,548	218,953	0,043	-0,049
-197,533	-58,802	-0,047	0,014
-196,519	-138,385	-0,053	-0,004
-195,504	129,509	-0,065	0,060
-194,490	637,995	0,045	-0,083
-193,475	-200,000	0,022	-0,095
-192,460	-200,000	0,004	-0,080
-191,446	-200,000	-0,000	-0,112
-190,431	-200,000	0,001	-0,026
-189,417	758,060	-0,018	-0,035
-188,402	18,065	-0,112	0,064
-187,387	-200,000	-0,016	-0,104
-186,373	-131,634	-0,098	-0,009
-185,358	800,000	0,050	0,100
-184,344	139,750	0,118	0,112
-183,329	293,956	0,050	-0,066
-182,315	339,986	0,011	0,015
-181,300	-200,000	0,006	-0,083
-180,285	-200,000	-0,036	-0,118
-179,271	-106,045	-0,044	-0,007
-178,256	-63,723	-0,020	-0,006
-177,242	11,032	0,110	0,060
-176,227	-40,533	-0,088	-0,033
-175,212	125,288	0,114	0,104
-174,198	-200,000	0,017	-0,080
-173,183	-200,000	0,005	-0,043
-172,169	-200,000	-0,013	-0,102
-171,154	-200,000	-0,009	-0,129
-170,139	42,749	-0,051	0,033
-169,125	343,008	-0,040	0,057
-168,110	-200,000	0,017	0,117
-167,096	0,324	-0,123	0,063
-166,081	-59,318	0,156	-0,048
-165,066	148,549	-0,055	0,053
-164,052	650,157	0,025	-0,047
-163,037	-200,000	0,001	0,057
-162,023	-70,249	0,041	0,011
-161,008	-35,778	0,045	0,018
-159,993	-1,276	-0,109	0,055
-158,979	178,122	-0,035	0,037
-157,964	-78,391	0,134	-0,033
-156,950	34,580	-0,102	-0,064
-155,935	-200,000	-0,002	0,065
-154,920	53,536	0,040	-0,028
-153,906	-84,011	-0,108	0,025
-152,891	227,219	0,130	-0,153
-151,877	800,000	-0,068	-0,181
-150,862	92,532	-0,038	-0,031
-149,847	72,196	-0,065	0,049
-148,833	-200,000	0,004	-0,026
-147,818	192,420	0,079	-0,086
-146,804	295,518	-0,067	-0,088
-145,789	-68,416	-0,140	-0,039
-144,775	-200,000	-0,013	-0,090
-143,760	-200,000	0,010	-0,092
-142,745	-127,463	-0,130	-0,013
-141,731	434,489	-0,057	0,089
-140,716	800,000	0,061	0,161
-139,702	-76,956	0,059	-0,015
-138,687	-54,554	-0,099	0,032
-137,672	800,000	0,044	0,119
-136,658	26,627	0,025	-0,015
-135,643	-68,702	0,091	0,025
-134,629	551,857	0,050	-0,086
-133,614	-3,320	0,092	0,046
-132,599	-50,274	-0,169	-0,057
-131,585	80,695	0,193	-0,150
-130,570	800,000	-0,045	0,133
-129,556	-200,000	-0,017	-0,107
-128,541	-41,985	-0,239	-0,088
-127,526	157,804	-0,017	-0,017
-126,512	218,218	-0,040	0,046
-125,497	-162,433	-0,143	0,005
-124,483	-130,639	0,034	0,003
-123,468	-200,000	-0,016	0,101
-122,453	60,393	-0,051	0,036
-121,439	-200,000	0,000	0,023
-120,424	-16,623	0,102	0,046
-119,410	112,490	0,064	0,056
-118,395	-200,000	0,048	0,242
-117,380	-200,000	-0,001	-0,010
-116,366	800,000	-0,015	-0,039
-115,351	-200,000	0,000	-0,093
-114,337	-200,000	0,001	0,024
-113,322	-200,000	-0,019	-0,238
-112,307	800,000	-0,003	0,008
-111,293	-119,869	-0,105	0,013
-110,278	-54,607	0,096	0,031
-109,264	-36,069	-0,034	0,013
-108,249	115,921	-0,103	-0,091
-107,234	800,000	-0,015	0,039
-106,220	800,000	-0,123	0,261
-105,205	-200,000	0,008	0,089
-104,191	183,481	0,047	-0,050
-103,176	152,435	-0,096	0,094
-102,162	80,790	-0,062	-0,048
-101,147	-200,000	-0,019	0,076
-100,132	-200,000	-0,015	0,091
-99,118	2,370	-0,111	-0,058
-98,103	-200,000	0,017	-0,099
-97,089	70,365	0,082	0,061
-96,074	-200,000	0,014	0,047
-95,059	-200,000	0,004	0,042
-94,045	21,377	-0,095	0,055
-93,030	800,000	-0,016	-0,050
-92,016	16,239	0,050	0,028
-91,001	-200,000	0,003	0,048
-89,986	-69,334	-0,092	0,025
-88,972	-200,000	0,035	0,120
-87,957	-200,000	0,018	-0,106
-86,943	-200,000	0,017	-0,112
-85,928	308,615	-0,016	-0,021
-84,913	-200,000	-0,008	-0,083
-83,899	-3,909	-0,190	-0,094
-82,884	53,898	0,120	0,083
-81,870	800,000	-0,090	0,250
-80,855	142,354	-0,088	-0,084
-79,840	22,861	-0,096	-0,056
-78,826	800,000	-0,035	-0,073
-77,811	759,660	-0,017	-0,034
-76,797	-200,000	0,005	-0,036
-75,782	577,366	-0,040	0,070
-74,767	291,179	0,028	-0,037
-73,753	-48,746	-0,031	-0,011
-72,738	-150,972	0,044	-0,002
-71,724	12,205	-0,040	-0,022
-70,709	-200,000	-0,008	-0,099
-69,694	83,484	0,070	-0,055
-68,680	800,000	0,034	-0,077
-67,665	188,537	0,142	0,153
-66,651	-28,748	0,046	0,019
-65,636	-153,260	0,096	0,005
-64,622	371,177	0,014	-0,020
-63,607	-200,000	-0,014	0,239
-62,592	-200,000	-0,012	0,088
-61,578	-18,241	0,019	-0,009
-60,563	-200,000	-0,002	-0,025
-59,549	112,024	-0,016	0,014
-58,534	18,757	-1,923	-1,102
-57,519	800,000	-0,364	-0,922
-56,505	-200,000	-1,329	-4,981
-55,490	-5,394	0,885	0,435
-54,476	800,000	5,236	12,189
-53,461	-200,000	17,831	286,375
-52,446	800,000	728,914	2222,904
-51,432	535,852	1644,762	2811,957
-50,417	109,953	1634,733	1407,406
-49,403	75,947	1286,778	975,741
-48,388	32,000	1027,606	634,167
-47,373	20,110	989,543	571,465
-46,359	18,425	977,036	558,696
-45,344	15,548	973,069	546,993
-44,330	15,777	971,573	546,880
-43,315	15,254	969,848	544,177
-42,300	15,207	968,755	543,390
-41,286	15,175	967,765	542,710
-40,271	15,170	966,791	542,125
-39,257	15,172	965,865	541,592
-38,242	15,222	964,753	541,109
-37,227	15,225	964,086	540,723
-36,213	15,228	962,909	540,051
-35,198	15,162	962,302	539,476
-34,184	15,211	961,868	539,369
-33,169	15,165	960,786	538,594
-32,154	15,255	959,867	538,346
-31,140	15,185	958,936	537,578
-30,125	15,193	958,197	537,168
-29,111	15,231	957,254	536,740
-28,096	15,214	956,842	536,431
-27,082	15,261	956,016	536,100
-26,067	15,239	955,099	535,493
-25,052	15,178	954,429	534,902
-24,038	15,192	953,928	534,644
-23,023	15,206	953,171	534,242
-22,009	15,200	952,615	533,890
-20,994	15,180	952,048	533,486
-19,979	15,269	951,120	533,230
-18,965	15,192	950,696	532,725
-17,950	15,192	949,937	532,280
-16,936	15,102	949,429	531,688
-15,921	15,163	948,755	531,483
-14,906	15,019	948,090	530,628
-13,892	15,124	947,140	530,410
-12,877	15,104	946,737	530,099
-11,863	15,123	945,975	529,713
-10,848	15,094	945,492	529,330
-9,833	15,218	944,922	529,384
-8,819	15,207	944,294	528,976
-7,804	15,117	943,816	528,401
-6,790	15,094	943,333	528,037
-5,775	15,159	942,582	527,800
-4,760	15,139	941,931	527,352
-3,746	15,157	941,344	527,060
-2,731	15,033	940,628	526,248
-1,717	14,997	940,036	525,780
-0,702	14,977	939,459	525,374
0,313	14,715	938,754	524,943
1,327	18,145	936,456	534,414
2,342	27,243	793,396	476,853
3,356	24,001	458,082	270,349
4,371	-3,651	314,118	156,019
5,386	-7,739	295,932	142,839
6,400	-9,996	289,741	137,600
7,415	-10,193	287,363	136,265
8,429	-10,261	285,878	135,482
9,444	-10,677	285,133	134,711
10,459	-10,409	284,426	134,626
11,473	-10,273	283,690	134,398
12,488	-10,443	283,240	134,008
13,502	-10,308	282,651	133,848
14,517	-10,359	282,451	133,691
15,531	-10,227	281,870	133,532
16,546	-10,186	281,436	133,354
17,561	-10,149	281,182	133,257
18,575	-10,003	280,685	133,150
19,590	-10,210	280,422	132,815
20,604	-10,192	280,173	132,703
21,619	-10,415	279,911	132,353
22,634	-10,150	279,399	132,352
23,648	-10,345	279,100	132,013
24,663	-10,291	278,851	131,934
25,677	-10,321	278,751	131,847
26,692	-10,329	278,459	131,690
27,707	-10,300	278,105	131,538
28,721	-10,348	277,986	131,425
29,736	-10,298	277,526	131,242
30,750	-10,252	277,177	131,110
31,765	-10,320	276,991	130,945
32,780	-10,262	276,786	130,892
33,794	-10,196	276,526	130,820
34,809	-10,249	276,266	130,634
35,823	-10,263	276,120	130,541
36,838	-10,377	275,792	130,267
37,853	-10,264	275,447	130,198
38,867	-10,207	275,236	130,141
39,882	-10,275	275,167	130,033
40,896	-10,191	274,692	129,875
41,911	-10,329	274,391	129,592
42,926	-10,314	274,360	129,580
43,940	-10,316	274,131	129,458
44,955	-10,263	273,772	129,327
45,969	-10,313	273,621	129,197
46,984	-10,427	273,266	128,912
47,999	-10,577	272,928	128,601
49,013	-10,766	272,669	128,292
50,028	-10,745	272,372	128,160
51,042	-10,984	272,367	127,925
52,057	-11,064	272,158	127,741
53,071	-11,001	271,768	127,604
54,086	-10,878	271,726	127,687
55,101	-10,760	271,551	127,703
56,115	-10,598	271,426	127,783
57,130	-10,412	271,257	127,864
58,144	-10,183	270,942	127,916
59,159	-10,232	270,642	127,718
60,174	-10,089	270,409	127,727
61,188	-10,206	270,289	127,552
62,203	-10,397	270,051	127,253
63,217	-10,387	269,863	127,161
64,232	-10,139	269,580	127,244
65,247	-10,205	269,411	127,092
66,261	-10,113	269,117	127,028
67,276	-10,266	268,832	126,741
68,290	-10,479	268,641	126,445
69,305	-10,606	268,393	126,202
70,320	-10,487	268,324	126,266
71,334	-10,430	268,041	126,174
72,349	-10,184	267,815	126,280
73,363	-10,122	267,640	126,243
74,378	-10,187	267,274	126,000
75,393	-10,205	267,281	125,976
76,407	-10,126	267,007	125,908
77,422	-10,097	266,858	125,852
78,436	-10,161	266,492	125,610
79,451	-10,131	266,235	125,505
80,466	-10,352	266,278	125,314
81,480	-10,218	265,700	125,152
82,495	-10,366	265,553	124,938
83,509	-10,394	265,442	124,849
84,524	-10,366	265,254	124,774
85,539	-10,429	265,095	124,632
86,553	-10,356	264,820	124,557
87,568	-10,493	264,561	124,301
88,582	-10,260	264,439	124,442
89,597	-10,453	264,182	124,137
90,611	-10,298	263,879	124,123
91,626	-10,138	263,866	124,249
92,641	-10,079	263,555	124,144
93,655	-10,139	263,461	124,035
94,670	-10,333	263,282	123,766
95,684	-10,309	263,149	123,714
96,699	-10,284	262,859	123,589
97,714	-10,422	262,677	123,370
98,728	-10,483	262,418	123,183
99,743	-10,402	262,354	123,213
100,757	-10,399	261,866	122,976
101,772	-10,352	261,750	122,952
102,787	-10,220	261,542	122,961
103,801	-10,282	261,373	122,815
104,816	-10,194	261,302	122,850
105,830	-9,958	261,093	122,950
106,845	-10,270	260,978	122,608
107,860	-10,329	260,661	122,396
108,874	-10,219	260,480	122,397
109,889	-10,353	260,328	122,197
110,903	-10,293	259,969	122,070
111,918	-10,331	259,969	122,025
112,933	-10,365	259,617	121,819
113,947	-10,241	259,524	121,874
114,962	-10,187	259,424	121,864
115,976	-10,390	259,243	121,589
116,991	-10,109	258,868	121,649
118,006	-10,100	258,769	121,599
119,020	-10,335	258,602	121,305
120,035	-10,050	258,503	121,497
121,049	-10,364	258,411	121,168
122,064	-10,246	258,048	121,090
123,079	-10,099	257,791	121,087
124,093	-10,114	257,499	120,926
125,108	-10,397	257,539	120,687
126,122	-10,537	257,179	120,386
127,137	-10,528	256,964	120,282
128,151	-10,396	256,779	120,300
129,166	-10,346	256,717	120,303
130,181	-10,222	256,352	120,230
131,195	-10,590	256,197	119,826
132,210	-10,440	256,104	119,902
133,224	-10,313	255,850	119,883
134,239	-10,259	255,631	119,816
135,254	-10,185	255,490	119,803
136,268	-10,462	255,487	119,552
137,283	-10,330	254,976	119,415
138,297	-10,731	254,958	119,051
139,312	-10,695	254,559	118,884
140,327	-10,254	254,422	119,190
141,341	-10,002	254,338	119,357
142,356	-10,163	254,101	119,096
143,370	-10,095	254,128	119,157
144,385	-10,129	254,027	119,069
145,400	-10,245	253,759	118,835
146,414	-10,209	253,635	118,796
147,429	-10,233	253,397	118,654
148,443	-10,005	253,158	118,726
149,458	-10,043	252,980	118,600
150,473	-10,148	252,823	118,426
151,487	-10,276	252,502	118,156
152,502	-10,027	252,443	118,330
153,516	-9,880	252,146	118,305
154,531	-9,980	252,096	118,186
155,546	-9,985	251,898	118,079
156,560	-9,887	251,724	118,070
157,575	-10,152	251,374	117,670
158,589	-9,931	251,277	117,802
159,604	-10,090	251,183	117,612
160,619	-10,021	250,877	117,517
161,633	-10,207	250,755	117,292
162,648	-10,054	250,561	117,321
163,662	-9,875	250,498	117,431
164,677	-9,999	250,288	117,218
165,692	-10,036	250,171	117,122
166,706	-10,209	250,037	116,902
167,721	-10,035	249,940	116,993
168,735	-10,132	249,590	116,737
169,750	-9,887	249,449	116,867
170,764	-10,048	249,380	116,689
171,779	-9,940	249,142	116,658
172,794	-9,771	248,944	116,697
173,808	-10,006	248,721	116,384
174,823	-10,531	248,525	115,843
175,837	-10,461	248,283	115,778
176,852	-10,255	248,116	115,862
177,867	-10,154	248,195	115,973
178,881	-9,824	247,891	116,096
179,896	-9,773	247,661	116,021
180,910	-10,006	247,561	115,770
181,925	-9,956	247,521	115,783
182,940	-9,881	247,238	115,702
183,954	-10,017	247,018	115,475
184,969	-10,134	247,115	115,413
185,983	-9,730	246,789	115,587
186,998	-10,024	246,574	115,231
188,013	-9,960	246,381	115,184
189,027	-9,812	246,178	115,201
190,042	-9,984	246,070	114,998
191,056	-9,975	245,896	114,914
192,071	-10,101	245,691	114,703
193,086	-10,345	245,582	114,441
194,100	-9,997	245,340	114,605
195,115	-9,995	245,154	114,509
196,129	-10,015	244,972	114,398
197,144	-10,101	244,786	114,231
198,159	-10,032	244,601	114,190
199,173	-9,840	244,343	114,217
200,188	-10,021	244,259	114,019
201,202	-10,421	244,063	113,590
202,217	-10,283	243,796	113,568
203,232	-10,562	243,623	113,249
204,246	-9,967	243,422	113,633
205,261	-10,001	243,345	113,559
206,275	-11,037	242,829	112,461
207,290	-7,490	244,445	116,115
208,304	0,514	246,925	123,908
209,319	3,961	247,818	127,199
210,334	4,384	247,868	127,563
211,348	4,471	247,784	127,580
212,363	4,995	247,661	127,938
213,377	5,172	247,518	127,999
214,392	4,759	247,432	127,603
215,407	4,778	247,051	127,410
216,421	4,773	246,892	127,313
217,436	4,951	246,933	127,469
218,450	4,992	246,835	127,441
219,465	4,878	246,360	127,091
220,480	4,600	246,219	126,779
221,494	4,588	246,075	126,684
222,509	4,475	246,024	126,553
223,523	4,342	245,698	126,266
224,538	4,161	245,455	125,982
225,553	3,964	245,423	125,792
226,567	4,242	245,258	125,924
227,582	4,125	245,159	125,766
228,596	4,546	244,885	125,958
229,611	4,216	244,754	125,610
230,626	4,092	244,421	125,327
231,640	4,180	244,491	125,424
232,655	4,222	244,335	125,366
233,669	4,098	243,985	125,075
234,684	3,966	243,841	124,883
235,699	4,307	243,917	125,188
236,713	4,515	243,656	125,211
237,728	4,192	243,416	124,815
238,742	3,878	243,260	124,469
239,757	4,069	242,986	124,473
240,772	4,220	242,806	124,492
241,786	4,169	242,814	124,444
242,801	4,374	242,441	124,406
243,815	4,067	242,428	124,141
244,830	4,215	242,356	124,213
245,844	4,295	242,089	124,129
246,859	4,324	241,898	124,043
247,874	3,980	241,767	123,689
248,888	4,309	241,580	123,846
249,903	4,280	241,553	123,798
250,917	4,412	241,617	123,925
251,932	4,494	241,260	123,797
252,947	4,471	241,164	123,718
253,961	4,267	240,857	123,386
254,976	4,204	240,886	123,340
255,990	4,372	240,670	123,353
257,005	4,021	240,479	122,964
258,020	4,000	240,312	122,850
259,034	4,067	240,014	122,741
260,049	4,212	240,112	122,895
261,063	4,044	239,696	122,538
262,078	4,042	239,664	122,508
263,093	4,399	239,684	122,793
264,107	4,355	239,441	122,621
265,122	4,277	239,187	122,419
266,136	4,318	239,051	122,371
267,151	4,473	238,972	122,443
268,166	4,266	238,783	122,171
269,180	4,068	238,481	121,848
270,195	4,711	238,573	122,394
271,209	4,826	238,537	122,456
272,224	4,193	238,252	121,797
273,239	3,962	237,872	121,410
274,253	4,056	237,807	121,440
275,268	4,242	237,812	121,579
276,282	4,367	237,659	121,588
277,297	3,982	237,377	121,130
278,312	4,172	237,178	121,167
279,326	4,419	237,077	121,300
280,341	4,265	236,842	121,047
281,355	4,215	236,848	121,000
282,370	4,418	236,740	121,094
283,384	4,407	236,416	120,908
284,399	4,334	236,245	120,753
285,414	3,878	236,155	120,339
286,428	3,981	236,111	120,386
287,443	4,180	235,879	120,413
288,457	4,242	235,719	120,369
289,472	4,530	235,596	120,521
290,487	4,316	235,493	120,290
291,501	4,082	235,207	119,951
292,516	3,822	234,994	119,629
293,530	4,108	234,848	119,766
294,545	4,483	234,862	120,054
295,560	4,439	234,584	119,868
296,574	3,990	234,393	119,411
297,589	3,874	234,436	119,332
298,603	4,309	234,265	119,572
299,618	4,575	234,232	119,751
300,633	4,387	234,045	119,499
301,647	4,552	233,917	119,551
302,662	4,646	233,815	119,561
303,676	4,490	233,646	119,342
304,691	4,690	233,430	119,376
305,706	4,807	233,268	119,373
306,720	4,823	233,103	119,290
307,735	4,719	232,901	119,096
308,749	4,346	232,719	118,705
309,764	4,115	232,618	118,465
310,779	4,028	232,479	118,318
311,793	3,961	232,178	118,103
312,808	3,851	231,944	117,888
313,822	3,672	231,826	117,681
314,837	3,592	231,692	117,541
315,852	3,644	231,532	117,489
316,866	4,074	231,500	117,792
317,881	4,677	231,539	118,261
318,895	4,672	231,396	118,175
319,910	4,698	231,343	118,157
320,925	4,081	231,035	117,518
321,939	3,760	230,742	117,114
322,954	3,957	230,831	117,299
323,968	4,381	230,554	117,470
324,983	4,122	230,562	117,267
325,997	4,475	230,416	117,451
327,012	4,624	230,199	117,443
328,027	4,348	229,993	117,117
329,041	4,452	230,067	117,223
330,056	5,051	229,956	117,611
331,070	4,947	229,740	117,412
332,085	4,803	229,331	117,083
333,100	4,632	229,194	116,873
334,114	4,449	229,144	116,699
335,129	4,632	229,108	116,809
336,143	4,796	228,891	116,811
337,158	4,658	228,720	116,610
338,173	4,513	228,515	116,385
339,187	4,306	228,379	116,150
340,202	4,423	228,241	116,157
341,216	4,416	228,188	116,115
342,231	4,232	228,044	115,893
343,246	4,210	227,809	115,747
344,260	4,245	227,866	115,792
345,275	4,645	227,598	115,945
346,289	4,726	227,510	115,951
347,304	4,745	227,313	115,854
348,319	4,557	227,184	115,637
349,333	4,352	227,012	115,386
350,348	4,296	226,835	115,244
351,362	4,463	226,600	115,239
352,377	4,312	226,332	114,980
353,392	3,956	226,219	114,647
354,406	4,020	226,047	114,597
355,421	194,160	1321,455	1393,936
356,435	155,584	1454,903	1393,937
