DTS Sentinel unit serial number:	SN410029Multiplexer serial number:	ORYXHardware model number:	OX2-SRSoftware version number:	ORYX F/W v4,00 Oryx Data Collector v3.7.2.0data status	okinstallation	B5 Nyhavnadifferential loss correction	single-endedforward channel	channel 2reverse channel	N/Adate	2023/12/14time	13:42:13forward acquisition time	300,00reverse acquisition time	0,00gamma	499,1914k internal	0,3157k external	0,3157temperature offset calibration	1,0000default loss term (dB/km)	0,3820temperature slope calibration	1,0000multiplexer offset coefficient	1,0000multiplexer slope coefficient	1,0000fibre end	0,00T internal ref (°C)	8,06T ext. ref 1 (°C)	-7,83T ext. ref 2 (°C)	-7,88length (m)	temperature (°C)	Stokes	anti-Stokes-744,400	-3,964	0,071	0,036
-743,385	-92,298	-0,368	-0,076
-742,371	22,494	0,151	0,091
-741,356	-101,739	-0,502	-0,089
-740,342	93,031	0,152	0,127
-739,327	-141,196	-0,346	0,026
-738,312	800,000	0,034	0,104
-737,298	-25,288	-0,361	-0,157
-736,283	-20,845	0,157	0,071
-735,269	-152,344	-0,342	0,018
-734,254	3,656	0,205	0,110
-733,239	-31,820	-0,414	-0,170
-732,225	-118,485	0,267	0,034
-731,210	382,540	0,044	0,067
-730,196	536,597	-0,034	-0,060
-729,181	-200,000	-0,013	-0,085
-728,167	-109,247	-0,072	0,011
-727,152	-128,442	0,099	-0,010
-726,137	-51,225	-0,166	0,057
-725,123	160,276	-0,042	-0,043
-724,108	800,000	-0,013	-0,041
-723,094	-99,786	-0,051	-0,009
-722,079	17,345	-0,105	-0,062
-721,064	553,319	0,027	0,047
-720,050	800,000	0,089	-0,183
-719,035	800,000	0,045	-0,116
-718,021	364,656	0,076	-0,112
-717,006	-90,904	0,094	0,020
-715,991	651,282	-0,035	-0,066
-714,977	-81,226	0,054	-0,013
-713,962	-25,623	-0,090	0,039
-712,948	-171,792	0,029	-0,001
-711,933	413,377	-0,070	0,111
-710,918	446,092	0,041	-0,067
-709,904	800,000	-0,049	-0,139
-708,889	-200,000	0,012	-0,080
-707,875	50,674	-0,096	0,067
-706,860	-51,996	0,111	-0,038
-705,845	-200,000	0,008	-0,035
-704,831	-200,000	-0,010	-0,080
-703,816	-200,000	-0,020	-0,083
-702,802	-119,964	0,035	-0,004
-701,787	3,747	-0,035	-0,019
-700,772	-200,000	-0,023	-0,192
-699,758	-200,000	-0,036	-0,126
-698,743	102,741	0,037	-0,032
-697,729	800,000	0,008	-0,023
-696,714	800,000	-0,041	0,106
-695,699	800,000	0,025	0,054
-694,685	800,000	-0,029	-0,070
-693,670	111,441	-0,097	-0,086
-692,656	-200,000	-0,002	-0,032
-691,641	41,303	0,072	0,048
-690,627	340,239	0,068	0,098
-689,612	496,045	0,002	-0,003
-688,597	6,250	-0,031	-0,017
-687,583	-200,000	-0,021	-0,074
-686,568	248,590	-0,048	-0,060
-685,554	-27,617	0,040	-0,017
-684,539	800,000	-0,007	0,017
-683,524	-83,757	-0,036	0,008
-682,510	63,066	-0,089	0,066
-681,495	174,502	0,042	0,045
-680,481	250,843	0,050	0,062
-679,466	486,447	-0,088	0,148
-678,451	-200,000	-0,006	-0,030
-677,437	166,209	0,053	-0,055
-676,422	-200,000	0,027	0,103
-675,408	-76,480	-0,086	0,022
-674,393	260,571	0,043	0,055
-673,378	-136,588	-0,105	-0,009
-672,364	-200,000	-0,006	0,103
-671,349	800,000	0,029	-0,065
-670,335	622,834	-0,033	0,062
-669,320	98,423	0,051	0,043
-668,305	-200,000	0,006	0,046
-667,291	-20,064	-0,062	0,028
-666,276	22,968	-0,062	-0,038
-665,262	-60,613	-0,133	-0,041
-664,247	-200,000	0,020	-0,076
-663,232	613,052	-0,056	-0,104
-662,218	-57,515	0,075	0,024
-661,203	-200,000	-0,010	0,060
-660,189	96,362	0,041	-0,034
-659,174	386,336	0,054	0,082
-658,159	57,135	-0,128	0,092
-657,145	-200,000	0,008	-0,057
-656,130	101,426	0,071	0,061
-655,116	800,000	-0,062	-0,126
-654,101	-200,000	0,006	0,045
-653,086	255,357	-0,073	0,092
-652,072	800,000	-0,056	-0,178
-651,057	-137,975	0,050	-0,004
-650,043	506,523	-0,015	-0,026
-649,028	-69,130	0,018	-0,005
-648,014	98,295	-0,027	0,023
-646,999	134,188	0,060	0,057
-645,984	-20,119	-0,026	-0,012
-644,970	0,441	-0,100	-0,053
-643,955	800,000	-0,037	-0,081
-642,941	-105,026	-0,075	0,013
-641,926	295,007	0,076	0,103
-640,911	23,255	-0,106	0,064
-639,897	-200,000	0,079	-0,000
-638,882	82,245	0,046	0,037
-637,868	283,596	-0,074	0,098
-636,853	283,543	-0,075	-0,099
-635,838	280,834	-0,012	0,015
-634,824	254,806	-0,054	-0,068
-633,809	800,000	-0,022	-0,068
-632,795	-8,379	0,097	0,048
-631,780	-20,995	-0,082	0,037
-630,765	-38,366	0,047	0,018
-629,751	-33,744	-0,034	0,014
-628,736	800,000	0,034	0,078
-627,722	-200,000	0,018	0,087
-626,707	-200,000	-0,006	0,085
-625,692	379,316	-0,009	0,013
-624,678	-120,821	0,017	0,002
-623,663	-10,082	0,077	-0,037
-622,649	-173,684	-0,052	0,001
-621,634	-200,000	-0,046	-0,177
-620,619	-200,000	0,005	-0,183
-619,605	-200,000	-0,011	0,070
-618,590	-183,182	0,114	0,001
-617,576	581,892	0,033	0,060
-616,561	292,073	-0,094	0,126
-615,546	-200,000	-0,028	-0,127
-614,532	-200,000	-0,005	-0,032
-613,517	-200,000	-0,020	-0,135
-612,503	-200,000	-0,012	0,043
-611,488	275,718	-0,057	-0,074
-610,474	-47,363	0,077	-0,027
-609,459	488,159	-0,037	-0,062
-608,444	-200,000	-0,014	0,069
-607,430	-94,865	-0,155	-0,031
-606,415	-200,000	-0,021	0,120
-605,401	763,711	-0,055	-0,110
-604,386	-200,000	-0,007	-0,042
-603,371	-27,198	0,084	-0,036
-602,357	-109,455	-0,057	0,009
-601,342	-200,000	-0,004	0,073
-600,328	-143,712	-0,073	0,005
-599,313	800,000	0,036	0,091
-598,298	381,150	-0,047	-0,071
-597,284	-4,684	-0,062	0,031
-596,269	-200,000	-0,012	0,199
-595,255	217,702	-0,070	0,082
-594,240	-124,581	-0,090	-0,010
-593,225	-64,362	-0,109	-0,032
-592,211	-43,714	0,035	-0,013
-591,196	193,407	-0,042	-0,047
-590,182	159,711	0,013	0,013
-589,167	524,702	0,067	0,115
-588,152	84,643	-0,080	0,064
-587,138	800,000	0,024	0,061
-586,123	401,346	-0,064	0,098
-585,109	401,843	-0,018	-0,027
-584,094	459,384	0,055	0,089
-583,079	120,774	0,066	0,060
-582,065	-200,000	0,009	-0,059
-581,050	800,000	-0,024	-0,076
-580,036	800,000	-0,012	-0,025
-579,021	98,070	0,089	0,075
-578,006	-10,914	0,049	0,024
-576,992	-200,000	-0,012	0,048
-575,977	800,000	0,073	0,156
-574,963	80,429	-0,037	0,029
-573,948	800,000	0,018	-0,043
-572,934	-200,000	0,013	0,058
-571,919	-200,000	-0,000	-0,007
-570,904	448,713	-0,102	-0,165
-569,890	800,000	0,014	-0,041
-568,875	114,343	0,116	-0,104
-567,861	-200,000	-0,019	-0,068
-566,846	4,082	0,044	-0,024
-565,831	-26,631	0,165	-0,070
-564,817	213,293	0,020	0,023
-563,802	-67,469	0,042	-0,012
-562,788	233,418	0,023	0,028
-561,773	9,661	-0,124	0,068
-560,758	416,874	0,020	-0,032
-559,744	-8,648	0,059	0,029
-558,729	16,292	0,084	0,048
-557,715	-200,000	0,014	-0,113
-556,700	-200,000	0,001	-0,024
-555,685	-102,475	-0,085	0,015
-554,671	-41,022	0,056	-0,021
-553,656	211,563	-0,034	-0,039
-552,642	-200,000	0,009	0,067
-551,627	-61,938	-0,126	0,038
-550,612	-23,709	-0,054	-0,024
-549,598	-200,000	0,009	-0,172
-548,583	-200,000	0,010	-0,052
-547,569	-111,522	-0,073	0,011
-546,554	-51,743	0,161	0,055
-545,539	800,000	-0,025	0,052
-544,525	116,726	-0,090	0,081
-543,510	800,000	-0,011	0,026
-542,496	-200,000	-0,026	0,143
-541,481	-121,425	-0,232	0,028
-540,466	161,896	-0,034	-0,035
-539,452	-153,975	0,143	-0,007
-538,437	577,876	0,031	0,056
-537,423	224,780	-0,005	0,006
-536,408	332,078	0,004	-0,006
-535,393	653,032	-0,018	0,034
-534,379	-84,273	-0,128	-0,030
-533,364	-200,000	-0,002	-0,071
-532,350	-200,000	-0,004	-0,040
-531,335	-100,391	-0,019	0,003
-530,321	352,103	-0,050	-0,073
-529,306	-140,260	0,051	0,004
-528,291	-27,385	0,050	0,021
-527,277	123,829	-0,124	-0,113
-526,262	-200,000	-0,017	-0,085
-525,248	-200,000	-0,006	0,088
-524,233	-78,931	0,104	-0,026
-523,218	516,087	0,039	-0,067
-522,204	-123,359	-0,115	-0,013
-521,189	37,943	0,049	-0,032
-520,175	-76,793	-0,074	-0,019
-519,160	411,666	0,061	0,095
-518,145	-98,675	-0,090	-0,017
-517,131	47,968	0,083	0,057
-516,116	648,949	0,051	0,096
-515,102	220,224	-0,024	0,028
-514,087	623,518	0,070	-0,129
-513,072	-30,345	0,062	-0,025
-512,058	110,935	0,062	0,055
-511,043	-132,299	0,124	0,012
-510,029	-200,000	0,003	0,121
-509,014	155,389	0,091	0,092
-507,999	-200,000	-0,006	-0,038
-506,985	-47,781	-0,105	-0,037
-505,970	152,549	0,028	-0,028
-504,956	18,826	-0,145	-0,084
-503,941	61,765	-0,105	-0,076
-502,926	45,425	0,074	0,050
-501,912	20,382	0,073	0,043
-500,897	41,242	-0,051	-0,033
-499,883	-200,000	0,017	0,063
-498,868	-48,662	-0,087	-0,030
-497,853	32,099	-0,102	0,064
-496,839	-9,194	-0,040	-0,019
-495,824	800,000	-0,049	-0,139
-494,810	-28,368	0,088	-0,037
-493,795	800,000	0,028	-0,066
-492,781	-37,115	-0,099	0,038
-491,766	-177,441	-0,041	0,001
-490,751	713,878	-0,044	-0,086
-489,737	-82,572	-0,091	-0,021
-488,722	397,279	0,042	0,065
-487,708	-185,798	-0,135	-0,001
-486,693	800,000	0,015	0,039
-485,678	281,389	0,061	-0,080
-484,664	-15,378	-0,026	0,012
-483,649	-200,000	-0,025	-0,121
-482,635	-119,324	-0,116	0,015
-481,620	-200,000	-0,007	-0,051
-480,605	-200,000	0,018	0,141
-479,591	452,466	0,111	0,180
-478,576	39,594	-0,050	0,033
-477,562	97,186	0,050	0,042
-476,547	-200,000	-0,027	-0,206
-475,532	273,280	-0,107	-0,138
-474,518	298,473	0,147	0,198
-473,503	196,589	0,030	0,033
-472,489	-200,000	-0,005	-0,125
-471,474	-200,000	0,016	-0,061
-470,459	-200,000	0,023	-0,077
-469,445	800,000	-0,023	-0,048
-468,430	-11,166	0,006	-0,003
-467,416	83,781	0,083	0,066
-466,401	-200,000	-0,017	0,201
-465,386	46,131	-0,075	0,051
-464,372	-30,530	0,034	-0,014
-463,357	790,276	-0,015	0,031
-462,343	237,681	0,016	-0,020
-461,328	-67,486	-0,171	-0,049
-460,313	-64,992	0,039	0,011
-459,299	166,023	-0,053	0,055
-458,284	-200,000	-0,024	0,109
-457,270	651,145	-0,023	0,043
-456,255	800,000	0,009	-0,019
-455,241	-200,000	-0,009	-0,166
-454,226	-169,659	0,043	0,001
-453,211	23,435	-0,079	0,047
-452,197	-42,551	-0,070	0,026
-451,182	-176,812	0,187	-0,003
-450,168	-200,000	0,002	0,080
-449,153	-179,803	-0,111	0,002
-448,138	-200,000	0,022	-0,137
-447,124	51,624	-0,119	-0,083
-446,109	-200,000	-0,011	-0,043
-445,095	-200,000	0,000	0,050
-444,080	800,000	0,038	-0,082
-443,065	-200,000	-0,004	0,108
-442,051	48,457	-0,013	0,009
-441,036	147,063	0,028	0,028
-440,022	-103,580	0,135	0,023
-439,007	287,937	0,005	-0,007
-437,992	270,293	0,015	0,019
-436,978	-200,000	0,018	0,063
-435,963	-149,861	0,028	0,002
-434,949	-200,000	0,000	0,003
-433,934	491,172	-0,051	-0,085
-432,919	800,000	0,002	-0,006
-431,905	333,921	-0,091	-0,129
-430,890	800,000	-0,078	0,160
-429,876	800,000	0,046	0,098
-428,861	800,000	-0,030	-0,092
-427,846	-200,000	-0,031	-0,118
-426,832	-200,000	0,004	-0,130
-425,817	-61,670	-0,199	-0,061
-424,803	141,592	0,040	0,039
-423,788	6,928	0,085	0,046
-422,773	224,531	0,054	-0,064
-421,759	-59,247	-0,128	-0,040
-420,744	379,099	0,085	0,127
-419,730	154,963	0,055	-0,055
-418,715	-16,701	-0,094	0,043
-417,701	-200,000	-0,017	-0,066
-416,686	-115,385	0,066	0,009
-415,671	800,000	-0,044	0,117
-414,657	-137,918	-0,035	-0,003
-413,642	-120,353	0,220	-0,027
-412,628	-81,650	-0,076	-0,018
-411,613	-200,000	-0,001	-0,037
-410,598	278,903	0,097	-0,127
-409,584	-22,765	0,090	-0,040
-408,569	800,000	0,025	-0,060
-407,555	33,302	0,052	0,033
-406,540	-190,888	0,193	-0,001
-405,525	-33,787	-0,210	-0,084
-404,511	172,789	-0,010	0,010
-403,496	800,000	0,031	-0,079
-402,482	30,890	-0,161	-0,100
-401,467	17,220	-0,076	-0,044
-400,452	524,194	0,045	0,078
-399,438	-185,579	0,063	0,001
-398,423	-17,310	-0,092	0,042
-397,409	87,173	-0,181	-0,145
-396,394	-109,874	0,113	0,017
-395,379	342,737	0,018	-0,026
-394,365	800,000	0,038	0,088
-393,350	182,052	-0,015	-0,017
-392,336	-200,000	0,003	-0,075
-391,321	34,649	-0,047	-0,030
-390,306	143,152	0,068	0,066
-389,292	800,000	0,019	0,044
-388,277	-200,000	-0,011	0,085
-387,263	800,000	0,046	0,125
-386,248	22,670	0,146	-0,087
-385,233	-37,836	0,064	0,025
-384,219	183,218	-0,028	0,030
-383,204	-73,210	-0,237	-0,063
-382,190	-69,451	-0,051	0,014
-381,175	-200,000	-0,008	-0,159
-380,160	-40,366	0,136	-0,051
-379,146	-200,000	0,024	-0,107
-378,131	61,781	0,064	-0,046
-377,117	-91,159	-0,228	-0,047
-376,102	800,000	-0,081	-0,185
-375,088	-200,000	0,015	-0,067
-374,073	16,586	-0,135	0,078
-373,058	-157,261	0,073	0,003
-372,044	-129,913	0,089	-0,009
-371,029	800,000	0,021	-0,066
-370,015	-200,000	0,001	-0,032
-369,000	-118,473	0,016	0,002
-367,985	90,808	0,093	-0,076
-366,971	159,448	-0,022	-0,022
-365,956	-200,000	0,011	0,066
-364,942	635,868	0,026	-0,049
-363,927	360,000	0,063	0,092
-362,912	281,759	0,036	-0,048
-361,898	6,544	-0,066	-0,036
-360,883	-117,280	-0,030	0,004
-359,869	657,367	0,047	0,088
-358,854	8,533	-0,016	0,009
-357,839	800,000	-0,047	0,135
-356,825	52,525	0,120	0,083
-355,810	476,378	-0,051	0,084
-354,796	-200,000	0,008	-0,044
-353,781	-200,000	0,003	0,085
-352,766	-118,893	0,073	-0,009
-351,752	-145,328	0,047	-0,003
-350,737	-11,697	0,155	0,074
-349,723	800,000	-0,040	-0,095
-348,708	400,803	-0,001	-0,002
-347,693	49,301	0,094	-0,064
-346,679	-48,297	0,018	-0,006
-345,664	-54,611	0,056	0,018
-344,650	212,000	0,065	0,074
-343,635	800,000	0,036	0,094
-342,620	-15,206	0,099	-0,046
-341,606	50,163	0,068	0,047
-340,591	6,343	0,059	0,032
-339,577	-173,985	-0,059	-0,001
-338,562	-63,584	-0,098	-0,029
-337,548	243,124	-0,107	-0,130
-336,533	-200,000	0,010	-0,072
-335,518	-29,464	-0,027	0,011
-334,504	-40,617	-0,096	0,036
-333,489	-200,000	0,008	0,075
-332,475	-142,097	-0,142	0,010
-331,460	800,000	0,013	-0,027
-330,445	-107,373	0,178	0,028
-329,431	88,697	0,074	-0,060
-328,416	-200,000	0,002	0,047
-327,402	-84,159	-0,085	0,020
-326,387	800,000	-0,007	-0,019
-325,372	-45,227	0,059	0,021
-324,358	-61,525	-0,046	0,014
-323,343	-58,765	0,066	0,020
-322,329	127,991	0,057	-0,053
-321,314	115,828	-0,043	0,038
-320,299	129,832	0,183	-0,170
-319,285	149,540	0,064	0,063
-318,270	374,160	0,047	0,070
-317,256	800,000	-0,057	-0,152
-316,241	271,826	0,051	0,066
-315,226	-87,289	0,065	0,014
-314,212	68,872	0,069	-0,051
-313,197	53,332	-0,029	-0,020
-312,183	215,211	-0,025	0,029
-311,168	155,382	-0,093	-0,093
-310,153	800,000	-0,021	-0,052
-309,139	-112,847	0,094	0,013
-308,124	-76,298	-0,042	-0,011
-307,110	425,004	0,068	-0,107
-306,095	430,382	0,049	-0,078
-305,080	129,423	-0,079	0,073
-304,066	-66,330	-0,159	0,046
-303,051	24,522	0,044	-0,026
-302,037	800,000	0,038	0,109
-301,022	-18,046	0,063	-0,029
-300,008	-200,000	-0,041	0,000
-298,993	800,000	-0,015	0,042
-297,978	-4,166	-0,068	0,034
-296,964	-92,721	-0,060	-0,012
-295,949	204,415	0,029	-0,033
-294,935	-200,000	-0,009	-0,224
-293,920	309,629	0,038	0,052
-292,905	-200,000	0,007	-0,076
-291,891	-95,775	0,114	-0,022
-290,876	5,868	0,088	0,047
-289,862	279,555	-0,039	0,051
-288,847	385,072	0,022	0,033
-287,832	-23,162	0,075	-0,033
-286,818	358,492	0,018	0,027
-285,803	343,326	0,036	0,051
-284,789	-110,467	0,102	-0,015
-283,774	-28,373	0,104	0,043
-282,759	800,000	-0,030	-0,083
-281,745	148,646	0,075	0,074
-280,730	800,000	-0,055	-0,142
-279,716	149,192	0,058	0,057
-278,701	154,502	-0,112	-0,111
-277,686	800,000	0,020	0,046
-276,672	211,416	0,070	-0,080
-275,657	800,000	-0,050	-0,155
-274,643	89,319	0,055	-0,045
-273,628	747,850	0,060	-0,117
-272,613	-61,906	-0,103	0,031
-271,599	-47,808	-0,037	-0,013
-270,584	135,607	0,094	0,089
-269,570	26,116	-0,087	-0,052
-268,555	-200,000	0,033	0,125
-267,540	-90,437	-0,181	-0,038
-266,526	-200,000	0,044	0,188
-265,511	-59,270	-0,127	-0,039
-264,497	-200,000	-0,002	-0,162
-263,482	-65,959	0,036	-0,010
-262,467	1,332	0,087	0,045
-261,453	505,694	-0,017	-0,028
-260,438	-200,000	-0,049	-0,170
-259,424	665,669	0,036	-0,067
-258,409	-28,098	-0,118	-0,049
-257,395	-200,000	0,012	0,118
-256,380	-54,079	0,110	0,036
-255,365	-200,000	-0,017	0,143
-254,351	782,674	-0,012	0,024
-253,336	-14,721	-0,087	-0,040
-252,322	-2,167	-0,063	-0,032
-251,307	-130,336	-0,109	-0,011
-250,292	-125,056	0,165	0,018
-249,278	72,166	0,075	0,056
-248,263	-105,388	-0,045	0,007
-247,249	800,000	-0,037	-0,109
-246,234	-200,000	-0,023	0,000
-245,219	-200,000	0,007	-0,200
-244,205	140,854	0,090	-0,086
-243,190	800,000	0,046	0,097
-242,176	92,694	-0,053	-0,044
-241,161	103,607	-0,141	0,119
-240,146	285,595	0,097	0,127
-239,132	-19,952	-0,054	0,024
-238,117	10,164	-0,106	-0,058
-237,103	179,531	0,072	-0,077
-236,088	-61,152	-0,078	0,024
-235,073	800,000	0,082	0,203
-234,059	-97,136	0,080	0,015
-233,044	306,883	0,087	0,117
-232,030	-127,829	0,182	0,019
-231,015	86,395	-0,096	-0,076
-230,000	-27,548	0,047	-0,020
-228,986	-200,000	-0,018	0,079
-227,971	-200,000	0,020	0,121
-226,957	-200,000	0,002	-0,028
-225,942	-200,000	-0,014	0,088
-224,927	-170,387	0,147	-0,004
-223,913	800,000	-0,031	-0,064
-222,898	99,390	-0,086	0,072
-221,884	46,046	-0,041	0,028
-220,869	-200,000	0,003	0,041
-219,855	-143,296	0,054	-0,004
-218,840	-146,908	0,022	-0,001
-217,825	-59,104	0,025	0,008
-216,811	328,598	-0,057	-0,080
-215,796	-81,618	-0,146	0,034
-214,782	334,659	-0,019	-0,026
-213,767	95,072	0,070	0,057
-212,752	800,000	0,026	0,078
-211,738	95,180	0,116	0,096
-210,723	120,745	0,102	-0,091
-209,709	154,260	0,026	0,026
-208,694	-200,000	0,006	-0,144
-207,679	99,709	-0,084	-0,070
-206,665	-160,459	-0,099	-0,004
-205,650	800,000	0,046	0,127
-204,636	-200,000	-0,027	0,133
-203,621	-112,395	0,073	0,010
-202,606	-200,000	0,026	0,084
-201,592	-104,750	0,104	0,017
-200,577	-11,243	-0,022	0,011
-199,563	-68,169	-0,022	-0,006
-198,548	-200,000	-0,020	0,109
-197,533	-0,617	-0,144	0,074
-196,519	544,023	-0,043	-0,074
-195,504	-111,891	-0,067	-0,010
-194,490	262,758	0,055	0,069
-193,475	-64,171	0,074	-0,022
-192,460	-200,000	0,051	0,182
-191,446	-200,000	0,015	0,125
-190,431	800,000	0,029	0,080
-189,417	-88,035	-0,138	-0,030
-188,402	-70,478	0,081	0,022
-187,387	130,098	0,113	-0,104
-186,373	234,071	-0,029	-0,034
-185,358	67,031	-0,061	0,045
-184,344	-119,388	0,070	0,009
-183,329	800,000	0,012	0,036
-182,315	408,399	-0,049	-0,075
-181,300	-200,000	-0,006	0,069
-180,285	-200,000	-0,011	-0,089
-179,271	142,693	0,025	-0,024
-178,256	127,002	-0,027	-0,025
-177,242	130,732	0,069	-0,063
-176,227	-26,946	0,149	-0,062
-175,212	-200,000	0,003	0,043
-174,198	800,000	-0,016	0,033
-173,183	16,318	0,086	0,049
-172,169	179,037	-0,125	-0,132
-171,154	357,780	-0,102	-0,147
-170,139	-45,755	0,089	0,031
-169,125	-85,033	0,054	-0,012
-168,110	-200,000	-0,000	0,104
-167,096	-78,909	-0,174	0,042
-166,081	800,000	-0,021	-0,049
-165,066	790,732	-0,042	-0,083
-164,052	624,769	0,004	-0,008
-163,037	-60,732	-0,144	0,044
-162,023	800,000	0,066	0,142
-161,008	124,128	0,093	0,084
-159,993	800,000	0,031	0,094
-158,979	74,725	0,030	0,023
-157,964	-200,000	-0,011	-0,062
-156,950	-50,720	-0,220	-0,074
-155,935	-48,165	0,040	0,014
-154,920	-200,000	-0,007	0,139
-153,906	-138,705	0,137	0,011
-152,891	800,000	0,058	0,119
-151,877	74,503	0,010	-0,008
-150,862	800,000	-0,050	0,110
-149,847	-151,873	-0,119	0,006
-148,833	-174,192	0,118	-0,002
-147,818	800,000	-0,018	0,052
-146,804	-29,795	-0,009	0,004
-145,789	800,000	0,049	0,118
-144,775	-200,000	0,020	-0,149
-143,760	800,000	-0,048	-0,142
-142,745	-200,000	0,012	0,098
-141,731	590,996	-0,010	-0,018
-140,716	800,000	0,091	0,202
-139,702	-123,382	-0,007	0,001
-138,687	57,011	-0,091	-0,064
-137,672	-104,689	0,015	0,002
-136,658	114,744	-0,027	-0,024
-135,643	134,709	-0,056	-0,052
-134,629	86,892	0,158	-0,125
-133,614	800,000	-0,037	0,097
-132,599	57,517	-0,216	0,151
-131,585	-200,000	-0,003	0,088
-130,570	284,150	-0,061	0,079
-129,556	267,488	0,128	-0,161
-128,541	778,228	-0,010	0,019
-127,526	-170,041	0,068	-0,002
-126,512	-200,000	0,030	0,105
-125,497	463,462	0,059	0,096
-124,483	800,000	0,037	-0,112
-123,468	-27,254	0,073	0,031
-122,453	800,000	0,012	-0,035
-121,439	212,538	0,096	-0,109
-120,424	-111,957	0,053	-0,008
-119,410	800,000	0,018	0,042
-118,395	545,959	-0,031	0,053
-117,380	-200,000	-0,013	-0,072
-116,366	-123,376	-0,076	-0,009
-115,351	-200,000	-0,023	-0,103
-114,337	800,000	-0,069	-0,142
-113,322	107,253	-0,081	-0,069
-112,307	702,079	0,033	-0,062
-111,293	264,111	0,051	0,064
-110,278	800,000	0,080	0,166
-109,264	800,000	0,069	0,188
-108,249	-82,970	-0,182	-0,042
-107,234	-200,000	0,035	-0,195
-106,220	252,658	0,029	0,036
-105,205	-79,672	0,155	0,037
-104,191	-200,000	0,005	0,083
-103,176	122,412	-0,062	-0,055
-102,162	-18,500	-0,134	-0,060
-101,147	-200,000	0,020	0,119
-100,132	-145,655	-0,216	0,014
-99,118	-105,172	0,093	0,015
-98,103	113,412	0,058	0,050
-97,089	800,000	-0,042	-0,119
-96,074	25,232	0,091	-0,054
-95,059	304,634	-0,103	0,138
-94,045	92,491	0,020	0,016
-93,030	-200,000	0,010	0,087
-92,016	-172,330	-0,074	-0,002
-91,001	-200,000	0,011	-0,034
-89,986	356,548	-0,054	0,078
-88,972	273,522	0,055	0,071
-87,957	45,861	-0,046	-0,030
-86,943	222,629	0,107	0,124
-85,928	-150,099	-0,096	0,005
-84,913	-121,662	-0,088	0,010
-83,899	-200,000	-0,022	-0,083
-82,884	149,215	0,095	0,092
-81,870	-200,000	0,044	0,216
-80,855	241,185	-0,038	0,046
-79,840	370,977	0,085	-0,125
-78,826	-150,737	-0,102	-0,005
-77,811	126,876	0,086	-0,079
-76,797	28,607	-0,054	0,033
-75,782	-200,000	0,005	0,116
-74,767	137,357	0,033	-0,031
-73,753	-200,000	-0,005	0,116
-72,738	102,112	0,051	0,042
-71,724	82,097	-0,126	0,098
-70,709	800,000	0,062	-0,154
-69,694	35,928	-0,077	0,048
-68,680	171,368	0,142	0,146
-67,665	-200,000	-0,013	0,069
-66,651	-200,000	0,027	-0,108
-65,636	41,927	0,153	-0,099
-64,622	376,270	-0,044	-0,065
-63,607	174,958	-0,074	-0,077
-62,592	142,870	-0,060	0,057
-61,578	-200,000	-0,006	0,067
-60,563	136,087	0,043	0,040
-59,549	30,562	-0,085	0,052
-58,534	86,253	-2,610	-2,063
-57,519	42,443	0,399	-0,260
-56,505	800,000	-1,753	-5,373
-55,490	548,491	1,230	2,124
-54,476	800,000	5,165	11,199
-53,461	-200,000	22,090	347,050
-52,446	800,000	759,931	2300,008
-51,432	515,566	1646,708	2771,540
-50,417	98,684	1610,736	1333,330
-49,403	66,809	1267,442	925,035
-48,388	23,487	1018,134	599,629
-47,373	19,324	985,274	566,520
-46,359	12,930	972,295	538,111
-45,344	8,730	969,046	522,528
-44,330	9,154	967,069	522,829
-43,315	8,235	965,300	518,848
-42,300	8,091	964,266	517,802
-41,286	8,044	963,235	517,074
-40,271	8,124	962,097	516,704
-39,257	8,097	961,017	516,014
-38,242	8,101	960,367	515,660
-37,227	8,123	959,325	515,151
-36,213	8,008	958,816	514,483
-35,198	8,091	957,760	514,164
-34,184	8,135	957,047	513,903
-33,169	8,095	956,043	513,215
-32,154	8,089	955,449	512,856
-31,140	8,169	954,389	512,524
-30,125	8,197	953,471	512,104
-29,111	8,123	952,923	511,548
-28,096	8,149	952,122	511,183
-27,082	8,138	951,489	510,786
-26,067	8,082	950,749	510,189
-25,052	8,049	949,853	509,583
-24,038	8,047	949,294	509,256
-23,023	8,055	948,663	508,922
-22,009	8,134	948,067	508,837
-20,994	8,117	947,408	508,409
-19,979	8,138	946,728	508,091
-18,965	8,074	946,147	507,554
-17,950	8,043	945,602	507,141
-16,936	8,071	944,847	506,806
-15,921	8,050	944,164	506,351
-14,906	8,021	943,503	505,886
-13,892	7,969	943,009	505,434
-12,877	7,925	942,280	504,881
-11,863	7,889	941,739	504,458
-10,848	7,990	941,107	504,422
-9,833	8,087	940,597	504,437
-8,819	8,069	940,022	504,051
-7,804	7,994	939,305	503,410
-6,790	7,920	938,871	502,919
-5,775	8,021	938,305	502,919
-4,760	8,042	937,545	502,558
-3,746	7,969	936,916	501,968
-2,731	7,807	936,315	501,113
-1,717	7,798	935,690	500,731
-0,702	7,830	935,074	500,483
0,313	7,687	934,377	500,413
1,327	11,121	932,004	509,931
2,342	19,795	780,311	449,680
3,356	14,882	448,617	251,102
4,371	-11,393	313,179	147,291
5,386	-15,152	295,699	135,246
6,400	-17,112	289,453	130,431
7,415	-17,513	287,017	128,927
8,429	-18,096	285,017	127,447
9,444	-18,197	284,131	126,941
10,459	-18,172	283,599	126,717
11,473	-18,107	282,777	126,401
12,488	-18,024	282,439	126,319
13,502	-18,189	281,893	125,904
14,517	-18,193	281,461	125,697
15,531	-18,043	280,911	125,584
16,546	-17,990	280,690	125,525
17,561	-17,898	280,167	125,368
18,575	-18,144	279,980	125,037
19,590	-18,215	279,632	124,802
20,604	-18,164	279,310	124,696
21,619	-18,076	278,793	124,538
22,634	-18,083	278,544	124,409
23,648	-18,070	278,267	124,287
24,663	-18,104	278,045	124,144
25,677	-18,099	277,716	123,991
26,692	-17,963	277,519	124,021
27,707	-18,215	277,122	123,594
28,721	-18,142	276,825	123,520
29,736	-18,119	276,621	123,440
30,750	-18,073	276,447	123,395
31,765	-18,078	276,130	123,237
32,780	-17,994	275,887	123,197
33,794	-18,112	275,635	122,962
34,809	-18,115	275,250	122,777
35,823	-18,117	275,052	122,675
36,838	-17,904	274,782	122,745
37,853	-18,278	274,638	122,318
38,867	-18,080	274,271	122,330
39,882	-17,973	273,997	122,296
40,896	-18,185	273,753	121,978
41,911	-18,237	273,587	121,844
42,926	-18,209	273,234	121,703
43,940	-18,108	273,055	121,706
44,955	-18,164	272,873	121,562
45,969	-18,192	272,608	121,407
46,984	-18,036	272,330	121,417
47,999	-18,075	272,341	121,375
49,013	-17,961	272,051	121,341
50,028	-17,916	271,794	121,258
51,042	-17,917	271,572	121,147
52,057	-18,089	271,460	120,927
53,071	-18,058	271,141	120,802
54,086	-18,033	270,750	120,641
55,101	-17,850	270,582	120,724
56,115	-18,067	270,325	120,399
57,130	-17,929	270,199	120,459
58,144	-17,931	269,806	120,271
59,159	-18,129	269,678	120,021
60,174	-18,022	269,291	119,937
61,188	-18,165	269,149	119,731
62,203	-17,931	268,931	119,838
63,217	-17,957	268,755	119,725
64,232	-18,001	268,551	119,583
65,247	-18,065	268,349	119,425
66,261	-18,099	267,900	119,183
67,276	-18,258	267,918	119,034
68,290	-17,850	267,614	119,262
69,305	-17,866	267,296	119,094
70,320	-17,982	267,099	118,891
71,334	-18,023	266,942	118,772
72,349	-17,894	266,590	118,723
73,363	-18,074	266,442	118,483
74,378	-18,030	266,256	118,429
75,393	-17,959	265,993	118,366
76,407	-18,079	265,799	118,161
77,422	-18,000	265,580	118,124
78,436	-17,900	265,175	118,024
79,451	-17,988	265,071	117,888
80,466	-17,889	264,696	117,799
81,480	-18,143	264,596	117,516
82,495	-18,169	264,477	117,429
83,509	-17,930	264,225	117,521
84,524	-17,954	264,042	117,408
85,539	-18,017	263,801	117,234
86,553	-18,120	263,707	117,089
87,568	-17,834	263,435	117,215
88,582	-18,045	263,111	116,871
89,597	-17,997	262,949	116,832
90,611	-17,820	262,701	116,870
91,626	-17,952	262,510	116,656
92,641	-18,060	262,422	116,510
93,655	-18,097	262,130	116,337
94,670	-17,886	261,868	116,398
95,684	-17,910	261,685	116,285
96,699	-18,049	261,596	116,112
97,714	-18,012	261,259	115,984
98,728	-17,939	261,312	116,063
99,743	-18,030	260,952	115,811
100,757	-17,869	260,554	115,767
101,772	-18,113	260,547	115,537
102,787	-17,928	260,256	115,562
103,801	-17,815	260,002	115,539
104,816	-17,949	259,967	115,394
105,830	-17,867	259,598	115,293
106,845	-17,964	259,536	115,170
107,860	-17,892	259,103	115,031
108,874	-17,907	259,114	115,012
109,889	-17,759	258,800	114,993
110,903	-18,013	258,574	114,658
111,918	-18,128	258,525	114,525
112,933	-17,840	258,294	114,666
113,947	-17,845	258,073	114,553
114,962	-17,924	257,729	114,321
115,976	-17,808	257,649	114,377
116,991	-18,006	257,544	114,147
118,006	-17,702	257,208	114,254
119,020	-17,986	257,086	113,941
120,035	-17,819	256,859	113,976
121,049	-18,076	256,786	113,709
122,064	-17,849	256,537	113,787
123,079	-18,021	256,299	113,521
124,093	-17,838	256,074	113,571
125,108	-17,965	255,963	113,401
126,122	-17,850	255,831	113,433
127,137	-17,827	255,447	113,271
128,151	-18,007	255,558	113,155
129,166	-17,847	255,285	113,162
130,181	-17,870	254,834	112,932
131,195	-17,888	254,838	112,909
132,210	-17,983	254,472	112,654
133,224	-17,910	254,378	112,666
134,239	-17,800	254,213	112,677
135,254	-17,884	253,843	112,431
136,268	-17,880	253,826	112,416
137,283	-17,829	253,526	112,318
138,297	-17,731	253,389	112,331
139,312	-17,954	253,145	112,021
140,327	-17,876	252,888	111,965
141,341	-17,737	252,658	111,972
142,356	-17,813	252,461	111,810
143,370	-17,856	252,372	111,724
144,385	-17,862	252,280	111,668
145,400	-17,869	251,945	111,503
146,414	-17,812	251,701	111,434
147,429	-17,863	251,554	111,316
148,443	-17,849	251,434	111,264
149,458	-17,855	251,154	111,126
150,473	-17,875	251,050	111,053
151,487	-17,889	250,765	110,904
152,502	-17,774	250,530	110,889
153,516	-17,986	250,521	110,695
154,531	-17,838	250,274	110,702
155,546	-17,879	250,207	110,628
156,560	-17,788	249,957	110,584
157,575	-17,921	249,782	110,384
158,589	-17,815	249,426	110,306
159,604	-17,828	249,244	110,205
160,619	-17,761	249,040	110,162
161,633	-17,940	248,901	109,940
162,648	-17,837	248,800	109,971
163,662	-17,773	248,617	109,935
164,677	-17,826	248,500	109,829
165,692	-17,884	248,119	109,602
166,706	-17,836	248,088	109,618
167,721	-17,815	247,952	109,567
168,735	-17,895	247,765	109,407
169,750	-17,827	247,587	109,376
170,764	-17,747	247,497	109,393
171,779	-17,884	247,336	109,197
172,794	-17,627	247,292	109,383
173,808	-17,784	246,961	109,096
174,823	-17,761	246,808	109,038
175,837	-17,907	246,637	108,831
176,852	-17,824	246,513	108,836
177,867	-17,690	246,455	108,912
178,881	-17,742	246,177	108,736
179,896	-17,922	245,989	108,494
180,910	-17,745	245,737	108,520
181,925	-17,902	245,617	108,327
182,940	-17,827	245,496	108,326
183,954	-17,759	245,265	108,270
184,969	-17,749	245,049	108,174
185,983	-17,804	244,983	108,090
186,998	-17,728	244,717	108,026
188,013	-17,969	244,533	107,736
189,027	-17,798	244,249	107,742
190,042	-17,908	244,169	107,607
191,056	-17,906	243,989	107,520
192,071	-17,697	243,854	107,622
193,086	-17,712	243,667	107,518
194,100	-17,693	243,504	107,452
195,115	-17,880	243,356	107,224
196,129	-17,657	243,049	107,262
197,144	-17,712	242,763	107,080
198,159	-17,956	242,732	106,858
199,173	-17,719	242,465	106,924
200,188	-17,818	242,302	106,762
201,202	-17,706	242,174	106,788
202,217	-17,569	242,076	106,847
203,232	-17,779	241,826	106,556
204,246	-17,628	241,492	106,522
205,261	-17,759	241,493	106,406
206,275	-16,304	241,947	107,783
207,290	-11,268	243,932	112,796
208,304	-5,348	245,701	118,493
209,319	-3,328	246,003	120,296
210,334	-2,560	246,090	120,960
211,348	-1,893	246,139	121,524
212,363	-1,350	246,330	122,055
213,377	-0,559	246,359	122,711
214,392	0,069	246,461	123,269
215,407	0,517	246,504	123,648
216,421	0,637	246,254	123,611
217,436	0,573	245,960	123,399
218,450	0,405	245,929	123,235
219,465	0,460	245,919	123,264
220,480	0,722	245,743	123,380
221,494	0,559	245,545	123,136
222,509	0,270	245,229	122,729
223,523	0,151	244,881	122,447
224,538	0,165	244,716	122,365
225,553	-0,016	244,619	122,158
226,567	-0,083	244,416	121,991
227,582	0,161	244,260	122,101
228,596	-0,196	244,278	121,808
229,611	0,119	243,968	121,900
230,626	0,065	243,817	121,769
231,640	0,069	243,583	121,644
232,655	-0,016	243,462	121,505
233,669	0,037	243,297	121,454
234,684	0,017	243,146	121,352
235,699	0,098	243,011	121,339
236,713	0,058	242,850	121,215
237,728	-0,012	242,836	121,141
238,742	0,044	242,543	121,029
239,757	0,090	242,421	120,995
240,772	-0,077	242,301	120,789
241,786	0,355	241,997	120,975
242,801	-0,087	241,860	120,540
243,815	0,005	241,779	120,563
244,830	0,076	241,658	120,549
245,844	0,220	241,486	120,569
246,859	0,009	241,302	120,296
247,874	0,273	240,968	120,331
248,888	0,084	240,962	120,165
249,903	0,067	240,762	120,041
250,917	0,261	240,554	120,083
251,932	0,211	240,643	120,076
252,947	0,097	240,419	119,862
253,961	0,181	240,231	119,825
254,976	0,094	240,034	119,646
255,990	-0,021	239,881	119,468
257,005	0,062	239,733	119,450
258,020	0,058	239,661	119,399
259,034	0,230	239,479	119,436
260,049	0,036	239,291	119,177
261,063	0,248	239,070	119,225
262,078	-0,149	239,022	118,874
263,093	-0,039	238,778	118,830
264,107	0,100	238,700	118,891
265,122	0,034	238,543	118,749
266,136	-0,012	238,409	118,636
267,151	0,227	238,192	118,706
268,166	0,207	238,021	118,595
269,180	0,047	237,853	118,374
270,195	0,045	237,636	118,253
271,209	-0,037	237,576	118,148
272,224	0,232	237,345	118,235
273,239	-0,063	237,290	117,964
274,253	-0,052	237,175	117,906
275,268	0,196	236,941	117,974
276,282	0,003	236,861	117,772
277,297	0,147	236,680	117,785
278,312	0,141	236,398	117,629
279,326	0,094	236,359	117,562
280,341	0,227	236,277	117,615
281,355	-0,057	236,124	117,306
282,370	0,059	235,950	117,301
283,384	0,112	235,873	117,293
284,399	0,198	235,616	117,222
285,414	-0,052	235,377	116,897
286,428	0,198	235,213	117,001
287,443	0,396	235,085	117,081
288,457	0,058	235,076	116,802
289,472	0,438	234,870	116,986
290,487	0,391	234,672	116,840
291,501	0,205	234,617	116,658
292,516	0,361	234,420	116,670
293,530	0,139	234,345	116,451
294,545	0,396	234,135	116,535
295,560	0,282	233,889	116,314
296,574	0,262	233,770	116,229
297,589	0,130	233,632	116,047
298,603	0,096	233,522	115,956
299,618	0,348	233,360	116,060
300,633	0,366	233,314	116,041
301,647	0,348	233,173	115,947
302,662	0,585	233,097	116,082
303,676	0,343	232,838	115,756
304,691	0,420	232,598	115,686
305,706	0,310	232,450	115,517
306,720	0,468	232,372	115,590
307,735	0,461	232,256	115,516
308,749	0,355	232,133	115,363
309,764	0,339	231,927	115,238
310,779	0,274	231,695	115,063
311,793	0,258	231,610	114,998
312,808	0,444	231,594	115,123
313,822	0,331	231,367	114,913
314,837	0,457	231,102	114,867
315,852	0,527	231,101	114,910
316,866	0,374	230,816	114,641
317,881	0,398	230,813	114,648
318,895	0,455	230,501	114,526
319,910	0,497	230,451	114,523
320,925	0,304	230,323	114,302
321,939	0,493	230,247	114,399
322,954	0,390	230,033	114,203
323,968	0,404	229,893	114,134
324,983	0,589	229,711	114,174
325,997	0,524	229,536	114,028
327,012	0,521	229,466	113,981
328,027	0,269	229,168	113,631
329,041	0,459	229,268	113,815
330,056	0,491	229,060	113,726
331,070	0,578	228,889	113,697
332,085	0,517	228,534	113,464
333,100	0,619	228,382	113,456
334,114	0,547	228,306	113,353
335,129	0,435	228,275	113,243
336,143	0,610	228,182	113,319
337,158	0,528	227,989	113,151
338,173	0,569	227,921	113,139
339,187	0,614	227,685	113,045
340,202	0,441	227,538	112,831
341,216	0,509	227,454	112,831
342,231	0,650	227,216	112,809
343,246	0,627	227,103	112,725
344,260	0,656	226,969	112,671
345,275	0,692	226,901	112,654
346,289	0,692	226,742	112,565
347,304	0,520	226,671	112,391
348,319	0,655	226,477	112,386
349,333	0,729	226,223	112,305
350,348	0,614	226,083	112,140
351,362	0,662	225,965	112,107
352,377	0,711	225,867	112,085
353,392	0,648	225,681	111,935
354,406	0,647	225,514	111,842
355,421	192,142	1313,714	1379,655
356,435	153,900	1446,152	1379,499
