DTS Sentinel unit serial number:	SN410029Multiplexer serial number:	ORYXHardware model number:	OX2-SRSoftware version number:	ORYX F/W v4,00 Oryx Data Collector v3.7.2.0data status	okinstallation	B5 Nyhavnadifferential loss correction	single-endedforward channel	channel 2reverse channel	N/Adate	2023/12/14time	16:37:13forward acquisition time	300,00reverse acquisition time	0,00gamma	499,1914k internal	0,3157k external	0,3157temperature offset calibration	1,0000default loss term (dB/km)	0,3820temperature slope calibration	1,0000multiplexer offset coefficient	1,0000multiplexer slope coefficient	1,0000fibre end	0,00T internal ref (°C)	8,02T ext. ref 1 (°C)	-7,48T ext. ref 2 (°C)	-7,52length (m)	temperature (°C)	Stokes	anti-Stokes-744,400	-37,740	0,083	0,032
-743,385	-82,048	-0,379	-0,091
-742,371	161,766	0,146	0,150
-741,356	-147,744	-0,423	-0,026
-740,342	-1,973	0,219	0,113
-739,327	-154,942	-0,460	-0,022
-738,312	36,229	0,134	0,087
-737,298	-56,370	-0,503	-0,164
-736,283	-108,349	0,133	0,021
-735,269	-6,727	-0,320	-0,160
-734,254	109,587	0,120	0,106
-733,239	-110,202	-0,614	-0,093
-732,225	-162,438	0,237	0,008
-731,210	-73,352	-0,042	0,011
-730,196	-138,838	0,144	-0,011
-729,181	154,233	0,058	-0,059
-728,167	97,696	0,034	-0,029
-727,152	-66,975	-0,076	-0,022
-726,137	-28,300	-0,089	0,038
-725,123	-200,000	0,014	-0,048
-724,108	-169,230	-0,152	-0,004
-723,094	800,000	-0,008	-0,021
-722,079	-200,000	0,012	-0,152
-721,064	95,457	-0,045	-0,037
-720,050	-131,356	-0,057	0,005
-719,035	52,634	0,073	-0,051
-718,021	312,499	-0,036	0,049
-717,006	-200,000	0,016	0,119
-715,991	34,906	0,031	-0,020
-714,977	40,167	0,026	-0,017
-713,962	217,362	-0,069	-0,081
-712,948	-200,000	-0,002	0,039
-711,933	-114,326	-0,073	-0,010
-710,918	188,363	0,026	-0,028
-709,904	206,499	-0,138	-0,158
-708,889	-200,000	0,017	-0,108
-707,875	-114,902	-0,085	-0,012
-706,860	66,367	-0,137	-0,103
-705,845	162,031	-0,114	0,118
-704,831	160,240	0,091	0,094
-703,816	-164,424	-0,139	-0,005
-702,802	-123,586	0,070	0,008
-701,787	-3,778	-0,061	-0,031
-700,772	-101,323	-0,178	-0,032
-699,758	-29,698	-0,130	-0,054
-698,743	261,545	0,043	-0,055
-697,729	-90,417	-0,051	0,011
-696,714	252,416	0,013	0,016
-695,699	53,437	-0,147	-0,103
-694,685	180,987	-0,076	-0,082
-693,670	305,069	-0,112	-0,153
-692,656	-200,000	-0,000	0,017
-691,641	-90,350	-0,131	-0,028
-690,627	82,771	-0,052	0,041
-689,612	800,000	-0,084	-0,180
-688,597	-200,000	0,005	-0,113
-687,583	800,000	-0,045	-0,100
-686,568	78,813	-0,114	0,090
-685,554	387,250	0,046	0,070
-684,539	-19,620	0,066	-0,030
-683,524	701,752	0,006	-0,013
-682,510	-150,179	-0,077	-0,004
-681,495	159,969	0,062	0,063
-680,481	800,000	0,077	-0,168
-679,466	-26,802	-0,056	0,024
-678,451	-18,006	-0,148	0,068
-677,437	-200,000	0,010	0,115
-676,422	800,000	0,022	0,057
-675,408	-122,558	-0,033	0,004
-674,393	-200,000	-0,007	-0,064
-673,378	800,000	-0,036	-0,087
-672,364	-200,000	-0,021	-0,182
-671,349	-200,000	0,047	-0,160
-670,335	800,000	0,026	-0,055
-669,320	800,000	-0,035	0,078
-668,305	-191,323	0,058	0,000
-667,291	69,042	-0,047	-0,035
-666,276	-132,731	0,123	-0,011
-665,262	714,895	-0,060	-0,117
-664,247	25,349	-0,062	0,038
-663,232	800,000	0,016	-0,036
-662,218	214,137	0,026	0,030
-661,203	513,205	0,020	0,035
-660,189	-200,000	0,025	0,103
-659,174	-9,718	0,035	-0,017
-658,159	-200,000	-0,017	-0,060
-657,145	527,508	-0,094	-0,163
-656,130	-108,066	-0,109	0,017
-655,116	-39,068	0,100	0,038
-654,101	-200,000	0,011	0,039
-653,086	-200,000	0,002	0,067
-652,072	-48,748	-0,068	-0,024
-651,057	135,451	-0,098	-0,093
-650,043	-60,511	0,147	0,046
-649,028	-76,902	0,074	0,019
-648,014	221,356	-0,097	0,115
-646,999	-34,167	0,065	0,026
-645,984	-200,000	0,006	0,135
-644,970	800,000	0,004	-0,011
-643,955	62,240	-0,067	0,049
-642,941	174,134	0,031	-0,032
-641,926	776,636	-0,044	-0,089
-640,911	-73,174	0,121	0,032
-639,897	-200,000	-0,011	-0,068
-638,882	-43,098	-0,006	0,002
-637,868	800,000	-0,104	-0,241
-636,853	-79,939	-0,052	0,013
-635,838	76,681	-0,112	-0,087
-634,824	-200,000	0,005	-0,115
-633,809	683,022	-0,039	-0,075
-632,795	-166,165	-0,059	0,002
-631,780	303,129	0,039	-0,054
-630,765	-165,793	-0,019	-0,001
-629,751	716,857	-0,037	-0,073
-628,736	76,180	-0,064	-0,049
-627,722	417,461	-0,021	0,033
-626,707	-200,000	0,028	-0,095
-625,692	800,000	-0,026	0,067
-624,678	-75,731	0,127	-0,033
-623,663	-200,000	0,016	-0,104
-622,649	294,539	-0,122	-0,165
-621,634	-48,008	-0,083	-0,029
-620,619	-112,360	0,142	-0,021
-619,605	54,186	-0,024	0,017
-618,590	-32,813	0,085	-0,035
-617,576	-15,189	-0,103	0,048
-616,561	-96,980	-0,177	-0,034
-615,546	-200,000	-0,009	-0,067
-614,532	223,955	-0,107	-0,127
-613,517	369,631	-0,098	0,147
-612,503	-78,075	0,041	-0,010
-611,488	268,177	-0,040	0,052
-610,474	-200,000	-0,009	0,068
-609,459	800,000	-0,034	0,083
-608,444	528,808	-0,041	-0,072
-607,430	533,561	-0,057	-0,099
-606,415	-123,620	-0,062	0,007
-605,401	158,889	0,073	-0,075
-604,386	800,000	-0,014	0,036
-603,371	10,783	-0,029	-0,016
-602,357	800,000	0,040	-0,100
-601,342	-29,376	-0,062	-0,026
-600,328	9,015	-0,139	-0,077
-599,313	202,830	0,046	-0,052
-598,298	312,249	0,050	0,069
-597,284	57,861	-0,079	0,057
-596,269	40,030	0,067	0,044
-595,255	-50,620	0,071	0,024
-594,240	800,000	-0,032	-0,096
-593,225	139,116	-0,104	0,101
-592,211	-200,000	-0,006	-0,095
-591,196	800,000	0,017	-0,051
-590,182	-200,000	0,012	-0,055
-589,167	-165,769	-0,083	0,003
-588,152	-200,000	-0,004	-0,072
-587,138	-200,000	0,004	0,112
-586,123	-200,000	-0,015	0,106
-585,109	-200,000	-0,012	0,046
-584,094	-65,289	0,075	-0,022
-583,079	672,724	0,045	0,087
-582,065	-142,054	0,014	0,001
-581,050	267,582	-0,045	-0,058
-580,036	-21,252	-0,152	-0,068
-579,021	-77,079	0,043	-0,011
-578,006	15,170	0,096	-0,055
-576,992	352,110	0,088	0,128
-575,977	-67,810	0,097	0,028
-574,963	201,036	0,012	0,013
-573,948	242,590	-0,030	-0,037
-572,934	-99,142	-0,035	-0,006
-571,919	800,000	-0,122	-0,267
-570,904	-200,000	0,006	-0,107
-569,890	-200,000	0,033	0,108
-568,875	-200,000	0,005	-0,031
-567,861	34,383	-0,110	-0,070
-566,846	-200,000	-0,002	0,110
-565,831	-200,000	0,015	-0,122
-564,817	-200,000	-0,005	-0,145
-563,802	-66,885	-0,052	-0,015
-562,788	203,033	-0,031	-0,035
-561,773	-109,170	-0,038	0,006
-560,758	340,656	0,078	-0,111
-559,744	36,346	-0,104	0,067
-558,729	-80,098	0,126	-0,031
-557,715	75,752	-0,115	0,089
-556,700	-78,683	-0,172	-0,043
-555,685	-200,000	0,005	0,022
-554,671	-183,939	-0,055	-0,001
-553,656	800,000	0,004	-0,007
-552,642	150,436	0,074	0,074
-551,627	-105,752	-0,037	0,006
-550,612	302,884	-0,072	-0,097
-549,598	-112,017	-0,065	0,009
-548,583	44,254	0,062	0,041
-547,569	-200,000	-0,023	-0,149
-546,554	10,365	0,039	-0,022
-545,539	-200,000	0,029	0,131
-544,525	-200,000	0,016	-0,085
-543,510	-5,153	-0,095	-0,048
-542,496	140,757	-0,073	-0,071
-541,481	800,000	-0,035	-0,086
-540,466	-77,955	0,058	-0,014
-539,452	84,402	-0,052	0,042
-538,437	121,685	0,071	-0,065
-537,423	370,656	-0,053	0,079
-536,408	114,217	-0,056	-0,050
-535,393	-200,000	0,024	0,138
-534,379	-10,031	-0,042	-0,020
-533,364	-200,000	-0,003	0,081
-532,350	162,073	0,111	0,114
-531,335	-102,372	-0,082	-0,014
-530,321	-200,000	-0,023	0,091
-529,306	-34,962	0,080	0,032
-528,291	230,314	-0,076	-0,091
-527,277	-62,486	-0,125	-0,038
-526,262	131,049	-0,034	0,032
-525,248	-200,000	-0,013	-0,061
-524,233	-200,000	-0,012	0,095
-523,218	-200,000	-0,016	0,067
-522,204	221,968	0,037	0,044
-521,189	102,618	-0,048	-0,041
-520,175	548,742	-0,036	-0,063
-519,160	-109,612	-0,117	-0,018
-518,145	-140,863	-0,072	-0,005
-517,131	-41,558	0,045	-0,017
-516,116	112,013	0,059	0,052
-515,102	-0,090	-0,148	0,077
-514,087	292,082	0,030	-0,040
-513,072	544,274	0,045	0,079
-512,058	800,000	0,028	-0,091
-511,043	800,000	0,018	0,047
-510,029	778,275	-0,070	-0,140
-509,014	345,202	-0,063	0,091
-507,999	346,427	-0,082	0,118
-506,985	-8,415	0,065	0,032
-505,970	511,906	-0,060	-0,102
-504,956	11,748	-0,081	-0,045
-503,941	78,844	0,202	-0,158
-502,926	30,725	-0,066	-0,041
-501,912	-200,000	-0,018	0,114
-500,897	-200,000	-0,012	0,101
-499,883	-40,748	0,069	0,026
-498,868	10,271	-0,039	-0,021
-497,853	-66,583	0,142	-0,041
-496,839	-71,964	-0,086	0,023
-495,824	800,000	-0,034	0,088
-494,810	52,447	0,114	0,079
-493,795	439,374	0,044	0,071
-492,781	-198,610	-0,123	0,000
-491,766	-200,000	0,025	-0,108
-490,751	-160,110	-0,118	0,005
-489,737	-100,195	0,243	-0,044
-488,722	195,606	-0,060	0,067
-487,708	174,549	0,164	-0,173
-486,693	16,070	-0,050	-0,029
-485,678	-200,000	-0,026	-0,126
-484,664	133,828	0,022	-0,021
-483,649	-125,677	-0,164	0,018
-482,635	76,448	0,072	-0,056
-481,620	800,000	0,030	-0,066
-480,605	-112,335	0,071	0,010
-479,591	800,000	0,071	0,156
-478,576	800,000	0,050	-0,142
-477,562	62,016	-0,087	-0,063
-476,547	-149,264	-0,093	-0,005
-475,532	428,636	-0,012	0,020
-474,518	297,414	-0,058	0,078
-473,503	701,584	0,016	-0,031
-472,489	800,000	-0,061	0,150
-471,474	-200,000	0,010	0,088
-470,459	491,704	-0,053	-0,089
-469,445	800,000	0,035	-0,098
-468,430	102,916	-0,136	-0,116
-467,416	-104,934	-0,101	-0,017
-466,401	800,000	-0,062	0,160
-465,386	-200,000	-0,031	0,175
-464,372	800,000	-0,019	0,054
-463,357	-31,120	-0,091	-0,037
-462,343	-181,365	-0,073	-0,001
-461,328	478,821	-0,047	-0,078
-460,313	-200,000	-0,010	0,088
-459,299	-200,000	0,011	0,056
-458,284	-62,467	-0,168	-0,050
-457,270	800,000	-0,048	0,131
-456,255	-101,429	-0,072	0,013
-455,241	800,000	-0,057	0,147
-454,226	-200,000	0,006	0,047
-453,211	-63,780	0,158	-0,047
-452,197	549,431	-0,028	-0,049
-451,182	597,153	0,024	-0,044
-450,168	-19,406	0,049	-0,022
-449,153	705,455	0,085	0,165
-448,138	-200,000	-0,032	-0,105
-447,124	-45,413	-0,022	0,008
-446,109	357,973	0,048	0,070
-445,095	-174,802	0,134	0,003
-444,080	107,213	0,057	-0,049
-443,065	-55,726	-0,092	-0,030
-442,051	800,000	0,038	-0,100
-441,036	800,000	-0,012	-0,024
-440,022	-200,000	0,008	0,050
-439,007	36,121	-0,044	0,028
-437,992	-200,000	-0,028	0,109
-436,978	-200,000	-0,015	-0,114
-435,963	-200,000	-0,011	0,101
-434,949	785,468	0,038	0,076
-433,934	23,907	-0,051	0,031
-432,919	-200,000	-0,008	-0,032
-431,905	75,284	0,028	-0,022
-430,890	388,889	0,069	0,105
-429,876	-200,000	-0,008	0,059
-428,861	-82,089	-0,114	0,027
-427,846	-144,988	-0,077	-0,005
-426,832	129,014	0,054	-0,051
-425,817	275,074	0,033	-0,042
-424,803	-200,000	0,013	0,000
-423,788	168,822	-0,040	0,041
-422,773	102,292	0,039	-0,033
-421,759	-72,374	0,071	0,019
-420,744	-83,956	0,093	0,021
-419,730	143,807	-0,114	0,111
-418,715	-134,049	-0,140	0,012
-417,701	160,036	0,074	-0,075
-416,686	380,173	-0,036	-0,053
-415,671	-137,542	0,017	0,001
-414,657	-173,313	0,094	0,002
-413,642	-200,000	0,003	-0,123
-412,628	-65,451	-0,029	-0,008
-411,613	58,295	-0,056	-0,040
-410,598	-51,962	-0,086	0,029
-409,584	800,000	0,042	0,097
-408,569	-6,813	0,078	0,038
-407,555	114,029	-0,108	0,095
-406,540	-119,257	0,115	-0,014
-405,525	499,888	0,077	-0,130
-404,511	89,802	-0,093	-0,076
-403,496	-61,708	0,053	-0,016
-402,482	79,819	0,134	-0,105
-401,467	474,572	-0,009	-0,014
-400,452	335,463	0,074	0,105
-399,438	77,137	-0,018	-0,014
-398,423	111,648	0,069	-0,060
-397,409	233,140	0,048	-0,057
-396,394	92,188	0,052	0,042
-395,379	-11,099	0,029	-0,014
-394,365	-200,000	0,029	0,151
-393,350	169,501	-0,085	-0,088
-392,336	640,159	-0,050	0,094
-391,321	298,475	-0,023	0,031
-390,306	1,998	-0,059	0,031
-389,292	-200,000	0,020	-0,117
-388,277	-153,618	-0,065	0,003
-387,263	281,884	-0,089	-0,117
-386,248	100,167	0,074	0,063
-385,233	-200,000	-0,005	-0,032
-384,219	85,672	-0,080	-0,064
-383,204	36,758	-0,042	-0,027
-382,190	-147,181	0,065	0,004
-381,175	506,839	0,071	0,121
-380,160	-200,000	-0,023	-0,104
-379,146	212,108	0,080	-0,092
-378,131	-200,000	0,000	-0,018
-377,117	-61,147	0,081	0,025
-376,102	284,190	-0,061	0,080
-375,088	331,056	-0,078	-0,110
-374,073	243,735	0,027	-0,034
-373,058	-200,000	-0,008	-0,076
-372,044	-118,471	0,202	-0,026
-371,029	-32,662	-0,075	-0,030
-370,015	-4,538	-0,082	0,041
-369,000	174,925	-0,029	-0,031
-367,985	-28,089	-0,099	-0,042
-366,971	175,286	-0,021	0,022
-365,956	50,638	0,057	0,039
-364,942	-104,097	0,081	0,014
-363,927	-14,215	0,142	0,066
-362,912	-200,000	-0,026	0,115
-361,898	127,854	0,032	-0,029
-360,883	521,759	-0,041	-0,070
-359,869	-48,118	-0,078	-0,027
-358,854	-200,000	0,039	0,150
-357,839	-34,797	0,132	0,052
-356,825	-144,759	0,124	0,008
-355,810	800,000	-0,044	0,089
-354,796	800,000	-0,059	-0,170
-353,781	-200,000	0,017	-0,064
-352,766	800,000	0,048	0,124
-351,752	168,490	0,077	0,080
-350,737	16,300	0,141	0,081
-349,723	64,692	-0,162	-0,119
-348,708	359,396	-0,032	-0,046
-347,693	219,164	-0,058	-0,068
-346,679	800,000	-0,036	-0,091
-345,664	800,000	-0,009	-0,028
-344,650	319,167	0,041	0,057
-343,635	11,605	-0,080	0,044
-342,620	-117,731	0,117	0,015
-341,606	77,393	0,084	-0,065
-340,591	-76,221	0,089	0,023
-339,577	29,539	-0,040	0,024
-338,562	-200,000	0,004	-0,147
-337,548	-200,000	0,009	0,140
-336,533	-200,000	-0,013	-0,052
-335,518	547,657	0,029	-0,050
-334,504	742,463	0,025	-0,049
-333,489	-200,000	0,008	-0,095
-332,475	-51,424	0,137	0,046
-331,460	-200,000	-0,029	0,100
-330,445	497,020	0,029	-0,049
-329,431	-200,000	-0,010	0,074
-328,416	23,569	0,107	0,064
-327,402	-200,000	0,013	0,055
-326,387	193,600	-0,033	-0,036
-325,372	342,014	0,063	-0,090
-324,358	12,175	-0,103	0,058
-323,343	-200,000	-0,143	-0,000
-322,329	-200,000	0,008	0,116
-321,314	314,933	0,053	0,072
-320,299	-174,727	-0,051	-0,001
-319,285	800,000	0,058	0,144
-318,270	-47,543	0,132	-0,046
-317,256	-200,000	0,016	0,075
-316,241	-31,077	-0,091	0,037
-315,226	800,000	0,016	0,034
-314,212	800,000	0,074	0,165
-313,197	78,562	0,062	0,048
-312,183	-200,000	-0,009	-0,033
-311,168	-54,732	-0,026	0,009
-310,153	-200,000	0,005	-0,045
-309,139	-54,964	-0,058	0,019
-308,124	-55,132	0,036	0,012
-307,110	394,968	0,049	0,075
-306,095	-3,359	0,126	0,063
-305,080	195,798	0,047	-0,052
-304,066	800,000	0,064	-0,147
-303,051	142,484	-0,051	0,049
-302,037	-200,000	-0,004	0,045
-301,022	183,060	0,035	-0,038
-300,008	800,000	0,027	0,081
-298,993	-0,795	-0,153	0,078
-297,978	45,956	0,064	0,043
-296,964	-200,000	-0,013	0,065
-295,949	79,635	0,097	-0,075
-294,935	18,067	-0,041	0,024
-293,920	-200,000	-0,005	-0,028
-292,905	800,000	-0,025	-0,058
-291,891	-200,000	0,037	-0,135
-290,876	465,004	0,109	0,177
-289,862	-156,932	0,058	0,003
-288,847	800,000	0,021	-0,053
-287,832	288,553	-0,034	0,044
-286,818	566,499	-0,098	-0,173
-285,803	-200,000	-0,026	-0,140
-284,789	587,790	0,095	0,170
-283,774	9,222	0,023	0,012
-282,759	-104,358	0,108	0,018
-281,745	800,000	0,050	-0,132
-280,730	126,016	-0,158	-0,144
-279,716	800,000	0,010	-0,025
-278,701	15,569	0,055	0,031
-277,686	-200,000	0,001	0,005
-276,672	629,481	-0,018	0,033
-275,657	-78,926	0,028	0,007
-274,643	176,731	-0,098	-0,103
-273,628	-20,406	-0,098	-0,043
-272,613	800,000	-0,045	0,102
-271,599	76,484	0,074	0,057
-270,584	601,444	0,048	0,087
-269,570	800,000	-0,023	0,055
-268,555	-44,272	-0,088	0,032
-267,540	30,608	0,124	0,077
-266,526	51,137	-0,083	-0,057
-265,511	6,320	0,057	0,030
-264,497	-124,097	0,134	-0,015
-263,482	-200,000	-0,007	-0,071
-262,467	107,076	0,089	0,077
-261,453	387,882	0,060	0,089
-260,438	-200,000	0,002	0,073
-259,424	800,000	0,039	0,109
-258,409	120,022	-0,056	0,051
-257,395	28,286	0,066	0,041
-256,380	148,713	0,069	0,067
-255,365	267,222	0,098	0,124
-254,351	134,005	0,089	0,084
-253,336	-200,000	0,009	0,183
-252,322	252,147	-0,084	0,104
-251,307	3,455	0,043	-0,022
-250,292	553,470	0,060	-0,105
-249,278	199,528	0,037	-0,041
-248,263	103,892	-0,050	-0,043
-247,249	800,000	0,023	0,065
-246,234	-200,000	0,010	-0,162
-245,219	182,038	-0,131	-0,139
-244,205	137,825	0,040	-0,038
-243,190	65,772	0,086	-0,063
-242,176	800,000	0,032	-0,086
-241,161	800,000	-0,039	0,115
-240,146	171,386	0,063	-0,065
-239,132	-200,000	0,001	-0,043
-238,117	397,269	0,041	-0,063
-237,103	800,000	0,055	-0,115
-236,088	-134,106	0,048	0,004
-235,073	261,461	0,053	0,066
-234,059	-200,000	0,030	0,217
-233,044	-200,000	-0,017	0,181
-232,030	-200,000	-0,032	-0,136
-231,015	-200,000	-0,001	0,065
-230,000	-7,847	0,052	-0,025
-228,986	800,000	0,009	-0,024
-227,971	800,000	-0,050	0,103
-226,957	-70,078	0,039	0,011
-225,942	800,000	0,022	-0,051
-224,927	203,618	-0,026	0,030
-223,913	-20,614	-0,064	0,028
-222,898	27,337	0,096	-0,058
-221,884	-200,000	0,005	0,049
-220,869	-54,201	0,151	-0,049
-219,855	-200,000	0,010	0,051
-218,840	-200,000	-0,013	0,099
-217,825	612,190	0,015	0,028
-216,811	-200,000	-0,003	-0,065
-215,796	-87,884	-0,084	0,018
-214,782	-200,000	-0,009	-0,045
-213,767	28,537	0,116	0,071
-212,752	-200,000	0,027	0,139
-211,738	31,832	0,046	0,028
-210,723	-23,147	-0,013	-0,006
-209,709	-200,000	-0,007	-0,204
-208,694	-172,536	-0,196	-0,004
-207,679	109,439	-0,015	-0,013
-206,665	683,858	0,095	0,181
-205,650	-108,451	-0,119	-0,018
-204,636	-66,814	0,094	-0,027
-203,621	234,981	-0,079	0,094
-202,606	-127,630	0,042	0,004
-201,592	195,101	-0,096	-0,105
-200,577	-117,189	0,233	0,030
-199,563	-5,167	0,108	-0,054
-198,548	-33,789	0,032	0,013
-197,533	45,312	-0,019	0,012
-196,519	-200,000	-0,007	0,154
-195,504	439,100	0,035	0,056
-194,490	-200,000	-0,041	-0,134
-193,475	-10,640	-0,108	-0,051
-192,460	108,892	-0,047	0,040
-191,446	110,782	0,171	0,148
-190,431	62,610	0,080	0,057
-189,417	357,009	-0,020	-0,028
-188,402	-57,366	0,039	-0,012
-187,387	-200,000	-0,004	-0,132
-186,373	-200,000	-0,024	-0,100
-185,358	-200,000	-0,002	0,036
-184,344	400,490	0,088	0,133
-183,329	-56,748	0,126	-0,040
-182,315	451,524	0,112	0,179
-181,300	97,734	-0,122	-0,101
-180,285	27,795	0,020	-0,012
-179,271	-200,000	0,001	-0,117
-178,256	284,512	0,047	0,061
-177,242	-200,000	-0,009	0,053
-176,227	-200,000	0,009	0,072
-175,212	800,000	0,030	0,065
-174,198	2,330	-0,070	0,036
-173,183	-72,084	-0,085	-0,023
-172,169	38,960	-0,046	0,029
-171,154	248,023	-0,044	-0,054
-170,139	-200,000	0,028	0,088
-169,125	99,548	0,147	0,123
-168,110	145,082	-0,030	0,029
-167,096	-200,000	0,002	-0,010
-166,081	-200,000	-0,010	-0,179
-165,066	653,854	0,037	-0,069
-164,052	-123,053	-0,142	-0,016
-163,037	191,993	-0,103	0,113
-162,023	85,179	-0,049	0,038
-161,008	-43,538	0,038	0,014
-159,993	302,010	0,054	-0,072
-158,979	-200,000	-0,013	-0,112
-157,964	800,000	-0,030	-0,097
-156,950	800,000	-0,039	-0,089
-155,935	-200,000	-0,020	0,091
-154,920	182,111	0,075	-0,079
-153,906	-200,000	0,013	-0,074
-152,891	-53,728	0,042	-0,014
-151,877	-136,156	0,019	-0,002
-150,862	351,467	-0,025	-0,035
-149,847	-67,941	-0,050	0,014
-148,833	139,439	-0,043	-0,040
-147,818	-200,000	0,005	-0,065
-146,804	-74,776	0,094	-0,024
-145,789	195,914	-0,006	0,007
-144,775	692,152	-0,031	0,059
-143,760	-38,243	0,090	-0,034
-142,745	-200,000	-0,008	0,041
-141,731	64,127	-0,108	0,078
-140,716	23,504	-0,025	-0,015
-139,702	197,720	0,046	-0,051
-138,687	342,879	-0,069	0,098
-137,672	-200,000	0,002	-0,012
-136,658	573,979	-0,124	-0,218
-135,643	-200,000	-0,000	-0,071
-134,629	169,212	-0,029	-0,030
-133,614	-0,917	-0,052	-0,026
-132,599	-69,550	0,064	-0,018
-131,585	-23,188	0,092	0,040
-130,570	-8,104	-0,197	0,095
-129,556	178,005	0,050	0,053
-128,541	-200,000	0,010	-0,094
-127,526	-200,000	-0,010	0,132
-126,512	185,486	0,099	0,106
-125,497	108,000	0,119	0,102
-124,483	-94,888	-0,187	0,036
-123,468	-200,000	0,009	-0,038
-122,453	518,824	-0,066	-0,112
-121,439	-200,000	-0,031	0,276
-120,424	278,658	-0,058	-0,075
-119,410	-26,246	-0,028	-0,012
-118,395	-17,864	0,129	0,058
-117,380	-200,000	0,003	0,089
-116,366	-136,072	-0,075	0,006
-115,351	800,000	-0,052	0,108
-114,337	-100,362	-0,082	0,015
-113,322	-200,000	-0,009	-0,050
-112,307	-14,855	0,040	0,018
-111,293	-200,000	-0,058	0,185
-110,278	319,755	0,062	0,086
-109,264	190,124	-0,059	-0,064
-108,249	161,787	-0,038	-0,038
-107,234	-63,675	-0,085	0,025
-106,220	-200,000	0,042	-0,150
-105,205	-19,496	0,093	0,041
-104,191	-55,591	0,046	0,015
-103,176	-200,000	-0,007	0,094
-102,162	327,779	-0,039	-0,054
-101,147	-113,194	0,104	-0,015
-100,132	-27,195	-0,122	-0,051
-99,118	-85,452	-0,047	-0,010
-98,103	267,893	-0,027	0,034
-97,089	-7,732	0,064	-0,031
-96,074	250,299	-0,065	0,079
-95,059	-26,658	0,142	0,059
-94,045	-200,000	-0,006	0,055
-93,030	92,331	-0,106	-0,086
-92,016	800,000	-0,049	-0,103
-91,001	306,587	0,071	0,095
-89,986	800,000	-0,019	0,045
-88,972	-200,000	0,007	0,121
-87,957	5,530	0,053	-0,028
-86,943	-200,000	0,016	0,079
-85,928	74,470	0,110	0,083
-84,913	189,086	-0,142	0,153
-83,899	43,319	-0,063	0,041
-82,884	-63,405	0,134	0,039
-81,870	558,441	0,020	0,035
-80,855	121,835	-0,077	0,069
-79,840	157,515	-0,081	0,080
-78,826	800,000	-0,065	0,166
-77,811	112,661	-0,080	-0,069
-76,797	-73,546	0,067	-0,017
-75,782	-200,000	-0,009	-0,039
-74,767	156,330	0,098	0,098
-73,753	800,000	-0,015	0,039
-72,738	-6,251	-0,068	-0,033
-71,724	-153,266	-0,118	-0,006
-70,709	-31,472	0,018	-0,007
-69,694	790,595	-0,036	-0,072
-68,680	219,937	0,032	-0,037
-67,665	-200,000	-0,000	0,071
-66,651	34,115	0,027	0,017
-65,636	187,445	-0,108	-0,116
-64,622	202,712	-0,056	-0,062
-63,607	-200,000	-0,051	-0,235
-62,592	30,237	0,057	-0,035
-61,578	37,772	0,087	0,055
-60,563	-147,388	-0,158	0,009
-59,549	54,122	0,093	0,064
-58,534	96,357	-2,662	-2,185
-57,519	24,884	0,301	-0,179
-56,505	-200,000	-1,570	-5,330
-55,490	435,151	1,235	1,934
-54,476	800,000	4,949	11,118
-53,461	-200,000	22,226	347,758
-52,446	800,000	760,228	2299,732
-51,432	515,359	1646,709	2770,619
-50,417	98,400	1610,666	1331,687
-49,403	66,322	1267,282	922,816
-48,388	23,318	1018,342	599,077
-47,373	19,320	985,347	566,454
-46,359	12,920	972,535	538,123
-45,344	8,712	969,124	522,425
-44,330	9,149	967,112	522,750
-43,315	8,134	965,367	518,467
-42,300	8,078	964,222	517,650
-41,286	8,109	963,165	517,161
-40,271	8,116	962,103	516,595
-39,257	8,067	961,235	515,949
-38,242	8,038	960,573	515,479
-37,227	8,020	959,698	514,929
-36,213	7,996	958,864	514,382
-35,198	8,092	957,909	514,162
-34,184	8,088	957,009	513,646
-33,169	8,067	956,257	513,153
-32,154	8,134	955,347	512,862
-31,140	8,094	954,419	512,216
-30,125	8,117	953,612	511,836
-29,111	8,113	952,971	511,459
-28,096	8,095	952,350	511,047
-27,082	8,052	951,594	510,483
-26,067	7,999	950,825	509,879
-25,052	8,071	950,019	509,656
-24,038	8,017	949,324	509,090
-23,023	8,006	948,628	508,661
-22,009	8,075	948,038	508,547
-20,994	8,102	947,393	508,266
-19,979	8,071	946,838	507,851
-18,965	8,058	946,163	507,427
-17,950	8,050	945,551	507,053
-16,936	7,999	944,876	506,508
-15,921	8,035	944,234	506,259
-14,906	7,915	943,671	505,552
-13,892	7,908	942,904	505,100
-12,877	7,924	942,245	504,778
-11,863	7,886	941,718	504,355
-10,848	7,957	941,232	504,299
-9,833	8,093	940,529	504,334
-8,819	7,950	940,180	503,673
-7,804	7,907	939,435	503,118
-6,790	7,992	938,818	503,038
-5,775	8,005	938,185	502,718
-4,760	8,015	937,652	502,446
-3,746	7,992	936,860	501,928
-2,731	7,799	936,262	500,977
-1,717	7,788	935,704	500,625
-0,702	7,790	935,062	500,265
0,313	7,621	934,352	500,106
1,327	11,032	932,070	509,601
2,342	19,750	780,324	449,496
3,356	14,963	448,523	251,130
4,371	-11,160	312,872	147,371
5,386	-14,950	295,630	135,397
6,400	-17,062	289,458	130,461
7,415	-17,272	286,698	128,999
8,429	-18,031	284,845	127,413
9,444	-18,230	284,032	126,844
10,459	-17,927	283,269	126,786
11,473	-18,012	282,585	126,386
12,488	-18,001	282,117	126,177
13,502	-18,021	281,742	125,978
14,517	-17,941	281,301	125,847
15,531	-18,246	280,928	125,375
16,546	-18,079	280,512	125,339
17,561	-18,097	279,921	125,046
18,575	-18,091	279,687	124,936
19,590	-18,109	279,319	124,744
20,604	-18,134	279,167	124,640
21,619	-18,190	278,635	124,339
22,634	-18,230	278,274	124,128
23,648	-18,101	277,959	124,100
24,663	-18,127	277,777	123,982
25,677	-18,034	277,323	123,857
26,692	-18,158	277,139	123,647
27,707	-18,076	276,943	123,626
28,721	-18,072	276,527	123,433
29,736	-18,103	276,312	123,296
30,750	-18,057	275,996	123,188
31,765	-18,181	275,776	122,962
32,780	-18,286	275,664	122,801
33,794	-18,056	275,353	122,869
34,809	-18,024	275,046	122,751
35,823	-18,102	274,889	122,596
36,838	-18,089	274,505	122,426
37,853	-18,101	274,175	122,257
38,867	-17,868	273,854	122,321
39,882	-18,011	273,835	122,168
40,896	-18,046	273,657	122,045
41,911	-17,947	273,390	122,007
42,926	-18,151	272,987	121,627
43,940	-18,025	272,759	121,632
44,955	-18,061	272,594	121,514
45,969	-18,199	272,326	121,255
46,984	-18,037	272,230	121,352
47,999	-18,014	272,030	121,273
49,013	-17,894	271,903	121,318
50,028	-17,932	271,641	121,155
51,042	-17,804	271,115	121,028
52,057	-17,908	271,038	120,886
53,071	-17,877	270,860	120,825
54,086	-17,998	270,561	120,568
55,101	-18,106	270,468	120,417
56,115	-17,862	270,083	120,460
57,130	-18,015	269,877	120,216
58,144	-17,874	269,490	120,163
59,159	-18,013	269,287	119,933
60,174	-18,153	269,206	119,758
61,188	-18,114	268,951	119,671
62,203	-18,099	268,719	119,570
63,217	-17,870	268,492	119,668
64,232	-18,052	268,263	119,389
65,247	-17,973	268,034	119,349
66,261	-17,997	267,709	119,171
67,276	-17,850	267,475	119,191
68,290	-17,843	267,353	119,132
69,305	-18,000	267,206	118,913
70,320	-18,035	266,936	118,750
71,334	-17,978	266,627	118,654
72,349	-17,963	266,285	118,504
73,363	-18,098	266,159	118,315
74,378	-17,884	265,965	118,413
75,393	-17,810	265,742	118,370
76,407	-18,048	265,592	118,077
77,422	-17,952	265,345	118,043
78,436	-17,975	265,142	117,922
79,451	-18,048	264,846	117,714
80,466	-17,874	264,681	117,787
81,480	-17,854	264,350	117,648
82,495	-18,087	264,150	117,338
83,509	-17,976	263,978	117,351
84,524	-17,967	263,830	117,283
85,539	-17,873	263,530	117,223
86,553	-17,931	263,393	117,100
87,568	-17,932	263,211	117,008
88,582	-17,954	262,907	116,843
89,597	-17,919	262,721	116,781
90,611	-17,974	262,555	116,647
91,626	-17,877	262,267	116,596
92,641	-17,919	262,047	116,450
93,655	-17,913	261,831	116,349
94,670	-17,987	261,686	116,208
95,684	-17,867	261,403	116,179
96,699	-17,938	261,310	116,064
97,714	-17,979	261,116	115,931
98,728	-17,894	260,858	115,882
99,743	-17,917	260,800	115,825
100,757	-17,891	260,534	115,720
101,772	-17,802	260,206	115,642
102,787	-17,904	259,984	115,443
103,801	-17,903	259,839	115,370
104,816	-18,028	259,680	115,178
105,830	-17,913	259,543	115,209
106,845	-17,965	259,241	115,019
107,860	-17,942	258,966	114,907
108,874	-18,005	258,910	114,816
109,889	-17,859	258,736	114,857
110,903	-17,861	258,260	114,634
111,918	-17,811	258,110	114,601
112,933	-17,741	257,890	114,555
113,947	-17,907	257,852	114,381
114,962	-17,991	257,508	114,145
115,976	-17,917	257,399	114,151
116,991	-18,182	257,194	113,819
118,006	-18,028	257,070	113,888
119,020	-17,950	256,835	113,842
120,035	-18,067	256,760	113,697
121,049	-17,925	256,323	113,616
122,064	-17,741	256,230	113,725
123,079	-17,875	255,996	113,495
124,093	-18,021	256,019	113,368
125,108	-17,666	255,677	113,515
126,122	-17,834	255,591	113,321
127,137	-18,075	255,453	113,040
128,151	-18,000	255,313	113,034
129,166	-17,977	254,995	112,903
130,181	-17,866	254,649	112,835
131,195	-17,752	254,429	112,826
132,210	-17,863	254,325	112,674
133,224	-17,859	253,982	112,516
134,239	-17,930	253,951	112,430
135,254	-17,778	253,637	112,412
136,268	-17,679	253,462	112,410
137,283	-17,807	253,309	112,222
138,297	-17,701	253,110	112,215
139,312	-17,774	252,885	112,042
140,327	-17,849	252,570	111,829
141,341	-17,824	252,496	111,807
142,356	-17,778	252,382	111,787
143,370	-17,864	252,037	111,550
144,385	-17,775	251,994	111,597
145,400	-17,908	251,770	111,375
146,414	-17,940	251,461	111,200
147,429	-17,861	251,413	111,237
148,443	-17,922	251,238	111,097
149,458	-17,994	251,042	110,940
150,473	-17,851	250,727	110,911
151,487	-17,703	250,551	110,949
152,502	-17,638	250,409	110,932
153,516	-17,831	250,152	110,645
154,531	-17,948	250,118	110,521
155,546	-17,829	249,875	110,504
156,560	-17,716	249,607	110,471
157,575	-17,773	249,450	110,344
158,589	-17,671	249,285	110,347
159,604	-17,790	249,172	110,187
160,619	-18,041	248,966	109,875
161,633	-17,719	248,724	110,029
162,648	-17,909	248,628	109,817
163,662	-17,693	248,406	109,891
164,677	-17,661	248,185	109,810
165,692	-17,646	248,121	109,785
166,706	-17,724	248,064	109,683
167,721	-17,754	247,704	109,490
168,735	-17,886	247,582	109,316
169,750	-17,712	247,377	109,361
170,764	-17,943	247,314	109,130
171,779	-17,731	247,306	109,294
172,794	-17,782	246,855	109,042
173,808	-17,887	246,804	108,923
174,823	-17,820	246,582	108,871
175,837	-17,767	246,490	108,865
176,852	-17,848	246,409	108,752
177,867	-17,822	246,092	108,623
178,881	-18,007	246,065	108,449
179,896	-17,595	245,764	108,648
180,910	-17,701	245,539	108,451
181,925	-17,856	245,445	108,271
182,940	-17,843	245,261	108,191
183,954	-17,892	245,048	108,047
184,969	-17,840	244,924	108,026
185,983	-17,956	244,780	107,856
186,998	-17,666	244,556	107,988
188,013	-17,746	244,323	107,809
189,027	-17,802	244,197	107,698
190,042	-17,737	243,835	107,582
191,056	-18,024	243,958	107,390
192,071	-17,880	243,643	107,361
193,086	-17,817	243,494	107,337
194,100	-17,745	243,364	107,330
195,115	-17,750	243,102	107,200
196,129	-17,803	243,047	107,123
197,144	-17,794	242,752	106,991
198,159	-17,799	242,361	106,805
199,173	-17,743	242,421	106,867
200,188	-17,800	242,211	106,718
201,202	-17,565	242,028	106,820
202,217	-17,416	241,731	106,802
203,232	-17,482	241,718	106,732
204,246	-17,889	241,447	106,272
205,261	-17,664	241,446	106,445
206,275	-16,144	241,942	107,894
207,290	-11,577	243,369	112,264
208,304	-6,038	245,303	117,713
209,319	-3,204	245,891	120,323
210,334	-2,572	246,068	120,920
211,348	-1,858	245,953	121,441
212,363	-1,348	246,147	121,946
213,377	-0,634	245,976	122,438
214,392	-0,273	246,198	122,835
215,407	0,098	246,420	123,240
216,421	0,273	246,110	123,218
217,436	0,211	245,875	123,039
218,450	0,258	245,713	122,986
219,465	0,518	245,640	123,152
220,480	0,376	245,619	123,014
221,494	0,261	245,247	122,722
222,509	0,276	245,038	122,619
223,523	0,060	244,867	122,345
224,538	-0,169	244,721	122,074
225,553	0,139	244,574	122,242
226,567	0,204	244,265	122,129
227,582	0,094	244,087	121,940
228,596	0,087	244,065	121,912
229,611	-0,154	243,972	121,659
230,626	-0,199	243,719	121,485
231,640	-0,053	243,573	121,520
232,655	-0,100	243,354	121,361
233,669	-0,054	243,108	121,265
234,684	-0,230	243,134	121,125
235,699	-0,013	242,794	121,121
236,713	0,005	242,684	121,069
237,728	0,177	242,493	121,102
238,742	-0,085	242,334	120,801
239,757	-0,077	242,259	120,758
240,772	-0,050	241,967	120,624
241,786	-0,041	241,899	120,587
242,801	0,094	241,707	120,589
243,815	-0,024	241,466	120,364
244,830	-0,005	241,354	120,311
245,844	0,024	241,272	120,284
246,859	0,053	240,988	120,154
247,874	-0,039	241,013	120,083
248,888	0,073	240,849	120,080
249,903	0,017	240,588	119,894
250,917	-0,232	240,705	119,742
251,932	-0,006	240,269	119,696
252,947	0,058	240,209	119,707
253,961	0,023	240,093	119,609
254,976	-0,043	239,876	119,438
255,990	-0,092	239,725	119,313
257,005	0,149	239,595	119,430
258,020	0,002	239,462	119,236
259,034	0,040	239,221	119,135
260,049	0,056	239,041	119,048
261,063	0,006	238,828	118,892
262,078	-0,130	238,795	118,756
263,093	-0,175	238,672	118,649
264,107	-0,049	238,539	118,672
265,122	0,119	238,234	118,643
266,136	0,029	238,180	118,534
267,151	-0,051	237,925	118,333
268,166	-0,034	237,874	118,311
269,180	0,051	237,622	118,242
270,195	0,177	237,439	118,240
271,209	0,189	237,604	118,321
272,224	-0,037	237,249	117,955
273,239	0,021	237,059	117,897
274,253	0,098	236,887	117,861
275,268	-0,008	236,563	117,606
276,282	-0,006	236,598	117,615
277,297	-0,035	236,432	117,499
278,312	-0,117	236,342	117,379
279,326	-0,178	236,202	117,251
280,341	0,186	235,963	117,408
281,355	0,078	235,860	117,261
282,370	0,058	235,762	117,186
283,384	-0,070	235,619	117,005
284,399	0,034	235,370	116,952
285,414	-0,025	235,236	116,828
286,428	0,204	235,083	116,922
287,443	0,167	234,980	116,831
288,457	0,214	234,793	116,764
289,472	0,011	234,751	116,574
290,487	0,119	234,529	116,538
291,501	-0,013	234,418	116,369
292,516	0,157	234,248	116,407
293,530	-0,014	234,165	116,222
294,545	0,188	233,793	116,185
295,560	0,206	233,708	116,145
296,574	0,122	233,643	116,037
297,589	0,188	233,519	116,017
298,603	0,249	233,408	115,999
299,618	0,357	233,114	115,926
300,633	0,186	233,181	115,817
301,647	0,139	232,945	115,653
302,662	0,286	232,739	115,653
303,676	0,388	232,564	115,635
304,691	0,322	232,438	115,511
305,706	0,383	232,201	115,430
306,720	0,234	232,032	115,221
307,735	0,320	231,997	115,260
308,749	0,476	231,883	115,312
309,764	0,175	231,807	115,033
310,779	0,248	231,615	114,983
311,793	0,327	231,438	114,946
312,808	0,234	231,359	114,826
313,822	0,239	231,171	114,726
314,837	0,319	231,007	114,695
315,852	0,335	230,885	114,637
316,866	0,228	230,689	114,448
317,881	0,399	230,443	114,446
318,895	0,361	230,552	114,461
319,910	0,362	230,300	114,326
320,925	0,412	230,066	114,238
321,939	0,446	229,885	114,163
322,954	0,431	229,766	114,083
323,968	0,451	229,725	114,068
324,983	0,531	229,497	114,005
325,997	0,317	229,397	113,783
327,012	0,412	229,277	113,785
328,027	0,665	228,929	113,794
329,041	0,544	228,713	113,585
330,056	0,568	228,698	113,586
331,070	0,386	228,660	113,419
332,085	0,410	228,441	113,318
333,100	0,452	228,357	113,298
334,114	0,633	228,030	113,262
335,129	0,448	227,981	113,088
336,143	0,540	227,822	113,069
337,158	0,308	227,888	112,917
338,173	0,534	227,602	112,935
339,187	0,762	227,451	113,021
340,202	0,368	227,296	112,638
341,216	0,514	227,171	112,676
342,231	0,383	226,981	112,473
343,246	0,442	227,022	112,528
344,260	0,642	226,834	112,574
345,275	0,626	226,563	112,418
346,289	0,457	226,481	112,241
347,304	0,620	226,328	112,276
348,319	0,551	226,191	112,147
349,333	0,521	226,114	112,077
350,348	0,582	225,964	112,038
351,362	0,705	225,722	111,999
352,377	0,516	225,741	111,858
353,392	0,666	225,536	111,858
354,406	0,677	225,408	111,793
355,421	193,244	1310,999	1380,069
356,435	154,841	1443,114	1379,913
