DTS Sentinel unit serial number:	SN410029Multiplexer serial number:	ORYXHardware model number:	OX2-SRSoftware version number:	ORYX F/W v4,00 Oryx Data Collector v3.7.2.0data status	okinstallation	B5 Nyhavnadifferential loss correction	single-endedforward channel	channel 2reverse channel	N/Adate	2023/12/12time	19:57:13forward acquisition time	300,00reverse acquisition time	0,00gamma	499,1914k internal	0,3157k external	0,3157temperature offset calibration	1,0000default loss term (dB/km)	0,3820temperature slope calibration	1,0000multiplexer offset coefficient	1,0000multiplexer slope coefficient	1,0000fibre end	0,00T internal ref (°C)	15,38T ext. ref 1 (°C)	-1,24T ext. ref 2 (°C)	-1,53length (m)	temperature (°C)	Stokes	anti-Stokes-744,400	577,622	0,100	0,181
-743,385	-140,247	-0,367	-0,028
-742,371	-136,044	0,086	-0,007
-741,356	-96,712	-0,462	0,089
-740,342	471,813	0,112	0,187
-739,327	-65,085	-0,412	0,122
-738,312	800,000	0,055	0,122
-737,298	37,710	-0,161	-0,105
-736,283	367,277	0,039	0,058
-735,269	-100,220	-0,293	0,053
-734,254	-45,635	0,098	0,036
-733,239	-10,585	-0,560	-0,272
-732,225	-33,961	0,079	0,032
-731,210	800,000	-0,016	0,032
-730,196	-200,000	-0,017	-0,105
-729,181	800,000	-0,016	0,041
-728,167	114,227	0,050	-0,045
-727,152	202,974	0,078	-0,089
-726,137	-144,271	-0,105	0,007
-725,123	212,550	0,048	-0,056
-724,108	333,043	-0,105	-0,150
-723,094	200,424	-0,149	-0,169
-722,079	-48,203	0,202	-0,071
-721,064	-200,000	0,029	0,114
-720,050	-85,303	0,036	0,008
-719,035	-145,336	-0,087	-0,006
-718,021	72,741	-0,098	0,075
-717,006	201,327	-0,147	-0,168
-715,991	248,315	-0,062	-0,078
-714,977	90,899	-0,085	-0,070
-713,962	-200,000	0,023	0,075
-712,948	251,920	0,075	0,094
-711,933	-34,309	-0,093	0,037
-710,918	-76,121	-0,118	-0,031
-709,904	-200,000	-0,035	-0,119
-708,889	0,839	-0,030	-0,016
-707,875	107,894	-0,065	0,057
-706,860	-200,000	0,020	-0,081
-705,845	-83,404	0,158	0,037
-704,831	57,545	0,076	0,055
-703,816	30,484	-0,082	0,051
-702,802	-200,000	-0,027	-0,126
-701,787	22,665	-0,101	0,060
-700,772	-200,000	0,005	-0,155
-699,758	-200,000	0,027	-0,129
-698,743	81,986	0,032	0,026
-697,729	-78,452	-0,049	-0,012
-696,714	-200,000	0,030	0,097
-695,699	285,766	0,009	0,011
-694,685	214,520	-0,076	0,088
-693,670	-200,000	0,000	0,045
-692,656	800,000	-0,002	-0,004
-691,641	-149,099	-0,093	0,005
-690,627	290,913	0,045	-0,061
-689,612	356,344	-0,060	0,088
-688,597	227,686	0,059	-0,071
-687,583	235,685	-0,046	-0,056
-686,568	279,988	-0,057	-0,076
-685,554	259,646	-0,046	-0,059
-684,539	74,640	0,124	0,096
-683,524	287,037	0,032	0,043
-682,510	-1,391	-0,076	0,039
-681,495	12,080	0,053	-0,030
-680,481	71,094	-0,104	0,079
-679,466	546,879	0,057	-0,100
-678,451	144,773	0,036	-0,035
-677,437	-0,413	-0,123	-0,064
-676,422	-78,661	0,072	0,018
-675,408	3,664	-0,035	0,019
-674,393	-190,008	0,018	0,000
-673,378	-58,081	-0,040	0,013
-672,364	149,596	-0,057	0,057
-671,349	6,842	-0,119	-0,065
-670,335	800,000	0,029	-0,089
-669,320	800,000	-0,095	-0,204
-668,305	223,791	-0,113	-0,134
-667,291	-84,476	0,033	-0,008
-666,276	701,175	0,041	0,079
-665,262	-200,000	0,001	-0,079
-664,247	-191,727	-0,071	-0,001
-663,232	-137,468	-0,103	-0,008
-662,218	-34,395	-0,166	0,066
-661,203	-200,000	-0,044	-0,143
-660,189	-80,473	0,051	0,012
-659,174	800,000	-0,031	-0,099
-658,159	-108,064	-0,054	0,009
-657,145	156,156	-0,124	-0,126
-656,130	164,571	0,070	0,073
-655,116	472,238	-0,040	0,067
-654,101	483,012	-0,043	0,073
-653,086	60,887	0,011	0,008
-652,072	-200,000	-0,011	-0,070
-651,057	-74,242	-0,072	-0,019
-650,043	-108,257	-0,036	-0,006
-649,028	461,735	0,029	-0,048
-648,014	-200,000	-0,021	0,079
-646,999	800,000	-0,024	0,055
-645,984	117,131	0,114	-0,103
-644,970	-200,000	-0,003	-0,083
-643,955	296,187	0,072	0,098
-642,941	-11,854	-0,120	-0,058
-641,926	-200,000	0,029	-0,096
-640,911	800,000	0,007	0,023
-639,897	-136,802	0,086	0,007
-638,882	500,755	0,020	-0,034
-637,868	306,359	0,131	0,180
-636,853	800,000	-0,072	-0,191
-635,838	-200,000	0,014	0,092
-634,824	-31,963	-0,153	0,063
-633,809	7,289	0,044	-0,024
-632,795	-35,148	-0,071	0,028
-631,780	800,000	0,026	0,062
-630,765	-11,744	-0,028	0,013
-629,751	800,000	-0,046	0,097
-628,736	12,579	0,020	0,011
-627,722	-200,000	-0,038	0,141
-626,707	-200,000	0,016	-0,067
-625,692	127,575	-0,069	-0,065
-624,678	-9,717	-0,060	0,029
-623,663	-200,000	0,006	-0,054
-622,649	-155,468	-0,093	-0,004
-621,634	-200,000	-0,024	-0,110
-620,619	230,854	0,024	0,029
-619,605	-200,000	-0,004	0,028
-618,590	-200,000	0,013	0,082
-617,576	-24,412	0,081	-0,035
-616,561	800,000	0,062	-0,142
-615,546	-85,165	-0,183	-0,042
-614,532	-200,000	0,020	0,069
-613,517	800,000	-0,080	-0,165
-612,503	143,878	0,084	0,082
-611,488	-165,491	-0,084	0,003
-610,474	800,000	-0,035	0,091
-609,459	800,000	-0,040	-0,096
-608,444	800,000	-0,049	-0,105
-607,430	628,876	0,113	-0,210
-606,415	-23,129	0,045	-0,020
-605,401	800,000	-0,018	-0,047
-604,386	209,977	0,094	0,109
-603,371	-191,677	0,067	0,000
-602,357	32,938	-0,131	0,083
-601,342	560,129	-0,005	-0,008
-600,328	800,000	-0,013	-0,037
-599,313	247,050	0,065	-0,081
-598,298	-50,559	0,087	-0,030
-597,284	-26,810	0,081	-0,035
-596,269	-111,174	-0,072	-0,011
-595,255	-21,121	-0,098	0,044
-594,240	84,269	0,131	-0,105
-593,225	800,000	-0,033	-0,079
-592,211	-200,000	-0,000	0,031
-591,196	800,000	0,008	-0,016
-590,182	-200,000	0,022	-0,071
-589,167	559,773	0,063	0,112
-588,152	-69,887	-0,061	-0,017
-587,138	277,453	0,059	0,077
-586,123	184,018	-0,066	-0,072
-585,109	800,000	-0,072	0,148
-584,094	20,175	0,149	-0,088
-583,079	-66,605	0,034	-0,010
-582,065	-200,000	-0,028	0,128
-581,050	345,776	0,050	0,072
-580,036	534,081	-0,029	-0,051
-579,021	-103,235	0,072	-0,012
-578,006	-27,205	-0,092	-0,039
-576,992	-200,000	-0,002	0,114
-575,977	800,000	-0,016	-0,049
-574,963	-200,000	-0,045	0,178
-573,948	410,890	0,019	-0,030
-572,934	-200,000	-0,001	-0,003
-571,919	-127,325	0,069	0,007
-570,904	-200,000	0,046	-0,171
-569,890	-84,395	-0,163	-0,037
-568,875	75,902	0,018	0,014
-567,861	384,092	-0,046	0,070
-566,846	-25,269	0,042	0,018
-565,831	800,000	-0,041	0,088
-564,817	-52,522	-0,112	-0,038
-563,802	41,738	0,099	-0,066
-562,788	577,135	-0,021	-0,039
-561,773	357,954	0,040	-0,059
-560,758	-200,000	-0,002	0,031
-559,744	-200,000	-0,033	0,119
-558,729	275,795	0,015	-0,020
-557,715	177,630	0,050	-0,053
-556,700	54,660	0,033	-0,023
-555,685	34,608	0,114	-0,073
-554,671	9,556	0,101	-0,056
-553,656	-200,000	-0,003	0,166
-552,642	-200,000	-0,020	0,105
-551,627	-200,000	-0,016	-0,103
-550,612	-200,000	-0,002	0,093
-549,598	8,140	0,045	-0,025
-548,583	-21,297	-0,149	-0,066
-547,569	-95,171	-0,129	-0,025
-546,554	359,943	0,070	-0,103
-545,539	-77,567	-0,040	-0,010
-544,525	5,043	0,143	-0,077
-543,510	-200,000	0,003	0,029
-542,496	800,000	-0,033	-0,090
-541,481	-50,658	-0,106	-0,036
-540,466	299,914	0,056	0,076
-539,452	136,738	0,038	-0,037
-538,437	-200,000	0,002	0,195
-537,423	-93,088	0,068	-0,014
-536,408	-61,478	0,052	-0,016
-535,393	-200,000	0,014	-0,065
-534,379	-80,142	-0,033	-0,008
-533,364	160,537	-0,119	0,122
-532,350	179,161	-0,055	0,059
-531,335	500,922	0,103	0,174
-530,321	244,419	-0,078	0,096
-529,306	-200,000	-0,020	-0,070
-528,291	21,718	-0,077	0,046
-527,277	-58,295	-0,068	-0,022
-526,262	-200,000	0,002	-0,070
-525,248	564,787	-0,049	-0,088
-524,233	619,523	-0,021	0,039
-523,218	24,071	0,090	0,054
-522,204	104,110	-0,080	0,068
-521,189	21,094	-0,155	-0,092
-520,175	7,353	-0,042	0,023
-519,160	157,049	-0,044	-0,044
-518,145	482,016	0,025	0,042
-517,131	219,758	-0,015	-0,017
-516,116	65,560	0,062	0,046
-515,102	-200,000	-0,014	0,178
-514,087	32,595	0,142	0,089
-513,072	262,762	-0,033	-0,042
-512,058	294,258	-0,034	-0,045
-511,043	604,457	-0,060	0,109
-510,029	800,000	0,028	0,081
-509,014	11,397	0,128	0,072
-507,999	800,000	0,040	-0,086
-506,985	-200,000	-0,012	0,055
-505,970	-200,000	0,040	-0,164
-504,956	-129,725	-0,045	-0,004
-503,941	60,998	0,052	0,038
-502,926	-20,303	0,085	0,038
-501,912	-200,000	-0,014	0,131
-500,897	-94,059	-0,128	0,025
-499,883	-156,198	0,049	-0,002
-498,868	-123,308	-0,151	-0,017
-497,853	-200,000	-0,008	-0,081
-496,839	-200,000	0,009	-0,095
-495,824	-91,272	-0,060	-0,012
-494,810	800,000	-0,047	0,098
-493,795	-125,376	0,078	-0,009
-492,781	800,000	-0,016	-0,033
-491,766	-32,583	-0,080	0,032
-490,751	-158,653	-0,160	-0,007
-489,737	-200,000	-0,028	-0,099
-488,722	204,086	0,060	0,068
-487,708	-200,000	-0,006	-0,151
-486,693	90,431	-0,136	0,111
-485,678	67,862	-0,046	-0,035
-484,664	189,780	0,041	-0,044
-483,649	-200,000	-0,007	-0,131
-482,635	-144,439	-0,076	-0,005
-481,620	-200,000	-0,012	0,101
-480,605	-13,131	0,080	0,038
-479,591	-200,000	0,008	0,082
-478,576	421,321	0,041	0,064
-477,562	12,864	-0,039	-0,022
-476,547	613,704	-0,039	-0,072
-475,532	310,318	0,058	-0,080
-474,518	337,609	0,034	-0,048
-473,503	-200,000	-0,002	-0,121
-472,489	-200,000	0,022	-0,079
-471,474	282,722	-0,084	0,110
-470,459	-200,000	-0,024	-0,105
-469,445	-110,235	0,101	0,015
-468,430	-200,000	0,011	-0,047
-467,416	-200,000	0,012	0,067
-466,401	713,276	0,070	-0,135
-465,386	800,000	0,042	-0,089
-464,372	-200,000	0,014	0,067
-463,357	296,322	-0,066	-0,088
-462,343	-200,000	-0,004	-0,033
-461,328	-98,214	-0,024	-0,004
-460,313	60,419	0,078	-0,056
-459,299	800,000	0,045	0,133
-458,284	-200,000	0,006	-0,034
-457,270	-103,024	0,123	0,021
-456,255	543,809	0,025	-0,043
-455,241	51,783	-0,077	-0,053
-454,226	138,449	0,052	0,050
-453,211	8,936	-0,066	0,036
-452,197	-163,951	0,143	0,005
-451,182	181,839	0,059	-0,063
-450,168	-10,506	-0,153	-0,074
-449,153	-26,768	0,051	-0,021
-448,138	24,383	-0,154	-0,093
-447,124	24,014	-0,093	0,056
-446,109	-57,621	0,075	-0,024
-445,095	-51,336	0,107	0,036
-444,080	414,374	0,053	0,082
-443,065	-200,000	-0,021	-0,109
-442,051	800,000	-0,009	-0,023
-441,036	-200,000	-0,001	-0,034
-440,022	444,184	0,008	0,012
-439,007	-200,000	0,010	0,173
-437,992	-115,844	0,144	0,019
-436,978	45,384	-0,056	0,037
-435,963	198,996	0,068	0,076
-434,949	800,000	-0,042	-0,116
-433,934	-200,000	0,007	-0,121
-432,919	19,728	-0,023	0,014
-431,905	800,000	0,036	-0,077
-430,890	144,020	-0,060	0,059
-429,876	-200,000	-0,028	0,115
-428,861	-200,000	0,056	0,220
-427,846	217,671	-0,025	0,029
-426,832	398,782	0,044	0,068
-425,817	2,497	-0,090	0,047
-424,803	-200,000	-0,026	-0,114
-423,788	625,301	-0,011	0,020
-422,773	590,511	-0,059	0,107
-421,759	122,690	0,125	-0,114
-420,744	86,657	-0,094	0,076
-419,730	-200,000	-0,001	0,052
-418,715	264,434	0,101	0,129
-417,701	-200,000	0,000	0,010
-416,686	175,232	0,066	0,070
-415,671	179,636	0,079	0,084
-414,657	-55,265	0,137	-0,045
-413,642	-182,796	0,050	-0,001
-412,628	-200,000	0,017	-0,089
-411,613	21,178	0,036	-0,021
-410,598	2,212	0,030	0,016
-409,584	800,000	-0,041	0,097
-408,569	107,082	-0,032	-0,028
-407,555	800,000	-0,073	0,158
-406,540	-200,000	-0,002	-0,032
-405,525	195,094	-0,043	-0,048
-404,511	723,759	-0,019	-0,037
-403,496	643,776	0,043	-0,079
-402,482	277,955	0,098	-0,127
-401,467	-200,000	-0,022	0,082
-400,452	41,732	-0,132	0,087
-399,438	32,970	-0,117	0,074
-398,423	76,646	0,051	-0,039
-397,409	58,096	-0,112	0,080
-396,394	-96,893	-0,075	-0,014
-395,379	-93,365	-0,038	0,008
-394,365	461,065	0,057	0,093
-393,350	457,626	-0,059	-0,095
-392,336	-66,825	0,154	-0,044
-391,321	30,541	0,075	0,047
-390,306	78,907	-0,115	-0,089
-389,292	-32,033	-0,098	-0,040
-388,277	-200,000	0,025	0,095
-387,263	800,000	0,033	0,068
-386,248	-47,719	0,103	-0,036
-385,233	800,000	-0,051	-0,108
-384,219	62,360	-0,051	0,037
-383,204	800,000	-0,021	-0,050
-382,190	357,827	0,026	0,038
-381,175	800,000	-0,022	0,048
-380,160	535,889	-0,034	0,058
-379,146	433,568	0,015	-0,023
-378,131	800,000	0,008	0,026
-377,117	800,000	0,080	-0,179
-376,102	676,194	-0,057	-0,108
-375,088	-83,146	0,043	-0,010
-374,073	800,000	0,059	-0,130
-373,058	11,245	0,014	-0,008
-372,044	-6,018	-0,162	0,080
-371,029	37,992	0,059	-0,038
-370,015	79,390	-0,048	-0,038
-369,000	800,000	0,025	-0,074
-367,985	339,939	-0,050	-0,071
-366,971	-35,439	0,127	-0,050
-365,956	800,000	0,013	0,035
-364,942	-200,000	0,002	0,114
-363,927	-200,000	-0,002	0,045
-362,912	-72,736	0,057	0,015
-361,898	800,000	-0,062	0,131
-360,883	-27,886	0,019	-0,008
-359,869	-141,305	-0,111	-0,008
-358,854	800,000	0,016	-0,040
-357,839	57,367	0,059	0,042
-356,825	800,000	-0,020	-0,062
-355,810	177,723	0,013	0,014
-354,796	-200,000	-0,020	-0,088
-353,781	-200,000	0,008	-0,122
-352,766	-200,000	-0,005	-0,047
-351,752	-34,825	0,143	0,056
-350,737	-200,000	0,005	-0,116
-349,723	406,169	0,016	-0,025
-348,708	-136,361	-0,026	-0,002
-347,693	800,000	0,031	0,091
-346,679	800,000	0,029	0,068
-345,664	783,367	0,037	-0,074
-344,650	-16,043	0,089	-0,041
-343,635	-20,550	-0,079	-0,035
-342,620	-200,000	0,000	0,036
-341,606	-10,194	0,009	0,004
-340,591	210,432	-0,090	-0,103
-339,577	77,915	-0,132	-0,102
-338,562	800,000	0,039	0,093
-337,548	4,506	0,050	0,027
-336,533	-200,000	0,015	0,152
-335,518	-200,000	-0,031	0,138
-334,504	-113,746	-0,031	0,004
-333,489	92,556	0,047	-0,039
-332,475	385,818	0,024	0,036
-331,460	800,000	-0,009	0,024
-330,445	29,447	0,107	-0,066
-329,431	800,000	0,038	-0,097
-328,416	326,262	0,062	0,086
-327,402	97,843	0,121	0,101
-326,387	-24,070	-0,067	-0,029
-325,372	-192,326	-0,092	-0,001
-324,358	163,409	-0,040	0,041
-323,343	49,194	0,061	0,042
-322,329	-200,000	0,013	-0,110
-321,314	-49,948	0,044	-0,015
-320,299	172,331	-0,060	0,063
-319,285	-200,000	-0,008	-0,074
-318,270	-200,000	0,028	-0,098
-317,256	800,000	0,034	0,091
-316,241	10,766	0,063	0,035
-315,226	70,541	-0,018	0,013
-314,212	112,817	-0,063	0,056
-313,197	-200,000	-0,003	0,143
-312,183	84,159	0,040	-0,032
-311,168	197,654	-0,042	-0,047
-310,153	800,000	-0,037	-0,118
-309,139	800,000	-0,069	-0,171
-308,124	-19,705	0,099	-0,044
-307,110	652,764	0,042	0,078
-306,095	306,648	0,060	0,082
-305,080	177,230	0,132	0,140
-304,066	-98,961	-0,021	0,004
-303,051	301,243	-0,033	-0,044
-302,037	171,090	-0,037	0,038
-301,022	-4,732	0,056	-0,028
-300,008	-200,000	-0,004	0,020
-298,993	-161,887	0,086	-0,003
-297,978	-200,000	-0,027	-0,126
-296,964	502,883	-0,038	-0,065
-295,949	-28,407	0,057	0,024
-294,935	150,858	-0,109	-0,107
-293,920	-163,391	0,080	-0,003
-292,905	-200,000	-0,011	0,086
-291,891	205,803	0,105	0,118
-290,876	-117,086	-0,063	-0,008
-289,862	136,946	-0,025	0,024
-288,847	800,000	-0,016	-0,034
-287,832	-200,000	-0,016	-0,206
-286,818	-0,027	-0,119	-0,061
-285,803	800,000	-0,038	-0,111
-284,789	-200,000	0,008	-0,038
-283,774	800,000	0,042	0,086
-282,759	-88,176	-0,068	0,015
-281,745	-140,445	0,036	-0,003
-280,730	800,000	-0,068	0,143
-279,716	27,410	-0,055	-0,033
-278,701	-200,000	0,007	-0,035
-277,686	-200,000	0,021	0,100
-276,672	-30,224	-0,084	-0,034
-275,657	-64,021	0,017	0,005
-274,643	-58,758	-0,068	-0,021
-273,628	123,933	-0,016	0,014
-272,613	88,098	0,099	0,079
-271,599	-147,921	-0,029	0,002
-270,584	-96,797	0,141	-0,027
-269,570	-200,000	-0,014	0,192
-268,555	252,754	0,039	-0,048
-267,540	-14,756	-0,059	-0,027
-266,526	87,793	0,101	0,081
-265,511	19,292	-0,088	-0,051
-264,497	573,571	0,048	-0,084
-263,482	-28,071	0,109	0,045
-262,467	-200,000	0,033	-0,121
-261,453	-200,000	0,056	0,000
-260,438	-29,846	0,024	0,010
-259,424	-200,000	-0,015	-0,103
-258,409	-200,000	-0,024	-0,175
-257,395	800,000	0,047	0,121
-256,380	-200,000	0,026	0,154
-255,365	79,348	0,057	-0,044
-254,351	-31,446	-0,017	0,007
-253,336	-200,000	-0,001	0,118
-252,322	-200,000	0,003	-0,103
-251,307	463,654	-0,040	-0,065
-250,292	65,928	0,128	0,094
-249,278	-67,536	-0,147	0,041
-248,263	119,769	0,036	0,032
-247,249	66,052	-0,156	0,114
-246,234	-200,000	-0,017	-0,061
-245,219	-55,699	0,042	-0,014
-244,205	-66,731	-0,053	0,015
-243,190	-200,000	0,011	-0,048
-242,176	-73,393	0,021	-0,005
-241,161	-200,000	-0,005	-0,087
-240,146	800,000	-0,091	0,200
-239,132	594,894	0,042	0,076
-238,117	-200,000	-0,004	0,053
-237,103	800,000	-0,049	-0,131
-236,088	-200,000	-0,008	-0,071
-235,073	74,299	0,120	0,091
-234,059	123,413	0,047	-0,042
-233,044	-143,796	0,146	0,010
-232,030	-200,000	0,041	-0,139
-231,015	-86,553	-0,092	-0,020
-230,000	-200,000	0,001	-0,078
-228,986	-37,188	-0,060	0,023
-227,971	676,815	-0,134	-0,253
-226,957	-200,000	0,004	0,044
-225,942	800,000	-0,061	0,147
-224,927	373,251	0,038	-0,056
-223,913	193,527	0,027	-0,029
-222,898	-200,000	0,001	-0,077
-221,884	36,065	0,174	-0,110
-220,869	71,821	0,051	0,039
-219,855	-112,503	0,041	-0,006
-218,840	82,927	-0,095	-0,075
-217,825	-28,776	0,083	0,034
-216,811	1,292	-0,176	0,091
-215,796	258,927	-0,034	-0,043
-214,782	-77,407	0,200	0,050
-213,767	800,000	-0,005	0,014
-212,752	-200,000	0,026	0,223
-211,738	-200,000	-0,007	0,037
-210,723	-200,000	-0,043	0,145
-209,709	-52,617	0,043	-0,014
-208,694	-5,915	-0,082	-0,040
-207,679	15,594	0,154	-0,087
-206,665	24,482	-0,035	0,021
-205,650	153,134	-0,069	-0,068
-204,636	800,000	0,024	0,066
-203,621	156,632	-0,032	0,032
-202,606	10,939	-0,079	0,043
-201,592	-200,000	-0,022	-0,106
-200,577	-114,117	0,066	0,009
-199,563	127,269	-0,114	0,105
-198,548	266,759	0,083	-0,104
-197,533	215,761	0,030	-0,034
-196,519	15,943	-0,056	-0,032
-195,504	-29,932	-0,012	-0,005
-194,490	781,179	-0,062	-0,124
-193,475	-119,728	0,037	0,005
-192,460	-200,000	0,002	0,131
-191,446	285,337	-0,024	0,031
-190,431	221,289	0,069	0,080
-189,417	-141,951	-0,015	-0,001
-188,402	-27,574	-0,081	-0,034
-187,387	-200,000	-0,146	-0,000
-186,373	-38,395	0,118	-0,045
-185,358	-107,749	-0,046	0,007
-184,344	-11,591	0,033	-0,016
-183,329	-200,000	0,012	-0,040
-182,315	584,584	-0,073	0,130
-181,300	104,931	-0,062	-0,053
-180,285	-200,000	0,007	0,057
-179,271	-39,430	-0,103	0,039
-178,256	-90,170	0,092	0,019
-177,242	-108,547	-0,050	0,008
-176,227	5,186	0,033	0,018
-175,212	-21,925	-0,164	-0,072
-174,198	-100,964	0,017	-0,003
-173,183	-117,476	-0,071	0,009
-172,169	191,431	-0,033	0,036
-171,154	800,000	-0,006	-0,013
-170,139	-99,907	-0,030	-0,005
-169,125	90,029	0,046	0,037
-168,110	-89,246	0,076	0,016
-167,096	315,781	-0,044	0,060
-166,081	220,889	0,019	-0,022
-165,066	119,661	-0,056	0,050
-164,052	257,949	-0,018	0,022
-163,037	160,748	0,048	0,049
-162,023	-90,188	0,106	-0,022
-161,008	800,000	0,052	-0,136
-159,993	800,000	0,025	-0,072
-158,979	800,000	0,017	-0,043
-157,964	30,468	0,086	-0,053
-156,950	800,000	-0,036	0,091
-155,935	128,622	-0,061	0,056
-154,920	-95,138	-0,071	0,014
-153,906	-154,348	0,161	0,008
-152,891	144,591	-0,140	0,134
-151,877	-200,000	-0,008	0,039
-150,862	184,307	-0,085	-0,091
-149,847	-200,000	0,004	-0,016
-148,833	598,001	-0,067	-0,119
-147,818	-112,847	-0,040	0,006
-146,804	515,162	-0,020	0,034
-145,789	523,663	-0,043	-0,074
-144,775	507,146	0,045	-0,076
-143,760	-5,896	-0,083	-0,041
-142,745	-200,000	0,022	0,139
-141,731	800,000	-0,047	-0,130
-140,716	-200,000	0,017	-0,074
-139,702	-104,574	-0,022	-0,004
-138,687	-28,106	-0,175	0,072
-137,672	-39,491	0,099	-0,037
-136,658	800,000	0,028	0,079
-135,643	147,682	-0,117	-0,113
-134,629	37,694	-0,067	0,043
-133,614	-200,000	0,005	-0,086
-132,599	-97,369	0,129	-0,024
-131,585	-138,365	0,058	-0,005
-130,570	-200,000	0,019	0,185
-129,556	-169,827	-0,068	-0,002
-128,541	-29,481	-0,044	0,018
-127,526	-9,786	0,098	-0,047
-126,512	50,053	0,083	-0,056
-125,497	800,000	0,011	-0,029
-124,483	-21,844	-0,140	-0,061
-123,468	800,000	0,033	0,066
-122,453	-200,000	0,007	-0,150
-121,439	-200,000	0,007	0,040
-120,424	-200,000	-0,014	-0,072
-119,410	-200,000	0,033	-0,125
-118,395	61,611	0,036	0,025
-117,380	-43,454	0,050	-0,018
-116,366	-33,052	-0,141	-0,056
-115,351	-200,000	0,005	0,083
-114,337	-44,847	0,139	-0,050
-113,322	-200,000	-0,022	-0,153
-112,307	201,956	0,069	0,077
-111,293	176,943	0,077	-0,081
-110,278	54,509	0,076	-0,052
-109,264	-200,000	0,011	0,095
-108,249	494,606	-0,011	0,019
-107,234	161,719	-0,092	-0,093
-106,220	800,000	-0,009	-0,017
-105,205	273,074	-0,076	-0,097
-104,191	-142,510	0,070	0,005
-103,176	23,413	0,016	-0,009
-102,162	-90,899	0,110	0,023
-101,147	-43,811	0,077	0,028
-100,132	-200,000	-0,034	-0,122
-99,118	800,000	-0,041	-0,087
-98,103	736,820	-0,063	0,121
-97,089	-70,805	0,150	0,040
-96,074	297,412	0,041	0,054
-95,059	800,000	0,022	0,065
-94,045	-200,000	-0,024	-0,258
-93,030	44,990	-0,022	0,015
-92,016	-37,356	0,080	-0,030
-91,001	46,451	0,059	-0,039
-89,986	530,156	-0,058	0,100
-88,972	800,000	0,043	0,110
-87,957	-200,000	0,002	-0,028
-86,943	-67,834	0,075	-0,021
-85,928	-17,940	-0,061	0,028
-84,913	178,287	-0,109	-0,114
-83,899	-60,534	0,077	-0,023
-82,884	-114,660	-0,056	-0,008
-81,870	800,000	-0,042	0,104
-80,855	-175,470	-0,023	0,000
-79,840	9,908	-0,114	0,062
-78,826	17,134	0,030	-0,017
-77,811	-200,000	0,004	-0,046
-76,797	160,971	-0,109	-0,110
-75,782	86,678	0,036	-0,029
-74,767	-200,000	0,027	0,107
-73,753	212,161	0,085	-0,096
-72,738	-99,536	-0,057	0,010
-71,724	-200,000	-0,013	-0,174
-70,709	-108,925	-0,132	-0,020
-69,694	-140,968	-0,071	-0,005
-68,680	-26,105	0,131	-0,055
-67,665	65,616	0,130	0,094
-66,651	468,961	0,091	0,148
-65,636	80,670	-0,036	-0,028
-64,622	403,544	-0,050	0,076
-63,607	287,216	-0,074	-0,097
-62,592	127,008	-0,108	0,098
-61,578	8,221	0,087	-0,047
-60,563	-200,000	-0,005	0,087
-59,549	-200,000	0,007	0,109
-58,534	26,884	-1,897	-1,139
-57,519	-200,000	-0,288	-1,096
-56,505	-200,000	-1,256	-5,005
-55,490	66,388	0,843	0,614
-54,476	800,000	5,367	12,085
-53,461	-200,000	17,524	283,805
-52,446	800,000	727,203	2215,668
-51,432	535,167	1642,820	2807,617
-50,417	109,965	1633,214	1406,383
-49,403	75,178	1285,894	972,153
-48,388	32,042	1027,496	634,342
-47,373	20,154	989,505	571,680
-46,359	18,512	977,295	559,217
-45,344	15,746	973,372	547,900
-44,330	15,930	971,878	547,637
-43,315	15,463	970,044	545,057
-42,300	15,366	969,072	544,175
-41,286	15,459	967,772	543,725
-40,271	15,375	966,986	542,988
-39,257	15,458	965,896	542,627
-38,242	15,355	965,149	541,849
-37,227	15,382	964,291	541,435
-36,213	15,394	963,504	541,009
-35,198	15,392	962,616	540,481
-34,184	15,428	961,929	540,193
-33,169	15,414	960,888	539,540
-32,154	15,456	960,074	539,198
-31,140	15,420	959,119	538,525
-30,125	15,486	958,256	538,231
-29,111	15,449	957,513	537,673
-28,096	15,416	957,038	537,277
-27,082	15,479	956,134	536,954
-26,067	15,413	955,514	536,371
-25,052	15,436	954,650	535,939
-24,038	15,425	954,112	535,580
-23,023	15,366	953,400	534,969
-22,009	15,430	952,828	534,831
-20,994	15,428	952,156	534,429
-19,979	15,453	951,292	534,001
-18,965	15,449	950,744	533,659
-17,950	15,435	950,258	533,321
-16,936	15,339	949,549	532,596
-15,921	15,348	949,005	532,299
-14,906	15,274	948,339	531,667
-13,892	15,271	947,524	531,180
-12,877	15,180	947,032	530,594
-11,863	15,263	946,407	530,486
-10,848	15,285	945,735	530,158
-9,833	15,405	945,254	530,248
-8,819	15,378	944,610	529,781
-7,804	15,315	943,980	529,206
-6,790	15,268	943,666	528,859
-5,775	15,323	942,998	528,640
-4,760	15,312	942,369	528,231
-3,746	15,320	941,692	527,857
-2,731	15,169	940,874	526,899
-1,717	15,069	940,486	526,343
-0,702	15,230	939,440	526,245
0,313	15,015	939,065	526,151
1,327	18,195	936,681	534,785
2,342	26,969	794,150	476,659
3,356	23,534	459,580	270,559
4,371	-3,505	315,387	156,831
5,386	-7,647	297,203	143,568
6,400	-9,633	291,071	138,616
7,415	-10,042	288,692	137,066
8,429	-10,188	287,285	136,243
9,444	-10,206	286,416	135,800
10,459	-10,296	285,771	135,395
11,473	-10,221	285,191	135,181
12,488	-10,258	284,644	134,874
13,502	-10,094	284,177	134,800
14,517	-10,141	283,741	134,535
15,531	-10,012	283,233	134,408
16,546	-10,157	282,868	134,082
17,561	-10,053	282,421	133,958
18,575	-10,086	282,220	133,819
19,590	-10,153	281,892	133,587
20,604	-9,862	281,357	133,602
21,619	-10,096	281,170	133,276
22,634	-9,992	280,751	133,165
23,648	-10,218	280,654	132,891
24,663	-10,118	280,230	132,774
25,677	-9,974	279,969	132,777
26,692	-10,065	279,828	132,611
27,707	-10,055	279,390	132,401
28,721	-10,143	279,182	132,207
29,736	-10,117	278,813	132,045
30,750	-10,133	278,488	131,863
31,765	-10,132	278,320	131,773
32,780	-10,142	278,145	131,669
33,794	-10,074	277,879	131,597
34,809	-10,147	277,696	131,428
35,823	-10,308	277,400	131,124
36,838	-10,164	277,187	131,148
37,853	-10,192	277,022	131,033
38,867	-10,207	276,605	130,809
39,882	-10,251	276,560	130,734
40,896	-10,273	276,259	130,559
41,911	-10,133	275,764	130,446
42,926	-10,140	275,693	130,394
43,940	-10,305	275,555	130,162
44,955	-10,147	275,025	130,048
45,969	-10,260	275,002	129,919
46,984	-10,410	274,693	129,622
47,999	-10,597	274,574	129,379
49,013	-10,560	274,229	129,240
50,028	-10,732	273,969	128,944
51,042	-10,902	273,746	128,669
52,057	-10,805	273,293	128,535
53,071	-10,764	273,129	128,485
54,086	-10,662	272,915	128,468
55,101	-10,500	272,820	128,562
56,115	-10,489	272,781	128,542
57,130	-10,086	272,441	128,745
58,144	-10,041	272,305	128,711
59,159	-9,877	272,045	128,729
60,174	-10,138	271,986	128,448
61,188	-10,146	271,718	128,303
62,203	-9,942	271,431	128,344
63,217	-9,959	271,198	128,207
64,232	-10,107	271,032	127,980
65,247	-9,915	270,609	127,946
66,261	-10,103	270,480	127,700
67,276	-10,079	270,285	127,619
68,290	-10,295	269,969	127,260
69,305	-10,282	269,685	127,127
70,320	-10,386	269,659	127,007
71,334	-10,240	269,536	127,072
72,349	-10,149	269,158	126,966
73,363	-10,183	268,968	126,834
74,378	-10,022	268,722	126,854
75,393	-10,101	268,632	126,727
76,407	-10,066	268,419	126,648
77,422	-10,045	268,160	126,534
78,436	-9,982	267,898	126,457
79,451	-9,931	267,725	126,410
80,466	-9,957	267,298	126,173
81,480	-10,114	267,198	125,972
82,495	-10,279	267,093	125,762
83,509	-10,218	266,903	125,716
84,524	-10,063	266,630	125,717
85,539	-10,447	266,391	125,245
86,553	-10,380	266,167	125,189
87,568	-10,232	266,040	125,252
88,582	-10,239	265,768	125,107
89,597	-10,218	265,561	125,016
90,611	-10,140	265,529	125,061
91,626	-9,808	265,300	125,241
92,641	-9,849	265,111	125,104
93,655	-10,131	264,915	124,747
94,670	-10,203	264,585	124,516
95,684	-10,050	264,278	124,497
96,699	-10,262	264,330	124,320
97,714	-10,197	264,062	124,241
98,728	-10,266	263,727	124,011
99,743	-10,240	263,530	123,930
100,757	-10,372	263,433	123,756
101,772	-10,213	263,299	123,823
102,787	-10,226	263,049	123,684
103,801	-10,369	262,890	123,470
104,816	-10,029	262,617	123,634
105,830	-10,025	262,516	123,579
106,845	-9,807	262,215	123,621
107,860	-9,970	262,041	123,383
108,874	-10,050	261,852	123,212
109,889	-10,110	261,647	123,051
110,903	-10,116	261,348	122,894
111,918	-10,141	261,240	122,810
112,933	-10,311	261,005	122,538
113,947	-10,026	260,831	122,697
114,962	-10,079	260,856	122,652
115,976	-10,021	260,426	122,489
116,991	-9,899	260,133	122,448
118,006	-10,015	260,078	122,309
119,020	-10,249	260,162	122,131
120,035	-9,947	259,880	122,254
121,049	-10,064	259,683	122,048
122,064	-10,060	259,381	121,898
123,079	-10,373	259,376	121,610
124,093	-10,097	258,969	121,650
125,108	-10,149	258,798	121,514
126,122	-10,422	258,613	121,177
127,137	-10,424	258,259	120,999
128,151	-10,399	258,205	120,984
129,166	-10,140	257,991	121,100
130,181	-10,194	257,810	120,957
131,195	-10,120	257,450	120,842
132,210	-10,232	257,352	120,687
133,224	-10,165	257,216	120,671
134,239	-10,210	257,195	120,611
135,254	-10,124	256,938	120,555
136,268	-10,258	256,725	120,327
137,283	-10,376	256,369	120,048
138,297	-10,435	256,088	119,854
139,312	-10,316	255,819	119,820
140,327	-10,174	255,797	119,922
141,341	-9,975	255,755	120,064
142,356	-10,024	255,700	119,985
143,370	-9,944	255,330	119,870
144,385	-9,724	255,212	119,994
145,400	-9,946	255,123	119,749
146,414	-9,836	254,910	119,734
147,429	-9,853	254,702	119,611
148,443	-9,885	254,626	119,537
149,458	-9,893	254,419	119,422
150,473	-9,934	254,135	119,243
151,487	-9,994	254,027	119,131
152,502	-9,901	253,847	119,115
153,516	-9,998	253,754	118,978
154,531	-9,968	253,417	118,834
155,546	-9,797	253,284	118,908
156,560	-9,845	253,027	118,736
157,575	-10,079	252,829	118,432
158,589	-10,159	252,684	118,286
159,604	-9,972	252,430	118,315
160,619	-9,818	252,206	118,331
161,633	-10,028	252,167	118,123
162,648	-9,689	252,072	118,357
163,662	-9,985	251,863	117,997
164,677	-9,816	251,601	118,007
165,692	-9,928	251,506	117,857
166,706	-9,911	251,394	117,808
167,721	-9,860	251,011	117,662
168,735	-9,933	251,026	117,597
169,750	-10,081	250,876	117,390
170,764	-9,865	250,696	117,478
171,779	-10,022	250,606	117,292
172,794	-9,788	250,225	117,302
173,808	-9,812	250,193	117,256
174,823	-10,240	249,888	116,741
175,837	-10,570	249,656	116,345
176,852	-10,059	249,727	116,798
177,867	-10,112	249,717	116,739
178,881	-9,729	249,288	116,849
179,896	-9,858	249,164	116,672
180,910	-9,765	248,966	116,647
181,925	-9,694	248,762	116,601
182,940	-9,917	248,677	116,364
183,954	-9,944	248,604	116,297
184,969	-9,794	248,274	116,257
185,983	-9,917	248,207	116,112
186,998	-10,019	248,038	115,938
188,013	-9,610	247,827	116,170
189,027	-9,874	247,574	115,822
190,042	-9,853	247,403	115,749
191,056	-9,924	247,364	115,661
192,071	-9,800	247,194	115,674
193,086	-9,776	246,900	115,546
194,100	-9,718	246,672	115,478
195,115	-9,806	246,545	115,335
196,129	-9,803	246,403	115,261
197,144	-9,641	246,055	115,222
198,159	-10,060	246,010	114,843
199,173	-9,930	245,857	114,869
200,188	-9,961	245,561	114,695
201,202	-10,180	245,363	114,411
202,217	-10,466	245,147	114,065
203,232	-10,271	244,886	114,094
204,246	-10,132	244,862	114,187
205,261	-9,874	244,675	114,302
206,275	-11,078	244,341	113,146
207,290	-7,451	245,757	116,789
208,304	0,181	248,304	124,344
209,319	3,893	249,180	127,862
210,334	4,439	249,142	128,285
211,348	4,431	249,132	128,261
212,363	4,665	249,043	128,399
213,377	4,771	248,864	128,383
214,392	4,653	248,652	128,164
215,407	4,827	248,502	128,219
216,421	4,728	248,295	128,020
217,436	4,938	248,205	128,136
218,450	5,009	248,172	128,165
219,465	4,606	247,721	127,589
220,480	4,511	247,476	127,373
221,494	4,374	247,454	127,237
222,509	4,413	247,303	127,181
223,523	4,229	247,112	126,919
224,538	3,821	246,871	126,449
225,553	4,120	246,539	126,513
226,567	4,276	246,546	126,633
227,582	4,140	246,383	126,427
228,596	4,412	246,147	126,517
229,611	4,224	246,053	126,304
230,626	3,939	245,897	125,979
231,640	3,886	245,813	125,881
232,655	4,267	245,443	125,991
233,669	4,100	245,417	125,830
234,684	4,079	245,078	125,629
235,699	4,339	245,169	125,877
236,713	4,530	245,141	126,006
237,728	4,227	244,818	125,582
238,742	3,897	244,594	125,188
239,757	4,076	244,437	125,242
240,772	3,988	244,268	125,073
241,786	4,144	244,087	125,096
242,801	3,992	244,010	124,922
243,815	4,085	243,811	124,884
244,830	4,280	243,672	124,960
245,844	4,223	243,482	124,805
246,859	4,369	243,142	124,738
247,874	3,993	243,177	124,440
248,888	4,137	242,967	124,438
249,903	4,384	242,939	124,612
250,917	4,396	242,889	124,585
251,932	4,681	242,627	124,669
252,947	4,347	242,554	124,352
253,961	4,213	242,254	124,079
254,976	4,145	242,252	124,012
255,990	4,357	241,938	124,010
257,005	4,013	241,811	123,658
258,020	3,915	241,654	123,488
259,034	3,878	241,466	123,351
260,049	4,137	241,459	123,545
261,063	4,033	241,117	123,275
262,078	4,030	240,936	123,169
263,093	4,209	240,966	123,316
264,107	4,313	240,658	123,231
265,122	3,996	240,681	122,979
266,136	4,402	240,418	123,157
267,151	4,387	240,369	123,109
268,166	4,014	240,135	122,681
269,180	4,066	239,747	122,513
270,195	4,575	239,894	122,983
271,209	4,785	239,845	123,114
272,224	4,070	239,510	122,362
273,239	3,793	239,187	121,967
274,253	3,757	239,069	121,867
275,268	3,960	239,043	122,004
276,282	4,300	238,923	122,201
277,297	3,978	238,527	121,733
278,312	4,181	238,560	121,900
279,326	4,136	238,347	121,744
280,341	4,279	238,202	121,772
281,355	4,179	238,102	121,632
282,370	4,238	237,992	121,611
283,384	4,254	237,798	121,514
284,399	4,044	237,595	121,234
285,414	4,029	237,347	121,085
286,428	4,062	237,268	121,060
287,443	4,152	237,169	121,069
288,457	4,097	237,049	120,954
289,472	4,497	236,980	121,221
290,487	4,240	236,738	120,885
291,501	4,244	236,446	120,729
292,516	3,656	236,299	120,183
293,530	3,770	236,196	120,209
294,545	4,157	236,175	120,490
295,560	4,273	236,014	120,488
296,574	3,682	235,683	119,847
297,589	4,057	235,555	120,064
298,603	4,221	235,678	120,244
299,618	4,313	235,560	120,244
300,633	4,235	235,353	120,067
301,647	4,283	235,264	120,049
302,662	4,746	235,053	120,290
303,676	4,446	235,034	120,037
304,691	4,289	234,886	119,828
305,706	4,637	234,721	120,003
306,720	4,565	234,515	119,832
307,735	4,502	234,338	119,682
308,749	4,250	234,036	119,322
309,764	4,078	233,928	119,123
310,779	3,856	233,672	118,810
311,793	3,667	233,553	118,594
312,808	3,738	233,213	118,465
313,822	3,894	233,154	118,545
314,837	3,847	232,963	118,400
315,852	3,798	232,813	118,276
316,866	3,990	232,787	118,400
317,881	4,447	232,760	118,728
318,895	4,710	232,709	118,894
319,910	4,845	232,398	118,828
320,925	4,315	232,331	118,375
321,939	3,774	232,147	117,856
322,954	3,915	231,965	117,862
323,968	3,851	231,760	117,698
324,983	4,248	231,746	117,984
325,997	4,754	231,584	118,278
327,012	4,342	231,505	117,912
328,027	4,176	231,301	117,671
329,041	4,702	231,245	118,034
330,056	5,032	231,254	118,280
331,070	4,957	231,126	118,147
332,085	4,419	230,945	117,634
333,100	4,238	230,671	117,345
334,114	4,053	230,502	117,108
335,129	4,593	230,359	117,435
336,143	4,543	230,213	117,313
337,158	4,680	230,026	117,311
338,173	4,395	229,851	116,995
339,187	4,100	229,741	116,705
340,202	4,260	229,611	116,750
341,216	4,241	229,387	116,612
342,231	3,983	229,261	116,341
343,246	4,169	229,059	116,369
344,260	4,432	229,068	116,562
345,275	4,604	228,909	116,601
346,289	4,389	228,820	116,383
347,304	4,740	228,598	116,524
348,319	4,705	228,472	116,423
349,333	4,411	228,380	116,144
350,348	4,199	228,250	115,908
351,362	4,479	228,079	116,022
352,377	4,096	227,605	115,483
353,392	3,993	227,544	115,364
354,406	3,859	227,456	115,209
355,421	195,349	1320,863	1397,316
356,435	156,627	1454,072	1397,306
