DTS Sentinel unit serial number:	SN410029Multiplexer serial number:	ORYXHardware model number:	OX2-SRSoftware version number:	ORYX F/W v4,00 Oryx Data Collector v3.7.2.0data status	okinstallation	B5 Nyhavnadifferential loss correction	single-endedforward channel	channel 2reverse channel	N/Adate	2023/12/13time	16:57:13forward acquisition time	300,00reverse acquisition time	0,00gamma	499,1914k internal	0,3159k external	0,3159temperature offset calibration	1,0000default loss term (dB/km)	0,3820temperature slope calibration	1,0000multiplexer offset coefficient	1,0000multiplexer slope coefficient	1,0000fibre end	0,00T internal ref (°C)	14,35T ext. ref 1 (°C)	-2,91T ext. ref 2 (°C)	-2,99length (m)	temperature (°C)	Stokes	anti-Stokes-744,400	128,149	0,128	0,120
-743,385	-179,562	-0,354	0,006
-742,371	-200,000	0,014	0,071
-741,356	-67,758	-0,357	0,102
-740,342	-22,826	0,134	0,059
-739,327	-109,722	-0,224	0,034
-738,312	-200,000	-0,012	0,083
-737,298	-179,539	-0,217	-0,003
-736,283	-112,584	0,269	-0,039
-735,269	-164,214	-0,239	-0,008
-734,254	4,021	0,088	-0,047
-733,239	-13,312	-0,399	-0,190
-732,225	-67,590	0,163	0,047
-731,210	-90,472	0,059	0,012
-730,196	-200,000	-0,004	-0,059
-729,181	-3,230	0,108	-0,055
-728,167	-52,882	-0,079	0,027
-727,152	-108,082	-0,037	0,006
-726,137	0,996	0,048	-0,025
-725,123	800,000	-0,063	0,169
-724,108	289,970	0,066	-0,088
-723,094	30,168	-0,133	-0,084
-722,079	-200,000	-0,021	-0,137
-721,064	-200,000	-0,010	0,048
-720,050	-145,936	-0,138	-0,009
-719,035	147,045	0,051	0,050
-718,021	-9,195	0,043	0,021
-717,006	-142,859	-0,182	-0,013
-715,991	-200,000	0,014	-0,057
-714,977	-1,591	-0,094	-0,049
-713,962	-124,395	-0,096	-0,011
-712,948	-200,000	0,034	0,179
-711,933	-200,000	-0,022	0,157
-710,918	-200,000	-0,032	0,189
-709,904	-200,000	-0,024	-0,098
-708,889	-3,334	-0,137	0,070
-707,875	17,836	0,083	0,048
-706,860	-200,000	-0,009	-0,058
-705,845	17,083	0,068	-0,040
-704,831	-68,414	0,111	-0,031
-703,816	-34,317	-0,137	0,055
-702,802	195,002	-0,102	-0,115
-701,787	-168,496	-0,034	0,001
-700,772	21,119	-0,037	0,022
-699,758	-200,000	0,030	0,142
-698,743	-200,000	-0,001	-0,033
-697,729	800,000	0,008	-0,022
-696,714	-130,919	-0,112	0,011
-695,699	-200,000	-0,001	0,024
-694,685	-81,842	-0,096	0,023
-693,670	-52,703	-0,141	-0,048
-692,656	-200,000	-0,037	0,140
-691,641	-24,012	0,083	-0,036
-690,627	-200,000	0,020	0,193
-689,612	-200,000	-0,008	-0,039
-688,597	-200,000	0,002	-0,021
-687,583	-114,263	-0,127	-0,018
-686,568	200,123	-0,076	-0,086
-685,554	-7,359	-0,120	0,060
-684,539	12,566	-0,094	0,053
-683,524	96,043	0,140	0,117
-682,510	-200,000	0,001	-0,081
-681,495	298,846	0,034	0,046
-680,481	288,686	0,038	-0,051
-679,466	800,000	-0,038	-0,084
-678,451	193,375	-0,059	-0,066
-677,437	174,207	0,066	0,070
-676,422	-200,000	0,038	0,184
-675,408	200,024	-0,072	-0,081
-674,393	-84,977	0,012	-0,003
-673,378	211,797	-0,080	-0,093
-672,364	164,591	0,080	-0,083
-671,349	-59,364	-0,148	-0,047
-670,335	224,670	-0,049	0,059
-669,320	643,183	0,054	0,102
-668,305	-200,000	0,026	0,083
-667,291	-200,000	-0,001	0,022
-666,276	719,113	-0,067	-0,132
-665,262	800,000	0,007	-0,019
-664,247	242,479	0,049	0,061
-663,232	148,878	0,095	0,094
-662,218	116,684	-0,018	0,017
-661,203	-200,000	0,002	0,018
-660,189	-200,000	-0,010	0,036
-659,174	486,808	-0,062	-0,105
-658,159	-110,095	-0,187	-0,028
-657,145	282,841	-0,042	0,055
-656,130	-25,093	-0,081	0,035
-655,116	800,000	0,005	0,015
-654,101	444,819	-0,016	0,026
-653,086	-48,115	0,142	-0,050
-652,072	800,000	-0,061	-0,133
-651,057	71,696	-0,102	-0,077
-650,043	-50,573	0,043	-0,015
-649,028	-71,336	-0,074	-0,020
-648,014	26,649	0,062	0,038
-646,999	-200,000	0,045	0,155
-645,984	-123,191	-0,135	0,016
-644,970	-48,655	-0,092	0,032
-643,955	623,068	0,061	-0,113
-642,941	168,747	-0,046	0,048
-641,926	-140,456	-0,114	-0,009
-640,911	73,575	0,089	-0,068
-639,897	-178,865	0,143	-0,002
-638,882	3,573	-0,127	-0,068
-637,868	-82,738	0,104	0,025
-636,853	533,278	0,053	-0,093
-635,838	-200,000	-0,002	-0,062
-634,824	-59,030	0,116	0,037
-633,809	145,717	0,062	0,061
-632,795	-200,000	0,016	0,091
-631,780	-200,000	-0,005	0,135
-630,765	112,488	0,111	-0,098
-629,751	-155,166	-0,056	0,003
-628,736	-42,482	-0,137	0,051
-627,722	-198,710	-0,094	0,000
-626,707	90,701	-0,040	0,033
-625,692	143,441	0,091	-0,089
-624,678	800,000	-0,025	-0,070
-623,663	195,381	0,066	-0,074
-622,649	-200,000	0,095	0,000
-621,634	58,617	-0,114	-0,082
-620,619	127,537	0,043	-0,040
-619,605	-200,000	-0,014	0,197
-618,590	83,320	-0,075	0,060
-617,576	56,440	0,134	-0,095
-616,561	800,000	-0,053	0,112
-615,546	-59,075	-0,009	-0,003
-614,532	800,000	0,019	-0,041
-613,517	102,250	0,129	0,110
-612,503	-200,000	-0,024	0,107
-611,488	-200,000	0,004	-0,043
-610,474	800,000	0,036	-0,099
-609,459	-66,133	-0,093	0,027
-608,444	-200,000	0,003	-0,071
-607,430	799,037	-0,013	0,027
-606,415	81,745	-0,094	-0,075
-605,401	50,876	0,104	-0,072
-604,386	-200,000	0,009	0,146
-603,371	143,260	0,117	0,115
-602,357	61,215	-0,016	-0,012
-601,342	800,000	0,030	-0,085
-600,328	202,454	-0,079	-0,090
-599,313	-200,000	-0,009	-0,060
-598,298	800,000	-0,023	0,071
-597,284	35,339	-0,051	-0,033
-596,269	98,236	0,081	-0,069
-595,255	-200,000	0,002	-0,052
-594,240	-46,238	-0,064	-0,023
-593,225	-200,000	0,021	-0,111
-592,211	-200,000	-0,012	-0,101
-591,196	183,607	0,098	0,107
-590,182	494,785	0,107	0,181
-589,167	47,523	0,090	-0,062
-588,152	-200,000	0,020	0,107
-587,138	-200,000	-0,006	-0,074
-586,123	-156,411	-0,110	0,005
-585,109	18,727	0,088	-0,052
-584,094	-200,000	-0,009	0,058
-583,079	-13,721	0,025	0,012
-582,065	167,635	0,075	-0,078
-581,050	-3,264	0,065	-0,033
-580,036	800,000	0,022	0,052
-579,021	800,000	0,036	0,079
-578,006	110,563	0,018	0,016
-576,992	126,432	-0,141	0,131
-575,977	-106,918	-0,050	0,008
-574,963	-163,144	-0,036	0,001
-573,948	286,926	-0,084	0,111
-572,934	-80,555	-0,079	0,019
-571,919	43,567	0,051	-0,034
-570,904	-73,926	-0,076	0,020
-569,890	-200,000	-0,014	0,091
-568,875	-8,753	-0,156	0,076
-567,861	-24,565	0,018	-0,008
-566,846	56,857	-0,095	-0,067
-565,831	-200,000	0,005	-0,096
-564,817	235,452	0,095	0,115
-563,802	119,242	0,035	0,031
-562,788	-142,285	-0,114	0,008
-561,773	111,821	0,036	0,031
-560,758	53,951	0,120	-0,085
-559,744	609,498	0,072	0,133
-558,729	-60,290	-0,044	0,014
-557,715	255,911	-0,080	-0,100
-556,700	-138,591	-0,023	-0,002
-555,685	377,787	-0,025	0,038
-554,671	343,363	-0,027	-0,039
-553,656	-27,018	0,107	0,045
-552,642	300,238	-0,149	0,202
-551,627	800,000	0,013	0,028
-550,612	17,146	0,098	-0,057
-549,598	33,449	-0,060	-0,038
-548,583	-55,727	-0,029	-0,009
-547,569	800,000	-0,051	-0,122
-546,554	0,245	-0,086	-0,045
-545,539	-200,000	-0,020	0,099
-544,525	554,520	-0,062	-0,109
-543,510	631,982	0,054	0,100
-542,496	-12,368	-0,102	-0,048
-541,481	-200,000	-0,051	-0,212
-540,466	-71,232	0,073	-0,020
-539,452	152,866	0,081	-0,081
-538,437	800,000	-0,010	0,021
-537,423	-200,000	0,024	-0,162
-536,408	293,228	0,044	0,059
-535,393	-200,000	-0,005	0,071
-534,379	289,963	-0,068	-0,090
-533,364	-124,092	0,102	0,012
-532,350	63,015	-0,045	0,033
-531,335	-200,000	0,007	-0,085
-530,321	491,713	-0,086	0,145
-529,306	-200,000	0,005	0,038
-528,291	254,121	-0,100	-0,125
-527,277	460,436	-0,017	-0,028
-526,262	1,039	-0,053	-0,027
-525,248	85,364	-0,063	-0,051
-524,233	70,500	0,112	0,084
-523,218	326,310	0,052	0,073
-522,204	-133,274	0,113	0,010
-521,189	64,326	-0,008	0,006
-520,175	-200,000	-0,018	-0,068
-519,160	800,000	-0,049	-0,142
-518,145	24,959	0,116	-0,070
-517,131	-116,838	0,212	-0,028
-516,116	529,824	0,090	0,156
-515,102	-151,307	-0,082	0,004
-514,087	576,664	0,028	-0,049
-513,072	-122,289	-0,085	-0,010
-512,058	-45,956	0,040	-0,014
-511,043	218,345	0,094	0,109
-510,029	34,506	0,124	0,079
-509,014	-200,000	-0,020	0,079
-507,999	800,000	-0,058	-0,139
-506,985	-200,000	-0,001	-0,134
-505,970	-200,000	-0,018	0,058
-504,956	800,000	-0,023	-0,055
-503,941	-200,000	-0,004	-0,061
-502,926	-200,000	0,020	0,227
-501,912	800,000	0,042	0,133
-500,897	-51,770	0,034	-0,012
-499,883	641,694	-0,042	-0,079
-498,868	16,830	-0,139	-0,080
-497,853	575,164	0,051	0,091
-496,839	-93,129	0,063	-0,013
-495,824	25,986	-0,007	0,004
-494,810	287,214	-0,067	0,089
-493,795	800,000	0,022	-0,047
-492,781	65,590	-0,069	0,051
-491,766	800,000	0,034	-0,086
-490,751	-9,926	0,072	-0,035
-489,737	-153,956	-0,122	0,006
-488,722	486,839	-0,022	0,037
-487,708	82,327	0,054	0,043
-486,693	-5,639	-0,048	-0,024
-485,678	-200,000	0,017	-0,139
-484,664	-38,474	0,133	-0,051
-483,649	149,793	-0,058	-0,058
-482,635	800,000	-0,055	-0,113
-481,620	32,769	0,132	0,083
-480,605	55,853	0,037	0,026
-479,591	800,000	-0,081	0,165
-478,576	221,603	0,042	-0,049
-477,562	301,717	0,076	-0,102
-476,547	178,538	-0,098	-0,105
-475,532	415,897	-0,029	-0,045
-474,518	-200,000	0,014	-0,055
-473,503	24,427	-0,014	-0,008
-472,489	-14,244	0,106	0,050
-471,474	-48,134	-0,099	0,034
-470,459	544,262	-0,051	-0,089
-469,445	1,470	-0,045	-0,023
-468,430	129,614	-0,016	0,015
-467,416	129,302	0,087	0,081
-466,401	360,200	-0,041	0,060
-465,386	17,666	0,034	0,020
-464,372	239,561	-0,080	0,097
-463,357	-200,000	-0,020	-0,071
-462,343	512,062	-0,054	0,092
-461,328	-200,000	-0,001	0,068
-460,313	294,979	0,019	0,025
-459,299	-170,503	0,089	0,002
-458,284	316,440	0,137	0,190
-457,270	-97,399	0,096	0,018
-456,255	235,103	-0,141	-0,170
-455,241	-200,000	0,010	-0,048
-454,226	204,582	-0,049	0,056
-453,211	67,837	0,108	0,081
-452,197	-74,782	-0,170	0,044
-451,182	-200,000	0,030	0,161
-450,168	139,617	-0,046	0,044
-449,153	-200,000	-0,024	0,094
-448,138	74,434	0,075	0,057
-447,124	647,310	-0,022	0,040
-446,109	737,461	-0,044	-0,087
-445,095	45,577	0,117	-0,079
-444,080	-200,000	0,008	0,089
-443,065	85,192	0,091	-0,072
-442,051	758,159	-0,058	0,116
-441,036	-106,187	0,098	0,016
-440,022	559,904	-0,007	0,013
-439,007	141,992	-0,028	-0,027
-437,992	446,066	0,073	0,118
-436,978	100,436	0,126	0,107
-435,963	224,870	0,080	0,094
-434,949	800,000	-0,053	0,132
-433,934	308,083	-0,077	-0,105
-432,919	-200,000	-0,009	0,092
-431,905	-24,255	0,027	-0,012
-430,890	800,000	-0,027	0,064
-429,876	588,988	-0,024	0,043
-428,861	-200,000	0,020	-0,094
-427,846	466,710	-0,060	0,098
-426,832	-80,420	0,060	0,015
-425,817	412,567	-0,088	-0,136
-424,803	-154,861	-0,102	0,005
-423,788	57,395	-0,009	0,006
-422,773	-55,494	0,151	-0,049
-421,759	-80,807	0,030	-0,007
-420,744	14,593	-0,047	0,026
-419,730	261,267	-0,080	0,101
-418,715	69,235	0,072	0,054
-417,701	344,265	0,074	0,106
-416,686	-200,000	-0,001	0,014
-415,671	71,168	0,047	-0,035
-414,657	466,684	-0,035	0,057
-413,642	800,000	0,056	0,133
-412,628	101,024	0,065	0,055
-411,613	523,517	0,069	-0,119
-410,598	32,230	0,039	0,025
-409,584	-87,903	0,087	0,019
-408,569	-200,000	-0,010	0,131
-407,555	-200,000	-0,000	0,066
-406,540	-50,050	-0,155	-0,053
-405,525	-200,000	-0,018	-0,103
-404,511	93,088	-0,099	0,081
-403,496	-98,945	-0,103	0,019
-402,482	98,209	-0,097	0,081
-401,467	-81,937	0,100	-0,024
-400,452	-66,968	-0,046	-0,013
-399,438	121,090	0,086	-0,078
-398,423	-200,000	0,019	-0,076
-397,409	-200,000	-0,016	-0,053
-396,394	-200,000	0,013	-0,164
-395,379	800,000	-0,020	-0,043
-394,365	-94,611	0,139	-0,027
-393,350	58,787	0,123	-0,088
-392,336	16,267	0,037	0,021
-391,321	649,920	0,066	-0,123
-390,306	-200,000	0,005	-0,209
-389,292	143,708	-0,023	-0,022
-388,277	77,601	-0,020	0,015
-387,263	153,401	-0,050	0,050
-386,248	-50,172	0,058	-0,020
-385,233	335,285	0,029	0,041
-384,219	-174,282	-0,045	-0,001
-383,204	-200,000	0,003	-0,048
-382,190	-200,000	-0,002	-0,130
-381,175	-200,000	-0,002	-0,050
-380,160	-154,705	0,201	0,010
-379,146	-200,000	-0,020	0,125
-378,131	-200,000	-0,012	-0,211
-377,117	-200,000	-0,004	0,062
-376,102	-51,024	-0,129	0,044
-375,088	149,462	0,099	0,097
-374,073	-200,000	0,028	0,101
-373,058	181,062	0,052	-0,056
-372,044	150,309	0,123	0,121
-371,029	-200,000	-0,004	0,129
-370,015	-200,000	-0,009	0,080
-369,000	73,495	-0,133	0,101
-367,985	-90,630	-0,075	0,016
-366,971	-46,995	-0,109	0,038
-365,956	-49,292	0,085	-0,029
-364,942	-200,000	-0,030	0,137
-363,927	91,802	0,091	0,075
-362,912	-200,000	0,001	-0,113
-361,898	71,376	-0,083	-0,063
-360,883	-54,863	-0,072	0,024
-359,869	-110,768	0,042	0,006
-358,854	17,287	-0,058	0,034
-357,839	-59,876	0,138	-0,043
-356,825	104,478	0,091	0,078
-355,810	-200,000	0,026	-0,125
-354,796	-85,500	0,042	-0,009
-353,781	-200,000	-0,043	-0,140
-352,766	-200,000	0,002	-0,027
-351,752	607,249	-0,016	0,029
-350,737	-166,835	0,036	0,001
-349,723	520,218	-0,045	0,076
-348,708	3,745	-0,091	-0,048
-347,693	-200,000	-0,023	0,078
-346,679	191,964	0,068	-0,075
-345,664	800,000	0,033	-0,094
-344,650	355,155	-0,031	0,044
-343,635	212,887	0,041	-0,047
-342,620	-200,000	-0,015	0,135
-341,606	-200,000	0,005	-0,035
-340,591	102,757	-0,047	0,040
-339,577	-114,255	-0,145	0,020
-338,562	-200,000	0,015	-0,065
-337,548	-45,452	-0,037	0,013
-336,533	-1,675	0,119	-0,061
-335,518	-200,000	0,009	0,092
-334,504	168,440	0,050	0,051
-333,489	76,481	-0,029	-0,022
-332,475	-32,184	0,062	-0,025
-331,460	106,073	0,053	-0,045
-330,445	175,192	0,078	-0,082
-329,431	-111,349	-0,092	0,013
-328,416	-30,379	0,121	0,050
-327,402	155,990	-0,075	0,075
-326,387	-200,000	-0,001	-0,004
-325,372	-200,000	-0,036	-0,125
-324,358	-107,347	-0,014	0,002
-323,343	-128,139	0,085	-0,009
-322,329	74,952	0,037	0,028
-321,314	307,494	-0,080	0,108
-320,299	-104,655	-0,115	0,019
-319,285	-200,000	0,008	0,060
-318,270	-64,245	-0,103	-0,030
-317,256	800,000	0,018	0,056
-316,241	113,909	-0,005	0,005
-315,226	800,000	-0,045	-0,115
-314,212	800,000	-0,032	0,086
-313,197	-200,000	0,023	-0,119
-312,183	96,502	-0,119	0,098
-311,168	-200,000	-0,001	0,066
-310,153	134,025	-0,016	0,015
-309,139	14,900	0,044	-0,025
-308,124	-8,772	-0,079	0,038
-307,110	-2,854	0,085	0,043
-306,095	800,000	-0,010	0,032
-305,080	227,142	-0,062	0,073
-304,066	800,000	-0,016	-0,039
-303,051	-34,259	-0,042	0,016
-302,037	-200,000	-0,027	-0,145
-301,022	-200,000	0,001	0,042
-300,008	800,000	0,043	0,104
-298,993	-39,889	0,072	0,027
-297,978	800,000	-0,016	-0,045
-296,964	-200,000	-0,004	-0,066
-295,949	-115,773	0,143	-0,019
-294,935	-127,068	0,046	-0,005
-293,920	-111,199	0,084	-0,012
-292,905	-37,127	0,108	-0,042
-291,891	514,409	0,078	-0,133
-290,876	173,460	0,064	0,066
-289,862	79,777	0,046	0,036
-288,847	-66,152	-0,062	0,018
-287,832	-153,078	0,059	-0,003
-286,818	-200,000	0,010	0,090
-285,803	151,945	-0,023	-0,023
-284,789	43,266	0,125	-0,083
-283,774	-200,000	-0,011	0,152
-282,759	-40,952	-0,031	0,011
-281,745	-200,000	-0,000	-0,014
-280,730	28,058	-0,157	-0,096
-279,716	-72,188	-0,049	-0,013
-278,701	-200,000	-0,003	-0,127
-277,686	70,355	0,013	0,009
-276,672	800,000	-0,033	0,078
-275,657	123,070	-0,133	0,120
-274,643	-200,000	-0,027	-0,125
-273,628	-200,000	0,015	-0,065
-272,613	800,000	-0,030	0,067
-271,599	187,830	-0,132	-0,142
-270,584	-200,000	0,001	0,008
-269,570	800,000	0,053	-0,135
-268,555	-134,750	0,080	-0,007
-267,540	61,209	-0,085	0,061
-266,526	768,012	-0,038	-0,075
-265,511	91,849	-0,127	-0,103
-264,497	-4,371	0,130	-0,065
-263,482	-21,083	0,156	0,069
-262,467	-200,000	0,001	0,081
-261,453	142,919	0,127	-0,123
-260,438	-10,413	-0,056	0,027
-259,424	28,353	-0,068	-0,042
-258,409	-200,000	-0,017	-0,150
-257,395	40,618	-0,075	-0,049
-256,380	170,166	0,048	0,050
-255,365	389,914	-0,059	-0,089
-254,351	800,000	-0,047	-0,141
-253,336	392,968	0,024	-0,037
-252,322	-200,000	-0,018	0,067
-251,307	-94,781	-0,095	-0,018
-250,292	-200,000	-0,019	-0,119
-249,278	800,000	0,016	0,051
-248,263	233,037	0,047	0,057
-247,249	800,000	-0,031	0,070
-246,234	250,696	-0,064	0,079
-245,219	729,799	-0,017	-0,033
-244,205	-40,091	-0,139	0,052
-243,190	-200,000	0,028	0,128
-242,176	-18,508	0,092	-0,041
-241,161	173,513	0,055	-0,057
-240,146	-4,267	0,061	0,030
-239,132	-71,875	0,129	0,035
-238,117	-200,000	-0,115	0,000
-237,103	-200,000	0,040	-0,152
-236,088	-17,263	0,096	0,044
-235,073	-42,389	0,127	0,046
-234,059	-39,644	-0,107	-0,040
-233,044	-54,977	-0,049	-0,016
-232,030	-175,645	-0,059	0,001
-231,015	482,963	0,041	-0,067
-230,000	-126,761	-0,061	0,006
-228,986	-11,036	-0,037	0,018
-227,971	-89,739	0,030	0,006
-226,957	-57,753	0,048	0,015
-225,942	-34,059	-0,073	0,029
-224,927	-47,899	-0,131	-0,045
-223,913	-19,433	-0,102	-0,045
-222,898	800,000	-0,024	-0,051
-221,884	131,211	0,066	-0,061
-220,869	-120,437	0,053	-0,006
-219,855	-72,987	0,104	0,027
-218,840	94,316	-0,064	-0,053
-217,825	-200,000	0,011	0,067
-216,811	-110,601	0,200	-0,030
-215,796	-48,033	-0,063	0,022
-214,782	-200,000	-0,054	-0,201
-213,767	149,796	-0,076	-0,074
-212,752	261,141	0,054	-0,068
-211,738	181,037	0,048	0,051
-210,723	-35,767	0,056	0,022
-209,709	44,444	-0,052	0,035
-208,694	-200,000	0,036	0,196
-207,679	-200,000	-0,034	0,129
-206,665	800,000	-0,039	-0,110
-205,650	-200,000	-0,001	0,014
-204,636	177,048	0,056	0,059
-203,621	-127,668	-0,143	0,015
-202,606	95,305	-0,080	-0,066
-201,592	800,000	-0,063	-0,144
-200,577	-200,000	0,006	-0,059
-199,563	-200,000	0,009	0,118
-198,548	59,368	0,080	-0,057
-197,533	-90,252	-0,146	0,030
-196,519	312,161	-0,081	0,110
-195,504	-200,000	-0,006	-0,196
-194,490	-12,102	-0,158	-0,074
-193,475	-200,000	-0,031	0,146
-192,460	800,000	0,058	0,138
-191,446	-165,808	0,059	-0,002
-190,431	800,000	0,033	0,093
-189,417	24,105	-0,112	-0,066
-188,402	-58,748	-0,103	-0,032
-187,387	212,703	-0,073	0,083
-186,373	123,992	-0,029	0,026
-185,358	-107,140	-0,137	0,022
-184,344	-200,000	0,029	-0,185
-183,329	-22,593	-0,042	-0,018
-182,315	-200,000	-0,025	-0,084
-181,300	-89,530	-0,065	0,014
-180,285	61,796	0,104	-0,074
-179,271	-109,613	-0,153	-0,023
-178,256	95,667	0,052	0,043
-177,242	800,000	0,026	0,064
-176,227	208,087	0,053	-0,060
-175,212	44,272	0,146	-0,096
-174,198	-200,000	-0,001	0,042
-173,183	-200,000	-0,041	0,158
-172,169	800,000	0,053	0,165
-171,154	220,708	-0,027	0,031
-170,139	322,629	0,070	0,096
-169,125	107,403	0,043	-0,037
-168,110	-200,000	0,016	-0,117
-167,096	-22,525	-0,127	0,055
-166,081	-200,000	-0,038	-0,129
-165,066	112,987	0,147	-0,129
-164,052	15,645	-0,036	0,021
-163,037	-52,404	-0,055	0,018
-162,023	347,038	0,029	-0,041
-161,008	-15,943	0,085	0,039
-159,993	13,837	0,085	-0,048
-158,979	-200,000	-0,016	-0,124
-157,964	68,058	-0,091	0,067
-156,950	162,339	0,120	-0,121
-155,935	609,578	-0,036	0,064
-154,920	404,415	-0,047	-0,072
-153,906	107,337	-0,090	-0,077
-152,891	-200,000	-0,010	0,045
-151,877	-16,489	0,066	-0,030
-150,862	-200,000	-0,008	-0,150
-149,847	800,000	-0,039	0,084
-148,833	-200,000	0,017	-0,077
-147,818	-160,763	-0,095	0,004
-146,804	-200,000	0,013	0,087
-145,789	303,151	-0,054	0,072
-144,775	-200,000	-0,017	-0,145
-143,760	-113,548	-0,049	0,007
-142,745	530,846	-0,012	0,021
-141,731	-200,000	-0,014	0,051
-140,716	800,000	0,032	-0,071
-139,702	146,403	-0,049	0,047
-138,687	-200,000	-0,003	0,110
-137,672	-118,943	0,030	-0,004
-136,658	15,958	-0,102	-0,058
-135,643	215,878	0,033	0,037
-134,629	150,252	0,082	-0,080
-133,614	-200,000	0,010	-0,080
-132,599	662,311	0,047	-0,087
-131,585	-200,000	0,006	0,060
-130,570	-142,335	-0,041	0,003
-129,556	167,283	-0,019	0,019
-128,541	-200,000	-0,002	-0,079
-127,526	-67,032	-0,070	0,020
-126,512	-52,521	-0,077	0,025
-125,497	-61,643	0,022	-0,007
-124,483	-200,000	0,003	0,164
-123,468	-20,584	-0,106	0,047
-122,453	-200,000	-0,020	-0,154
-121,439	351,422	-0,064	-0,092
-120,424	-59,253	-0,104	-0,032
-119,410	800,000	-0,031	0,073
-118,395	-52,357	0,209	0,069
-117,380	-30,226	-0,052	0,021
-116,366	-200,000	-0,008	0,092
-115,351	-200,000	-0,022	0,074
-114,337	800,000	-0,016	-0,033
-113,322	-200,000	0,016	-0,127
-112,307	65,616	0,053	0,038
-111,293	61,189	-0,052	0,037
-110,278	16,317	0,195	0,110
-109,264	-10,403	-0,050	-0,024
-108,249	-43,289	-0,037	0,013
-107,234	3,723	-0,025	0,013
-106,220	46,985	-0,113	-0,076
-105,205	-104,464	-0,044	0,007
-104,191	278,394	0,071	0,092
-103,176	-200,000	0,008	0,031
-102,162	-71,383	-0,146	0,039
-101,147	530,284	0,018	0,032
-100,132	-200,000	-0,025	-0,134
-99,118	-12,328	-0,090	-0,042
-98,103	737,957	0,093	0,181
-97,089	-166,216	0,046	0,001
-96,074	220,542	-0,041	-0,047
-95,059	-33,553	0,052	-0,021
-94,045	-48,154	-0,131	-0,045
-93,030	73,108	0,062	0,047
-92,016	-41,187	0,079	-0,029
-91,001	169,665	0,054	0,055
-89,986	-18,831	0,013	0,006
-88,972	90,713	0,186	-0,150
-87,957	-7,395	0,062	-0,030
-86,943	800,000	-0,039	-0,079
-85,928	285,351	-0,059	0,076
-84,913	-200,000	-0,008	-0,054
-83,899	-75,339	-0,038	-0,010
-82,884	-200,000	0,015	0,074
-81,870	-90,373	-0,046	0,010
-80,855	-96,953	-0,136	0,025
-79,840	800,000	0,018	0,038
-78,826	-23,533	-0,029	-0,013
-77,811	-200,000	0,030	-0,131
-76,797	34,698	0,034	0,021
-75,782	-200,000	0,001	0,063
-74,767	800,000	0,064	0,178
-73,753	101,192	0,014	-0,012
-72,738	-200,000	-0,008	0,187
-71,724	300,237	0,089	0,118
-70,709	210,047	0,079	-0,090
-69,694	256,432	0,110	-0,136
-68,680	-200,000	-0,016	0,249
-67,665	-200,000	0,001	0,050
-66,651	800,000	-0,051	0,112
-65,636	800,000	-0,025	0,058
-64,622	-86,269	0,111	-0,024
-63,607	-200,000	-0,000	-0,032
-62,592	119,657	0,070	-0,062
-61,578	247,546	0,040	0,048
-60,563	-44,050	0,115	-0,041
-59,549	-3,646	-0,149	0,074
-58,534	12,997	-1,927	-1,067
-57,519	-200,000	-0,035	-0,816
-56,505	-200,000	-1,194	-5,101
-55,490	113,772	0,832	0,725
-54,476	800,000	5,292	12,064
-53,461	-200,000	18,299	303,225
-52,446	800,000	736,574	2280,554
-51,432	545,160	1652,834	2843,932
-50,417	109,810	1639,184	1409,695
-49,403	74,416	1289,435	971,027
-48,388	30,896	1029,624	631,264
-47,373	20,033	991,837	572,185
-46,359	17,850	979,406	557,822
-45,344	14,742	975,553	545,409
-44,330	15,087	973,934	545,615
-43,315	14,456	971,965	542,424
-42,300	14,360	971,011	541,555
-41,286	14,323	970,228	540,976
-40,271	14,357	969,198	540,493
-39,257	14,394	968,227	540,049
-38,242	14,413	967,229	539,535
-37,227	14,366	966,459	538,930
-36,213	14,392	965,558	538,491
-35,198	14,336	964,671	537,792
-34,184	14,337	964,130	537,473
-33,169	14,344	962,973	536,829
-32,154	14,400	962,207	536,563
-31,140	14,417	961,192	536,030
-30,125	14,437	960,462	535,665
-29,111	14,399	959,735	535,117
-28,096	14,400	958,980	534,678
-27,082	14,406	958,267	534,279
-26,067	14,400	957,490	533,805
-25,052	14,418	956,603	533,346
-24,038	14,397	956,260	533,067
-23,023	14,372	955,552	532,571
-22,009	14,366	954,858	532,142
-20,994	14,379	954,201	531,796
-19,979	14,447	953,575	531,647
-18,965	14,395	952,871	531,067
-17,950	14,351	952,321	530,596
-16,936	14,302	951,866	530,167
-15,921	14,292	951,017	529,640
-14,906	14,264	950,307	529,135
-13,892	14,334	949,646	528,968
-12,877	14,268	948,945	528,346
-11,863	14,291	948,399	528,093
-10,848	14,237	947,914	527,630
-9,833	14,340	947,380	527,640
-8,819	14,352	946,874	527,377
-7,804	14,268	946,260	526,747
-6,790	14,247	945,508	526,241
-5,775	14,291	945,042	526,099
-4,760	14,263	944,252	525,549
-3,746	14,282	943,646	525,254
-2,731	14,173	943,041	524,551
-1,717	14,124	942,365	523,996
-0,702	14,150	941,688	523,682
0,313	13,893	940,970	523,258
1,327	17,030	938,807	531,916
2,342	25,725	794,191	473,030
3,356	21,434	459,494	267,078
4,371	-5,592	316,141	154,833
5,386	-9,730	298,069	141,753
6,400	-11,917	291,883	136,614
7,415	-11,991	289,638	135,478
8,429	-11,944	288,246	134,862
9,444	-11,943	287,185	134,354
10,459	-11,731	286,646	134,298
11,473	-12,098	286,049	133,647
12,488	-12,021	285,658	133,528
13,502	-11,980	284,947	133,223
14,517	-11,768	284,667	133,287
15,531	-11,584	284,468	133,361
16,546	-11,386	284,067	133,353
17,561	-11,259	283,537	133,216
18,575	-11,029	283,254	133,294
19,590	-11,306	282,937	132,865
20,604	-11,182	282,670	132,848
21,619	-11,312	282,359	132,564
22,634	-11,197	281,842	132,420
23,648	-11,229	281,653	132,289
24,663	-11,240	281,404	132,149
25,677	-11,183	281,050	132,026
26,692	-11,432	281,032	131,767
27,707	-11,393	280,632	131,605
28,721	-11,313	280,249	131,490
29,736	-11,381	280,076	131,332
30,750	-11,427	279,898	131,193
31,765	-11,473	279,468	130,936
32,780	-11,165	279,339	131,158
33,794	-11,194	279,052	130,984
34,809	-11,342	278,764	130,696
35,823	-11,313	278,391	130,537
36,838	-11,405	278,241	130,367
37,853	-11,472	277,889	130,127
38,867	-11,400	277,669	130,081
39,882	-11,328	277,564	130,089
40,896	-11,399	277,372	129,920
41,911	-11,142	277,018	129,985
42,926	-11,426	276,774	129,591
43,940	-11,460	276,486	129,412
44,955	-11,415	276,228	129,322
45,969	-11,583	276,154	129,118
46,984	-11,500	275,936	129,083
47,999	-11,477	275,512	128,894
49,013	-11,611	275,269	128,644
50,028	-11,771	275,057	128,383
51,042	-11,590	274,634	128,343
52,057	-11,884	274,611	128,046
53,071	-11,712	274,348	128,073
54,086	-11,833	274,208	127,883
55,101	-11,674	274,065	127,953
56,115	-11,617	273,744	127,845
57,130	-11,401	273,542	127,941
58,144	-11,267	273,228	127,907
59,159	-11,449	273,005	127,622
60,174	-11,378	272,840	127,600
61,188	-11,423	272,705	127,483
62,203	-11,367	272,405	127,384
63,217	-11,324	272,220	127,325
64,232	-11,361	272,063	127,206
65,247	-11,577	271,751	126,849
66,261	-11,398	271,554	126,912
67,276	-11,363	271,109	126,725
68,290	-11,484	271,006	126,553
69,305	-11,834	270,833	126,139
70,320	-11,566	270,549	126,242
71,334	-11,505	270,424	126,229
72,349	-11,270	270,280	126,367
73,363	-11,330	269,963	126,152
74,378	-11,430	269,710	125,931
75,393	-11,364	269,497	125,880
76,407	-11,265	269,423	125,925
77,422	-11,392	269,100	125,647
78,436	-11,306	268,832	125,589
79,451	-11,202	268,412	125,477
80,466	-11,456	268,419	125,237
81,480	-11,442	268,241	125,155
82,495	-11,462	267,988	125,009
83,509	-11,491	267,810	124,887
84,524	-11,464	267,487	124,751
85,539	-11,514	267,346	124,628
86,553	-11,516	267,246	124,569
87,568	-11,496	266,927	124,427
88,582	-11,492	266,735	124,330
89,597	-11,569	266,523	124,151
90,611	-11,455	266,385	124,178
91,626	-11,263	266,243	124,274
92,641	-11,579	266,108	123,915
93,655	-11,533	265,906	123,852
94,670	-11,364	265,505	123,806
95,684	-11,421	265,315	123,655
96,699	-11,551	265,208	123,476
97,714	-11,534	264,913	123,343
98,728	-11,358	264,622	123,356
99,743	-11,507	264,452	123,132
100,757	-11,640	264,192	122,880
101,772	-11,732	264,228	122,804
102,787	-11,648	263,821	122,678
103,801	-11,547	263,731	122,716
104,816	-11,644	263,569	122,543
105,830	-11,466	263,396	122,611
106,845	-11,486	263,099	122,444
107,860	-11,630	262,841	122,185
108,874	-11,726	262,658	122,003
109,889	-11,605	262,446	122,001
110,903	-11,790	262,312	121,763
111,918	-11,845	262,127	121,618
112,933	-11,735	261,855	121,578
113,947	-11,547	261,773	121,697
114,962	-11,590	261,480	121,511
115,976	-11,650	261,388	121,405
116,991	-11,408	261,088	121,468
118,006	-11,565	260,935	121,247
119,020	-11,573	260,770	121,153
120,035	-11,337	260,751	121,342
121,049	-11,513	260,617	121,113
122,064	-11,537	260,368	120,966
123,079	-11,714	260,071	120,660
124,093	-11,592	259,961	120,706
125,108	-11,611	259,597	120,511
126,122	-11,463	259,285	120,485
127,137	-11,570	259,102	120,295
128,151	-11,548	259,058	120,283
129,166	-11,688	258,731	119,998
130,181	-11,564	258,653	120,059
131,195	-11,730	258,375	119,775
132,210	-11,583	258,206	119,814
133,224	-11,570	258,038	119,736
134,239	-11,610	257,769	119,566
135,254	-11,657	257,604	119,438
136,268	-11,589	257,442	119,412
137,283	-11,607	257,021	119,190
138,297	-11,723	256,948	119,045
139,312	-11,772	256,828	118,935
140,327	-11,532	256,689	119,069
141,341	-11,454	256,608	119,089
142,356	-11,571	256,288	118,828
143,370	-11,616	256,217	118,746
144,385	-11,133	255,899	119,006
145,400	-11,270	255,923	118,888
146,414	-11,164	255,690	118,861
147,429	-11,552	255,524	118,438
148,443	-11,182	255,284	118,635
149,458	-11,442	255,135	118,331
150,473	-11,124	254,753	118,417
151,487	-11,650	254,638	117,901
152,502	-11,428	254,651	118,087
153,516	-11,324	254,581	118,134
154,531	-11,390	254,143	117,863
155,546	-11,368	253,968	117,790
156,560	-11,492	253,801	117,596
157,575	-11,776	253,614	117,255
158,589	-11,612	253,291	117,236
159,604	-11,211	253,151	117,504
160,619	-11,210	253,106	117,473
161,633	-11,211	252,994	117,410
162,648	-11,250	252,686	117,223
163,662	-11,330	252,564	117,088
164,677	-11,495	252,347	116,836
165,692	-11,549	252,112	116,671
166,706	-11,347	252,107	116,830
167,721	-11,260	251,907	116,801
168,735	-11,307	251,902	116,749
169,750	-11,485	251,600	116,447
170,764	-11,447	251,398	116,375
171,779	-11,468	251,328	116,314
172,794	-11,246	251,086	116,380
173,808	-11,238	250,768	116,230
174,823	-11,657	250,599	115,787
175,837	-11,864	250,509	115,560
176,852	-11,687	250,237	115,573
177,867	-11,413	250,193	115,774
178,881	-11,414	250,024	115,685
179,896	-11,330	249,850	115,664
180,910	-11,231	249,736	115,684
181,925	-11,379	249,482	115,432
182,940	-11,344	249,339	115,385
183,954	-11,576	249,207	115,119
184,969	-11,255	248,987	115,276
185,983	-11,271	248,899	115,212
186,998	-11,248	248,895	115,219
188,013	-11,395	248,485	114,896
189,027	-11,248	248,330	114,937
190,042	-11,390	248,023	114,666
191,056	-11,614	247,876	114,401
192,071	-11,669	247,657	114,243
193,086	-11,976	247,468	113,891
194,100	-11,735	247,255	113,983
195,115	-11,455	247,040	114,107
196,129	-11,250	246,905	114,204
197,144	-11,367	246,662	113,985
198,159	-11,504	246,507	113,789
199,173	-11,442	246,367	113,766
200,188	-11,878	246,002	113,226
201,202	-12,045	245,858	113,012
202,217	-11,815	245,674	113,107
203,232	-11,830	245,547	113,026
204,246	-12,229	245,208	112,531
205,261	-13,223	244,655	111,449
206,275	-13,673	244,438	110,970
207,290	-9,451	246,106	115,212
208,304	-1,682	248,725	122,909
209,319	2,675	249,919	127,128
210,334	3,568	250,064	127,935
211,348	3,892	249,996	128,159
212,363	4,216	249,849	128,342
213,377	4,241	249,905	128,380
214,392	4,440	249,605	128,380
215,407	4,409	249,367	128,220
216,421	4,491	249,309	128,247
217,436	4,481	249,234	128,188
218,450	4,401	249,057	128,020
219,465	4,401	248,727	127,839
220,480	4,226	248,634	127,635
221,494	4,121	248,599	127,518
222,509	3,940	248,244	127,175
223,523	3,881	247,911	126,944
224,538	3,518	247,680	126,516
225,553	3,369	247,506	126,293
226,567	3,247	247,372	126,113
227,582	3,286	247,286	126,090
228,596	3,433	247,030	126,069
229,611	3,404	246,784	125,908
230,626	3,339	246,610	125,755
231,640	3,184	246,520	125,570
232,655	3,314	246,355	125,582
233,669	3,346	246,050	125,441
234,684	3,275	245,861	125,275
235,699	3,381	245,904	125,373
236,713	3,311	245,713	125,207
237,728	3,428	245,464	125,165
238,742	3,414	245,328	125,073
239,757	3,309	245,182	124,901
240,772	3,341	245,220	124,936
241,786	3,347	244,879	124,756
242,801	3,235	244,603	124,513
243,815	2,944	244,561	124,244
244,830	3,345	244,294	124,423
245,844	3,374	244,247	124,412
246,859	3,406	244,005	124,303
247,874	3,533	244,022	124,404
248,888	3,585	243,696	124,268
249,903	3,468	243,710	124,170
250,917	3,412	243,592	124,053
251,932	3,654	243,403	124,142
252,947	3,425	243,340	123,913
253,961	3,339	243,009	123,664
254,976	3,352	242,835	123,575
255,990	3,372	242,693	123,508
257,005	3,358	242,670	123,475
258,020	3,335	242,351	123,282
259,034	3,335	242,235	123,213
260,049	3,286	242,111	123,099
261,063	3,269	241,875	122,954
262,078	3,423	241,691	122,973
263,093	3,579	241,606	123,044
264,107	3,382	241,582	122,863
265,122	3,285	241,273	122,617
266,136	3,500	241,122	122,701
267,151	3,495	240,860	122,553
268,166	3,279	240,730	122,304
269,180	3,293	240,536	122,205
270,195	3,394	240,554	122,284
271,209	3,726	240,386	122,452
272,224	3,414	240,293	122,146
273,239	3,368	239,999	121,949
274,253	3,423	240,016	121,990
275,268	3,486	239,611	121,824
276,282	3,484	239,424	121,717
277,297	3,093	239,316	121,340
278,312	3,423	239,222	121,543
279,326	3,428	239,096	121,472
280,341	3,361	239,005	121,362
281,355	3,197	238,924	121,181
282,370	3,521	238,766	121,346
283,384	3,456	238,451	121,123
284,399	3,349	238,433	121,019
285,414	3,441	238,205	120,965
286,428	3,299	238,022	120,750
287,443	3,356	237,886	120,715
288,457	3,445	237,700	120,680
289,472	3,430	237,486	120,548
290,487	3,385	237,432	120,475
291,501	3,152	237,297	120,212
292,516	3,142	237,110	120,099
293,530	3,235	236,908	120,059
294,545	3,302	236,900	120,097
295,560	3,321	236,601	119,950
296,574	3,124	236,593	119,780
297,589	3,099	236,313	119,608
298,603	3,562	236,268	119,937
299,618	3,276	236,130	119,633
300,633	3,158	236,058	119,494
301,647	3,549	235,963	119,740
302,662	3,641	235,836	119,737
303,676	3,596	235,509	119,525
304,691	3,602	235,358	119,442
305,706	3,462	235,316	119,301
306,720	3,579	235,187	119,317
307,735	3,614	234,915	119,195
308,749	3,460	234,796	119,005
309,764	3,466	234,579	118,888
310,779	3,207	234,376	118,574
311,793	2,918	234,248	118,275
312,808	3,206	234,097	118,411
313,822	3,303	233,904	118,377
314,837	3,745	233,844	118,679
315,852	3,588	233,626	118,436
316,866	3,507	233,679	118,390
317,881	3,484	233,550	118,296
318,895	3,595	233,291	118,240
319,910	3,643	233,102	118,171
320,925	3,458	232,931	117,932
321,939	3,423	232,669	117,761
322,954	3,432	232,675	117,760
323,968	3,537	232,537	117,761
324,983	3,356	232,436	117,560
325,997	3,569	232,229	117,609
327,012	3,570	232,109	117,537
328,027	3,544	231,912	117,408
329,041	3,565	231,894	117,405
330,056	3,668	231,658	117,354
331,070	3,357	231,608	117,079
332,085	3,535	231,382	117,091
333,100	3,555	231,028	116,917
334,114	3,172	231,041	116,621
335,129	3,477	230,859	116,751
336,143	3,649	230,611	116,746
337,158	3,302	230,707	116,520
338,173	3,452	230,416	116,477
339,187	3,625	230,397	116,588
340,202	3,526	230,154	116,379
341,216	3,789	230,066	116,524
342,231	3,459	229,890	116,175
343,246	3,457	229,708	116,071
344,260	3,349	229,578	115,913
345,275	3,706	229,420	116,093
346,289	3,278	229,289	115,693
347,304	3,266	229,254	115,656
348,319	3,572	228,983	115,739
349,333	3,309	228,886	115,482
350,348	3,413	228,694	115,453
351,362	3,582	228,487	115,465
352,377	3,431	228,259	115,226
353,392	3,316	228,156	115,077
354,406	3,389	227,946	115,016
355,421	194,700	1318,689	1391,889
356,435	156,110	1451,542	1391,856
