DTS Sentinel unit serial number:	SN410029Multiplexer serial number:	ORYXHardware model number:	OX2-SRSoftware version number:	ORYX F/W v4,00 Oryx Data Collector v3.7.2.0data status	okinstallation	B5 Nyhavnadifferential loss correction	single-endedforward channel	channel 2reverse channel	N/Adate	2023/12/13time	17:37:13forward acquisition time	300,00reverse acquisition time	0,00gamma	499,1914k internal	0,3158k external	0,3158temperature offset calibration	1,0000default loss term (dB/km)	0,3820temperature slope calibration	1,0000multiplexer offset coefficient	1,0000multiplexer slope coefficient	1,0000fibre end	0,00T internal ref (°C)	13,63T ext. ref 1 (°C)	-3,74T ext. ref 2 (°C)	-3,86length (m)	temperature (°C)	Stokes	anti-Stokes-744,400	-174,723	0,132	0,003
-743,385	-89,498	-0,344	-0,074
-742,371	99,496	0,179	0,152
-741,356	-133,927	-0,358	-0,032
-740,342	-17,572	0,221	0,102
-739,327	-152,093	-0,321	-0,017
-738,312	800,000	0,041	0,108
-737,298	-64,376	-0,411	-0,123
-736,283	37,245	0,121	0,079
-735,269	-120,742	-0,240	-0,029
-734,254	230,476	0,086	-0,103
-733,239	51,479	-0,483	-0,338
-732,225	386,171	0,111	0,170
-731,210	-60,575	-0,036	-0,011
-730,196	408,812	0,053	-0,084
-729,181	-200,000	-0,029	-0,095
-728,167	221,764	-0,043	0,051
-727,152	-200,000	-0,001	-0,008
-726,137	-143,077	-0,176	0,012
-725,123	-106,936	-0,060	0,010
-724,108	-21,397	-0,147	-0,066
-723,094	800,000	0,004	-0,012
-722,079	-200,000	-0,006	-0,101
-721,064	43,675	-0,081	-0,055
-720,050	-106,258	0,149	0,024
-719,035	-24,380	-0,033	-0,014
-718,021	-70,742	-0,124	-0,034
-717,006	-200,000	-0,040	0,180
-715,991	770,825	-0,011	-0,022
-714,977	91,259	-0,121	-0,100
-713,962	42,754	-0,064	0,043
-712,948	74,289	-0,159	-0,123
-711,933	169,780	0,140	0,148
-710,918	800,000	0,040	0,113
-709,904	800,000	-0,025	0,057
-708,889	-200,000	-0,010	-0,073
-707,875	-200,000	0,003	-0,068
-706,860	-200,000	0,007	0,026
-705,845	11,371	0,134	0,076
-704,831	0,341	0,102	0,054
-703,816	-200,000	-0,004	0,043
-702,802	-77,307	0,077	0,020
-701,787	-200,000	-0,003	-0,051
-700,772	-42,043	-0,045	0,017
-699,758	55,079	0,132	-0,094
-698,743	-19,575	0,053	-0,024
-697,729	105,552	-0,114	0,099
-696,714	762,456	-0,061	0,123
-695,699	97,806	-0,105	-0,089
-694,685	800,000	0,022	0,065
-693,670	97,807	0,068	-0,057
-692,656	-33,628	-0,023	0,009
-691,641	-200,000	-0,013	0,078
-690,627	-157,342	0,116	-0,005
-689,612	-107,771	-0,056	-0,009
-688,597	28,005	-0,222	0,137
-687,583	63,094	-0,120	0,088
-686,568	800,000	-0,041	-0,113
-685,554	55,853	-0,031	0,022
-684,539	3,465	0,139	0,074
-683,524	-11,099	0,068	0,033
-682,510	38,671	-0,083	0,055
-681,495	34,514	-0,140	0,090
-680,481	727,404	-0,090	-0,178
-679,466	120,608	-0,104	-0,095
-678,451	434,581	-0,040	-0,064
-677,437	-120,764	-0,100	-0,012
-676,422	800,000	0,007	0,020
-675,408	-106,968	0,065	0,010
-674,393	722,369	0,024	-0,048
-673,378	-123,911	-0,053	-0,006
-672,364	-200,000	-0,004	-0,062
-671,349	800,000	-0,018	-0,043
-670,335	-30,246	-0,128	0,053
-669,320	-200,000	0,002	-0,019
-668,305	800,000	-0,012	0,037
-667,291	-200,000	-0,003	-0,105
-666,276	339,570	0,032	0,046
-665,262	800,000	-0,065	-0,137
-664,247	-31,586	0,043	-0,018
-663,232	-116,345	-0,078	-0,010
-662,218	30,872	0,206	-0,129
-661,203	800,000	-0,042	0,090
-660,189	800,000	0,058	-0,133
-659,174	-73,261	-0,127	0,034
-658,159	800,000	-0,016	0,045
-657,145	15,352	-0,126	-0,072
-656,130	-24,533	0,062	-0,027
-655,116	161,907	0,073	0,075
-654,101	780,370	-0,109	0,219
-653,086	177,300	-0,060	0,065
-652,072	357,923	-0,016	0,024
-651,057	20,172	-0,051	0,030
-650,043	-200,000	-0,012	-0,073
-649,028	800,000	-0,028	-0,073
-648,014	-200,000	-0,007	0,042
-646,999	83,580	-0,071	-0,057
-645,984	631,415	0,038	0,072
-644,970	-200,000	-0,035	-0,132
-643,955	800,000	-0,031	-0,084
-642,941	43,276	-0,080	0,053
-641,926	-95,742	0,196	0,038
-640,911	-200,000	-0,018	0,115
-639,897	-200,000	-0,010	0,066
-638,882	3,795	0,105	0,056
-637,868	319,521	-0,089	-0,124
-636,853	-126,335	-0,127	-0,014
-635,838	6,569	-0,063	-0,035
-634,824	-2,018	-0,068	-0,035
-633,809	800,000	0,037	-0,083
-632,795	800,000	0,014	0,036
-631,780	-81,428	-0,090	0,022
-630,765	421,915	-0,045	-0,072
-629,751	-71,841	-0,126	-0,034
-628,736	-200,000	-0,007	-0,076
-627,722	22,374	-0,140	0,084
-626,707	-200,000	0,008	0,136
-625,692	-1,796	0,114	0,059
-624,678	-200,000	-0,016	-0,071
-623,663	-73,825	-0,076	-0,020
-622,649	85,630	-0,154	-0,124
-621,634	-200,000	0,018	-0,102
-620,619	158,193	-0,052	-0,053
-619,605	-17,439	-0,105	-0,048
-618,590	351,410	0,057	-0,083
-617,576	267,269	-0,065	0,084
-616,561	-8,908	-0,060	0,030
-615,546	-200,000	-0,025	-0,086
-614,532	335,269	0,057	-0,082
-613,517	-128,360	-0,083	-0,009
-612,503	-200,000	-0,005	0,142
-611,488	-200,000	-0,007	-0,042
-610,474	-71,946	-0,088	-0,024
-609,459	-123,720	0,091	-0,010
-608,444	-50,864	0,026	0,009
-607,430	75,189	-0,061	-0,047
-606,415	458,992	0,066	-0,109
-605,401	184,995	-0,021	0,023
-604,386	-200,000	-0,019	-0,105
-603,371	-9,863	0,139	-0,067
-602,357	291,857	-0,059	0,079
-601,342	800,000	0,034	0,089
-600,328	-126,992	0,030	-0,003
-599,313	800,000	-0,077	-0,160
-598,298	465,061	-0,062	-0,103
-597,284	-6,948	0,080	-0,040
-596,269	-55,529	0,039	-0,013
-595,255	531,572	-0,017	-0,030
-594,240	-200,000	0,028	-0,094
-593,225	-200,000	-0,037	0,142
-592,211	-61,769	-0,030	0,009
-591,196	800,000	0,048	-0,105
-590,182	169,051	0,073	-0,076
-589,167	243,589	-0,057	0,070
-588,152	375,032	-0,024	0,037
-587,138	36,852	0,046	0,030
-586,123	397,182	-0,040	0,062
-585,109	204,716	-0,034	-0,039
-584,094	407,758	0,049	-0,076
-583,079	-200,000	-0,005	0,060
-582,065	-200,000	-0,054	0,234
-581,050	389,800	-0,047	0,071
-580,036	-27,632	-0,088	0,037
-579,021	-51,738	0,092	0,031
-578,006	631,554	-0,005	0,010
-576,992	-200,000	0,013	-0,129
-575,977	-126,569	-0,054	-0,006
-574,963	-47,119	-0,161	0,057
-573,948	-37,456	-0,086	-0,033
-572,934	-12,361	-0,142	-0,068
-571,919	-89,284	0,089	-0,019
-570,904	42,101	0,048	-0,032
-569,890	56,933	-0,090	0,064
-568,875	15,696	0,116	0,067
-567,861	76,906	-0,086	-0,067
-566,846	-111,590	0,080	0,012
-565,831	-200,000	0,010	-0,079
-564,817	-200,000	-0,008	-0,151
-563,802	-104,715	0,086	-0,014
-562,788	613,937	-0,024	-0,044
-561,773	-200,000	-0,009	0,130
-560,758	800,000	0,037	0,084
-559,744	116,426	0,070	-0,063
-558,729	800,000	0,061	0,124
-557,715	367,675	-0,091	0,135
-556,700	-33,148	-0,096	-0,039
-555,685	800,000	0,037	-0,078
-554,671	1,390	-0,097	-0,051
-553,656	352,838	0,051	0,075
-552,642	165,276	0,093	0,096
-551,627	-200,000	0,009	-0,076
-550,612	416,723	-0,037	-0,057
-549,598	-84,401	-0,046	0,010
-548,583	800,000	-0,007	-0,018
-547,569	148,904	0,028	-0,028
-546,554	800,000	-0,045	0,120
-545,539	232,913	-0,053	0,063
-544,525	-182,269	0,023	-0,000
-543,510	-63,896	-0,081	-0,024
-542,496	61,597	0,054	-0,040
-541,481	-14,775	-0,122	-0,057
-540,466	234,546	-0,079	0,095
-539,452	33,345	0,075	-0,048
-538,437	-113,801	0,146	-0,020
-537,423	-200,000	-0,020	-0,122
-536,408	800,000	0,086	-0,176
-535,393	-200,000	-0,004	-0,098
-534,379	-38,497	-0,080	-0,031
-533,364	-129,579	-0,093	-0,009
-532,350	98,609	0,026	-0,022
-531,335	24,275	-0,080	0,048
-530,321	169,765	0,037	-0,038
-529,306	-69,711	-0,110	-0,031
-528,291	237,755	0,069	0,084
-527,277	-200,000	-0,018	-0,081
-526,262	26,774	0,044	0,027
-525,248	118,944	0,063	-0,057
-524,233	67,643	-0,188	0,140
-523,218	-118,190	0,084	0,011
-522,204	173,276	-0,019	0,020
-521,189	256,769	-0,041	-0,052
-520,175	800,000	-0,018	-0,055
-519,160	-50,888	0,088	0,030
-518,145	159,199	0,093	-0,095
-517,131	-128,477	-0,125	0,013
-516,116	-113,607	0,157	0,022
-515,102	-28,051	0,053	-0,022
-514,087	-48,953	-0,026	-0,009
-513,072	8,415	0,074	0,041
-512,058	-200,000	0,003	0,040
-511,043	51,397	0,047	0,033
-510,029	700,288	0,031	-0,060
-509,014	102,858	0,071	-0,061
-507,999	19,260	0,028	-0,017
-506,985	-33,752	-0,024	0,009
-505,970	-100,129	0,099	0,018
-504,956	-62,284	-0,155	-0,047
-503,941	256,164	-0,032	0,041
-502,926	285,061	-0,031	-0,041
-501,912	800,000	0,021	0,045
-500,897	354,823	0,055	0,080
-499,883	-200,000	0,017	-0,079
-498,868	319,201	-0,102	-0,141
-497,853	800,000	-0,048	0,151
-496,839	174,827	-0,030	-0,031
-495,824	333,694	0,054	0,077
-494,810	545,096	-0,053	-0,093
-493,795	800,000	-0,016	-0,042
-492,781	-200,000	-0,009	0,047
-491,766	-200,000	-0,020	-0,086
-490,751	45,005	0,023	-0,015
-489,737	-200,000	0,007	-0,112
-488,722	800,000	-0,027	-0,080
-487,708	588,187	-0,025	-0,046
-486,693	-200,000	0,002	-0,087
-485,678	-200,000	-0,008	0,106
-484,664	-151,659	-0,057	-0,003
-483,649	-200,000	0,027	0,000
-482,635	-200,000	-0,015	-0,099
-481,620	107,694	-0,047	-0,041
-480,605	-69,001	0,139	0,039
-479,591	-134,205	-0,016	0,001
-478,576	-76,729	-0,068	0,017
-477,562	800,000	-0,035	-0,074
-476,547	800,000	-0,035	-0,105
-475,532	800,000	-0,047	-0,106
-474,518	800,000	0,029	-0,067
-473,503	-104,616	0,070	-0,012
-472,489	-200,000	0,020	0,180
-471,474	-94,486	-0,165	0,033
-470,459	203,740	0,068	-0,077
-469,445	-40,583	0,045	0,017
-468,430	428,375	-0,079	0,125
-467,416	610,074	0,052	0,095
-466,401	-200,000	-0,018	0,135
-465,386	-200,000	-0,004	-0,074
-464,372	-40,745	0,078	-0,029
-463,357	185,224	-0,010	0,010
-462,343	32,750	-0,128	-0,081
-461,328	-197,992	-0,031	0,000
-460,313	-45,357	-0,025	-0,009
-459,299	-9,310	0,043	-0,021
-458,284	156,172	0,058	-0,058
-457,270	150,259	-0,043	-0,043
-456,255	-107,860	0,088	-0,014
-455,241	693,803	0,024	-0,046
-454,226	12,607	-0,092	-0,052
-453,211	-125,707	0,097	0,011
-452,197	-30,229	0,051	0,021
-451,182	-200,000	0,013	0,094
-450,168	68,294	0,088	0,066
-449,153	-200,000	0,022	0,071
-448,138	-16,457	-0,050	-0,023
-447,124	800,000	0,037	-0,076
-446,109	99,512	-0,066	0,056
-445,095	800,000	0,092	0,200
-444,080	-97,094	-0,052	-0,010
-443,065	-131,672	0,066	-0,006
-442,051	104,449	-0,110	-0,094
-441,036	800,000	-0,005	-0,017
-440,022	800,000	0,031	-0,091
-439,007	-89,928	0,049	-0,010
-437,992	-94,734	0,088	0,017
-436,978	-23,324	-0,069	-0,030
-435,963	-200,000	-0,010	-0,044
-434,949	15,098	0,061	-0,035
-433,934	-200,000	0,031	-0,175
-432,919	800,000	-0,023	0,070
-431,905	-55,754	-0,047	0,015
-430,890	800,000	-0,020	0,041
-429,876	800,000	0,039	0,094
-428,861	144,900	-0,037	-0,036
-427,846	107,291	-0,036	0,031
-426,832	49,366	0,053	0,036
-425,817	203,535	0,066	-0,075
-424,803	15,982	-0,083	-0,048
-423,788	-200,000	-0,003	0,096
-422,773	-130,111	0,102	0,010
-421,759	-200,000	-0,006	0,037
-420,744	87,722	-0,123	-0,099
-419,730	-200,000	-0,008	-0,064
-418,715	-200,000	0,044	-0,177
-417,701	-185,221	-0,097	0,001
-416,686	-117,651	0,007	-0,001
-415,671	800,000	-0,053	0,149
-414,657	800,000	-0,018	-0,054
-413,642	259,218	-0,054	-0,068
-412,628	1,645	-0,089	-0,046
-411,613	46,657	-0,083	0,056
-410,598	-111,988	-0,134	0,019
-409,584	-76,748	0,117	0,030
-408,569	191,124	0,062	0,068
-407,555	-200,000	0,007	-0,057
-406,540	32,409	-0,134	-0,084
-405,525	121,519	0,062	0,057
-404,511	-200,000	-0,035	-0,157
-403,496	-141,228	-0,078	0,006
-402,482	335,985	-0,046	0,065
-401,467	-200,000	-0,016	-0,166
-400,452	757,605	0,024	-0,047
-399,438	-105,000	-0,069	-0,011
-398,423	-49,389	0,097	0,033
-397,409	1,890	-0,054	-0,028
-396,394	206,273	0,092	0,104
-395,379	-17,656	-0,108	-0,049
-394,365	800,000	0,005	-0,012
-393,350	369,431	0,049	0,073
-392,336	209,375	-0,041	0,047
-391,321	162,151	0,077	0,079
-390,306	-64,004	-0,025	-0,007
-389,292	-200,000	-0,008	-0,074
-388,277	543,755	-0,054	-0,093
-387,263	-200,000	0,022	0,102
-386,248	-200,000	-0,004	0,092
-385,233	800,000	0,014	-0,031
-384,219	-142,334	0,180	-0,013
-383,204	115,169	0,106	-0,094
-382,190	-36,139	0,253	-0,099
-381,175	35,119	-0,098	-0,063
-380,160	800,000	-0,020	-0,052
-379,146	-57,610	-0,036	0,011
-378,131	-144,990	-0,062	0,004
-377,117	-31,881	0,086	0,035
-376,102	-92,462	-0,096	-0,020
-375,088	800,000	-0,041	0,083
-374,073	101,174	0,049	0,041
-373,058	38,977	0,120	0,078
-372,044	800,000	0,019	0,049
-371,029	190,488	-0,036	0,039
-370,015	-34,231	0,097	0,039
-369,000	-95,734	0,049	0,009
-367,985	-52,066	0,024	0,008
-366,971	540,613	-0,095	-0,164
-365,956	116,278	-0,035	0,031
-364,942	-87,849	-0,048	-0,010
-363,927	62,489	0,197	-0,143
-362,912	800,000	-0,048	-0,106
-361,898	-200,000	-0,001	0,027
-360,883	-200,000	0,024	-0,100
-359,869	84,865	0,062	-0,050
-358,854	-12,142	-0,097	0,046
-357,839	-1,796	0,117	-0,060
-356,825	-79,072	0,075	-0,018
-355,810	800,000	-0,044	0,099
-354,796	-41,537	0,016	0,006
-353,781	382,721	-0,126	-0,189
-352,766	-200,000	-0,031	0,114
-351,752	696,526	0,048	-0,092
-350,737	1,719	-0,049	0,026
-349,723	57,381	0,021	0,015
-348,708	-200,000	0,022	-0,110
-347,693	-200,000	0,013	-0,137
-346,679	-17,881	-0,053	-0,024
-345,664	-200,000	0,009	-0,078
-344,650	227,555	0,075	0,089
-343,635	-3,161	0,112	0,057
-342,620	-8,967	0,165	0,080
-341,606	313,597	-0,011	-0,014
-340,591	800,000	0,093	-0,189
-339,577	-187,400	-0,066	-0,001
-338,562	-63,109	0,083	-0,025
-337,548	-200,000	0,002	-0,038
-336,533	-130,785	0,117	0,011
-335,518	159,941	-0,074	-0,075
-334,504	-200,000	-0,001	-0,074
-333,489	-200,000	0,007	0,032
-332,475	-43,898	0,065	0,024
-331,460	800,000	-0,011	0,027
-330,445	270,163	-0,049	-0,062
-329,431	-200,000	0,008	0,123
-328,416	800,000	-0,046	-0,110
-327,402	5,596	0,043	-0,023
-326,387	70,580	-0,012	0,009
-325,372	39,308	-0,110	-0,072
-324,358	11,407	0,077	-0,043
-323,343	-200,000	-0,001	0,023
-322,329	137,393	-0,026	0,025
-321,314	-40,413	0,116	-0,044
-320,299	800,000	0,010	-0,028
-319,285	333,275	-0,095	0,134
-318,270	-200,000	-0,014	0,111
-317,256	200,986	-0,026	0,029
-316,241	-10,842	0,014	0,007
-315,226	-200,000	0,000	-0,024
-314,212	298,361	-0,040	-0,053
-313,197	-200,000	-0,002	0,125
-312,183	82,121	-0,055	0,043
-311,168	127,870	0,013	-0,012
-310,153	-19,002	-0,137	0,061
-309,139	-200,000	-0,006	0,034
-308,124	-200,000	-0,000	0,102
-307,110	-105,641	0,062	-0,010
-306,095	800,000	0,020	0,044
-305,080	162,811	0,089	0,091
-304,066	790,834	0,031	0,063
-303,051	800,000	-0,061	-0,142
-302,037	800,000	-0,020	0,052
-301,022	6,337	-0,151	0,081
-300,008	-200,000	0,000	0,079
-298,993	327,073	-0,036	0,050
-297,978	-40,237	0,077	-0,029
-296,964	481,151	-0,067	0,110
-295,949	149,319	-0,064	-0,063
-294,935	17,557	-0,038	0,022
-293,920	393,629	0,023	0,035
-292,905	-78,540	0,168	-0,041
-291,891	-200,000	-0,011	0,057
-290,876	-59,879	0,088	0,027
-289,862	-68,634	0,072	-0,020
-288,847	4,780	-0,067	-0,035
-287,832	800,000	0,079	-0,175
-286,818	-200,000	-0,024	-0,090
-285,803	-111,342	-0,067	-0,010
-284,789	282,424	-0,018	-0,023
-283,774	-200,000	0,002	0,031
-282,759	675,574	-0,023	-0,044
-281,745	800,000	0,005	-0,012
-280,730	800,000	0,028	-0,081
-279,716	351,614	-0,077	0,111
-278,701	-200,000	-0,003	0,086
-277,686	80,519	0,083	0,064
-276,672	109,450	0,064	-0,055
-275,657	-137,325	0,055	0,004
-274,643	-67,216	-0,070	0,020
-273,628	198,267	0,024	0,027
-272,613	71,062	0,065	-0,049
-271,599	15,276	-0,141	0,080
-270,584	-166,637	-0,054	-0,002
-269,570	800,000	-0,023	0,048
-268,555	800,000	-0,018	-0,050
-267,540	97,809	0,017	0,014
-266,526	-122,862	-0,281	-0,032
-265,511	-200,000	-0,025	-0,084
-264,497	800,000	0,053	0,140
-263,482	-200,000	0,049	0,195
-262,467	800,000	0,047	0,103
-261,453	-69,435	0,079	0,022
-260,438	12,619	-0,081	-0,045
-259,424	72,967	-0,036	0,027
-258,409	-200,000	0,010	0,118
-257,395	800,000	0,031	0,063
-256,380	-51,104	0,113	-0,038
-255,365	-45,588	0,128	0,046
-254,351	800,000	-0,060	0,164
-253,336	-200,000	-0,024	-0,093
-252,322	-60,825	0,034	0,010
-251,307	462,619	0,026	0,043
-250,292	208,583	0,008	-0,009
-249,278	100,310	0,104	0,088
-248,263	-67,900	-0,012	0,003
-247,249	105,285	0,092	0,079
-246,234	800,000	-0,058	0,137
-245,219	59,486	-0,100	-0,072
-244,205	-50,232	0,194	-0,066
-243,190	280,912	0,018	0,023
-242,176	172,242	0,133	0,138
-241,161	365,882	-0,067	0,098
-240,146	-14,452	0,107	-0,050
-239,132	-59,768	-0,042	-0,013
-238,117	-200,000	0,007	0,080
-237,103	-200,000	0,005	-0,065
-236,088	147,813	-0,064	-0,063
-235,073	-37,977	0,146	0,056
-234,059	800,000	0,024	0,072
-233,044	-200,000	-0,024	0,146
-232,030	800,000	0,020	0,051
-231,015	-200,000	-0,004	-0,107
-230,000	-200,000	-0,012	0,081
-228,986	-200,000	-0,031	0,138
-227,971	-32,390	-0,046	-0,018
-226,957	800,000	0,009	0,028
-225,942	-200,000	0,005	0,027
-224,927	-118,776	0,063	0,008
-223,913	5,784	-0,036	-0,019
-222,898	108,446	0,051	-0,044
-221,884	266,597	-0,031	0,039
-220,869	-35,306	0,074	-0,029
-219,855	684,387	-0,015	0,028
-218,840	800,000	-0,026	0,061
-217,825	544,931	0,073	0,126
-216,811	357,283	0,064	0,092
-215,796	-136,732	-0,150	0,012
-214,782	402,246	-0,081	0,124
-213,767	454,149	-0,056	-0,089
-212,752	0,932	0,129	0,067
-211,738	-143,386	0,057	-0,004
-210,723	800,000	0,012	-0,024
-209,709	-148,651	0,175	-0,010
-208,694	-200,000	-0,018	0,060
-207,679	18,072	-0,055	-0,031
-206,665	-160,268	0,102	-0,004
-205,650	-143,464	0,089	-0,006
-204,636	-200,000	-0,006	0,021
-203,621	33,114	0,066	-0,041
-202,606	-20,427	0,072	0,032
-201,592	-123,241	-0,124	-0,014
-200,577	-106,687	-0,045	-0,007
-199,563	36,412	-0,086	0,055
-198,548	553,373	0,038	0,067
-197,533	144,084	-0,076	-0,073
-196,519	-159,964	0,036	0,001
-195,504	-96,527	-0,143	-0,027
-194,490	-94,905	0,099	0,019
-193,475	800,000	-0,052	-0,111
-192,460	-118,114	0,096	0,012
-191,446	-141,618	-0,068	-0,005
-190,431	-167,881	-0,035	-0,001
-189,417	-200,000	-0,050	0,176
-188,402	800,000	0,028	-0,080
-187,387	800,000	-0,053	0,125
-186,373	81,950	0,023	-0,018
-185,358	142,301	0,062	-0,060
-184,344	-105,300	-0,025	-0,004
-183,329	800,000	0,039	0,083
-182,315	800,000	-0,050	0,140
-181,300	-120,291	-0,052	0,006
-180,285	756,252	0,028	-0,056
-179,271	-130,310	0,020	0,002
-178,256	659,532	0,008	0,014
-177,242	47,769	0,021	0,014
-176,227	38,694	0,039	-0,025
-175,212	239,495	0,045	-0,054
-174,198	-200,000	0,006	0,138
-173,183	-76,142	-0,042	0,010
-172,169	-200,000	0,030	-0,149
-171,154	-3,760	-0,008	-0,004
-170,139	66,839	0,055	0,041
-169,125	-113,477	0,075	-0,010
-168,110	800,000	0,032	0,091
-167,096	-29,504	0,061	0,025
-166,081	442,177	-0,067	-0,106
-165,066	-200,000	-0,005	-0,076
-164,052	152,946	0,115	0,114
-163,037	-36,199	-0,074	0,029
-162,023	49,912	0,063	-0,043
-161,008	41,996	-0,023	0,015
-159,993	-58,793	0,099	0,031
-158,979	800,000	-0,069	0,188
-157,964	800,000	-0,018	0,048
-156,950	-200,000	-0,003	-0,020
-155,935	-56,108	0,093	0,030
-154,920	-86,579	-0,052	0,011
-153,906	315,326	-0,078	0,106
-152,891	-129,792	0,088	-0,009
-151,877	800,000	0,019	0,044
-150,862	-63,079	0,063	0,019
-149,847	800,000	-0,015	0,034
-148,833	30,748	0,087	-0,053
-147,818	-52,117	0,040	0,013
-146,804	-105,153	-0,017	0,003
-145,789	-50,644	0,170	0,057
-144,775	-68,649	-0,140	0,039
-143,760	56,045	-0,046	0,032
-142,745	-3,329	-0,071	-0,035
-141,731	800,000	-0,080	0,168
-140,716	800,000	-0,027	0,076
-139,702	167,998	-0,080	-0,083
-138,687	423,020	0,060	0,093
-137,672	120,956	0,042	0,038
-136,658	118,418	0,032	-0,029
-135,643	-200,000	-0,003	0,071
-134,629	-5,438	-0,080	-0,040
-133,614	-9,713	0,049	0,023
-132,599	487,683	0,013	0,022
-131,585	120,602	0,039	0,035
-130,570	713,181	0,036	0,069
-129,556	307,806	0,037	0,050
-128,541	-115,973	-0,212	-0,028
-127,526	427,693	0,041	-0,065
-126,512	-131,975	0,081	-0,008
-125,497	800,000	-0,051	0,105
-124,483	34,456	0,140	-0,088
-123,468	17,017	-0,055	0,032
-122,453	-200,000	0,018	0,073
-121,439	208,737	-0,131	-0,148
-120,424	444,976	-0,022	0,035
-119,410	-47,524	-0,099	0,035
-118,395	-82,779	0,042	-0,010
-117,380	800,000	-0,008	-0,025
-116,366	800,000	0,017	-0,034
-115,351	-200,000	0,022	-0,108
-114,337	-200,000	0,002	0,097
-113,322	-200,000	0,011	0,168
-112,307	-9,757	0,073	-0,035
-111,293	-135,343	0,118	0,010
-110,278	800,000	-0,041	0,087
-109,264	-99,682	0,081	-0,014
-108,249	106,171	-0,109	0,093
-107,234	-200,000	0,009	-0,072
-106,220	800,000	0,052	-0,111
-105,205	-2,260	0,067	-0,034
-104,191	190,174	-0,086	-0,092
-103,176	-61,866	0,075	0,023
-102,162	-200,000	-0,009	0,029
-101,147	-200,000	-0,053	0,196
-100,132	800,000	-0,041	-0,109
-99,118	46,313	-0,047	0,031
-98,103	184,926	0,038	-0,040
-97,089	-200,000	-0,023	0,180
-96,074	-95,190	0,071	-0,014
-95,059	-200,000	-0,036	-0,122
-94,045	311,383	-0,052	0,070
-93,030	-30,681	-0,149	0,060
-92,016	14,910	0,062	0,035
-91,001	-200,000	0,011	0,092
-89,986	-200,000	0,011	0,104
-88,972	152,790	0,112	0,110
-87,957	-200,000	0,014	-0,087
-86,943	21,856	0,059	-0,035
-85,928	164,128	-0,045	0,046
-84,913	800,000	0,076	-0,157
-83,899	571,456	-0,076	0,133
-82,884	-200,000	0,009	0,029
-81,870	-46,976	-0,076	0,026
-80,855	-16,347	0,083	-0,038
-79,840	-200,000	0,006	0,046
-78,826	-175,746	-0,213	-0,004
-77,811	-200,000	-0,006	-0,175
-76,797	262,685	-0,027	-0,033
-75,782	-200,000	0,010	-0,040
-74,767	-59,091	0,186	0,057
-73,753	-200,000	-0,019	0,076
-72,738	214,926	0,130	0,149
-71,724	-108,888	-0,070	0,011
-70,709	-200,000	0,003	-0,024
-69,694	-130,629	-0,112	-0,011
-68,680	442,767	0,037	0,058
-67,665	-200,000	0,036	0,144
-66,651	800,000	0,025	0,050
-65,636	-135,621	0,067	-0,006
-64,622	523,862	0,049	0,084
-63,607	502,631	-0,014	-0,024
-62,592	267,346	0,040	-0,051
-61,578	559,049	0,025	0,044
-60,563	116,023	0,085	0,075
-59,549	800,000	-0,021	-0,058
-58,534	41,172	-2,082	-1,348
-57,519	-200,000	-0,176	-0,690
-56,505	-200,000	-1,404	-5,087
-55,490	155,738	0,826	0,817
-54,476	800,000	5,384	12,023
-53,461	-200,000	18,800	320,211
-52,446	800,000	742,653	2338,306
-51,432	556,715	1658,356	2878,888
-50,417	110,947	1641,535	1417,725
-49,403	75,322	1291,474	976,579
-48,388	30,227	1032,169	630,781
-47,373	19,951	994,936	573,922
-46,359	17,324	982,688	558,169
-45,344	13,988	978,851	544,978
-44,330	14,326	977,175	545,137
-43,315	13,710	975,299	542,042
-42,300	13,637	974,198	541,171
-41,286	13,642	973,267	540,649
-40,271	13,602	972,483	540,059
-39,257	13,655	971,535	539,684
-38,242	13,678	970,625	539,232
-37,227	13,662	969,686	538,637
-36,213	13,653	968,787	538,089
-35,198	13,648	967,811	537,510
-34,184	13,649	967,196	537,148
-33,169	13,654	966,082	536,523
-32,154	13,608	965,252	535,893
-31,140	13,633	964,211	535,375
-30,125	13,676	963,609	535,160
-29,111	13,652	962,774	534,596
-28,096	13,642	962,192	534,220
-27,082	13,630	961,472	533,759
-26,067	13,682	960,665	533,460
-25,052	13,674	959,910	532,991
-24,038	13,665	959,409	532,663
-23,023	13,652	958,662	532,185
-22,009	13,732	957,905	532,001
-20,994	13,675	957,360	531,494
-19,979	13,648	956,898	531,131
-18,965	13,653	956,097	530,681
-17,950	13,663	955,490	530,355
-16,936	13,609	954,885	529,824
-15,921	13,679	954,081	529,583
-14,906	13,599	953,358	528,902
-13,892	13,562	952,813	528,462
-12,877	13,577	952,083	528,083
-11,863	13,545	951,493	527,632
-10,848	13,516	950,941	527,212
-9,833	13,636	950,440	527,297
-8,819	13,597	949,754	526,772
-7,804	13,546	949,224	526,294
-6,790	13,584	948,462	525,971
-5,775	13,579	947,964	525,658
-4,760	13,557	947,562	525,346
-3,746	13,552	946,671	524,815
-2,731	13,402	946,100	524,000
-1,717	13,406	945,377	523,591
-0,702	13,389	944,824	523,209
0,313	13,161	944,080	522,863
1,327	16,544	941,508	532,117
2,342	25,397	795,660	473,218
3,356	21,093	459,650	266,748
4,371	-6,371	316,524	154,238
5,386	-10,443	298,416	141,244
6,400	-12,598	292,344	136,202
7,415	-12,807	290,112	134,942
8,429	-12,776	288,576	134,246
9,444	-12,762	287,524	133,758
10,459	-12,455	287,035	133,820
11,473	-12,754	286,423	133,229
12,488	-12,652	285,834	133,044
13,502	-12,768	285,405	132,719
14,517	-12,627	284,950	132,633
15,531	-12,315	284,763	132,838
16,546	-12,238	284,387	132,727
17,561	-12,274	283,940	132,470
18,575	-12,080	283,748	132,558
19,590	-12,185	283,262	132,217
20,604	-12,059	283,067	132,236
21,619	-12,116	282,550	131,927
22,634	-12,047	282,261	131,848
23,648	-12,052	282,094	131,754
24,663	-12,170	281,717	131,451
25,677	-12,182	281,471	131,313
26,692	-12,253	281,289	131,149
27,707	-12,202	280,876	130,994
28,721	-12,148	280,556	130,884
29,736	-11,905	280,168	130,924
30,750	-12,038	279,994	130,704
31,765	-12,071	279,781	130,561
32,780	-11,937	279,456	130,526
33,794	-12,108	279,281	130,269
34,809	-12,207	278,987	130,026
35,823	-12,146	278,929	130,045
36,838	-12,217	278,667	129,844
37,853	-12,393	278,497	129,587
38,867	-12,126	277,904	129,553
39,882	-12,106	277,705	129,467
40,896	-12,276	277,688	129,286
41,911	-12,187	277,269	129,164
42,926	-12,132	276,992	129,076
43,940	-12,291	276,723	128,789
44,955	-12,018	276,566	128,961
45,969	-12,153	276,376	128,734
46,984	-12,285	276,213	128,523
47,999	-12,304	276,092	128,437
49,013	-12,403	275,736	128,166
50,028	-12,335	275,314	128,023
51,042	-12,396	275,156	127,880
52,057	-12,511	275,025	127,700
53,071	-12,420	274,721	127,633
54,086	-12,614	274,620	127,393
55,101	-12,235	274,240	127,560
56,115	-12,373	274,100	127,354
57,130	-12,356	273,847	127,241
58,144	-12,139	273,611	127,323
59,159	-12,080	273,242	127,195
60,174	-12,317	273,216	126,950
61,188	-12,039	272,926	127,063
62,203	-12,199	272,751	126,822
63,217	-12,172	272,409	126,676
64,232	-12,158	272,210	126,586
65,247	-12,182	271,937	126,425
66,261	-12,228	271,756	126,287
67,276	-12,160	271,464	126,203
68,290	-12,258	271,387	126,065
69,305	-12,424	271,180	125,804
70,320	-12,236	270,823	125,801
71,334	-12,296	270,672	125,664
72,349	-12,270	270,386	125,544
73,363	-12,271	270,145	125,420
74,378	-12,289	269,990	125,320
75,393	-12,145	269,807	125,356
76,407	-12,216	269,568	125,170
77,422	-12,175	269,382	125,109
78,436	-12,210	269,070	124,922
79,451	-12,408	268,793	124,601
80,466	-12,284	268,543	124,587
81,480	-12,270	268,377	124,511
82,495	-12,243	268,148	124,419
83,509	-12,205	267,962	124,356
84,524	-12,115	267,757	124,332
85,539	-12,101	267,464	124,198
86,553	-12,360	267,351	123,898
87,568	-12,182	267,179	123,969
88,582	-12,263	266,994	123,799
89,597	-12,420	266,761	123,537
90,611	-12,391	266,714	123,531
91,626	-12,346	266,331	123,383
92,641	-12,197	266,194	123,444
93,655	-12,310	265,959	123,221
94,670	-12,286	265,819	123,167
95,684	-12,293	265,562	123,031
96,699	-12,333	265,300	122,863
97,714	-12,321	265,201	122,816
98,728	-12,190	264,848	122,761
99,743	-12,413	264,787	122,520
100,757	-12,307	264,472	122,458
101,772	-12,264	264,356	122,433
102,787	-12,287	264,199	122,328
103,801	-12,366	263,919	122,117
104,816	-12,313	263,790	122,094
105,830	-12,329	263,642	122,000
106,845	-12,462	263,344	121,733
107,860	-12,388	263,088	121,669
108,874	-12,415	262,842	121,521
109,889	-12,329	262,584	121,467
110,903	-12,412	262,549	121,366
111,918	-12,402	262,288	121,244
112,933	-12,264	262,054	121,248
113,947	-12,264	261,826	121,131
114,962	-12,314	261,629	120,985
115,976	-12,243	261,535	120,993
116,991	-12,272	261,438	120,912
118,006	-12,155	261,149	120,872
119,020	-12,342	261,117	120,680
120,035	-12,312	260,883	120,587
121,049	-12,381	260,685	120,425
122,064	-12,532	260,501	120,195
123,079	-12,260	260,200	120,286
124,093	-12,352	260,106	120,151
125,108	-12,326	259,829	120,035
126,122	-12,301	259,635	119,957
127,137	-12,230	259,395	119,897
128,151	-12,230	259,303	119,844
129,166	-12,261	259,060	119,694
130,181	-12,212	258,837	119,623
131,195	-12,351	258,484	119,328
132,210	-12,402	258,387	119,227
133,224	-12,441	258,180	119,087
134,239	-12,406	258,101	119,070
135,254	-12,457	257,833	118,892
136,268	-12,379	257,630	118,856
137,283	-12,335	257,339	118,750
138,297	-12,316	257,179	118,681
139,312	-12,603	256,924	118,303
140,327	-12,260	256,641	118,461
141,341	-12,064	256,575	118,590
142,356	-12,321	256,426	118,287
143,370	-12,418	256,400	118,181
144,385	-11,942	256,144	118,465
145,400	-12,164	256,000	118,195
146,414	-12,064	255,662	118,115
147,429	-12,090	255,526	118,019
148,443	-12,173	255,274	117,821
149,458	-12,161	255,253	117,811
150,473	-12,176	255,056	117,697
151,487	-12,426	254,765	117,337
152,502	-12,175	254,584	117,459
153,516	-11,978	254,372	117,520
154,531	-12,004	254,212	117,413
155,546	-12,117	253,996	117,206
156,560	-12,141	253,807	117,088
157,575	-12,176	253,579	116,942
158,589	-12,358	253,292	116,644
159,604	-12,185	253,261	116,767
160,619	-11,898	253,171	116,960
161,633	-11,868	252,914	116,857
162,648	-11,981	252,924	116,755
163,662	-12,146	252,685	116,493
164,677	-12,063	252,341	116,395
165,692	-12,041	252,187	116,332
166,706	-11,999	252,111	116,322
167,721	-12,135	251,904	116,101
168,735	-12,136	251,865	116,071
169,750	-12,242	251,602	115,850
170,764	-12,170	251,415	115,814
171,779	-12,223	251,271	115,693
172,794	-11,904	251,067	115,859
173,808	-12,178	250,789	115,488
174,823	-12,426	250,658	115,208
175,837	-12,446	250,526	115,120
176,852	-12,330	250,310	115,109
177,867	-12,459	250,388	115,025
178,881	-12,187	250,126	115,124
179,896	-12,118	249,851	115,045
180,910	-11,999	249,610	115,025
181,925	-12,265	249,574	114,774
182,940	-12,310	249,389	114,641
183,954	-12,269	249,355	114,649
184,969	-11,898	248,997	114,786
185,983	-12,168	249,015	114,558
186,998	-11,994	248,745	114,569
188,013	-12,050	248,545	114,419
189,027	-12,151	248,267	114,197
190,042	-12,133	248,022	114,088
191,056	-12,479	247,976	113,769
192,071	-12,473	247,769	113,668
193,086	-12,483	247,573	113,560
194,100	-12,500	247,428	113,469
195,115	-12,122	247,292	113,712
196,129	-12,244	247,003	113,467
197,144	-12,247	246,855	113,386
198,159	-12,346	246,575	113,166
199,173	-12,462	246,410	112,984
200,188	-12,605	246,116	112,720
201,202	-12,554	245,855	112,633
202,217	-12,505	245,895	112,681
203,232	-12,546	245,619	112,512
204,246	-12,825	245,258	112,105
205,261	-13,736	244,586	111,038
206,275	-13,489	244,727	111,295
207,290	-9,442	246,236	115,324
208,304	-2,615	248,646	122,140
209,319	1,835	249,868	126,450
210,334	2,967	250,081	127,491
211,348	3,495	249,916	127,836
212,363	3,615	249,910	127,922
213,377	3,800	250,014	128,118
214,392	3,955	249,874	128,164
215,407	4,057	249,667	128,131
216,421	4,159	249,449	128,093
217,436	4,341	249,160	128,084
218,450	3,976	249,126	127,752
219,465	3,939	248,882	127,585
220,480	3,674	248,799	127,311
221,494	3,546	248,729	127,158
222,509	3,536	248,386	126,963
223,523	3,372	248,001	126,619
224,538	3,019	247,768	126,198
225,553	3,012	247,591	126,090
226,567	2,748	247,306	125,717
227,582	2,794	247,303	125,742
228,596	2,805	247,104	125,638
229,611	2,960	246,896	125,649
230,626	2,666	246,835	125,365
231,640	2,934	246,527	125,417
232,655	2,901	246,407	125,318
233,669	2,830	246,248	125,167
234,684	2,707	246,172	125,016
235,699	2,951	245,880	125,058
236,713	2,933	245,901	125,042
237,728	2,841	245,726	124,867
238,742	2,993	245,525	124,878
239,757	3,121	245,226	124,819
240,772	2,809	245,328	124,605
241,786	2,819	245,095	124,484
242,801	2,774	244,856	124,315
243,815	2,758	244,645	124,183
244,830	2,761	244,448	124,075
245,844	2,881	244,329	124,101
246,859	2,835	244,210	123,991
247,874	3,121	243,991	124,102
248,888	2,926	243,925	123,899
249,903	2,878	243,726	123,748
250,917	2,871	243,724	123,730
251,932	3,161	243,549	123,865
252,947	2,914	243,373	123,565
253,961	2,992	243,114	123,485
254,976	2,691	242,993	123,170
255,990	3,079	242,864	123,406
257,005	3,041	242,730	123,296
258,020	2,853	242,497	123,016
259,034	3,001	242,414	123,082
260,049	2,885	242,257	122,898
261,063	2,650	242,106	122,621
262,078	2,946	241,938	122,764
263,093	2,805	241,806	122,572
264,107	3,077	241,488	122,618
265,122	2,907	241,415	122,434
266,136	3,033	241,345	122,489
267,151	3,178	241,098	122,468
268,166	3,048	240,837	122,220
269,180	2,858	240,639	121,957
270,195	2,821	240,677	121,936
271,209	3,095	240,325	121,965
272,224	2,916	240,271	121,785
273,239	2,679	240,156	121,526
274,253	2,878	239,899	121,544
275,268	2,733	239,864	121,400
276,282	2,838	239,678	121,379
277,297	2,548	239,493	121,044
278,312	2,813	239,398	121,195
279,326	3,020	239,234	121,266
280,341	2,866	239,005	121,016
281,355	2,809	238,997	120,956
282,370	2,930	238,827	120,956
283,384	3,080	238,686	120,992
284,399	2,724	238,591	120,652
285,414	2,974	238,300	120,691
286,428	2,818	238,168	120,491
287,443	2,842	238,071	120,450
288,457	2,707	237,849	120,220
289,472	2,868	237,723	120,273
290,487	2,854	237,489	120,132
291,501	2,673	237,472	119,971
292,516	2,747	237,294	119,928
293,530	2,788	237,023	119,813
294,545	3,029	236,922	119,941
295,560	2,917	236,775	119,767
296,574	2,840	236,686	119,651
297,589	2,999	236,449	119,645
298,603	2,902	236,375	119,521
299,618	3,058	236,209	119,548
300,633	2,982	236,086	119,416
301,647	2,993	235,930	119,335
302,662	3,115	235,933	119,421
303,676	3,138	235,670	119,296
304,691	3,129	235,489	119,186
305,706	3,129	235,344	119,102
306,720	3,129	235,198	119,018
307,735	3,050	235,035	118,864
308,749	2,989	234,922	118,748
309,764	3,023	234,714	118,659
310,779	2,878	234,341	118,347
311,793	2,844	234,282	118,281
312,808	2,971	234,162	118,307
313,822	3,300	234,072	118,506
314,837	3,147	234,016	118,349
315,852	3,255	233,809	118,318
316,866	3,117	233,793	118,192
317,881	3,261	233,559	118,175
318,895	3,086	233,480	117,989
319,910	3,180	233,138	117,879
320,925	2,977	233,057	117,670
321,939	2,974	232,814	117,535
322,954	2,876	232,876	117,480
323,968	2,790	232,669	117,299
324,983	3,102	232,401	117,393
325,997	3,319	232,337	117,517
327,012	3,027	232,238	117,233
328,027	2,969	231,940	117,027
329,041	3,020	231,935	117,053
330,056	2,801	231,847	116,831
331,070	3,328	231,446	117,021
332,085	2,991	231,495	116,778
333,100	2,772	231,215	116,459
334,114	2,946	231,128	116,537
335,129	3,020	230,834	116,435
336,143	2,832	230,910	116,319
337,158	3,071	230,652	116,361
338,173	3,169	230,490	116,344
339,187	3,056	230,402	116,203
340,202	2,921	230,239	116,008
341,216	3,085	230,037	116,021
342,231	3,056	229,981	115,959
343,246	2,922	229,889	115,801
344,260	3,100	229,714	115,838
345,275	2,905	229,590	115,617
346,289	3,131	229,465	115,715
347,304	3,137	229,268	115,610
348,319	3,175	228,995	115,490
349,333	3,157	228,790	115,363
350,348	2,992	228,680	115,173
351,362	3,023	228,594	115,143
352,377	2,804	228,555	114,948
353,392	2,761	228,416	114,835
354,406	2,669	228,204	114,649
355,421	195,767	1316,518	1393,513
356,435	157,022	1449,072	1393,458
