DTS Sentinel unit serial number:	SN410029Multiplexer serial number:	ORYXHardware model number:	OX2-SRSoftware version number:	ORYX F/W v4,00 Oryx Data Collector v3.7.2.0data status	okinstallation	B5 Nyhavnadifferential loss correction	single-endedforward channel	channel 2reverse channel	N/Adate	2023/12/12time	11:37:13forward acquisition time	300,00reverse acquisition time	0,00gamma	499,1914k internal	0,3158k external	0,3158temperature offset calibration	1,0000default loss term (dB/km)	0,3820temperature slope calibration	1,0000multiplexer offset coefficient	1,0000multiplexer slope coefficient	1,0000fibre end	0,00T internal ref (°C)	15,10T ext. ref 1 (°C)	-1,06T ext. ref 2 (°C)	-1,32length (m)	temperature (°C)	Stokes	anti-Stokes-744,400	49,182	0,091	-0,063
-743,385	-99,732	-0,240	-0,044
-742,371	60,293	0,024	-0,018
-741,356	57,450	-0,284	0,204
-740,342	800,000	0,086	0,176
-739,327	-35,002	-0,345	-0,138
-738,312	-14,605	0,110	-0,052
-737,298	-130,176	-0,210	-0,021
-736,283	380,937	0,023	-0,034
-735,269	-197,909	-0,256	0,001
-734,254	-49,396	0,067	-0,023
-733,239	-22,497	-0,564	-0,251
-732,225	-79,602	0,158	0,039
-731,210	104,382	-0,115	0,099
-730,196	-200,000	-0,005	-0,039
-729,181	466,873	-0,008	0,013
-728,167	800,000	-0,025	0,064
-727,152	-14,087	-0,026	0,012
-726,137	800,000	-0,047	0,117
-725,123	198,902	0,082	0,092
-724,108	-200,000	-0,034	-0,143
-723,094	-176,381	-0,034	-0,001
-722,079	266,136	0,059	-0,075
-721,064	94,880	-0,106	-0,089
-720,050	-200,000	-0,005	0,047
-719,035	800,000	0,048	-0,140
-718,021	265,047	-0,043	0,056
-717,006	800,000	-0,092	-0,249
-715,991	189,257	-0,110	-0,122
-714,977	7,550	0,031	0,017
-713,962	96,632	0,069	-0,058
-712,948	-200,000	-0,001	-0,049
-711,933	-31,846	-0,002	0,001
-710,918	49,043	0,004	-0,003
-709,904	-62,457	-0,138	-0,042
-708,889	39,746	0,051	0,034
-707,875	118,505	-0,058	-0,053
-706,860	639,405	-0,016	-0,029
-705,845	-57,967	0,025	0,008
-704,831	62,932	0,070	-0,051
-703,816	-11,941	-0,114	-0,055
-702,802	800,000	0,024	0,065
-701,787	-200,000	0,006	-0,158
-700,772	800,000	0,044	-0,116
-699,758	-200,000	-0,022	-0,082
-698,743	252,926	0,127	0,160
-697,729	-200,000	0,014	0,068
-696,714	350,535	0,048	0,071
-695,699	113,159	-0,062	0,055
-694,685	457,430	0,011	0,019
-693,670	-23,772	-0,092	0,040
-692,656	-68,967	0,042	-0,012
-691,641	-200,000	-0,008	0,042
-690,627	35,824	0,113	-0,073
-689,612	800,000	-0,011	0,034
-688,597	14,900	-0,207	-0,119
-687,583	201,596	-0,035	-0,040
-686,568	-127,851	-0,066	0,007
-685,554	-41,771	0,141	0,053
-684,539	213,983	0,087	0,101
-683,524	216,028	0,054	0,064
-682,510	32,448	-0,025	-0,016
-681,495	-43,467	-0,159	0,059
-680,481	-200,000	-0,001	-0,110
-679,466	-200,000	0,001	-0,116
-678,451	800,000	0,034	-0,105
-677,437	-148,649	0,109	-0,006
-676,422	800,000	0,072	0,174
-675,408	25,561	-0,056	-0,034
-674,393	-81,394	-0,085	-0,021
-673,378	-151,653	-0,069	-0,004
-672,364	2,738	-0,079	0,042
-671,349	395,322	-0,045	0,069
-670,335	-116,327	-0,093	0,013
-669,320	102,024	-0,057	0,049
-668,305	64,392	0,024	-0,018
-667,291	29,811	-0,108	-0,068
-666,276	-9,354	-0,064	0,031
-665,262	800,000	-0,055	-0,132
-664,247	-26,636	-0,138	0,059
-663,232	15,851	0,091	-0,053
-662,218	-200,000	0,006	0,056
-661,203	-200,000	-0,026	-0,151
-660,189	214,499	-0,014	0,016
-659,174	496,003	-0,044	-0,075
-658,159	-45,744	-0,043	-0,016
-657,145	-200,000	-0,010	-0,105
-656,130	-75,168	0,029	-0,008
-655,116	-190,168	-0,010	0,000
-654,101	800,000	0,016	-0,051
-653,086	-200,000	-0,011	-0,062
-652,072	-146,989	0,085	-0,005
-651,057	115,274	-0,117	-0,105
-650,043	59,412	-0,034	-0,024
-649,028	-93,685	0,115	-0,023
-648,014	800,000	0,032	0,092
-646,999	-103,813	-0,095	0,016
-645,984	-105,561	0,064	0,010
-644,970	-200,000	-0,007	0,129
-643,955	247,438	0,016	-0,019
-642,941	318,541	0,041	-0,057
-641,926	621,436	0,039	-0,072
-640,911	119,386	-0,072	-0,066
-639,897	-63,916	0,092	0,027
-638,882	-79,510	-0,108	0,027
-637,868	16,326	-0,092	0,053
-636,853	756,699	0,069	-0,137
-635,838	381,672	0,087	-0,132
-634,824	80,858	0,009	0,007
-633,809	276,167	-0,069	-0,090
-632,795	-47,161	0,062	-0,022
-631,780	-35,046	-0,068	0,027
-630,765	-168,664	-0,114	0,003
-629,751	52,899	-0,069	-0,048
-628,736	212,647	-0,099	-0,115
-627,722	32,341	0,036	-0,023
-626,707	7,131	0,043	0,024
-625,692	-200,000	0,009	0,047
-624,678	800,000	0,022	0,072
-623,663	-150,403	-0,041	-0,002
-622,649	108,695	-0,102	-0,090
-621,634	-200,000	0,000	-0,005
-620,619	-11,107	-0,077	-0,037
-619,605	-28,336	0,148	0,062
-618,590	7,505	-0,043	0,023
-617,576	410,549	-0,056	0,087
-616,561	800,000	0,074	-0,178
-615,546	297,613	-0,102	-0,138
-614,532	-200,000	-0,008	0,075
-613,517	62,436	-0,056	-0,041
-612,503	665,835	0,005	-0,009
-611,488	158,059	0,092	-0,094
-610,474	176,013	0,048	-0,052
-609,459	19,041	-0,025	0,015
-608,444	-84,299	-0,043	0,010
-607,430	115,952	-0,024	0,022
-606,415	-23,288	-0,127	0,056
-605,401	302,055	0,021	-0,028
-604,386	-58,029	-0,021	0,007
-603,371	256,661	0,075	-0,095
-602,357	-65,167	0,067	0,020
-601,342	-38,173	0,053	0,020
-600,328	-46,322	-0,120	-0,043
-599,313	800,000	0,030	-0,086
-598,298	1,431	-0,086	-0,045
-597,284	-133,458	-0,066	0,006
-596,269	585,074	-0,033	-0,060
-595,255	-200,000	0,022	0,163
-594,240	-200,000	-0,001	0,071
-593,225	-77,064	-0,054	0,014
-592,211	800,000	0,017	0,040
-591,196	-200,000	-0,005	0,083
-590,182	-200,000	-0,023	0,078
-589,167	-31,774	-0,044	-0,018
-588,152	184,615	0,062	0,067
-587,138	-117,116	-0,064	-0,008
-586,123	800,000	0,020	-0,044
-585,109	-85,363	0,079	0,018
-584,094	-200,000	-0,024	0,116
-583,079	-200,000	-0,014	-0,122
-582,065	240,609	0,045	0,055
-581,050	52,646	0,119	0,083
-580,036	-144,455	-0,119	0,008
-579,021	-21,750	-0,126	-0,056
-578,006	-91,970	0,125	-0,026
-576,992	800,000	0,022	0,062
-575,977	16,389	0,099	-0,057
-574,963	40,623	-0,007	-0,005
-573,948	123,905	0,057	0,052
-572,934	-67,666	0,101	-0,029
-571,919	-47,317	-0,164	-0,058
-570,904	69,798	-0,125	-0,094
-569,890	-200,000	-0,008	0,029
-568,875	220,316	0,040	-0,047
-567,861	-61,451	-0,084	-0,026
-566,846	132,628	0,097	0,092
-565,831	-51,376	0,072	-0,024
-564,817	-200,000	-0,013	-0,060
-563,802	27,145	-0,186	0,114
-562,788	-43,798	0,137	0,050
-561,773	386,189	0,064	0,098
-560,758	-200,000	0,001	-0,011
-559,744	184,886	0,087	0,095
-558,729	46,782	-0,040	-0,027
-557,715	-164,194	-0,090	0,003
-556,700	800,000	0,019	-0,054
-555,685	476,618	0,064	-0,107
-554,671	-70,063	-0,061	0,017
-553,656	-173,833	-0,044	0,001
-552,642	1,362	0,061	0,032
-551,627	96,884	-0,065	-0,054
-550,612	141,936	-0,062	0,060
-549,598	26,392	-0,120	-0,073
-548,583	-200,000	0,017	-0,070
-547,569	-57,561	-0,100	0,032
-546,554	269,385	0,043	-0,055
-545,539	-54,493	-0,110	0,036
-544,525	94,353	-0,079	-0,066
-543,510	-200,000	0,030	-0,122
-542,496	180,436	0,112	-0,120
-541,481	-200,000	0,039	-0,132
-540,466	-75,144	-0,069	0,018
-539,452	485,129	-0,058	0,097
-538,437	800,000	0,093	0,199
-537,423	-20,837	-0,109	0,049
-536,408	-124,135	-0,203	-0,023
-535,393	-200,000	-0,030	-0,151
-534,379	548,298	-0,016	-0,028
-533,364	800,000	0,020	-0,048
-532,350	-173,673	0,193	0,004
-531,335	-200,000	0,011	0,148
-530,321	95,502	-0,102	0,085
-529,306	600,725	-0,028	0,051
-528,291	163,099	0,043	0,045
-527,277	-200,000	0,010	-0,093
-526,262	800,000	-0,039	0,091
-525,248	-117,630	-0,044	-0,006
-524,233	-200,000	0,040	0,145
-523,218	83,962	-0,054	0,043
-522,204	337,080	-0,041	0,058
-521,189	200,458	-0,039	0,044
-520,175	224,750	-0,049	-0,058
-519,160	-200,000	0,012	-0,143
-518,145	-200,000	-0,005	-0,075
-517,131	761,755	0,043	-0,087
-516,116	-160,723	0,022	-0,001
-515,102	563,401	-0,069	0,123
-514,087	218,143	-0,104	-0,122
-513,072	-200,000	-0,007	-0,070
-512,058	358,995	-0,038	0,056
-511,043	34,716	0,081	-0,052
-510,029	800,000	0,058	-0,131
-509,014	-200,000	0,187	-0,000
-507,999	4,995	-0,126	-0,067
-506,985	800,000	0,009	-0,024
-505,970	-91,602	0,029	-0,006
-504,956	800,000	-0,010	0,026
-503,941	800,000	0,036	-0,087
-502,926	-200,000	-0,031	-0,162
-501,912	347,635	0,029	0,042
-500,897	-68,210	-0,168	-0,048
-499,883	32,689	0,115	0,073
-498,868	-200,000	0,005	-0,055
-497,853	345,692	-0,092	-0,133
-496,839	-47,468	0,046	-0,016
-495,824	800,000	0,025	0,075
-494,810	-71,058	0,076	0,021
-493,795	215,750	-0,093	0,108
-492,781	261,769	0,006	-0,008
-491,766	-114,971	-0,156	-0,021
-490,751	-16,461	-0,118	-0,055
-489,737	-200,000	0,007	-0,028
-488,722	602,362	0,036	-0,066
-487,708	259,114	-0,019	0,024
-486,693	456,816	0,030	0,049
-485,678	-19,810	-0,060	0,027
-484,664	-173,590	-0,052	-0,001
-483,649	-200,000	-0,080	-0,267
-482,635	-200,000	-0,001	-0,073
-481,620	800,000	0,019	-0,054
-480,605	-200,000	0,005	0,086
-479,591	-46,971	0,091	0,032
-478,576	-200,000	-0,005	0,051
-477,562	-88,896	-0,073	-0,016
-476,547	11,889	-0,062	-0,034
-475,532	-53,739	0,100	-0,033
-474,518	-80,578	0,066	-0,016
-473,503	-73,371	0,095	-0,025
-472,489	-200,000	-0,013	0,100
-471,474	36,541	0,059	0,038
-470,459	-81,639	0,128	-0,030
-469,445	53,788	-0,091	0,064
-468,430	-200,000	-0,020	-0,160
-467,416	-89,967	0,107	0,023
-466,401	643,550	-0,015	0,028
-465,386	-200,000	-0,010	0,181
-464,372	159,934	-0,055	0,056
-463,357	114,652	-0,048	-0,042
-462,343	204,000	-0,025	-0,028
-461,328	-68,008	-0,049	0,014
-460,313	208,281	-0,016	0,018
-459,299	71,502	0,055	-0,041
-458,284	800,000	0,031	0,072
-457,270	-181,629	-0,025	0,000
-456,255	-64,481	-0,091	0,027
-455,241	-200,000	-0,010	0,032
-454,226	75,512	-0,102	0,078
-453,211	-200,000	0,007	-0,039
-452,197	-93,877	0,040	-0,008
-451,182	-122,054	-0,118	0,014
-450,168	253,919	0,047	0,059
-449,153	3,985	-0,261	-0,138
-448,138	-200,000	0,009	-0,049
-447,124	612,714	0,018	-0,033
-446,109	115,042	0,057	0,050
-445,095	27,059	0,040	-0,024
-444,080	800,000	0,010	0,024
-443,065	-152,877	-0,089	-0,005
-442,051	-200,000	-0,031	-0,103
-441,036	601,354	0,050	-0,091
-440,022	-97,359	0,051	0,010
-439,007	63,099	-0,107	-0,078
-437,992	43,092	0,085	0,056
-436,978	-200,000	-0,021	0,116
-435,963	133,205	-0,064	0,060
-434,949	-176,631	-0,153	-0,003
-433,934	800,000	-0,055	-0,149
-432,919	800,000	-0,050	-0,107
-431,905	58,495	-0,030	0,021
-430,890	-3,488	0,106	-0,054
-429,876	233,821	0,087	-0,104
-428,861	-70,397	-0,052	-0,014
-427,846	-100,772	0,064	-0,011
-426,832	800,000	0,041	-0,092
-425,817	-200,000	-0,032	-0,165
-424,803	-200,000	-0,019	0,129
-423,788	-200,000	0,036	0,124
-422,773	800,000	0,022	0,066
-421,759	-149,823	-0,140	0,008
-420,744	112,633	0,046	-0,041
-419,730	545,272	-0,061	-0,106
-418,715	-200,000	-0,011	0,039
-417,701	136,726	0,016	0,015
-416,686	-200,000	-0,013	-0,052
-415,671	54,822	0,056	-0,039
-414,657	-200,000	0,094	0,000
-413,642	-200,000	0,010	-0,126
-412,628	139,799	-0,035	-0,034
-411,613	161,678	-0,087	0,088
-410,598	389,948	0,008	-0,012
-409,584	-116,637	-0,013	-0,002
-408,569	-34,446	0,139	0,055
-407,555	-45,932	0,135	-0,048
-406,540	48,616	-0,176	0,120
-405,525	526,262	-0,013	-0,022
-404,511	160,723	-0,149	-0,151
-403,496	-179,205	0,025	0,000
-402,482	70,548	0,097	0,073
-401,467	-59,671	0,070	-0,022
-400,452	-56,963	-0,074	-0,024
-399,438	485,501	0,064	-0,107
-398,423	285,959	-0,025	-0,033
-397,409	20,880	-0,088	0,052
-396,394	-200,000	0,003	-0,070
-395,379	800,000	-0,060	-0,146
-394,365	-43,829	-0,125	0,046
-393,350	-80,670	0,080	-0,019
-392,336	-200,000	0,013	0,054
-391,321	78,462	-0,151	-0,117
-390,306	314,337	0,023	-0,031
-389,292	-200,000	0,023	0,093
-388,277	-146,210	-0,033	0,002
-387,263	800,000	0,052	0,131
-386,248	32,099	-0,065	-0,041
-385,233	498,029	-0,038	0,064
-384,219	5,462	0,180	0,096
-383,204	606,862	-0,031	-0,057
-382,190	-44,417	-0,062	0,022
-381,175	-200,000	-0,011	-0,057
-380,160	-200,000	0,002	-0,066
-379,146	-88,779	0,053	0,011
-378,131	-200,000	-0,002	0,036
-377,117	230,415	-0,097	0,115
-376,102	-22,436	0,049	-0,021
-375,088	800,000	-0,020	-0,047
-374,073	800,000	0,028	0,059
-373,058	-97,077	-0,042	-0,008
-372,044	-31,047	0,135	-0,055
-371,029	334,104	0,021	0,030
-370,015	-34,866	0,056	-0,022
-369,000	-200,000	0,001	-0,054
-367,985	-200,000	-0,016	-0,153
-366,971	62,515	0,058	0,042
-365,956	675,365	-0,034	0,064
-364,942	-200,000	0,016	0,086
-363,927	-200,000	0,000	-0,037
-362,912	83,553	0,093	0,074
-361,898	-130,258	-0,089	0,009
-360,883	118,972	-0,056	0,051
-359,869	113,939	0,052	0,045
-358,854	-200,000	-0,001	0,065
-357,839	-24,206	0,122	-0,053
-356,825	-200,000	0,006	-0,082
-355,810	-200,000	0,030	-0,123
-354,796	132,668	0,079	0,074
-353,781	-92,236	-0,023	-0,005
-352,766	800,000	-0,043	0,121
-351,752	-32,804	0,174	-0,070
-350,737	177,022	0,072	-0,076
-349,723	-200,000	-0,012	0,123
-348,708	-42,901	-0,036	0,013
-347,693	800,000	-0,009	-0,022
-346,679	800,000	-0,036	-0,082
-345,664	432,676	-0,048	-0,075
-344,650	282,019	0,109	0,143
-343,635	-200,000	-0,023	0,152
-342,620	800,000	-0,051	-0,150
-341,606	-200,000	0,108	0,000
-340,591	-200,000	-0,004	-0,103
-339,577	-200,000	0,009	0,088
-338,562	503,062	-0,050	-0,084
-337,548	800,000	0,010	0,029
-336,533	-200,000	0,009	-0,062
-335,518	118,795	0,134	0,120
-334,504	-200,000	-0,004	0,138
-333,489	-200,000	0,009	0,124
-332,475	800,000	0,025	-0,054
-331,460	-200,000	0,001	0,045
-330,445	-150,140	-0,134	0,007
-329,431	-84,902	-0,029	-0,006
-328,416	800,000	-0,067	0,186
-327,402	-200,000	0,006	0,063
-326,387	-200,000	-0,008	-0,120
-325,372	123,004	-0,081	-0,074
-324,358	24,263	-0,028	-0,017
-323,343	-26,015	0,137	-0,058
-322,329	-80,176	0,191	0,046
-321,314	55,808	0,064	0,045
-320,299	-200,000	-0,010	0,103
-319,285	256,541	0,067	-0,084
-318,270	109,896	0,077	-0,067
-317,256	394,368	-0,128	-0,194
-316,241	-200,000	0,013	0,057
-315,226	-52,364	0,147	0,049
-314,212	473,049	-0,045	0,074
-313,197	161,256	0,145	0,147
-312,183	-48,728	-0,135	-0,047
-311,168	-36,657	0,051	0,020
-310,153	53,649	0,075	-0,052
-309,139	-200,000	-0,045	0,190
-308,124	-200,000	-0,004	0,045
-307,110	800,000	0,079	0,183
-306,095	74,101	-0,136	0,103
-305,080	-200,000	-0,002	-0,073
-304,066	-200,000	-0,010	0,130
-303,051	800,000	0,074	-0,159
-302,037	800,000	-0,044	0,105
-301,022	-200,000	-0,002	0,029
-300,008	61,162	0,112	0,080
-298,993	-46,014	0,087	-0,031
-297,978	109,234	-0,047	0,040
-296,964	-101,072	-0,053	-0,009
-295,949	-88,241	0,076	0,016
-294,935	-200,000	0,026	-0,089
-293,920	13,240	0,098	-0,055
-292,905	-200,000	0,023	0,124
-291,891	103,405	0,050	0,043
-290,876	91,340	0,029	-0,024
-289,862	186,537	0,024	-0,026
-288,847	-104,511	-0,115	0,019
-287,832	56,640	-0,048	-0,034
-286,818	-200,000	-0,004	-0,048
-285,803	-34,848	0,051	-0,020
-284,789	448,590	0,029	0,046
-283,774	8,182	0,041	-0,022
-282,759	-200,000	-0,001	-0,050
-281,745	-196,866	0,195	-0,001
-280,730	-17,629	-0,048	-0,022
-279,716	0,727	0,120	0,062
-278,701	-10,524	0,069	0,033
-277,686	800,000	0,011	0,026
-276,672	-173,531	-0,101	-0,002
-275,657	-200,000	-0,031	0,101
-274,643	21,818	0,056	-0,033
-273,628	20,377	0,069	0,040
-272,613	443,863	-0,068	-0,108
-271,599	-63,538	0,054	-0,016
-270,584	203,943	-0,028	0,032
-269,570	278,958	-0,040	-0,051
-268,555	800,000	-0,058	-0,164
-267,540	154,427	0,021	0,020
-266,526	98,663	0,088	0,073
-265,511	610,064	-0,011	-0,020
-264,497	19,856	-0,076	0,044
-263,482	305,976	0,098	0,132
-262,467	-143,643	0,030	-0,002
-261,453	161,923	0,096	-0,097
-260,438	107,076	-0,059	0,051
-259,424	-118,127	-0,188	-0,024
-258,409	-39,581	0,106	0,040
-257,395	716,282	-0,077	-0,148
-256,380	182,074	0,091	0,097
-255,365	-167,551	-0,098	0,003
-254,351	45,337	-0,033	-0,022
-253,336	-200,000	-0,025	0,099
-252,322	-200,000	-0,003	0,057
-251,307	-200,000	-0,014	-0,061
-250,292	-200,000	-0,028	0,127
-249,278	800,000	-0,022	-0,050
-248,263	-5,156	-0,079	-0,039
-247,249	800,000	0,015	-0,046
-246,234	699,192	0,050	0,096
-245,219	-200,000	-0,010	-0,159
-244,205	124,298	-0,074	-0,067
-243,190	425,897	0,023	-0,036
-242,176	192,749	0,095	0,104
-241,161	49,821	0,116	-0,079
-240,146	101,163	-0,073	0,062
-239,132	-200,000	0,001	0,029
-238,117	800,000	0,016	-0,037
-237,103	-115,188	0,131	-0,018
-236,088	41,517	-0,110	-0,072
-235,073	-159,094	-0,060	-0,002
-234,059	118,958	0,048	0,043
-233,044	-200,000	-0,007	0,088
-232,030	800,000	-0,041	0,119
-231,015	155,539	0,088	-0,088
-230,000	-70,816	0,030	0,008
-228,986	133,412	-0,057	-0,054
-227,971	153,775	0,071	-0,070
-226,957	800,000	0,019	0,058
-225,942	-200,000	-0,004	0,244
-224,927	423,769	0,035	-0,055
-223,913	56,774	-0,083	0,058
-222,898	-200,000	0,001	-0,056
-221,884	40,156	-0,065	-0,042
-220,869	-12,281	0,177	0,083
-219,855	-14,719	-0,140	-0,065
-218,840	-200,000	0,003	0,077
-217,825	103,690	0,096	0,081
-216,811	257,104	0,058	0,072
-215,796	80,276	-0,095	-0,074
-214,782	800,000	0,010	0,031
-213,767	-179,195	0,123	-0,002
-212,752	130,668	0,047	0,043
-211,738	48,496	-0,109	0,074
-210,723	256,234	-0,009	-0,011
-209,709	-200,000	-0,010	-0,042
-208,694	-113,980	-0,060	-0,008
-207,679	-24,357	0,061	0,026
-206,665	390,609	-0,084	0,126
-205,650	-200,000	0,026	-0,116
-204,636	-200,000	0,043	0,216
-203,621	-114,713	-0,073	0,010
-202,606	484,295	0,063	-0,103
-201,592	-200,000	0,008	-0,083
-200,577	108,699	0,040	0,035
-199,563	-100,704	-0,154	-0,027
-198,548	-200,000	-0,023	0,090
-197,533	42,089	0,071	-0,047
-196,519	-79,222	0,150	-0,036
-195,504	117,262	0,072	0,064
-194,490	-200,000	0,013	-0,091
-193,475	301,338	0,091	-0,121
-192,460	-200,000	0,029	0,107
-191,446	-81,148	0,088	-0,021
-190,431	-200,000	0,032	0,116
-189,417	147,099	-0,011	0,011
-188,402	304,140	-0,015	0,020
-187,387	663,209	-0,009	0,017
-186,373	170,511	0,035	0,036
-185,358	239,944	-0,030	0,036
-184,344	-200,000	-0,016	-0,058
-183,329	-62,969	0,096	-0,028
-182,315	-6,767	0,079	0,039
-181,300	-200,000	-0,021	-0,084
-180,285	68,599	0,048	0,035
-179,271	157,414	-0,102	-0,102
-178,256	380,208	0,006	-0,009
-177,242	226,770	0,136	0,160
-176,227	-200,000	0,008	0,054
-175,212	-53,157	-0,093	0,030
-174,198	51,370	-0,040	0,027
-173,183	-31,949	0,127	0,051
-172,169	-35,354	-0,087	-0,034
-171,154	582,540	0,085	-0,151
-170,139	-84,149	0,103	0,023
-169,125	-4,354	-0,083	0,041
-168,110	425,316	-0,062	-0,097
-167,096	-200,000	0,017	0,075
-166,081	-200,000	0,011	0,051
-165,066	16,885	-0,119	0,068
-164,052	-116,410	0,115	0,015
-163,037	394,638	-0,072	0,109
-162,023	-65,328	0,021	0,006
-161,008	3,378	0,145	0,076
-159,993	175,173	-0,073	0,077
-158,979	-62,218	-0,102	0,030
-157,964	-200,000	0,000	-0,079
-156,950	562,204	0,013	-0,023
-155,935	-165,610	0,047	-0,001
-154,920	-63,861	0,043	0,013
-153,906	21,615	-0,050	-0,029
-152,891	5,707	-0,135	-0,072
-151,877	236,950	-0,146	-0,175
-150,862	56,101	-0,043	-0,030
-149,847	-200,000	0,033	-0,107
-148,833	141,287	-0,072	0,069
-147,818	-60,678	0,061	-0,019
-146,804	17,263	-0,104	0,059
-145,789	100,186	0,033	0,027
-144,775	-54,814	0,052	0,017
-143,760	-93,501	-0,015	0,003
-142,745	-200,000	-0,012	-0,085
-141,731	-170,901	0,066	0,002
-140,716	-103,699	0,082	0,014
-139,702	-102,105	0,071	-0,012
-138,687	-81,019	0,079	0,019
-137,672	175,894	-0,044	0,046
-136,658	138,622	0,054	-0,051
-135,643	-200,000	0,011	-0,067
-134,629	274,627	0,039	-0,050
-133,614	264,274	-0,034	0,043
-132,599	-105,845	0,118	0,019
-131,585	74,704	0,086	0,065
-130,570	-134,940	0,118	0,010
-129,556	-200,000	-0,068	-0,223
-128,541	-55,454	-0,062	0,020
-127,526	-153,123	0,134	0,007
-126,512	-55,884	0,137	-0,044
-125,497	-71,665	0,157	0,042
-124,483	800,000	0,013	-0,030
-123,468	-117,289	-0,031	0,004
-122,453	-4,590	-0,171	-0,085
-121,439	139,974	0,013	0,012
-120,424	-200,000	-0,043	0,144
-119,410	-54,365	0,020	-0,006
-118,395	-104,566	0,145	0,024
-117,380	-200,000	0,004	0,051
-116,366	800,000	-0,025	-0,071
-115,351	218,019	-0,049	-0,056
-114,337	-200,000	-0,003	-0,080
-113,322	136,415	0,119	-0,112
-112,307	-81,927	-0,131	0,031
-111,293	218,772	0,052	-0,060
-110,278	71,599	0,076	0,056
-109,264	-6,172	0,119	-0,058
-108,249	404,506	-0,108	0,164
-107,234	20,372	0,049	-0,028
-106,220	-200,000	-0,010	-0,055
-105,205	800,000	-0,015	-0,037
-104,191	199,275	0,035	-0,039
-103,176	690,863	-0,054	0,103
-102,162	77,328	0,129	0,098
-101,147	446,996	0,050	0,080
-100,132	-70,587	-0,099	-0,027
-99,118	-65,200	-0,088	-0,025
-98,103	512,203	0,025	-0,043
-97,089	167,993	0,036	0,037
-96,074	-200,000	0,006	-0,127
-95,059	9,442	-0,218	-0,118
-94,045	800,000	-0,007	0,021
-93,030	800,000	-0,037	0,096
-92,016	-200,000	0,002	0,084
-91,001	-43,560	0,100	0,036
-89,986	800,000	-0,032	0,081
-88,972	6,012	-0,022	0,011
-87,957	-200,000	-0,022	0,084
-86,943	800,000	-0,017	-0,036
-85,928	800,000	-0,025	0,058
-84,913	140,448	-0,094	0,089
-83,899	-200,000	-0,006	0,107
-82,884	-200,000	0,007	0,126
-81,870	211,454	-0,062	0,070
-80,855	-200,000	-0,005	0,203
-79,840	247,324	0,077	-0,093
-78,826	-200,000	0,007	-0,113
-77,811	191,525	-0,114	0,124
-76,797	-200,000	-0,001	-0,065
-75,782	800,000	-0,009	0,025
-74,767	-200,000	-0,042	0,198
-73,753	-83,748	0,238	-0,054
-72,738	-21,831	-0,025	0,011
-71,724	216,219	-0,057	0,065
-70,709	-200,000	0,010	-0,111
-69,694	303,381	-0,122	-0,163
-68,680	56,477	0,062	0,043
-67,665	64,639	0,202	-0,146
-66,651	-200,000	-0,003	-0,130
-65,636	31,703	0,103	-0,064
-64,622	146,250	0,057	0,055
-63,607	51,288	0,077	0,053
-62,592	800,000	-0,061	-0,126
-61,578	25,081	-0,192	0,114
-60,563	129,442	0,121	-0,111
-59,549	-58,308	-0,010	0,003
-58,534	15,667	-1,962	-1,104
-57,519	800,000	-0,289	-0,829
-56,505	-200,000	-1,401	-5,059
-55,490	12,974	0,811	0,449
-54,476	800,000	5,310	12,184
-53,461	-200,000	17,785	286,374
-52,446	800,000	728,448	2224,034
-51,432	536,763	1644,398	2812,665
-50,417	109,802	1634,985	1406,591
-49,403	75,812	1286,846	975,036
-48,388	31,965	1027,011	633,538
-47,373	20,165	988,992	571,201
-46,359	18,336	976,801	558,145
-45,344	15,440	972,911	546,428
-44,330	15,670	971,401	546,311
-43,315	15,189	969,613	543,714
-42,300	15,139	968,265	542,774
-41,286	15,117	967,387	542,188
-40,271	15,074	966,510	541,534
-39,257	15,136	965,538	541,172
-38,242	15,161	964,447	540,620
-37,227	15,169	963,682	540,196
-36,213	15,147	962,949	539,693
-35,198	15,074	962,111	538,962
-34,184	15,149	961,350	538,760
-33,169	15,108	960,284	538,009
-32,154	15,151	959,312	537,579
-31,140	15,140	958,561	537,104
-30,125	15,156	957,840	536,728
-29,111	15,152	956,964	536,205
-28,096	15,116	956,451	535,780
-27,082	15,166	955,581	535,432
-26,067	15,164	954,703	534,913
-25,052	15,155	954,118	534,534
-24,038	15,141	953,414	534,074
-23,023	15,128	952,900	533,724
-22,009	15,130	952,234	533,335
-20,994	15,141	951,502	532,938
-19,979	15,095	950,964	532,469
-18,965	15,097	950,160	532,005
-17,950	15,135	949,621	531,802
-16,936	15,048	949,085	531,205
-15,921	15,105	948,288	530,919
-14,906	15,030	947,788	530,377
-13,892	15,007	947,077	529,885
-12,877	15,052	946,314	529,581
-11,863	14,964	945,885	529,040
-10,848	15,016	945,174	528,787
-9,833	15,106	944,705	528,789
-8,819	15,102	943,786	528,242
-7,804	15,005	943,482	527,742
-6,790	15,038	942,938	527,521
-5,775	15,064	942,433	527,300
-4,760	15,067	941,682	526,870
-3,746	15,051	941,013	526,424
-2,731	14,849	940,303	525,365
-1,717	14,842	939,599	524,931
-0,702	14,893	939,114	524,800
0,313	14,692	938,347	524,528
1,327	18,025	936,090	533,709
2,342	27,171	793,436	476,580
3,356	24,070	458,581	270,689
4,371	-3,179	314,761	156,811
5,386	-7,268	296,620	143,617
6,400	-9,209	290,665	138,791
7,415	-9,653	287,947	137,044
8,429	-9,805	286,388	136,141
9,444	-10,068	285,533	135,465
10,459	-9,811	284,908	135,407
11,473	-9,983	284,375	134,975
12,488	-9,892	283,768	134,763
13,502	-9,906	283,257	134,494
14,517	-9,927	282,851	134,270
15,531	-9,914	282,383	134,048
16,546	-10,102	281,953	133,651
17,561	-9,996	281,509	133,530
18,575	-10,067	281,271	133,337
19,590	-10,136	280,832	133,051
20,604	-9,846	280,508	133,164
21,619	-10,062	280,169	132,784
22,634	-9,991	279,856	132,692
23,648	-10,056	279,497	132,448
24,663	-10,142	279,310	132,265
25,677	-10,031	279,091	132,256
26,692	-10,121	278,803	132,021
27,707	-10,218	278,665	131,852
28,721	-10,107	278,173	131,712
29,736	-10,116	277,852	131,541
30,750	-10,193	277,667	131,368
31,765	-10,010	277,353	131,381
32,780	-10,084	277,231	131,241
33,794	-9,942	276,936	131,225
34,809	-10,148	276,733	130,922
35,823	-10,145	276,437	130,773
36,838	-10,153	276,084	130,587
37,853	-10,244	275,996	130,448
38,867	-10,109	275,637	130,394
39,882	-10,189	275,485	130,235
40,896	-10,205	275,128	130,039
41,911	-10,072	274,907	130,048
42,926	-10,209	274,588	129,757
43,940	-10,029	274,339	129,796
44,955	-10,119	274,207	129,638
45,969	-10,212	273,908	129,398
46,984	-10,522	273,876	129,082
47,999	-10,605	273,459	128,797
49,013	-10,639	273,138	128,602
50,028	-10,681	272,942	128,459
51,042	-10,722	272,643	128,270
52,057	-10,796	272,337	128,045
53,071	-10,913	272,244	127,881
54,086	-10,740	272,052	127,940
55,101	-10,500	271,708	127,989
56,115	-10,345	271,802	128,166
57,130	-10,014	271,539	128,337
58,144	-9,966	271,485	128,344
59,159	-9,899	271,176	128,249
60,174	-9,874	270,904	128,131
61,188	-10,081	270,807	127,884
62,203	-10,129	270,527	127,696
63,217	-9,875	270,320	127,820
64,232	-9,896	269,894	127,588
65,247	-9,884	269,796	127,541
66,261	-9,977	269,553	127,330
67,276	-10,193	269,407	127,052
68,290	-10,443	269,188	126,708
69,305	-10,389	268,836	126,581
70,320	-10,265	268,772	126,653
71,334	-10,032	268,621	126,782
72,349	-9,921	268,237	126,692
73,363	-9,887	268,015	126,607
74,378	-9,948	267,844	126,459
75,393	-9,965	267,627	126,329
76,407	-9,773	267,462	126,415
77,422	-9,940	267,252	126,152
78,436	-10,028	267,078	125,979
79,451	-9,978	266,771	125,868
80,466	-10,129	266,511	125,598
81,480	-10,134	266,357	125,510
82,495	-10,180	266,046	125,310
83,509	-10,173	265,962	125,266
84,524	-10,083	265,613	125,172
85,539	-10,300	265,355	124,843
86,553	-10,391	265,002	124,584
87,568	-10,106	264,858	124,762
88,582	-10,233	264,797	124,607
89,597	-10,248	264,563	124,473
90,611	-9,974	264,399	124,631
91,626	-10,017	264,364	124,564
92,641	-9,843	264,057	124,565
93,655	-10,054	263,860	124,272
94,670	-10,073	263,612	124,127
95,684	-10,232	263,470	123,906
96,699	-10,033	263,213	123,952
97,714	-10,088	263,134	123,855
98,728	-10,270	262,908	123,575
99,743	-10,286	262,681	123,443
100,757	-10,322	262,460	123,296
101,772	-10,290	262,193	123,188
102,787	-9,907	261,883	123,372
103,801	-10,259	261,940	123,076
104,816	-9,880	261,615	123,248
105,830	-9,801	261,448	123,228
106,845	-9,935	261,381	123,067
107,860	-9,885	261,240	123,033
108,874	-10,050	260,828	122,683
109,889	-10,063	260,768	122,633
110,903	-10,140	260,564	122,457
111,918	-9,766	260,114	122,565
112,933	-10,050	260,134	122,313
113,947	-10,021	259,960	122,245
114,962	-9,983	259,810	122,198
115,976	-9,909	259,584	122,146
116,991	-9,840	259,167	121,999
118,006	-9,996	259,167	121,851
119,020	-9,874	259,130	121,930
120,035	-9,946	258,943	121,768
121,049	-9,864	258,707	121,718
122,064	-9,766	258,538	121,714
123,079	-9,970	258,365	121,443
124,093	-9,958	257,955	121,250
125,108	-10,132	257,774	121,002
126,122	-10,369	257,506	120,659
127,137	-10,491	257,392	120,488
128,151	-10,393	257,237	120,490
129,166	-10,208	256,988	120,523
130,181	-10,273	256,894	120,412
131,195	-10,389	256,678	120,200
132,210	-10,024	256,429	120,389
133,224	-10,138	256,328	120,231
134,239	-9,904	256,188	120,359
135,254	-9,980	255,934	120,163
136,268	-10,121	255,762	119,949
137,283	-10,250	255,513	119,710
138,297	-10,244	255,066	119,495
139,312	-10,254	254,994	119,442
140,327	-10,149	254,917	119,486
141,341	-10,070	254,951	119,559
142,356	-9,747	254,633	119,677
143,370	-9,855	254,567	119,543
144,385	-9,851	254,360	119,438
145,400	-9,736	254,078	119,394
146,414	-9,694	253,944	119,357
147,429	-9,731	253,855	119,273
148,443	-9,704	253,684	119,205
149,458	-9,639	253,430	119,131
150,473	-9,785	253,216	118,895
151,487	-9,872	252,946	118,682
152,502	-9,807	252,861	118,687
153,516	-9,952	252,817	118,533
154,531	-9,897	252,542	118,440
155,546	-9,762	252,229	118,397
156,560	-9,794	252,025	118,264
157,575	-9,887	251,852	118,093
158,589	-9,713	251,774	118,194
159,604	-9,664	251,457	118,076
160,619	-9,714	251,358	117,977
161,633	-9,701	251,309	117,954
162,648	-9,747	250,975	117,748
163,662	-9,798	250,884	117,652
164,677	-10,000	250,881	117,469
165,692	-9,742	250,693	117,589
166,706	-9,580	250,484	117,618
167,721	-9,833	250,288	117,301
168,735	-9,777	249,929	117,169
169,750	-9,761	250,037	117,222
170,764	-9,517	249,743	117,280
171,779	-9,500	249,588	117,211
172,794	-9,612	249,494	117,062
173,808	-9,888	249,352	116,753
174,823	-10,362	249,094	116,224
175,837	-10,203	248,754	116,189
176,852	-10,001	248,712	116,328
177,867	-9,828	248,719	116,466
178,881	-9,637	248,397	116,464
179,896	-9,812	248,266	116,246
180,910	-9,640	247,849	116,185
181,925	-9,760	247,984	116,136
182,940	-9,784	247,816	116,028
183,954	-9,703	247,488	115,931
184,969	-9,609	247,367	115,942
185,983	-9,670	247,199	115,803
186,998	-9,781	247,081	115,645
188,013	-9,765	246,955	115,588
189,027	-9,712	246,681	115,494
190,042	-9,821	246,616	115,363
191,056	-9,625	246,320	115,377
192,071	-9,606	246,078	115,269
193,086	-9,796	246,037	115,082
194,100	-9,698	245,848	115,065
195,115	-9,644	245,751	115,053
196,129	-9,626	245,413	114,900
197,144	-9,517	245,246	114,901
198,159	-9,525	244,909	114,727
199,173	-9,592	244,881	114,648
200,188	-9,986	245,010	114,374
201,202	-9,902	244,476	114,183
202,217	-10,110	244,228	113,886
203,232	-10,314	243,891	113,552
204,246	-9,789	243,984	114,016
205,261	-9,311	243,855	114,337
206,275	-9,707	243,683	113,922
207,290	-5,723	245,242	117,923
208,304	0,749	247,448	124,338
209,319	3,408	247,994	126,803
210,334	3,945	248,059	127,270
211,348	4,211	247,922	127,408
212,363	4,396	247,778	127,476
213,377	4,653	247,565	127,567
214,392	4,286	247,537	127,238
215,407	4,369	247,250	127,148
216,421	4,389	247,028	127,039
217,436	4,712	246,929	127,242
218,450	4,496	246,821	126,998
219,465	4,187	246,543	126,589
220,480	3,872	246,560	126,328
221,494	4,035	246,254	126,294
222,509	4,068	246,223	126,294
223,523	4,060	245,961	126,141
224,538	3,726	245,524	125,633
225,553	3,755	245,507	125,637
226,567	3,919	245,403	125,706
227,582	3,988	245,364	125,732
228,596	4,022	245,259	125,695
229,611	3,656	244,945	125,223
230,626	3,560	244,704	125,011
231,640	3,712	244,625	125,084
232,655	3,870	244,461	125,117
233,669	3,707	244,185	124,832
234,684	3,581	243,960	124,603
235,699	4,063	244,019	125,014
236,713	4,204	244,000	125,108
237,728	3,879	243,724	124,691
238,742	3,683	243,323	124,317
239,757	3,574	243,225	124,167
240,772	3,766	243,097	124,246
241,786	3,731	243,091	124,203
242,801	3,756	242,811	124,069
243,815	3,719	242,635	123,938
244,830	3,741	242,604	123,930
245,844	4,037	242,269	123,986
246,859	3,996	242,019	123,813
247,874	3,669	242,041	123,551
248,888	3,946	241,889	123,685
249,903	4,099	241,612	123,655
250,917	3,955	241,590	123,517
251,932	4,128	241,447	123,572
252,947	3,854	241,357	123,295
253,961	3,966	241,003	123,193
254,976	3,822	241,099	123,116
255,990	4,259	240,711	123,256
257,005	3,992	240,566	122,957
258,020	3,411	240,418	122,407
259,034	3,826	240,261	122,647
260,049	3,847	240,202	122,623
261,063	3,710	239,860	122,328
262,078	3,478	239,811	122,108
263,093	4,051	239,714	122,503
264,107	4,002	239,531	122,361
265,122	3,690	239,411	122,040
266,136	3,913	239,245	122,121
267,151	4,190	239,148	122,281
268,166	3,782	238,818	121,778
269,180	3,721	238,707	121,662
270,195	4,337	238,754	122,163
271,209	4,479	238,654	122,213
272,224	3,858	238,351	121,557
273,239	3,428	238,059	121,057
274,253	3,661	237,946	121,173
275,268	3,794	237,942	121,265
276,282	4,036	237,671	121,307
277,297	3,702	237,442	120,916
278,312	3,859	237,332	120,973
279,326	3,868	237,277	120,941
280,341	3,906	237,024	120,831
281,355	3,997	236,919	120,838
282,370	3,880	236,826	120,688
283,384	3,644	236,621	120,388
284,399	3,822	236,497	120,453
285,414	3,534	236,213	120,073
286,428	3,728	236,182	120,198
287,443	3,654	235,995	120,035
288,457	3,829	235,967	120,146
289,472	4,000	235,891	120,230
290,487	3,784	235,593	119,899
291,501	3,560	235,434	119,633
292,516	3,344	235,171	119,320
293,530	3,687	234,947	119,463
294,545	3,857	234,877	119,549
295,560	3,718	234,860	119,422
296,574	3,638	234,529	119,180
297,589	3,848	234,434	119,285
298,603	3,892	234,427	119,304
299,618	3,941	234,362	119,299
300,633	3,929	234,151	119,172
301,647	3,991	234,024	119,144
302,662	4,245	234,033	119,335
303,676	4,280	233,653	119,157
304,691	4,292	233,540	119,098
305,706	4,176	233,576	119,016
306,720	4,181	233,350	118,894
307,735	4,181	233,081	118,747
308,749	3,876	233,013	118,467
309,764	3,825	232,691	118,253
310,779	3,637	232,590	118,047
311,793	3,521	232,408	117,855
312,808	3,612	232,076	117,746
313,822	3,611	232,069	117,731
314,837	3,470	231,954	117,554
315,852	3,478	231,753	117,448
316,866	4,041	231,775	117,880
317,881	3,905	231,592	117,673
318,895	4,048	231,442	117,695
319,910	4,056	231,264	117,600
320,925	3,816	231,078	117,312
321,939	3,881	230,945	117,284
322,954	4,115	231,096	117,527
323,968	4,107	230,744	117,333
324,983	3,743	230,535	116,938
325,997	3,731	230,360	116,830
327,012	3,794	230,197	116,785
328,027	4,066	230,163	116,964
329,041	4,210	230,263	117,114
330,056	4,599	230,135	117,333
331,070	4,722	229,887	117,290
332,085	4,354	229,555	116,832
333,100	4,099	229,333	116,515
334,114	4,070	229,228	116,430
335,129	4,166	229,174	116,465
336,143	4,359	228,989	116,506
337,158	4,268	228,897	116,380
338,173	4,194	228,718	116,222
339,187	3,958	228,510	115,928
340,202	4,083	228,468	115,991
341,216	4,283	228,083	115,936
342,231	3,946	228,064	115,663
343,246	3,917	227,929	115,562
344,260	4,170	227,890	115,722
345,275	4,249	227,734	115,692
346,289	4,346	227,572	115,671
347,304	4,192	227,505	115,512
348,319	4,230	227,420	115,487
349,333	4,352	227,103	115,407
350,348	4,012	226,847	115,012
351,362	3,944	227,003	115,031
352,377	3,920	226,717	114,857
353,392	3,743	226,409	114,559
354,406	3,796	226,241	114,503
355,421	194,815	1323,183	1397,538
356,435	156,130	1456,819	1397,532
