DTS Sentinel unit serial number:	SN410029Multiplexer serial number:	ORYXHardware model number:	OX2-SRSoftware version number:	ORYX F/W v4,00 Oryx Data Collector v3.7.2.0data status	okinstallation	B5 Nyhavnadifferential loss correction	single-endedforward channel	channel 2reverse channel	N/Adate	2023/12/13time	22:12:13forward acquisition time	300,00reverse acquisition time	0,00gamma	499,1914k internal	0,3154k external	0,3154temperature offset calibration	1,0000default loss term (dB/km)	0,3820temperature slope calibration	1,0000multiplexer offset coefficient	1,0000multiplexer slope coefficient	1,0000fibre end	0,00T internal ref (°C)	9,52T ext. ref 1 (°C)	-7,14T ext. ref 2 (°C)	-7,19length (m)	temperature (°C)	Stokes	anti-Stokes-744,400	800,000	0,091	0,189
-743,385	-75,363	-0,273	0,071
-742,371	39,697	0,147	0,097
-741,356	-91,653	-0,338	-0,070
-740,342	168,384	0,072	0,076
-739,327	-14,932	-0,331	-0,156
-738,312	800,000	0,010	0,033
-737,298	-58,843	-0,476	-0,151
-736,283	169,166	0,069	-0,073
-735,269	-24,793	-0,221	-0,097
-734,254	-200,000	0,019	0,195
-733,239	27,708	-0,467	-0,290
-732,225	130,609	0,250	0,237
-731,210	-200,000	0,024	0,125
-730,196	-4,283	0,068	0,035
-729,181	-25,496	-0,164	0,071
-728,167	-94,408	-0,016	-0,003
-727,152	800,000	0,030	-0,085
-726,137	-43,953	-0,097	-0,036
-725,123	800,000	-0,056	-0,141
-724,108	-0,801	-0,127	-0,066
-723,094	-31,976	-0,140	-0,058
-722,079	378,448	0,022	0,033
-721,064	259,408	0,031	-0,040
-720,050	800,000	-0,056	0,116
-719,035	-200,000	-0,011	-0,040
-718,021	-159,189	-0,074	-0,003
-717,006	770,308	-0,071	-0,143
-715,991	363,069	-0,090	-0,134
-714,977	203,248	-0,082	-0,094
-713,962	72,193	-0,075	0,058
-712,948	117,519	0,122	-0,110
-711,933	167,521	0,049	0,051
-710,918	70,444	-0,108	-0,082
-709,904	725,860	-0,018	0,036
-708,889	-35,288	-0,112	-0,045
-707,875	354,448	-0,067	-0,098
-706,860	-2,311	-0,145	-0,075
-705,845	147,654	-0,061	0,060
-704,831	-20,057	0,133	0,060
-703,816	-200,000	-0,019	0,098
-702,802	650,559	0,042	0,079
-701,787	-122,551	-0,093	0,011
-700,772	-168,732	-0,096	0,003
-699,758	2,929	-0,039	-0,021
-698,743	221,647	-0,020	0,023
-697,729	602,908	0,018	0,034
-696,714	-200,000	0,012	0,070
-695,699	-2,821	-0,074	-0,038
-694,685	89,739	0,091	0,075
-693,670	-25,125	-0,066	-0,029
-692,656	-200,000	0,002	-0,100
-691,641	170,401	-0,059	-0,062
-690,627	115,608	-0,054	0,049
-689,612	-200,000	0,003	-0,073
-688,597	16,158	-0,025	0,014
-687,583	266,127	-0,031	-0,040
-686,568	-200,000	-0,014	-0,075
-685,554	800,000	-0,030	0,083
-684,539	-53,017	-0,090	-0,030
-683,524	129,041	-0,083	0,078
-682,510	-163,184	-0,142	-0,005
-681,495	-200,000	-0,004	-0,091
-680,481	43,671	0,051	0,034
-679,466	103,353	-0,117	0,101
-678,451	562,006	-0,027	0,049
-677,437	324,031	0,042	-0,059
-676,422	-157,936	-0,072	0,003
-675,408	800,000	-0,055	0,159
-674,393	-26,172	0,168	-0,072
-673,378	-32,794	-0,098	-0,040
-672,364	-132,792	-0,078	-0,007
-671,349	-129,605	-0,245	-0,025
-670,335	-59,877	0,187	0,058
-669,320	107,953	-0,058	0,051
-668,305	800,000	-0,009	-0,021
-667,291	413,332	-0,062	0,097
-666,276	9,094	-0,064	0,035
-665,262	-200,000	-0,007	0,061
-664,247	-87,766	-0,207	0,046
-663,232	-117,655	0,100	0,013
-662,218	-178,534	0,145	0,002
-661,203	-91,398	0,096	0,020
-660,189	-200,000	-0,006	0,038
-659,174	800,000	-0,023	0,060
-658,159	-200,000	0,014	-0,119
-657,145	112,613	-0,095	-0,085
-656,130	-61,028	0,017	0,005
-655,116	325,060	0,074	-0,105
-654,101	-200,000	0,010	-0,039
-653,086	-200,000	0,015	-0,194
-652,072	440,805	-0,100	-0,161
-651,057	-65,445	0,087	-0,026
-650,043	1,137	0,061	0,032
-649,028	800,000	0,040	-0,103
-648,014	-185,602	0,043	0,000
-646,999	313,372	0,049	-0,068
-645,984	442,009	0,058	-0,093
-644,970	7,958	-0,113	-0,062
-643,955	-16,917	0,049	-0,023
-642,941	452,538	0,086	-0,140
-641,926	352,300	0,042	-0,061
-640,911	91,414	-0,055	-0,045
-639,897	19,774	-0,056	0,033
-638,882	384,430	0,038	0,058
-637,868	14,259	0,097	0,055
-636,853	58,562	-0,119	0,086
-635,838	-8,972	-0,086	-0,042
-634,824	-200,000	0,027	-0,174
-633,809	-200,000	-0,006	0,061
-632,795	154,205	-0,101	0,102
-631,780	196,486	0,137	-0,154
-630,765	360,947	-0,020	0,030
-629,751	-92,862	-0,065	-0,013
-628,736	-200,000	0,016	0,084
-627,722	800,000	-0,038	0,116
-626,707	-200,000	0,011	0,060
-625,692	-200,000	0,013	0,138
-624,678	-119,260	-0,098	-0,012
-623,663	-200,000	-0,023	-0,120
-622,649	-170,414	-0,034	-0,001
-621,634	-138,310	0,016	-0,001
-620,619	-200,000	0,029	-0,115
-619,605	-200,000	-0,008	0,053
-618,590	415,656	-0,040	0,063
-617,576	-200,000	0,031	-0,134
-616,561	-200,000	-0,021	0,138
-615,546	-200,000	0,021	0,126
-614,532	-200,000	0,005	-0,138
-613,517	-200,000	0,010	-0,151
-612,503	399,039	0,066	0,102
-611,488	29,400	-0,044	-0,028
-610,474	800,000	0,030	-0,086
-609,459	12,432	-0,152	-0,086
-608,444	-200,000	0,001	0,097
-607,430	-200,000	-0,015	-0,051
-606,415	275,303	-0,053	0,069
-605,401	204,901	-0,044	0,051
-604,386	-144,099	0,073	-0,005
-603,371	121,580	-0,043	0,040
-602,357	292,924	0,105	-0,141
-601,342	800,000	-0,062	-0,131
-600,328	97,716	0,026	-0,022
-599,313	522,803	0,057	-0,098
-598,298	31,990	-0,145	0,091
-597,284	96,978	0,130	-0,109
-596,269	-53,224	0,052	0,018
-595,255	-47,187	-0,258	-0,092
-594,240	19,769	-0,138	-0,081
-593,225	485,006	-0,029	0,048
-592,211	111,616	-0,073	0,065
-591,196	-62,381	0,021	0,006
-590,182	-141,107	0,108	0,008
-589,167	69,506	-0,074	0,056
-588,152	800,000	0,062	-0,141
-587,138	101,613	-0,026	0,022
-586,123	295,404	0,075	-0,101
-585,109	346,465	-0,030	-0,043
-584,094	800,000	0,017	-0,052
-583,079	57,138	0,057	0,041
-582,065	4,116	-0,055	-0,030
-581,050	189,391	-0,032	0,035
-580,036	490,409	-0,019	-0,031
-579,021	-151,128	0,119	-0,006
-578,006	85,902	0,011	-0,009
-576,992	357,019	-0,058	-0,085
-575,977	-179,669	0,050	0,001
-574,963	413,505	-0,076	0,119
-573,948	140,397	-0,057	-0,055
-572,934	-39,478	-0,075	0,029
-571,919	-127,636	-0,128	0,013
-570,904	90,524	0,101	-0,083
-569,890	15,074	0,159	-0,091
-568,875	800,000	-0,064	0,190
-567,861	800,000	-0,059	0,124
-566,846	32,606	0,055	-0,035
-565,831	-145,247	0,028	0,002
-564,817	-132,170	-0,056	0,005
-563,802	15,392	0,049	-0,028
-562,788	-200,000	-0,030	-0,149
-561,773	320,822	-0,014	0,020
-560,758	246,559	0,118	0,146
-559,744	-114,276	-0,133	0,019
-558,729	83,818	-0,048	-0,038
-557,715	-86,482	-0,129	-0,029
-556,700	-200,000	0,002	-0,107
-555,685	25,240	0,003	0,002
-554,671	116,852	0,023	0,020
-553,656	242,287	0,112	0,137
-552,642	-200,000	-0,005	0,091
-551,627	800,000	0,032	0,067
-550,612	31,106	-0,035	0,022
-549,598	-200,000	0,007	-0,114
-548,583	-200,000	-0,004	-0,090
-547,569	-5,343	0,115	0,057
-546,554	341,511	-0,060	0,086
-545,539	22,478	-0,076	-0,046
-544,525	619,594	0,082	0,152
-543,510	800,000	-0,047	0,099
-542,496	-22,534	-0,098	0,043
-541,481	114,385	-0,044	-0,039
-540,466	-200,000	-0,006	0,024
-539,452	-200,000	-0,014	0,047
-538,437	106,319	0,100	-0,087
-537,423	-14,679	0,076	0,035
-536,408	-30,522	-0,061	0,025
-535,393	-74,092	-0,095	0,025
-534,379	-131,072	-0,090	0,009
-533,364	-92,297	0,115	-0,024
-532,350	387,398	0,101	0,153
-531,335	-200,000	0,004	-0,090
-530,321	147,252	0,061	0,060
-529,306	-67,621	-0,132	0,037
-528,291	800,000	-0,058	-0,129
-527,277	-200,000	-0,001	0,041
-526,262	-44,773	-0,044	0,016
-525,248	16,859	0,053	0,030
-524,233	-26,783	0,069	-0,030
-523,218	-126,347	0,131	-0,014
-522,204	-17,236	0,047	-0,021
-521,189	800,000	-0,042	0,105
-520,175	-200,000	-0,018	-0,083
-519,160	192,515	-0,068	0,075
-518,145	77,646	0,120	0,093
-517,131	30,149	-0,093	0,058
-516,116	-91,769	0,095	0,019
-515,102	62,938	0,100	0,073
-514,087	-22,697	-0,037	-0,016
-513,072	13,891	-0,120	-0,068
-512,058	80,429	0,118	0,093
-511,043	52,063	0,064	-0,045
-510,029	-200,000	-0,006	0,060
-509,014	-200,000	0,018	0,087
-507,999	-13,435	-0,096	-0,046
-506,985	-200,000	0,025	-0,094
-505,970	27,925	-0,050	0,031
-504,956	-200,000	0,003	-0,099
-503,941	49,951	0,113	0,078
-502,926	8,758	-0,140	0,077
-501,912	-200,000	0,064	0,000
-500,897	441,237	0,046	0,074
-499,883	49,985	-0,021	0,015
-498,868	392,800	-0,057	-0,087
-497,853	-200,000	-0,005	0,039
-496,839	800,000	0,032	0,096
-495,824	45,182	0,060	-0,041
-494,810	597,972	-0,015	-0,028
-493,795	-200,000	-0,002	-0,062
-492,781	15,386	-0,154	0,088
-491,766	-143,389	0,210	-0,014
-490,751	-200,000	0,022	-0,122
-489,737	19,602	0,022	-0,013
-488,722	24,223	0,046	-0,028
-487,708	-200,000	-0,000	0,217
-486,693	540,076	0,039	-0,067
-485,678	800,000	0,053	0,128
-484,664	235,537	0,126	0,152
-483,649	-43,950	0,075	-0,027
-482,635	-87,205	-0,101	-0,022
-481,620	6,837	0,037	-0,020
-480,605	17,443	0,060	0,035
-479,591	-16,379	0,028	0,013
-478,576	-200,000	0,006	0,042
-477,562	464,242	-0,040	0,065
-476,547	-200,000	-0,051	-0,182
-475,532	115,659	-0,110	0,099
-474,518	800,000	-0,017	0,048
-473,503	-200,000	-0,015	0,087
-472,489	215,879	0,089	0,103
-471,474	-200,000	0,022	0,075
-470,459	79,712	-0,072	0,056
-469,445	-50,838	0,114	-0,039
-468,430	800,000	-0,003	0,007
-467,416	-200,000	0,005	0,065
-466,401	-200,000	-0,007	-0,040
-465,386	-27,983	0,106	-0,045
-464,372	800,000	0,022	-0,065
-463,357	24,188	0,045	-0,027
-462,343	289,319	-0,085	-0,113
-461,328	57,142	0,027	-0,019
-460,313	-200,000	-0,002	0,137
-459,299	-103,162	-0,062	0,011
-458,284	-200,000	-0,005	-0,073
-457,270	-3,317	0,031	-0,016
-456,255	525,201	0,029	0,050
-455,241	-70,358	0,040	-0,011
-454,226	800,000	-0,019	0,053
-453,211	361,058	-0,072	-0,105
-452,197	-200,000	0,001	0,036
-451,182	48,064	0,033	0,023
-450,168	-107,562	0,132	-0,021
-449,153	-200,000	0,017	0,124
-448,138	800,000	-0,050	-0,123
-447,124	344,294	-0,068	-0,097
-446,109	-200,000	0,007	0,088
-445,095	-72,644	-0,066	-0,018
-444,080	800,000	0,040	0,115
-443,065	800,000	-0,081	0,181
-442,051	213,298	-0,055	0,063
-441,036	182,949	-0,062	-0,067
-440,022	-200,000	0,011	-0,077
-439,007	15,236	-0,080	-0,046
-437,992	-8,667	0,158	0,077
-436,978	-161,340	0,153	-0,006
-435,963	-61,518	-0,127	-0,039
-434,949	282,972	-0,085	0,112
-433,934	747,676	0,045	-0,089
-432,919	-117,527	-0,073	0,010
-431,905	135,150	0,056	0,053
-430,890	-130,071	-0,064	-0,006
-429,876	-149,879	-0,050	0,003
-428,861	-66,634	0,090	0,026
-427,846	-200,000	0,004	0,114
-426,832	-166,742	-0,083	-0,002
-425,817	-200,000	0,008	0,078
-424,803	-121,127	0,117	0,014
-423,788	-19,046	0,059	-0,027
-422,773	-14,347	0,033	0,015
-421,759	-55,831	-0,153	0,049
-420,744	-200,000	0,000	0,084
-419,730	-200,000	0,006	0,143
-418,715	-145,042	0,044	0,003
-417,701	347,744	0,091	0,131
-416,686	-200,000	0,009	0,096
-415,671	-1,203	-0,088	0,045
-414,657	-50,446	0,110	-0,038
-413,642	-200,000	-0,017	0,127
-412,628	557,995	0,031	0,055
-411,613	-97,950	-0,094	0,018
-410,598	-30,620	-0,059	-0,024
-409,584	-200,000	-0,009	-0,043
-408,569	689,448	0,082	0,157
-407,555	-7,358	0,084	0,041
-406,540	-73,642	0,083	-0,022
-405,525	56,646	0,044	-0,031
-404,511	290,094	-0,112	-0,148
-403,496	456,359	-0,030	0,049
-402,482	195,771	0,054	-0,060
-401,467	31,870	0,074	0,046
-400,452	-118,419	-0,094	-0,012
-399,438	69,282	0,134	-0,101
-398,423	127,184	-0,072	-0,067
-397,409	800,000	0,008	-0,016
-396,394	-47,094	-0,123	-0,044
-395,379	236,629	-0,035	-0,042
-394,365	288,900	0,066	-0,087
-393,350	800,000	0,083	-0,176
-392,336	-54,002	0,115	0,038
-391,321	800,000	0,021	0,044
-390,306	183,479	0,130	-0,141
-389,292	-200,000	0,016	-0,082
-388,277	800,000	0,012	-0,034
-387,263	67,879	0,055	0,041
-386,248	-47,397	0,122	0,043
-385,233	42,792	-0,053	0,035
-384,219	-42,428	-0,049	0,018
-383,204	-68,063	-0,094	-0,027
-382,190	9,630	0,090	0,050
-381,175	-200,000	0,024	-0,131
-380,160	800,000	0,042	0,094
-379,146	148,466	-0,057	-0,056
-378,131	-102,550	-0,112	0,019
-377,117	425,771	0,011	0,018
-376,102	69,601	-0,126	0,094
-375,088	800,000	-0,030	-0,069
-374,073	-74,250	0,022	-0,006
-373,058	-200,000	-0,011	0,053
-372,044	-200,000	-0,008	0,098
-371,029	331,377	0,030	0,042
-370,015	-178,483	0,042	0,001
-369,000	-200,000	0,020	-0,101
-367,985	109,998	-0,114	-0,099
-366,971	800,000	0,049	0,101
-365,956	800,000	-0,050	0,125
-364,942	301,239	0,031	0,042
-363,927	-61,342	0,173	-0,053
-362,912	800,000	-0,040	-0,094
-361,898	-54,611	-0,071	0,023
-360,883	-200,000	-0,014	-0,164
-359,869	129,200	-0,108	-0,101
-358,854	-117,649	0,086	0,011
-357,839	13,246	-0,147	0,083
-356,825	-200,000	0,013	0,057
-355,810	-30,744	-0,072	-0,029
-354,796	434,046	0,082	-0,130
-353,781	691,095	0,064	-0,123
-352,766	-55,738	0,073	0,024
-351,752	-109,550	0,119	-0,018
-350,737	-200,000	0,019	0,088
-349,723	-99,668	-0,025	-0,004
-348,708	-23,196	-0,024	-0,011
-347,693	1,767	-0,008	0,004
-346,679	152,274	-0,069	-0,069
-345,664	-113,427	0,127	-0,018
-344,650	-200,000	0,000	-0,123
-343,635	254,320	0,065	-0,081
-342,620	-142,739	-0,107	-0,007
-341,606	44,397	-0,115	0,077
-340,591	66,700	-0,090	-0,066
-339,577	2,240	0,082	-0,043
-338,562	-96,100	-0,041	-0,008
-337,548	527,452	0,053	0,092
-336,533	175,635	0,051	0,054
-335,518	800,000	-0,015	-0,039
-334,504	-91,272	-0,060	0,012
-333,489	800,000	0,032	-0,085
-332,475	-200,000	0,009	-0,130
-331,460	510,552	-0,025	-0,042
-330,445	800,000	0,072	0,211
-329,431	249,338	-0,035	0,043
-328,416	-200,000	0,015	-0,071
-327,402	117,844	-0,036	-0,032
-326,387	-200,000	-0,043	-0,190
-325,372	-145,168	0,059	-0,004
-324,358	263,059	-0,039	0,050
-323,343	84,328	-0,063	0,050
-322,329	-117,333	0,125	0,016
-321,314	252,356	0,023	-0,028
-320,299	-94,105	0,036	0,007
-319,285	-200,000	-0,013	-0,142
-318,270	75,196	0,034	0,026
-317,256	-31,615	-0,019	-0,008
-316,241	-200,000	-0,008	0,066
-315,226	422,650	0,082	0,128
-314,212	-70,271	0,084	0,023
-313,197	64,833	0,094	-0,069
-312,183	-200,000	0,034	0,121
-311,168	-102,274	-0,111	-0,019
-310,153	121,256	-0,086	-0,078
-309,139	-121,666	-0,040	-0,005
-308,124	-141,149	-0,066	-0,005
-307,110	174,249	0,057	-0,060
-306,095	88,989	-0,014	0,012
-305,080	-88,986	0,166	-0,035
-304,066	-52,966	-0,082	0,027
-303,051	-62,237	0,067	0,020
-302,037	146,640	0,076	-0,074
-301,022	124,441	-0,058	-0,053
-300,008	-107,131	0,033	-0,005
-298,993	-29,805	0,132	-0,054
-297,978	800,000	0,044	0,101
-296,964	177,347	-0,056	0,059
-295,949	-16,047	0,037	-0,017
-294,935	-59,072	-0,144	-0,045
-293,920	53,087	-0,080	-0,056
-292,905	234,462	0,078	0,093
-291,891	-62,135	-0,058	0,017
-290,876	-96,266	-0,153	0,029
-289,862	-200,000	0,009	-0,035
-288,847	-132,065	-0,140	-0,013
-287,832	-200,000	0,003	-0,140
-286,818	800,000	0,028	0,083
-285,803	-200,000	0,003	0,075
-284,789	-98,039	0,077	0,014
-283,774	94,354	-0,105	-0,087
-282,759	-93,198	0,105	-0,021
-281,745	30,966	-0,113	-0,070
-280,730	457,698	-0,011	-0,018
-279,716	-200,000	-0,017	0,088
-278,701	-88,944	-0,033	-0,007
-277,686	-25,541	0,127	0,054
-276,672	-200,000	-0,007	-0,106
-275,657	64,207	-0,158	0,115
-274,643	-38,393	0,083	0,032
-273,628	431,501	-0,020	-0,031
-272,613	-200,000	0,027	0,104
-271,599	-200,000	0,003	-0,017
-270,584	-31,768	0,082	0,033
-269,570	510,366	0,072	0,122
-268,555	275,195	-0,038	-0,048
-267,540	277,244	0,074	0,096
-266,526	84,512	-0,119	0,094
-265,511	551,041	-0,032	-0,057
-264,497	-200,000	-0,014	-0,199
-263,482	76,676	-0,005	-0,004
-262,467	-200,000	-0,001	0,016
-261,453	-200,000	0,011	0,110
-260,438	-200,000	0,032	-0,114
-259,424	-159,953	-0,050	-0,002
-258,409	800,000	0,031	0,088
-257,395	800,000	-0,010	-0,030
-256,380	800,000	-0,033	0,073
-255,365	5,723	-0,036	0,019
-254,351	130,728	-0,015	-0,014
-253,336	230,908	0,033	-0,039
-252,322	52,895	-0,083	0,057
-251,307	9,753	-0,035	-0,019
-250,292	-171,514	-0,053	-0,001
-249,278	-3,516	0,071	-0,035
-248,263	779,423	-0,027	0,055
-247,249	-200,000	-0,021	0,076
-246,234	66,597	-0,015	0,011
-245,219	-41,188	0,038	-0,014
-244,205	-32,382	-0,159	-0,064
-243,190	-143,867	0,223	-0,015
-242,176	96,556	0,077	0,064
-241,161	-200,000	0,012	0,127
-240,146	-77,037	-0,082	0,020
-239,132	-200,000	-0,012	0,068
-238,117	-29,853	-0,043	-0,018
-237,103	-200,000	-0,012	0,074
-236,088	126,630	-0,138	-0,127
-235,073	-17,093	-0,056	-0,025
-234,059	800,000	-0,028	0,078
-233,044	800,000	-0,032	-0,087
-232,030	800,000	0,057	0,146
-231,015	164,975	0,019	0,019
-230,000	800,000	-0,025	0,069
-228,986	532,311	0,051	-0,087
-227,971	-200,000	0,020	-0,122
-226,957	781,172	0,053	0,106
-225,942	-129,201	-0,031	-0,003
-224,927	800,000	-0,052	-0,138
-223,913	-200,000	-0,015	-0,062
-222,898	-93,042	0,082	-0,016
-221,884	-200,000	-0,031	-0,110
-220,869	487,717	0,046	-0,076
-219,855	-132,548	-0,031	-0,003
-218,840	-200,000	0,006	0,104
-217,825	1,095	-0,060	0,031
-216,811	-99,418	-0,165	0,030
-215,796	26,135	0,036	0,021
-214,782	92,797	-0,069	-0,056
-213,767	800,000	-0,055	-0,121
-212,752	-182,237	0,157	0,002
-211,738	800,000	-0,007	-0,023
-210,723	-200,000	-0,003	0,012
-209,709	-200,000	0,024	0,092
-208,694	-200,000	-0,003	-0,086
-207,679	-67,909	-0,125	-0,035
-206,665	483,340	0,033	0,055
-205,650	-105,848	0,063	0,010
-204,636	113,957	0,106	0,093
-203,621	-86,889	-0,124	0,027
-202,606	411,723	0,046	0,071
-201,592	166,845	0,026	-0,027
-200,577	437,421	0,060	-0,095
-199,563	-169,925	0,117	0,003
-198,548	-143,092	0,117	0,008
-197,533	800,000	0,023	0,061
-196,519	800,000	-0,053	0,109
-195,504	310,339	-0,088	-0,119
-194,490	41,885	-0,085	-0,055
-193,475	64,987	-0,031	0,022
-192,460	344,143	-0,078	-0,111
-191,446	-19,619	0,009	0,004
-190,431	800,000	-0,013	0,028
-189,417	244,248	-0,068	-0,083
-188,402	800,000	-0,063	-0,146
-187,387	-59,397	-0,085	-0,026
-186,373	34,540	-0,049	0,031
-185,358	800,000	0,033	0,102
-184,344	-200,000	-0,014	0,075
-183,329	-15,612	0,020	-0,009
-182,315	28,815	0,056	-0,034
-181,300	29,629	-0,064	-0,039
-180,285	-5,406	-0,118	-0,058
-179,271	-22,885	-0,056	-0,024
-178,256	-20,045	-0,153	-0,068
-177,242	262,928	0,073	-0,092
-176,227	151,438	0,086	0,085
-175,212	364,352	0,065	0,095
-174,198	42,975	-0,104	-0,068
-173,183	-38,879	0,095	-0,036
-172,169	800,000	-0,031	0,093
-171,154	-200,000	0,038	-0,153
-170,139	800,000	0,029	-0,087
-169,125	192,206	0,074	0,081
-168,110	207,004	0,030	-0,034
-167,096	-59,853	-0,055	-0,017
-166,081	-178,826	0,073	-0,001
-165,066	-70,620	0,140	0,038
-164,052	84,038	-0,139	0,109
-163,037	17,848	0,036	-0,021
-162,023	284,308	0,009	0,011
-161,008	489,555	-0,022	-0,037
-159,993	603,661	0,042	-0,077
-158,979	-33,037	-0,068	0,027
-157,964	800,000	0,029	-0,073
-156,950	-200,000	-0,036	-0,119
-155,935	-105,327	0,184	-0,030
-154,920	-64,789	-0,030	0,009
-153,906	-28,976	0,038	-0,016
-152,891	17,844	0,032	0,018
-151,877	760,585	-0,032	-0,063
-150,862	-193,256	-0,151	-0,001
-149,847	-173,652	-0,035	-0,001
-148,833	146,675	0,029	0,028
-147,818	38,890	0,053	0,034
-146,804	182,948	0,022	-0,023
-145,789	-200,000	0,013	0,057
-144,775	-200,000	0,006	-0,228
-143,760	-200,000	0,019	-0,087
-142,745	303,606	-0,080	-0,107
-141,731	-8,878	-0,059	0,029
-140,716	125,929	0,033	0,030
-139,702	800,000	0,052	0,164
-138,687	206,713	-0,125	0,140
-137,672	-200,000	-0,007	0,147
-136,658	-200,000	0,010	0,074
-135,643	-15,985	0,071	0,033
-134,629	-8,001	-0,059	-0,029
-133,614	-158,861	0,214	0,009
-132,599	-200,000	-0,005	-0,071
-131,585	258,388	0,065	0,081
-130,570	388,209	0,074	-0,111
-129,556	52,869	-0,025	0,017
-128,541	104,833	-0,035	-0,030
-127,526	-160,281	0,071	0,003
-126,512	-55,794	0,120	0,038
-125,497	244,063	-0,044	-0,054
-124,483	-99,516	0,062	0,011
-123,468	36,767	0,114	-0,072
-122,453	800,000	-0,098	-0,222
-121,439	5,334	0,063	-0,033
-120,424	7,199	-0,093	-0,050
-119,410	800,000	0,012	-0,034
-118,395	-200,000	0,014	-0,064
-117,380	-103,874	0,015	-0,003
-116,366	5,435	-0,050	-0,027
-115,351	16,800	0,056	-0,032
-114,337	176,191	-0,079	-0,082
-113,322	-86,775	-0,082	-0,018
-112,307	-69,877	0,179	0,049
-111,293	-200,000	-0,008	0,087
-110,278	-200,000	0,006	-0,055
-109,264	800,000	-0,072	0,177
-108,249	-200,000	-0,009	-0,049
-107,234	-77,699	-0,089	-0,022
-106,220	-200,000	0,022	-0,121
-105,205	-62,867	0,102	-0,030
-104,191	800,000	-0,050	-0,116
-103,176	495,286	0,040	-0,067
-102,162	-143,572	-0,081	0,005
-101,147	-34,800	-0,055	-0,022
-100,132	-64,967	0,017	-0,005
-99,118	223,500	-0,078	-0,090
-98,103	800,000	-0,021	-0,050
-97,089	291,549	-0,043	0,056
-96,074	523,265	0,065	0,111
-95,059	800,000	-0,040	0,098
-94,045	203,918	-0,067	-0,075
-93,030	109,906	-0,094	-0,081
-92,016	204,872	0,029	-0,032
-91,001	-200,000	0,053	-0,216
-89,986	-200,000	0,017	-0,123
-88,972	-200,000	0,005	-0,050
-87,957	11,674	-0,023	0,012
-86,943	388,095	-0,052	0,078
-85,928	800,000	0,032	0,068
-84,913	-200,000	0,018	-0,093
-83,899	-200,000	0,016	0,057
-82,884	466,176	0,095	0,153
-81,870	73,730	0,083	-0,062
-80,855	85,607	0,052	-0,041
-79,840	180,885	0,038	-0,040
-78,826	-200,000	-0,009	-0,188
-77,811	172,749	-0,080	-0,083
-76,797	-7,277	-0,062	0,030
-75,782	800,000	0,024	0,050
-74,767	173,816	-0,042	-0,044
-73,753	493,269	0,080	0,133
-72,738	-200,000	-0,007	0,083
-71,724	800,000	-0,081	-0,189
-70,709	119,735	-0,025	-0,022
-69,694	19,458	0,021	-0,012
-68,680	-120,848	-0,043	0,005
-67,665	49,908	0,082	0,056
-66,651	-200,000	0,023	-0,162
-65,636	55,712	0,038	-0,026
-64,622	-130,022	-0,235	-0,023
-63,607	-200,000	-0,001	0,014
-62,592	-200,000	-0,026	0,097
-61,578	53,827	-0,087	0,060
-60,563	-81,072	0,038	-0,009
-59,549	96,833	-0,042	0,034
-58,534	51,170	-2,596	-1,767
-57,519	300,256	0,235	-0,312
-56,505	-200,000	-1,537	-5,147
-55,490	374,994	1,026	1,507
-54,476	800,000	5,389	11,920
-53,461	-200,000	21,340	338,108
-52,446	800,000	762,643	2310,161
-51,432	517,101	1661,934	2802,571
-50,417	106,439	1628,121	1386,169
-49,403	76,187	1280,633	972,921
-48,388	26,727	1025,941	615,747
-47,373	19,194	990,951	569,751
-46,359	14,001	978,262	545,330
-45,344	10,143	975,067	530,813
-44,330	10,611	973,036	531,225
-43,315	9,654	971,082	526,992
-42,300	9,535	969,894	525,935
-41,286	9,588	968,996	525,601
-40,271	9,533	968,238	524,989
-39,257	9,530	967,216	524,404
-38,242	9,584	966,213	524,016
-37,227	9,509	965,424	523,323
-36,213	9,535	964,732	523,013
-35,198	9,471	963,967	522,369
-34,184	9,531	962,918	521,974
-33,169	9,479	962,123	521,352
-32,154	9,615	961,228	521,290
-31,140	9,565	960,389	520,650
-30,125	9,603	959,686	520,372
-29,111	9,526	958,814	519,629
-28,096	9,603	958,263	519,562
-27,082	9,603	957,474	519,113
-26,067	9,550	956,696	518,498
-25,052	9,516	955,969	517,973
-24,038	9,546	955,132	517,595
-23,023	9,490	954,622	517,119
-22,009	9,612	954,048	517,181
-20,994	9,546	953,473	516,636
-19,979	9,597	952,809	516,421
-18,965	9,579	952,114	515,965
-17,950	9,597	951,487	515,662
-16,936	9,532	950,919	515,125
-15,921	9,544	950,323	514,820
-14,906	9,447	949,370	513,971
-13,892	9,489	948,907	513,836
-12,877	9,444	948,227	513,301
-11,863	9,426	947,580	512,875
-10,848	9,443	947,026	512,608
-9,833	9,543	946,539	512,645
-8,819	9,464	945,713	511,926
-7,804	9,512	945,068	511,709
-6,790	9,515	944,486	511,383
-5,775	9,453	944,085	510,946
-4,760	9,525	943,307	510,734
-3,746	9,437	942,796	510,158
-2,731	9,382	941,830	509,439
-1,717	9,328	941,353	508,989
-0,702	9,330	940,850	508,704
0,313	9,160	940,099	508,526
1,327	12,653	937,839	518,338
2,342	21,380	786,733	457,879
3,356	16,515	452,547	255,967
4,371	-10,397	314,114	148,907
5,386	-14,210	296,238	136,546
6,400	-16,411	290,378	131,639
7,415	-16,457	287,776	130,402
8,429	-17,002	285,998	129,050
9,444	-16,933	285,034	128,671
10,459	-16,897	284,414	128,415
11,473	-16,821	283,822	128,210
12,488	-16,898	283,412	127,938
13,502	-16,953	282,858	127,624
14,517	-16,675	282,654	127,790
15,531	-16,519	282,016	127,641
16,546	-16,523	281,739	127,500
17,561	-16,395	281,315	127,420
18,575	-16,351	280,995	127,307
19,590	-16,362	280,551	127,084
20,604	-16,196	280,329	127,131
21,619	-16,251	280,037	126,935
22,634	-16,384	279,729	126,656
23,648	-16,419	279,484	126,500
24,663	-16,365	279,054	126,346
25,677	-16,396	278,807	126,193
26,692	-16,303	278,574	126,165
27,707	-16,496	278,360	125,873
28,721	-16,437	278,053	125,780
29,736	-16,448	277,724	125,609
30,750	-16,314	277,567	125,654
31,765	-16,318	277,274	125,507
32,780	-16,235	276,974	125,438
33,794	-16,551	276,840	125,067
34,809	-16,119	276,418	125,274
35,823	-16,414	276,259	124,911
36,838	-16,266	275,900	124,878
37,853	-16,287	275,792	124,798
38,867	-16,394	275,393	124,505
39,882	-16,204	275,290	124,627
40,896	-16,257	274,992	124,432
41,911	-16,327	274,757	124,248
42,926	-16,472	274,612	124,035
43,940	-16,314	274,291	124,027
44,955	-16,418	274,005	123,790
45,969	-16,454	273,692	123,603
46,984	-16,431	273,636	123,588
47,999	-16,348	273,467	123,578
49,013	-16,074	273,032	123,626
50,028	-16,261	272,987	123,421
51,042	-16,209	272,722	123,339
52,057	-16,338	272,520	123,116
53,071	-16,003	272,118	123,235
54,086	-16,165	272,014	123,026
55,101	-16,239	271,942	122,913
56,115	-16,204	271,618	122,789
57,130	-16,362	271,346	122,508
58,144	-16,475	271,039	122,255
59,159	-16,408	270,714	122,159
60,174	-16,650	270,483	121,820
61,188	-16,565	270,380	121,842
62,203	-16,381	270,215	121,926
63,217	-16,305	270,026	121,900
64,232	-16,308	269,633	121,709
65,247	-16,348	269,381	121,548
66,261	-16,401	269,149	121,383
67,276	-16,306	268,981	121,384
68,290	-16,501	268,908	121,162
69,305	-16,456	268,579	121,043
70,320	-16,332	268,361	121,048
71,334	-16,397	268,194	120,903
72,349	-16,367	267,767	120,727
73,363	-16,612	267,640	120,434
74,378	-16,245	267,433	120,666
75,393	-16,501	267,388	120,401
76,407	-16,408	266,992	120,297
77,422	-16,238	266,731	120,323
78,436	-16,549	266,639	119,988
79,451	-16,374	266,364	120,012
80,466	-16,312	266,055	119,919
81,480	-16,534	265,782	119,584
82,495	-16,411	265,769	119,679
83,509	-16,294	265,399	119,607
84,524	-16,294	265,251	119,530
85,539	-16,123	265,081	119,598
86,553	-16,178	264,793	119,407
87,568	-16,310	264,569	119,177
88,582	-16,333	264,425	119,080
89,597	-16,484	264,088	118,782
90,611	-16,351	264,077	118,886
91,626	-16,362	263,874	118,774
92,641	-16,211	263,607	118,779
93,655	-16,273	263,338	118,592
94,670	-16,427	263,152	118,359
95,684	-16,424	263,021	118,293
96,699	-16,352	262,831	118,261
97,714	-16,344	262,548	118,130
98,728	-16,263	262,363	118,109
99,743	-16,193	262,142	118,062
100,757	-16,274	261,934	117,885
101,772	-16,312	261,716	117,743
102,787	-16,409	261,478	117,538
103,801	-16,175	261,147	117,588
104,816	-16,377	261,166	117,406
105,830	-16,366	260,981	117,322
106,845	-16,444	260,765	117,145
107,860	-16,480	260,628	117,041
108,874	-16,481	260,258	116,864
109,889	-16,496	260,044	116,744
110,903	-16,400	259,864	116,738
111,918	-16,500	259,723	116,575
112,933	-16,309	259,383	116,581
113,947	-16,313	259,334	116,545
114,962	-16,311	259,235	116,492
115,976	-16,367	258,981	116,318
116,991	-16,351	258,705	116,198
118,006	-16,498	258,569	115,997
119,020	-16,465	258,520	115,994
120,035	-16,406	258,230	115,905
121,049	-16,310	258,064	115,904
122,064	-16,304	257,844	115,801
123,079	-16,151	257,469	115,756
124,093	-16,216	257,362	115,641
125,108	-16,384	257,189	115,406
126,122	-16,350	257,083	115,377
127,137	-16,205	256,931	115,425
128,151	-16,268	256,767	115,287
129,166	-16,187	256,409	115,186
130,181	-16,049	256,194	115,199
131,195	-16,333	256,037	114,872
132,210	-16,334	255,737	114,725
133,224	-16,460	255,626	114,556
134,239	-16,387	255,404	114,510
135,254	-16,340	255,142	114,423
136,268	-16,072	254,944	114,556
137,283	-16,262	254,823	114,327
138,297	-16,163	254,464	114,242
139,312	-16,232	254,463	114,171
140,327	-16,221	254,073	113,996
141,341	-16,409	253,937	113,762
142,356	-16,492	253,686	113,568
143,370	-16,558	253,728	113,520
144,385	-16,385	253,487	113,551
145,400	-16,203	253,251	113,591
146,414	-16,307	252,836	113,306
147,429	-16,192	252,742	113,352
148,443	-16,360	252,689	113,175
149,458	-16,348	252,424	113,056
150,473	-16,607	252,320	112,778
151,487	-16,386	251,999	112,813
152,502	-16,337	251,866	112,786
153,516	-16,129	251,680	112,869
154,531	-16,340	251,458	112,580
155,546	-16,099	251,301	112,705
156,560	-16,280	251,092	112,447
157,575	-16,363	250,821	112,245
158,589	-16,231	250,443	112,178
159,604	-16,180	250,446	112,213
160,619	-16,262	250,290	112,063
161,633	-16,380	250,064	111,851
162,648	-16,368	250,118	111,876
163,662	-16,217	249,735	111,822
164,677	-16,146	249,757	111,883
165,692	-16,422	249,619	111,577
166,706	-16,227	249,125	111,511
167,721	-16,325	249,233	111,467
168,735	-16,395	249,000	111,294
169,750	-16,224	248,710	111,298
170,764	-16,269	248,750	111,268
171,779	-16,493	248,665	111,031
172,794	-16,152	248,450	111,213
173,808	-16,140	248,127	111,068
174,823	-16,373	248,206	110,898
175,837	-16,214	247,797	110,839
176,852	-16,312	247,739	110,721
177,867	-16,264	247,335	110,570
178,881	-16,299	247,210	110,476
179,896	-16,283	247,121	110,439
180,910	-16,228	246,931	110,390
181,925	-16,125	246,532	110,288
182,940	-16,392	246,478	110,031
183,954	-16,371	246,298	109,959
184,969	-16,338	246,258	109,959
185,983	-16,170	246,135	110,034
186,998	-16,142	245,861	109,925
188,013	-16,339	245,737	109,696
189,027	-16,160	245,507	109,732
190,042	-16,253	245,260	109,535
191,056	-16,213	245,068	109,472
192,071	-16,208	244,898	109,390
193,086	-16,495	244,721	109,065
194,100	-16,359	244,591	109,109
195,115	-16,405	244,374	108,965
196,129	-16,326	244,180	108,934
197,144	-16,501	244,001	108,700
198,159	-16,427	243,833	108,676
199,173	-16,466	243,631	108,545
200,188	-16,488	243,445	108,434
201,202	-16,536	243,255	108,300
202,217	-16,347	243,193	108,418
203,232	-16,142	242,827	108,413
204,246	-16,555	242,680	108,000
205,261	-17,042	242,363	107,450
206,275	-16,024	242,645	108,400
207,290	-11,302	244,291	113,013
208,304	-4,258	246,446	119,838
209,319	-1,234	247,550	122,875
210,334	-0,084	247,733	123,909
211,348	0,997	247,848	124,852
212,363	1,454	247,737	125,164
213,377	1,728	247,748	125,385
214,392	2,217	247,651	125,730
215,407	2,429	247,503	125,819
216,421	2,446	247,491	125,816
217,436	2,264	247,431	125,623
218,450	2,218	247,121	125,417
219,465	2,162	247,165	125,382
220,480	2,031	246,788	125,071
221,494	2,057	246,517	124,944
222,509	1,479	246,303	124,349
223,523	1,228	246,058	124,008
224,538	1,235	245,746	123,845
225,553	1,228	245,463	123,686
226,567	0,906	245,472	123,415
227,582	1,006	245,389	123,445
228,596	1,088	245,187	123,399
229,611	1,106	244,955	123,286
230,626	1,100	244,815	123,200
231,640	1,216	244,582	123,166
232,655	1,008	244,331	122,859
233,669	1,004	244,244	122,801
234,684	1,027	244,013	122,693
235,699	1,292	243,812	122,797
236,713	1,167	243,844	122,700
237,728	0,871	243,820	122,436
238,742	1,097	243,511	122,454
239,757	1,235	243,303	122,450
240,772	1,335	243,189	122,463
241,786	0,908	243,228	122,125
242,801	0,991	242,922	122,028
243,815	1,061	242,682	121,953
244,830	1,139	242,670	122,000
245,844	1,125	242,460	121,871
246,859	1,120	242,310	121,781
247,874	1,259	242,121	121,788
248,888	1,327	241,959	121,750
249,903	1,394	241,857	121,743
250,917	1,438	241,616	121,645
251,932	1,287	241,479	121,444
252,947	1,400	241,275	121,421
253,961	1,248	241,282	121,292
254,976	1,030	240,989	120,959
255,990	1,329	240,674	121,030
257,005	1,294	240,708	121,008
258,020	1,356	240,476	120,930
259,034	1,241	240,433	120,805
260,049	1,338	240,111	120,711
261,063	1,079	240,183	120,528
262,078	1,222	239,958	120,519
263,093	1,202	239,825	120,426
264,107	1,122	239,561	120,218
265,122	1,114	239,467	120,154
266,136	1,312	239,323	120,229
267,151	1,000	239,337	119,977
268,166	1,158	238,871	119,858
269,180	1,087	238,816	119,764
270,195	1,329	238,599	119,836
271,209	1,270	238,441	119,699
272,224	1,122	238,420	119,561
273,239	1,002	238,128	119,309
274,253	1,165	238,032	119,379
275,268	1,001	237,860	119,153
276,282	1,049	237,735	119,117
277,297	1,100	237,408	118,983
278,312	1,088	237,496	119,007
279,326	1,275	237,314	119,053
280,341	1,033	237,083	118,736
281,355	1,173	237,042	118,815
282,370	1,312	236,786	118,786
283,384	1,165	236,741	118,636
284,399	1,402	236,401	118,641
285,414	1,234	236,340	118,468
286,428	1,145	236,170	118,303
287,443	1,115	236,125	118,246
288,457	1,275	235,886	118,241
289,472	1,360	235,656	118,182
290,487	1,200	235,534	117,985
291,501	1,312	235,374	117,981
292,516	1,397	235,263	117,982
293,530	1,211	235,095	117,742
294,545	1,158	235,077	117,681
295,560	1,187	234,903	117,606
296,574	1,277	234,764	117,596
297,589	1,133	234,638	117,410
298,603	1,153	234,498	117,346
299,618	1,479	234,174	117,426
300,633	1,359	234,118	117,295
301,647	1,404	234,032	117,276
302,662	1,539	233,828	117,268
303,676	1,297	233,713	117,013
304,691	1,559	233,625	117,161
305,706	1,416	233,350	116,902
306,720	1,563	233,227	116,944
307,735	1,489	233,118	116,821
308,749	1,487	232,957	116,728
309,764	1,117	232,821	116,364
310,779	1,396	232,518	116,418
311,793	1,279	232,534	116,325
312,808	1,380	232,460	116,356
313,822	1,209	232,226	116,097
314,837	1,311	231,945	116,024
315,852	1,533	231,834	116,129
316,866	1,588	231,823	116,155
317,881	1,562	231,736	116,081
318,895	1,471	231,524	115,895
319,910	1,360	231,300	115,687
320,925	1,544	231,064	115,699
321,939	1,393	230,980	115,531
322,954	1,448	230,884	115,516
323,968	1,491	230,733	115,463
324,983	1,331	230,587	115,257
325,997	1,465	230,401	115,256
327,012	1,452	230,267	115,169
328,027	1,550	230,028	115,114
329,041	1,308	229,883	114,847
330,056	1,277	230,007	114,875
331,070	1,587	229,725	114,960
332,085	1,427	229,569	114,750
333,100	1,337	229,313	114,543
334,114	1,182	229,237	114,377
335,129	1,473	228,965	114,452
336,143	1,227	228,968	114,256
337,158	1,589	228,611	114,342
338,173	1,592	228,531	114,294
339,187	1,221	228,557	114,017
340,202	1,432	228,340	114,057
341,216	1,380	228,196	113,936
342,231	1,445	228,088	113,921
343,246	1,449	227,866	113,803
344,260	1,741	227,782	113,971
345,275	1,843	227,537	113,915
346,289	1,582	227,541	113,710
347,304	1,474	227,306	113,501
348,319	1,609	227,200	113,539
349,333	1,470	227,085	113,368
350,348	1,477	226,771	113,206
351,362	1,653	226,790	113,338
352,377	1,617	226,505	113,158
353,392	1,299	226,540	112,928
354,406	1,352	226,437	112,906
355,421	192,728	1313,447	1382,207
356,435	154,424	1445,768	1382,076
