DTS Sentinel unit serial number:	SN410029Multiplexer serial number:	ORYXHardware model number:	OX2-SRSoftware version number:	ORYX F/W v4,00 Oryx Data Collector v3.7.2.0data status	okinstallation	B5 Nyhavnadifferential loss correction	single-endedforward channel	channel 2reverse channel	N/Adate	2023/12/14time	06:37:13forward acquisition time	300,00reverse acquisition time	0,00gamma	499,1914k internal	0,3158k external	0,3158temperature offset calibration	1,0000default loss term (dB/km)	0,3820temperature slope calibration	1,0000multiplexer offset coefficient	1,0000multiplexer slope coefficient	1,0000fibre end	0,00T internal ref (°C)	7,42T ext. ref 1 (°C)	-9,09T ext. ref 2 (°C)	-9,16length (m)	temperature (°C)	Stokes	anti-Stokes-744,400	95,982	0,103	0,087
-743,385	4,853	-0,369	-0,199
-742,371	-6,347	0,180	0,090
-741,356	-161,209	-0,303	-0,011
-740,342	800,000	0,065	0,141
-739,327	-156,305	-0,296	-0,013
-738,312	-64,630	0,121	0,036
-737,298	-20,631	-0,387	-0,174
-736,283	53,166	0,266	0,187
-735,269	-137,389	-0,348	-0,029
-734,254	-25,549	0,269	0,117
-733,239	-28,289	-0,604	-0,256
-732,225	-12,357	0,238	0,114
-731,210	-43,602	0,125	0,046
-730,196	40,070	-0,046	-0,030
-729,181	49,055	0,041	-0,028
-728,167	-116,701	-0,120	-0,016
-727,152	-81,608	-0,168	0,040
-726,137	229,415	-0,052	-0,063
-725,123	800,000	-0,027	-0,069
-724,108	122,877	-0,139	-0,128
-723,094	173,516	-0,090	-0,096
-722,079	-147,165	-0,207	-0,013
-721,064	-100,919	-0,053	-0,010
-720,050	108,156	-0,097	0,086
-719,035	87,821	-0,060	0,049
-718,021	-75,262	-0,179	-0,047
-717,006	800,000	0,047	0,099
-715,991	-148,942	-0,181	-0,011
-714,977	-200,000	0,024	-0,256
-713,962	-74,834	-0,093	-0,024
-712,948	36,002	-0,008	0,005
-711,933	-38,860	0,016	0,006
-710,918	327,982	0,043	-0,062
-709,904	-200,000	-0,012	-0,044
-708,889	75,799	-0,100	-0,078
-707,875	-22,943	-0,077	-0,034
-706,860	-24,023	-0,041	0,018
-705,845	-200,000	-0,021	-0,082
-704,831	104,703	0,157	0,136
-703,816	-200,000	-0,010	0,099
-702,802	-200,000	0,006	-0,032
-701,787	-200,000	-0,017	-0,105
-700,772	326,677	-0,050	-0,071
-699,758	-32,704	0,034	0,014
-698,743	-20,379	0,087	0,039
-697,729	-141,876	0,059	-0,004
-696,714	579,502	-0,043	0,078
-695,699	800,000	-0,039	-0,123
-694,685	142,565	0,044	-0,043
-693,670	-89,729	-0,231	0,049
-692,656	164,626	-0,062	-0,065
-691,641	-55,051	0,033	-0,011
-690,627	800,000	-0,037	0,112
-689,612	-200,000	0,020	0,079
-688,597	121,118	-0,040	0,036
-687,583	7,367	-0,116	-0,064
-686,568	-53,411	0,024	-0,008
-685,554	138,765	-0,055	0,053
-684,539	-11,408	0,154	-0,074
-683,524	-200,000	0,006	-0,025
-682,510	-200,000	0,038	-0,125
-681,495	61,481	-0,068	-0,049
-680,481	-142,383	-0,097	0,007
-679,466	-73,916	-0,020	0,005
-678,451	-16,543	-0,128	-0,059
-677,437	238,756	-0,057	-0,070
-676,422	252,832	0,045	0,056
-675,408	-200,000	0,007	0,277
-674,393	-51,936	-0,071	0,024
-673,378	48,080	-0,088	-0,060
-672,364	78,055	-0,164	-0,128
-671,349	5,110	-0,152	-0,082
-670,335	-45,904	0,018	-0,007
-669,320	-28,044	0,079	0,034
-668,305	245,788	0,030	0,037
-667,291	800,000	-0,011	-0,033
-666,276	22,250	-0,150	-0,090
-665,262	-200,000	0,000	-0,077
-664,247	-174,993	0,115	0,002
-663,232	-125,168	-0,139	-0,015
-662,218	138,522	0,081	0,078
-661,203	800,000	-0,047	-0,132
-660,189	-97,152	0,188	-0,036
-659,174	461,296	-0,046	-0,076
-658,159	-124,803	-0,064	0,007
-657,145	-200,000	0,009	-0,077
-656,130	160,273	-0,018	0,018
-655,116	113,368	0,018	-0,016
-654,101	-52,625	0,084	-0,028
-653,086	344,363	-0,048	0,070
-652,072	-114,082	-0,126	-0,018
-651,057	17,134	0,091	0,053
-650,043	499,072	-0,083	-0,140
-649,028	-166,447	0,028	-0,001
-648,014	207,852	0,062	0,071
-646,999	-102,352	-0,073	0,013
-645,984	19,637	0,166	-0,098
-644,970	-200,000	-0,024	-0,154
-643,955	-31,853	-0,095	-0,039
-642,941	-104,717	-0,178	-0,030
-641,926	-200,000	-0,033	0,109
-640,911	-200,000	0,007	-0,134
-639,897	-200,000	-0,024	0,082
-638,882	400,219	-0,113	0,174
-637,868	-123,963	0,140	-0,016
-636,853	288,946	-0,040	-0,053
-635,838	131,773	-0,074	-0,070
-634,824	793,993	-0,062	-0,126
-633,809	212,614	0,011	-0,013
-632,795	800,000	0,023	0,059
-631,780	78,205	0,028	0,022
-630,765	-200,000	0,017	-0,176
-629,751	-195,981	0,034	-0,000
-628,736	-80,319	0,068	0,017
-627,722	-33,808	-0,012	0,005
-626,707	-200,000	0,016	0,095
-625,692	477,685	0,054	0,090
-624,678	-4,944	-0,133	-0,067
-623,663	417,778	0,024	-0,037
-622,649	145,585	-0,049	-0,048
-621,634	609,330	0,035	-0,064
-620,619	-200,000	0,004	-0,027
-619,605	-135,266	0,075	-0,007
-618,590	433,360	0,010	0,016
-617,576	184,518	-0,062	-0,067
-616,561	800,000	0,039	-0,112
-615,546	33,842	-0,107	-0,068
-614,532	13,694	0,108	0,061
-613,517	-18,638	-0,089	0,041
-612,503	-200,000	-0,003	0,029
-611,488	723,160	0,080	0,156
-610,474	-11,402	0,049	0,023
-609,459	800,000	-0,065	-0,141
-608,444	490,970	0,078	-0,131
-607,430	662,000	-0,033	-0,063
-606,415	-200,000	0,006	-0,091
-605,401	800,000	0,009	-0,021
-604,386	369,032	-0,019	-0,028
-603,371	800,000	0,011	0,032
-602,357	-189,082	-0,029	0,000
-601,342	-200,000	-0,016	0,169
-600,328	228,249	-0,009	0,011
-599,313	-142,734	-0,120	0,008
-598,298	101,295	0,071	0,061
-597,284	255,653	0,076	-0,096
-596,269	20,487	0,140	0,083
-595,255	-59,289	-0,117	0,037
-594,240	-28,769	-0,077	0,032
-593,225	258,157	-0,016	-0,021
-592,211	129,498	-0,061	0,057
-591,196	-144,409	-0,131	0,009
-590,182	800,000	0,007	-0,017
-589,167	-79,382	0,083	0,020
-588,152	171,817	-0,107	0,113
-587,138	669,221	0,054	0,104
-586,123	-23,346	0,044	-0,019
-585,109	620,664	0,049	-0,091
-584,094	800,000	-0,027	-0,085
-583,079	-101,125	-0,054	0,010
-582,065	800,000	-0,025	-0,061
-581,050	-133,478	0,055	-0,005
-580,036	-1,976	0,084	-0,043
-579,021	268,283	-0,040	-0,052
-578,006	800,000	0,009	-0,019
-576,992	243,493	-0,035	-0,043
-575,977	-200,000	-0,004	-0,055
-574,963	-200,000	0,032	-0,163
-573,948	643,582	0,068	-0,127
-572,934	20,593	0,044	-0,026
-571,919	-164,091	0,103	-0,003
-570,904	-182,939	-0,265	0,003
-569,890	389,367	0,094	-0,143
-568,875	800,000	0,031	0,076
-567,861	186,213	0,052	0,057
-566,846	-200,000	-0,010	0,046
-565,831	-95,893	-0,173	0,033
-564,817	-64,700	-0,105	-0,031
-563,802	-149,336	-0,117	0,007
-562,788	222,389	0,010	-0,012
-561,773	-180,716	-0,061	0,001
-560,758	-200,000	-0,010	0,137
-559,744	-200,000	-0,003	0,136
-558,729	-71,610	0,005	-0,001
-557,715	100,635	0,030	-0,025
-556,700	329,283	0,044	0,062
-555,685	260,031	0,078	-0,099
-554,671	-200,000	0,006	0,020
-553,656	44,501	0,139	0,093
-552,642	-29,771	0,064	0,026
-551,627	204,183	-0,052	0,059
-550,612	570,307	-0,060	0,106
-549,598	800,000	0,009	-0,025
-548,583	67,739	-0,005	-0,003
-547,569	-200,000	0,017	0,088
-546,554	11,362	0,075	-0,042
-545,539	800,000	0,059	-0,121
-544,525	-200,000	0,016	0,108
-543,510	-169,355	-0,155	-0,004
-542,496	800,000	0,072	-0,196
-541,481	-54,803	-0,031	0,010
-540,466	-91,104	0,124	-0,026
-539,452	212,823	0,028	-0,032
-538,437	-200,000	0,015	-0,083
-537,423	-200,000	0,025	-0,102
-536,408	-0,559	-0,089	0,046
-535,393	29,893	0,022	-0,014
-534,379	-103,931	-0,025	0,004
-533,364	57,423	0,052	-0,037
-532,350	175,751	0,071	0,076
-531,335	800,000	-0,006	-0,020
-530,321	141,511	0,121	0,117
-529,306	319,685	0,095	0,132
-528,291	501,667	0,050	-0,086
-527,277	101,733	0,059	-0,050
-526,262	-200,000	-0,013	-0,164
-525,248	-200,000	-0,011	0,201
-524,233	445,416	-0,117	0,188
-523,218	380,446	0,031	-0,047
-522,204	259,790	0,027	-0,035
-521,189	388,580	-0,083	-0,125
-520,175	800,000	0,030	0,065
-519,160	251,778	-0,041	-0,051
-518,145	591,871	0,083	0,150
-517,131	-200,000	-0,008	-0,050
-516,116	237,542	0,056	0,068
-515,102	126,697	-0,084	0,078
-514,087	-131,300	-0,047	0,004
-513,072	784,299	-0,039	-0,079
-512,058	685,209	0,030	0,057
-511,043	-200,000	0,016	-0,119
-510,029	-200,000	0,006	0,049
-509,014	800,000	-0,035	0,084
-507,999	-63,924	0,106	0,031
-506,985	-141,971	-0,139	0,010
-505,970	-117,955	-0,042	-0,005
-504,956	800,000	0,012	-0,026
-503,941	273,708	0,057	0,073
-502,926	64,244	0,078	-0,058
-501,912	-29,154	-0,031	0,013
-500,897	-87,459	-0,044	-0,010
-499,883	800,000	0,024	-0,069
-498,868	5,236	-0,073	0,039
-497,853	-200,000	-0,016	-0,071
-496,839	-97,181	-0,056	0,011
-495,824	-67,674	0,127	0,036
-494,810	-68,316	0,026	0,007
-493,795	737,962	-0,017	-0,033
-492,781	147,405	-0,006	0,006
-491,766	800,000	0,036	0,080
-490,751	389,280	-0,041	-0,062
-489,737	-200,000	-0,002	-0,049
-488,722	38,830	0,123	0,080
-487,708	37,660	0,026	-0,017
-486,693	-200,000	0,008	0,163
-485,678	-73,098	-0,026	-0,007
-484,664	800,000	-0,024	-0,076
-483,649	800,000	-0,041	-0,118
-482,635	210,453	-0,069	0,079
-481,620	800,000	-0,034	-0,098
-480,605	200,440	-0,046	0,051
-479,591	533,143	-0,027	0,047
-478,576	90,915	-0,157	-0,128
-477,562	-85,201	-0,063	0,014
-476,547	-190,109	0,086	0,001
-475,532	-130,320	0,172	-0,017
-474,518	-183,762	0,087	-0,001
-473,503	-71,721	-0,063	0,017
-472,489	-200,000	0,042	0,200
-471,474	-200,000	-0,166	0,000
-470,459	800,000	0,055	-0,114
-469,445	-39,753	-0,173	0,066
-468,430	-140,985	-0,134	-0,010
-467,416	-126,598	0,159	-0,017
-466,401	-200,000	-0,015	-0,134
-465,386	-200,000	-0,008	-0,155
-464,372	800,000	0,058	0,159
-463,357	64,030	-0,062	0,045
-462,343	-200,000	-0,004	0,120
-461,328	800,000	0,021	0,058
-460,313	-61,453	0,092	-0,028
-459,299	-200,000	0,020	0,147
-458,284	320,827	0,120	0,167
-457,270	-200,000	0,009	0,198
-456,255	-200,000	0,017	-0,080
-455,241	-46,396	-0,057	0,020
-454,226	-87,015	-0,065	0,014
-453,211	-89,069	0,090	0,019
-452,197	22,964	0,116	0,069
-451,182	-41,764	0,087	0,032
-450,168	599,756	0,052	0,094
-449,153	12,465	-0,029	-0,016
-448,138	-200,000	0,011	-0,041
-447,124	465,363	-0,045	-0,074
-446,109	-200,000	-0,014	-0,120
-445,095	-8,445	-0,037	-0,018
-444,080	149,726	0,055	-0,054
-443,065	-2,070	0,050	-0,026
-442,051	65,642	-0,043	0,031
-441,036	200,924	0,067	-0,075
-440,022	-157,098	-0,068	0,003
-439,007	-200,000	-0,009	0,035
-437,992	-145,758	0,066	0,004
-436,978	-164,441	0,031	0,001
-435,963	115,677	0,013	-0,012
-434,949	-200,000	-0,019	0,134
-433,934	-200,000	0,022	-0,113
-432,919	270,184	-0,079	-0,101
-431,905	-200,000	-0,016	0,107
-430,890	-57,191	0,070	0,022
-429,876	-132,095	-0,090	-0,008
-428,861	69,435	0,101	0,076
-427,846	-200,000	-0,001	0,081
-426,832	800,000	-0,035	0,080
-425,817	-200,000	-0,023	-0,101
-424,803	147,794	0,169	0,166
-423,788	-200,000	-0,023	-0,129
-422,773	226,951	0,033	-0,039
-421,759	-44,352	0,124	0,045
-420,744	-68,441	-0,100	-0,028
-419,730	-200,000	-0,002	0,044
-418,715	335,225	-0,069	-0,097
-417,701	-200,000	-0,003	-0,116
-416,686	-200,000	0,009	-0,092
-415,671	-200,000	-0,016	0,052
-414,657	-51,278	-0,087	0,029
-413,642	280,188	-0,041	-0,053
-412,628	-85,165	0,187	0,042
-411,613	-200,000	-0,004	-0,236
-410,598	-200,000	-0,028	-0,173
-409,584	-200,000	0,005	0,036
-408,569	-104,709	0,074	0,012
-407,555	110,459	-0,022	0,019
-406,540	440,948	0,023	0,037
-405,525	-200,000	0,039	-0,145
-404,511	800,000	-0,026	-0,073
-403,496	7,038	-0,043	-0,023
-402,482	-76,872	0,018	-0,005
-401,467	66,404	0,047	0,035
-400,452	96,548	0,055	0,046
-399,438	132,575	-0,094	-0,088
-398,423	-200,000	0,023	0,113
-397,409	-48,581	-0,126	0,044
-396,394	160,666	0,053	-0,054
-395,379	-17,831	-0,104	0,047
-394,365	800,000	0,028	0,074
-393,350	800,000	0,014	0,038
-392,336	-52,777	-0,045	0,015
-391,321	-29,927	0,028	0,011
-390,306	-200,000	-0,015	-0,108
-389,292	800,000	-0,039	-0,094
-388,277	-104,891	-0,182	-0,030
-387,263	-88,608	0,056	-0,012
-386,248	-38,583	0,112	0,043
-385,233	10,723	0,016	0,009
-384,219	-86,018	-0,119	-0,027
-383,204	-200,000	-0,006	-0,056
-382,190	27,488	-0,081	0,049
-381,175	-200,000	-0,007	0,045
-380,160	584,125	0,030	-0,054
-379,146	268,806	-0,037	0,047
-378,131	800,000	0,033	-0,094
-377,117	-200,000	0,000	0,080
-376,102	800,000	0,035	-0,074
-375,088	780,597	-0,033	-0,066
-374,073	-200,000	0,020	0,074
-373,058	42,095	-0,064	0,042
-372,044	-46,901	0,070	0,025
-371,029	203,048	-0,113	0,127
-370,015	-200,000	0,015	-0,080
-369,000	800,000	-0,059	-0,180
-367,985	303,696	-0,062	-0,083
-366,971	-175,023	0,037	-0,001
-365,956	259,748	0,089	-0,112
-364,942	-200,000	0,012	0,059
-363,927	-200,000	-0,018	0,092
-362,912	393,979	0,053	-0,080
-361,898	-200,000	0,003	-0,055
-360,883	432,452	0,024	-0,038
-359,869	800,000	0,058	-0,153
-358,854	-47,440	-0,100	0,035
-357,839	21,161	0,052	0,031
-356,825	-88,880	-0,037	-0,008
-355,810	-178,977	0,038	-0,001
-354,796	-200,000	-0,021	0,084
-353,781	-162,000	0,085	0,003
-352,766	-113,814	-0,110	-0,015
-351,752	584,201	-0,032	0,057
-350,737	25,718	0,148	0,089
-349,723	-96,202	-0,119	-0,023
-348,708	-110,681	-0,147	-0,022
-347,693	-200,000	-0,034	-0,141
-346,679	800,000	-0,060	-0,190
-345,664	-200,000	-0,010	-0,209
-344,650	800,000	-0,023	0,058
-343,635	-18,019	0,024	0,011
-342,620	-87,913	0,091	0,020
-341,606	-200,000	0,007	-0,121
-340,591	132,313	0,011	0,010
-339,577	240,116	0,062	0,075
-338,562	106,621	-0,062	-0,053
-337,548	129,339	0,033	0,030
-336,533	-200,000	0,003	-0,029
-335,518	-118,379	-0,076	0,010
-334,504	-200,000	0,009	-0,053
-333,489	800,000	0,078	-0,163
-332,475	-25,903	0,068	0,029
-331,460	397,810	-0,064	0,097
-330,445	-79,561	-0,066	0,016
-329,431	-200,000	-0,011	0,036
-328,416	800,000	-0,062	-0,184
-327,402	800,000	0,025	0,069
-326,387	-131,801	0,061	0,006
-325,372	-200,000	-0,006	0,048
-324,358	-48,301	-0,145	-0,050
-323,343	-200,000	0,016	-0,139
-322,329	-200,000	0,014	0,073
-321,314	-92,033	-0,049	0,010
-320,299	-45,740	0,216	0,077
-319,285	-35,053	0,021	0,008
-318,270	58,519	0,072	-0,051
-317,256	18,529	0,055	0,032
-316,241	-107,424	-0,026	0,004
-315,226	-70,655	-0,178	-0,048
-314,212	-110,012	0,026	0,004
-313,197	-154,562	0,085	-0,004
-312,183	63,152	-0,040	-0,029
-311,168	168,135	-0,087	0,089
-310,153	-9,545	0,074	0,036
-309,139	28,266	-0,166	-0,101
-308,124	-70,035	0,056	-0,015
-307,110	800,000	-0,034	0,075
-306,095	800,000	0,039	-0,087
-305,080	-112,808	-0,085	0,012
-304,066	-200,000	0,009	0,095
-303,051	-200,000	0,000	0,091
-302,037	-200,000	0,014	0,063
-301,022	-200,000	0,002	-0,081
-300,008	-200,000	-0,012	0,158
-298,993	-200,000	0,003	0,065
-297,978	-96,713	-0,091	-0,017
-296,964	800,000	0,089	0,193
-295,949	800,000	-0,038	-0,108
-294,935	800,000	0,042	-0,089
-293,920	102,250	0,078	0,066
-292,905	-88,272	-0,030	-0,006
-291,891	800,000	-0,056	0,141
-290,876	-113,626	-0,060	0,008
-289,862	75,354	0,056	0,043
-288,847	-200,000	0,006	0,142
-287,832	696,951	0,055	-0,104
-286,818	800,000	-0,050	-0,124
-285,803	-200,000	0,012	-0,110
-284,789	-22,382	0,056	0,025
-283,774	-86,674	0,167	0,037
-282,759	516,776	-0,060	-0,102
-281,745	-200,000	-0,000	-0,017
-280,730	257,515	0,014	-0,017
-279,716	-99,236	-0,145	-0,026
-278,701	-200,000	0,013	-0,074
-277,686	516,371	-0,076	0,129
-276,672	-200,000	-0,052	0,187
-275,657	-74,093	0,152	-0,040
-274,643	-46,983	-0,096	-0,034
-273,628	497,971	-0,079	-0,132
-272,613	-114,480	0,062	-0,008
-271,599	13,350	0,081	0,045
-270,584	-44,483	-0,099	-0,036
-269,570	-111,476	-0,031	0,005
-268,555	498,924	0,091	0,152
-267,540	-200,000	-0,020	-0,089
-266,526	202,595	0,078	0,087
-265,511	182,021	0,092	-0,098
-264,497	328,703	-0,038	0,053
-263,482	-200,000	0,024	0,095
-262,467	-200,000	0,004	0,131
-261,453	800,000	0,016	0,050
-260,438	-200,000	-0,022	-0,077
-259,424	126,287	0,146	0,134
-258,409	-55,591	0,111	-0,036
-257,395	-47,886	-0,081	0,028
-256,380	110,336	0,080	0,070
-255,365	188,869	-0,116	0,126
-254,351	-45,699	0,020	0,007
-253,336	-113,165	-0,083	-0,012
-252,322	-200,000	-0,010	0,032
-251,307	-154,721	-0,082	-0,004
-250,292	-49,274	-0,039	0,013
-249,278	-10,574	0,146	0,070
-248,263	-95,646	0,138	-0,027
-247,249	-27,639	0,084	0,035
-246,234	-133,957	-0,122	-0,011
-245,219	5,898	-0,039	-0,021
-244,205	800,000	0,036	-0,076
-243,190	-81,855	0,028	-0,007
-242,176	22,023	0,107	0,063
-241,161	800,000	-0,045	0,095
-240,146	211,246	0,050	-0,058
-239,132	389,545	-0,021	0,031
-238,117	-200,000	0,026	-0,122
-237,103	-200,000	-0,005	-0,093
-236,088	133,641	0,104	-0,097
-235,073	-200,000	-0,004	0,057
-234,059	426,215	0,024	-0,038
-233,044	186,306	0,028	0,030
-232,030	500,716	-0,032	-0,053
-231,015	-200,000	0,014	0,057
-230,000	-65,873	-0,099	0,028
-228,986	48,288	0,041	-0,028
-227,971	234,097	0,028	0,034
-226,957	800,000	-0,016	0,036
-225,942	-200,000	-0,020	0,143
-224,927	800,000	-0,004	0,009
-223,913	-200,000	0,013	-0,060
-222,898	-79,797	-0,100	-0,024
-221,884	-200,000	-0,010	-0,070
-220,869	-200,000	0,021	0,070
-219,855	-146,579	-0,193	-0,012
-218,840	800,000	0,017	0,035
-217,825	151,229	0,033	-0,033
-216,811	800,000	-0,038	0,085
-215,796	-200,000	0,003	-0,061
-214,782	713,258	0,035	0,067
-213,767	29,732	-0,092	-0,056
-212,752	535,670	-0,052	0,090
-211,738	741,814	0,023	-0,045
-210,723	-57,095	-0,051	0,016
-209,709	601,195	-0,006	-0,011
-208,694	800,000	0,020	0,051
-207,679	120,861	-0,103	0,093
-206,665	-200,000	0,024	0,102
-205,650	503,661	0,039	-0,065
-204,636	230,907	0,042	-0,049
-203,621	-35,587	-0,079	0,031
-202,606	-200,000	-0,021	-0,108
-201,592	-200,000	-0,028	-0,124
-200,577	2,042	-0,076	0,040
-199,563	-200,000	0,014	0,168
-198,548	-200,000	0,003	0,041
-197,533	20,574	0,178	0,104
-196,519	-200,000	-0,031	0,176
-195,504	-5,414	-0,053	-0,026
-194,490	455,742	-0,060	0,096
-193,475	-151,362	-0,126	-0,007
-192,460	-200,000	-0,005	0,059
-191,446	318,940	0,054	0,074
-190,431	-43,624	0,162	-0,058
-189,417	800,000	-0,034	-0,108
-188,402	-32,477	0,078	0,031
-187,387	127,459	-0,123	0,113
-186,373	-68,671	0,128	0,036
-185,358	95,572	0,005	0,004
-184,344	185,269	0,102	-0,109
-183,329	48,870	-0,064	-0,043
-182,315	403,210	0,017	0,027
-181,300	-200,000	-0,001	0,040
-180,285	73,190	-0,050	-0,038
-179,271	288,091	-0,054	0,071
-178,256	192,159	0,055	-0,059
-177,242	800,000	-0,022	0,048
-176,227	169,365	0,114	-0,117
-175,212	-200,000	-0,027	-0,089
-174,198	-200,000	0,002	0,100
-173,183	394,967	0,028	-0,042
-172,169	166,734	-0,077	-0,078
-171,154	108,351	0,089	-0,076
-170,139	32,611	-0,068	-0,042
-169,125	121,746	0,037	0,033
-168,110	-200,000	0,029	0,096
-167,096	-60,119	0,006	0,002
-166,081	335,031	0,043	0,061
-165,066	800,000	-0,014	0,041
-164,052	-200,000	-0,012	-0,042
-163,037	-98,889	-0,092	0,017
-162,023	229,022	0,046	-0,054
-161,008	370,178	0,092	-0,135
-159,993	800,000	0,035	0,077
-158,979	174,474	-0,045	0,047
-157,964	-104,354	0,092	0,015
-156,950	219,144	-0,016	-0,019
-155,935	-200,000	0,021	0,098
-154,920	-40,721	-0,097	-0,036
-153,906	-74,879	-0,115	-0,029
-152,891	-200,000	0,005	-0,037
-151,877	156,583	0,035	0,035
-150,862	-200,000	-0,030	-0,135
-149,847	-41,080	-0,129	0,048
-148,833	800,000	-0,015	-0,046
-147,818	-200,000	-0,019	0,140
-146,804	-52,062	0,128	-0,043
-145,789	127,015	-0,045	0,041
-144,775	-200,000	-0,003	-0,100
-143,760	-200,000	0,001	-0,043
-142,745	187,769	0,034	-0,036
-141,731	101,331	-0,050	0,042
-140,716	644,116	-0,021	-0,039
-139,702	237,946	0,075	0,090
-138,687	502,957	-0,059	0,098
-137,672	-83,834	-0,115	-0,026
-136,658	282,886	0,081	0,105
-135,643	709,598	-0,076	-0,146
-134,629	-68,734	0,083	0,023
-133,614	654,544	0,014	-0,026
-132,599	800,000	0,071	0,200
-131,585	-121,856	0,113	0,013
-130,570	-96,654	-0,032	0,006
-129,556	53,241	-0,064	-0,044
-128,541	104,334	-0,072	-0,061
-127,526	136,342	0,105	0,099
-126,512	271,334	0,080	0,102
-125,497	-117,138	0,101	-0,013
-124,483	9,716	-0,102	0,056
-123,468	750,941	0,065	0,127
-122,453	374,550	-0,013	0,019
-121,439	-200,000	0,018	-0,125
-120,424	-111,152	-0,142	-0,021
-119,410	800,000	-0,050	0,143
-118,395	-158,586	0,063	-0,003
-117,380	-200,000	0,031	0,099
-116,366	-200,000	-0,005	-0,029
-115,351	156,337	-0,121	-0,120
-114,337	379,153	-0,040	-0,059
-113,322	-200,000	-0,003	0,063
-112,307	800,000	-0,016	0,034
-111,293	-20,300	-0,025	-0,011
-110,278	194,071	-0,014	0,016
-109,264	-20,956	-0,053	-0,023
-108,249	128,018	-0,107	-0,098
-107,234	800,000	-0,032	-0,076
-106,220	-8,435	0,070	0,034
-105,205	-80,110	0,129	-0,031
-104,191	-200,000	0,008	0,172
-103,176	-19,395	0,150	0,067
-102,162	132,760	0,024	-0,022
-101,147	-115,705	-0,063	-0,008
-100,132	25,939	-0,044	-0,026
-99,118	68,640	-0,093	-0,068
-98,103	442,403	0,036	-0,057
-97,089	433,979	0,089	0,140
-96,074	-79,576	-0,025	0,006
-95,059	-50,794	-0,073	0,024
-94,045	58,555	-0,108	-0,076
-93,030	-200,000	0,007	0,045
-92,016	-58,000	0,055	-0,017
-91,001	800,000	-0,022	0,056
-89,986	-200,000	0,013	0,165
-88,972	-74,989	0,118	-0,030
-87,957	263,532	-0,055	0,069
-86,943	-97,863	0,059	0,011
-85,928	800,000	-0,035	-0,084
-84,913	-64,934	-0,120	-0,035
-83,899	46,996	0,134	-0,089
-82,884	244,212	0,092	0,112
-81,870	648,891	0,030	0,056
-80,855	-2,874	0,164	-0,082
-79,840	-145,476	-0,122	-0,008
-78,826	83,906	-0,143	-0,112
-77,811	-42,023	-0,170	-0,062
-76,797	-113,544	0,189	0,026
-75,782	-2,662	0,073	0,036
-74,767	-78,536	-0,022	0,005
-73,753	71,821	0,178	-0,133
-72,738	-96,182	-0,096	0,018
-71,724	800,000	0,027	0,079
-70,709	-200,000	0,028	-0,115
-69,694	-146,857	-0,178	-0,011
-68,680	459,981	0,048	-0,077
-67,665	-63,883	0,119	-0,035
-66,651	-200,000	0,014	0,095
-65,636	-200,000	-0,030	-0,204
-64,622	723,121	-0,033	-0,064
-63,607	116,131	-0,086	-0,076
-62,592	-98,590	0,091	0,016
-61,578	-200,000	0,005	0,103
-60,563	150,501	-0,029	-0,028
-59,549	364,307	-0,128	0,186
-58,534	73,045	-2,802	-2,099
-57,519	-35,475	0,588	-0,228
-56,505	-200,000	-1,693	-5,493
-55,490	406,149	1,306	1,985
-54,476	800,000	5,274	11,271
-53,461	-200,000	22,715	348,295
-52,446	800,000	763,605	2274,248
-51,432	501,921	1644,385	2735,701
-50,417	94,094	1603,003	1304,249
-49,403	62,207	1259,653	900,596
-48,388	21,795	1011,950	589,991
-47,373	18,727	979,328	560,882
-46,359	12,235	966,403	532,336
-45,344	8,039	963,242	516,903
-44,330	8,488	960,876	517,076
-43,315	7,531	959,454	513,182
-42,300	7,470	958,158	512,267
-41,286	7,475	957,179	511,739
-40,271	7,456	956,153	511,109
-39,257	7,454	955,415	510,689
-38,242	7,417	954,636	510,134
-37,227	7,450	953,744	509,744
-36,213	7,448	952,920	509,277
-35,198	7,432	952,046	508,735
-34,184	7,481	951,202	508,422
-33,169	7,375	950,553	507,714
-32,154	7,525	949,238	507,474
-31,140	7,495	948,611	507,024
-30,125	7,494	947,849	506,591
-29,111	7,511	947,006	506,175
-28,096	7,470	946,655	505,836
-27,082	7,448	945,942	505,364
-26,067	7,451	945,180	504,949
-25,052	7,417	944,368	504,385
-24,038	7,441	943,517	503,988
-23,023	7,406	942,989	503,572
-22,009	7,430	942,411	503,323
-20,994	7,451	941,686	502,981
-19,979	7,463	941,077	502,675
-18,965	7,529	940,178	502,384
-17,950	7,442	939,898	501,936
-16,936	7,374	939,430	501,452
-15,921	7,380	938,694	501,058
-14,906	7,332	937,735	500,375
-13,892	7,320	937,214	500,037
-12,877	7,300	936,638	499,648
-11,863	7,325	935,966	499,348
-10,848	7,341	935,578	499,172
-9,833	7,430	934,860	499,050
-8,819	7,378	934,366	498,604
-7,804	7,326	933,597	498,010
-6,790	7,318	932,996	497,641
-5,775	7,417	932,582	497,715
-4,760	7,400	931,936	497,296
-3,746	7,374	931,408	496,913
-2,731	7,258	930,693	496,147
-1,717	7,202	930,034	495,601
-0,702	7,202	929,394	495,238
0,313	7,008	928,876	495,101
1,327	10,437	926,358	504,468
2,342	19,049	774,089	443,952
3,356	14,007	443,552	246,845
4,371	-12,342	309,419	144,449
5,386	-16,119	292,112	132,575
6,400	-18,065	285,950	127,858
7,415	-18,119	283,273	126,598
8,429	-18,730	281,441	125,179
9,444	-18,830	280,830	124,799
10,459	-18,771	280,073	124,508
11,473	-18,928	279,495	124,089
12,488	-18,842	278,956	123,921
13,502	-18,836	278,574	123,747
14,517	-18,665	278,302	123,778
15,531	-18,705	277,721	123,470
16,546	-18,559	277,306	123,414
17,561	-18,549	276,832	123,201
18,575	-18,430	276,582	123,192
19,590	-18,640	276,382	122,893
20,604	-18,459	275,990	122,879
21,619	-18,560	275,649	122,620
22,634	-18,610	275,435	122,468
23,648	-18,516	274,767	122,248
24,663	-18,516	274,832	122,266
25,677	-18,434	274,449	122,161
26,692	-18,408	274,274	122,097
27,707	-18,535	273,903	121,802
28,721	-18,601	273,681	121,630
29,736	-18,576	273,262	121,457
30,750	-18,434	273,086	121,500
31,765	-18,529	272,906	121,321
32,780	-18,348	272,672	121,375
33,794	-18,528	272,484	121,113
34,809	-18,501	272,107	120,959
35,823	-18,450	271,880	120,895
36,838	-18,590	271,655	120,654
37,853	-18,641	271,393	120,480
38,867	-18,498	271,090	120,467
39,882	-18,390	270,828	120,441
40,896	-18,578	270,767	120,228
41,911	-18,364	270,417	120,260
42,926	-18,467	270,233	120,073
43,940	-18,524	269,881	119,852
44,955	-18,461	269,584	119,768
45,969	-18,566	269,588	119,662
46,984	-18,359	269,249	119,691
47,999	-18,351	269,055	119,602
49,013	-18,364	268,834	119,481
50,028	-18,377	268,633	119,369
51,042	-18,194	268,330	119,391
52,057	-18,238	268,262	119,311
53,071	-18,196	267,853	119,157
54,086	-18,287	267,684	118,987
55,101	-18,274	267,303	118,819
56,115	-18,369	267,198	118,675
57,130	-18,438	267,001	118,514
58,144	-18,450	266,704	118,361
59,159	-18,537	266,426	118,148
60,174	-18,433	266,150	118,110
61,188	-18,508	265,978	117,955
62,203	-18,433	265,691	117,885
63,217	-18,414	265,462	117,790
64,232	-18,376	265,292	117,738
65,247	-18,297	265,083	117,706
66,261	-18,662	264,912	117,290
67,276	-18,370	264,523	117,371
68,290	-18,381	264,412	117,301
69,305	-18,471	264,249	117,137
70,320	-18,461	263,902	116,982
71,334	-18,084	263,581	117,169
72,349	-18,340	263,442	116,867
73,363	-18,457	263,373	116,720
74,378	-18,559	262,922	116,418
75,393	-18,404	262,897	116,536
76,407	-18,316	262,510	116,433
77,422	-18,364	262,245	116,262
78,436	-18,589	262,216	116,038
79,451	-18,334	261,982	116,151
80,466	-18,490	261,584	115,825
81,480	-18,514	261,351	115,691
82,495	-18,164	261,273	115,957
83,509	-18,342	261,005	115,670
84,524	-18,389	260,918	115,579
85,539	-18,251	260,670	115,581
86,553	-18,439	260,390	115,280
87,568	-18,336	260,298	115,321
88,582	-18,634	260,038	114,931
89,597	-18,405	259,845	115,038
90,611	-18,439	259,547	114,866
91,626	-18,500	259,277	114,682
92,641	-18,510	259,277	114,663
93,655	-18,405	258,936	114,595
94,670	-18,487	258,820	114,461
95,684	-18,431	258,543	114,378
96,699	-18,425	258,409	114,313
97,714	-18,558	258,222	114,104
98,728	-18,183	257,909	114,284
99,743	-18,274	257,875	114,179
100,757	-18,406	257,497	113,886
101,772	-18,296	257,413	113,935
102,787	-18,574	257,080	113,535
103,801	-18,443	256,814	113,521
104,816	-18,659	256,787	113,310
105,830	-18,370	256,505	113,428
106,845	-18,396	256,363	113,332
107,860	-18,416	256,154	113,212
108,874	-18,339	255,948	113,178
109,889	-18,434	255,677	112,966
110,903	-18,441	255,557	112,897
111,918	-18,292	255,446	112,967
112,933	-18,509	255,182	112,652
113,947	-18,424	254,944	112,611
114,962	-18,340	254,618	112,529
115,976	-18,227	254,278	112,467
116,991	-18,380	254,232	112,304
118,006	-18,392	254,035	112,196
119,020	-18,405	253,910	112,120
120,035	-18,367	253,862	112,122
121,049	-18,377	253,633	112,002
122,064	-18,264	253,435	112,002
123,079	-18,247	252,999	111,813
124,093	-18,460	252,980	111,613
125,108	-18,097	252,675	111,779
126,122	-18,232	252,735	111,680
127,137	-18,128	252,408	111,615
128,151	-18,197	252,345	111,517
129,166	-18,264	252,056	111,323
130,181	-18,141	251,815	111,311
131,195	-18,219	251,569	111,126
132,210	-18,306	251,454	110,991
133,224	-18,407	251,280	110,819
134,239	-18,334	251,095	110,790
135,254	-18,312	250,670	110,611
136,268	-18,232	250,548	110,615
137,283	-18,430	250,449	110,393
138,297	-18,140	250,193	110,516
139,312	-18,180	249,957	110,368
140,327	-18,131	249,671	110,274
141,341	-18,384	249,616	110,025
142,356	-18,424	249,389	109,882
143,370	-18,242	249,235	109,958
144,385	-18,320	249,018	109,787
145,400	-18,492	248,819	109,544
146,414	-18,394	248,550	109,499
147,429	-18,533	248,450	109,328
148,443	-18,486	248,182	109,239
149,458	-18,216	248,038	109,393
150,473	-18,313	247,802	109,198
151,487	-18,231	247,657	109,194
152,502	-18,506	247,532	108,898
153,516	-18,241	247,199	108,963
154,531	-18,352	247,206	108,863
155,546	-18,297	246,905	108,768
156,560	-18,152	246,723	108,798
157,575	-18,346	246,543	108,547
158,589	-18,360	246,476	108,497
159,604	-18,272	246,099	108,394
160,619	-18,321	246,079	108,335
161,633	-18,182	245,831	108,332
162,648	-18,212	245,597	108,195
163,662	-18,208	245,617	108,197
164,677	-18,212	245,333	108,059
165,692	-18,386	245,216	107,853
166,706	-18,194	244,923	107,873
167,721	-18,334	244,687	107,645
168,735	-18,393	244,682	107,584
169,750	-18,215	244,406	107,600
170,764	-18,385	244,314	107,409
171,779	-18,346	244,261	107,409
172,794	-18,261	243,928	107,323
173,808	-18,358	243,888	107,215
174,823	-18,165	243,576	107,228
175,837	-18,109	243,413	107,193
176,852	-18,174	243,449	107,145
177,867	-18,305	243,239	106,936
178,881	-18,332	243,063	106,827
179,896	-18,237	242,847	106,800
180,910	-18,217	242,723	106,752
181,925	-18,342	242,382	106,491
182,940	-18,298	242,245	106,457
183,954	-18,380	242,069	106,303
184,969	-18,270	242,023	106,363
185,983	-18,162	241,889	106,383
186,998	-18,356	241,600	106,088
188,013	-18,439	241,383	105,916
189,027	-18,356	241,086	105,844
190,042	-18,424	241,099	105,785
191,056	-18,277	240,908	105,811
192,071	-18,476	240,738	105,565
193,086	-18,381	240,503	105,530
194,100	-18,323	240,252	105,457
195,115	-18,109	240,090	105,550
196,129	-18,250	239,873	105,331
197,144	-18,372	239,806	105,194
198,159	-18,468	239,613	105,023
199,173	-18,300	239,454	105,079
200,188	-18,387	239,170	104,875
201,202	-18,215	239,082	104,965
202,217	-18,075	238,844	104,964
203,232	-18,131	238,837	104,907
204,246	-18,323	238,503	104,596
205,261	-18,647	238,190	104,189
206,275	-17,143	238,747	105,634
207,290	-12,306	240,268	110,211
208,304	-5,962	242,364	116,330
209,319	-2,184	243,392	119,896
210,334	-0,810	243,659	121,138
211,348	-0,293	243,847	121,643
212,363	0,070	243,854	121,931
213,377	0,320	243,685	122,039
214,392	0,665	243,494	122,214
215,407	0,988	243,577	122,507
216,421	1,162	243,324	122,510
217,436	1,070	243,387	122,457
218,450	1,010	243,148	122,276
219,465	1,259	243,068	122,427
220,480	1,246	242,848	122,295
221,494	1,056	242,699	122,055
222,509	0,741	242,423	121,651
223,523	0,680	242,074	121,416
224,538	0,523	241,969	121,225
225,553	0,557	241,824	121,169
226,567	0,617	241,595	121,093
227,582	0,645	241,410	121,011
228,596	0,376	241,418	120,787
229,611	0,414	241,314	120,755
230,626	0,625	240,980	120,747
231,640	0,549	240,912	120,641
232,655	0,542	240,567	120,452
233,669	0,439	240,494	120,322
234,684	0,366	240,303	120,157
235,699	0,553	240,292	120,291
236,713	0,572	240,010	120,155
237,728	0,716	239,860	120,183
238,742	0,584	239,696	119,985
239,757	0,488	239,506	119,803
240,772	0,398	239,383	119,658
241,786	0,568	239,294	119,739
242,801	0,458	239,173	119,581
243,815	0,547	238,860	119,484
244,830	0,473	238,794	119,382
245,844	0,453	238,526	119,221
246,859	0,506	238,356	119,168
247,874	0,364	238,460	119,096
248,888	0,621	238,151	119,135
249,903	0,713	237,906	119,074
250,917	0,607	237,743	118,899
251,932	0,679	237,752	118,949
252,947	0,647	237,657	118,866
253,961	0,469	237,476	118,624
254,976	0,605	237,258	118,612
255,990	0,544	237,079	118,464
257,005	0,498	236,899	118,326
258,020	0,723	236,855	118,472
259,034	0,595	236,666	118,265
260,049	0,769	236,415	118,267
261,063	0,544	236,249	117,996
262,078	0,710	236,112	118,048
263,093	0,463	235,936	117,755
264,107	0,519	235,855	117,748
265,122	0,381	235,689	117,546
266,136	0,600	235,628	117,677
267,151	0,726	235,448	117,676
268,166	0,464	235,274	117,373
269,180	0,367	235,047	117,174
270,195	0,626	234,945	117,315
271,209	0,534	234,813	117,166
272,224	0,511	234,587	117,026
273,239	0,472	234,440	116,911
274,253	0,583	234,199	116,867
275,268	0,588	234,099	116,811
276,282	0,757	233,954	116,860
277,297	0,432	233,858	116,549
278,312	0,616	233,681	116,593
279,326	0,534	233,715	116,536
280,341	0,594	233,504	116,467
281,355	0,661	233,287	116,400
282,370	0,755	233,092	116,364
283,384	0,625	232,897	116,156
284,399	0,642	232,822	116,122
285,414	0,574	232,761	116,029
286,428	0,507	232,593	115,883
287,443	0,449	232,432	115,747
288,457	0,583	232,275	115,763
289,472	0,645	232,130	115,727
290,487	0,728	231,997	115,715
291,501	0,799	231,704	115,613
292,516	0,755	231,596	115,514
293,530	0,592	231,418	115,290
294,545	0,819	231,279	115,385
295,560	0,423	231,270	115,067
296,574	0,585	231,098	115,095
297,589	0,862	230,832	115,165
298,603	0,846	230,783	115,117
299,618	0,629	230,704	114,902
300,633	0,885	230,548	115,010
301,647	0,914	230,317	114,906
302,662	0,587	230,198	114,587
303,676	0,862	230,039	114,708
304,691	0,980	229,846	114,691
305,706	0,852	229,889	114,604
306,720	0,914	229,596	114,495
307,735	0,882	229,417	114,372
308,749	0,811	229,454	114,326
309,764	0,927	229,098	114,227
310,779	1,012	229,077	114,270
311,793	0,843	228,954	114,070
312,808	0,931	228,783	114,042
313,822	0,564	228,601	113,663
314,837	0,713	228,421	113,676
315,852	0,784	228,324	113,672
316,866	0,870	228,208	113,669
317,881	0,967	227,936	113,596
318,895	0,815	227,798	113,402
319,910	0,803	227,666	113,318
320,925	0,718	227,505	113,164
321,939	0,767	227,478	113,176
322,954	0,790	227,318	113,104
323,968	0,943	227,129	113,115
324,983	0,806	226,971	112,924
325,997	0,839	226,919	112,913
327,012	0,979	226,600	112,848
328,027	0,918	226,426	112,706
329,041	0,924	226,372	112,674
330,056	0,962	226,242	112,627
331,070	0,906	226,141	112,525
332,085	0,813	225,884	112,318
333,100	0,918	225,844	112,367
334,114	0,842	225,603	112,180
335,129	0,856	225,614	112,186
336,143	0,880	225,333	112,054
337,158	1,117	225,250	112,179
338,173	0,917	225,145	111,968
339,187	1,057	224,896	111,938
340,202	1,108	224,737	111,887
341,216	0,875	224,710	111,690
342,231	0,931	224,522	111,629
343,246	1,065	224,398	111,656
344,260	1,028	224,317	111,579
345,275	1,021	224,147	111,479
346,289	1,075	223,852	111,362
347,304	0,966	223,867	111,279
348,319	0,865	223,617	111,071
349,333	0,958	223,490	111,066
350,348	0,961	223,418	111,022
351,362	1,123	223,266	111,057
352,377	1,044	223,054	110,883
353,392	1,210	222,924	110,930
354,406	1,055	222,690	110,690
355,421	192,037	1310,487	1375,297
356,435	153,739	1442,863	1375,120
