DTS Sentinel unit serial number:	SN410029Multiplexer serial number:	ORYXHardware model number:	OX2-SRSoftware version number:	ORYX F/W v4,00 Oryx Data Collector v3.7.2.0data status	okinstallation	B5 Nyhavnadifferential loss correction	single-endedforward channel	channel 2reverse channel	N/Adate	2023/12/13time	22:32:13forward acquisition time	300,00reverse acquisition time	0,00gamma	499,1914k internal	0,3154k external	0,3154temperature offset calibration	1,0000default loss term (dB/km)	0,3820temperature slope calibration	1,0000multiplexer offset coefficient	1,0000multiplexer slope coefficient	1,0000fibre end	0,00T internal ref (°C)	9,34T ext. ref 1 (°C)	-7,38T ext. ref 2 (°C)	-7,41length (m)	temperature (°C)	Stokes	anti-Stokes-744,400	-63,313	0,146	-0,044
-743,385	-55,514	-0,390	-0,128
-742,371	-99,914	0,151	-0,028
-741,356	-9,732	-0,310	-0,152
-740,342	65,547	0,150	0,112
-739,327	-1,520	-0,467	-0,242
-738,312	262,738	0,049	-0,063
-737,298	-113,847	-0,332	-0,047
-736,283	218,939	0,129	0,152
-735,269	-98,907	-0,343	-0,064
-734,254	112,918	0,121	0,108
-733,239	14,147	-0,422	-0,242
-732,225	22,035	0,241	0,145
-731,210	644,461	0,099	0,186
-730,196	-200,000	-0,006	0,068
-729,181	-129,179	-0,156	0,016
-728,167	103,227	-0,084	0,073
-727,152	-96,025	-0,211	0,041
-726,137	-101,782	-0,034	0,006
-725,123	-200,000	0,016	-0,069
-724,108	201,951	0,099	-0,113
-723,094	297,576	-0,023	-0,032
-722,079	-135,887	-0,117	0,010
-721,064	-200,000	0,002	0,147
-720,050	-13,190	-0,065	0,031
-719,035	-200,000	0,033	0,112
-718,021	-200,000	0,006	-0,063
-717,006	-89,508	-0,079	0,017
-715,991	-189,384	-0,143	0,001
-714,977	-200,000	0,001	-0,102
-713,962	-49,353	-0,122	0,043
-712,948	122,536	0,018	-0,017
-711,933	-22,238	0,127	0,057
-710,918	-200,000	-0,020	0,152
-709,904	194,121	-0,041	-0,045
-708,889	373,860	-0,102	-0,154
-707,875	-55,542	-0,122	0,040
-706,860	15,415	-0,121	0,070
-705,845	237,221	-0,023	-0,029
-704,831	-200,000	-0,001	-0,122
-703,816	-23,163	-0,035	-0,015
-702,802	37,451	0,014	0,009
-701,787	-88,114	-0,090	0,020
-700,772	-15,482	0,018	-0,009
-699,758	-183,211	0,025	-0,000
-698,743	-105,227	-0,039	0,007
-697,729	-161,194	-0,020	0,001
-696,714	295,225	-0,045	0,061
-695,699	-47,641	0,139	0,049
-694,685	9,988	0,053	0,029
-693,670	-200,000	0,004	-0,048
-692,656	-82,765	0,094	-0,022
-691,641	170,347	-0,126	-0,133
-690,627	747,367	-0,024	0,049
-689,612	800,000	-0,005	-0,012
-688,597	344,397	-0,065	-0,094
-687,583	-124,520	-0,014	0,002
-686,568	-200,000	0,014	0,078
-685,554	128,482	-0,055	-0,052
-684,539	-200,000	-0,030	0,119
-683,524	800,000	0,020	0,041
-682,510	800,000	-0,014	-0,029
-681,495	439,932	-0,037	-0,060
-680,481	6,166	-0,112	-0,061
-679,466	260,075	-0,078	-0,099
-678,451	534,810	-0,023	0,040
-677,437	-200,000	0,004	0,065
-676,422	340,493	0,060	-0,087
-675,408	-200,000	0,029	-0,124
-674,393	-106,405	-0,162	0,026
-673,378	-106,063	-0,171	0,028
-672,364	-111,499	0,156	0,023
-671,349	-5,756	-0,029	-0,015
-670,335	-200,000	-0,002	0,012
-669,320	-90,038	-0,130	-0,028
-668,305	-120,751	0,103	0,013
-667,291	-86,541	-0,193	0,043
-666,276	253,101	-0,080	-0,101
-665,262	-106,853	-0,163	-0,026
-664,247	-200,000	-0,030	0,000
-663,232	183,404	0,041	-0,044
-662,218	199,142	0,104	-0,117
-661,203	244,270	-0,094	-0,116
-660,189	255,890	0,028	-0,036
-659,174	333,415	-0,058	0,083
-658,159	-6,673	0,031	-0,015
-657,145	143,492	-0,085	-0,083
-656,130	-103,981	0,166	-0,028
-655,116	-28,396	0,125	-0,053
-654,101	-150,137	-0,039	-0,002
-653,086	19,681	0,096	-0,056
-652,072	418,676	0,061	-0,096
-651,057	-2,106	-0,067	-0,034
-650,043	-200,000	-0,033	-0,110
-649,028	-42,006	-0,022	0,008
-648,014	-108,077	-0,035	-0,006
-646,999	-200,000	0,017	-0,109
-645,984	-5,037	0,053	0,027
-644,970	800,000	0,032	0,093
-643,955	44,229	-0,120	-0,081
-642,941	36,440	-0,081	0,053
-641,926	183,120	0,035	0,038
-640,911	-200,000	0,006	0,038
-639,897	611,568	-0,002	-0,004
-638,882	800,000	0,017	0,045
-637,868	43,442	-0,158	-0,106
-636,853	417,275	-0,039	-0,062
-635,838	182,634	0,124	-0,134
-634,824	490,701	0,102	-0,172
-633,809	-200,000	0,016	0,139
-632,795	27,832	0,081	-0,050
-631,780	-200,000	0,024	0,178
-630,765	47,301	-0,089	0,061
-629,751	-35,498	-0,092	-0,037
-628,736	-200,000	0,005	-0,104
-627,722	-200,000	-0,001	-0,157
-626,707	99,236	-0,132	0,112
-625,692	756,436	0,034	0,067
-624,678	-200,000	-0,009	0,047
-623,663	168,990	-0,091	0,095
-622,649	14,005	0,102	-0,058
-621,634	112,197	-0,107	-0,095
-620,619	61,908	-0,083	-0,060
-619,605	186,356	0,023	0,025
-618,590	63,759	0,042	0,031
-617,576	-200,000	0,020	0,079
-616,561	800,000	0,011	0,032
-615,546	401,051	-0,043	-0,066
-614,532	147,954	-0,029	0,028
-613,517	439,398	0,074	-0,119
-612,503	-152,309	0,060	0,003
-611,488	-200,000	0,014	-0,110
-610,474	-1,460	0,082	0,042
-609,459	-200,000	0,022	-0,093
-608,444	-149,676	-0,114	0,006
-607,430	110,388	0,068	-0,060
-606,415	51,904	-0,043	-0,030
-605,401	315,749	-0,104	-0,144
-604,386	12,023	0,130	-0,073
-603,371	-200,000	0,031	0,147
-602,357	800,000	-0,031	-0,066
-601,342	-200,000	-0,013	-0,120
-600,328	-165,334	-0,143	-0,005
-599,313	-91,133	-0,094	-0,020
-598,298	-186,074	0,145	0,002
-597,284	27,424	-0,013	-0,008
-596,269	800,000	0,018	-0,056
-595,255	-200,000	0,023	0,140
-594,240	-140,940	-0,057	0,004
-593,225	800,000	0,030	0,076
-592,211	-180,267	0,035	-0,001
-591,196	308,915	0,060	-0,082
-590,182	-6,090	-0,119	-0,060
-589,167	-164,986	0,103	0,003
-588,152	85,971	0,055	-0,044
-587,138	-63,139	0,048	0,014
-586,123	613,503	-0,059	-0,109
-585,109	-200,000	0,001	-0,015
-584,094	145,638	-0,056	-0,055
-583,079	-44,059	0,191	-0,070
-582,065	194,812	0,027	0,030
-581,050	800,000	0,039	0,114
-580,036	191,029	0,037	0,041
-579,021	-200,000	0,005	-0,082
-578,006	800,000	0,008	-0,020
-576,992	-101,146	-0,085	-0,015
-575,977	-200,000	-0,013	0,133
-574,963	554,503	-0,081	-0,144
-573,948	-200,000	0,003	0,051
-572,934	168,445	0,028	-0,030
-571,919	247,032	-0,054	0,067
-570,904	-49,319	0,085	0,030
-569,890	-79,330	-0,103	-0,025
-568,875	13,989	0,140	0,079
-567,861	-36,977	0,066	0,026
-566,846	-200,000	-0,025	0,175
-565,831	241,270	0,106	0,130
-564,817	-200,000	-0,039	-0,143
-563,802	-200,000	0,001	-0,066
-562,788	247,842	-0,144	-0,179
-561,773	-200,000	0,023	-0,102
-560,758	116,659	-0,032	-0,029
-559,744	260,552	0,070	0,089
-558,729	-200,000	-0,018	0,102
-557,715	-25,426	-0,050	-0,022
-556,700	-200,000	-0,008	0,035
-555,685	800,000	-0,015	-0,032
-554,671	283,510	-0,055	-0,073
-553,656	-10,141	0,026	0,013
-552,642	6,380	-0,101	0,055
-551,627	-12,064	0,093	-0,044
-550,612	426,524	-0,009	-0,015
-549,598	132,624	-0,080	-0,076
-548,583	108,004	0,107	-0,094
-547,569	800,000	-0,033	0,096
-546,554	225,208	0,036	0,042
-545,539	215,949	0,102	0,119
-544,525	-200,000	0,010	-0,036
-543,510	-200,000	-0,006	-0,121
-542,496	-200,000	0,025	-0,104
-541,481	60,581	-0,113	0,082
-540,466	570,701	-0,010	-0,019
-539,452	800,000	0,022	-0,054
-538,437	800,000	-0,043	-0,122
-537,423	800,000	0,026	-0,070
-536,408	-200,000	0,014	-0,065
-535,393	220,264	-0,052	0,061
-534,379	-4,729	-0,090	-0,046
-533,364	-57,432	-0,108	0,034
-532,350	106,313	-0,130	0,113
-531,335	800,000	0,032	0,100
-530,321	800,000	-0,069	0,196
-529,306	-200,000	0,006	0,062
-528,291	233,439	-0,051	0,061
-527,277	-40,775	-0,063	-0,024
-526,262	198,526	0,013	0,015
-525,248	765,219	0,008	-0,017
-524,233	800,000	0,071	0,146
-523,218	-200,000	-0,004	0,075
-522,204	24,786	0,056	0,034
-521,189	-80,316	0,055	-0,013
-520,175	-200,000	-0,013	0,046
-519,160	800,000	-0,023	-0,067
-518,145	-200,000	-0,005	0,057
-517,131	-200,000	-0,010	-0,052
-516,116	800,000	0,057	0,132
-515,102	53,638	-0,054	-0,038
-514,087	-33,589	-0,039	0,016
-513,072	800,000	-0,041	-0,131
-512,058	733,279	0,090	-0,177
-511,043	-89,218	-0,054	-0,012
-510,029	-130,848	0,079	0,008
-509,014	-200,000	0,015	0,107
-507,999	-29,603	-0,089	0,037
-506,985	800,000	0,017	-0,035
-505,970	73,348	0,038	-0,029
-504,956	-0,848	0,104	-0,054
-503,941	800,000	-0,037	0,108
-502,926	-200,000	-0,017	0,164
-501,912	457,546	-0,052	-0,085
-500,897	143,641	0,109	-0,106
-499,883	51,727	-0,108	-0,075
-498,868	247,787	0,028	0,035
-497,853	-111,885	-0,062	0,009
-496,839	257,547	-0,035	-0,045
-495,824	178,026	0,126	-0,135
-494,810	-200,000	0,005	0,023
-493,795	316,341	0,026	0,037
-492,781	-200,000	0,018	0,062
-491,766	14,179	0,066	-0,037
-490,751	381,540	0,042	-0,063
-489,737	-68,500	0,119	-0,033
-488,722	-157,433	0,137	-0,006
-487,708	9,213	-0,141	-0,078
-486,693	107,972	0,056	-0,048
-485,678	-61,660	-0,076	-0,023
-484,664	101,383	0,076	-0,064
-483,649	-136,418	0,051	-0,004
-482,635	-137,647	-0,085	-0,007
-481,620	-4,129	0,090	0,046
-480,605	-200,000	0,000	0,010
-479,591	-76,827	0,024	0,006
-478,576	800,000	0,013	-0,034
-477,562	800,000	0,017	-0,053
-476,547	737,749	0,055	-0,109
-475,532	624,241	-0,076	-0,141
-474,518	800,000	0,006	0,017
-473,503	352,310	-0,053	0,077
-472,489	-6,049	0,183	0,091
-471,474	338,819	-0,059	0,084
-470,459	800,000	-0,077	-0,166
-469,445	-35,027	0,015	-0,006
-468,430	232,028	0,028	-0,034
-467,416	-200,000	0,013	0,082
-466,401	-91,285	-0,018	-0,004
-465,386	226,142	0,077	0,091
-464,372	170,492	-0,113	-0,118
-463,357	-143,058	0,138	0,010
-462,343	-86,153	-0,193	0,043
-461,328	-200,000	-0,024	-0,145
-460,313	800,000	0,034	-0,085
-459,299	-23,838	0,092	0,040
-458,284	-31,420	-0,039	0,016
-457,270	95,057	-0,124	0,103
-456,255	-3,612	-0,035	0,018
-455,241	82,212	-0,050	-0,040
-454,226	15,823	0,066	0,038
-453,211	275,393	-0,076	-0,099
-452,197	-37,366	0,135	0,052
-451,182	-200,000	-0,012	0,100
-450,168	9,488	-0,119	-0,066
-449,153	-34,208	0,124	0,050
-448,138	800,000	-0,017	0,051
-447,124	131,515	0,079	0,074
-446,109	305,459	-0,075	0,102
-445,095	679,671	0,022	0,042
-444,080	184,406	0,036	0,039
-443,065	454,589	-0,039	0,064
-442,051	256,932	-0,055	-0,069
-441,036	27,502	-0,061	-0,037
-440,022	429,876	0,088	-0,139
-439,007	-200,000	0,013	0,044
-437,992	-27,987	-0,038	-0,016
-436,978	291,169	0,076	0,101
-435,963	510,360	-0,057	0,096
-434,949	-111,072	0,084	0,012
-433,934	119,641	-0,074	-0,067
-432,919	269,242	0,035	-0,045
-431,905	800,000	-0,023	-0,051
-430,890	-200,000	0,005	-0,072
-429,876	15,340	0,094	0,054
-428,861	-7,729	-0,061	-0,030
-427,846	50,456	0,102	-0,071
-426,832	736,266	-0,015	-0,030
-425,817	-92,750	-0,152	-0,031
-424,803	800,000	0,016	0,035
-423,788	420,596	0,080	0,125
-422,773	800,000	-0,009	0,021
-421,759	410,983	0,069	0,107
-420,744	-200,000	0,011	0,093
-419,730	375,613	-0,086	-0,128
-418,715	800,000	0,004	-0,008
-417,701	159,863	-0,165	-0,167
-416,686	-200,000	0,005	-0,054
-415,671	-155,149	0,117	-0,005
-414,657	635,923	-0,063	0,116
-413,642	-125,657	-0,021	0,002
-412,628	-200,000	-0,029	0,107
-411,613	103,560	0,025	0,021
-410,598	-191,782	-0,101	-0,001
-409,584	800,000	0,013	0,037
-408,569	205,232	0,119	0,135
-407,555	-200,000	0,001	0,221
-406,540	702,118	0,082	0,158
-405,525	102,899	-0,112	-0,095
-404,511	800,000	0,066	-0,159
-403,496	-200,000	-0,096	0,000
-402,482	800,000	0,076	0,157
-401,467	-81,623	-0,049	0,012
-400,452	577,126	-0,050	0,089
-399,438	247,850	-0,075	0,093
-398,423	54,276	-0,130	-0,091
-397,409	303,062	0,046	-0,062
-396,394	800,000	-0,032	-0,090
-395,379	800,000	-0,031	0,092
-394,365	185,030	-0,068	0,073
-393,350	-200,000	0,002	0,079
-392,336	-157,241	-0,096	0,004
-391,321	-68,574	0,142	0,040
-390,306	800,000	-0,028	-0,082
-389,292	-79,573	-0,097	0,024
-388,277	800,000	0,071	0,149
-387,263	-200,000	0,036	0,192
-386,248	17,684	0,041	-0,023
-385,233	-200,000	-0,011	0,141
-384,219	160,064	0,056	0,057
-383,204	41,293	0,079	-0,052
-382,190	32,624	0,117	0,073
-381,175	-200,000	0,029	0,115
-380,160	675,594	-0,042	0,079
-379,146	-200,000	0,035	0,121
-378,131	-200,000	0,019	0,141
-377,117	-91,119	-0,171	0,035
-376,102	68,212	-0,144	-0,107
-375,088	-200,000	0,018	-0,151
-374,073	705,670	0,082	0,158
-373,058	309,771	-0,048	0,066
-372,044	800,000	0,077	0,191
-371,029	343,965	0,104	0,148
-370,015	-200,000	0,021	0,119
-369,000	394,602	0,041	0,062
-367,985	182,616	0,058	-0,062
-366,971	70,424	0,050	-0,037
-365,956	526,859	-0,014	0,023
-364,942	-200,000	-0,002	-0,082
-363,927	-200,000	0,012	-0,083
-362,912	800,000	0,012	-0,034
-361,898	59,010	-0,071	0,050
-360,883	174,073	-0,173	-0,182
-359,869	-200,000	0,035	0,126
-358,854	414,422	0,024	0,037
-357,839	229,867	-0,019	0,023
-356,825	28,359	0,074	0,046
-355,810	159,188	0,036	-0,036
-354,796	-171,625	-0,028	0,001
-353,781	94,346	0,027	0,022
-352,766	800,000	-0,010	-0,023
-351,752	17,927	0,125	0,072
-350,737	-121,838	-0,051	0,006
-349,723	10,117	0,140	0,077
-348,708	188,748	0,032	0,035
-347,693	-91,111	0,035	0,007
-346,679	115,013	-0,058	0,051
-345,664	-200,000	0,048	0,180
-344,650	-86,535	-0,180	-0,040
-343,635	800,000	-0,004	-0,009
-342,620	800,000	-0,053	-0,116
-341,606	800,000	-0,006	0,012
-340,591	455,462	0,040	-0,064
-339,577	-10,254	-0,100	-0,048
-338,562	-43,419	-0,044	-0,016
-337,548	800,000	-0,013	-0,039
-336,533	261,798	0,039	0,049
-335,518	-65,774	0,069	0,020
-334,504	-150,150	0,134	-0,007
-333,489	800,000	-0,015	-0,039
-332,475	-49,541	-0,087	0,030
-331,460	-102,580	-0,096	-0,017
-330,445	618,568	0,051	-0,093
-329,431	-21,614	-0,052	0,023
-328,416	800,000	0,035	0,081
-327,402	723,240	0,039	0,076
-326,387	-62,941	0,100	0,030
-325,372	-71,429	0,103	0,028
-324,358	-150,136	-0,177	-0,010
-323,343	417,266	-0,050	-0,078
-322,329	26,667	0,073	-0,044
-321,314	-41,680	0,056	0,021
-320,299	35,389	0,083	0,053
-319,285	-200,000	-0,000	0,115
-318,270	113,165	-0,140	-0,123
-317,256	-200,000	-0,014	-0,142
-316,241	-200,000	-0,009	-0,074
-315,226	-96,238	0,063	0,012
-314,212	206,222	0,091	0,103
-313,197	244,202	0,105	0,129
-312,183	2,121	0,073	0,038
-311,168	149,361	-0,154	-0,151
-310,153	39,982	-0,075	-0,049
-309,139	-184,870	0,082	-0,001
-308,124	165,626	-0,030	0,031
-307,110	-200,000	-0,012	0,045
-306,095	800,000	0,081	0,199
-305,080	-40,275	0,078	-0,029
-304,066	-200,000	0,005	-0,043
-303,051	794,983	0,048	-0,096
-302,037	-81,817	-0,174	-0,041
-301,022	-170,127	0,139	-0,004
-300,008	-200,000	-0,000	-0,035
-298,993	800,000	0,039	0,095
-297,978	-200,000	-0,016	0,112
-296,964	-148,835	-0,147	-0,008
-295,949	-37,761	-0,097	-0,037
-294,935	-30,988	0,004	-0,002
-293,920	800,000	-0,033	-0,081
-292,905	-79,899	0,155	0,038
-291,891	16,612	0,025	0,014
-290,876	-200,000	-0,025	-0,105
-289,862	-200,000	-0,017	-0,056
-288,847	593,715	0,030	0,054
-287,832	-200,000	0,021	-0,081
-286,818	-145,467	-0,031	-0,002
-285,803	44,577	0,096	0,064
-284,789	-105,315	0,061	0,010
-283,774	-109,760	0,036	-0,005
-282,759	10,240	-0,049	-0,027
-281,745	154,472	-0,070	-0,070
-280,730	169,944	-0,072	0,075
-279,716	-200,000	0,023	-0,116
-278,701	-147,249	0,191	0,012
-277,686	800,000	-0,037	0,108
-276,672	77,180	0,062	-0,048
-275,657	-200,000	0,016	-0,122
-274,643	-71,367	-0,110	0,030
-273,628	333,779	-0,008	0,011
-272,613	62,883	0,071	0,052
-271,599	-107,581	0,138	0,022
-270,584	-88,715	0,165	-0,035
-269,570	-200,000	0,004	0,139
-268,555	-101,566	-0,109	-0,019
-267,540	-200,000	0,027	0,094
-266,526	56,025	-0,012	-0,008
-265,511	-49,259	-0,050	0,017
-264,497	102,214	0,099	0,084
-263,482	19,664	0,047	0,027
-262,467	800,000	-0,075	-0,157
-261,453	-90,769	0,052	-0,011
-260,438	-200,000	-0,023	-0,104
-259,424	177,816	0,065	-0,069
-258,409	-35,912	-0,097	-0,038
-257,395	-123,344	0,130	0,015
-256,380	-82,465	-0,110	-0,026
-255,365	-9,313	0,151	0,073
-254,351	-200,000	-0,000	0,024
-253,336	21,026	-0,060	0,035
-252,322	790,486	-0,070	0,141
-251,307	-173,041	0,123	-0,003
-250,292	-200,000	-0,023	-0,110
-249,278	-15,471	-0,038	-0,017
-248,263	184,494	-0,107	-0,115
-247,249	57,763	-0,030	0,021
-246,234	800,000	0,060	-0,152
-245,219	53,284	-0,038	-0,027
-244,205	117,515	0,033	0,029
-243,190	130,449	0,081	0,076
-242,176	2,133	-0,057	-0,030
-241,161	23,858	-0,053	0,032
-240,146	145,182	-0,021	0,020
-239,132	-78,474	-0,041	0,010
-238,117	-52,286	-0,127	-0,042
-237,103	-44,796	-0,117	-0,042
-236,088	-155,752	0,127	-0,006
-235,073	23,882	0,040	-0,024
-234,059	-11,006	0,070	-0,034
-233,044	-72,852	-0,125	0,033
-232,030	58,709	-0,125	-0,089
-231,015	50,118	-0,065	-0,045
-230,000	-35,801	-0,082	0,032
-228,986	-200,000	-0,037	0,000
-227,971	459,670	0,047	0,077
-226,957	120,615	-0,035	0,031
-225,942	74,893	0,094	-0,071
-224,927	-88,799	-0,058	0,012
-223,913	217,363	-0,036	-0,041
-222,898	-200,000	0,007	-0,204
-221,884	54,101	-0,068	-0,047
-220,869	-200,000	0,014	0,059
-219,855	48,214	0,173	0,117
-218,840	-114,482	0,051	-0,007
-217,825	99,920	-0,046	0,038
-216,811	-200,000	-0,013	0,079
-215,796	44,848	-0,158	-0,105
-214,782	-85,429	-0,030	-0,007
-213,767	-158,859	-0,057	-0,002
-212,752	800,000	0,026	0,055
-211,738	-200,000	0,002	0,016
-210,723	-27,971	0,083	-0,035
-209,709	46,269	-0,095	0,063
-208,694	800,000	0,058	-0,134
-207,679	-143,163	0,185	-0,013
-206,665	-89,263	0,143	0,030
-205,650	609,527	0,034	0,061
-204,636	-200,000	-0,006	0,122
-203,621	-62,684	-0,139	-0,042
-202,606	240,903	0,082	0,099
-201,592	-200,000	0,026	-0,207
-200,577	-109,668	-0,136	0,021
-199,563	28,200	0,113	-0,069
-198,548	89,422	0,064	-0,052
-197,533	800,000	-0,010	-0,030
-196,519	-6,688	0,002	0,001
-195,504	120,422	-0,111	0,100
-194,490	123,369	0,122	0,110
-193,475	-200,000	-0,031	-0,154
-192,460	374,356	-0,045	-0,067
-191,446	-1,187	0,064	-0,032
-190,431	-90,009	0,165	0,034
-189,417	235,377	-0,047	0,056
-188,402	-200,000	-0,009	-0,045
-187,387	16,150	-0,175	-0,099
-186,373	800,000	0,041	0,091
-185,358	800,000	0,042	0,123
-184,344	166,043	-0,095	-0,097
-183,329	-81,392	0,075	0,018
-182,315	60,320	0,042	0,030
-181,300	800,000	-0,019	-0,051
-180,285	-45,330	-0,182	0,065
-179,271	-67,582	0,130	-0,036
-178,256	-200,000	0,017	-0,166
-177,242	-40,940	-0,061	-0,023
-176,227	-63,638	-0,053	-0,016
-175,212	167,501	0,044	0,045
-174,198	73,616	-0,177	0,134
-173,183	78,784	-0,055	-0,042
-172,169	800,000	0,044	-0,127
-171,154	380,237	0,072	-0,107
-170,139	-139,805	-0,049	-0,004
-169,125	52,934	-0,113	0,078
-168,110	-128,450	0,142	0,014
-167,096	759,502	-0,072	-0,141
-166,081	196,395	0,029	-0,032
-165,066	18,049	-0,155	-0,089
-164,052	327,778	-0,016	-0,023
-163,037	-200,000	0,015	0,070
-162,023	235,266	0,052	-0,062
-161,008	115,691	-0,073	0,065
-159,993	-200,000	0,021	0,084
-158,979	-200,000	0,001	-0,011
-157,964	661,728	-0,048	-0,090
-156,950	334,080	-0,077	-0,108
-155,935	-18,075	0,117	-0,053
-154,920	-200,000	-0,000	-0,046
-153,906	-200,000	0,015	0,054
-152,891	-200,000	0,001	-0,069
-151,877	-200,000	0,020	0,070
-150,862	154,395	-0,069	-0,068
-149,847	-112,148	-0,216	0,031
-148,833	800,000	-0,007	-0,022
-147,818	50,996	0,105	0,071
-146,804	-112,136	0,086	-0,012
-145,789	-24,429	-0,166	0,071
-144,775	-37,840	-0,057	0,022
-143,760	800,000	-0,019	0,039
-142,745	-86,824	0,085	0,019
-141,731	-49,496	0,099	0,034
-140,716	-200,000	0,006	0,026
-139,702	800,000	0,028	-0,073
-138,687	-103,770	-0,030	-0,005
-137,672	-200,000	-0,036	0,124
-136,658	632,831	-0,043	0,079
-135,643	-200,000	-0,000	-0,040
-134,629	-200,000	0,011	-0,095
-133,614	110,816	-0,004	0,004
-132,599	-12,104	-0,126	0,059
-131,585	-200,000	-0,002	-0,032
-130,570	-200,000	0,031	-0,114
-129,556	519,023	-0,074	0,126
-128,541	62,005	0,026	0,019
-127,526	501,956	-0,043	0,071
-126,512	-200,000	0,019	0,106
-125,497	81,408	0,122	0,095
-124,483	0,170	-0,056	0,029
-123,468	800,000	0,011	-0,032
-122,453	66,917	0,047	-0,034
-121,439	-200,000	-0,001	-0,084
-120,424	603,410	0,056	0,101
-119,410	66,454	-0,085	0,062
-118,395	189,436	0,103	0,111
-117,380	-69,645	0,060	0,017
-116,366	-200,000	0,030	0,106
-115,351	104,884	-0,110	-0,093
-114,337	67,390	0,107	-0,078
-113,322	800,000	-0,037	-0,097
-112,307	-200,000	-0,028	-0,126
-111,293	-200,000	0,005	0,068
-110,278	-200,000	-0,017	0,102
-109,264	-106,049	0,020	0,003
-108,249	58,573	0,020	0,014
-107,234	-82,595	-0,054	0,013
-106,220	23,138	0,034	0,020
-105,205	-200,000	-0,022	0,115
-104,191	368,083	0,043	-0,063
-103,176	-200,000	0,000	0,134
-102,162	-30,443	-0,046	-0,019
-101,147	366,242	-0,025	-0,037
-100,132	430,573	-0,019	0,030
-99,118	-200,000	-0,031	-0,161
-98,103	-72,365	-0,059	-0,016
-97,089	184,664	0,044	0,047
-96,074	134,347	0,021	-0,020
-95,059	800,000	-0,049	0,143
-94,045	-200,000	0,011	-0,134
-93,030	308,983	0,131	-0,176
-92,016	-160,718	-0,197	0,007
-91,001	57,885	0,144	-0,102
-89,986	-53,005	-0,065	-0,022
-88,972	265,013	-0,018	-0,022
-87,957	-200,000	-0,009	-0,065
-86,943	-200,000	0,040	0,140
-85,928	-11,682	-0,095	0,045
-84,913	-9,589	0,020	0,010
-83,899	-36,171	-0,031	-0,012
-82,884	212,725	0,020	-0,023
-81,870	175,424	0,052	0,054
-80,855	-75,958	-0,030	0,008
-79,840	800,000	-0,019	0,046
-78,826	127,369	0,019	0,018
-77,811	-200,000	-0,018	-0,093
-76,797	168,950	-0,075	-0,077
-75,782	61,581	-0,071	-0,051
-74,767	157,845	0,052	0,052
-73,753	46,141	-0,026	0,018
-72,738	51,002	-0,105	-0,072
-71,724	427,395	-0,071	-0,111
-70,709	-200,000	0,001	-0,090
-69,694	800,000	0,008	0,024
-68,680	362,336	0,028	0,040
-67,665	4,410	0,094	-0,050
-66,651	23,327	0,055	0,032
-65,636	35,877	-0,061	-0,038
-64,622	-200,000	0,005	-0,026
-63,607	-5,339	0,031	0,015
-62,592	-62,792	0,057	-0,017
-61,578	-63,901	-0,048	0,014
-60,563	-101,516	-0,076	0,013
-59,549	364,207	0,024	0,034
-58,534	82,080	-2,503	-1,949
-57,519	72,818	0,350	-0,262
-56,505	-200,000	-1,571	-5,446
-55,490	238,222	1,113	1,330
-54,476	800,000	5,319	11,777
-53,461	-200,000	21,346	335,567
-52,446	800,000	761,568	2298,919
-51,432	514,513	1658,684	2791,651
-50,417	105,681	1624,890	1379,964
-49,403	76,100	1278,170	970,833
-48,388	26,474	1024,673	614,200
-47,373	19,104	989,947	568,948
-46,359	13,883	977,338	544,495
-45,344	9,976	974,152	529,830
-44,330	10,470	972,101	530,321
-43,315	9,471	970,263	526,014
-42,300	9,346	969,089	524,948
-41,286	9,375	967,923	524,390
-40,271	9,349	967,020	523,792
-39,257	9,349	966,268	523,367
-38,242	9,319	965,428	522,791
-37,227	9,403	964,426	522,503
-36,213	9,270	963,868	521,745
-35,198	9,343	962,822	521,397
-34,184	9,453	961,945	521,259
-33,169	9,337	961,165	520,438
-32,154	9,398	960,115	520,048
-31,140	9,385	959,404	519,601
-30,125	9,386	958,615	519,156
-29,111	9,426	957,739	518,791
-28,096	9,406	957,182	518,404
-27,082	9,425	956,552	518,103
-26,067	9,379	955,810	517,532
-25,052	9,349	954,876	516,907
-24,038	9,344	954,321	516,570
-23,023	9,358	953,552	516,178
-22,009	9,413	953,065	516,073
-20,994	9,358	952,475	515,555
-19,979	9,423	951,736	515,345
-18,965	9,389	951,149	514,895
-17,950	9,377	950,595	514,538
-16,936	9,328	949,829	513,945
-15,921	9,274	949,280	513,454
-14,906	9,301	948,460	513,076
-13,892	9,281	947,930	512,705
-12,877	9,226	947,239	512,134
-11,863	9,220	946,639	511,772
-10,848	9,296	946,040	511,671
-9,833	9,393	945,452	511,641
-8,819	9,328	944,732	511,025
-7,804	9,248	944,301	510,514
-6,790	9,275	943,582	510,193
-5,775	9,265	943,108	509,886
-4,760	9,369	942,256	509,735
-3,746	9,261	941,727	509,083
-2,731	9,127	941,107	508,302
-1,717	9,073	940,589	507,831
-0,702	9,120	939,665	507,462
0,313	8,951	939,264	507,472
1,327	12,450	936,826	517,203
2,342	21,187	785,595	456,768
3,356	16,279	451,063	254,802
4,371	-10,699	313,217	148,175
5,386	-14,396	295,338	135,960
6,400	-16,471	289,190	131,057
7,415	-16,552	286,727	129,850
8,429	-17,091	285,245	128,640
9,444	-17,137	284,132	128,081
10,459	-17,173	283,687	127,834
11,473	-16,909	282,872	127,711
12,488	-17,000	282,535	127,460
13,502	-17,055	281,967	127,139
14,517	-16,824	281,740	127,249
15,531	-16,817	281,231	127,015
16,546	-16,608	280,823	127,020
17,561	-16,441	280,340	126,951
18,575	-16,582	280,119	126,704
19,590	-16,632	279,885	126,539
20,604	-16,529	279,455	126,432
21,619	-16,497	279,002	126,246
22,634	-16,566	278,914	126,129
23,648	-16,630	278,518	125,878
24,663	-16,585	278,138	125,738
25,677	-16,571	277,907	125,636
26,692	-16,522	277,601	125,533
27,707	-16,677	277,444	125,303
28,721	-16,683	277,233	125,191
29,736	-16,520	276,886	125,177
30,750	-16,528	276,664	125,058
31,765	-16,549	276,220	124,826
32,780	-16,390	276,001	124,867
33,794	-16,361	275,808	124,796
34,809	-16,625	275,716	124,494
35,823	-16,522	275,173	124,335
36,838	-16,453	275,041	124,329
37,853	-16,559	274,867	124,140
38,867	-16,670	274,637	123,921
39,882	-16,509	274,389	123,948
40,896	-16,454	274,133	123,874
41,911	-16,537	274,040	123,742
42,926	-16,594	273,631	123,493
43,940	-16,518	273,367	123,434
44,955	-16,568	273,119	123,265
45,969	-16,475	272,911	123,247
46,984	-16,425	272,782	123,224
47,999	-16,532	272,720	123,086
49,013	-16,355	272,361	123,077
50,028	-16,374	271,979	122,876
51,042	-16,476	272,078	122,815
52,057	-16,504	271,626	122,574
53,071	-16,332	271,429	122,634
54,086	-16,447	271,189	122,408
55,101	-16,367	270,896	122,338
56,115	-16,474	270,821	122,195
57,130	-16,515	270,409	121,960
58,144	-16,610	270,166	121,752
59,159	-16,594	269,844	121,610
60,174	-16,609	269,613	121,482
61,188	-16,666	269,649	121,435
62,203	-16,599	269,444	121,393
63,217	-16,367	269,086	121,434
64,232	-16,545	268,731	121,100
65,247	-16,597	268,492	120,934
66,261	-16,723	268,453	120,790
67,276	-16,369	268,203	120,991
68,290	-16,414	267,864	120,786
69,305	-16,701	267,866	120,514
70,320	-16,672	267,630	120,423
71,334	-16,444	267,327	120,484
72,349	-16,594	267,019	120,197
73,363	-16,703	266,946	120,055
74,378	-16,578	266,539	119,975
75,393	-16,629	266,329	119,823
76,407	-16,397	266,268	119,996
77,422	-16,486	265,959	119,765
78,436	-16,510	265,553	119,550
79,451	-16,753	265,499	119,295
80,466	-16,370	265,052	119,430
81,480	-16,382	265,052	119,408
82,495	-16,446	264,813	119,232
83,509	-16,424	264,657	119,171
84,524	-16,443	264,424	119,038
85,539	-16,301	264,134	119,025
86,553	-16,443	264,188	118,911
87,568	-16,500	263,783	118,667
88,582	-16,491	263,623	118,593
89,597	-16,596	263,448	118,409
90,611	-16,656	263,237	118,250
91,626	-16,526	262,922	118,214
92,641	-16,563	262,715	118,077
93,655	-16,536	262,571	118,026
94,670	-16,263	262,222	118,103
95,684	-16,622	262,284	117,799
96,699	-16,487	261,938	117,754
97,714	-16,454	261,652	117,644
98,728	-16,631	261,610	117,457
99,743	-16,217	261,395	117,718
100,757	-16,558	261,325	117,373
101,772	-16,410	260,885	117,297
102,787	-16,405	260,590	117,158
103,801	-16,621	260,485	116,909
104,816	-16,523	260,128	116,825
105,830	-16,481	260,011	116,799
106,845	-16,605	259,973	116,662
107,860	-16,448	259,432	116,548
108,874	-16,503	259,467	116,505
109,889	-16,499	259,171	116,364
110,903	-16,481	259,121	116,347
111,918	-16,572	258,845	116,133
112,933	-16,535	258,746	116,110
113,947	-16,465	258,510	116,056
114,962	-16,567	258,351	115,885
115,976	-16,389	257,961	115,856
116,991	-16,469	257,820	115,712
118,006	-16,559	257,631	115,538
119,020	-16,542	257,646	115,549
120,035	-16,642	257,356	115,321
121,049	-16,651	257,183	115,225
122,064	-16,494	256,886	115,220
123,079	-16,600	256,633	115,003
124,093	-16,608	256,746	115,037
125,108	-16,501	256,405	114,966
126,122	-16,492	256,204	114,874
127,137	-16,244	255,953	114,967
128,151	-16,265	255,785	114,863
129,166	-16,378	255,648	114,693
130,181	-16,455	255,386	114,498
131,195	-16,566	255,225	114,320
132,210	-16,396	254,906	114,314
133,224	-16,414	254,555	114,131
134,239	-16,590	254,648	114,010
135,254	-16,519	254,202	113,862
136,268	-16,390	254,052	113,895
137,283	-16,463	253,951	113,777
138,297	-16,413	253,784	113,735
139,312	-16,430	253,444	113,558
140,327	-16,410	253,399	113,545
141,341	-16,376	253,040	113,404
142,356	-16,670	252,821	113,043
143,370	-16,469	252,667	113,136
144,385	-16,650	252,616	112,948
145,400	-16,569	252,424	112,921
146,414	-16,455	252,070	112,850
147,429	-16,559	251,891	112,672
148,443	-16,553	251,774	112,615
149,458	-16,433	251,577	112,618
150,473	-16,487	251,453	112,507
151,487	-16,624	251,098	112,222
152,502	-16,418	251,158	112,413
153,516	-16,181	250,691	112,396
154,531	-16,343	250,587	112,202
155,546	-16,537	250,524	111,999
156,560	-16,546	250,306	111,884
157,575	-16,602	250,071	111,722
158,589	-16,686	249,983	111,601
159,604	-16,514	249,601	111,566
160,619	-16,461	249,547	111,576
161,633	-16,409	249,372	111,533
162,648	-16,460	249,198	111,402
163,662	-16,484	249,075	111,316
164,677	-16,523	249,024	111,251
165,692	-16,454	248,700	111,154
166,706	-16,419	248,595	111,127
167,721	-16,507	248,293	110,908
168,735	-16,561	248,209	110,815
169,750	-16,473	248,020	110,795
170,764	-16,482	247,890	110,719
171,779	-16,603	247,741	110,542
172,794	-16,368	247,599	110,665
173,808	-16,319	247,324	110,573
174,823	-16,398	247,317	110,494
175,837	-16,225	247,016	110,494
176,852	-16,506	246,842	110,171
177,867	-16,564	246,610	110,010
178,881	-16,522	246,457	109,967
179,896	-16,284	246,250	110,063
180,910	-16,420	246,030	109,842
181,925	-16,559	245,956	109,683
182,940	-16,527	245,720	109,595
183,954	-16,516	245,502	109,498
184,969	-16,354	245,528	109,633
185,983	-16,470	245,350	109,448
186,998	-16,332	245,106	109,443
188,013	-16,298	244,888	109,365
189,027	-16,461	244,715	109,143
190,042	-16,549	244,399	108,919
191,056	-16,465	244,272	108,923
192,071	-16,543	244,153	108,796
193,086	-16,521	243,898	108,690
194,100	-16,387	243,834	108,763
195,115	-16,427	243,664	108,644
196,129	-16,611	243,465	108,394
197,144	-16,594	243,240	108,299
198,159	-16,577	242,994	108,193
199,173	-16,576	242,805	108,100
200,188	-16,648	242,572	107,928
201,202	-16,660	242,447	107,853
202,217	-16,274	242,387	108,133
203,232	-16,546	242,202	107,817
204,246	-16,806	241,886	107,456
205,261	-17,039	241,544	107,103
206,275	-16,006	241,885	108,089
207,290	-11,265	243,615	112,745
208,304	-4,434	245,763	119,376
209,319	-1,222	246,657	122,458
210,334	-0,024	246,681	123,449
211,348	0,930	246,897	124,334
212,363	1,426	246,999	124,784
213,377	1,644	247,107	125,008
214,392	2,039	247,066	125,302
215,407	2,105	246,964	125,294
216,421	2,134	246,846	125,247
217,436	2,445	246,584	125,359
218,450	2,203	246,346	125,027
219,465	2,245	246,172	124,963
220,480	2,289	245,965	124,882
221,494	1,902	245,789	124,464
222,509	1,484	245,615	124,022
223,523	1,422	245,280	123,791
224,538	1,442	245,060	123,685
225,553	1,142	244,849	123,323
226,567	1,226	244,692	123,301
227,582	1,124	244,603	123,161
228,596	1,288	244,498	123,232
229,611	1,200	244,245	123,021
230,626	1,154	244,013	122,856
231,640	1,138	243,894	122,772
232,655	1,092	243,654	122,603
233,669	1,087	243,627	122,574
234,684	1,016	243,440	122,412
235,699	0,994	243,439	122,382
236,713	1,229	243,147	122,415
237,728	1,107	242,993	122,228
238,742	1,284	242,688	122,206
239,757	1,039	242,642	121,975
240,772	1,204	242,428	121,989
241,786	1,322	242,234	121,976
242,801	1,028	242,132	121,677
243,815	1,137	242,012	121,694
244,830	0,980	241,801	121,450
245,844	1,221	241,705	121,585
246,859	1,111	241,330	121,297
247,874	1,109	241,411	121,325
248,888	1,104	241,205	121,207
249,903	1,328	241,048	121,297
250,917	1,203	241,142	121,234
251,932	1,396	240,767	121,189
252,947	1,311	240,559	121,005
253,961	1,193	240,362	120,801
254,976	1,285	240,339	120,853
255,990	1,233	240,194	120,727
257,005	1,336	239,912	120,657
258,020	1,292	239,927	120,618
259,034	1,220	239,648	120,410
260,049	1,128	239,438	120,220
261,063	1,122	239,275	120,123
262,078	1,206	239,144	120,113
263,093	0,984	239,124	119,916
264,107	1,287	238,855	120,011
265,122	1,328	238,679	119,945
266,136	1,306	238,579	119,866
267,151	1,255	238,382	119,716
268,166	1,150	238,170	119,515
269,180	0,979	238,132	119,350
270,195	1,258	238,003	119,496
271,209	1,226	237,875	119,396
272,224	1,168	237,828	119,315
273,239	1,069	237,491	119,058
274,253	1,136	237,298	119,003
275,268	1,130	237,237	118,958
276,282	1,258	237,030	118,944
277,297	1,072	236,788	118,666
278,312	1,170	236,612	118,644
279,326	1,224	236,700	118,720
280,341	1,024	236,538	118,471
281,355	1,306	236,279	118,552
282,370	1,172	236,094	118,343
283,384	1,041	236,058	118,212
284,399	1,164	235,870	118,203
285,414	0,897	235,718	117,907
286,428	1,299	235,523	118,114
287,443	1,106	235,355	117,868
288,457	1,212	235,321	117,924
289,472	1,040	235,054	117,645
290,487	1,102	234,970	117,641
291,501	1,111	234,673	117,489
292,516	1,099	234,643	117,454
293,530	1,097	234,477	117,359
294,545	1,253	234,528	117,496
295,560	1,361	234,173	117,391
296,574	1,241	233,989	117,195
297,589	1,175	233,914	117,096
298,603	1,428	233,743	117,196
299,618	1,308	233,640	117,041
300,633	1,046	233,589	116,802
301,647	1,343	233,348	116,901
302,662	1,554	233,230	116,995
303,676	1,521	233,049	116,868
304,691	1,426	232,949	116,734
305,706	1,506	232,723	116,672
306,720	1,335	232,502	116,419
307,735	1,474	232,454	116,492
308,749	1,311	232,370	116,313
309,764	1,293	232,183	116,196
310,779	1,301	232,006	116,103
311,793	1,225	231,854	115,958
312,808	1,488	231,581	116,014
313,822	1,475	231,356	115,880
314,837	1,342	231,404	115,792
315,852	1,433	231,167	115,733
316,866	1,660	230,960	115,792
317,881	1,618	230,910	115,725
318,895	1,458	230,911	115,593
319,910	1,436	230,568	115,394
320,925	1,383	230,411	115,265
321,939	1,445	230,377	115,284
322,954	1,395	230,192	115,144
323,968	1,254	230,154	115,007
324,983	1,575	229,791	115,060
325,997	1,583	229,633	114,976
327,012	1,445	229,739	114,915
328,027	1,399	229,342	114,671
329,041	1,474	229,262	114,677
330,056	1,373	229,141	114,530
331,070	1,482	229,122	114,593
332,085	1,581	228,741	114,467
333,100	1,460	228,705	114,347
334,114	1,556	228,546	114,329
335,129	1,330	228,290	114,021
336,143	1,507	228,154	114,076
337,158	1,424	228,111	113,982
338,173	1,475	228,123	114,016
339,187	1,521	227,866	113,913
340,202	1,475	227,772	113,821
341,216	1,486	227,535	113,700
342,231	1,540	227,365	113,646
343,246	1,569	227,275	113,612
344,260	1,325	227,161	113,362
345,275	1,667	226,922	113,490
346,289	1,598	226,861	113,397
347,304	1,695	226,632	113,345
348,319	1,476	226,512	113,112
349,333	1,462	226,362	113,015
350,348	1,321	226,251	112,845
351,362	1,452	226,147	112,881
352,377	1,459	225,981	112,793
353,392	1,449	225,744	112,657
354,406	1,324	225,665	112,514
355,421	192,642	1313,504	1382,171
356,435	154,330	1445,923	1382,048
