DTS Sentinel unit serial number:	SN410029Multiplexer serial number:	ORYXHardware model number:	OX2-SRSoftware version number:	ORYX F/W v4,00 Oryx Data Collector v3.7.2.0data status	okinstallation	B5 Nyhavnadifferential loss correction	single-endedforward channel	channel 2reverse channel	N/Adate	2023/12/13time	08:17:13forward acquisition time	300,00reverse acquisition time	0,00gamma	499,1914k internal	0,3160k external	0,3160temperature offset calibration	1,0000default loss term (dB/km)	0,3820temperature slope calibration	1,0000multiplexer offset coefficient	1,0000multiplexer slope coefficient	1,0000fibre end	0,00T internal ref (°C)	13,62T ext. ref 1 (°C)	-2,76T ext. ref 2 (°C)	-3,07length (m)	temperature (°C)	Stokes	anti-Stokes-744,400	-200,000	0,006	0,076
-743,385	-85,656	-0,214	0,048
-742,371	30,293	0,269	0,169
-741,356	-102,744	-0,292	-0,051
-740,342	-154,555	0,070	-0,003
-739,327	-92,287	-0,336	0,069
-738,312	-200,000	0,156	0,000
-737,298	-159,944	-0,355	-0,014
-736,283	-103,716	0,065	0,011
-735,269	-39,780	-0,241	0,092
-734,254	-190,160	0,171	0,001
-733,239	-51,298	-0,525	-0,180
-732,225	21,522	0,143	0,086
-731,210	719,983	-0,033	0,066
-730,196	100,648	0,039	-0,034
-729,181	-200,000	0,004	-0,061
-728,167	-200,000	-0,023	0,082
-727,152	-200,000	0,002	0,042
-726,137	-200,000	-0,005	-0,143
-725,123	203,727	-0,079	-0,091
-724,108	324,681	-0,019	0,026
-723,094	-47,832	-0,025	0,009
-722,079	487,348	-0,117	-0,197
-721,064	18,872	0,045	-0,027
-720,050	-200,000	0,044	0,164
-719,035	-200,000	-0,021	-0,088
-718,021	-200,000	-0,012	-0,047
-717,006	316,935	-0,089	-0,124
-715,991	-192,389	-0,168	-0,001
-714,977	531,434	-0,051	-0,089
-713,962	-63,310	-0,037	0,011
-712,948	196,570	0,063	-0,071
-711,933	-102,730	-0,147	0,025
-710,918	-161,549	-0,067	0,002
-709,904	80,538	0,079	-0,063
-708,889	-167,170	-0,078	0,002
-707,875	444,190	-0,002	-0,003
-706,860	-200,000	-0,008	0,047
-705,845	-200,000	0,013	0,116
-704,831	114,416	-0,069	0,061
-703,816	85,435	-0,128	-0,103
-702,802	800,000	0,031	-0,093
-701,787	-96,645	-0,158	-0,030
-700,772	800,000	0,028	-0,075
-699,758	-168,664	-0,116	-0,003
-698,743	-82,149	-0,086	-0,020
-697,729	113,346	0,068	-0,061
-696,714	-165,992	0,014	-0,000
-695,699	-200,000	-0,001	-0,059
-694,685	800,000	0,032	-0,101
-693,670	149,823	0,038	-0,037
-692,656	-200,000	-0,020	0,096
-691,641	-176,745	-0,074	0,001
-690,627	-66,129	0,108	0,032
-689,612	83,828	0,019	0,016
-688,597	-62,589	-0,061	-0,019
-687,583	-49,468	-0,130	-0,045
-686,568	800,000	0,003	0,006
-685,554	800,000	0,043	0,121
-684,539	-165,214	-0,081	-0,003
-683,524	-200,000	-0,007	-0,069
-682,510	283,726	-0,041	0,055
-681,495	121,833	-0,089	-0,081
-680,481	278,257	0,047	-0,062
-679,466	-200,000	-0,010	-0,098
-678,451	-200,000	-0,003	0,184
-677,437	614,473	0,015	0,028
-676,422	-8,882	-0,030	-0,015
-675,408	-4,068	-0,073	-0,037
-674,393	-200,000	-0,013	0,117
-673,378	132,839	-0,081	-0,076
-672,364	800,000	-0,027	-0,059
-671,349	419,729	0,011	0,017
-670,335	-200,000	0,002	-0,027
-669,320	800,000	0,028	-0,079
-668,305	311,089	-0,019	-0,026
-667,291	6,665	-0,116	0,063
-666,276	253,745	0,084	-0,105
-665,262	-200,000	-0,003	-0,139
-664,247	-200,000	-0,025	-0,105
-663,232	362,965	0,047	0,069
-662,218	-75,640	0,087	-0,023
-661,203	446,703	-0,093	0,150
-660,189	-200,000	0,006	-0,069
-659,174	37,957	-0,015	-0,010
-658,159	22,872	-0,157	-0,094
-657,145	-94,627	0,125	-0,025
-656,130	-60,051	0,080	0,025
-655,116	8,132	-0,100	-0,055
-654,101	-200,000	0,005	0,098
-653,086	215,139	-0,052	-0,061
-652,072	-200,000	-0,001	-0,072
-651,057	185,501	-0,049	-0,054
-650,043	800,000	0,029	-0,072
-649,028	67,518	-0,050	-0,037
-648,014	222,666	-0,060	0,071
-646,999	95,724	0,092	0,077
-645,984	41,134	-0,101	0,067
-644,970	105,119	-0,036	0,031
-643,955	-72,020	-0,119	-0,032
-642,941	-44,251	0,113	0,041
-641,926	-200,000	0,019	-0,187
-640,911	87,349	-0,047	-0,038
-639,897	30,665	0,116	-0,072
-638,882	-78,413	0,040	-0,010
-637,868	-200,000	-0,004	0,114
-636,853	-200,000	0,007	0,029
-635,838	133,643	-0,052	0,049
-634,824	-30,527	0,057	-0,023
-633,809	-200,000	-0,013	0,049
-632,795	52,618	0,033	-0,023
-631,780	-200,000	-0,007	-0,029
-630,765	-39,064	-0,049	0,019
-629,751	220,222	-0,030	-0,035
-628,736	-200,000	-0,026	-0,116
-627,722	17,332	-0,016	0,009
-626,707	-38,416	0,032	0,012
-625,692	38,960	0,057	-0,037
-624,678	346,329	-0,058	0,085
-623,663	800,000	0,011	0,033
-622,649	-200,000	-0,004	0,070
-621,634	-93,435	-0,093	-0,019
-620,619	-56,622	-0,115	-0,037
-619,605	-40,720	0,082	-0,031
-618,590	204,775	-0,027	0,031
-617,576	-200,000	0,023	0,125
-616,561	748,168	-0,104	-0,207
-615,546	-35,182	0,031	-0,012
-614,532	-68,554	-0,110	-0,031
-613,517	149,013	-0,071	-0,070
-612,503	212,986	0,147	0,170
-611,488	-97,300	0,066	0,013
-610,474	-125,836	-0,044	-0,005
-609,459	549,906	0,013	0,023
-608,444	800,000	-0,055	-0,148
-607,430	444,771	0,041	0,066
-606,415	800,000	-0,006	-0,016
-605,401	-82,459	-0,048	0,011
-604,386	576,840	-0,069	-0,124
-603,371	195,862	-0,076	-0,085
-602,357	-200,000	0,025	-0,146
-601,342	-0,928	-0,047	-0,024
-600,328	-90,670	-0,060	-0,013
-599,313	157,061	-0,101	-0,102
-598,298	24,397	0,061	0,037
-597,284	11,989	0,103	0,058
-596,269	541,623	0,031	0,054
-595,255	18,809	-0,079	0,046
-594,240	-200,000	0,017	0,084
-593,225	-200,000	-0,027	-0,147
-592,211	757,180	-0,041	-0,081
-591,196	-55,127	-0,044	0,014
-590,182	-129,011	0,124	-0,013
-589,167	363,181	0,044	-0,064
-588,152	414,164	0,086	-0,134
-587,138	186,096	-0,098	0,107
-586,123	-200,000	-0,030	-0,150
-585,109	800,000	-0,043	-0,122
-584,094	25,760	-0,060	0,036
-583,079	256,890	0,020	0,025
-582,065	800,000	0,030	0,081
-581,050	-200,000	0,005	0,028
-580,036	356,700	0,013	0,019
-579,021	-117,858	-0,070	0,009
-578,006	495,635	0,074	-0,125
-576,992	-2,587	-0,030	0,015
-575,977	318,745	-0,032	0,045
-574,963	555,012	0,025	0,044
-573,948	275,693	0,082	0,106
-572,934	-63,230	0,064	-0,019
-571,919	-34,529	0,126	-0,050
-570,904	130,093	0,034	-0,032
-569,890	-200,000	0,002	0,007
-568,875	66,919	0,075	0,056
-567,861	-135,832	0,142	-0,012
-566,846	-200,000	-0,003	0,035
-565,831	-200,000	-0,017	-0,138
-564,817	24,873	-0,097	0,058
-563,802	97,198	-0,157	-0,131
-562,788	-78,322	-0,041	-0,010
-561,773	-55,816	0,072	-0,023
-560,758	182,743	0,055	0,060
-559,744	800,000	0,041	0,088
-558,729	-200,000	-0,001	-0,117
-557,715	90,538	-0,027	0,022
-556,700	-200,000	0,018	-0,271
-555,685	800,000	0,033	-0,072
-554,671	237,474	0,106	-0,128
-553,656	-54,755	0,026	0,009
-552,642	-200,000	-0,008	0,090
-551,627	39,151	0,055	0,036
-550,612	-52,388	-0,156	-0,053
-549,598	-29,645	-0,226	-0,094
-548,583	-119,003	0,143	0,018
-547,569	56,467	0,095	-0,068
-546,554	-79,199	0,077	-0,019
-545,539	-49,129	-0,085	0,030
-544,525	118,097	-0,047	0,042
-543,510	-141,639	-0,130	0,009
-542,496	-122,084	0,115	-0,014
-541,481	422,136	-0,068	-0,107
-540,466	800,000	-0,012	-0,033
-539,452	692,535	-0,017	-0,033
-538,437	-24,744	0,102	0,044
-537,423	-200,000	0,001	0,031
-536,408	194,800	-0,012	-0,013
-535,393	80,086	-0,066	0,052
-534,379	-176,783	-0,077	-0,001
-533,364	-200,000	0,033	0,211
-532,350	-52,530	0,048	0,016
-531,335	74,155	0,064	-0,049
-530,321	-200,000	0,005	-0,030
-529,306	800,000	-0,019	0,056
-528,291	376,823	0,010	-0,016
-527,277	203,923	-0,131	-0,149
-526,262	222,314	-0,048	-0,057
-525,248	-117,573	0,147	0,019
-524,233	-79,332	-0,102	0,025
-523,218	800,000	-0,008	0,019
-522,204	328,942	-0,041	0,057
-521,189	87,950	-0,030	0,024
-520,175	-34,348	0,043	0,017
-519,160	30,746	0,023	0,015
-518,145	229,400	0,094	0,112
-517,131	-87,653	0,055	0,012
-516,116	-198,842	0,084	0,000
-515,102	-72,980	-0,104	-0,028
-514,087	173,431	0,056	-0,059
-513,072	800,000	0,030	-0,070
-512,058	-142,228	-0,155	0,011
-511,043	641,218	-0,036	0,067
-510,029	200,473	0,061	0,069
-509,014	474,557	0,052	-0,086
-507,999	-200,000	-0,003	-0,065
-506,985	222,284	-0,067	-0,079
-505,970	424,798	-0,095	-0,150
-504,956	-75,734	-0,072	-0,019
-503,941	239,672	0,064	-0,077
-502,926	-12,373	-0,093	0,044
-501,912	51,318	-0,117	0,081
-500,897	-200,000	-0,000	0,073
-499,883	19,280	-0,080	-0,047
-498,868	-178,932	-0,131	0,002
-497,853	261,672	-0,045	-0,057
-496,839	-47,826	-0,112	-0,039
-495,824	37,068	-0,121	0,078
-494,810	800,000	-0,046	-0,138
-493,795	518,553	0,023	0,039
-492,781	-118,471	0,083	-0,011
-491,766	-200,000	0,007	0,070
-490,751	111,678	-0,050	0,044
-489,737	-77,632	-0,066	-0,017
-488,722	-34,653	0,074	0,029
-487,708	-200,000	0,023	0,107
-486,693	357,661	0,096	0,140
-485,678	295,126	-0,089	-0,120
-484,664	165,567	-0,073	-0,075
-483,649	328,699	0,029	-0,041
-482,635	583,674	-0,042	0,076
-481,620	-94,172	0,092	0,018
-480,605	-200,000	-0,009	0,063
-479,591	91,191	0,113	0,093
-478,576	298,202	-0,089	0,119
-477,562	683,287	-0,045	-0,086
-476,547	-200,000	-0,024	0,139
-475,532	614,467	0,059	0,109
-474,518	112,325	0,037	0,033
-473,503	749,487	0,039	0,076
-472,489	800,000	-0,034	0,074
-471,474	75,328	-0,064	-0,049
-470,459	800,000	-0,035	0,086
-469,445	800,000	0,018	-0,045
-468,430	800,000	0,023	0,061
-467,416	-200,000	0,003	-0,040
-466,401	-128,448	-0,087	-0,009
-465,386	-200,000	-0,007	0,024
-464,372	-103,814	-0,092	0,016
-463,357	-200,000	0,004	-0,042
-462,343	-200,000	0,015	-0,163
-461,328	437,263	-0,033	0,052
-460,313	-63,468	-0,105	-0,031
-459,299	-150,062	0,050	-0,003
-458,284	231,043	-0,020	0,024
-457,270	246,972	-0,008	0,010
-456,255	378,832	0,010	0,015
-455,241	11,157	0,095	-0,053
-454,226	34,456	-0,050	-0,032
-453,211	-89,650	0,062	-0,013
-452,197	-200,000	-0,007	-0,082
-451,182	25,705	0,114	0,069
-450,168	445,833	0,038	-0,060
-449,153	-200,000	-0,061	-0,000
-448,138	-166,611	-0,129	0,004
-447,124	-42,632	-0,141	-0,052
-446,109	315,460	0,049	0,068
-445,095	800,000	0,059	0,138
-444,080	123,788	-0,054	0,050
-443,065	-200,000	0,013	0,062
-442,051	-63,338	-0,116	-0,034
-441,036	-125,686	-0,116	-0,013
-440,022	-84,626	0,043	-0,010
-439,007	296,818	-0,042	0,056
-437,992	-1,718	0,058	0,030
-436,978	-38,009	-0,099	-0,038
-435,963	800,000	0,030	0,079
-434,949	-200,000	0,004	-0,061
-433,934	800,000	0,026	-0,079
-432,919	800,000	0,062	0,139
-431,905	-8,098	0,106	0,052
-430,890	32,082	-0,029	0,018
-429,876	-200,000	0,013	-0,078
-428,861	106,281	0,143	-0,124
-427,846	-12,953	0,100	-0,047
-426,832	267,752	-0,065	-0,083
-425,817	-200,000	-0,031	-0,104
-424,803	-200,000	0,010	0,104
-423,788	-5,334	0,043	-0,021
-422,773	-200,000	-0,000	0,038
-421,759	92,975	0,094	0,077
-420,744	-14,047	-0,119	0,056
-419,730	181,142	0,071	-0,076
-418,715	22,365	-0,093	-0,055
-417,701	-152,888	0,129	0,007
-416,686	4,899	0,071	-0,038
-415,671	-200,000	0,023	0,128
-414,657	153,481	0,029	-0,029
-413,642	74,492	-0,047	0,036
-412,628	166,379	-0,051	0,053
-411,613	800,000	0,028	-0,067
-410,598	31,791	-0,075	0,047
-409,584	-200,000	-0,022	0,080
-408,569	800,000	-0,024	-0,069
-407,555	-200,000	-0,013	-0,055
-406,540	-200,000	-0,022	0,098
-405,525	-200,000	0,028	0,118
-404,511	196,014	-0,096	-0,106
-403,496	-23,780	-0,066	0,029
-402,482	-19,547	-0,046	-0,021
-401,467	31,384	0,131	0,082
-400,452	10,447	0,100	-0,055
-399,438	-186,610	0,103	0,001
-398,423	-200,000	0,004	-0,126
-397,409	-20,409	-0,072	-0,032
-396,394	800,000	-0,032	-0,066
-395,379	535,077	0,065	-0,113
-394,365	-69,909	-0,047	0,013
-393,350	50,056	0,099	0,068
-392,336	39,336	0,026	0,017
-391,321	-200,000	0,019	-0,155
-390,306	345,464	0,057	0,082
-389,292	19,910	-0,114	-0,067
-388,277	-114,000	0,132	-0,018
-387,263	0,704	-0,048	0,025
-386,248	-78,968	0,149	0,037
-385,233	-5,023	0,185	0,092
-384,219	-200,000	-0,016	0,118
-383,204	21,541	-0,177	-0,105
-382,190	-48,202	-0,091	-0,032
-381,175	90,736	0,035	0,028
-380,160	688,524	-0,042	0,079
-379,146	305,184	0,046	-0,063
-378,131	179,165	-0,061	0,065
-377,117	-107,902	-0,037	-0,006
-376,102	269,566	-0,094	0,121
-375,088	-200,000	0,021	0,101
-374,073	-200,000	-0,022	0,078
-373,058	800,000	0,015	0,039
-372,044	226,052	-0,006	0,007
-371,029	-200,000	0,018	0,126
-370,015	340,601	0,064	0,090
-369,000	-174,959	-0,051	-0,001
-367,985	-200,000	0,000	-0,020
-366,971	142,115	0,029	-0,028
-365,956	128,010	-0,048	0,044
-364,942	-200,000	-0,000	0,110
-363,927	160,558	-0,038	-0,038
-362,912	134,434	0,088	0,083
-361,898	102,341	0,055	-0,047
-360,883	249,235	0,080	-0,099
-359,869	-39,446	-0,096	-0,036
-358,854	66,282	-0,072	-0,053
-357,839	190,988	0,099	0,108
-356,825	-9,279	-0,022	-0,011
-355,810	-18,766	-0,062	-0,028
-354,796	133,132	-0,037	-0,035
-353,781	-200,000	-0,004	0,020
-352,766	-141,494	0,116	0,008
-351,752	-200,000	0,031	-0,158
-350,737	-22,135	0,019	-0,008
-349,723	-200,000	0,041	0,159
-348,708	800,000	-0,033	-0,074
-347,693	184,408	-0,091	-0,098
-346,679	317,075	-0,009	0,012
-345,664	-26,565	-0,082	-0,035
-344,650	561,965	0,049	0,086
-343,635	9,908	0,055	0,030
-342,620	3,071	-0,112	-0,059
-341,606	86,187	-0,096	-0,077
-340,591	-200,000	0,003	-0,076
-339,577	-6,086	0,115	-0,057
-338,562	575,211	-0,045	0,080
-337,548	418,930	0,015	0,023
-336,533	97,260	0,038	-0,032
-335,518	-121,707	0,098	-0,012
-334,504	-39,069	-0,104	0,039
-333,489	-147,047	0,104	-0,006
-332,475	800,000	0,047	-0,121
-331,460	432,188	0,042	-0,066
-330,445	439,523	0,053	-0,084
-329,431	122,350	0,025	-0,023
-328,416	-200,000	-0,041	0,136
-327,402	-16,844	0,078	0,036
-326,387	586,588	0,007	0,012
-325,372	-200,000	-0,008	-0,066
-324,358	-200,000	-0,009	-0,103
-323,343	-79,031	0,078	0,019
-322,329	-67,124	0,097	0,027
-321,314	515,134	-0,032	0,054
-320,299	-200,000	-0,019	0,085
-319,285	88,443	0,075	0,060
-318,270	-11,208	-0,093	0,044
-317,256	-20,928	0,172	-0,076
-316,241	-39,153	-0,022	-0,008
-315,226	-111,408	0,106	0,016
-314,212	66,208	0,045	0,033
-313,197	-200,000	-0,000	0,023
-312,183	20,675	0,105	-0,061
-311,168	302,507	-0,073	-0,098
-310,153	147,323	-0,068	-0,066
-309,139	99,604	0,052	0,044
-308,124	733,828	0,075	0,146
-307,110	252,108	0,080	0,098
-306,095	-106,765	-0,080	-0,013
-305,080	45,080	0,048	0,032
-304,066	-200,000	-0,012	-0,123
-303,051	-142,483	-0,039	0,003
-302,037	-200,000	-0,017	0,124
-301,022	-73,104	-0,053	-0,014
-300,008	800,000	0,029	-0,062
-298,993	69,956	0,048	-0,036
-297,978	99,491	-0,061	0,051
-296,964	800,000	0,057	0,127
-295,949	25,533	-0,067	-0,041
-294,935	800,000	0,048	-0,101
-293,920	-121,769	0,025	0,003
-292,905	471,422	0,099	0,161
-291,891	-200,000	0,015	-0,107
-290,876	-200,000	-0,003	0,052
-289,862	-200,000	-0,018	0,145
-288,847	-89,238	-0,181	0,038
-287,832	-17,494	-0,020	0,009
-286,818	59,120	-0,067	-0,048
-285,803	-55,055	0,092	-0,030
-284,789	239,813	0,051	-0,062
-283,774	-140,081	-0,071	-0,005
-282,759	-98,085	-0,105	0,019
-281,745	172,802	-0,022	-0,023
-280,730	245,105	0,066	-0,080
-279,716	800,000	-0,015	-0,042
-278,701	-200,000	0,021	0,071
-277,686	387,157	0,026	-0,039
-276,672	-200,000	0,011	-0,067
-275,657	-63,948	0,045	-0,013
-274,643	510,453	0,078	-0,131
-273,628	-128,650	-0,070	0,007
-272,613	154,049	-0,121	-0,120
-271,599	-200,000	0,002	0,130
-270,584	-117,120	-0,112	-0,015
-269,570	-200,000	0,055	0,194
-268,555	157,111	0,022	0,022
-267,540	-200,000	-0,022	-0,118
-266,526	183,022	0,072	-0,077
-265,511	-200,000	0,039	-0,148
-264,497	175,651	-0,032	0,034
-263,482	786,596	0,081	0,162
-262,467	-200,000	-0,024	0,089
-261,453	-200,000	-0,001	0,163
-260,438	-85,672	-0,102	0,023
-259,424	-49,672	-0,167	0,057
-258,409	-200,000	-0,013	-0,059
-257,395	-77,890	0,040	-0,010
-256,380	-45,666	0,163	0,058
-255,365	-200,000	0,002	0,017
-254,351	800,000	-0,019	0,052
-253,336	-42,628	-0,014	0,005
-252,322	-89,544	0,105	-0,022
-251,307	-200,000	-0,023	0,073
-250,292	98,123	-0,119	0,099
-249,278	144,327	-0,097	0,093
-248,263	-200,000	0,002	0,065
-247,249	165,263	-0,103	-0,105
-246,234	506,690	-0,013	0,021
-245,219	800,000	-0,015	0,031
-244,205	-112,920	-0,240	0,034
-243,190	-181,714	0,116	0,002
-242,176	-125,125	0,148	0,016
-241,161	-172,980	0,062	0,001
-240,146	-91,049	-0,052	-0,011
-239,132	-127,850	-0,095	0,010
-238,117	800,000	0,030	-0,072
-237,103	-200,000	0,004	0,050
-236,088	-71,767	0,090	-0,024
-235,073	173,059	0,096	-0,100
-234,059	578,747	0,002	0,004
-233,044	-28,464	0,131	-0,054
-232,030	-182,688	0,135	-0,002
-231,015	-83,846	0,174	-0,040
-230,000	549,516	0,014	-0,024
-228,986	800,000	0,021	0,052
-227,971	-132,433	0,041	-0,004
-226,957	10,263	-0,082	0,045
-225,942	-200,000	-0,004	0,140
-224,927	-17,774	0,065	-0,029
-223,913	-168,653	-0,084	-0,002
-222,898	-137,221	-0,091	-0,007
-221,884	-54,741	-0,021	-0,007
-220,869	-200,000	0,003	0,032
-219,855	-168,888	0,090	0,002
-218,840	-67,750	-0,057	0,016
-217,825	-59,509	-0,094	0,029
-216,811	171,983	0,071	-0,074
-215,796	-149,346	-0,090	0,005
-214,782	800,000	-0,009	-0,025
-213,767	-200,000	0,005	0,023
-212,752	800,000	-0,045	0,140
-211,738	559,229	-0,024	0,042
-210,723	789,200	0,013	0,026
-209,709	-92,828	0,019	-0,004
-208,694	169,591	0,103	0,106
-207,679	322,349	-0,093	-0,128
-206,665	-152,331	0,138	-0,007
-205,650	-55,606	0,096	0,031
-204,636	425,208	0,016	0,025
-203,621	800,000	-0,043	0,097
-202,606	-200,000	0,026	-0,110
-201,592	-162,549	0,133	-0,005
-200,577	-200,000	0,019	-0,117
-199,563	800,000	-0,053	-0,135
-198,548	474,842	-0,044	0,071
-197,533	-200,000	0,012	0,073
-196,519	-139,660	-0,101	-0,008
-195,504	-8,371	0,090	-0,044
-194,490	-200,000	-0,021	0,098
-193,475	38,446	-0,055	-0,035
-192,460	-200,000	0,013	-0,115
-191,446	255,600	0,105	-0,130
-190,431	-58,298	0,098	0,031
-189,417	54,032	0,041	-0,028
-188,402	519,878	-0,038	0,064
-187,387	-200,000	-0,012	0,146
-186,373	-70,936	-0,070	-0,019
-185,358	337,370	-0,051	0,072
-184,344	-95,461	0,149	-0,029
-183,329	-200,000	-0,010	0,128
-182,315	800,000	0,042	0,109
-181,300	-113,782	0,156	-0,022
-180,285	200,638	-0,045	0,050
-179,271	-85,510	-0,131	0,029
-178,256	347,439	-0,088	0,126
-177,242	-53,120	-0,217	-0,071
-176,227	383,794	0,078	-0,116
-175,212	-200,000	0,005	0,097
-174,198	-200,000	-0,003	-0,024
-173,183	800,000	0,036	-0,086
-172,169	202,016	0,031	-0,034
-171,154	52,513	0,170	-0,117
-170,139	800,000	0,019	-0,044
-169,125	87,171	0,123	0,098
-168,110	38,924	-0,060	0,039
-167,096	-98,311	-0,154	0,028
-166,081	559,081	-0,068	0,119
-165,066	-118,664	-0,045	0,006
-164,052	594,321	-0,012	-0,021
-163,037	-6,019	0,093	-0,046
-162,023	578,285	-0,082	-0,146
-161,008	800,000	-0,045	-0,106
-159,993	97,703	0,112	-0,093
-158,979	82,772	0,021	-0,017
-157,964	2,693	-0,111	-0,058
-156,950	800,000	0,027	-0,079
-155,935	188,239	0,016	0,017
-154,920	7,831	-0,024	0,013
-153,906	-113,654	0,133	0,019
-152,891	-200,000	0,001	-0,042
-151,877	-65,008	0,076	0,022
-150,862	-68,296	-0,108	-0,030
-149,847	-200,000	-0,000	0,045
-148,833	-200,000	0,003	-0,138
-147,818	-146,375	0,192	-0,012
-146,804	-200,000	-0,001	0,111
-145,789	-125,927	-0,127	-0,014
-144,775	-200,000	-0,008	0,028
-143,760	180,819	-0,061	-0,064
-142,745	-200,000	0,017	-0,075
-141,731	120,692	-0,024	-0,021
-140,716	110,535	0,147	0,127
-139,702	-44,803	-0,108	0,039
-138,687	-76,334	0,041	0,010
-137,672	-180,994	-0,164	-0,002
-136,658	800,000	0,014	-0,038
-135,643	-50,134	-0,107	0,036
-134,629	-200,000	0,011	-0,040
-133,614	431,938	0,036	-0,056
-132,599	-122,566	0,114	-0,013
-131,585	191,932	0,101	0,110
-130,570	-53,683	-0,050	-0,016
-129,556	-92,457	0,128	-0,026
-128,541	800,000	-0,072	-0,204
-127,526	148,893	-0,117	-0,114
-126,512	-200,000	-0,005	0,069
-125,497	4,404	0,149	0,078
-124,483	4,921	0,026	0,014
-123,468	106,402	-0,023	0,019
-122,453	142,801	-0,059	0,057
-121,439	463,013	-0,059	0,094
-120,424	45,861	-0,108	0,071
-119,410	-156,243	-0,089	-0,004
-118,395	123,813	0,074	0,067
-117,380	-200,000	-0,010	0,065
-116,366	-68,645	-0,123	-0,034
-115,351	-0,393	0,058	0,030
-114,337	-97,490	0,116	-0,021
-113,322	41,469	-0,097	0,063
-112,307	-200,000	-0,009	0,056
-111,293	183,439	0,067	0,071
-110,278	503,491	0,027	-0,045
-109,264	-40,716	0,094	0,035
-108,249	66,482	-0,101	-0,074
-107,234	-200,000	0,002	-0,124
-106,220	-200,000	-0,004	-0,082
-105,205	-31,902	-0,023	-0,009
-104,191	-200,000	-0,019	0,096
-103,176	122,826	-0,042	0,038
-102,162	-200,000	0,003	0,010
-101,147	97,111	-0,118	-0,097
-100,132	-200,000	-0,017	-0,066
-99,118	-107,782	-0,108	-0,017
-98,103	45,829	0,091	0,060
-97,089	800,000	0,021	0,064
-96,074	400,556	-0,117	0,177
-95,059	214,229	0,052	0,059
-94,045	-200,000	-0,003	-0,042
-93,030	-200,000	-0,002	-0,114
-92,016	-200,000	0,021	-0,159
-91,001	-57,050	-0,047	0,015
-89,986	-141,505	0,148	0,011
-88,972	-200,000	0,007	0,050
-87,957	293,185	-0,049	0,065
-86,943	138,823	0,025	-0,023
-85,928	-83,407	-0,040	-0,009
-84,913	-2,580	-0,077	0,038
-83,899	-28,334	-0,116	0,048
-82,884	1,356	0,089	0,046
-81,870	-200,000	0,011	0,122
-80,855	544,673	0,040	-0,070
-79,840	-200,000	-0,018	0,147
-78,826	-120,022	-0,049	0,006
-77,811	-200,000	0,020	-0,126
-76,797	-200,000	-0,014	-0,100
-75,782	218,994	0,106	0,121
-74,767	-31,388	0,017	-0,007
-73,753	124,216	-0,153	0,138
-72,738	652,850	-0,033	-0,062
-71,724	162,854	-0,062	-0,062
-70,709	-109,609	-0,028	-0,004
-69,694	-200,000	0,014	-0,080
-68,680	-98,149	-0,072	-0,013
-67,665	-10,455	0,059	-0,028
-66,651	-38,936	0,035	-0,013
-65,636	-124,581	0,058	-0,006
-64,622	694,812	-0,033	-0,062
-63,607	-167,945	0,086	0,002
-62,592	110,448	0,066	-0,057
-61,578	-97,567	0,135	-0,025
-60,563	-88,693	0,196	0,041
-59,549	-200,000	0,009	0,188
-58,534	18,787	-2,177	-1,247
-57,519	-200,000	-0,098	-0,775
-56,505	-200,000	-1,341	-5,115
-55,490	82,477	0,830	0,646
-54,476	800,000	5,315	12,046
-53,461	-200,000	18,669	318,713
-52,446	800,000	741,931	2335,369
-51,432	557,679	1657,600	2877,941
-50,417	110,973	1641,280	1416,822
-49,403	75,290	1291,104	975,614
-48,388	30,243	1031,659	630,165
-47,373	19,912	994,300	573,096
-46,359	17,360	981,989	557,572
-45,344	13,991	978,363	544,404
-44,330	14,320	976,703	544,543
-43,315	13,686	974,714	541,328
-42,300	13,687	973,726	540,762
-41,286	13,660	972,845	540,165
-40,271	13,639	971,843	539,516
-39,257	13,679	970,981	539,148
-38,242	13,662	969,978	538,515
-37,227	13,628	969,186	537,941
-36,213	13,664	968,221	537,504
-35,198	13,619	967,365	536,858
-34,184	13,610	966,696	536,438
-33,169	13,618	965,687	535,881
-32,154	13,715	964,742	535,653
-31,140	13,718	963,681	535,052
-30,125	13,664	963,032	534,495
-29,111	13,623	962,381	533,979
-28,096	13,650	961,803	533,724
-27,082	13,706	960,943	533,407
-26,067	13,670	960,097	532,801
-25,052	13,687	959,325	532,406
-24,038	13,640	958,676	531,873
-23,023	13,655	957,998	531,523
-22,009	13,687	957,446	531,298
-20,994	13,667	956,911	530,919
-19,979	13,617	956,253	530,370
-18,965	13,668	955,710	530,213
-17,950	13,725	954,983	529,970
-16,936	13,631	954,407	529,326
-15,921	13,632	953,715	528,927
-14,906	13,607	952,829	528,334
-13,892	13,555	952,184	527,788
-12,877	13,501	951,825	527,397
-11,863	13,545	950,838	526,969
-10,848	13,479	950,591	526,600
-9,833	13,612	950,065	526,713
-8,819	13,563	949,361	526,146
-7,804	13,580	948,547	525,728
-6,790	13,549	948,080	525,349
-5,775	13,581	947,599	525,164
-4,760	13,589	946,869	524,763
-3,746	13,578	946,245	524,363
-2,731	13,408	945,580	523,431
-1,717	13,380	944,951	522,972
-0,702	13,327	944,246	522,394
0,313	13,207	943,413	522,340
1,327	16,526	941,255	531,613
2,342	25,590	795,748	473,512
3,356	21,856	460,130	268,048
4,371	-5,065	317,211	155,899
5,386	-8,814	298,924	143,070
6,400	-10,680	292,807	138,261
7,415	-11,087	290,275	136,649
8,429	-11,405	288,742	135,601
9,444	-11,510	287,892	135,086
10,459	-11,258	287,175	134,986
11,473	-11,277	286,508	134,642
12,488	-11,459	286,166	134,291
13,502	-11,245	285,499	134,175
14,517	-11,396	285,166	133,859
15,531	-11,405	284,670	133,605
16,546	-11,426	284,295	133,397
17,561	-11,422	283,864	133,187
18,575	-11,445	283,625	133,040
19,590	-11,379	283,127	132,859
20,604	-11,365	282,855	132,733
21,619	-11,501	282,599	132,469
22,634	-11,518	282,157	132,234
23,648	-11,676	282,024	132,008
24,663	-11,295	281,553	132,142
25,677	-11,492	281,445	131,890
26,692	-11,445	281,125	131,774
27,707	-11,430	280,841	131,643
28,721	-11,421	280,492	131,476
29,736	-11,398	280,182	131,342
30,750	-11,446	280,003	131,200
31,765	-11,429	279,808	131,113
32,780	-11,517	279,417	130,834
33,794	-11,408	279,286	130,866
34,809	-11,364	279,031	130,776
35,823	-11,463	278,674	130,503
36,838	-11,636	278,551	130,269
37,853	-11,751	278,375	130,066
38,867	-11,530	277,996	130,087
39,882	-11,461	277,554	129,934
40,896	-11,462	277,683	129,982
41,911	-11,531	277,210	129,683
42,926	-11,475	277,015	129,633
43,940	-11,491	276,705	129,462
44,955	-11,398	276,495	129,439
45,969	-11,523	276,304	129,221
46,984	-11,595	276,064	129,029
47,999	-11,958	275,704	128,508
49,013	-11,809	275,465	128,525
50,028	-12,085	275,150	128,108
51,042	-12,151	275,017	127,973
52,057	-12,371	274,735	127,625
53,071	-11,986	274,612	127,916
54,086	-12,014	274,359	127,761
55,101	-11,879	274,134	127,770
56,115	-11,600	274,036	127,974
57,130	-11,442	273,813	128,006
58,144	-11,276	273,574	128,037
59,159	-11,315	273,443	127,928
60,174	-11,273	273,126	127,808
61,188	-11,329	272,877	127,628
62,203	-11,313	272,572	127,488
63,217	-11,406	272,485	127,351
64,232	-11,372	272,220	127,246
65,247	-11,405	272,147	127,170
66,261	-11,389	271,762	126,994
67,276	-11,509	271,462	126,732
68,290	-11,607	271,177	126,497
69,305	-11,662	271,123	126,410
70,320	-11,602	270,818	126,311
71,334	-11,526	270,846	126,384
72,349	-11,328	270,375	126,334
73,363	-11,366	270,246	126,228
74,378	-11,338	269,985	126,121
75,393	-11,434	269,851	125,959
76,407	-11,111	269,442	126,052
77,422	-11,266	269,298	125,831
78,436	-11,451	269,229	125,618
79,451	-11,328	268,902	125,568
80,466	-11,508	268,789	125,339
81,480	-11,536	268,365	125,105
82,495	-11,564	268,278	125,028
83,509	-11,527	268,172	125,000
84,524	-11,630	267,757	124,702
85,539	-11,722	267,531	124,502
86,553	-11,631	267,267	124,451
87,568	-11,558	267,180	124,466
88,582	-11,657	266,982	124,273
89,597	-11,656	266,829	124,191
90,611	-11,359	266,628	124,355
91,626	-11,232	266,439	124,371
92,641	-11,449	266,240	124,071
93,655	-11,481	266,010	123,924
94,670	-11,339	265,729	123,911
95,684	-11,464	265,609	123,730
96,699	-11,488	265,347	123,575
97,714	-11,491	265,222	123,504
98,728	-11,622	264,925	123,236
99,743	-11,705	264,601	123,000
100,757	-11,841	264,526	122,832
101,772	-11,542	264,371	123,018
102,787	-11,499	264,110	122,923
103,801	-11,425	264,007	122,931
104,816	-11,474	263,806	122,783
105,830	-11,311	263,625	122,833
106,845	-11,157	263,269	122,794
107,860	-11,348	263,135	122,551
108,874	-11,431	262,942	122,375
109,889	-11,501	262,729	122,203
110,903	-11,533	262,472	122,044
111,918	-11,538	262,427	122,008
112,933	-11,629	262,088	121,758
113,947	-11,588	261,971	121,729
114,962	-11,427	261,890	121,824
115,976	-11,264	261,559	121,804
116,991	-11,484	261,362	121,506
118,006	-11,405	261,156	121,469
119,020	-11,155	261,249	121,723
120,035	-11,292	261,015	121,482
121,049	-11,221	260,791	121,430
122,064	-11,383	260,580	121,178
123,079	-11,372	260,371	121,080
124,093	-11,442	260,186	120,921
125,108	-11,491	259,828	120,701
126,122	-11,962	259,795	120,260
127,137	-12,110	259,527	119,995
128,151	-11,832	259,367	120,155
129,166	-11,540	259,166	120,308
130,181	-11,588	258,931	120,145
131,195	-11,553	258,594	120,008
132,210	-11,377	258,444	120,083
133,224	-11,430	258,360	119,987
134,239	-11,325	258,235	120,010
135,254	-11,472	257,945	119,736
136,268	-11,580	257,804	119,566
137,283	-11,679	257,518	119,336
138,297	-11,643	257,226	119,221
139,312	-11,921	257,083	118,903
140,327	-11,347	256,925	119,317
141,341	-11,103	256,739	119,432
142,356	-11,177	256,663	119,322
143,370	-11,110	256,351	119,225
144,385	-11,165	256,223	119,107
145,400	-11,227	256,114	118,992
146,414	-11,289	255,894	118,825
147,429	-11,078	255,667	118,892
148,443	-11,144	255,443	118,720
149,458	-11,074	255,426	118,762
150,473	-11,419	255,282	118,387
151,487	-11,262	254,888	118,329
152,502	-11,288	254,904	118,303
153,516	-11,278	254,694	118,204
154,531	-11,338	254,452	118,029
155,546	-11,195	254,242	118,045
156,560	-11,211	254,056	117,934
157,575	-11,416	253,830	117,643
158,589	-11,319	253,656	117,635
159,604	-10,915	253,393	117,848
160,619	-11,092	253,403	117,690
161,633	-11,196	253,307	117,546
162,648	-11,290	253,131	117,373
163,662	-11,079	252,737	117,360
164,677	-11,126	252,627	117,259
165,692	-11,216	252,491	117,108
166,706	-11,016	252,208	117,137
167,721	-11,120	252,140	117,006
168,735	-11,330	251,975	116,741
169,750	-11,064	251,778	116,866
170,764	-11,283	251,843	116,700
171,779	-11,145	251,487	116,641
172,794	-11,177	251,406	116,566
173,808	-11,165	251,173	116,458
174,823	-11,575	250,851	115,951
175,837	-11,704	250,664	115,745
176,852	-11,417	250,668	115,979
177,867	-10,907	250,391	116,272
178,881	-11,059	250,242	116,064
179,896	-11,090	250,081	115,952
180,910	-10,957	249,886	115,964
181,925	-11,099	249,684	115,740
182,940	-11,202	249,748	115,673
183,954	-11,072	249,455	115,636
184,969	-11,081	249,259	115,527
185,983	-11,117	249,056	115,393
186,998	-11,182	249,048	115,324
188,013	-11,037	248,631	115,242
189,027	-11,242	248,549	115,022
190,042	-11,193	248,429	114,997
191,056	-11,055	248,179	114,987
192,071	-11,174	248,100	114,840
193,086	-11,027	247,844	114,834
194,100	-11,042	247,739	114,763
195,115	-11,090	247,568	114,633
196,129	-11,116	247,261	114,460
197,144	-11,120	247,112	114,377
198,159	-11,034	246,819	114,302
199,173	-11,151	246,813	114,192
200,188	-11,045	246,476	114,115
201,202	-11,441	246,393	113,738
202,217	-11,654	246,100	113,416
203,232	-11,648	245,785	113,266
204,246	-11,018	245,664	113,720
205,261	-11,032	245,783	113,753
206,275	-11,464	245,342	113,183
207,290	-7,931	246,989	116,865
208,304	0,342	249,617	125,017
209,319	4,559	250,625	129,037
210,334	4,855	250,775	129,351
211,348	5,038	250,641	129,423
212,363	5,187	250,489	129,457
213,377	5,382	250,235	129,477
214,392	5,161	250,147	129,236
215,407	4,868	250,036	128,923
216,421	5,030	249,844	128,947
217,436	5,179	249,702	128,986
218,450	5,252	249,546	128,955
219,465	4,902	249,440	128,598
220,480	4,658	249,116	128,217
221,494	4,882	248,977	128,319
222,509	4,904	248,841	128,256
223,523	4,875	248,514	128,052
224,538	4,267	248,293	127,424
225,553	4,475	248,274	127,576
226,567	4,661	248,083	127,619
227,582	4,432	247,803	127,276
228,596	4,800	247,668	127,498
229,611	4,322	247,497	127,004
230,626	4,242	247,301	126,827
231,640	4,456	247,087	126,882
232,655	4,644	247,002	126,981
233,669	4,436	246,913	126,753
234,684	4,312	246,585	126,472
235,699	4,639	246,554	126,713
236,713	4,858	246,453	126,829
237,728	4,663	246,219	126,538
238,742	4,277	246,000	126,098
239,757	4,238	245,781	125,943
240,772	4,148	245,819	125,878
241,786	4,503	245,582	126,035
242,801	4,325	245,438	125,805
243,815	4,456	245,180	125,768
244,830	4,593	245,082	125,817
245,844	4,622	244,936	125,756
246,859	4,487	244,714	125,521
247,874	4,446	244,623	125,430
248,888	4,572	244,419	125,416
249,903	4,609	244,218	125,331
250,917	4,422	244,306	125,214
251,932	4,686	244,165	125,345
252,947	4,548	244,029	125,151
253,961	4,483	243,712	124,926
254,976	4,513	243,655	124,909
255,990	4,704	243,458	124,952
257,005	4,284	243,202	124,470
258,020	4,408	242,929	124,418
259,034	4,314	242,895	124,315
260,049	4,612	242,770	124,479
261,063	4,386	242,536	124,167
262,078	4,466	242,408	124,154
263,093	4,588	242,313	124,193
264,107	4,650	242,027	124,085
265,122	4,367	242,025	123,845
266,136	4,527	241,827	123,862
267,151	4,925	241,702	124,105
268,166	4,456	241,443	123,586
269,180	4,379	241,379	123,481
270,195	5,008	241,289	123,927
271,209	5,184	241,193	124,007
272,224	4,461	240,891	123,263
273,239	4,103	240,582	122,809
274,253	4,164	240,468	122,788
275,268	4,702	240,402	123,172
276,282	4,327	240,237	122,778
277,297	4,092	240,089	122,505
278,312	4,190	240,009	122,530
279,326	4,552	239,791	122,697
280,341	4,325	239,670	122,443
281,355	4,555	239,551	122,553
282,370	4,617	239,372	122,501
283,384	4,687	239,080	122,395
284,399	4,282	239,059	122,053
285,414	4,150	238,916	121,865
286,428	4,231	238,732	121,824
287,443	4,374	238,558	121,838
288,457	4,596	238,329	121,885
289,472	4,581	238,305	121,850
290,487	4,616	238,057	121,740
291,501	4,265	237,965	121,406
292,516	4,176	237,673	121,176
293,530	4,207	237,632	121,168
294,545	4,553	237,581	121,404
295,560	4,412	237,471	121,226
296,574	4,160	237,106	120,831
297,589	4,324	237,003	120,896
298,603	4,662	237,030	121,164
299,618	4,414	236,905	120,895
300,633	4,607	236,622	120,891
301,647	4,766	236,526	120,955
302,662	4,953	236,611	121,134
303,676	4,756	236,218	120,769
304,691	4,683	236,190	120,687
305,706	4,979	236,039	120,830
306,720	4,836	235,904	120,638
307,735	4,495	235,761	120,288
308,749	4,707	235,510	120,315
309,764	4,563	235,175	120,021
310,779	4,263	234,961	119,668
311,793	4,290	234,693	119,542
312,808	4,168	234,745	119,464
313,822	4,196	234,551	119,376
314,837	4,233	234,328	119,280
315,852	4,149	234,195	119,137
316,866	4,337	234,127	119,237
317,881	4,708	234,049	119,473
318,895	5,138	234,124	119,833
319,910	4,866	233,904	119,500
320,925	4,517	233,552	119,040
321,939	4,170	233,464	118,717
322,954	4,440	233,441	118,903
323,968	4,465	233,009	118,692
324,983	4,523	233,155	118,800
325,997	4,805	233,014	118,934
327,012	4,673	232,975	118,802
328,027	4,434	232,700	118,468
329,041	5,017	232,622	118,865
330,056	5,287	232,584	119,042
331,070	5,307	232,452	118,979
332,085	4,820	232,113	118,423
333,100	4,587	231,959	118,156
334,114	4,622	231,684	118,032
335,129	4,901	231,607	118,195
336,143	4,985	231,540	118,213
337,158	4,687	231,509	117,960
338,173	4,535	231,237	117,696
339,187	4,426	231,140	117,553
340,202	4,549	230,900	117,514
341,216	4,560	230,786	117,454
342,231	4,604	230,617	117,391
343,246	4,555	230,456	117,261
344,260	4,679	230,450	117,341
345,275	4,962	230,228	117,432
346,289	4,954	230,270	117,438
347,304	4,742	230,010	117,134
348,319	5,099	229,781	117,276
349,333	4,568	229,609	116,777
350,348	4,556	229,480	116,692
351,362	4,653	229,376	116,702
352,377	4,287	229,019	116,235
353,392	4,373	228,922	116,240
354,406	4,471	228,749	116,215
355,421	195,801	1316,346	1392,646
356,435	157,072	1448,813	1392,602
