DTS Sentinel unit serial number:	SN410029Multiplexer serial number:	ORYXHardware model number:	OX2-SRSoftware version number:	ORYX F/W v4,00 Oryx Data Collector v3.7.2.0data status	okinstallation	B5 Nyhavnadifferential loss correction	single-endedforward channel	channel 2reverse channel	N/Adate	2023/12/11time	17:37:13forward acquisition time	300,00reverse acquisition time	0,00gamma	499,1914k internal	0,3163k external	0,3163temperature offset calibration	1,0000default loss term (dB/km)	0,3820temperature slope calibration	1,0000multiplexer offset coefficient	1,0000multiplexer slope coefficient	1,0000fibre end	0,00T internal ref (°C)	14,79T ext. ref 1 (°C)	-0,69T ext. ref 2 (°C)	-0,90length (m)	temperature (°C)	Stokes	anti-Stokes-744,400	588,370	-0,019	-0,034
-743,385	-120,041	-0,383	-0,048
-742,371	467,003	0,140	0,232
-741,356	-184,212	-0,299	0,004
-740,342	126,120	0,082	0,076
-739,327	-139,396	-0,202	0,016
-738,312	-200,000	-0,020	0,102
-737,298	201,606	-0,123	0,140
-736,283	-200,000	0,012	0,048
-735,269	-69,868	-0,219	-0,061
-734,254	-178,137	0,187	0,003
-733,239	-36,525	-0,481	-0,190
-732,225	-179,452	0,242	0,004
-731,210	-200,000	0,019	0,186
-730,196	415,671	-0,050	0,079
-729,181	150,471	-0,101	0,101
-728,167	-200,000	0,007	-0,026
-727,152	800,000	-0,016	0,038
-726,137	-102,948	-0,103	-0,018
-725,123	194,277	-0,052	0,058
-724,108	-178,194	-0,208	-0,004
-723,094	350,680	0,091	-0,132
-722,079	136,954	-0,110	-0,105
-721,064	180,395	-0,025	0,027
-720,050	-200,000	-0,026	-0,103
-719,035	206,473	-0,010	-0,011
-718,021	-172,363	-0,124	0,003
-717,006	379,184	-0,045	-0,068
-715,991	81,337	0,063	-0,050
-714,977	217,045	-0,078	-0,092
-713,962	617,196	0,046	-0,085
-712,948	-17,776	0,045	-0,021
-711,933	-45,194	0,029	0,011
-710,918	-62,681	0,084	0,025
-709,904	280,595	-0,032	-0,042
-708,889	800,000	-0,031	-0,072
-707,875	-67,752	-0,126	0,036
-706,860	800,000	-0,016	-0,044
-705,845	58,406	0,022	0,016
-704,831	338,901	0,109	0,157
-703,816	50,808	-0,026	0,018
-702,802	-55,465	0,020	0,006
-701,787	318,157	-0,080	-0,112
-700,772	-200,000	0,008	-0,058
-699,758	-200,000	-0,021	-0,086
-698,743	-154,773	-0,009	-0,000
-697,729	-9,880	0,046	-0,022
-696,714	306,282	0,102	0,139
-695,699	11,144	-0,160	0,090
-694,685	412,156	0,075	-0,117
-693,670	800,000	0,052	-0,113
-692,656	54,292	0,115	-0,081
-691,641	-200,000	0,013	-0,102
-690,627	324,768	0,076	0,107
-689,612	-4,764	0,034	-0,017
-688,597	-200,000	-0,016	-0,079
-687,583	-69,185	-0,106	-0,030
-686,568	6,771	-0,033	0,018
-685,554	193,330	-0,155	-0,172
-684,539	800,000	0,058	-0,132
-683,524	-93,890	-0,117	-0,023
-682,510	573,902	0,064	-0,115
-681,495	367,455	-0,053	-0,079
-680,481	359,681	-0,133	-0,196
-679,466	-200,000	0,005	-0,114
-678,451	357,178	0,065	-0,096
-677,437	800,000	0,010	0,033
-676,422	138,303	0,097	0,094
-675,408	291,269	-0,089	0,119
-674,393	-200,000	-0,012	-0,116
-673,378	208,207	0,145	-0,167
-672,364	-200,000	-0,001	0,039
-671,349	-200,000	0,005	0,052
-670,335	69,964	0,067	0,051
-669,320	800,000	-0,054	0,111
-668,305	-85,775	0,163	-0,037
-667,291	-38,454	-0,146	-0,056
-666,276	84,260	-0,038	-0,030
-665,262	-200,000	0,000	-0,014
-664,247	139,833	-0,122	-0,118
-663,232	800,000	-0,019	0,048
-662,218	44,636	-0,081	0,055
-661,203	165,560	-0,041	0,043
-660,189	70,111	-0,118	-0,089
-659,174	451,911	-0,083	-0,134
-658,159	18,320	-0,059	-0,034
-657,145	73,516	-0,133	-0,102
-656,130	-143,288	-0,042	-0,003
-655,116	-57,112	-0,100	0,032
-654,101	-9,674	0,075	0,036
-653,086	101,291	-0,066	0,056
-652,072	-78,625	-0,037	0,009
-651,057	-48,421	-0,116	-0,041
-650,043	-135,192	-0,075	-0,006
-649,028	-121,068	0,068	-0,008
-648,014	-200,000	0,012	0,055
-646,999	366,792	-0,057	0,085
-645,984	313,629	0,040	-0,056
-644,970	72,551	-0,055	-0,042
-643,955	-18,428	-0,166	-0,076
-642,941	245,895	-0,036	-0,045
-641,926	204,034	-0,094	-0,106
-640,911	-200,000	-0,020	0,089
-639,897	-200,000	-0,046	0,165
-638,882	-114,480	-0,110	-0,015
-637,868	46,237	0,103	-0,070
-636,853	691,042	-0,036	-0,070
-635,838	-158,147	-0,053	0,002
-634,824	69,986	0,015	-0,011
-633,809	230,928	0,111	0,134
-632,795	-59,674	0,072	-0,023
-631,780	571,767	-0,062	0,110
-630,765	-200,000	-0,000	0,043
-629,751	-47,577	-0,170	-0,060
-628,736	-200,000	0,033	-0,134
-627,722	136,732	0,010	0,009
-626,707	-200,000	-0,019	-0,071
-625,692	-119,627	0,012	0,001
-624,678	30,051	0,035	-0,022
-623,663	-200,000	-0,008	0,063
-622,649	329,646	-0,067	-0,095
-621,634	5,762	0,034	-0,018
-620,619	-122,343	-0,032	0,004
-619,605	-34,961	-0,111	-0,044
-618,590	800,000	0,005	0,014
-617,576	-200,000	-0,026	0,109
-616,561	313,014	0,044	0,061
-615,546	-200,000	-0,032	-0,125
-614,532	-20,950	-0,135	-0,060
-613,517	174,324	0,071	-0,075
-612,503	340,786	0,055	-0,079
-611,488	-200,000	-0,005	-0,027
-610,474	-149,894	0,082	-0,005
-609,459	-200,000	0,005	-0,092
-608,444	800,000	-0,031	-0,090
-607,430	-71,289	-0,090	0,024
-606,415	29,356	0,059	-0,037
-605,401	-200,000	0,000	0,042
-604,386	276,496	-0,024	0,032
-603,371	185,956	0,039	0,042
-602,357	800,000	0,041	0,119
-601,342	275,196	-0,069	-0,090
-600,328	-118,787	-0,172	-0,022
-599,313	-18,803	0,133	0,060
-598,298	800,000	-0,053	-0,160
-597,284	800,000	-0,029	-0,081
-596,269	120,588	0,106	0,096
-595,255	485,159	0,062	0,103
-594,240	254,850	0,050	-0,063
-593,225	-142,109	-0,115	-0,008
-592,211	-54,977	-0,072	-0,024
-591,196	-200,000	-0,001	0,073
-590,182	800,000	-0,033	0,095
-589,167	149,328	-0,037	-0,037
-588,152	-200,000	-0,005	0,089
-587,138	-200,000	0,003	0,098
-586,123	-73,600	-0,082	0,022
-585,109	-104,315	-0,058	0,010
-584,094	-200,000	0,004	-0,048
-583,079	162,992	-0,034	-0,035
-582,065	-171,581	0,152	0,004
-581,050	58,652	-0,138	0,099
-580,036	800,000	0,048	0,140
-579,021	372,072	0,037	-0,056
-578,006	299,844	-0,005	-0,006
-576,992	-200,000	-0,039	-0,131
-575,977	-158,153	-0,093	0,004
-574,963	5,272	0,052	0,028
-573,948	-200,000	-0,031	-0,118
-572,934	-200,000	-0,016	-0,128
-571,919	278,143	0,050	0,066
-570,904	-200,000	-0,001	-0,022
-569,890	272,523	-0,008	0,011
-568,875	800,000	0,052	-0,154
-567,861	800,000	0,025	-0,062
-566,846	-59,995	-0,098	-0,030
-565,831	100,450	0,073	0,062
-564,817	-81,004	0,075	-0,018
-563,802	34,150	-0,048	-0,030
-562,788	-101,583	-0,068	-0,012
-561,773	-67,914	-0,092	-0,026
-560,758	-28,386	-0,108	-0,045
-559,744	154,092	0,046	0,046
-558,729	-34,743	0,105	-0,042
-557,715	93,231	0,047	-0,039
-556,700	-4,308	-0,128	-0,064
-555,685	-36,466	0,094	-0,037
-554,671	89,153	0,028	0,023
-553,656	52,460	0,112	-0,078
-552,642	548,421	0,038	-0,067
-551,627	-85,846	0,139	-0,031
-550,612	800,000	-0,066	0,136
-549,598	-200,000	0,010	-0,051
-548,583	800,000	0,028	0,084
-547,569	800,000	0,012	0,037
-546,554	84,114	-0,071	0,056
-545,539	-200,000	-0,008	0,035
-544,525	-200,000	-0,041	0,152
-543,510	195,082	-0,055	-0,062
-542,496	-80,905	0,059	0,014
-541,481	-99,415	0,080	-0,015
-540,466	-104,249	0,069	0,012
-539,452	800,000	0,015	0,041
-538,437	800,000	-0,039	-0,116
-537,423	12,738	0,091	0,051
-536,408	-200,000	-0,016	0,073
-535,393	-13,124	0,051	-0,024
-534,379	-200,000	0,044	-0,162
-533,364	-200,000	0,009	-0,094
-532,350	106,692	0,052	-0,045
-531,335	61,363	0,075	-0,054
-530,321	-111,911	0,097	0,014
-529,306	-200,000	-0,019	0,125
-528,291	46,486	0,099	-0,067
-527,277	-200,000	0,003	-0,022
-526,262	295,751	-0,064	0,086
-525,248	-200,000	-0,003	-0,042
-524,233	-85,870	0,058	0,013
-523,218	800,000	0,016	-0,045
-522,204	100,799	0,045	-0,038
-521,189	-71,955	-0,198	0,053
-520,175	436,340	-0,025	-0,040
-519,160	-128,878	-0,028	0,003
-518,145	250,041	-0,051	0,063
-517,131	22,219	0,188	0,112
-516,116	59,638	-0,098	-0,070
-515,102	29,706	-0,024	-0,015
-514,087	-200,000	0,017	-0,063
-513,072	-200,000	-0,007	-0,123
-512,058	-57,866	0,066	0,021
-511,043	152,060	0,114	0,114
-510,029	800,000	-0,049	-0,119
-509,014	-30,436	0,064	-0,026
-507,999	800,000	0,046	0,118
-506,985	800,000	-0,017	0,042
-505,970	235,068	-0,032	-0,039
-504,956	-200,000	-0,033	-0,132
-503,941	-200,000	-0,017	-0,076
-502,926	-200,000	0,024	-0,091
-501,912	-200,000	0,211	-0,001
-500,897	-138,410	0,081	0,006
-499,883	-200,000	-0,026	-0,089
-498,868	60,255	-0,077	-0,056
-497,853	-107,426	-0,079	-0,012
-496,839	-52,170	0,114	0,038
-495,824	-200,000	0,009	-0,056
-494,810	-200,000	0,000	-0,003
-493,795	23,172	0,022	0,013
-492,781	414,892	0,032	0,050
-491,766	-78,562	-0,039	-0,010
-490,751	82,382	0,030	-0,024
-489,737	-200,000	-0,001	0,103
-488,722	-200,000	-0,004	0,078
-487,708	-200,000	0,006	0,126
-486,693	665,487	0,065	0,122
-485,678	302,538	0,042	0,056
-484,664	49,763	-0,099	-0,068
-483,649	-13,534	-0,033	-0,015
-482,635	-84,029	0,083	0,019
-481,620	-200,000	-0,019	0,062
-480,605	800,000	-0,062	0,127
-479,591	800,000	0,003	-0,007
-478,576	36,183	0,042	-0,027
-477,562	800,000	-0,025	-0,051
-476,547	-200,000	0,043	-0,203
-475,532	371,185	-0,037	-0,055
-474,518	-200,000	-0,007	-0,040
-473,503	-36,275	0,145	0,057
-472,489	2,050	-0,159	-0,083
-471,474	-43,933	0,154	-0,056
-470,459	-75,680	-0,125	0,032
-469,445	177,109	0,013	0,013
-468,430	571,373	-0,073	-0,130
-467,416	-200,000	-0,013	-0,052
-466,401	216,095	-0,020	0,023
-465,386	328,848	-0,061	0,086
-464,372	521,861	-0,060	0,103
-463,357	790,232	-0,029	-0,059
-462,343	248,977	0,077	-0,095
-461,328	313,401	0,060	0,083
-460,313	-200,000	0,014	0,109
-459,299	-164,884	0,054	0,002
-458,284	366,778	0,065	0,096
-457,270	-85,326	0,170	-0,038
-456,255	-52,197	-0,030	-0,010
-455,241	-80,619	-0,106	0,025
-454,226	-74,461	0,093	-0,024
-453,211	800,000	0,036	-0,087
-452,197	-200,000	-0,037	0,144
-451,182	800,000	0,022	-0,060
-450,168	-200,000	-0,024	0,151
-449,153	-39,206	0,042	0,016
-448,138	341,270	-0,067	0,096
-447,124	-21,731	-0,086	0,038
-446,109	259,826	0,065	-0,082
-445,095	800,000	-0,041	-0,083
-444,080	78,564	-0,069	-0,054
-443,065	-200,000	0,016	-0,056
-442,051	-4,669	0,117	0,059
-441,036	-94,825	0,124	-0,024
-440,022	-200,000	-0,009	-0,120
-439,007	285,913	0,011	0,014
-437,992	90,740	-0,017	0,014
-436,978	-171,471	-0,091	0,002
-435,963	-106,322	0,093	0,015
-434,949	-7,637	0,011	0,005
-433,934	-46,687	-0,121	0,043
-432,919	-18,234	-0,172	-0,078
-431,905	78,738	-0,104	-0,081
-430,890	329,107	-0,045	0,064
-429,876	44,440	0,067	0,044
-428,861	48,661	0,083	0,057
-427,846	-101,247	-0,079	-0,014
-426,832	-200,000	-0,020	-0,104
-425,817	82,738	-0,111	0,088
-424,803	-61,981	0,112	0,034
-423,788	12,506	0,111	-0,062
-422,773	725,239	-0,009	0,018
-421,759	-86,818	0,082	0,018
-420,744	95,700	-0,044	-0,036
-419,730	-200,000	-0,025	-0,133
-418,715	800,000	0,026	-0,074
-417,701	63,712	0,091	-0,067
-416,686	109,014	0,081	-0,070
-415,671	58,589	-0,091	0,065
-414,657	-200,000	0,007	0,049
-413,642	-22,913	0,113	0,049
-412,628	-200,000	-0,017	0,183
-411,613	800,000	-0,065	-0,134
-410,598	41,607	0,091	0,060
-409,584	-147,301	0,102	0,006
-408,569	800,000	0,046	-0,121
-407,555	421,499	-0,041	-0,065
-406,540	-200,000	-0,020	-0,083
-405,525	56,394	0,044	-0,031
-404,511	-68,663	-0,185	0,052
-403,496	28,033	-0,075	0,046
-402,482	-105,314	0,070	-0,011
-401,467	233,419	-0,067	-0,080
-400,452	56,801	0,068	-0,048
-399,438	465,301	-0,013	0,022
-398,423	800,000	-0,010	0,020
-397,409	-66,532	-0,128	-0,037
-396,394	533,380	0,039	-0,068
-395,379	87,117	0,101	-0,081
-394,365	-74,331	0,104	-0,027
-393,350	161,273	-0,078	0,079
-392,336	199,813	-0,040	0,044
-391,321	526,941	0,082	0,140
-390,306	-78,426	0,081	0,020
-389,292	18,365	-0,034	0,020
-388,277	-15,157	-0,133	0,062
-387,263	800,000	0,052	-0,120
-386,248	-0,770	0,078	-0,040
-385,233	132,165	0,083	-0,077
-384,219	-94,099	-0,068	0,013
-383,204	367,776	-0,045	-0,066
-382,190	-200,000	-0,002	0,052
-381,175	110,812	0,052	-0,045
-380,160	-200,000	0,010	0,084
-379,146	389,826	0,027	0,041
-378,131	6,399	-0,144	0,078
-377,117	28,812	0,038	0,024
-376,102	56,281	-0,206	-0,145
-375,088	-200,000	0,036	-0,151
-374,073	199,795	-0,086	-0,095
-373,058	97,857	0,228	0,190
-372,044	463,240	-0,031	0,051
-371,029	-81,570	0,186	0,044
-370,015	-69,528	-0,137	-0,038
-369,000	-200,000	0,005	-0,076
-367,985	35,868	0,030	0,019
-366,971	294,973	-0,069	0,092
-365,956	800,000	0,076	0,186
-364,942	407,885	0,049	-0,075
-363,927	156,555	-0,141	0,141
-362,912	104,256	0,100	0,086
-361,898	272,402	-0,084	0,108
-360,883	39,053	-0,095	0,061
-359,869	235,689	0,055	-0,066
-358,854	-200,000	-0,019	0,068
-357,839	-200,000	0,022	0,105
-356,825	-200,000	0,040	0,130
-355,810	-200,000	0,006	-0,073
-354,796	31,815	0,021	0,013
-353,781	189,723	-0,050	0,054
-352,766	-82,197	-0,079	-0,018
-351,752	-100,443	0,128	-0,023
-350,737	800,000	0,010	0,033
-349,723	66,693	0,095	0,070
-348,708	-200,000	-0,004	0,158
-347,693	-200,000	0,024	0,222
-346,679	-103,100	-0,126	-0,021
-345,664	-189,381	-0,119	-0,001
-344,650	-8,556	0,062	0,030
-343,635	800,000	-0,031	0,098
-342,620	-26,073	0,066	0,028
-341,606	384,630	-0,093	0,139
-340,591	-50,458	-0,075	-0,025
-339,577	84,375	-0,074	-0,059
-338,562	-200,000	-0,002	-0,067
-337,548	9,071	0,125	-0,068
-336,533	-53,635	-0,112	-0,037
-335,518	-73,665	-0,026	-0,007
-334,504	-110,716	0,086	0,013
-333,489	-200,000	-0,006	0,040
-332,475	177,078	-0,046	0,049
-331,460	69,659	-0,037	-0,027
-330,445	800,000	0,038	-0,083
-329,431	-159,291	0,063	-0,002
-328,416	-41,263	-0,026	-0,010
-327,402	-181,469	0,110	-0,002
-326,387	448,337	0,038	0,061
-325,372	-48,847	0,078	0,027
-324,358	513,166	-0,063	-0,106
-323,343	800,000	0,023	-0,058
-322,329	198,254	-0,032	-0,036
-321,314	271,674	0,010	-0,013
-320,299	800,000	0,041	-0,126
-319,285	19,927	0,083	0,048
-318,270	-200,000	-0,041	0,136
-317,256	320,544	0,052	0,072
-316,241	-200,000	-0,007	-0,048
-315,226	-50,799	0,075	0,025
-314,212	800,000	0,023	-0,070
-313,197	454,684	0,036	0,058
-312,183	-22,630	0,023	0,010
-311,168	15,477	0,038	-0,021
-310,153	-157,888	-0,086	0,004
-309,139	660,800	-0,033	-0,062
-308,124	800,000	-0,074	0,163
-307,110	-200,000	0,029	0,145
-306,095	88,208	0,047	0,038
-305,080	87,069	-0,031	0,025
-304,066	-21,432	0,048	-0,021
-303,051	-113,748	-0,257	-0,036
-302,037	-200,000	-0,025	-0,105
-301,022	-94,706	-0,056	0,011
-300,008	-99,601	-0,090	0,016
-298,993	174,267	0,103	-0,108
-297,978	162,234	0,099	-0,100
-296,964	-152,663	-0,134	-0,007
-295,949	-98,955	0,082	-0,015
-294,935	-14,105	-0,190	0,088
-293,920	-2,452	0,061	0,031
-292,905	336,103	-0,060	0,084
-291,891	175,118	0,125	0,131
-290,876	149,847	0,079	0,078
-289,862	-194,914	-0,228	0,001
-288,847	-121,501	-0,033	0,004
-287,832	290,872	-0,046	0,061
-286,818	-200,000	0,005	0,021
-285,803	-104,582	0,093	-0,015
-284,789	-200,000	0,001	0,083
-283,774	529,977	0,060	0,103
-282,759	-200,000	0,011	0,130
-281,745	800,000	0,056	-0,118
-280,730	751,545	0,018	-0,035
-279,716	340,297	0,048	0,068
-278,701	-59,210	0,161	-0,050
-277,686	-5,220	-0,008	-0,004
-276,672	1,453	-0,136	0,070
-275,657	-200,000	-0,024	0,105
-274,643	800,000	0,039	0,081
-273,628	198,884	-0,104	-0,115
-272,613	-200,000	0,019	-0,188
-271,599	-91,607	0,064	0,013
-270,584	-110,246	0,071	-0,011
-269,570	75,435	-0,061	0,047
-268,555	94,161	0,133	0,109
-267,540	610,376	-0,090	-0,162
-266,526	13,191	0,093	-0,052
-265,511	-100,994	-0,040	0,007
-264,497	800,000	0,009	-0,018
-263,482	800,000	-0,029	0,065
-262,467	-200,000	-0,030	0,100
-261,453	-200,000	-0,012	0,149
-260,438	800,000	-0,006	-0,015
-259,424	-126,894	-0,064	-0,007
-258,409	-200,000	0,003	-0,093
-257,395	800,000	0,032	0,100
-256,380	-200,000	-0,025	-0,138
-255,365	800,000	-0,053	0,125
-254,351	-25,831	-0,133	-0,056
-253,336	112,721	-0,106	0,093
-252,322	-15,017	-0,067	0,031
-251,307	-107,254	0,020	-0,003
-250,292	-40,303	-0,015	-0,006
-249,278	50,361	0,034	0,023
-248,263	132,350	0,039	0,036
-247,249	-7,110	-0,100	0,049
-246,234	-149,737	0,093	0,005
-245,219	800,000	0,002	-0,005
-244,205	-174,323	-0,073	0,001
-243,190	276,119	-0,022	0,029
-242,176	-139,272	0,055	0,004
-241,161	67,374	0,071	0,052
-240,146	-200,000	0,039	-0,146
-239,132	8,346	-0,088	0,048
-238,117	-19,142	-0,037	0,016
-237,103	87,044	-0,072	-0,058
-236,088	57,399	-0,047	-0,033
-235,073	-119,705	-0,113	0,014
-234,059	-200,000	-0,011	-0,041
-233,044	-200,000	-0,026	-0,088
-232,030	533,654	0,055	0,095
-231,015	-1,254	-0,104	-0,053
-230,000	203,661	0,010	-0,012
-228,986	-164,263	0,042	-0,001
-227,971	45,272	0,199	0,132
-226,957	318,761	0,104	0,142
-225,942	-40,896	0,215	0,080
-224,927	800,000	-0,028	0,065
-223,913	-200,000	-0,004	0,050
-222,898	800,000	0,029	-0,067
-221,884	237,791	0,052	-0,063
-220,869	96,815	0,054	-0,045
-219,855	-200,000	0,056	0,193
-218,840	20,839	0,032	0,019
-217,825	23,545	0,090	0,054
-216,811	74,950	-0,083	0,063
-215,796	-200,000	-0,000	-0,095
-214,782	800,000	-0,025	0,053
-213,767	9,788	-0,110	-0,060
-212,752	-125,000	0,018	0,002
-211,738	-127,994	-0,055	-0,006
-210,723	-200,000	-0,023	-0,088
-209,709	800,000	-0,043	0,113
-208,694	166,799	0,127	-0,130
-207,679	391,515	-0,116	-0,174
-206,665	-200,000	-0,004	-0,220
-205,650	-74,798	0,163	0,042
-204,636	-200,000	0,021	0,070
-203,621	19,899	-0,037	-0,022
-202,606	199,428	0,070	0,078
-201,592	119,452	-0,104	-0,093
-200,577	-200,000	0,015	-0,114
-199,563	-33,623	-0,097	-0,039
-198,548	91,829	0,027	0,022
-197,533	-94,458	-0,015	0,003
-196,519	-200,000	-0,011	-0,045
-195,504	-117,494	-0,082	0,011
-194,490	-111,084	-0,062	-0,009
-193,475	124,385	-0,051	-0,046
-192,460	-61,359	-0,058	0,017
-191,446	152,276	0,046	0,045
-190,431	800,000	0,036	0,100
-189,417	56,817	0,022	0,016
-188,402	-200,000	0,014	0,055
-187,387	422,858	0,026	0,041
-186,373	27,588	-0,127	0,077
-185,358	-200,000	0,009	-0,091
-184,344	7,875	-0,051	0,027
-183,329	222,076	0,105	-0,121
-182,315	-63,181	0,046	-0,014
-181,300	402,635	-0,062	-0,094
-180,285	-45,905	-0,159	-0,056
-179,271	-70,268	0,008	-0,002
-178,256	-200,000	-0,031	-0,154
-177,242	-53,154	0,087	0,028
-176,227	151,655	0,068	0,067
-175,212	140,513	-0,062	0,059
-174,198	-60,911	-0,063	0,019
-173,183	100,764	-0,083	-0,070
-172,169	-158,793	0,071	-0,003
-171,154	464,456	-0,054	-0,088
-170,139	2,278	0,089	-0,046
-169,125	-33,339	0,041	-0,016
-168,110	368,615	0,035	-0,051
-167,096	588,588	0,095	0,170
-166,081	-142,295	0,156	0,011
-165,066	-200,000	0,004	0,019
-164,052	17,983	-0,101	0,057
-163,037	-23,633	0,062	-0,027
-162,023	-109,352	0,153	0,023
-161,008	-200,000	0,005	0,035
-159,993	-110,352	-0,127	-0,019
-158,979	-200,000	0,027	-0,114
-157,964	-67,402	-0,177	0,050
-156,950	800,000	-0,020	-0,040
-155,935	-2,265	-0,060	-0,030
-154,920	503,177	0,041	-0,068
-153,906	-11,558	-0,091	-0,043
-152,891	127,299	0,158	-0,145
-151,877	-74,967	-0,058	-0,015
-150,862	158,136	-0,177	0,176
-149,847	-157,343	-0,113	-0,005
-148,833	-200,000	-0,015	0,169
-147,818	232,760	0,033	0,038
-146,804	648,683	-0,070	0,129
-145,789	238,295	-0,042	-0,050
-144,775	46,768	0,002	0,001
-143,760	201,961	-0,066	-0,074
-142,745	-25,365	-0,138	0,058
-141,731	-200,000	0,005	-0,068
-140,716	42,612	0,067	-0,044
-139,702	800,000	0,039	-0,091
-138,687	-200,000	0,001	0,166
-137,672	20,053	0,118	-0,068
-136,658	-44,970	0,096	-0,034
-135,643	-200,000	0,020	-0,111
-134,629	82,059	-0,032	0,025
-133,614	-85,088	-0,043	-0,010
-132,599	-89,331	0,053	0,011
-131,585	361,549	0,060	0,086
-130,570	800,000	0,043	0,098
-129,556	699,725	-0,089	-0,169
-128,541	800,000	-0,031	0,071
-127,526	-200,000	0,001	-0,081
-126,512	287,656	-0,029	-0,037
-125,497	193,764	0,057	0,062
-124,483	-41,563	-0,128	0,047
-123,468	234,480	0,038	-0,045
-122,453	-200,000	-0,013	-0,160
-121,439	-200,000	0,007	-0,102
-120,424	-121,687	0,163	-0,019
-119,410	800,000	0,018	0,042
-118,395	31,205	0,132	-0,081
-117,380	-200,000	-0,000	0,118
-116,366	265,704	-0,064	0,081
-115,351	-200,000	-0,014	-0,148
-114,337	-60,962	0,156	0,047
-113,322	-200,000	-0,003	-0,049
-112,307	24,578	-0,092	0,054
-111,293	451,920	0,070	0,112
-110,278	80,925	-0,074	0,057
-109,264	-128,755	-0,110	0,011
-108,249	468,467	-0,037	-0,059
-107,234	-139,917	-0,041	0,003
-106,220	526,039	0,079	-0,134
-105,205	-145,864	-0,066	0,004
-104,191	109,081	-0,038	-0,033
-103,176	800,000	0,011	-0,029
-102,162	-23,160	-0,075	-0,032
-101,147	-200,000	0,018	0,060
-100,132	790,423	0,010	0,021
-99,118	148,549	0,063	-0,061
-98,103	-200,000	0,017	0,147
-97,089	166,572	-0,045	0,045
-96,074	121,567	-0,089	0,080
-95,059	557,145	-0,059	-0,102
-94,045	-33,733	-0,168	0,066
-93,030	2,804	-0,054	0,028
-92,016	18,532	-0,126	-0,072
-91,001	745,811	-0,087	0,168
-89,986	-104,982	0,088	-0,014
-88,972	-98,787	0,154	-0,028
-87,957	36,245	-0,113	-0,071
-86,943	-200,000	-0,002	0,043
-85,928	519,836	0,033	-0,056
-84,913	198,774	0,047	0,052
-83,899	206,530	-0,065	0,073
-82,884	-200,000	-0,009	0,076
-81,870	142,937	0,046	-0,044
-80,855	-21,400	-0,087	-0,038
-79,840	-61,317	-0,091	0,027
-78,826	210,576	-0,096	-0,108
-77,811	133,752	0,016	0,015
-76,797	323,026	-0,006	-0,008
-75,782	-75,940	0,139	-0,035
-74,767	6,605	0,068	0,036
-73,753	-154,122	-0,187	0,009
-72,738	56,600	-0,068	-0,048
-71,724	800,000	0,024	0,065
-70,709	-200,000	-0,018	-0,120
-69,694	118,712	0,131	-0,116
-68,680	95,750	-0,092	0,075
-67,665	118,812	0,036	0,032
-66,651	-200,000	0,008	-0,038
-65,636	219,888	0,067	-0,077
-64,622	-120,640	0,112	-0,013
-63,607	220,716	-0,075	0,086
-62,592	119,684	0,050	-0,044
-61,578	-200,000	-0,048	0,172
-60,563	-200,000	0,058	0,185
-59,549	31,053	0,038	0,023
-58,534	-5,154	-1,958	-0,962
-57,519	-200,000	-0,144	-0,804
-56,505	-200,000	-1,332	-4,989
-55,490	64,730	0,830	0,599
-54,476	800,000	5,302	12,120
-53,461	-200,000	17,828	292,257
-52,446	800,000	730,308	2237,094
-51,432	535,687	1646,458	2809,440
-50,417	108,772	1636,419	1400,672
-49,403	73,603	1287,318	965,024
-48,388	31,176	1027,197	629,978
-47,373	19,997	989,040	569,771
-46,359	18,121	976,829	556,577
-45,344	15,067	972,873	544,325
-44,330	15,379	971,342	544,465
-43,315	14,839	969,324	541,554
-42,300	14,811	968,227	540,830
-41,286	14,804	967,345	540,291
-40,271	14,788	966,327	539,648
-39,257	14,807	965,364	539,153
-38,242	14,767	964,696	538,628
-37,227	14,867	963,651	538,346
-36,213	14,775	962,960	537,640
-35,198	14,831	961,957	537,242
-34,184	14,781	961,361	536,726
-33,169	14,741	960,319	535,994
-32,154	14,829	959,415	535,751
-31,140	14,821	958,453	535,168
-30,125	14,818	957,820	534,783
-29,111	14,824	956,851	534,241
-28,096	14,777	956,311	533,767
-27,082	14,803	955,558	533,409
-26,067	14,838	954,673	533,006
-25,052	14,864	953,907	532,639
-24,038	14,823	953,287	532,141
-23,023	14,789	952,919	531,807
-22,009	14,859	952,038	531,518
-20,994	14,803	951,558	531,049
-19,979	14,841	950,892	530,777
-18,965	14,796	950,122	530,183
-17,950	14,846	949,475	529,961
-16,936	14,793	948,820	529,403
-15,921	14,795	948,215	529,051
-14,906	14,715	947,441	528,346
-13,892	14,766	946,774	528,113
-12,877	14,698	946,224	527,569
-11,863	14,732	945,403	527,201
-10,848	14,698	945,285	527,004
-9,833	14,819	944,603	526,988
-8,819	14,810	943,917	526,556
-7,804	14,776	943,344	526,108
-6,790	14,764	942,792	525,741
-5,775	14,764	942,326	525,461
-4,760	14,739	941,577	524,941
-3,746	14,771	940,995	524,698
-2,731	14,596	940,329	523,753
-1,717	14,564	939,596	523,224
-0,702	14,510	939,223	522,825
0,313	14,335	938,375	522,590
1,327	17,587	936,218	531,565
2,342	26,467	792,872	473,638
3,356	23,313	458,251	268,912
4,371	-3,648	314,705	156,032
5,386	-7,416	296,491	143,177
6,400	-9,331	290,722	138,478
7,415	-9,671	287,990	136,831
8,429	-9,901	286,475	135,874
9,444	-10,135	285,721	135,275
10,459	-10,063	285,199	135,086
11,473	-10,267	284,453	134,523
12,488	-10,173	284,166	134,466
13,502	-10,137	283,493	134,170
14,517	-10,236	282,930	133,796
15,531	-10,443	282,461	133,363
16,546	-10,321	281,982	133,242
17,561	-10,313	281,543	133,031
18,575	-10,227	281,261	132,968
19,590	-10,345	280,887	132,667
20,604	-10,398	280,700	132,515
21,619	-10,497	280,229	132,187
22,634	-10,376	279,991	132,178
23,648	-10,354	279,441	131,928
24,663	-10,413	279,241	131,765
25,677	-10,475	279,145	131,650
26,692	-10,455	278,811	131,499
27,707	-10,450	278,577	131,382
28,721	-10,295	278,250	131,363
29,736	-10,544	278,167	131,076
30,750	-10,452	277,660	130,913
31,765	-10,423	277,627	130,913
32,780	-10,470	277,280	130,693
33,794	-10,509	276,976	130,501
34,809	-10,484	276,744	130,403
35,823	-10,552	276,598	130,259
36,838	-10,502	276,174	130,095
37,853	-10,414	275,893	130,033
38,867	-10,351	275,734	130,007
39,882	-10,543	275,600	129,752
40,896	-10,545	275,224	129,561
41,911	-10,585	274,906	129,362
42,926	-10,603	274,841	129,304
43,940	-10,590	274,573	129,177
44,955	-10,469	274,286	129,144
45,969	-10,659	274,191	128,911
46,984	-10,546	273,758	128,801
47,999	-10,873	273,645	128,431
49,013	-10,860	273,427	128,330
50,028	-11,035	273,049	127,978
51,042	-11,041	272,945	127,912
52,057	-11,112	272,695	127,718
53,071	-11,071	272,426	127,619
54,086	-10,950	272,260	127,641
55,101	-10,865	272,111	127,639
56,115	-10,586	271,725	127,705
57,130	-10,317	271,774	127,965
58,144	-10,132	271,449	127,972
59,159	-10,017	271,218	127,957
60,174	-10,261	271,030	127,632
61,188	-10,104	270,770	127,643
62,203	-10,250	270,525	127,381
63,217	-10,581	270,350	126,984
64,232	-10,519	270,151	126,935
65,247	-10,283	269,886	127,016
66,261	-10,231	269,552	126,896
67,276	-10,498	269,289	126,516
68,290	-10,676	269,200	126,300
69,305	-10,797	268,956	126,063
70,320	-10,432	268,762	126,295
71,334	-10,431	268,556	126,188
72,349	-10,252	268,349	126,243
73,363	-10,156	268,230	126,263
74,378	-10,368	268,065	125,981
75,393	-10,447	267,692	125,723
76,407	-10,358	267,453	125,680
77,422	-10,602	267,368	125,407
78,436	-10,421	267,053	125,413
79,451	-10,281	266,704	125,364
80,466	-10,461	266,527	125,107
81,480	-10,484	266,385	125,008
82,495	-10,465	266,088	124,875
83,509	-10,419	265,931	124,831
84,524	-10,562	265,828	124,643
85,539	-10,628	265,514	124,425
86,553	-10,560	265,264	124,358
87,568	-10,660	265,110	124,185
88,582	-10,494	264,962	124,254
89,597	-10,431	264,670	124,163
90,611	-10,360	264,493	124,132
91,626	-10,282	264,383	124,139
92,641	-10,325	264,189	123,999
93,655	-10,290	264,032	123,945
94,670	-10,315	263,756	123,782
95,684	-10,460	263,599	123,568
96,699	-10,430	263,385	123,483
97,714	-10,636	263,177	123,191
98,728	-10,493	262,863	123,161
99,743	-10,503	262,644	123,038
100,757	-10,576	262,485	122,888
101,772	-10,621	262,320	122,760
102,787	-10,429	262,219	122,871
103,801	-10,357	262,026	122,835
104,816	-10,330	261,878	122,778
105,830	-10,332	261,474	122,576
106,845	-10,179	261,381	122,656
107,860	-10,299	261,234	122,471
108,874	-10,294	261,011	122,359
109,889	-10,212	260,768	122,307
110,903	-10,256	260,688	122,220
111,918	-10,238	260,377	122,080
112,933	-10,244	260,156	121,959
113,947	-10,308	260,081	121,857
114,962	-10,244	259,799	121,770
115,976	-10,308	259,682	121,648
116,991	-10,430	259,498	121,444
118,006	-10,398	259,051	121,252
119,020	-10,382	259,153	121,303
120,035	-10,486	259,061	121,158
121,049	-10,240	258,775	121,229
122,064	-10,425	258,557	120,954
123,079	-10,461	258,432	120,853
124,093	-10,474	258,200	120,723
125,108	-10,434	258,008	120,657
126,122	-10,680	257,678	120,278
127,137	-10,736	257,453	120,113
128,151	-10,537	257,339	120,222
129,166	-10,485	257,078	120,134
130,181	-10,462	256,978	120,098
131,195	-10,503	256,661	119,903
132,210	-10,359	256,557	119,968
133,224	-10,495	256,520	119,823
134,239	-10,446	256,318	119,760
135,254	-10,335	256,049	119,720
136,268	-10,259	255,740	119,630
137,283	-10,568	255,626	119,299
138,297	-10,745	255,463	119,060
139,312	-10,564	255,169	119,068
140,327	-10,414	255,132	119,170
141,341	-10,321	255,062	119,206
142,356	-10,139	254,785	119,223
143,370	-10,051	254,509	119,159
144,385	-10,235	254,368	118,924
145,400	-10,232	254,194	118,835
146,414	-10,132	254,089	118,861
147,429	-10,149	253,806	118,703
148,443	-10,243	253,753	118,588
149,458	-10,183	253,578	118,546
150,473	-10,275	253,379	118,364
151,487	-10,126	253,002	118,305
152,502	-10,194	252,937	118,206
153,516	-10,028	252,704	118,228
154,531	-10,082	252,504	118,078
155,546	-10,128	252,401	117,980
156,560	-10,084	252,152	117,891
157,575	-10,192	251,994	117,714
158,589	-10,124	251,805	117,673
159,604	-10,010	251,600	117,664
160,619	-9,948	251,343	117,586
161,633	-10,115	251,301	117,413
162,648	-10,108	251,255	117,388
163,662	-10,090	250,977	117,263
164,677	-10,074	250,781	117,174
165,692	-10,165	250,690	117,045
166,706	-10,024	250,553	117,089
167,721	-10,180	250,472	116,909
168,735	-10,104	250,274	116,870
169,750	-10,040	250,046	116,807
170,764	-10,160	249,931	116,642
171,779	-10,026	249,746	116,658
172,794	-10,053	249,695	116,601
173,808	-10,014	249,425	116,497
174,823	-10,300	249,025	116,060
175,837	-10,664	248,960	115,714
176,852	-10,249	248,843	115,998
177,867	-10,028	248,717	116,114
178,881	-10,024	248,553	116,030
179,896	-10,076	248,407	115,908
180,910	-10,003	248,101	115,816
181,925	-9,964	247,946	115,766
182,940	-10,161	247,813	115,529
183,954	-10,023	247,761	115,610
184,969	-9,972	247,633	115,582
185,983	-10,079	247,466	115,405
186,998	-10,147	247,203	115,215
188,013	-10,110	247,168	115,219
189,027	-9,870	246,789	115,231
190,042	-9,972	246,592	115,044
191,056	-9,794	246,503	115,140
192,071	-9,928	246,404	114,973
193,086	-10,032	246,124	114,746
194,100	-9,813	246,027	114,872
195,115	-9,896	245,803	114,689
196,129	-9,849	245,626	114,634
197,144	-9,954	245,443	114,452
198,159	-9,868	245,291	114,442
199,173	-9,933	245,084	114,282
200,188	-9,705	244,805	114,328
201,202	-10,148	244,619	113,868
202,217	-10,339	244,292	113,548
203,232	-10,392	244,103	113,407
204,246	-9,958	244,297	113,843
205,261	-9,150	244,067	114,388
206,275	-9,797	243,909	113,774
207,290	-7,851	244,512	115,641
208,304	-3,498	246,205	120,023
209,319	-0,361	246,864	122,923
210,334	-0,056	246,726	123,094
211,348	0,387	246,606	123,389
212,363	0,591	246,633	123,558
213,377	0,870	246,694	123,807
214,392	1,060	246,562	123,886
215,407	0,944	246,324	123,661
216,421	0,909	246,090	123,503
217,436	1,000	246,000	123,522
218,450	1,098	245,840	123,511
219,465	0,969	245,762	123,355
220,480	0,872	245,600	123,183
221,494	0,982	245,408	123,167
222,509	1,253	245,254	123,300
223,523	1,043	244,941	122,959
224,538	0,844	244,838	122,735
225,553	0,882	244,545	122,607
226,567	1,041	244,468	122,687
227,582	1,236	244,443	122,822
228,596	1,192	244,312	122,710
229,611	1,026	244,062	122,439
230,626	0,944	243,894	122,278
231,640	1,143	243,594	122,277
232,655	0,986	243,781	122,233
233,669	1,025	243,498	122,112
234,684	0,941	243,267	121,917
235,699	1,292	243,184	122,148
236,713	1,324	242,929	122,036
237,728	0,858	242,859	121,613
238,742	1,060	242,634	121,652
239,757	1,146	242,349	121,568
240,772	0,921	242,279	121,341
241,786	0,958	241,989	121,215
242,801	0,760	241,743	120,921
243,815	0,717	241,774	120,891
244,830	0,822	241,794	120,975
245,844	1,084	241,726	121,140
246,859	1,119	241,261	120,925
247,874	0,924	241,271	120,762
248,888	1,186	241,036	120,844
249,903	1,169	241,042	120,823
250,917	1,301	240,789	120,791
251,932	1,358	240,680	120,772
252,947	1,002	240,464	120,367
253,961	0,932	240,207	120,172
254,976	1,232	240,123	120,359
255,990	1,261	239,926	120,273
257,005	0,742	239,672	119,721
258,020	0,706	239,624	119,658
259,034	0,773	239,426	119,601
260,049	0,817	239,360	119,593
261,063	0,964	239,157	119,597
262,078	0,745	239,120	119,394
263,093	1,135	238,852	119,559
264,107	1,105	238,877	119,538
265,122	1,273	238,432	119,437
266,136	1,149	238,453	119,339
267,151	1,389	238,454	119,518
268,166	1,012	238,079	119,022
269,180	0,622	237,940	118,634
270,195	1,366	237,984	119,233
271,209	1,613	237,830	119,340
272,224	1,187	237,426	118,791
273,239	0,819	237,314	118,435
274,253	1,027	237,149	118,505
275,268	1,150	237,105	118,570
276,282	0,957	236,817	118,264
277,297	0,847	236,808	118,162
278,312	0,998	236,495	118,113
279,326	1,069	236,413	118,118
280,341	1,096	236,383	118,114
281,355	1,078	236,220	118,007
282,370	1,143	236,066	117,970
283,384	1,197	235,807	117,874
284,399	0,925	235,687	117,590
285,414	1,093	235,501	117,618
286,428	0,994	235,392	117,476
287,443	1,156	235,288	117,540
288,457	1,484	235,118	117,700
289,472	1,266	235,214	117,567
290,487	1,257	234,757	117,321
291,501	0,732	234,665	116,857
292,516	0,716	234,282	116,643
293,530	0,761	234,114	116,584
294,545	1,307	234,161	117,021
295,560	1,157	234,031	116,829
296,574	0,821	233,762	116,424
297,589	0,802	233,633	116,335
298,603	1,247	233,547	116,626
299,618	1,570	233,424	116,803
300,633	1,522	233,371	116,730
301,647	1,403	233,180	116,532
302,662	1,531	233,161	116,611
303,676	1,758	233,048	116,719
304,691	1,562	232,922	116,494
305,706	1,490	232,753	116,344
306,720	1,418	232,610	116,207
307,735	1,350	232,413	116,045
308,749	1,059	232,163	115,687
309,764	0,896	232,013	115,477
310,779	0,673	231,841	115,210
311,793	0,812	231,514	115,144
312,808	0,856	231,329	115,075
313,822	0,886	231,284	115,065
314,837	0,863	231,036	114,914
315,852	0,606	230,970	114,675
316,866	0,894	231,003	114,901
317,881	1,266	230,760	115,053
318,895	1,273	230,793	115,065
319,910	1,670	230,733	115,328
320,925	1,305	230,326	114,836
321,939	1,121	230,136	114,591
322,954	1,402	230,181	114,817
323,968	1,727	230,028	114,977
324,983	1,521	229,858	114,726
325,997	1,332	229,797	114,542
327,012	1,270	229,510	114,341
328,027	1,165	229,299	114,147
329,041	1,315	229,171	114,186
330,056	1,601	229,381	114,497
331,070	1,846	229,165	114,564
332,085	1,767	228,848	114,336
333,100	1,666	228,789	114,220
334,114	1,576	228,609	114,052
335,129	1,740	228,494	114,108
336,143	1,597	228,292	113,889
337,158	1,570	228,064	113,745
338,173	1,431	228,195	113,696
339,187	1,494	227,818	113,545
340,202	1,526	227,683	113,492
341,216	1,600	227,597	113,494
342,231	1,419	227,397	113,249
343,246	1,487	227,303	113,243
344,260	1,672	227,236	113,338
345,275	1,703	227,157	113,312
346,289	1,747	226,763	113,138
347,304	1,824	226,799	113,204
348,319	1,939	226,712	113,236
349,333	1,506	226,417	112,755
350,348	1,455	226,348	112,673
351,362	1,654	226,136	112,706
352,377	1,256	225,902	112,282
353,392	1,143	225,821	112,149
354,406	1,362	225,739	112,261
355,421	196,737	1317,340	1395,247
356,435	157,761	1450,326	1395,237
