DTS Sentinel unit serial number:	SN410029Multiplexer serial number:	ORYXHardware model number:	OX2-SRSoftware version number:	ORYX F/W v4,00 Oryx Data Collector v3.7.2.0data status	okinstallation	B5 Nyhavnadifferential loss correction	single-endedforward channel	channel 2reverse channel	N/Adate	2023/12/13time	00:47:13forward acquisition time	300,00reverse acquisition time	0,00gamma	499,1914k internal	0,3159k external	0,3159temperature offset calibration	1,0000default loss term (dB/km)	0,3820temperature slope calibration	1,0000multiplexer offset coefficient	1,0000multiplexer slope coefficient	1,0000fibre end	0,00T internal ref (°C)	14,22T ext. ref 1 (°C)	-2,26T ext. ref 2 (°C)	-2,56length (m)	temperature (°C)	Stokes	anti-Stokes-744,400	800,000	0,025	-0,077
-743,385	-90,502	-0,263	0,056
-742,371	-100,221	0,133	-0,024
-741,356	-100,568	-0,165	0,030
-740,342	-7,521	0,080	0,040
-739,327	-53,554	-0,312	-0,104
-738,312	400,331	-0,039	0,060
-737,298	-124,979	-0,424	-0,048
-736,283	-1,005	0,201	-0,104
-735,269	7,647	-0,315	-0,173
-734,254	164,267	0,037	0,039
-733,239	-1,220	-0,477	-0,247
-732,225	-11,144	0,221	0,107
-731,210	73,446	-0,057	0,044
-730,196	155,496	-0,077	-0,078
-729,181	44,340	-0,141	-0,095
-728,167	268,985	-0,042	0,054
-727,152	-0,706	0,109	0,057
-726,137	9,024	-0,095	-0,053
-725,123	-60,251	-0,192	-0,060
-724,108	-4,896	0,002	0,001
-723,094	800,000	0,031	-0,087
-722,079	78,666	-0,116	-0,091
-721,064	243,632	0,010	0,013
-720,050	105,416	-0,055	0,048
-719,035	800,000	0,039	0,126
-718,021	-100,633	-0,097	0,017
-717,006	-177,428	-0,031	0,001
-715,991	236,279	-0,107	-0,131
-714,977	53,569	-0,056	-0,039
-713,962	-134,449	-0,069	0,006
-712,948	-200,000	-0,011	-0,148
-711,933	324,080	-0,025	0,036
-710,918	-200,000	0,008	0,096
-709,904	-125,618	-0,072	-0,008
-708,889	-116,168	-0,124	-0,017
-707,875	-41,707	-0,157	-0,059
-706,860	-107,312	0,034	0,005
-705,845	-161,651	-0,137	0,005
-704,831	150,537	0,041	0,041
-703,816	-114,110	-0,048	-0,007
-702,802	-200,000	-0,023	-0,085
-701,787	203,319	-0,178	0,202
-700,772	-5,554	0,122	-0,061
-699,758	437,335	0,073	-0,118
-698,743	-36,276	-0,036	-0,014
-697,729	-51,246	0,051	-0,018
-696,714	73,621	0,089	0,068
-695,699	-21,199	-0,115	0,051
-694,685	-200,000	-0,015	-0,067
-693,670	-99,048	0,023	-0,004
-692,656	193,242	-0,080	0,089
-691,641	-168,776	0,092	-0,003
-690,627	-47,765	-0,179	0,064
-689,612	-139,544	-0,057	-0,004
-688,597	-84,686	-0,127	-0,029
-687,583	-50,731	-0,140	0,048
-686,568	-136,082	0,115	-0,010
-685,554	-67,489	-0,139	-0,040
-684,539	-200,000	0,000	-0,035
-683,524	-200,000	0,028	0,096
-682,510	-125,936	0,120	0,013
-681,495	-74,084	-0,065	0,017
-680,481	-63,604	-0,165	-0,050
-679,466	-129,094	0,081	0,008
-678,451	-200,000	0,006	-0,050
-677,437	213,147	-0,054	-0,063
-676,422	800,000	0,038	0,120
-675,408	781,737	-0,024	0,048
-674,393	800,000	0,022	0,069
-673,378	-114,384	-0,086	0,012
-672,364	-69,377	-0,060	0,017
-671,349	727,497	-0,032	-0,064
-670,335	154,514	-0,044	-0,044
-669,320	453,071	0,018	0,030
-668,305	800,000	0,047	-0,113
-667,291	9,825	0,090	0,050
-666,276	221,179	-0,048	-0,056
-665,262	-120,526	-0,051	0,006
-664,247	208,532	0,075	-0,086
-663,232	-39,224	-0,108	-0,041
-662,218	74,418	0,038	0,029
-661,203	-11,157	0,073	0,035
-660,189	-67,059	0,141	0,041
-659,174	75,880	0,043	0,033
-658,159	96,100	-0,101	-0,085
-657,145	-39,137	-0,159	-0,061
-656,130	9,401	-0,033	-0,018
-655,116	216,468	0,040	0,046
-654,101	4,321	0,083	0,045
-653,086	-200,000	0,021	0,103
-652,072	-200,000	-0,013	-0,242
-651,057	244,645	0,055	-0,068
-650,043	-200,000	0,003	-0,036
-649,028	-47,305	-0,136	-0,048
-648,014	-80,290	0,142	-0,035
-646,999	800,000	-0,055	0,122
-645,984	-200,000	-0,128	0,000
-644,970	59,551	-0,097	-0,070
-643,955	297,965	-0,040	-0,053
-642,941	-200,000	0,030	-0,104
-641,926	-52,039	0,066	0,022
-640,911	184,204	-0,074	-0,081
-639,897	-200,000	0,005	-0,050
-638,882	-25,361	-0,154	0,066
-637,868	-5,584	-0,080	0,040
-636,853	-66,820	-0,089	-0,026
-635,838	800,000	0,007	0,018
-634,824	-68,939	0,061	0,017
-633,809	88,078	0,072	0,059
-632,795	-30,472	0,070	-0,029
-631,780	700,829	-0,054	0,105
-630,765	336,751	-0,094	0,135
-629,751	197,472	-0,059	-0,067
-628,736	800,000	0,030	-0,062
-627,722	238,584	-0,131	-0,160
-626,707	800,000	-0,053	-0,148
-625,692	137,304	0,089	-0,086
-624,678	230,667	0,027	-0,032
-623,663	-200,000	0,010	-0,125
-622,649	-200,000	-0,017	-0,106
-621,634	-138,859	-0,114	-0,009
-620,619	433,333	-0,001	0,002
-619,605	-200,000	0,034	-0,120
-618,590	178,081	0,043	0,046
-617,576	800,000	0,046	-0,135
-616,561	35,293	0,029	0,019
-615,546	800,000	-0,062	-0,130
-614,532	176,238	-0,042	-0,045
-613,517	-200,000	-0,028	-0,106
-612,503	-28,218	-0,031	0,013
-611,488	397,010	0,022	0,034
-610,474	-88,381	0,125	-0,027
-609,459	472,428	-0,064	0,107
-608,444	639,171	0,018	0,033
-607,430	800,000	0,030	-0,076
-606,415	-200,000	-0,001	-0,033
-605,401	68,719	0,061	0,046
-604,386	209,218	0,048	-0,055
-603,371	-11,224	0,139	-0,067
-602,357	-109,765	-0,036	-0,006
-601,342	-156,988	-0,086	-0,004
-600,328	14,836	-0,050	-0,028
-599,313	279,656	-0,058	-0,076
-598,298	-200,000	0,015	0,071
-597,284	90,852	-0,057	-0,047
-596,269	46,351	-0,032	-0,022
-595,255	-200,000	0,004	-0,176
-594,240	-69,159	-0,005	-0,002
-593,225	-15,298	0,048	0,023
-592,211	11,336	-0,067	0,038
-591,196	-103,497	0,023	-0,004
-590,182	800,000	0,013	-0,033
-589,167	-48,772	0,038	0,013
-588,152	97,074	0,052	0,044
-587,138	-30,609	-0,021	0,009
-586,123	-200,000	-0,031	-0,143
-585,109	147,924	-0,119	-0,118
-584,094	-200,000	0,049	-0,202
-583,079	223,789	-0,045	0,053
-582,065	-200,000	0,012	-0,056
-581,050	453,864	0,037	0,059
-580,036	-164,301	-0,181	-0,006
-579,021	581,492	0,035	-0,063
-578,006	-200,000	0,046	-0,204
-576,992	22,998	-0,149	0,090
-575,977	-200,000	-0,018	0,124
-574,963	218,922	0,035	-0,041
-573,948	117,569	0,068	0,061
-572,934	-46,222	-0,104	-0,037
-571,919	-98,177	-0,099	0,018
-570,904	-200,000	-0,020	-0,074
-569,890	-77,535	-0,102	-0,026
-568,875	-142,597	0,131	-0,009
-567,861	-200,000	-0,002	-0,060
-566,846	-106,623	-0,102	-0,017
-565,831	36,903	0,008	-0,005
-564,817	-200,000	-0,001	-0,090
-563,802	-4,051	-0,086	-0,044
-562,788	2,725	0,137	-0,072
-561,773	800,000	0,046	-0,096
-560,758	38,181	0,073	0,048
-559,744	28,307	0,062	-0,038
-558,729	-174,427	-0,079	0,002
-557,715	42,470	0,037	-0,025
-556,700	72,799	-0,074	-0,056
-555,685	162,784	0,116	-0,119
-554,671	-109,112	-0,067	-0,010
-553,656	256,930	0,029	0,036
-552,642	127,395	0,111	0,103
-551,627	-131,706	-0,116	-0,011
-550,612	-200,000	-0,032	-0,169
-549,598	12,353	-0,091	0,051
-548,583	-200,000	0,021	-0,091
-547,569	800,000	0,039	0,097
-546,554	-66,537	-0,038	-0,011
-545,539	184,226	0,096	0,104
-544,525	69,534	0,086	0,065
-543,510	81,950	-0,073	-0,058
-542,496	-200,000	0,013	0,146
-541,481	149,160	-0,179	0,178
-540,466	3,535	0,080	-0,043
-539,452	-22,777	0,033	-0,015
-538,437	238,024	-0,014	0,017
-537,423	59,749	-0,042	0,031
-536,408	601,536	-0,019	-0,035
-535,393	-21,472	-0,060	-0,027
-534,379	-65,183	-0,151	0,044
-533,364	-41,629	0,035	0,013
-532,350	62,765	-0,075	-0,055
-531,335	122,089	-0,031	-0,029
-530,321	-200,000	0,003	0,022
-529,306	105,196	0,030	0,025
-528,291	-200,000	-0,004	-0,117
-527,277	-200,000	0,020	-0,084
-526,262	694,087	0,051	0,098
-525,248	800,000	-0,029	-0,065
-524,233	-200,000	-0,036	0,216
-523,218	185,476	0,063	-0,069
-522,204	308,753	-0,038	0,052
-521,189	-200,000	0,011	-0,067
-520,175	-200,000	-0,004	-0,091
-519,160	31,863	-0,068	0,043
-518,145	-134,597	0,154	0,014
-517,131	-11,900	0,092	0,044
-516,116	276,279	0,084	0,110
-515,102	-200,000	-0,017	-0,084
-514,087	23,903	0,101	0,061
-513,072	-87,237	0,035	-0,008
-512,058	52,223	-0,036	-0,025
-511,043	50,181	0,036	0,024
-510,029	-200,000	-0,003	-0,073
-509,014	-118,246	0,164	0,021
-507,999	800,000	-0,041	0,099
-506,985	-94,842	-0,199	-0,039
-505,970	800,000	-0,013	0,032
-504,956	-200,000	0,023	-0,161
-503,941	-200,000	-0,011	-0,157
-502,926	800,000	0,045	0,121
-501,912	-69,343	0,109	0,030
-500,897	-93,093	0,092	-0,018
-499,883	126,232	-0,126	-0,116
-498,868	131,901	-0,019	-0,018
-497,853	70,449	0,030	0,023
-496,839	88,255	-0,013	0,011
-495,824	-200,000	-0,009	0,127
-494,810	-200,000	-0,011	0,090
-493,795	687,744	-0,067	0,128
-492,781	223,599	-0,055	0,065
-491,766	655,460	-0,017	-0,033
-490,751	457,727	-0,121	-0,197
-489,737	-200,000	0,012	-0,047
-488,722	375,323	0,031	0,047
-487,708	-200,000	0,022	-0,092
-486,693	140,723	-0,098	-0,095
-485,678	800,000	-0,049	-0,135
-484,664	800,000	-0,013	-0,040
-483,649	800,000	0,025	-0,068
-482,635	-200,000	0,006	-0,140
-481,620	497,973	-0,015	-0,025
-480,605	-200,000	-0,008	-0,084
-479,591	77,585	0,091	0,071
-478,576	443,600	-0,040	0,064
-477,562	-15,316	-0,073	-0,034
-476,547	-200,000	0,002	0,014
-475,532	-24,807	0,179	-0,077
-474,518	135,242	0,078	-0,074
-473,503	-122,940	-0,044	-0,005
-472,489	36,952	0,046	-0,030
-471,474	-200,000	-0,011	-0,043
-470,459	-177,002	-0,122	-0,002
-469,445	166,063	-0,114	-0,118
-468,430	-200,000	-0,027	-0,091
-467,416	-2,462	0,037	0,019
-466,401	800,000	-0,046	0,112
-465,386	-200,000	0,008	0,044
-464,372	800,000	0,054	0,133
-463,357	133,317	0,064	-0,061
-462,343	-30,270	-0,031	-0,013
-461,328	471,711	0,041	-0,067
-460,313	120,109	-0,024	-0,022
-459,299	-200,000	0,012	0,091
-458,284	219,810	-0,041	-0,048
-457,270	-200,000	0,022	-0,254
-456,255	45,423	-0,117	0,079
-455,241	102,427	-0,046	0,040
-454,226	141,153	-0,044	0,043
-453,211	117,808	-0,120	0,107
-452,197	140,821	0,040	0,039
-451,182	290,143	0,074	0,098
-450,168	-200,000	-0,003	-0,014
-449,153	-57,527	-0,031	0,010
-448,138	30,881	0,060	-0,037
-447,124	-200,000	-0,011	0,137
-446,109	89,285	-0,049	-0,040
-445,095	-195,177	0,043	0,000
-444,080	242,325	-0,035	0,043
-443,065	244,712	-0,077	0,094
-442,051	-61,528	0,096	-0,029
-441,036	126,338	-0,048	0,044
-440,022	800,000	-0,040	0,111
-439,007	302,545	-0,043	-0,058
-437,992	-21,773	0,064	-0,028
-436,978	189,000	0,019	0,021
-435,963	800,000	0,077	0,160
-434,949	-200,000	0,011	0,061
-433,934	12,089	0,179	-0,100
-432,919	307,150	-0,062	-0,084
-431,905	800,000	-0,029	0,085
-430,890	4,224	0,147	-0,078
-429,876	800,000	0,006	0,017
-428,861	-59,938	0,137	-0,042
-427,846	-200,000	0,001	0,055
-426,832	94,383	0,068	0,056
-425,817	-137,988	-0,120	-0,010
-424,803	412,542	0,067	-0,104
-423,788	-73,782	0,044	0,012
-422,773	-159,706	0,112	-0,004
-421,759	720,748	-0,018	0,035
-420,744	-200,000	-0,008	0,066
-419,730	132,436	-0,188	-0,177
-418,715	84,435	-0,101	-0,080
-417,701	239,947	-0,086	0,104
-416,686	75,740	-0,062	-0,048
-415,671	-200,000	-0,013	-0,046
-414,657	674,668	0,030	-0,056
-413,642	-200,000	-0,012	-0,062
-412,628	-117,398	-0,072	0,009
-411,613	800,000	-0,057	-0,157
-410,598	-200,000	-0,004	-0,050
-409,584	217,865	-0,080	-0,093
-408,569	193,065	0,065	-0,072
-407,555	121,830	0,088	-0,080
-406,540	-129,498	0,070	0,007
-405,525	-2,061	-0,077	0,039
-404,511	-162,609	-0,120	-0,004
-403,496	595,434	-0,037	0,066
-402,482	-19,836	-0,189	0,084
-401,467	-200,000	0,022	-0,077
-400,452	45,039	0,040	0,027
-399,438	800,000	-0,021	0,065
-398,423	-16,834	-0,155	0,071
-397,409	-179,337	-0,056	-0,001
-396,394	800,000	-0,049	-0,129
-395,379	18,813	0,150	-0,087
-394,365	21,658	0,060	-0,036
-393,350	161,051	-0,067	0,068
-392,336	-88,806	-0,072	0,015
-391,321	355,368	0,040	0,058
-390,306	800,000	-0,050	-0,130
-389,292	-98,378	0,164	0,030
-388,277	-85,592	0,105	-0,024
-387,263	242,047	-0,091	0,111
-386,248	-200,000	-0,014	0,195
-385,233	-84,685	0,110	0,025
-384,219	726,411	0,027	-0,053
-383,204	-50,073	-0,088	-0,030
-382,190	-21,741	-0,057	-0,025
-381,175	-140,555	0,124	-0,009
-380,160	184,738	-0,047	0,051
-379,146	-6,797	-0,034	0,017
-378,131	657,922	-0,038	-0,072
-377,117	800,000	-0,013	-0,029
-376,102	241,047	-0,110	-0,134
-375,088	-200,000	0,006	-0,030
-374,073	681,157	-0,027	0,051
-373,058	-200,000	0,008	0,112
-372,044	-30,528	0,118	0,049
-371,029	-200,000	-0,001	0,095
-370,015	409,340	0,071	0,110
-369,000	-132,585	-0,111	-0,010
-367,985	202,570	-0,106	-0,118
-366,971	64,932	-0,068	-0,049
-365,956	-200,000	0,010	-0,032
-364,942	-12,024	0,174	0,082
-363,927	203,105	-0,077	0,086
-362,912	-128,591	-0,119	-0,012
-361,898	-157,876	0,105	0,004
-360,883	-19,366	-0,093	0,042
-359,869	800,000	-0,042	0,126
-358,854	45,550	0,076	-0,051
-357,839	800,000	0,023	-0,053
-356,825	161,646	0,028	0,029
-355,810	54,022	0,130	0,091
-354,796	-50,640	0,146	-0,050
-353,781	-83,525	-0,103	-0,024
-352,766	223,190	0,072	0,085
-351,752	164,640	0,123	0,126
-350,737	235,333	0,064	0,077
-349,723	-200,000	0,040	0,233
-348,708	-112,190	-0,030	-0,004
-347,693	-200,000	-0,006	-0,098
-346,679	316,165	-0,067	0,092
-345,664	-84,737	0,099	0,022
-344,650	316,019	0,064	-0,088
-343,635	14,533	0,077	-0,044
-342,620	-200,000	0,045	0,188
-341,606	-97,980	-0,133	-0,025
-340,591	33,712	0,067	-0,042
-339,577	416,518	-0,034	-0,052
-338,562	10,411	0,084	0,046
-337,548	800,000	0,011	0,025
-336,533	561,319	0,049	-0,086
-335,518	-121,823	0,116	0,014
-334,504	-86,505	0,076	0,017
-333,489	296,485	-0,007	-0,009
-332,475	-136,550	0,088	-0,007
-331,460	526,623	-0,018	-0,031
-330,445	800,000	0,038	-0,120
-329,431	77,129	0,109	0,084
-328,416	733,104	0,024	0,046
-327,402	-50,426	-0,038	0,013
-326,387	125,421	0,083	-0,076
-325,372	-70,729	-0,089	0,024
-324,358	136,888	0,071	0,067
-323,343	400,405	0,051	0,078
-322,329	23,541	0,065	0,039
-321,314	183,748	0,100	0,108
-320,299	-103,496	0,048	0,008
-319,285	119,715	-0,081	0,073
-318,270	-4,356	-0,115	0,057
-317,256	-59,648	0,076	0,023
-316,241	-34,628	-0,113	0,044
-315,226	155,578	-0,089	-0,089
-314,212	-200,000	-0,013	0,142
-313,197	114,953	0,026	0,023
-312,183	239,278	0,065	0,079
-311,168	53,785	0,030	-0,021
-310,153	-200,000	0,026	0,104
-309,139	438,461	-0,048	0,076
-308,124	86,716	0,068	-0,055
-307,110	-28,984	0,065	0,027
-306,095	124,548	0,041	0,037
-305,080	-138,244	0,012	-0,001
-304,066	-74,432	-0,038	-0,010
-303,051	-15,310	0,168	-0,078
-302,037	9,229	0,099	-0,054
-301,022	800,000	0,032	-0,065
-300,008	373,738	-0,059	0,088
-298,993	-100,487	0,097	0,017
-297,978	149,604	0,049	-0,048
-296,964	-47,846	-0,106	0,037
-295,949	-200,000	-0,020	-0,213
-294,935	-40,143	0,129	-0,048
-293,920	-200,000	0,004	-0,082
-292,905	379,940	-0,026	0,039
-291,891	-200,000	-0,021	-0,128
-290,876	-200,000	0,016	0,120
-289,862	9,523	0,132	0,072
-288,847	-117,832	0,081	-0,010
-287,832	102,395	-0,054	0,046
-286,818	71,981	-0,086	0,065
-285,803	78,323	0,098	0,076
-284,789	-110,558	-0,090	0,013
-283,774	338,389	-0,034	-0,048
-282,759	-65,047	-0,119	0,035
-281,745	499,407	-0,030	-0,051
-280,730	18,451	-0,063	0,037
-279,716	800,000	-0,025	0,072
-278,701	-42,570	-0,087	0,032
-277,686	-38,334	0,070	0,027
-276,672	2,507	-0,138	0,072
-275,657	-200,000	-0,019	-0,093
-274,643	-10,948	-0,133	-0,063
-273,628	-60,639	-0,058	0,018
-272,613	-41,592	-0,133	-0,049
-271,599	7,850	0,085	0,046
-270,584	-200,000	-0,002	0,061
-269,570	236,982	0,065	0,078
-268,555	243,109	0,021	-0,025
-267,540	800,000	-0,057	-0,158
-266,526	-200,000	-0,022	0,109
-265,511	-112,658	-0,113	-0,016
-264,497	-200,000	0,021	0,099
-263,482	800,000	-0,052	-0,147
-262,467	-200,000	0,015	0,139
-261,453	-200,000	-0,016	0,110
-260,438	25,967	-0,119	-0,072
-259,424	456,307	0,030	0,048
-258,409	-67,767	0,055	0,016
-257,395	800,000	0,033	0,092
-256,380	299,868	0,126	0,168
-255,365	-200,000	0,002	0,071
-254,351	800,000	-0,055	0,147
-253,336	12,217	0,016	0,009
-252,322	10,152	0,126	-0,069
-251,307	-200,000	0,002	-0,099
-250,292	20,765	0,083	0,049
-249,278	-200,000	-0,017	0,075
-248,263	800,000	0,041	0,089
-247,249	-200,000	-0,015	0,073
-246,234	610,170	-0,006	0,010
-245,219	-66,974	-0,108	-0,030
-244,205	292,207	0,039	0,052
-243,190	49,396	0,055	-0,037
-242,176	-26,995	0,159	0,067
-241,161	-62,143	0,110	-0,033
-240,146	800,000	0,063	0,163
-239,132	251,987	0,046	-0,056
-238,117	456,504	-0,118	-0,190
-237,103	81,617	-0,100	-0,078
-236,088	800,000	-0,046	0,115
-235,073	390,549	0,051	0,077
-234,059	-120,414	0,046	-0,006
-233,044	-34,543	-0,136	0,054
-232,030	246,850	0,104	0,127
-231,015	-200,000	-0,007	0,039
-230,000	2,159	0,075	0,039
-228,986	32,581	-0,096	-0,060
-227,971	58,063	0,058	0,041
-226,957	170,439	0,076	0,078
-225,942	-200,000	0,049	0,171
-224,927	544,235	0,094	-0,163
-223,913	800,000	-0,047	-0,130
-222,898	-8,536	0,090	0,044
-221,884	-111,774	-0,189	-0,027
-220,869	22,594	0,108	-0,064
-219,855	-101,351	0,120	0,021
-218,840	800,000	-0,028	0,086
-217,825	-107,689	-0,154	-0,024
-216,811	172,858	-0,043	0,045
-215,796	116,770	-0,029	0,026
-214,782	289,488	-0,027	-0,036
-213,767	438,979	0,010	-0,015
-212,752	-146,808	0,185	-0,011
-211,738	540,274	-0,009	-0,015
-210,723	-98,471	-0,059	-0,011
-209,709	-200,000	0,003	-0,063
-208,694	800,000	0,010	0,031
-207,679	221,243	0,029	-0,034
-206,665	-200,000	-0,022	0,095
-205,650	-189,495	-0,121	0,001
-204,636	800,000	0,032	0,098
-203,621	50,610	-0,078	0,053
-202,606	-150,043	-0,034	-0,002
-201,592	352,500	-0,076	0,109
-200,577	215,208	0,030	-0,034
-199,563	453,144	0,011	0,017
-198,548	20,125	0,194	0,113
-197,533	19,207	0,118	0,068
-196,519	-200,000	0,012	-0,069
-195,504	800,000	-0,032	0,082
-194,490	-200,000	-0,020	0,070
-193,475	-200,000	0,036	-0,128
-192,460	-97,453	0,036	-0,007
-191,446	237,547	0,072	-0,087
-190,431	94,983	0,065	-0,053
-189,417	800,000	0,044	-0,114
-188,402	-177,306	-0,044	-0,001
-187,387	209,518	-0,070	-0,080
-186,373	89,680	-0,108	-0,087
-185,358	778,711	-0,026	0,052
-184,344	-200,000	-0,023	0,000
-183,329	-108,045	0,138	-0,021
-182,315	-200,000	-0,004	0,123
-181,300	-200,000	0,004	-0,133
-180,285	50,011	-0,082	0,056
-179,271	-200,000	0,008	-0,051
-178,256	110,656	0,016	-0,014
-177,242	-200,000	-0,003	0,047
-176,227	175,499	0,081	0,084
-175,212	-28,847	0,049	-0,020
-174,198	162,139	0,024	0,024
-173,183	800,000	-0,069	-0,201
-172,169	-12,641	-0,090	0,042
-171,154	286,101	-0,059	0,077
-170,139	165,777	0,114	0,116
-169,125	774,416	0,022	0,044
-168,110	350,364	0,103	0,147
-167,096	-200,000	0,020	0,116
-166,081	-60,309	-0,155	0,047
-165,066	-4,825	-0,083	0,041
-164,052	800,000	-0,027	-0,057
-163,037	-57,446	0,090	-0,028
-162,023	-86,612	0,068	-0,015
-161,008	3,731	0,063	0,033
-159,993	-66,527	-0,063	0,018
-158,979	-63,614	0,068	0,020
-157,964	511,140	-0,026	-0,044
-156,950	550,890	-0,036	-0,063
-155,935	44,083	-0,056	0,037
-154,920	47,667	0,105	0,070
-153,906	800,000	0,026	0,059
-152,891	800,000	-0,028	-0,057
-151,877	-156,591	0,046	0,002
-150,862	800,000	0,019	-0,043
-149,847	3,766	0,074	-0,039
-148,833	481,514	-0,028	-0,045
-147,818	316,232	0,090	0,123
-146,804	800,000	-0,037	0,105
-145,789	800,000	0,016	0,035
-144,775	75,005	-0,090	-0,068
-143,760	-200,000	0,020	0,075
-142,745	-25,374	0,135	-0,057
-141,731	58,580	-0,092	0,065
-140,716	31,767	0,091	0,056
-139,702	-118,154	0,110	0,014
-138,687	9,035	-0,081	0,044
-137,672	35,919	-0,022	-0,014
-136,658	58,614	-0,010	-0,007
-135,643	-200,000	0,003	0,094
-134,629	396,681	-0,105	0,159
-133,614	763,370	-0,027	0,053
-132,599	186,878	0,062	0,066
-131,585	800,000	0,046	0,136
-130,570	800,000	-0,019	0,050
-129,556	800,000	0,013	0,035
-128,541	543,071	-0,123	-0,212
-127,526	14,782	-0,057	0,032
-126,512	-43,299	0,161	0,058
-125,497	-4,801	0,045	0,022
-124,483	-198,211	0,076	-0,000
-123,468	10,485	-0,066	-0,036
-122,453	-170,263	0,039	-0,001
-121,439	336,375	0,026	0,036
-120,424	-86,018	-0,054	-0,012
-119,410	619,458	0,067	0,122
-118,395	-200,000	0,029	0,000
-117,380	-18,788	0,054	-0,024
-116,366	-53,100	-0,092	-0,030
-115,351	47,654	0,042	0,028
-114,337	-50,947	-0,069	-0,023
-113,322	466,791	0,056	0,090
-112,307	800,000	0,022	-0,063
-111,293	535,837	0,060	-0,103
-110,278	-26,647	-0,080	0,033
-109,264	-200,000	0,015	0,100
-108,249	185,618	0,063	0,067
-107,234	-98,185	-0,214	0,039
-106,220	-200,000	-0,020	-0,070
-105,205	211,495	0,040	0,045
-104,191	800,000	-0,017	0,050
-103,176	800,000	0,059	0,129
-102,162	-200,000	0,007	-0,090
-101,147	40,820	-0,060	-0,039
-100,132	-200,000	-0,004	-0,025
-99,118	44,872	0,054	-0,035
-98,103	182,269	-0,088	-0,093
-97,089	800,000	0,036	-0,097
-96,074	145,296	0,018	-0,017
-95,059	89,566	-0,111	-0,089
-94,045	167,527	0,069	0,071
-93,030	388,307	0,038	-0,057
-92,016	-122,478	-0,033	-0,004
-91,001	132,195	-0,081	0,075
-89,986	201,912	-0,108	0,120
-88,972	89,709	-0,034	0,027
-87,957	-200,000	-0,015	0,053
-86,943	800,000	-0,057	0,128
-85,928	-128,838	-0,103	-0,010
-84,913	24,447	-0,127	-0,075
-83,899	-72,444	0,115	-0,030
-82,884	601,320	0,057	0,101
-81,870	800,000	0,025	-0,076
-80,855	800,000	0,031	0,078
-79,840	-197,542	-0,104	0,000
-78,826	418,022	-0,027	0,042
-77,811	-52,546	-0,118	-0,039
-76,797	-200,000	-0,038	-0,129
-75,782	46,548	-0,077	-0,051
-74,767	125,229	0,029	-0,026
-73,753	382,625	0,025	0,037
-72,738	-40,327	0,017	0,006
-71,724	375,423	0,072	-0,105
-70,709	-200,000	0,002	0,015
-69,694	692,495	0,074	-0,140
-68,680	-200,000	-0,006	0,058
-67,665	-138,727	0,116	-0,009
-66,651	55,334	-0,095	0,066
-65,636	-186,045	-0,054	0,001
-64,622	-49,366	-0,096	0,033
-63,607	-19,197	0,082	-0,036
-62,592	-23,377	-0,045	-0,019
-61,578	-58,805	-0,024	-0,007
-60,563	273,803	-0,032	-0,041
-59,549	-200,000	0,025	-0,110
-58,534	0,081	-2,194	-1,118
-57,519	-200,000	-0,096	-0,781
-56,505	-200,000	-1,370	-4,938
-55,490	104,439	0,772	0,652
-54,476	800,000	5,311	11,934
-53,461	-200,000	18,508	306,191
-52,446	800,000	737,869	2296,468
-51,432	551,704	1653,685	2859,305
-50,417	110,229	1639,463	1411,997
-49,403	74,573	1289,468	971,716
-48,388	30,722	1030,054	630,958
-47,373	20,050	992,332	572,549
-46,359	17,859	979,795	558,092
-45,344	14,547	976,111	545,100
-44,330	14,895	974,396	545,262
-43,315	14,328	972,667	542,416
-42,300	14,244	971,589	541,520
-41,286	14,249	970,489	540,899
-40,271	14,242	969,695	540,414
-39,257	14,229	968,725	539,810
-38,242	14,233	967,887	539,335
-37,227	14,214	967,032	538,775
-36,213	14,288	966,295	538,582
-35,198	14,184	965,372	537,709
-34,184	14,291	964,490	537,545
-33,169	14,196	963,479	536,649
-32,154	14,244	962,662	536,330
-31,140	14,284	961,786	535,952
-30,125	14,325	961,158	535,712
-29,111	14,288	960,195	535,034
-28,096	14,291	959,438	534,599
-27,082	14,282	958,762	534,174
-26,067	14,320	958,007	533,855
-25,052	14,288	957,293	533,333
-24,038	14,182	956,766	532,677
-23,023	14,278	956,016	532,547
-22,009	14,250	955,475	532,134
-20,994	14,254	954,790	531,744
-19,979	14,298	953,989	531,417
-18,965	14,268	953,546	531,052
-17,950	14,283	952,720	530,619
-16,936	14,201	952,271	530,088
-15,921	14,205	951,516	529,658
-14,906	14,135	950,922	529,084
-13,892	14,131	950,276	528,690
-12,877	14,120	949,693	528,309
-11,863	14,113	948,954	527,853
-10,848	14,079	948,463	527,452
-9,833	14,257	947,931	527,703
-8,819	14,246	947,207	527,245
-7,804	14,171	946,596	526,645
-6,790	14,103	946,263	526,222
-5,775	14,164	945,562	526,005
-4,760	14,159	944,938	525,620
-3,746	14,114	944,431	525,176
-2,731	14,048	943,499	524,425
-1,717	13,979	942,915	523,863
-0,702	13,986	942,314	523,531
0,313	13,863	941,466	523,460
1,327	17,040	939,231	532,207
2,342	25,958	794,636	473,928
3,356	22,290	460,072	268,740
4,371	-4,520	317,107	156,472
5,386	-8,512	299,003	143,448
6,400	-10,460	292,757	138,488
7,415	-10,864	290,385	136,953
8,429	-10,962	288,761	136,077
9,444	-11,019	287,717	135,517
10,459	-10,906	287,156	135,352
11,473	-11,045	286,658	134,969
12,488	-10,920	286,195	134,862
13,502	-10,917	285,578	134,561
14,517	-11,001	285,242	134,309
15,531	-10,885	284,697	134,153
16,546	-10,909	284,375	133,966
17,561	-10,876	283,974	133,798
18,575	-10,759	283,645	133,744
19,590	-11,001	283,306	133,339
20,604	-10,898	283,015	133,289
21,619	-11,034	282,669	132,982
22,634	-10,924	282,392	132,947
23,648	-10,773	281,795	132,800
24,663	-10,972	281,720	132,561
25,677	-11,042	281,558	132,405
26,692	-11,057	281,267	132,242
27,707	-10,995	281,036	132,182
28,721	-11,012	280,626	131,961
29,736	-10,875	280,380	131,964
30,750	-11,002	280,183	131,738
31,765	-11,014	279,824	131,546
32,780	-10,829	279,645	131,627
33,794	-10,856	279,249	131,403
34,809	-10,864	279,124	131,325
35,823	-10,994	278,881	131,075
36,838	-10,963	278,557	130,940
37,853	-10,961	278,225	130,774
38,867	-11,033	278,259	130,710
39,882	-10,995	277,884	130,559
40,896	-10,827	277,452	130,503
41,911	-10,939	277,235	130,283
42,926	-11,003	277,030	130,115
43,940	-11,027	276,835	129,989
44,955	-11,022	276,702	129,920
45,969	-11,141	276,382	129,646
46,984	-11,336	276,221	129,375
47,999	-11,417	275,955	129,163
49,013	-11,404	275,620	129,007
50,028	-11,580	275,508	128,777
51,042	-11,578	275,131	128,592
52,057	-11,761	274,754	128,233
53,071	-11,447	274,430	128,364
54,086	-11,528	274,522	128,320
55,101	-11,369	274,277	128,343
56,115	-11,177	274,041	128,399
57,130	-10,777	273,958	128,723
58,144	-10,936	273,726	128,454
59,159	-10,897	273,359	128,307
60,174	-10,716	273,163	128,371
61,188	-10,947	273,094	128,113
62,203	-10,915	272,881	128,032
63,217	-11,012	272,684	127,837
64,232	-11,089	272,526	127,681
65,247	-10,866	272,103	127,678
66,261	-10,918	271,938	127,541
67,276	-11,141	271,742	127,231
68,290	-11,229	271,383	126,970
69,305	-11,298	271,215	126,817
70,320	-11,190	271,049	126,828
71,334	-11,177	270,770	126,697
72,349	-10,891	270,577	126,859
73,363	-10,979	270,349	126,660
74,378	-10,960	270,246	126,618
75,393	-10,836	270,033	126,620
76,407	-10,960	269,737	126,357
77,422	-10,803	269,493	126,375
78,436	-10,890	269,310	126,198
79,451	-11,179	269,216	125,878
80,466	-10,921	268,894	125,953
81,480	-11,000	268,646	125,754
82,495	-11,051	268,386	125,574
83,509	-10,832	268,264	125,705
84,524	-10,953	267,899	125,412
85,539	-11,256	267,879	125,116
86,553	-11,263	267,516	124,929
87,568	-11,089	267,325	124,987
88,582	-11,030	267,137	124,942
89,597	-11,169	267,120	124,796
90,611	-10,973	266,849	124,836
91,626	-10,815	266,676	124,887
92,641	-10,870	266,377	124,687
93,655	-10,899	266,215	124,573
94,670	-11,001	265,976	124,358
95,684	-10,708	265,699	124,482
96,699	-11,086	265,593	124,080
97,714	-11,172	265,518	123,956
98,728	-11,181	265,212	123,795
99,743	-11,153	264,746	123,591
100,757	-11,217	264,649	123,477
101,772	-11,001	264,279	123,487
102,787	-11,111	264,374	123,422
103,801	-10,812	264,118	123,560
104,816	-11,075	264,000	123,258
105,830	-11,062	263,880	123,203
106,845	-10,955	263,568	123,141
107,860	-10,859	263,364	123,121
108,874	-10,808	262,983	122,977
109,889	-10,899	262,801	122,800
110,903	-11,141	262,656	122,506
111,918	-11,052	262,436	122,472
112,933	-10,740	262,215	122,634
113,947	-10,959	262,111	122,381
114,962	-10,920	261,923	122,317
115,976	-10,875	261,815	122,295
116,991	-11,044	261,583	122,026
118,006	-10,792	261,370	122,139
119,020	-11,028	261,478	121,970
120,035	-10,754	261,027	121,990
121,049	-10,944	260,965	121,783
122,064	-10,837	260,773	121,777
123,079	-10,862	260,569	121,649
124,093	-10,943	260,220	121,403
125,108	-11,083	260,077	121,203
126,122	-11,191	259,798	120,967
127,137	-11,200	259,519	120,818
128,151	-11,407	259,543	120,636
129,166	-11,103	259,161	120,715
130,181	-11,200	259,108	120,595
131,195	-11,169	258,835	120,484
132,210	-10,954	258,705	120,601
133,224	-10,959	258,586	120,530
134,239	-10,865	258,338	120,486
135,254	-10,811	258,016	120,373
136,268	-10,765	257,775	120,289
137,283	-11,247	257,576	119,766
138,297	-11,253	257,450	119,691
139,312	-11,443	257,264	119,428
140,327	-11,115	257,241	119,692
141,341	-10,888	257,089	119,809
142,356	-10,879	256,848	119,693
143,370	-10,792	256,623	119,653
144,385	-10,821	256,569	119,593
145,400	-10,598	256,191	119,599
146,414	-10,943	256,190	119,289
147,429	-10,695	256,004	119,406
148,443	-10,574	255,703	119,359
149,458	-10,741	255,558	119,137
150,473	-10,580	255,315	119,152
151,487	-10,993	255,253	118,756
152,502	-10,726	254,765	118,748
153,516	-10,720	254,762	118,742
154,531	-10,662	254,507	118,662
155,546	-10,629	254,385	118,623
156,560	-10,804	254,219	118,385
157,575	-11,029	254,225	118,184
158,589	-10,821	254,013	118,253
159,604	-10,749	253,650	118,135
160,619	-10,735	253,453	118,045
161,633	-10,825	253,318	117,895
162,648	-10,740	253,267	117,933
163,662	-10,747	253,110	117,843
164,677	-10,689	252,880	117,775
165,692	-10,778	252,791	117,647
166,706	-10,703	252,404	117,521
167,721	-10,702	252,182	117,407
168,735	-10,800	252,108	117,279
169,750	-10,836	252,127	117,247
170,764	-10,652	251,875	117,276
171,779	-10,803	251,810	117,107
172,794	-10,552	251,541	117,184
173,808	-10,921	251,311	116,754
174,823	-11,096	251,102	116,498
175,837	-11,168	250,658	116,221
176,852	-10,936	250,802	116,474
177,867	-10,774	250,554	116,485
178,881	-10,589	250,455	116,584
179,896	-10,530	250,278	116,542
180,910	-10,748	250,122	116,275
181,925	-10,844	249,962	116,110
182,940	-10,698	249,807	116,150
183,954	-10,738	249,590	116,005
184,969	-10,712	249,464	115,958
185,983	-10,470	249,237	116,045
186,998	-10,549	249,194	115,949
188,013	-10,800	248,974	115,625
189,027	-10,599	248,880	115,740
190,042	-10,808	248,652	115,448
191,056	-10,700	248,300	115,365
192,071	-10,893	248,189	115,142
193,086	-10,737	248,031	115,189
194,100	-10,604	247,791	115,178
195,115	-10,618	247,733	115,128
196,129	-10,524	247,376	115,031
197,144	-10,912	247,226	114,628
198,159	-10,868	247,092	114,593
199,173	-10,537	246,862	114,750
200,188	-10,608	246,636	114,576
201,202	-10,978	246,519	114,205
202,217	-11,109	246,277	113,974
203,232	-11,018	246,034	113,926
204,246	-11,015	245,941	113,876
205,261	-10,607	245,729	114,105
206,275	-11,367	245,448	113,337
207,290	-7,202	247,134	117,564
208,304	0,725	249,778	125,445
209,319	4,291	250,567	128,812
210,334	4,426	250,603	128,932
211,348	4,628	250,629	129,103
212,363	4,928	250,408	129,227
213,377	5,299	250,230	129,433
214,392	4,941	250,103	129,058
215,407	4,876	249,951	128,914
216,421	4,634	249,812	128,630
217,436	4,880	249,675	128,752
218,450	5,062	249,546	128,825
219,465	4,841	249,195	128,450
220,480	4,573	249,012	128,122
221,494	4,578	248,810	128,010
222,509	4,706	248,817	128,108
223,523	4,629	248,614	127,928
224,538	4,503	248,141	127,570
225,553	4,457	248,195	127,548
226,567	4,425	248,151	127,487
227,582	4,488	247,901	127,400
228,596	4,603	247,788	127,426
229,611	4,368	247,442	127,042
230,626	4,278	247,224	126,845
231,640	4,137	247,250	126,731
232,655	4,497	246,977	126,876
233,669	4,245	246,949	126,643
234,684	4,208	246,702	126,475
235,699	4,438	246,639	126,620
236,713	4,745	246,471	126,773
237,728	4,549	246,128	126,426
238,742	4,166	246,207	126,142
239,757	4,193	245,822	125,955
240,772	4,167	245,556	125,787
241,786	4,363	245,547	125,931
242,801	4,264	245,405	125,765
243,815	4,334	245,154	125,683
244,830	4,477	245,214	125,819
245,844	4,526	244,994	125,735
246,859	4,384	244,789	125,503
247,874	4,255	244,353	125,163
248,888	4,396	244,367	125,273
249,903	4,600	244,226	125,356
250,917	4,480	244,292	125,282
251,932	4,485	244,276	125,266
252,947	4,553	243,927	125,131
253,961	4,278	243,654	124,757
254,976	4,578	243,538	124,929
255,990	4,574	243,444	124,866
257,005	4,301	243,105	124,462
258,020	4,056	242,989	124,193
259,034	4,223	242,846	124,244
260,049	4,517	242,737	124,413
261,063	4,237	242,578	124,096
262,078	4,198	242,417	123,971
263,093	4,619	242,372	124,275
264,107	4,429	242,215	124,031
265,122	4,302	242,019	123,817
266,136	4,541	241,861	123,917
267,151	4,380	241,853	123,773
268,166	4,283	241,444	123,476
269,180	4,108	241,354	123,278
270,195	4,759	241,372	123,797
271,209	4,982	241,165	123,859
272,224	4,437	240,884	123,267
273,239	4,041	240,613	122,802
274,253	4,176	240,474	122,828
275,268	4,345	240,403	122,915
276,282	4,322	240,275	122,821
277,297	4,211	240,044	122,603
278,312	4,172	239,906	122,491
279,326	4,498	239,781	122,675
280,341	4,394	239,746	122,564
281,355	4,449	239,424	122,432
282,370	4,665	239,354	122,556
283,384	4,455	239,154	122,277
284,399	4,227	238,907	121,959
285,414	4,109	238,782	121,791
286,428	4,171	238,589	121,731
287,443	4,221	238,538	121,734
288,457	4,384	238,564	121,865
289,472	4,614	238,334	121,918
290,487	4,481	238,074	121,669
291,501	4,450	237,805	121,497
292,516	3,908	237,698	121,004
293,530	4,007	237,608	121,026
294,545	4,162	237,499	121,081
295,560	4,307	237,268	121,067
296,574	4,106	237,092	120,808
297,589	4,196	237,073	120,859
298,603	4,527	236,943	121,041
299,618	4,556	236,852	121,006
300,633	4,484	236,828	120,926
301,647	4,648	236,625	120,940
302,662	4,900	236,527	121,077
303,676	4,592	236,360	120,740
304,691	4,525	236,205	120,597
305,706	4,965	235,867	120,757
306,720	4,633	235,779	120,443
307,735	4,482	235,724	120,286
308,749	4,449	235,491	120,131
309,764	4,290	235,208	119,852
310,779	4,124	234,975	119,593
311,793	4,111	234,718	119,442
312,808	3,839	234,541	119,131
313,822	3,746	234,503	119,029
314,837	4,137	234,415	119,276
315,852	4,071	234,310	119,162
316,866	4,348	234,241	119,330
317,881	4,604	234,174	119,483
318,895	4,538	233,872	119,268
319,910	4,452	233,737	119,122
320,925	4,212	233,555	118,833
321,939	4,270	233,510	118,845
322,954	4,476	233,408	118,940
323,968	4,580	233,240	118,924
324,983	4,689	233,033	118,892
325,997	4,841	232,903	118,932
327,012	4,720	232,782	118,766
328,027	4,368	232,581	118,384
329,041	4,761	232,603	118,685
330,056	5,046	232,593	118,888
331,070	5,046	232,489	118,824
332,085	4,942	232,158	118,565
333,100	4,758	231,856	118,260
334,114	4,754	231,753	118,193
335,129	4,748	231,791	118,198
336,143	5,025	231,510	118,255
337,158	4,617	231,386	117,870
338,173	4,500	231,063	117,606
339,187	4,352	230,911	117,406
340,202	4,576	230,884	117,552
341,216	4,594	230,690	117,457
342,231	4,303	230,611	117,185
343,246	4,524	230,460	117,265
344,260	4,661	230,289	117,272
345,275	4,751	230,265	117,317
346,289	4,672	230,096	117,161
347,304	4,798	229,921	117,156
348,319	4,883	229,689	117,092
349,333	4,531	229,699	116,820
350,348	4,461	229,352	116,581
351,362	4,404	229,254	116,478
352,377	4,292	229,036	116,272
353,392	4,056	228,874	116,002
354,406	4,215	228,744	116,045
355,421	195,768	1320,088	1396,808
356,435	157,023	1453,031	1396,782
