DTS Sentinel unit serial number:	SN410029Multiplexer serial number:	ORYXHardware model number:	OX2-SRSoftware version number:	ORYX F/W v4,00 Oryx Data Collector v3.7.2.0data status	okinstallation	B5 Nyhavnadifferential loss correction	single-endedforward channel	channel 2reverse channel	N/Adate	2023/12/12time	14:52:13forward acquisition time	300,00reverse acquisition time	0,00gamma	499,1914k internal	0,3157k external	0,3157temperature offset calibration	1,0000default loss term (dB/km)	0,3820temperature slope calibration	1,0000multiplexer offset coefficient	1,0000multiplexer slope coefficient	1,0000fibre end	0,00T internal ref (°C)	15,90T ext. ref 1 (°C)	-0,34T ext. ref 2 (°C)	-0,59length (m)	temperature (°C)	Stokes	anti-Stokes-744,400	-73,735	0,182	-0,048
-743,385	-69,746	-0,282	-0,079
-742,371	55,244	0,149	0,106
-741,356	-108,118	-0,328	0,052
-740,342	-96,277	0,147	0,029
-739,327	-63,529	-0,279	0,084
-738,312	800,000	0,058	-0,131
-737,298	-119,194	-0,274	-0,035
-736,283	6,206	0,215	0,117
-735,269	41,837	-0,334	0,223
-734,254	114,339	0,084	0,075
-733,239	-129,245	-0,514	-0,052
-732,225	-116,956	0,119	0,016
-731,210	394,492	-0,013	-0,020
-730,196	800,000	0,024	-0,056
-729,181	-123,864	0,062	0,007
-728,167	-101,513	-0,087	0,015
-727,152	-68,111	0,095	0,027
-726,137	241,649	-0,008	0,010
-725,123	74,374	-0,050	0,038
-724,108	800,000	-0,038	-0,111
-723,094	-44,898	-0,194	-0,071
-722,079	-49,210	-0,163	0,057
-721,064	732,251	-0,011	-0,022
-720,050	-109,895	-0,141	0,022
-719,035	-102,936	-0,089	-0,015
-718,021	41,892	-0,045	-0,030
-717,006	39,451	-0,128	-0,084
-715,991	230,771	-0,071	-0,086
-714,977	800,000	-0,049	-0,123
-713,962	199,342	0,065	0,073
-712,948	459,966	0,043	-0,071
-711,933	-200,000	-0,003	-0,035
-710,918	123,251	-0,065	-0,060
-709,904	-39,663	-0,034	-0,013
-708,889	-121,815	0,065	-0,008
-707,875	800,000	-0,061	-0,153
-706,860	-94,500	0,089	-0,018
-705,845	-142,632	-0,038	-0,003
-704,831	20,081	-0,033	0,020
-703,816	-200,000	-0,004	-0,058
-702,802	180,362	-0,032	-0,034
-701,787	204,417	0,040	-0,046
-700,772	-136,011	0,221	0,019
-699,758	-200,000	-0,004	0,078
-698,743	270,354	0,046	0,060
-697,729	21,542	0,055	0,033
-696,714	-92,036	0,028	-0,006
-695,699	71,115	-0,130	-0,099
-694,685	800,000	-0,025	0,056
-693,670	800,000	0,013	0,029
-692,656	-200,000	-0,002	-0,053
-691,641	17,500	-0,016	0,009
-690,627	-61,636	-0,027	0,008
-689,612	800,000	0,013	-0,040
-688,597	51,459	-0,072	-0,050
-687,583	800,000	-0,021	-0,059
-686,568	-119,886	0,079	-0,010
-685,554	686,614	0,040	-0,077
-684,539	-40,192	0,105	0,040
-683,524	-3,178	0,119	0,061
-682,510	35,941	-0,107	0,069
-681,495	151,900	0,077	0,078
-680,481	-74,474	-0,039	-0,010
-679,466	242,715	-0,066	0,081
-678,451	-200,000	0,048	0,163
-677,437	-119,614	0,138	-0,017
-676,422	8,187	0,086	-0,048
-675,408	-200,000	0,010	-0,071
-674,393	262,967	0,040	0,051
-673,378	125,423	-0,067	-0,062
-672,364	83,001	0,021	-0,017
-671,349	117,590	-0,053	-0,048
-670,335	-29,520	0,066	-0,028
-669,320	436,413	0,048	0,077
-668,305	-104,306	-0,105	0,018
-667,291	-127,405	0,073	-0,008
-666,276	-192,984	-0,100	0,001
-665,262	-89,918	0,216	-0,046
-664,247	687,728	-0,077	-0,148
-663,232	-44,109	0,103	-0,038
-662,218	-200,000	0,024	0,077
-661,203	-200,000	-0,003	-0,045
-660,189	800,000	0,016	-0,032
-659,174	-50,102	-0,196	0,068
-658,159	168,223	-0,155	-0,163
-657,145	260,181	0,068	-0,087
-656,130	-161,788	0,083	-0,003
-655,116	-200,000	0,015	0,134
-654,101	164,753	-0,057	0,059
-653,086	-138,625	0,014	0,001
-652,072	613,167	-0,078	-0,144
-651,057	800,000	-0,012	-0,025
-650,043	32,212	0,093	-0,059
-649,028	-200,000	0,014	-0,051
-648,014	129,172	-0,028	-0,026
-646,999	800,000	0,020	0,063
-645,984	800,000	-0,029	-0,070
-644,970	-128,039	0,044	-0,005
-643,955	392,618	-0,068	-0,104
-642,941	31,936	-0,097	-0,061
-641,926	291,952	-0,037	0,050
-640,911	-73,179	-0,122	-0,033
-639,897	422,692	-0,015	-0,024
-638,882	-12,457	-0,047	0,022
-637,868	398,930	0,046	-0,070
-636,853	-200,000	-0,032	-0,147
-635,838	800,000	-0,052	-0,129
-634,824	800,000	-0,010	0,026
-633,809	56,367	0,062	0,044
-632,795	-74,777	0,052	-0,014
-631,780	-88,762	-0,098	-0,021
-630,765	-200,000	-0,003	0,077
-629,751	-99,832	-0,048	-0,009
-628,736	-200,000	-0,023	-0,097
-627,722	80,352	-0,105	-0,083
-626,707	291,414	0,054	-0,073
-625,692	-200,000	-0,009	-0,174
-624,678	590,202	0,086	-0,156
-623,663	54,089	0,060	-0,043
-622,649	-200,000	-0,044	-0,155
-621,634	-27,079	-0,102	-0,044
-620,619	3,152	-0,128	-0,068
-619,605	-71,957	0,025	-0,007
-618,590	800,000	0,045	-0,124
-617,576	800,000	-0,055	0,116
-616,561	-158,303	-0,087	-0,004
-615,546	-84,284	-0,089	0,021
-614,532	-200,000	-0,008	0,077
-613,517	-130,913	0,089	0,009
-612,503	800,000	-0,033	0,072
-611,488	188,133	0,152	0,167
-610,474	714,567	-0,030	0,059
-609,459	-1,509	0,058	0,030
-608,444	45,296	-0,059	-0,040
-607,430	-200,000	-0,027	-0,121
-606,415	-200,000	-0,019	-0,077
-605,401	-55,026	0,148	0,049
-604,386	-51,414	0,038	0,013
-603,371	800,000	-0,025	-0,065
-602,357	-68,381	-0,215	0,061
-601,342	800,000	-0,028	-0,074
-600,328	-70,637	-0,218	-0,060
-599,313	800,000	-0,056	-0,118
-598,298	800,000	0,068	-0,160
-597,284	-65,396	0,087	-0,025
-596,269	274,317	-0,062	0,081
-595,255	-200,000	-0,008	0,037
-594,240	800,000	-0,049	-0,106
-593,225	179,732	0,063	-0,068
-592,211	-200,000	-0,004	-0,170
-591,196	-200,000	-0,021	-0,108
-590,182	-146,476	-0,106	-0,007
-589,167	-200,000	-0,011	0,093
-588,152	-63,236	0,128	-0,038
-587,138	232,874	0,013	0,015
-586,123	-82,139	-0,097	-0,023
-585,109	81,959	-0,035	0,027
-584,094	-200,000	0,011	-0,041
-583,079	89,927	0,145	-0,119
-582,065	121,367	-0,026	0,024
-581,050	100,424	0,051	-0,044
-580,036	328,776	0,012	-0,016
-579,021	-141,469	-0,072	0,005
-578,006	-7,819	0,092	-0,045
-576,992	492,860	0,032	-0,054
-575,977	10,210	0,099	-0,055
-574,963	-200,000	0,017	0,061
-573,948	61,152	0,048	0,035
-572,934	-138,552	-0,206	0,016
-571,919	57,202	-0,138	-0,098
-570,904	39,826	0,068	-0,045
-569,890	57,163	0,022	-0,016
-568,875	370,814	-0,080	0,119
-567,861	800,000	0,052	0,129
-566,846	-200,000	-0,014	0,065
-565,831	-107,699	-0,084	0,013
-564,817	243,383	0,065	-0,080
-563,802	-138,593	-0,041	-0,003
-562,788	800,000	0,013	-0,041
-561,773	-87,514	-0,015	0,003
-560,758	-200,000	0,008	0,040
-559,744	-34,338	-0,082	0,033
-558,729	155,414	0,064	-0,065
-557,715	-200,000	-0,007	0,046
-556,700	273,648	-0,094	-0,122
-555,685	333,245	0,043	-0,062
-554,671	48,447	-0,042	0,029
-553,656	416,914	0,090	0,141
-552,642	-39,044	-0,111	0,043
-551,627	442,275	-0,036	-0,058
-550,612	-9,167	-0,058	0,028
-549,598	800,000	0,028	0,072
-548,583	592,343	0,026	0,047
-547,569	86,188	0,153	-0,123
-546,554	800,000	0,021	0,061
-545,539	726,791	-0,022	0,042
-544,525	-200,000	0,010	0,071
-543,510	302,721	-0,055	-0,075
-542,496	614,745	0,056	-0,103
-541,481	-200,000	-0,017	0,079
-540,466	285,316	0,057	-0,075
-539,452	132,526	0,052	0,049
-538,437	800,000	0,064	0,134
-537,423	-200,000	0,006	0,150
-536,408	565,716	-0,016	0,028
-535,393	-19,287	0,051	-0,023
-534,379	-200,000	-0,019	0,067
-533,364	161,271	0,084	-0,086
-532,350	95,463	0,085	-0,071
-531,335	659,479	0,085	0,161
-530,321	37,622	-0,035	0,023
-529,306	-200,000	0,031	0,101
-528,291	470,257	-0,066	-0,109
-527,277	-200,000	-0,025	-0,159
-526,262	-200,000	0,056	-0,206
-525,248	800,000	0,040	0,090
-524,233	-200,000	0,049	0,172
-523,218	-50,439	0,117	0,040
-522,204	91,112	-0,095	-0,078
-521,189	89,779	-0,064	-0,052
-520,175	756,936	-0,073	-0,146
-519,160	196,334	-0,100	-0,112
-518,145	415,263	-0,088	0,138
-517,131	12,117	0,164	0,092
-516,116	253,386	0,066	-0,083
-515,102	64,545	-0,134	0,098
-514,087	1,323	-0,023	-0,012
-513,072	800,000	-0,046	-0,096
-512,058	200,588	-0,105	-0,119
-511,043	145,108	0,048	-0,047
-510,029	-200,000	-0,034	0,130
-509,014	58,425	0,100	-0,072
-507,999	-200,000	-0,030	0,123
-506,985	800,000	-0,052	0,161
-505,970	-200,000	-0,012	0,120
-504,956	442,038	0,032	-0,052
-503,941	-142,033	-0,110	0,008
-502,926	800,000	0,058	0,163
-501,912	251,027	0,100	0,124
-500,897	-200,000	0,024	0,116
-499,883	-8,942	-0,156	-0,076
-498,868	-24,266	0,071	-0,031
-497,853	143,316	0,059	-0,057
-496,839	-200,000	-0,012	-0,140
-495,824	-91,831	0,085	0,017
-494,810	-200,000	-0,029	0,117
-493,795	-200,000	-0,025	0,099
-492,781	-200,000	0,027	0,122
-491,766	800,000	-0,056	0,130
-490,751	-200,000	0,001	-0,019
-489,737	80,592	0,116	0,091
-488,722	-200,000	-0,003	-0,023
-487,708	800,000	-0,015	0,048
-486,693	87,015	0,070	0,056
-485,678	-138,468	-0,078	0,006
-484,664	-73,600	0,101	0,027
-483,649	79,966	0,087	-0,069
-482,635	-167,115	0,027	0,001
-481,620	23,197	0,067	0,040
-480,605	-101,261	-0,104	-0,018
-479,591	-200,000	-0,013	0,108
-478,576	351,994	-0,062	0,090
-477,562	-200,000	0,027	-0,148
-476,547	800,000	-0,050	-0,106
-475,532	-200,000	-0,009	0,031
-474,518	406,536	0,007	0,011
-473,503	179,487	-0,070	-0,075
-472,489	-200,000	0,028	-0,092
-471,474	41,423	0,074	-0,049
-470,459	230,190	-0,073	-0,087
-469,445	708,060	0,032	0,063
-468,430	-69,005	0,091	0,025
-467,416	173,641	0,088	0,093
-466,401	-197,977	0,082	0,000
-465,386	341,530	0,034	-0,048
-464,372	800,000	0,067	-0,166
-463,357	263,055	-0,028	0,036
-462,343	-105,292	0,046	0,008
-461,328	-200,000	-0,041	-0,160
-460,313	-94,505	0,117	0,023
-459,299	-200,000	0,018	0,147
-458,284	492,551	-0,059	0,099
-457,270	800,000	-0,057	0,139
-456,255	-200,000	0,018	-0,100
-455,241	-108,812	-0,087	-0,014
-454,226	-200,000	-0,010	0,039
-453,211	56,387	-0,018	-0,013
-452,197	-200,000	0,006	-0,042
-451,182	464,582	0,038	0,062
-450,168	-147,921	0,054	-0,003
-449,153	108,169	0,048	0,042
-448,138	46,492	-0,141	-0,095
-447,124	558,581	-0,030	-0,053
-446,109	-73,132	0,146	-0,039
-445,095	-18,942	0,043	0,019
-444,080	800,000	-0,045	0,120
-443,065	201,812	-0,060	0,068
-442,051	-200,000	-0,017	-0,099
-441,036	7,520	-0,063	0,034
-440,022	423,195	0,087	0,137
-439,007	800,000	0,039	-0,092
-437,992	475,571	-0,056	-0,092
-436,978	-200,000	0,017	-0,072
-435,963	800,000	0,010	-0,022
-434,949	-0,219	0,036	0,018
-433,934	138,449	-0,093	0,089
-432,919	124,318	-0,084	0,077
-431,905	-200,000	0,008	0,118
-430,890	-69,834	0,115	-0,032
-429,876	-200,000	-0,011	0,081
-428,861	-135,345	-0,080	0,007
-427,846	92,334	-0,061	-0,050
-426,832	800,000	0,025	-0,057
-425,817	372,247	-0,060	-0,089
-424,803	537,244	-0,048	-0,083
-423,788	800,000	-0,032	-0,068
-422,773	47,663	0,090	-0,061
-421,759	-200,000	0,003	0,094
-420,744	-200,000	-0,025	0,111
-419,730	-45,789	0,151	-0,054
-418,715	10,200	-0,159	0,088
-417,701	-45,626	-0,080	-0,029
-416,686	-200,000	-0,005	-0,057
-415,671	-200,000	0,003	0,073
-414,657	-102,179	0,052	-0,009
-413,642	65,869	0,110	0,081
-412,628	-200,000	-0,039	-0,139
-411,613	-77,271	-0,026	0,007
-410,598	274,467	-0,082	-0,106
-409,584	800,000	0,043	0,129
-408,569	-200,000	-0,028	-0,089
-407,555	-95,488	-0,095	0,018
-406,540	65,014	0,047	0,034
-405,525	-200,000	-0,010	-0,094
-404,511	680,192	0,017	-0,032
-403,496	-95,106	-0,075	-0,015
-402,482	464,888	-0,063	-0,104
-401,467	-200,000	-0,015	-0,113
-400,452	317,612	-0,082	0,113
-399,438	-200,000	-0,007	-0,048
-398,423	39,888	0,089	0,058
-397,409	301,997	-0,043	-0,059
-396,394	-4,809	0,062	0,031
-395,379	-200,000	0,001	-0,051
-394,365	251,940	0,110	0,137
-393,350	800,000	-0,055	0,123
-392,336	117,828	-0,007	-0,006
-391,321	-104,475	-0,033	0,005
-390,306	-200,000	-0,025	0,112
-389,292	402,776	-0,063	-0,097
-388,277	-122,753	0,044	0,005
-387,263	146,402	0,084	-0,082
-386,248	-54,231	-0,045	0,015
-385,233	-200,000	0,009	-0,033
-384,219	-200,000	0,028	0,108
-383,204	-200,000	-0,035	-0,126
-382,190	35,145	0,147	0,094
-381,175	-139,023	-0,035	0,003
-380,160	-119,230	-0,101	-0,013
-379,146	-200,000	0,016	0,095
-378,131	-69,563	0,122	0,034
-377,117	131,155	-0,047	-0,044
-376,102	109,226	0,049	-0,043
-375,088	-140,195	0,047	-0,004
-374,073	-54,584	-0,064	0,021
-373,058	-200,000	0,034	0,140
-372,044	-200,000	0,037	0,142
-371,029	-200,000	0,016	0,058
-370,015	16,242	-0,018	0,010
-369,000	-59,803	-0,104	-0,032
-367,985	216,444	-0,062	0,072
-366,971	800,000	-0,025	0,078
-365,956	-200,000	-0,042	-0,135
-364,942	505,353	0,114	0,193
-363,927	437,683	0,095	0,151
-362,912	-200,000	-0,008	-0,034
-361,898	760,741	-0,079	-0,156
-360,883	110,482	-0,044	-0,038
-359,869	-46,165	0,095	0,034
-358,854	-200,000	-0,007	0,100
-357,839	12,124	0,156	0,087
-356,825	-117,504	-0,065	0,008
-355,810	92,238	0,136	0,111
-354,796	303,970	0,066	-0,089
-353,781	423,344	0,076	-0,119
-352,766	271,324	-0,058	0,075
-351,752	103,669	-0,121	-0,103
-350,737	65,674	0,049	-0,036
-349,723	29,245	0,105	-0,065
-348,708	-200,000	-0,036	-0,125
-347,693	-200,000	-0,012	0,048
-346,679	-42,272	-0,026	0,010
-345,664	123,746	0,046	-0,042
-344,650	129,932	-0,051	-0,048
-343,635	-27,671	-0,088	0,037
-342,620	-77,459	0,113	0,028
-341,606	696,583	-0,016	0,030
-340,591	-200,000	0,167	-0,000
-339,577	268,835	-0,060	-0,077
-338,562	800,000	-0,004	-0,011
-337,548	328,478	-0,098	0,137
-336,533	53,872	0,050	-0,035
-335,518	800,000	-0,038	0,083
-334,504	800,000	-0,030	0,071
-333,489	-58,606	-0,087	-0,027
-332,475	60,838	0,027	-0,020
-331,460	-135,982	0,030	-0,002
-330,445	118,402	0,051	0,046
-329,431	214,842	0,070	0,080
-328,416	-37,956	0,157	0,060
-327,402	684,328	-0,067	-0,128
-326,387	34,844	0,074	-0,047
-325,372	800,000	-0,044	0,105
-324,358	-131,696	-0,124	0,012
-323,343	-117,563	0,080	-0,010
-322,329	483,819	0,116	0,191
-321,314	-200,000	0,017	0,057
-320,299	-200,000	0,002	0,048
-319,285	-115,710	-0,039	0,005
-318,270	134,588	0,081	-0,076
-317,256	154,796	-0,125	-0,125
-316,241	147,741	0,066	0,064
-315,226	-30,075	-0,087	-0,036
-314,212	-146,690	0,121	0,007
-313,197	332,313	0,036	-0,051
-312,183	-200,000	-0,019	0,104
-311,168	-200,000	-0,001	-0,030
-310,153	-200,000	-0,017	-0,172
-309,139	174,411	-0,087	-0,092
-308,124	-200,000	-0,013	0,131
-307,110	-6,824	0,136	0,067
-306,095	800,000	0,038	0,089
-305,080	22,043	-0,085	0,050
-304,066	243,387	-0,049	0,060
-303,051	-200,000	0,006	0,150
-302,037	-196,166	-0,084	-0,000
-301,022	484,714	0,009	-0,015
-300,008	400,862	-0,082	-0,124
-298,993	231,019	0,022	-0,027
-297,978	250,072	-0,080	0,098
-296,964	-49,248	0,159	-0,055
-295,949	800,000	0,014	-0,043
-294,935	338,045	-0,066	-0,093
-293,920	-157,111	-0,153	0,007
-292,905	-200,000	0,052	0,000
-291,891	152,882	-0,040	0,040
-290,876	671,078	0,035	0,066
-289,862	575,427	-0,032	0,057
-288,847	-200,000	0,035	-0,118
-287,832	-129,728	-0,132	0,013
-286,818	-27,046	0,031	-0,013
-285,803	255,582	-0,036	0,044
-284,789	-18,448	0,021	0,009
-283,774	-200,000	0,017	-0,084
-282,759	41,648	-0,166	-0,108
-281,745	-200,000	0,006	-0,093
-280,730	-30,632	-0,062	0,025
-279,716	32,450	-0,062	-0,039
-278,701	800,000	-0,042	0,085
-277,686	-200,000	-0,005	0,075
-276,672	-200,000	0,002	0,044
-275,657	92,212	-0,018	0,015
-274,643	-200,000	0,005	0,036
-273,628	-58,181	-0,134	0,042
-272,613	72,048	-0,165	-0,124
-271,599	13,811	0,114	-0,064
-270,584	610,894	0,061	0,111
-269,570	-160,023	0,119	-0,005
-268,555	330,872	0,017	0,024
-267,540	-200,000	-0,037	-0,149
-266,526	800,000	-0,067	-0,151
-265,511	-120,008	-0,071	0,009
-264,497	800,000	0,038	0,116
-263,482	-200,000	0,036	0,130
-262,467	-69,422	-0,072	-0,020
-261,453	-164,750	0,101	-0,003
-260,438	145,080	0,106	-0,103
-259,424	-200,000	-0,011	-0,093
-258,409	800,000	0,023	0,065
-257,395	-61,227	-0,034	0,010
-256,380	317,342	0,038	0,053
-255,365	-54,174	0,061	0,020
-254,351	-200,000	0,020	-0,155
-253,336	-151,058	0,027	0,001
-252,322	-200,000	-0,000	-0,047
-251,307	-26,428	-0,158	-0,067
-250,292	800,000	0,010	-0,026
-249,278	308,682	0,049	0,066
-248,263	306,347	0,094	-0,127
-247,249	186,390	0,071	-0,077
-246,234	800,000	0,013	-0,032
-245,219	-94,446	-0,107	0,021
-244,205	-108,304	-0,048	0,007
-243,190	-112,931	0,014	0,002
-242,176	-26,828	-0,069	-0,029
-241,161	-46,027	0,022	-0,008
-240,146	235,723	-0,056	0,067
-239,132	109,122	-0,101	0,087
-238,117	136,664	-0,087	0,083
-237,103	-200,000	0,004	-0,141
-236,088	284,869	-0,101	0,131
-235,073	-17,528	0,067	0,030
-234,059	-34,203	0,050	0,020
-233,044	85,930	0,084	0,067
-232,030	81,938	0,159	0,125
-231,015	-40,097	-0,120	-0,045
-230,000	111,442	0,110	0,096
-228,986	-98,308	0,110	-0,020
-227,971	800,000	-0,042	0,107
-226,957	122,235	0,073	0,066
-225,942	800,000	0,008	-0,025
-224,927	800,000	-0,040	0,126
-223,913	-200,000	-0,033	-0,123
-222,898	-200,000	-0,010	0,138
-221,884	800,000	-0,067	-0,156
-220,869	-138,597	0,070	-0,005
-219,855	488,524	-0,054	0,090
-218,840	778,219	-0,022	-0,043
-217,825	584,939	0,059	-0,105
-216,811	-200,000	0,019	-0,108
-215,796	-200,000	-0,000	-0,036
-214,782	199,517	-0,007	0,007
-213,767	-188,872	0,012	0,000
-212,752	61,081	0,031	-0,023
-211,738	-78,439	0,121	-0,030
-210,723	-58,596	0,175	0,054
-209,709	-90,473	0,066	0,014
-208,694	-80,274	-0,050	-0,012
-207,679	385,161	-0,080	0,120
-206,665	-200,000	-0,006	0,023
-205,650	800,000	0,048	-0,102
-204,636	620,998	0,060	-0,109
-203,621	13,741	0,041	-0,023
-202,606	-57,084	-0,233	-0,074
-201,592	263,710	0,023	0,029
-200,577	-69,763	-0,049	0,013
-199,563	-97,031	-0,067	0,013
-198,548	-200,000	0,004	0,084
-197,533	-88,806	-0,014	-0,003
-196,519	17,622	0,125	0,072
-195,504	-200,000	-0,008	0,108
-194,490	-200,000	0,006	-0,123
-193,475	238,276	0,015	-0,018
-192,460	105,824	0,128	0,109
-191,446	-55,012	0,035	-0,011
-190,431	366,710	0,043	0,062
-189,417	9,275	0,061	0,033
-188,402	551,207	0,050	-0,087
-187,387	187,150	-0,078	-0,084
-186,373	218,022	-0,051	0,058
-185,358	-200,000	-0,007	-0,075
-184,344	-75,889	-0,095	-0,024
-183,329	800,000	0,053	-0,123
-182,315	58,455	0,072	-0,051
-181,300	24,469	-0,027	-0,016
-180,285	38,086	0,012	-0,008
-179,271	182,178	0,044	-0,047
-178,256	-200,000	0,015	-0,166
-177,242	55,779	0,075	0,052
-176,227	198,338	-0,047	0,052
-175,212	-200,000	0,007	0,106
-174,198	-200,000	0,009	-0,035
-173,183	315,875	-0,082	-0,112
-172,169	-200,000	0,015	-0,067
-171,154	-200,000	0,048	0,157
-170,139	425,235	0,045	-0,070
-169,125	800,000	-0,048	0,100
-168,110	-200,000	0,061	0,217
-167,096	367,729	0,051	-0,074
-166,081	-200,000	0,032	-0,112
-165,066	5,496	0,095	0,050
-164,052	132,222	-0,081	0,075
-163,037	8,123	0,130	-0,070
-162,023	800,000	0,029	0,074
-161,008	237,950	-0,066	0,079
-159,993	-93,526	-0,086	0,017
-158,979	-200,000	0,012	-0,159
-157,964	-200,000	0,011	0,100
-156,950	-200,000	0,006	0,039
-155,935	150,766	-0,067	0,066
-154,920	800,000	0,111	0,243
-153,906	-200,000	0,033	0,114
-152,891	20,413	-0,107	-0,062
-151,877	-73,452	-0,119	-0,031
-150,862	7,053	-0,123	-0,066
-149,847	-56,784	-0,059	-0,019
-148,833	342,639	0,027	0,038
-147,818	335,328	0,013	0,018
-146,804	800,000	-0,029	-0,079
-145,789	-200,000	0,017	0,119
-144,775	-63,021	-0,069	-0,020
-143,760	-170,331	-0,030	-0,001
-142,745	160,548	-0,054	-0,054
-141,731	-110,439	-0,064	-0,009
-140,716	-3,958	0,097	-0,048
-139,702	-200,000	0,009	0,033
-138,687	-50,202	-0,122	0,041
-137,672	193,142	-0,072	0,078
-136,658	-200,000	-0,016	-0,062
-135,643	-200,000	-0,028	0,108
-134,629	-13,435	-0,093	0,043
-133,614	138,891	0,120	0,114
-132,599	235,221	0,072	-0,086
-131,585	41,116	-0,051	0,033
-130,570	-200,000	0,020	0,068
-129,556	-200,000	-0,003	0,045
-128,541	-200,000	0,005	0,041
-127,526	166,172	-0,036	0,036
-126,512	-16,182	0,170	-0,077
-125,497	69,624	0,099	-0,073
-124,483	-200,000	-0,015	0,151
-123,468	-43,800	0,028	0,010
-122,453	103,041	-0,026	-0,022
-121,439	800,000	-0,058	-0,142
-120,424	696,016	-0,048	-0,091
-119,410	-36,564	0,076	0,029
-118,395	800,000	-0,038	0,115
-117,380	-200,000	-0,003	0,134
-116,366	-45,586	-0,036	-0,013
-115,351	-111,239	-0,091	0,013
-114,337	85,863	0,102	-0,080
-113,322	-200,000	0,011	0,051
-112,307	-54,504	0,083	-0,027
-111,293	-117,553	0,115	0,015
-110,278	-162,694	-0,050	-0,002
-109,264	-200,000	-0,038	0,133
-108,249	116,490	-0,145	-0,128
-107,234	-14,815	-0,070	-0,032
-106,220	-200,000	-0,006	-0,129
-105,205	-75,354	-0,022	-0,006
-104,191	-200,000	-0,037	0,149
-103,176	-160,209	0,098	-0,004
-102,162	42,974	-0,094	0,061
-101,147	247,912	0,059	-0,072
-100,132	574,994	0,068	0,120
-99,118	178,484	-0,032	-0,034
-98,103	-200,000	-0,036	0,117
-97,089	-200,000	0,010	0,071
-96,074	800,000	0,041	0,108
-95,059	-43,015	0,092	0,033
-94,045	196,145	0,041	-0,045
-93,030	-200,000	-0,010	-0,097
-92,016	800,000	0,044	-0,114
-91,001	-168,479	0,031	-0,001
-89,986	337,881	-0,063	0,088
-88,972	-87,526	0,042	0,009
-87,957	328,317	0,040	0,056
-86,943	204,109	0,041	0,046
-85,928	100,473	-0,009	0,007
-84,913	-33,810	0,134	0,053
-83,899	175,111	0,059	-0,062
-82,884	-200,000	-0,003	0,187
-81,870	-200,000	0,008	0,117
-80,855	-41,547	0,073	-0,027
-79,840	-200,000	-0,003	0,170
-78,826	-37,523	0,095	-0,036
-77,811	-98,968	0,078	0,014
-76,797	393,973	0,098	-0,147
-75,782	349,708	-0,085	-0,121
-74,767	-120,405	0,090	-0,011
-73,753	800,000	0,018	-0,041
-72,738	89,076	0,087	0,069
-71,724	119,441	-0,105	-0,094
-70,709	11,271	-0,092	-0,050
-69,694	27,367	-0,157	-0,095
-68,680	-59,100	0,173	0,053
-67,665	-200,000	0,005	0,103
-66,651	-200,000	-0,011	0,104
-65,636	33,254	0,094	0,058
-64,622	-200,000	-0,031	0,185
-63,607	239,941	-0,085	-0,102
-62,592	-143,876	-0,115	-0,008
-61,578	68,036	0,025	-0,018
-60,563	-200,000	0,011	0,109
-59,549	259,104	-0,116	0,143
-58,534	3,908	-1,760	-0,921
-57,519	800,000	-0,321	-0,966
-56,505	-200,000	-1,321	-4,780
-55,490	-48,190	0,862	0,297
-54,476	800,000	5,240	12,018
-53,461	-200,000	17,259	284,478
-52,446	800,000	722,481	2230,350
-51,432	545,311	1638,423	2821,631
-50,417	112,274	1631,141	1415,611
-49,403	76,291	1286,550	977,103
-48,388	32,886	1028,994	638,141
-47,373	20,312	990,780	572,942
-46,359	18,809	978,957	561,147
-45,344	16,255	974,959	550,466
-44,330	16,397	973,541	550,107
-43,315	15,980	971,812	547,747
-42,300	15,852	970,711	546,686
-41,286	15,928	969,632	546,305
-40,271	15,896	968,574	545,580
-39,257	15,928	967,663	545,152
-38,242	15,949	966,768	544,694
-37,227	15,972	966,140	544,392
-36,213	15,917	965,423	543,788
-35,198	15,934	964,418	543,258
-34,184	15,947	963,525	542,773
-33,169	15,894	962,408	541,951
-32,154	15,980	961,484	541,687
-31,140	15,958	960,743	541,179
-30,125	15,999	959,989	540,862
-29,111	15,966	959,105	540,237
-28,096	15,945	958,490	539,804
-27,082	16,002	957,860	539,608
-26,067	15,942	957,121	538,980
-25,052	15,942	956,307	538,499
-24,038	15,923	955,754	538,105
-23,023	15,854	955,142	537,518
-22,009	16,000	954,247	537,463
-20,994	15,993	953,596	537,051
-19,979	15,898	953,404	536,618
-18,965	15,921	952,584	536,209
-17,950	15,963	952,015	536,000
-16,936	15,868	951,408	535,333
-15,921	15,879	950,690	534,942
-14,906	15,875	949,933	534,483
-13,892	15,805	949,344	533,907
-12,877	15,803	948,558	533,437
-11,863	15,761	947,978	532,958
-10,848	15,787	947,666	532,841
-9,833	15,883	946,992	532,748
-8,819	15,858	946,456	532,347
-7,804	15,821	945,686	531,774
-6,790	15,833	945,163	531,498
-5,775	15,857	944,637	531,256
-4,760	15,852	943,757	530,724
-3,746	15,844	943,221	530,376
-2,731	15,673	942,724	529,536
-1,717	15,704	941,903	529,150
-0,702	15,661	941,307	528,658
0,313	15,497	940,775	528,638
1,327	18,615	938,444	537,118
2,342	27,320	796,255	478,853
3,356	24,233	460,055	271,914
4,371	-2,689	314,548	157,290
5,386	-6,729	296,103	143,967
6,400	-8,858	290,214	138,978
7,415	-9,101	287,712	137,528
8,429	-9,421	286,215	136,487
9,444	-9,426	285,285	136,026
10,459	-9,255	284,668	135,887
11,473	-9,345	284,115	135,523
12,488	-9,238	283,548	135,345
13,502	-9,367	283,001	134,947
14,517	-9,405	282,697	134,753
15,531	-9,375	282,154	134,511
16,546	-9,462	281,768	134,231
17,561	-9,369	281,330	134,100
18,575	-9,454	281,142	133,916
19,590	-9,383	280,680	133,753
20,604	-9,186	280,412	133,802
21,619	-9,464	279,986	133,321
22,634	-9,351	279,806	133,331
23,648	-9,345	279,402	133,132
24,663	-9,355	279,052	132,944
25,677	-9,450	278,892	132,766
26,692	-9,324	278,625	132,747
27,707	-9,316	278,163	132,523
28,721	-9,401	277,959	132,332
29,736	-9,517	277,769	132,121
30,750	-9,445	277,437	132,019
31,765	-9,386	277,266	131,982
32,780	-9,293	276,978	131,921
33,794	-9,573	276,784	131,552
34,809	-9,418	276,638	131,618
35,823	-9,356	276,302	131,505
36,838	-9,393	275,976	131,302
37,853	-9,524	275,676	131,024
38,867	-9,442	275,540	131,025
39,882	-9,540	275,289	130,803
40,896	-9,372	275,127	130,872
41,911	-9,577	274,838	130,531
42,926	-9,657	274,738	130,395
43,940	-9,420	274,348	130,421
44,955	-9,591	274,025	130,096
45,969	-9,568	273,921	130,057
46,984	-9,775	273,686	129,740
47,999	-9,785	273,309	129,540
49,013	-10,007	272,956	129,154
50,028	-9,877	272,707	129,146
51,042	-9,909	272,439	128,978
52,057	-10,210	272,353	128,647
53,071	-10,203	272,073	128,510
54,086	-9,985	271,984	128,658
55,101	-9,788	271,733	128,710
56,115	-9,694	271,674	128,758
57,130	-9,467	271,385	128,820
58,144	-9,362	271,348	128,887
59,159	-9,337	271,047	128,756
60,174	-9,316	270,760	128,627
61,188	-9,424	270,689	128,483
62,203	-9,340	270,347	128,387
63,217	-9,314	270,042	128,253
64,232	-9,212	269,816	128,229
65,247	-9,241	269,638	128,107
66,261	-9,290	269,355	127,916
67,276	-9,632	269,234	127,533
68,290	-9,540	268,794	127,398
69,305	-9,625	268,720	127,273
70,320	-9,757	268,542	127,057
71,334	-9,529	268,286	127,133
72,349	-9,247	268,150	127,315
73,363	-9,146	267,854	127,255
74,378	-9,305	267,683	127,017
75,393	-9,285	267,473	126,925
76,407	-9,271	267,359	126,872
77,422	-9,336	267,084	126,671
78,436	-9,469	266,918	126,460
79,451	-9,462	266,561	126,286
80,466	-9,560	266,471	126,144
81,480	-9,505	266,096	126,005
82,495	-9,527	265,979	125,917
83,509	-9,449	265,831	125,907
84,524	-9,513	265,531	125,696
85,539	-9,722	265,364	125,417
86,553	-9,744	264,970	125,200
87,568	-9,433	264,935	125,453
88,582	-9,644	264,682	125,131
89,597	-9,506	264,472	125,145
90,611	-9,395	264,495	125,245
91,626	-9,143	264,145	125,293
92,641	-9,234	264,041	125,151
93,655	-9,491	263,832	124,811
94,670	-9,505	263,706	124,727
95,684	-9,272	263,344	124,754
96,699	-9,395	263,231	124,579
97,714	-9,437	262,929	124,388
98,728	-9,572	262,720	124,158
99,743	-9,691	262,582	123,975
100,757	-9,697	262,427	123,885
101,772	-9,470	262,063	123,904
102,787	-9,540	261,906	123,757
103,801	-9,463	261,709	123,722
104,816	-9,550	261,697	123,627
105,830	-9,478	261,562	123,616
106,845	-9,461	261,314	123,503
107,860	-9,127	260,919	123,600
108,874	-9,404	260,760	123,270
109,889	-9,423	260,613	123,172
110,903	-9,294	260,268	123,112
111,918	-9,215	260,083	123,083
112,933	-9,330	260,082	122,970
113,947	-9,331	259,717	122,786
114,962	-9,227	259,607	122,815
115,976	-9,326	259,320	122,581
116,991	-9,238	259,138	122,562
118,006	-9,357	259,063	122,410
119,020	-9,233	258,868	122,416
120,035	-9,320	258,944	122,365
121,049	-9,171	258,609	122,326
122,064	-9,243	258,469	122,186
123,079	-9,308	258,183	121,983
124,093	-9,280	258,107	121,961
125,108	-9,534	257,727	121,548
126,122	-9,750	257,495	121,240
127,137	-9,824	257,304	121,075
128,151	-9,699	257,237	121,141
129,166	-9,521	257,005	121,176
130,181	-9,470	256,601	121,019
131,195	-9,864	256,555	120,644
132,210	-9,463	256,355	120,888
133,224	-9,321	256,330	120,989
134,239	-9,465	256,086	120,737
135,254	-9,378	255,843	120,688
136,268	-9,424	255,693	120,566
137,283	-9,797	255,492	120,138
138,297	-9,831	255,138	119,931
139,312	-9,840	254,975	119,837
140,327	-9,576	254,876	120,007
141,341	-9,153	254,859	120,353
142,356	-9,417	254,605	119,995
143,370	-9,084	254,428	120,188
144,385	-9,072	254,325	120,138
145,400	-9,147	254,060	119,938
146,414	-9,149	253,885	119,843
147,429	-9,086	253,706	119,802
148,443	-9,010	253,478	119,749
149,458	-9,332	253,355	119,404
150,473	-9,284	253,200	119,361
151,487	-9,172	252,829	119,272
152,502	-9,312	252,843	119,148
153,516	-9,160	252,656	119,179
154,531	-9,224	252,360	118,975
155,546	-8,953	252,265	119,150
156,560	-9,048	252,162	119,010
157,575	-9,202	251,782	118,688
158,589	-9,072	251,568	118,687
159,604	-9,275	251,515	118,480
160,619	-9,008	251,350	118,618
161,633	-9,170	251,254	118,425
162,648	-9,234	250,999	118,239
163,662	-9,226	250,866	118,173
164,677	-9,080	250,708	118,211
165,692	-9,248	250,731	118,070
166,706	-9,038	250,421	118,091
167,721	-9,136	250,120	117,855
168,735	-9,196	250,138	117,803
169,750	-9,104	249,910	117,763
170,764	-9,009	249,803	117,782
171,779	-9,101	249,587	117,592
172,794	-9,050	249,436	117,553
173,808	-9,229	249,283	117,320
174,823	-9,431	248,838	116,931
175,837	-9,548	248,722	116,768
176,852	-9,339	248,680	116,913
177,867	-9,245	248,654	116,969
178,881	-8,988	248,497	117,100
179,896	-9,051	248,275	116,932
180,910	-8,982	248,047	116,872
181,925	-9,098	247,815	116,656
182,940	-9,055	247,714	116,634
183,954	-9,178	247,670	116,500
184,969	-9,100	247,430	116,442
185,983	-9,183	247,331	116,315
186,998	-9,145	247,118	116,236
188,013	-8,923	246,870	116,294
189,027	-9,038	246,743	116,128
190,042	-9,204	246,491	115,862
191,056	-9,163	246,338	115,813
192,071	-8,950	246,166	115,898
193,086	-8,903	245,981	115,840
194,100	-9,151	245,751	115,516
195,115	-9,217	245,750	115,450
196,129	-9,109	245,543	115,432
197,144	-9,346	245,353	115,137
198,159	-9,210	245,075	115,108
199,173	-9,089	244,927	115,128
200,188	-9,134	244,884	115,061
201,202	-9,247	244,568	114,810
202,217	-9,574	244,192	114,354
203,232	-9,748	243,967	114,095
204,246	-9,239	243,895	114,470
205,261	-8,778	243,852	114,816
206,275	-9,480	243,585	114,106
207,290	-5,833	244,897	117,712
208,304	0,836	247,020	124,242
209,319	3,621	247,924	126,993
210,334	3,984	247,844	127,240
211,348	4,120	247,691	127,263
212,363	4,504	247,792	127,621
213,377	4,565	247,554	127,538
214,392	4,468	247,377	127,356
215,407	4,335	247,142	127,113
216,421	4,346	247,028	127,053
217,436	4,551	246,935	127,162
218,450	4,695	246,784	127,191
219,465	4,374	246,525	126,782
220,480	4,180	246,239	126,465
221,494	4,259	246,175	126,486
222,509	4,111	246,162	126,346
223,523	4,183	245,674	126,144
224,538	3,803	245,559	125,762
225,553	3,938	245,385	125,773
226,567	3,926	245,288	125,702
227,582	4,287	245,007	125,841
228,596	4,200	244,899	125,704
229,611	3,714	244,754	125,221
230,626	3,672	244,595	125,095
231,640	4,013	244,323	125,222
232,655	3,969	244,221	125,123
233,669	3,992	244,149	125,094
234,684	3,702	243,891	124,715
235,699	4,247	243,926	125,164
236,713	4,480	243,757	125,256
237,728	4,014	243,443	124,705
238,742	3,989	243,174	124,536
239,757	3,707	243,124	124,271
240,772	3,685	242,972	124,165
241,786	3,902	242,872	124,278
242,801	3,856	242,631	124,106
243,815	3,843	242,491	124,013
244,830	4,160	242,297	124,158
245,844	4,054	242,160	123,992
246,859	3,998	242,031	123,870
247,874	3,722	241,889	123,564
248,888	3,994	241,872	123,763
249,903	4,016	241,674	123,668
250,917	3,893	241,522	123,480
251,932	4,191	241,444	123,669
252,947	4,005	241,347	123,459
253,961	3,849	241,044	123,168
254,976	4,119	240,851	123,274
255,990	4,068	240,743	123,167
257,005	3,726	240,632	122,826
258,020	3,783	240,412	122,748
259,034	3,708	240,220	122,580
260,049	4,100	240,083	122,811
261,063	4,008	239,724	122,543
262,078	3,829	239,719	122,388
263,093	4,131	239,622	122,567
264,107	3,990	239,513	122,389
265,122	3,779	239,316	122,110
266,136	3,994	239,130	122,174
267,151	4,239	239,156	122,371
268,166	3,917	238,715	121,879
269,180	3,623	238,610	121,582
270,195	4,253	238,562	122,046
271,209	4,549	238,431	122,202
272,224	4,182	238,116	121,740
273,239	3,793	237,973	121,348
274,253	3,812	237,739	121,233
275,268	3,987	237,832	121,408
276,282	4,123	237,562	121,367
277,297	3,878	237,297	121,027
278,312	3,726	237,305	120,900
279,326	4,047	237,081	121,028
280,341	3,990	237,003	120,933
281,355	3,843	236,878	120,743
282,370	4,153	236,701	120,886
283,384	3,945	236,557	120,638
284,399	3,918	236,311	120,480
285,414	3,731	236,180	120,257
286,428	3,617	236,110	120,121
287,443	3,703	235,910	120,076
288,457	4,070	235,759	120,275
289,472	4,270	235,566	120,322
290,487	4,024	235,432	120,050
291,501	3,624	235,233	119,627
292,516	3,680	234,926	119,504
293,530	3,432	235,000	119,338
294,545	3,990	234,753	119,635
295,560	4,046	234,620	119,601
296,574	3,913	234,437	119,393
297,589	3,917	234,396	119,364
298,603	4,095	234,352	119,470
299,618	3,988	234,223	119,311
300,633	3,879	233,989	119,096
301,647	4,143	233,978	119,285
302,662	4,351	233,900	119,395
303,676	4,362	233,700	119,291
304,691	4,170	233,540	119,051
305,706	4,263	233,451	119,066
306,720	4,395	233,176	119,016
307,735	4,180	233,077	118,790
308,749	3,944	232,928	118,521
309,764	3,990	232,679	118,420
310,779	3,797	232,498	118,169
311,793	3,690	232,185	117,917
312,808	3,609	232,110	117,807
313,822	3,678	232,063	117,825
314,837	3,665	231,898	117,721
315,852	3,632	231,689	117,578
316,866	3,851	231,698	117,740
317,881	3,985	231,521	117,743
318,895	3,847	231,181	117,453
319,910	4,072	231,219	117,635
320,925	4,185	231,033	117,616
321,939	3,979	230,871	117,366
322,954	4,091	230,777	117,393
323,968	3,856	230,566	117,096
324,983	3,431	230,372	116,663
325,997	3,820	230,350	116,938
327,012	4,193	230,222	117,146
328,027	4,129	230,051	117,000
329,041	4,393	230,011	117,169
330,056	4,606	230,012	117,322
331,070	4,725	229,814	117,300
332,085	4,455	229,480	116,915
333,100	4,082	229,280	116,521
334,114	4,199	229,129	116,522
335,129	4,378	228,990	116,576
336,143	4,663	228,962	116,766
337,158	4,511	228,849	116,584
338,173	4,305	228,677	116,330
339,187	3,948	228,510	115,966
340,202	4,175	228,299	116,020
341,216	4,128	228,235	115,941
342,231	3,908	228,019	115,656
343,246	4,172	227,962	115,815
344,260	4,173	227,730	115,688
345,275	4,271	227,601	115,685
346,289	4,261	227,620	115,677
347,304	4,556	227,278	115,713
348,319	4,410	227,230	115,570
349,333	4,260	226,992	115,326
350,348	4,033	226,884	115,091
351,362	4,118	226,803	115,103
352,377	3,709	226,595	114,682
353,392	3,772	226,404	114,623
354,406	3,947	226,197	114,638
355,421	194,774	1324,442	1399,277
356,435	156,087	1458,245	1399,279
