DTS Sentinel unit serial number:	SN410029Multiplexer serial number:	ORYXHardware model number:	OX2-SRSoftware version number:	ORYX F/W v4,00 Oryx Data Collector v3.7.2.0data status	okinstallation	B5 Nyhavnadifferential loss correction	single-endedforward channel	channel 2reverse channel	N/Adate	2023/12/13time	09:02:13forward acquisition time	300,00reverse acquisition time	0,00gamma	499,1914k internal	0,3161k external	0,3161temperature offset calibration	1,0000default loss term (dB/km)	0,3820temperature slope calibration	1,0000multiplexer offset coefficient	1,0000multiplexer slope coefficient	1,0000fibre end	0,00T internal ref (°C)	13,65T ext. ref 1 (°C)	-2,72T ext. ref 2 (°C)	-3,03length (m)	temperature (°C)	Stokes	anti-Stokes-744,400	146,189	0,070	0,069
-743,385	-135,309	-0,360	0,031
-742,371	38,762	0,094	0,062
-741,356	-129,958	-0,248	-0,025
-740,342	272,702	0,140	0,182
-739,327	-69,452	-0,242	-0,068
-738,312	-73,242	0,165	0,044
-737,298	-101,354	-0,310	-0,055
-736,283	-153,918	0,186	-0,009
-735,269	-73,672	-0,191	-0,051
-734,254	-32,349	0,158	0,065
-733,239	-81,128	-0,549	-0,133
-732,225	4,996	0,103	0,056
-731,210	-200,000	0,029	0,150
-730,196	118,944	0,036	0,033
-729,181	-127,442	-0,267	0,028
-728,167	-22,095	0,040	-0,018
-727,152	-44,613	-0,187	-0,068
-726,137	-200,000	-0,001	-0,069
-725,123	565,755	-0,081	-0,146
-724,108	-115,209	-0,089	-0,012
-723,094	53,641	-0,082	-0,058
-722,079	800,000	0,013	0,041
-721,064	-53,277	0,129	-0,043
-720,050	-1,497	-0,072	-0,037
-719,035	8,127	-0,232	-0,128
-718,021	-121,221	0,042	-0,005
-717,006	-200,000	-0,019	-0,148
-715,991	182,303	-0,040	-0,044
-714,977	372,447	0,080	0,120
-713,962	-153,122	-0,085	-0,004
-712,948	-200,000	-0,002	0,014
-711,933	-69,214	0,151	-0,042
-710,918	196,741	-0,125	-0,140
-709,904	215,330	-0,012	-0,013
-708,889	133,724	-0,086	-0,082
-707,875	-45,782	-0,127	0,046
-706,860	800,000	0,016	0,032
-705,845	131,390	0,022	-0,021
-704,831	-200,000	0,002	0,039
-703,816	54,234	-0,103	-0,073
-702,802	-200,000	0,021	-0,093
-701,787	-200,000	-0,028	-0,142
-700,772	696,120	0,041	-0,080
-699,758	-167,634	0,090	-0,003
-698,743	800,000	-0,029	0,084
-697,729	800,000	-0,023	0,071
-696,714	-200,000	0,019	0,089
-695,699	-200,000	0,009	0,046
-694,685	-14,350	-0,025	0,012
-693,670	193,088	-0,059	-0,066
-692,656	-200,000	-0,016	0,081
-691,641	-200,000	0,018	-0,108
-690,627	-129,004	0,056	0,006
-689,612	-127,385	0,008	-0,001
-688,597	-12,710	-0,041	0,019
-687,583	-200,000	0,015	0,061
-686,568	800,000	0,030	0,070
-685,554	99,171	-0,055	0,047
-684,539	800,000	0,026	0,072
-683,524	258,668	0,056	0,071
-682,510	-200,000	-0,007	0,154
-681,495	-200,000	0,001	0,019
-680,481	-45,222	-0,082	-0,030
-679,466	-193,442	-0,139	-0,001
-678,451	-200,000	-0,012	-0,050
-677,437	61,883	0,037	-0,027
-676,422	331,754	0,050	0,071
-675,408	-73,323	-0,031	0,008
-674,393	800,000	-0,041	-0,084
-673,378	-126,527	-0,112	-0,012
-672,364	437,256	-0,030	-0,049
-671,349	28,472	-0,066	0,041
-670,335	-25,336	0,155	0,067
-669,320	-200,000	0,028	-0,120
-668,305	-200,000	0,006	0,052
-667,291	-200,000	0,026	-0,092
-666,276	-103,931	0,036	-0,006
-665,262	258,003	0,040	-0,051
-664,247	-126,790	0,144	-0,015
-663,232	-200,000	0,015	0,130
-662,218	-69,693	-0,105	0,029
-661,203	-200,000	-0,016	-0,061
-660,189	254,266	-0,049	0,062
-659,174	-160,514	-0,034	0,001
-658,159	-200,000	-0,004	-0,044
-657,145	441,129	-0,099	-0,160
-656,130	573,727	-0,040	-0,071
-655,116	-200,000	0,027	0,090
-654,101	-200,000	-0,020	0,127
-653,086	-46,591	-0,118	0,042
-652,072	800,000	-0,035	-0,102
-651,057	800,000	-0,032	-0,066
-650,043	-200,000	0,038	-0,148
-649,028	123,308	0,027	-0,025
-648,014	-57,136	-0,114	0,037
-646,999	208,706	-0,034	0,039
-645,984	-6,997	-0,048	0,024
-644,970	-20,248	-0,059	-0,027
-643,955	-117,057	-0,123	0,016
-642,941	-200,000	0,013	0,061
-641,926	-110,796	-0,074	0,011
-640,911	-200,000	0,016	0,094
-639,897	176,861	0,040	-0,042
-638,882	-89,724	-0,034	-0,007
-637,868	-154,545	0,065	0,003
-636,853	-26,916	-0,054	0,023
-635,838	9,090	-0,045	-0,025
-634,824	-22,939	-0,075	0,033
-633,809	-133,992	-0,033	0,003
-632,795	236,868	0,098	0,119
-631,780	-91,070	-0,121	-0,025
-630,765	-200,000	0,001	0,185
-629,751	161,220	-0,021	0,021
-628,736	56,920	-0,060	-0,043
-627,722	800,000	-0,075	-0,171
-626,707	15,196	0,118	-0,068
-625,692	165,365	0,038	0,039
-624,678	64,489	-0,045	-0,033
-623,663	800,000	-0,022	0,070
-622,649	99,662	-0,067	-0,057
-621,634	-200,000	-0,002	-0,170
-620,619	-200,000	-0,025	-0,090
-619,605	326,826	0,036	0,051
-618,590	-63,371	0,056	0,017
-617,576	153,939	-0,075	0,076
-616,561	385,255	0,069	0,105
-615,546	21,486	-0,172	0,102
-614,532	55,120	-0,121	-0,085
-613,517	621,444	0,025	-0,047
-612,503	-63,611	0,070	-0,021
-611,488	59,648	0,125	-0,090
-610,474	-200,000	-0,003	-0,025
-609,459	243,687	0,061	-0,075
-608,444	-200,000	-0,036	-0,133
-607,430	771,339	-0,089	0,178
-606,415	800,000	-0,051	-0,117
-605,401	-22,008	0,020	0,009
-604,386	364,527	0,110	-0,162
-603,371	-87,757	-0,089	-0,019
-602,357	718,521	-0,110	-0,216
-601,342	-200,000	-0,021	0,124
-600,328	-48,982	0,062	-0,022
-599,313	226,899	0,083	-0,099
-598,298	311,554	0,093	0,128
-597,284	232,761	-0,069	0,083
-596,269	-160,683	-0,068	0,003
-595,255	130,473	-0,065	0,061
-594,240	-79,691	-0,041	0,010
-593,225	-200,000	-0,012	-0,099
-592,211	800,000	0,035	0,096
-591,196	-200,000	-0,028	0,183
-590,182	-20,787	0,069	-0,031
-589,167	355,002	0,031	0,046
-588,152	-200,000	0,037	-0,134
-587,138	486,730	-0,043	-0,071
-586,123	501,529	-0,040	0,068
-585,109	-200,000	-0,031	-0,136
-584,094	-109,067	0,143	-0,022
-583,079	-200,000	-0,013	0,112
-582,065	-200,000	0,022	0,146
-581,050	-199,985	0,154	-0,001
-580,036	102,057	-0,047	-0,040
-579,021	800,000	0,035	-0,092
-578,006	166,896	0,102	0,106
-576,992	-39,165	-0,081	-0,031
-575,977	-104,484	0,055	-0,009
-574,963	-200,000	-0,015	0,081
-573,948	-200,000	0,010	-0,106
-572,934	502,821	0,060	0,102
-571,919	-80,687	-0,004	-0,001
-570,904	662,934	0,031	0,059
-569,890	-155,967	-0,052	-0,002
-568,875	-200,000	-0,001	-0,008
-567,861	-115,245	0,053	-0,007
-566,846	-200,000	0,003	-0,129
-565,831	-32,878	0,094	-0,038
-564,817	483,434	0,075	0,124
-563,802	-119,667	-0,067	0,008
-562,788	433,476	0,035	-0,055
-561,773	36,485	-0,025	0,016
-560,758	800,000	-0,028	0,089
-559,744	-200,000	0,004	0,036
-558,729	50,060	-0,101	0,069
-557,715	-34,124	-0,092	-0,037
-556,700	-200,000	0,038	-0,123
-555,685	800,000	0,052	-0,117
-554,671	50,792	-0,128	0,088
-553,656	80,126	0,064	0,050
-552,642	800,000	0,055	-0,133
-551,627	-114,858	-0,100	0,014
-550,612	800,000	0,052	-0,105
-549,598	13,752	0,010	0,006
-548,583	62,007	-0,095	0,069
-547,569	-200,000	-0,045	-0,191
-546,554	-200,000	-0,011	-0,136
-545,539	-200,000	0,034	-0,179
-544,525	-200,000	-0,002	-0,183
-543,510	169,254	-0,039	-0,041
-542,496	-200,000	-0,033	0,106
-541,481	-200,000	-0,021	0,070
-540,466	800,000	0,017	0,050
-539,452	-33,947	0,098	-0,039
-538,437	-200,000	-0,003	-0,072
-537,423	82,019	-0,051	-0,040
-536,408	732,506	0,015	0,029
-535,393	-158,262	-0,090	0,004
-534,379	-37,865	-0,066	0,026
-533,364	-200,000	0,000	-0,090
-532,350	-200,000	0,003	0,056
-531,335	-200,000	0,005	-0,024
-530,321	-92,275	0,089	-0,018
-529,306	800,000	0,029	0,061
-528,291	66,427	-0,105	-0,078
-527,277	-15,052	0,026	-0,012
-526,262	800,000	0,036	0,097
-525,248	-69,078	0,193	-0,054
-524,233	-120,974	0,019	0,002
-523,218	56,143	0,010	-0,007
-522,204	800,000	0,040	0,108
-521,189	478,544	0,058	0,097
-520,175	-200,000	0,008	0,027
-519,160	75,821	-0,032	-0,025
-518,145	-42,814	-0,069	0,026
-517,131	800,000	0,010	0,029
-516,116	-51,752	0,097	0,033
-515,102	800,000	-0,051	0,132
-514,087	128,777	-0,039	-0,036
-513,072	800,000	0,039	-0,123
-512,058	386,652	-0,065	-0,098
-511,043	84,418	-0,039	-0,031
-510,029	27,839	0,160	-0,098
-509,014	-200,000	0,003	0,090
-507,999	-82,109	-0,083	0,020
-506,985	800,000	-0,040	-0,100
-505,970	-11,479	0,045	0,021
-504,956	-200,000	0,092	-0,000
-503,941	-200,000	-0,044	0,177
-502,926	112,210	0,022	0,019
-501,912	117,670	0,041	0,037
-500,897	-200,000	-0,004	-0,020
-499,883	79,731	-0,117	-0,092
-498,868	-200,000	0,001	-0,111
-497,853	-59,717	-0,127	-0,039
-496,839	480,922	0,020	-0,032
-495,824	-181,559	-0,016	-0,000
-494,810	-200,000	0,024	0,081
-493,795	139,916	0,031	-0,030
-492,781	-151,279	-0,137	-0,007
-491,766	-21,113	-0,155	-0,069
-490,751	259,113	-0,039	-0,049
-489,737	-150,148	0,107	-0,006
-488,722	800,000	0,047	-0,101
-487,708	800,000	0,039	0,106
-486,693	157,676	0,090	0,091
-485,678	-25,546	0,017	-0,007
-484,664	-94,608	-0,136	0,027
-483,649	39,265	-0,066	0,043
-482,635	-99,931	0,095	-0,017
-481,620	286,994	0,047	0,062
-480,605	157,245	0,033	-0,033
-479,591	-72,637	0,171	0,046
-478,576	800,000	-0,052	-0,110
-477,562	86,642	-0,052	-0,042
-476,547	-113,602	-0,080	-0,011
-475,532	47,711	-0,052	-0,035
-474,518	-200,000	0,001	-0,045
-473,503	-140,046	0,103	-0,008
-472,489	256,276	0,076	0,095
-471,474	-200,000	0,003	0,061
-470,459	69,843	-0,022	0,017
-469,445	-200,000	0,006	-0,141
-468,430	-0,204	0,025	-0,013
-467,416	136,739	-0,065	0,062
-466,401	800,000	0,038	0,119
-465,386	244,286	0,029	0,036
-464,372	495,470	0,057	0,095
-463,357	-200,000	0,006	-0,073
-462,343	-12,947	0,080	-0,038
-461,328	800,000	0,040	-0,082
-460,313	-200,000	-0,025	-0,199
-459,299	-200,000	-0,001	-0,004
-458,284	-69,302	0,090	-0,025
-457,270	184,194	0,094	0,101
-456,255	-73,445	-0,015	-0,004
-455,241	-148,915	0,028	0,002
-454,226	-200,000	-0,001	-0,027
-453,211	800,000	0,021	0,048
-452,197	800,000	-0,031	-0,071
-451,182	336,075	0,085	0,121
-450,168	-139,307	-0,011	-0,001
-449,153	-8,811	0,087	-0,043
-448,138	258,066	-0,049	-0,062
-447,124	439,559	-0,026	-0,042
-446,109	800,000	0,013	-0,036
-445,095	10,020	0,117	-0,064
-444,080	-200,000	0,039	0,181
-443,065	-200,000	0,004	0,028
-442,051	800,000	-0,007	-0,020
-441,036	-200,000	0,012	0,157
-440,022	800,000	0,018	0,037
-439,007	-200,000	-0,016	-0,061
-437,992	12,789	0,036	0,020
-436,978	251,628	0,090	0,111
-435,963	-55,986	-0,054	-0,017
-434,949	-61,052	-0,137	0,042
-433,934	101,284	-0,040	-0,033
-432,919	800,000	-0,039	-0,100
-431,905	524,324	-0,069	-0,118
-430,890	-200,000	0,011	0,038
-429,876	-4,626	0,066	-0,033
-428,861	-200,000	-0,041	0,150
-427,846	-119,250	0,052	-0,007
-426,832	181,575	0,062	-0,066
-425,817	-200,000	0,033	-0,156
-424,803	374,156	-0,048	-0,072
-423,788	-155,167	-0,106	-0,005
-422,773	78,607	0,071	-0,055
-421,759	-54,733	0,078	-0,025
-420,744	-200,000	-0,047	0,209
-419,730	-22,341	-0,105	0,046
-418,715	800,000	-0,027	0,055
-417,701	800,000	-0,029	0,082
-416,686	-200,000	0,022	0,087
-415,671	800,000	0,067	0,175
-414,657	-60,905	0,196	0,060
-413,642	125,573	0,087	0,080
-412,628	573,997	-0,081	-0,144
-411,613	10,255	0,048	0,027
-410,598	-200,000	-0,026	-0,129
-409,584	109,119	0,081	-0,070
-408,569	101,890	0,045	-0,039
-407,555	1,750	0,109	-0,057
-406,540	-200,000	-0,012	0,071
-405,525	-13,408	-0,077	-0,036
-404,511	800,000	0,029	0,079
-403,496	373,554	-0,079	-0,118
-402,482	-200,000	-0,008	0,051
-401,467	63,675	0,021	0,015
-400,452	800,000	0,034	0,087
-399,438	-129,498	-0,054	0,005
-398,423	-17,970	-0,125	-0,057
-397,409	800,000	-0,014	0,037
-396,394	356,501	-0,100	-0,146
-395,379	442,988	-0,076	-0,121
-394,365	104,962	0,100	0,085
-393,350	-138,014	0,057	0,005
-392,336	-200,000	0,008	-0,105
-391,321	601,758	-0,029	-0,053
-390,306	-65,725	-0,069	-0,020
-389,292	372,955	0,024	0,035
-388,277	122,426	-0,076	-0,069
-387,263	-7,019	0,133	0,066
-386,248	487,318	0,067	-0,112
-385,233	58,075	0,029	0,021
-384,219	-52,082	0,055	0,018
-383,204	-155,109	0,079	0,004
-382,190	-200,000	-0,013	-0,113
-381,175	151,723	-0,033	-0,032
-380,160	201,696	-0,059	-0,066
-379,146	-200,000	0,005	-0,025
-378,131	-62,182	-0,084	0,025
-377,117	-141,244	-0,163	0,012
-376,102	106,281	-0,087	-0,074
-375,088	-200,000	-0,017	0,056
-374,073	-200,000	-0,017	-0,060
-373,058	672,623	-0,032	-0,061
-372,044	-67,491	0,055	-0,016
-371,029	132,518	0,083	0,078
-370,015	-200,000	-0,003	0,059
-369,000	324,653	0,033	0,046
-367,985	321,515	0,069	-0,095
-366,971	105,821	0,125	-0,107
-365,956	426,710	0,068	-0,106
-364,942	455,896	0,012	-0,019
-363,927	258,492	0,054	0,068
-362,912	-22,649	-0,107	-0,047
-361,898	-200,000	-0,014	-0,138
-360,883	494,887	-0,064	0,107
-359,869	296,917	0,058	-0,078
-358,854	498,787	0,020	-0,033
-357,839	-200,000	0,022	-0,076
-356,825	-200,000	0,008	-0,053
-355,810	-87,004	-0,074	0,016
-354,796	-200,000	-0,030	-0,126
-353,781	-36,104	0,032	-0,012
-352,766	43,141	-0,081	-0,053
-351,752	-200,000	0,041	0,152
-350,737	-130,526	-0,040	0,004
-349,723	800,000	0,006	0,014
-348,708	-132,876	0,007	-0,001
-347,693	-54,759	0,103	0,034
-346,679	-200,000	0,011	0,100
-345,664	7,477	-0,056	0,030
-344,650	42,935	0,035	-0,023
-343,635	800,000	-0,078	0,181
-342,620	-40,559	0,210	0,079
-341,606	57,531	0,052	-0,037
-340,591	-131,397	-0,099	-0,009
-339,577	-108,169	-0,110	0,017
-338,562	-37,962	-0,063	-0,024
-337,548	82,934	0,057	0,045
-336,533	88,998	0,060	-0,048
-335,518	37,235	0,043	0,028
-334,504	-200,000	-0,029	0,109
-333,489	432,830	-0,066	0,103
-332,475	-200,000	-0,027	-0,120
-331,460	-20,840	0,080	-0,035
-330,445	-200,000	-0,070	0,226
-329,431	-200,000	-0,014	0,121
-328,416	-40,703	0,129	0,048
-327,402	800,000	0,044	-0,126
-326,387	-24,508	0,121	0,052
-325,372	-47,436	-0,027	-0,010
-324,358	800,000	0,047	-0,133
-323,343	3,683	0,074	-0,039
-322,329	-87,329	0,083	0,018
-321,314	-200,000	0,025	-0,120
-320,299	-107,179	-0,097	0,015
-319,285	95,572	-0,053	0,044
-318,270	-125,603	-0,091	0,010
-317,256	-34,349	-0,100	-0,039
-316,241	112,463	-0,125	-0,109
-315,226	266,408	-0,109	0,138
-314,212	24,333	-0,054	-0,032
-313,197	27,201	-0,025	-0,015
-312,183	516,040	0,014	0,024
-311,168	800,000	0,036	-0,081
-310,153	-200,000	-0,004	-0,135
-309,139	-200,000	-0,010	-0,135
-308,124	-200,000	-0,008	-0,094
-307,110	53,581	0,038	0,027
-306,095	800,000	-0,020	0,059
-305,080	145,470	0,080	0,077
-304,066	61,364	0,078	-0,056
-303,051	-40,024	-0,059	0,022
-302,037	-200,000	-0,026	-0,133
-301,022	316,318	0,015	0,020
-300,008	-133,792	0,068	-0,006
-298,993	-200,000	0,012	0,114
-297,978	-40,931	-0,079	0,030
-296,964	13,603	-0,114	-0,064
-295,949	475,798	0,047	0,077
-294,935	800,000	0,065	0,135
-293,920	35,819	-0,093	0,059
-292,905	-126,515	0,090	0,010
-291,891	52,254	0,137	-0,095
-290,876	55,031	0,104	-0,073
-289,862	208,302	-0,150	0,170
-288,847	-106,000	-0,110	0,018
-287,832	228,857	-0,076	-0,090
-286,818	-136,917	0,127	-0,010
-285,803	37,078	0,017	0,011
-284,789	155,092	0,025	0,025
-283,774	800,000	-0,037	0,113
-282,759	800,000	-0,076	-0,187
-281,745	-144,286	-0,044	-0,003
-280,730	-63,453	-0,140	-0,041
-279,716	-120,000	0,073	0,009
-278,701	622,537	0,071	-0,131
-277,686	190,001	0,152	0,165
-276,672	-200,000	-0,036	-0,123
-275,657	-128,978	0,044	0,004
-274,643	-200,000	0,003	-0,057
-273,628	259,453	-0,032	0,040
-272,613	-200,000	-0,006	0,067
-271,599	-180,458	-0,015	0,000
-270,584	469,719	-0,046	-0,075
-269,570	-91,689	0,051	0,010
-268,555	378,451	0,070	-0,104
-267,540	-71,972	-0,129	-0,034
-266,526	409,150	0,057	-0,088
-265,511	610,015	-0,038	0,069
-264,497	177,749	-0,045	-0,048
-263,482	540,642	0,066	0,114
-262,467	-46,615	0,070	0,025
-261,453	242,433	-0,045	0,054
-260,438	-200,000	-0,014	-0,146
-259,424	65,140	-0,101	-0,073
-258,409	50,400	0,137	0,093
-257,395	39,830	-0,116	0,075
-256,380	100,142	0,113	0,094
-255,365	304,558	0,090	-0,120
-254,351	115,229	0,013	0,011
-253,336	-93,368	0,037	-0,007
-252,322	432,056	0,039	0,061
-251,307	-139,699	0,118	-0,009
-250,292	301,910	0,075	0,101
-249,278	-200,000	-0,006	0,099
-248,263	731,397	-0,035	0,067
-247,249	-200,000	0,039	0,233
-246,234	-200,000	-0,004	0,078
-245,219	-200,000	-0,016	0,109
-244,205	411,722	-0,050	-0,077
-243,190	278,509	0,035	-0,045
-242,176	-200,000	-0,016	0,068
-241,161	87,681	0,054	0,044
-240,146	-35,245	0,115	0,045
-239,132	202,078	-0,036	0,040
-238,117	669,635	-0,016	0,030
-237,103	-200,000	0,018	-0,121
-236,088	362,036	0,021	-0,030
-235,073	-200,000	0,011	0,092
-234,059	-200,000	-0,046	0,162
-233,044	429,630	0,034	0,053
-232,030	-200,000	-0,009	0,116
-231,015	-156,814	-0,154	0,007
-230,000	-159,895	0,017	0,001
-228,986	-200,000	0,010	-0,156
-227,971	215,581	-0,034	-0,039
-226,957	282,692	-0,076	0,099
-225,942	252,590	0,130	0,160
-224,927	-46,959	-0,119	0,042
-223,913	800,000	-0,016	-0,047
-222,898	40,607	-0,119	-0,078
-221,884	-200,000	0,003	0,018
-220,869	4,716	0,053	0,028
-219,855	51,629	0,029	-0,020
-218,840	286,478	0,059	0,077
-217,825	39,257	-0,028	0,018
-216,811	800,000	-0,031	-0,068
-215,796	124,515	-0,073	0,066
-214,782	-68,258	0,109	0,030
-213,767	-200,000	-0,033	0,143
-212,752	800,000	-0,023	0,057
-211,738	-200,000	0,028	-0,116
-210,723	-94,286	-0,088	0,017
-209,709	-41,169	0,020	0,008
-208,694	800,000	-0,013	0,033
-207,679	-26,046	0,140	-0,059
-206,665	-200,000	0,021	0,133
-205,650	41,712	-0,063	0,041
-204,636	633,269	-0,053	0,098
-203,621	195,963	-0,121	0,133
-202,606	-200,000	0,004	-0,014
-201,592	-200,000	-0,021	-0,100
-200,577	266,501	-0,046	-0,058
-199,563	-122,393	0,043	0,005
-198,548	-200,000	-0,039	-0,126
-197,533	-200,000	0,004	0,063
-196,519	-200,000	-0,018	-0,126
-195,504	-123,707	-0,102	-0,012
-194,490	-66,527	-0,094	-0,027
-193,475	-200,000	-0,013	-0,063
-192,460	32,162	0,073	0,045
-191,446	800,000	-0,016	-0,034
-190,431	-200,000	-0,003	0,087
-189,417	-91,609	0,049	0,010
-188,402	-200,000	-0,038	0,130
-187,387	9,436	-0,045	-0,025
-186,373	-200,000	-0,019	-0,146
-185,358	-50,995	0,094	0,032
-184,344	800,000	-0,051	0,142
-183,329	-145,142	0,205	-0,013
-182,315	-35,261	0,130	0,051
-181,300	-139,176	0,079	-0,006
-180,285	-151,450	-0,109	-0,006
-179,271	167,943	-0,050	0,051
-178,256	-85,778	0,092	-0,020
-177,242	-55,290	0,068	-0,022
-176,227	246,589	-0,035	-0,043
-175,212	-65,043	-0,042	0,012
-174,198	-200,000	0,004	0,062
-173,183	41,509	-0,107	-0,070
-172,169	-31,216	-0,111	0,045
-171,154	571,658	-0,083	-0,146
-170,139	171,221	0,076	0,078
-169,125	249,815	-0,043	0,053
-168,110	800,000	-0,058	0,140
-167,096	4,267	-0,085	-0,045
-166,081	161,206	-0,044	-0,044
-165,066	-137,577	0,084	-0,007
-164,052	-70,925	-0,088	-0,024
-163,037	-200,000	0,007	0,035
-162,023	121,674	0,069	0,062
-161,008	12,753	0,074	-0,041
-159,993	-70,856	0,080	-0,021
-158,979	561,227	-0,090	-0,158
-157,964	-200,000	-0,015	-0,158
-156,950	98,916	0,059	0,049
-155,935	-200,000	0,006	0,057
-154,920	737,076	-0,037	0,072
-153,906	-200,000	-0,004	0,254
-152,891	800,000	-0,048	-0,103
-151,877	-200,000	0,029	0,169
-150,862	3,605	0,088	-0,046
-149,847	95,777	0,091	-0,075
-148,833	240,408	-0,048	0,058
-147,818	-200,000	0,012	0,069
-146,804	220,157	0,049	-0,056
-145,789	512,596	-0,032	0,054
-144,775	1,414	0,120	-0,062
-143,760	-132,168	-0,097	0,009
-142,745	800,000	0,058	0,117
-141,731	-61,655	-0,074	0,022
-140,716	-39,388	0,071	-0,027
-139,702	-40,893	0,128	0,047
-138,687	326,461	-0,069	0,096
-137,672	-62,259	-0,030	-0,009
-136,658	-200,000	-0,005	-0,055
-135,643	-200,000	-0,001	0,032
-134,629	25,466	-0,090	0,054
-133,614	800,000	-0,041	0,118
-132,599	21,426	0,108	0,063
-131,585	-200,000	-0,021	0,078
-130,570	-149,303	0,167	-0,009
-129,556	44,938	0,047	-0,031
-128,541	-200,000	0,014	-0,079
-127,526	800,000	0,039	-0,089
-126,512	-81,885	-0,037	-0,009
-125,497	-200,000	-0,000	0,077
-124,483	265,927	-0,010	-0,013
-123,468	-107,112	0,203	0,032
-122,453	228,871	-0,051	0,060
-121,439	-10,484	-0,006	-0,003
-120,424	-200,000	-0,022	0,086
-119,410	-20,401	0,112	0,049
-118,395	514,644	-0,037	0,062
-117,380	800,000	-0,077	0,207
-116,366	800,000	-0,027	-0,060
-115,351	-78,361	0,128	-0,031
-114,337	-91,490	-0,025	0,005
-113,322	-200,000	0,000	0,011
-112,307	-166,433	0,088	-0,003
-111,293	482,568	0,084	0,137
-110,278	-200,000	-0,006	0,037
-109,264	85,385	-0,102	-0,080
-108,249	-43,486	0,151	-0,055
-107,234	-11,196	-0,119	-0,056
-106,220	114,386	0,098	0,086
-105,205	-47,724	0,107	0,037
-104,191	800,000	0,026	0,070
-103,176	30,590	0,097	0,059
-102,162	-73,769	0,055	-0,014
-101,147	-127,126	-0,079	-0,008
-100,132	50,088	0,052	0,036
-99,118	-103,157	-0,123	-0,021
-98,103	-11,264	-0,049	0,023
-97,089	-186,560	0,173	-0,002
-96,074	744,325	0,044	0,086
-95,059	-200,000	0,002	0,117
-94,045	664,330	-0,040	-0,074
-93,030	800,000	-0,030	-0,078
-92,016	112,132	-0,070	0,061
-91,001	242,039	0,025	0,030
-89,986	-200,000	0,008	0,077
-88,972	224,226	0,059	0,069
-87,957	75,180	-0,047	-0,036
-86,943	140,785	-0,074	-0,070
-85,928	-200,000	0,007	-0,080
-84,913	-55,650	0,029	-0,009
-83,899	150,542	-0,067	-0,065
-82,884	-11,755	0,078	0,037
-81,870	-200,000	-0,005	0,030
-80,855	22,061	-0,100	0,059
-79,840	4,738	0,107	0,056
-78,826	-5,960	0,197	-0,096
-77,811	800,000	0,016	-0,044
-76,797	287,977	-0,116	0,152
-75,782	-200,000	-0,005	-0,041
-74,767	446,162	0,047	0,075
-73,753	33,627	-0,037	-0,023
-72,738	18,377	-0,070	-0,040
-71,724	381,799	-0,035	0,052
-70,709	-41,995	-0,122	0,045
-69,694	81,211	0,066	-0,051
-68,680	-41,059	0,140	-0,052
-67,665	-27,122	-0,033	-0,014
-66,651	-110,494	0,116	-0,017
-65,636	-200,000	-0,007	0,043
-64,622	-200,000	-0,014	0,140
-63,607	-200,000	-0,012	0,073
-62,592	-87,548	-0,062	0,013
-61,578	800,000	0,035	0,093
-60,563	800,000	0,035	0,096
-59,549	-40,453	0,031	0,011
-58,534	10,595	-2,067	-1,127
-57,519	-200,000	-0,024	-0,834
-56,505	-200,000	-1,250	-5,083
-55,490	108,217	0,881	0,753
-54,476	800,000	5,282	11,988
-53,461	-200,000	18,780	318,221
-52,446	800,000	742,172	2334,640
-51,432	557,319	1657,596	2876,475
-50,417	110,927	1641,196	1416,179
-49,403	75,377	1290,931	975,592
-48,388	30,234	1031,536	629,903
-47,373	19,882	994,220	572,810
-46,359	17,319	981,961	557,285
-45,344	14,051	978,120	544,332
-44,330	14,395	976,338	544,450
-43,315	13,718	974,721	541,305
-42,300	13,628	973,637	540,385
-41,286	13,621	972,723	539,835
-40,271	13,690	971,684	539,462
-39,257	13,716	970,663	538,960
-38,242	13,675	969,769	538,307
-37,227	13,662	969,083	537,864
-36,213	13,696	968,122	537,421
-35,198	13,671	967,120	536,761
-34,184	13,653	966,628	536,406
-33,169	13,615	965,585	535,683
-32,154	13,745	964,460	535,462
-31,140	13,660	963,825	534,812
-30,125	13,653	962,997	534,309
-29,111	13,642	962,191	533,804
-28,096	13,679	961,423	533,475
-27,082	13,740	960,674	533,237
-26,067	13,719	960,053	532,804
-25,052	13,673	959,342	532,239
-24,038	13,710	958,514	531,878
-23,023	13,613	958,164	531,349
-22,009	13,761	957,297	531,325
-20,994	13,738	956,790	530,949
-19,979	13,701	955,993	530,365
-18,965	13,653	955,534	529,934
-17,950	13,680	954,989	529,698
-16,936	13,634	954,289	529,140
-15,921	13,688	953,714	528,975
-14,906	13,615	952,723	528,170
-13,892	13,594	952,167	527,775
-12,877	13,567	951,435	527,261
-11,863	13,546	950,812	526,828
-10,848	13,584	950,254	526,618
-9,833	13,618	949,882	526,499
-8,819	13,677	949,187	526,281
-7,804	13,591	948,556	525,639
-6,790	13,582	947,968	525,263
-5,775	13,606	947,462	525,036
-4,760	13,638	946,870	524,792
-3,746	13,640	946,198	524,403
-2,731	13,436	945,522	523,359
-1,717	13,419	944,744	522,855
-0,702	13,379	944,217	522,415
0,313	13,262	943,545	522,460
1,327	16,531	941,188	531,458
2,342	25,570	795,571	473,237
3,356	21,976	460,090	268,144
4,371	-4,825	317,220	156,125
5,386	-8,733	299,085	143,195
6,400	-10,854	293,001	138,144
7,415	-11,127	290,536	136,698
8,429	-11,410	288,942	135,657
9,444	-11,569	288,128	135,106
10,459	-11,523	287,451	134,821
11,473	-11,377	286,764	134,630
12,488	-11,305	286,290	134,467
13,502	-11,512	285,893	134,066
14,517	-11,397	285,287	133,881
15,531	-11,420	284,781	133,610
16,546	-11,267	284,416	133,575
17,561	-11,402	284,142	133,304
18,575	-11,347	283,731	133,152
19,590	-11,413	283,435	132,937
20,604	-11,313	283,090	132,860
21,619	-11,419	282,756	132,589
22,634	-11,161	282,252	132,590
23,648	-11,522	282,018	132,120
24,663	-11,449	281,764	132,060
25,677	-11,442	281,507	131,935
26,692	-11,405	281,036	131,738
27,707	-11,421	280,960	131,675
28,721	-11,416	280,622	131,510
29,736	-11,421	280,407	131,392
30,750	-11,311	280,088	131,337
31,765	-11,521	279,878	131,026
32,780	-11,486	279,722	130,975
33,794	-11,471	279,493	130,869
34,809	-11,406	279,030	130,703
35,823	-11,453	278,817	130,547
36,838	-11,536	278,532	130,323
37,853	-11,509	278,375	130,263
38,867	-11,509	278,261	130,199
39,882	-11,437	277,821	130,049
40,896	-11,601	277,783	129,864
41,911	-11,510	277,431	129,775
42,926	-11,417	277,041	129,668
43,940	-11,357	276,740	129,573
44,955	-11,555	276,713	129,361
45,969	-11,632	276,568	129,209
46,984	-11,837	276,258	128,860
47,999	-11,960	275,908	128,570
49,013	-11,801	275,588	128,559
50,028	-12,155	275,292	128,077
51,042	-12,127	275,118	128,011
52,057	-12,305	274,839	127,702
53,071	-12,139	274,617	127,744
54,086	-12,075	274,376	127,680
55,101	-11,882	274,319	127,822
56,115	-11,725	274,082	127,847
57,130	-11,373	274,057	128,153
58,144	-11,401	273,806	127,998
59,159	-11,368	273,581	127,912
60,174	-11,172	273,282	127,943
61,188	-11,269	273,083	127,748
62,203	-11,354	272,796	127,524
63,217	-11,338	272,679	127,473
64,232	-11,184	272,422	127,484
65,247	-11,306	272,143	127,229
66,261	-11,392	271,909	127,029
67,276	-11,445	271,526	126,789
68,290	-11,841	271,589	126,441
69,305	-11,620	271,091	126,402
70,320	-11,788	270,999	126,193
71,334	-11,591	270,960	126,345
72,349	-11,381	270,595	126,358
73,363	-11,385	270,537	126,316
74,378	-11,246	270,142	126,247
75,393	-11,322	269,923	126,064
76,407	-11,237	269,722	126,036
77,422	-11,385	269,524	125,798
78,436	-11,370	269,273	125,682
79,451	-11,290	269,016	125,625
80,466	-11,473	268,837	125,363
81,480	-11,385	268,567	125,305
82,495	-11,626	268,304	124,952
83,509	-11,302	268,161	125,170
84,524	-11,621	267,933	124,761
85,539	-11,661	267,730	124,620
86,553	-11,592	267,437	124,535
87,568	-11,449	267,298	124,589
88,582	-11,575	267,054	124,350
89,597	-11,725	266,905	124,134
90,611	-11,480	266,666	124,233
91,626	-11,462	266,631	124,222
92,641	-11,463	266,379	124,093
93,655	-11,467	266,284	124,034
94,670	-11,525	265,858	123,772
95,684	-11,512	265,688	123,694
96,699	-11,466	265,537	123,653
97,714	-11,477	265,308	123,526
98,728	-11,556	265,007	123,303
99,743	-11,567	264,660	123,121
100,757	-11,526	264,585	123,112
101,772	-11,629	264,424	122,934
102,787	-11,275	264,156	123,116
103,801	-11,428	264,149	122,964
104,816	-11,305	263,923	122,958
105,830	-11,352	263,741	122,820
106,845	-11,181	263,539	122,868
107,860	-11,600	263,451	122,442
108,874	-11,316	263,075	122,509
109,889	-11,303	262,882	122,420
110,903	-11,369	262,663	122,249
111,918	-11,435	262,559	122,131
112,933	-11,402	262,323	122,039
113,947	-11,312	262,165	122,035
114,962	-11,442	262,079	121,869
115,976	-11,536	261,746	121,619
116,991	-11,441	261,609	121,630
118,006	-11,224	261,352	121,691
119,020	-11,299	261,282	121,581
120,035	-11,149	261,074	121,607
121,049	-11,191	260,969	121,509
122,064	-11,153	260,672	121,393
123,079	-11,499	260,613	121,050
124,093	-11,261	260,259	121,085
125,108	-11,641	260,003	120,620
126,122	-11,782	259,774	120,379
127,137	-11,666	259,594	120,387
128,151	-11,641	259,274	120,249
129,166	-11,676	259,226	120,186
130,181	-11,631	259,004	120,112
131,195	-11,676	258,737	119,938
132,210	-11,583	258,707	119,995
133,224	-11,276	258,488	120,151
134,239	-11,379	258,274	119,950
135,254	-11,449	258,090	119,794
136,268	-11,384	257,791	119,701
137,283	-11,689	257,577	119,325
138,297	-11,681	257,257	119,173
139,312	-11,684	257,079	119,077
140,327	-11,594	257,033	119,124
141,341	-11,386	257,084	119,317
142,356	-11,307	256,821	119,253
143,370	-11,172	256,428	119,177
144,385	-11,161	256,409	119,167
145,400	-11,126	256,163	119,073
146,414	-11,147	256,068	119,000
147,429	-11,125	255,838	118,901
148,443	-11,047	255,570	118,833
149,458	-11,240	255,557	118,650
150,473	-11,175	255,236	118,546
151,487	-11,086	255,071	118,536
152,502	-11,204	254,878	118,335
153,516	-11,141	254,755	118,321
154,531	-11,057	254,627	118,323
155,546	-11,216	254,359	118,051
156,560	-11,170	254,265	118,036
157,575	-11,238	253,952	117,823
158,589	-11,262	253,849	117,744
159,604	-11,301	253,562	117,566
160,619	-11,115	253,383	117,632
161,633	-11,217	253,348	117,518
162,648	-11,160	253,064	117,425
163,662	-11,038	252,877	117,432
164,677	-11,090	252,693	117,291
165,692	-11,169	252,573	117,158
166,706	-11,173	252,452	117,088
167,721	-11,113	252,203	117,013
168,735	-11,271	252,137	116,838
169,750	-11,013	251,951	116,960
170,764	-11,062	251,974	116,919
171,779	-11,126	251,739	116,745
172,794	-10,907	251,484	116,802
173,808	-11,075	251,140	116,490
174,823	-11,520	250,957	116,018
175,837	-11,763	250,824	115,741
176,852	-11,194	250,712	116,160
177,867	-11,269	250,698	116,079
178,881	-11,077	250,408	116,097
179,896	-11,286	250,240	115,832
180,910	-10,911	250,123	116,084
181,925	-11,104	249,964	115,837
182,940	-11,193	249,873	115,710
183,954	-11,143	249,444	115,542
184,969	-11,133	249,449	115,543
185,983	-11,133	249,093	115,368
186,998	-11,045	249,099	115,435
188,013	-11,031	248,988	115,384
189,027	-10,912	248,606	115,296
190,042	-10,989	248,413	115,132
191,056	-10,995	248,328	115,078
192,071	-10,936	248,156	115,037
193,086	-11,209	248,061	114,755
194,100	-11,049	247,651	114,688
195,115	-10,882	247,597	114,792
196,129	-11,013	247,261	114,517
197,144	-11,091	247,193	114,410
198,159	-11,069	247,096	114,374
199,173	-10,988	246,750	114,270
200,188	-11,075	246,632	114,133
201,202	-11,353	246,359	113,767
202,217	-11,778	246,141	113,304
203,232	-11,817	245,963	113,180
204,246	-11,311	245,989	113,600
205,261	-10,830	245,643	113,827
206,275	-11,911	245,427	112,826
207,290	-7,738	247,038	117,019
208,304	0,382	249,762	125,092
209,319	4,168	250,764	128,750
210,334	4,611	250,835	129,146
211,348	5,062	250,697	129,439
212,363	5,164	250,692	129,511
213,377	5,410	250,433	129,571
214,392	5,181	250,237	129,267
215,407	4,975	250,058	128,992
216,421	4,871	249,990	128,858
217,436	5,284	249,856	129,121
218,450	5,379	249,689	129,102
219,465	4,956	249,382	128,581
220,480	4,692	249,274	128,295
221,494	4,809	248,968	128,223
222,509	4,843	248,834	128,170
223,523	4,741	248,691	128,001
224,538	4,420	248,339	127,544
225,553	4,599	248,201	127,609
226,567	4,704	248,069	127,616
227,582	4,934	247,960	127,738
228,596	4,661	247,678	127,357
229,611	4,374	247,486	127,011
230,626	4,337	247,377	126,912
231,640	4,366	247,303	126,888
232,655	4,617	247,076	126,966
233,669	4,395	246,850	126,656
234,684	4,283	246,740	126,497
235,699	4,531	246,713	126,675
236,713	4,878	246,480	126,828
237,728	4,475	246,277	126,383
238,742	4,464	246,051	126,246
239,757	4,291	245,920	126,026
240,772	4,331	245,744	125,958
241,786	4,482	245,567	125,979
242,801	4,416	245,554	125,907
243,815	4,323	245,288	125,684
244,830	4,522	245,262	125,821
245,844	4,555	245,102	125,755
246,859	4,419	244,768	125,462
247,874	4,457	244,716	125,455
248,888	4,507	244,531	125,389
249,903	4,536	244,491	125,382
250,917	4,719	244,343	125,443
251,932	4,744	244,212	125,385
252,947	4,725	243,953	125,225
253,961	4,394	243,807	124,871
254,976	4,436	243,674	124,826
255,990	4,737	243,440	124,938
257,005	4,466	243,326	124,650
258,020	4,283	243,055	124,352
259,034	4,427	243,052	124,455
260,049	4,549	242,861	124,445
261,063	4,182	242,595	124,002
262,078	4,201	242,532	123,974
263,093	4,709	242,250	124,227
264,107	4,708	242,333	124,258
265,122	4,484	242,031	123,912
266,136	4,482	241,973	123,869
267,151	4,797	241,944	124,097
268,166	4,380	241,589	123,569
269,180	4,080	241,407	123,225
270,195	5,018	241,434	123,978
271,209	5,157	241,208	123,962
272,224	4,596	240,997	123,395
273,239	4,055	240,814	122,859
274,253	4,229	240,632	122,893
275,268	4,592	240,435	123,072
276,282	4,256	240,573	122,863
277,297	4,075	240,218	122,527
278,312	4,411	239,942	122,642
279,326	4,471	239,923	122,669
280,341	4,372	239,786	122,509
281,355	4,500	239,621	122,516
282,370	4,682	239,467	122,570
283,384	4,576	239,208	122,343
284,399	4,348	239,114	122,104
285,414	4,178	238,953	121,876
286,428	4,327	238,902	121,957
287,443	4,254	238,672	121,771
288,457	4,575	238,517	121,935
289,472	4,725	238,465	122,015
290,487	4,425	238,170	121,617
291,501	4,323	238,055	121,467
292,516	4,094	237,857	121,175
293,530	4,140	237,608	121,074
294,545	4,555	237,667	121,419
295,560	4,539	237,540	121,331
296,574	4,312	237,188	120,962
297,589	4,122	237,224	120,821
298,603	4,678	237,140	121,203
299,618	4,688	237,032	121,145
300,633	4,732	236,720	121,009
301,647	4,677	236,641	120,914
302,662	5,006	236,479	121,078
303,676	4,859	236,476	120,951
304,691	4,757	236,293	120,768
305,706	4,907	236,237	120,845
306,720	4,654	235,914	120,472
307,735	4,673	235,782	120,409
308,749	4,700	235,516	120,283
309,764	4,283	235,400	119,889
310,779	4,205	235,171	119,701
311,793	4,090	234,890	119,458
312,808	4,291	234,772	119,543
313,822	4,064	234,609	119,274
314,837	4,229	234,488	119,329
315,852	4,065	234,397	119,146
316,866	4,545	234,286	119,449
317,881	5,317	234,180	119,981
318,895	4,931	234,127	119,645
319,910	4,887	234,021	119,546
320,925	4,761	233,589	119,218
321,939	4,256	233,344	118,693
322,954	4,493	233,513	118,951
323,968	4,457	233,305	118,807
324,983	4,430	233,148	118,696
325,997	4,897	233,059	118,999
327,012	4,825	232,970	118,888
328,027	4,584	232,741	118,575
329,041	4,911	232,611	118,749
330,056	5,357	232,614	119,082
331,070	5,414	232,451	119,032
332,085	5,061	232,236	118,641
333,100	4,724	231,999	118,251
334,114	4,587	231,941	118,107
335,129	4,802	231,751	118,163
336,143	5,005	231,750	118,307
337,158	4,868	231,544	118,087
338,173	4,679	231,246	117,781
339,187	4,433	231,166	117,542
340,202	4,701	231,039	117,671
341,216	4,573	230,979	117,533
342,231	4,411	230,680	117,246
343,246	4,358	230,507	117,108
344,260	4,714	230,450	117,339
345,275	4,863	230,366	117,399
346,289	5,260	230,030	117,518
347,304	5,120	229,999	117,385
348,319	4,807	229,922	117,099
349,333	4,778	229,634	116,920
350,348	4,537	229,410	116,613
351,362	4,693	229,460	116,746
352,377	4,506	229,190	116,458
353,392	4,353	229,043	116,257
354,406	4,539	228,752	116,239
355,421	193,678	1320,013	1389,437
356,435	155,262	1452,934	1389,392
