DTS Sentinel unit serial number:	SN410029Multiplexer serial number:	ORYXHardware model number:	OX2-SRSoftware version number:	ORYX F/W v4,00 Oryx Data Collector v3.7.2.0data status	okinstallation	B5 Nyhavnadifferential loss correction	single-endedforward channel	channel 2reverse channel	N/Adate	2023/12/13time	17:57:13forward acquisition time	300,00reverse acquisition time	0,00gamma	499,1914k internal	0,3159k external	0,3159temperature offset calibration	1,0000default loss term (dB/km)	0,3820temperature slope calibration	1,0000multiplexer offset coefficient	1,0000multiplexer slope coefficient	1,0000fibre end	0,00T internal ref (°C)	13,27T ext. ref 1 (°C)	-3,99T ext. ref 2 (°C)	-4,09length (m)	temperature (°C)	Stokes	anti-Stokes-744,400	-67,737	0,140	0,040
-743,385	-200,000	-0,297	0,000
-742,371	43,284	0,145	0,098
-741,356	-73,372	-0,221	0,059
-740,342	-31,501	0,157	0,065
-739,327	-179,240	-0,198	0,003
-738,312	-120,257	0,142	-0,018
-737,298	-46,271	-0,255	-0,092
-736,283	1,998	0,085	0,045
-735,269	-142,726	-0,248	-0,018
-734,254	800,000	0,024	0,052
-733,239	-67,181	-0,523	-0,151
-732,225	117,957	0,204	0,185
-731,210	800,000	-0,035	0,112
-730,196	393,831	-0,069	-0,107
-729,181	19,773	0,061	-0,036
-728,167	800,000	0,064	0,158
-727,152	-132,824	-0,068	0,006
-726,137	725,718	0,062	0,123
-725,123	-200,000	-0,000	-0,073
-724,108	800,000	-0,061	0,125
-723,094	80,143	-0,101	-0,080
-722,079	800,000	-0,032	0,075
-721,064	-200,000	0,035	-0,125
-720,050	-154,717	-0,183	0,009
-719,035	-200,000	0,027	-0,119
-718,021	429,442	-0,049	-0,079
-717,006	-158,703	-0,089	0,004
-715,991	-40,647	-0,069	-0,026
-714,977	201,850	-0,054	-0,062
-713,962	-200,000	0,011	0,070
-712,948	-200,000	0,000	0,063
-711,933	162,380	0,137	0,141
-710,918	697,141	-0,078	0,152
-709,904	100,338	-0,031	-0,026
-708,889	204,867	-0,021	0,024
-707,875	-93,902	-0,016	0,003
-706,860	800,000	0,016	-0,044
-705,845	270,998	0,037	-0,048
-704,831	-200,000	-0,020	-0,083
-703,816	-59,438	-0,171	-0,054
-702,802	-26,312	0,012	-0,005
-701,787	-12,766	-0,043	0,020
-700,772	262,031	-0,101	-0,130
-699,758	-113,210	-0,043	0,006
-698,743	223,339	-0,018	0,022
-697,729	-124,679	-0,050	-0,006
-696,714	422,258	0,004	0,007
-695,699	93,288	-0,126	0,105
-694,685	-200,000	-0,002	-0,116
-693,670	-21,538	-0,041	0,018
-692,656	-161,548	-0,109	0,004
-691,641	62,187	0,098	-0,072
-690,627	-200,000	-0,015	0,049
-689,612	137,645	0,041	-0,039
-688,597	-66,527	-0,041	0,012
-687,583	-76,393	-0,194	0,050
-686,568	-87,035	-0,151	-0,033
-685,554	-200,000	0,012	0,067
-684,539	689,506	0,029	0,056
-683,524	-6,157	0,024	0,012
-682,510	-34,470	0,136	0,054
-681,495	-24,019	-0,052	-0,023
-680,481	-195,097	-0,074	-0,000
-679,466	145,631	-0,038	0,037
-678,451	-185,153	-0,191	-0,002
-677,437	-18,859	-0,011	-0,005
-676,422	-200,000	-0,007	0,155
-675,408	-81,034	-0,047	0,011
-674,393	-200,000	-0,019	-0,110
-673,378	-174,385	-0,107	-0,002
-672,364	446,847	-0,067	-0,108
-671,349	800,000	-0,066	-0,167
-670,335	58,578	-0,097	-0,070
-669,320	-41,870	0,036	0,014
-668,305	-42,389	-0,154	-0,058
-667,291	-107,471	-0,082	-0,013
-666,276	75,481	0,069	0,054
-665,262	91,307	-0,097	-0,080
-664,247	-27,140	-0,143	-0,061
-663,232	-114,286	0,096	-0,013
-662,218	191,028	-0,037	-0,041
-661,203	-9,203	-0,088	-0,043
-660,189	-161,023	0,048	-0,002
-659,174	-200,000	-0,018	-0,130
-658,159	185,055	0,070	-0,076
-657,145	-200,000	0,004	0,032
-656,130	-77,148	0,056	-0,014
-655,116	-154,296	0,048	-0,002
-654,101	100,269	-0,090	0,077
-653,086	-200,000	0,030	0,121
-652,072	86,768	-0,078	-0,063
-651,057	-200,000	-0,026	-0,137
-650,043	212,467	-0,045	0,052
-649,028	800,000	-0,031	0,066
-648,014	-200,000	-0,002	-0,049
-646,999	-8,037	0,106	-0,052
-645,984	-200,000	-0,002	0,030
-644,970	-14,304	-0,139	-0,066
-643,955	481,127	-0,117	-0,196
-642,941	-105,117	-0,170	-0,028
-641,926	-200,000	-0,001	-0,004
-640,911	-200,000	-0,014	-0,081
-639,897	-142,611	-0,036	-0,003
-638,882	-139,397	-0,182	-0,014
-637,868	-200,000	-0,003	-0,126
-636,853	-200,000	-0,021	-0,129
-635,838	-200,000	-0,000	0,038
-634,824	425,876	0,037	-0,059
-633,809	377,043	0,037	-0,055
-632,795	106,694	0,139	0,121
-631,780	800,000	-0,021	0,048
-630,765	-200,000	0,019	0,094
-629,751	508,042	0,047	0,080
-628,736	-70,334	-0,129	-0,036
-627,722	-200,000	0,027	0,236
-626,707	-36,755	-0,122	-0,048
-625,692	-84,853	0,121	-0,028
-624,678	11,471	-0,119	0,067
-623,663	28,203	-0,078	0,048
-622,649	-98,019	-0,106	-0,020
-621,634	583,130	0,045	-0,082
-620,619	-49,376	-0,082	-0,029
-619,605	153,305	0,049	-0,049
-618,590	512,184	0,029	0,049
-617,576	48,158	-0,100	-0,069
-616,561	44,202	-0,035	-0,024
-615,546	-22,654	-0,066	0,029
-614,532	166,966	-0,164	-0,171
-613,517	800,000	0,014	-0,043
-612,503	800,000	0,044	-0,129
-611,488	-200,000	0,002	-0,025
-610,474	800,000	-0,031	-0,070
-609,459	85,192	-0,030	-0,024
-608,444	199,839	-0,080	0,090
-607,430	436,879	0,090	-0,144
-606,415	5,512	0,099	-0,053
-605,401	286,847	0,032	-0,043
-604,386	-49,875	0,144	0,050
-603,371	-200,000	-0,010	0,044
-602,357	55,794	-0,081	-0,058
-601,342	129,163	-0,043	-0,040
-600,328	-200,000	-0,015	-0,050
-599,313	-98,501	-0,180	0,034
-598,298	229,365	0,078	0,093
-597,284	800,000	-0,036	0,105
-596,269	152,622	0,067	-0,067
-595,255	-200,000	-0,022	0,092
-594,240	62,583	-0,058	0,042
-593,225	124,360	0,029	0,027
-592,211	800,000	-0,039	0,117
-591,196	-65,105	-0,028	0,008
-590,182	-56,228	-0,169	0,055
-589,167	-111,809	-0,072	0,011
-588,152	-200,000	0,035	0,123
-587,138	-200,000	0,002	0,106
-586,123	-200,000	-0,006	0,028
-585,109	40,359	-0,060	-0,040
-584,094	337,182	-0,079	-0,113
-583,079	64,527	0,017	-0,013
-582,065	-112,174	-0,065	0,009
-581,050	800,000	0,008	0,025
-580,036	-142,583	0,022	0,002
-579,021	-200,000	0,016	-0,058
-578,006	-99,339	-0,177	0,032
-576,992	-200,000	0,005	0,027
-575,977	85,913	-0,022	0,017
-574,963	279,227	0,043	-0,056
-573,948	-28,033	0,080	-0,034
-572,934	-200,000	-0,017	-0,058
-571,919	-106,267	-0,128	-0,021
-570,904	62,778	-0,058	0,042
-569,890	800,000	0,014	-0,043
-568,875	-200,000	-0,011	0,038
-567,861	-116,927	-0,082	0,011
-566,846	311,354	-0,041	-0,056
-565,831	-200,000	-0,000	-0,009
-564,817	-200,000	0,037	-0,157
-563,802	17,297	-0,054	0,031
-562,788	631,560	0,065	0,122
-561,773	-200,000	0,017	0,117
-560,758	800,000	-0,079	0,172
-559,744	54,942	0,140	0,099
-558,729	-134,352	0,193	0,017
-557,715	257,174	-0,047	-0,060
-556,700	-200,000	-0,005	-0,054
-555,685	33,230	-0,118	0,074
-554,671	-200,000	0,005	0,041
-553,656	68,304	0,125	-0,094
-552,642	46,854	0,059	-0,040
-551,627	-144,829	-0,148	-0,010
-550,612	-200,000	-0,034	-0,132
-549,598	-40,584	0,071	-0,027
-548,583	-101,269	-0,062	0,011
-547,569	265,504	-0,070	0,089
-546,554	178,450	-0,051	0,055
-545,539	507,456	-0,073	0,124
-544,525	-70,634	0,232	0,064
-543,510	-52,110	-0,134	-0,045
-542,496	800,000	0,043	0,103
-541,481	21,742	-0,209	-0,124
-540,466	-139,465	-0,084	-0,006
-539,452	-47,614	0,115	0,041
-538,437	268,247	-0,035	0,044
-537,423	-74,660	-0,010	-0,003
-536,408	-200,000	-0,006	-0,072
-535,393	408,400	-0,100	-0,155
-534,379	255,045	0,078	0,098
-533,364	288,950	0,100	0,133
-532,350	-30,588	0,013	-0,005
-531,335	-200,000	0,003	0,026
-530,321	78,679	-0,076	0,059
-529,306	-200,000	0,020	0,077
-528,291	29,194	-0,034	-0,021
-527,277	545,615	0,070	0,122
-526,262	-200,000	0,021	-0,106
-525,248	125,372	-0,051	0,047
-524,233	800,000	0,044	0,134
-523,218	172,250	0,104	0,109
-522,204	800,000	0,027	0,062
-521,189	800,000	-0,056	-0,158
-520,175	-200,000	-0,002	-0,065
-519,160	-200,000	-0,006	0,071
-518,145	2,994	0,146	0,077
-517,131	-200,000	-0,007	0,079
-516,116	97,222	0,048	0,040
-515,102	-56,488	-0,158	-0,051
-514,087	-87,627	-0,039	0,009
-513,072	-200,000	-0,009	0,035
-512,058	-50,581	-0,098	0,034
-511,043	-152,164	-0,088	-0,005
-510,029	-126,637	-0,112	0,012
-509,014	182,629	0,074	-0,080
-507,999	3,743	0,125	0,066
-506,985	440,777	-0,011	0,017
-505,970	-139,865	-0,077	0,006
-504,956	-9,204	0,144	-0,070
-503,941	798,148	0,025	-0,051
-502,926	118,549	0,003	-0,003
-501,912	118,168	0,045	0,040
-500,897	268,843	0,058	0,074
-499,883	217,621	0,070	0,081
-498,868	-137,847	-0,135	0,011
-497,853	-200,000	-0,001	-0,026
-496,839	-200,000	-0,002	0,024
-495,824	-159,655	0,118	0,005
-494,810	422,754	-0,024	-0,037
-493,795	27,854	-0,026	0,016
-492,781	687,437	-0,050	-0,095
-491,766	232,043	0,067	-0,081
-490,751	230,894	0,096	-0,115
-489,737	-200,000	-0,001	-0,056
-488,722	800,000	0,023	0,050
-487,708	-142,113	-0,121	0,009
-486,693	-108,682	0,157	-0,024
-485,678	-143,295	-0,087	-0,006
-484,664	-137,392	0,030	-0,002
-483,649	548,532	0,037	-0,065
-482,635	-64,249	-0,095	0,028
-481,620	631,321	0,045	0,083
-480,605	397,617	-0,047	0,072
-479,591	800,000	0,017	0,037
-478,576	-95,776	-0,120	0,023
-477,562	106,046	-0,040	-0,035
-476,547	247,889	0,015	-0,019
-475,532	-200,000	0,045	-0,175
-474,518	800,000	-0,065	-0,186
-473,503	-200,000	-0,009	-0,036
-472,489	-90,986	0,067	0,014
-471,474	-115,680	-0,066	0,009
-470,459	7,881	0,088	-0,048
-469,445	110,175	-0,114	-0,100
-468,430	337,935	0,106	-0,151
-467,416	20,852	0,098	0,058
-466,401	671,859	0,053	0,100
-465,386	426,497	0,024	-0,038
-464,372	148,267	-0,048	-0,047
-463,357	233,770	-0,098	0,117
-462,343	-18,631	0,047	0,021
-461,328	14,407	0,194	-0,110
-460,313	-200,000	0,021	0,099
-459,299	-200,000	-0,051	0,165
-458,284	-200,000	0,042	0,196
-457,270	-200,000	-0,008	0,081
-456,255	-68,714	0,034	-0,010
-455,241	-99,219	0,060	-0,011
-454,226	5,572	-0,149	0,080
-453,211	-105,004	-0,086	0,014
-452,197	-20,987	-0,054	-0,024
-451,182	21,829	-0,088	0,052
-450,168	4,054	-0,011	0,006
-449,153	-200,000	0,002	-0,013
-448,138	-37,669	-0,132	-0,051
-447,124	782,668	-0,024	-0,048
-446,109	-13,102	0,056	-0,026
-445,095	-165,060	0,094	-0,003
-444,080	378,433	0,047	-0,070
-443,065	718,940	0,085	-0,165
-442,051	344,774	-0,038	-0,054
-441,036	-200,000	-0,019	-0,098
-440,022	531,607	-0,060	-0,104
-439,007	-71,887	-0,081	0,022
-437,992	63,092	0,111	0,081
-436,978	-143,919	0,076	0,005
-435,963	28,353	0,109	-0,067
-434,949	-39,909	-0,097	-0,037
-433,934	12,649	-0,053	-0,030
-432,919	129,145	-0,032	-0,029
-431,905	-99,972	0,093	-0,017
-430,890	-200,000	0,024	0,143
-429,876	104,058	0,097	0,083
-428,861	84,303	0,052	-0,041
-427,846	800,000	0,033	-0,104
-426,832	-200,000	-0,029	-0,103
-425,817	-99,856	-0,063	0,011
-424,803	-34,397	-0,118	0,047
-423,788	536,525	0,034	0,059
-422,773	-84,564	0,075	-0,017
-421,759	-133,666	0,170	0,015
-420,744	-140,128	-0,063	0,005
-419,730	-69,838	0,088	0,024
-418,715	-122,263	-0,059	-0,007
-417,701	-200,000	-0,002	-0,085
-416,686	795,014	0,048	0,096
-415,671	-200,000	0,005	0,098
-414,657	481,949	0,065	0,108
-413,642	200,829	0,042	-0,047
-412,628	184,994	0,179	-0,193
-411,613	-200,000	0,014	0,082
-410,598	66,790	-0,081	-0,060
-409,584	616,711	0,022	0,040
-408,569	-200,000	0,003	0,146
-407,555	-200,000	-0,012	0,143
-406,540	46,516	0,015	-0,010
-405,525	31,503	-0,157	-0,098
-404,511	-109,439	0,100	-0,015
-403,496	127,390	-0,080	-0,074
-402,482	-92,746	0,072	-0,015
-401,467	8,522	0,162	0,088
-400,452	800,000	-0,041	-0,092
-399,438	-200,000	0,013	-0,179
-398,423	576,257	-0,044	-0,079
-397,409	243,197	0,049	-0,060
-396,394	228,587	0,025	-0,030
-395,379	800,000	0,011	0,030
-394,365	60,392	-0,046	0,033
-393,350	-200,000	-0,001	0,054
-392,336	-115,586	0,107	0,014
-391,321	-57,572	0,047	-0,015
-390,306	-179,395	0,057	0,001
-389,292	800,000	-0,056	0,131
-388,277	80,328	0,051	-0,040
-387,263	3,485	0,068	0,036
-386,248	-200,000	-0,002	0,115
-385,233	608,825	0,033	0,059
-384,219	800,000	0,045	0,095
-383,204	800,000	0,033	0,099
-382,190	-98,264	-0,088	-0,016
-381,175	218,337	0,114	-0,133
-380,160	800,000	0,036	-0,081
-379,146	-200,000	0,011	0,038
-378,131	-200,000	-0,005	0,122
-377,117	800,000	0,046	0,094
-376,102	138,603	-0,072	-0,069
-375,088	38,655	-0,050	-0,032
-374,073	-90,736	-0,070	-0,015
-373,058	-61,293	0,123	0,037
-372,044	800,000	0,035	-0,088
-371,029	-12,279	-0,154	-0,073
-370,015	800,000	-0,038	0,102
-369,000	-56,086	-0,115	-0,037
-367,985	57,617	-0,071	-0,050
-366,971	-114,188	-0,128	-0,018
-365,956	10,709	0,084	0,047
-364,942	-200,000	0,011	0,052
-363,927	-45,459	0,060	0,022
-362,912	-95,348	0,204	0,040
-361,898	800,000	-0,006	0,019
-360,883	-200,000	-0,021	-0,130
-359,869	204,211	-0,058	-0,066
-358,854	-116,112	0,064	-0,009
-357,839	0,971	0,048	-0,025
-356,825	-29,888	-0,092	0,038
-355,810	-38,085	0,070	-0,027
-354,796	-200,000	-0,018	-0,078
-353,781	-74,435	-0,015	-0,004
-352,766	73,550	-0,072	-0,054
-351,752	800,000	-0,009	0,019
-350,737	-93,687	0,135	-0,027
-349,723	232,524	-0,045	-0,053
-348,708	-151,329	0,123	0,007
-347,693	615,932	0,074	0,135
-346,679	7,553	0,119	-0,064
-345,664	246,518	0,032	0,039
-344,650	-119,933	0,164	-0,020
-343,635	-200,000	-0,011	-0,083
-342,620	16,637	0,090	-0,052
-341,606	-200,000	0,014	0,049
-340,591	117,759	-0,078	0,070
-339,577	170,442	-0,042	-0,044
-338,562	-200,000	0,007	-0,090
-337,548	7,864	0,131	-0,071
-336,533	72,473	-0,064	-0,048
-335,518	-200,000	-0,035	-0,127
-334,504	-88,449	0,060	0,013
-333,489	800,000	0,028	0,075
-332,475	114,321	0,005	-0,005
-331,460	-58,618	-0,023	-0,007
-330,445	-200,000	0,016	0,084
-329,431	678,321	0,017	-0,032
-328,416	-30,955	0,128	-0,052
-327,402	-29,808	-0,065	-0,027
-326,387	-200,000	0,014	-0,060
-325,372	-200,000	0,023	0,117
-324,358	-200,000	-0,001	-0,005
-323,343	-200,000	-0,004	-0,067
-322,329	-6,037	0,154	-0,076
-321,314	585,672	0,019	0,033
-320,299	-200,000	-0,013	0,069
-319,285	319,832	0,031	0,043
-318,270	-116,878	-0,102	0,013
-317,256	-73,383	-0,093	0,024
-316,241	64,823	-0,119	-0,087
-315,226	-200,000	-0,001	-0,047
-314,212	800,000	0,047	0,118
-313,197	-200,000	-0,009	0,102
-312,183	257,102	0,031	-0,039
-311,168	800,000	0,014	0,042
-310,153	-66,585	0,046	-0,013
-309,139	-200,000	0,000	0,070
-308,124	-111,865	0,095	0,014
-307,110	-163,885	-0,054	-0,002
-306,095	77,568	0,150	0,116
-305,080	751,316	0,067	-0,131
-304,066	-4,334	0,126	-0,063
-303,051	-200,000	0,001	-0,034
-302,037	538,364	0,053	0,091
-301,022	-159,348	0,044	0,002
-300,008	-13,172	-0,065	0,031
-298,993	63,617	0,056	0,041
-297,978	539,967	0,017	0,030
-296,964	800,000	0,019	0,053
-295,949	800,000	-0,084	-0,184
-294,935	-169,157	-0,095	0,003
-293,920	254,796	-0,078	0,097
-292,905	-116,336	-0,077	0,010
-291,891	-200,000	-0,035	-0,132
-290,876	-200,000	0,006	-0,100
-289,862	-200,000	-0,039	-0,184
-288,847	-73,895	-0,058	-0,015
-287,832	199,604	-0,023	0,026
-286,818	310,968	-0,120	-0,163
-285,803	800,000	-0,047	0,109
-284,789	186,399	-0,047	0,050
-283,774	-49,722	-0,035	0,012
-282,759	-34,728	-0,067	-0,026
-281,745	123,267	0,032	0,029
-280,730	800,000	-0,017	0,047
-279,716	800,000	0,041	-0,115
-278,701	-65,687	0,113	0,033
-277,686	362,234	0,038	0,056
-276,672	-74,654	0,075	-0,019
-275,657	-200,000	-0,021	-0,069
-274,643	800,000	-0,063	-0,194
-273,628	197,362	0,086	-0,095
-272,613	-121,613	0,074	0,009
-271,599	414,957	0,029	0,045
-270,584	-85,816	-0,118	0,026
-269,570	-55,319	0,147	0,047
-268,555	-200,000	-0,014	-0,106
-267,540	-115,499	0,157	0,021
-266,526	101,508	-0,015	-0,012
-265,511	267,448	-0,092	-0,117
-264,497	747,184	-0,022	0,042
-263,482	-200,000	0,001	0,066
-262,467	800,000	-0,025	0,080
-261,453	-83,563	-0,047	-0,011
-260,438	-200,000	0,005	-0,039
-259,424	-16,379	-0,096	0,044
-258,409	361,015	0,049	-0,071
-257,395	123,464	0,074	-0,067
-256,380	-44,334	0,138	-0,050
-255,365	586,642	0,052	0,094
-254,351	-200,000	0,024	0,083
-253,336	-16,383	0,109	0,050
-252,322	-104,828	-0,164	-0,027
-251,307	238,759	-0,017	0,021
-250,292	-200,000	0,005	-0,031
-249,278	-34,952	-0,098	-0,039
-248,263	-172,746	0,038	-0,001
-247,249	38,438	-0,064	-0,041
-246,234	800,000	0,045	0,120
-245,219	-200,000	0,005	-0,035
-244,205	81,250	-0,070	-0,054
-243,190	-92,106	0,151	-0,031
-242,176	214,971	0,058	0,066
-241,161	-39,029	0,163	0,062
-240,146	141,488	0,079	0,076
-239,132	216,500	-0,064	0,073
-238,117	491,380	-0,053	0,088
-237,103	-83,460	0,004	-0,001
-236,088	375,621	-0,062	-0,092
-235,073	30,157	0,107	-0,066
-234,059	-125,427	0,061	0,007
-233,044	519,217	-0,068	0,115
-232,030	-51,136	0,112	-0,038
-231,015	800,000	0,056	0,165
-230,000	30,818	-0,082	0,050
-228,986	-62,261	0,037	-0,011
-227,971	800,000	-0,047	-0,129
-226,957	-181,532	-0,105	0,001
-225,942	153,401	0,061	-0,060
-224,927	-35,438	-0,118	0,046
-223,913	-122,544	-0,048	-0,006
-222,898	800,000	0,038	-0,093
-221,884	-152,279	-0,082	-0,004
-220,869	261,720	0,034	-0,043
-219,855	-30,738	-0,018	0,007
-218,840	66,272	0,099	-0,072
-217,825	15,608	-0,026	-0,014
-216,811	-90,053	-0,061	-0,013
-215,796	201,324	0,075	0,083
-214,782	-40,545	-0,176	0,066
-213,767	800,000	0,012	-0,026
-212,752	97,024	0,167	0,138
-211,738	-144,974	0,035	-0,002
-210,723	-2,215	-0,047	0,024
-209,709	-200,000	0,012	0,075
-208,694	-67,983	-0,232	-0,065
-207,679	65,450	-0,032	-0,023
-206,665	-200,000	0,000	-0,096
-205,650	-27,021	-0,071	0,030
-204,636	55,521	0,065	0,045
-203,621	-189,096	-0,099	-0,001
-202,606	232,838	-0,064	-0,076
-201,592	766,447	-0,041	-0,080
-200,577	299,981	0,043	0,058
-199,563	-37,448	0,051	-0,020
-198,548	282,059	-0,033	0,042
-197,533	185,056	-0,149	0,160
-196,519	-117,009	0,169	0,022
-195,504	-200,000	0,010	-0,096
-194,490	-34,993	-0,035	-0,014
-193,475	-200,000	0,003	0,107
-192,460	102,156	-0,040	0,034
-191,446	295,460	0,126	0,167
-190,431	198,123	-0,016	-0,017
-189,417	-50,113	0,029	0,010
-188,402	482,179	-0,061	0,101
-187,387	57,841	-0,067	-0,047
-186,373	718,708	0,055	-0,106
-185,358	204,739	0,076	-0,086
-184,344	-85,834	-0,085	0,019
-183,329	11,063	-0,007	0,004
-182,315	532,511	-0,019	-0,032
-181,300	-155,697	0,140	-0,006
-180,285	-200,000	-0,050	-0,206
-179,271	-200,000	0,037	-0,163
-178,256	-26,499	-0,133	0,056
-177,242	11,918	-0,055	-0,030
-176,227	-200,000	0,002	0,067
-175,212	201,326	-0,089	0,099
-174,198	-46,514	-0,140	0,049
-173,183	-177,755	0,081	-0,001
-172,169	74,307	-0,088	-0,067
-171,154	-200,000	-0,045	-0,170
-170,139	-71,711	0,135	0,036
-169,125	-200,000	-0,010	0,165
-168,110	47,959	0,072	0,048
-167,096	800,000	0,047	0,101
-166,081	-129,358	-0,080	0,008
-165,066	435,770	-0,027	0,042
-164,052	800,000	0,054	0,139
-163,037	-9,879	0,024	0,012
-162,023	84,686	0,041	-0,032
-161,008	-200,000	0,002	-0,020
-159,993	-139,842	0,080	-0,006
-158,979	-200,000	-0,015	-0,116
-157,964	30,942	-0,089	0,055
-156,950	-38,413	-0,045	0,017
-155,935	-80,768	0,146	-0,035
-154,920	800,000	-0,070	0,175
-153,906	243,520	0,102	0,124
-152,891	-28,196	0,039	0,016
-151,877	504,734	0,083	-0,138
-150,862	800,000	0,014	-0,034
-149,847	-200,000	0,026	-0,103
-148,833	-112,860	-0,125	0,018
-147,818	800,000	-0,016	-0,041
-146,804	-54,438	-0,153	-0,050
-145,789	72,620	-0,078	0,059
-144,775	-56,243	0,035	-0,011
-143,760	241,930	-0,047	0,057
-142,745	800,000	-0,026	0,060
-141,731	-200,000	-0,004	0,037
-140,716	68,681	-0,047	0,034
-139,702	-71,432	-0,123	-0,033
-138,687	800,000	-0,045	0,141
-137,672	797,398	-0,009	0,019
-136,658	211,138	0,068	0,077
-135,643	52,125	-0,131	0,090
-134,629	-200,000	0,007	0,129
-133,614	-200,000	0,000	-0,114
-132,599	-200,000	0,002	0,030
-131,585	720,557	0,063	-0,122
-130,570	800,000	0,007	0,019
-129,556	-200,000	-0,030	-0,118
-128,541	-166,683	-0,123	0,004
-127,526	33,536	0,055	-0,034
-126,512	800,000	-0,035	0,073
-125,497	-200,000	-0,009	0,048
-124,483	-71,575	-0,017	0,005
-123,468	62,553	-0,130	-0,093
-122,453	757,680	-0,057	-0,112
-121,439	218,050	-0,048	-0,055
-120,424	151,478	0,016	-0,016
-119,410	800,000	-0,041	0,102
-118,395	112,262	-0,056	-0,049
-117,380	88,767	0,120	0,096
-116,366	553,338	-0,059	0,102
-115,351	41,427	-0,096	0,062
-114,337	-93,221	-0,176	-0,035
-113,322	-200,000	-0,002	-0,049
-112,307	593,223	-0,079	-0,141
-111,293	207,161	0,005	-0,006
-110,278	-61,585	-0,033	0,010
-109,264	-147,708	0,072	-0,004
-108,249	-95,225	0,048	-0,009
-107,234	221,721	-0,034	0,039
-106,220	-150,028	-0,133	-0,007
-105,205	-200,000	-0,000	0,050
-104,191	-200,000	0,007	0,095
-103,176	-200,000	0,026	0,159
-102,162	800,000	0,033	-0,076
-101,147	-144,842	-0,044	-0,003
-100,132	-200,000	-0,015	-0,093
-99,118	-200,000	0,012	-0,069
-98,103	-200,000	-0,023	0,166
-97,089	562,986	0,025	0,043
-96,074	-200,000	-0,009	0,110
-95,059	-200,000	0,023	0,088
-94,045	800,000	-0,061	-0,178
-93,030	77,658	-0,021	0,016
-92,016	51,024	-0,049	-0,034
-91,001	-48,533	0,145	0,050
-89,986	534,661	0,031	-0,053
-88,972	-12,052	-0,044	-0,020
-87,957	148,924	0,021	0,020
-86,943	-200,000	-0,003	-0,029
-85,928	-20,381	-0,091	-0,040
-84,913	46,138	0,084	0,056
-83,899	-138,327	-0,137	0,011
-82,884	800,000	0,083	0,257
-81,870	43,374	0,065	-0,043
-80,855	380,276	-0,039	0,058
-79,840	95,641	0,034	0,028
-78,826	59,604	-0,021	0,015
-77,811	398,103	0,057	0,086
-76,797	150,982	-0,056	-0,055
-75,782	54,899	0,039	0,027
-74,767	11,922	-0,043	-0,023
-73,753	800,000	-0,048	0,119
-72,738	8,492	0,119	0,064
-71,724	-9,195	-0,047	-0,022
-70,709	-77,458	0,119	-0,029
-69,694	800,000	-0,025	0,060
-68,680	-34,376	-0,183	0,072
-67,665	800,000	-0,003	0,006
-66,651	-200,000	0,002	0,120
-65,636	-200,000	-0,033	0,167
-64,622	64,076	-0,023	0,017
-63,607	-200,000	-0,003	-0,049
-62,592	-200,000	-0,009	0,074
-61,578	334,774	0,032	-0,044
-60,563	562,232	-0,069	0,121
-59,549	-83,528	0,057	-0,013
-58,534	29,683	-2,225	-1,356
-57,519	-200,000	-0,019	-0,563
-56,505	-200,000	-1,402	-5,172
-55,490	169,850	0,882	0,906
-54,476	800,000	5,345	12,003
-53,461	-200,000	18,992	324,022
-52,446	800,000	744,096	2339,045
-51,432	554,306	1658,754	2873,796
-50,417	111,849	1641,520	1421,668
-49,403	76,593	1291,100	981,138
-48,388	30,256	1032,033	630,633
-47,373	19,787	995,116	573,331
-46,359	16,988	982,785	556,971
-45,344	13,653	979,135	543,888
-44,330	13,928	977,550	543,892
-43,315	13,347	975,431	540,783
-42,300	13,265	974,465	539,955
-41,286	13,258	973,502	539,378
-40,271	13,263	972,447	538,790
-39,257	13,370	971,480	538,580
-38,242	13,269	970,706	537,802
-37,227	13,300	969,924	537,448
-36,213	13,295	968,916	536,851
-35,198	13,182	968,231	536,081
-34,184	13,328	967,281	536,010
-33,169	13,244	966,316	535,182
-32,154	13,346	965,405	534,986
-31,140	13,274	964,462	534,207
-30,125	13,327	963,914	534,056
-29,111	13,290	962,895	533,350
-28,096	13,327	962,220	533,077
-27,082	13,313	961,583	532,657
-26,067	13,355	960,790	532,332
-25,052	13,301	960,120	531,766
-24,038	13,338	959,405	531,468
-23,023	13,221	958,948	530,815
-22,009	13,338	958,131	530,720
-20,994	13,324	957,515	530,312
-19,979	13,309	956,995	529,955
-18,965	13,288	956,334	529,500
-17,950	13,300	955,806	529,224
-16,936	13,246	955,245	528,720
-15,921	13,296	954,284	528,328
-14,906	13,157	953,572	527,467
-13,892	13,163	953,163	527,237
-12,877	13,246	952,161	526,928
-11,863	13,198	951,752	526,527
-10,848	13,246	951,139	526,323
-9,833	13,268	950,801	526,183
-8,819	13,325	949,863	525,827
-7,804	13,252	949,173	525,190
-6,790	13,160	948,774	524,653
-5,775	13,200	948,273	524,484
-4,760	13,226	947,602	524,175
-3,746	13,199	947,090	523,787
-2,731	13,013	946,559	522,878
-1,717	13,018	945,605	522,346
-0,702	13,034	945,094	522,095
0,313	12,817	944,395	521,805
1,327	16,432	941,711	531,737
2,342	25,551	795,638	473,491
3,356	21,370	460,430	267,558
4,371	-6,670	318,452	154,812
5,386	-10,913	300,252	141,594
6,400	-13,076	294,288	136,589
7,415	-13,067	291,838	135,449
8,429	-13,212	290,309	134,583
9,444	-13,069	289,250	134,222
10,459	-13,071	288,951	134,070
11,473	-13,185	288,161	133,579
12,488	-13,167	287,686	133,364
13,502	-13,090	287,209	133,206
14,517	-12,897	286,794	133,192
15,531	-12,735	286,463	133,185
16,546	-12,549	286,074	133,174
17,561	-12,712	285,758	132,857
18,575	-12,582	285,560	132,879
19,590	-12,457	284,952	132,706
20,604	-12,435	284,920	132,701
21,619	-12,457	284,416	132,433
22,634	-12,514	283,978	132,162
23,648	-12,624	283,783	131,953
24,663	-12,413	283,543	132,033
25,677	-12,649	283,296	131,679
26,692	-12,496	282,972	131,665
27,707	-12,345	282,650	131,649
28,721	-12,587	282,423	131,297
29,736	-12,626	282,067	131,083
30,750	-12,492	281,807	131,080
31,765	-12,531	281,596	130,932
32,780	-12,354	281,394	130,997
33,794	-12,410	281,160	130,822
34,809	-12,506	280,866	130,582
35,823	-12,576	280,467	130,318
36,838	-12,401	280,181	130,341
37,853	-12,514	280,032	130,151
38,867	-12,394	279,874	130,181
39,882	-12,388	279,585	130,040
40,896	-12,627	279,388	129,710
41,911	-12,579	279,057	129,590
42,926	-12,553	278,846	129,506
43,940	-12,562	278,653	129,395
44,955	-12,617	278,393	129,211
45,969	-12,646	278,085	129,028
46,984	-12,549	278,068	129,101
47,999	-12,632	277,664	128,824
49,013	-12,679	277,517	128,699
50,028	-12,667	277,168	128,538
51,042	-12,791	276,943	128,304
52,057	-12,802	276,606	128,126
53,071	-12,818	276,638	128,115
54,086	-12,761	276,339	128,019
55,101	-12,676	276,084	127,969
56,115	-12,685	275,863	127,847
57,130	-12,487	275,549	127,876
58,144	-12,544	275,274	127,683
59,159	-12,574	275,233	127,624
60,174	-12,784	274,924	127,274
61,188	-12,597	274,816	127,387
62,203	-12,602	274,501	127,226
63,217	-12,503	274,156	127,146
64,232	-12,612	274,010	126,966
65,247	-12,816	273,782	126,658
66,261	-12,549	273,609	126,816
67,276	-12,488	273,297	126,717
68,290	-12,495	272,943	126,535
69,305	-12,710	272,918	126,312
70,320	-12,475	272,592	126,368
71,334	-12,516	272,228	126,151
72,349	-12,551	272,302	126,140
73,363	-12,700	271,873	125,793
74,378	-12,752	271,768	125,685
75,393	-12,510	271,530	125,787
76,407	-12,496	271,306	125,685
77,422	-12,477	271,058	125,577
78,436	-12,640	270,881	125,333
79,451	-12,533	270,663	125,320
80,466	-12,649	270,569	125,159
81,480	-12,574	270,117	125,007
82,495	-12,629	269,954	124,870
83,509	-12,461	269,802	124,942
84,524	-12,599	269,557	124,691
85,539	-12,598	269,315	124,569
86,553	-12,720	269,123	124,358
87,568	-12,671	269,005	124,337
88,582	-12,609	268,570	124,181
89,597	-12,674	268,461	124,061
90,611	-12,623	268,276	124,011
91,626	-12,507	268,096	124,022
92,641	-12,547	267,932	123,899
93,655	-12,477	267,649	123,820
94,670	-12,558	267,211	123,534
95,684	-12,719	267,293	123,414
96,699	-12,797	266,982	123,189
97,714	-12,732	266,839	123,171
98,728	-12,613	266,599	123,157
99,743	-12,789	266,481	122,932
100,757	-12,589	266,224	122,983
101,772	-12,601	266,023	122,869
102,787	-12,604	265,768	122,737
103,801	-12,657	265,559	122,581
104,816	-12,740	265,413	122,429
105,830	-12,698	265,315	122,411
106,845	-12,714	265,128	122,298
107,860	-12,791	264,762	122,050
108,874	-12,527	264,449	122,131
109,889	-12,608	264,294	121,977
110,903	-12,803	264,185	121,741
111,918	-12,768	263,841	121,602
112,933	-12,757	263,799	121,582
113,947	-12,615	263,507	121,564
114,962	-12,644	263,342	121,451
115,976	-12,500	263,187	121,497
116,991	-12,648	263,043	121,288
118,006	-12,624	262,791	121,182
119,020	-12,659	262,565	121,036
120,035	-12,594	262,680	121,136
121,049	-12,668	262,254	120,863
122,064	-12,783	262,161	120,707
123,079	-12,595	261,916	120,751
124,093	-12,577	261,533	120,579
125,108	-12,512	261,452	120,588
126,122	-12,501	261,165	120,455
127,137	-12,566	261,134	120,372
128,151	-12,454	260,780	120,298
129,166	-12,667	260,713	120,068
130,181	-12,716	260,445	119,891
131,195	-12,847	260,280	119,688
132,210	-12,710	260,114	119,721
133,224	-12,662	259,876	119,644
134,239	-12,854	259,726	119,395
135,254	-12,857	259,513	119,284
136,268	-12,717	259,221	119,262
137,283	-12,634	259,129	119,282
138,297	-12,844	258,817	118,944
139,312	-12,736	258,670	118,960
140,327	-12,680	258,473	118,908
141,341	-12,545	258,441	119,000
142,356	-12,627	258,080	118,752
143,370	-12,769	257,998	118,580
144,385	-12,498	257,919	118,770
145,400	-12,397	257,702	118,748
146,414	-12,545	257,449	118,491
147,429	-12,662	257,134	118,233
148,443	-12,727	257,134	118,167
149,458	-12,433	256,876	118,293
150,473	-12,520	256,719	118,135
151,487	-12,710	256,462	117,841
152,502	-12,398	256,308	118,030
153,516	-12,558	256,181	117,822
154,531	-12,540	255,742	117,626
155,546	-12,591	255,746	117,573
156,560	-12,599	255,547	117,464
157,575	-12,722	255,311	117,239
158,589	-12,844	255,046	117,002
159,604	-12,689	254,938	117,075
160,619	-12,518	254,822	117,159
161,633	-12,502	254,617	117,068
162,648	-12,334	254,498	117,147
163,662	-12,604	254,406	116,862
164,677	-12,550	254,035	116,728
165,692	-12,681	254,032	116,603
166,706	-12,465	253,712	116,631
167,721	-12,587	253,493	116,416
168,735	-12,490	253,473	116,479
169,750	-12,531	253,148	116,285
170,764	-12,566	253,088	116,217
171,779	-12,705	252,942	116,021
172,794	-12,601	252,801	116,034
173,808	-12,556	252,453	115,903
174,823	-12,505	252,191	115,816
175,837	-12,853	252,180	115,504
176,852	-12,735	251,975	115,500
177,867	-12,639	251,772	115,478
178,881	-12,588	251,719	115,487
179,896	-12,518	251,413	115,395
180,910	-12,513	251,381	115,375
181,925	-12,544	251,178	115,245
182,940	-12,412	250,815	115,180
183,954	-12,556	250,710	115,000
184,969	-12,302	250,608	115,157
185,983	-12,380	250,443	115,005
186,998	-12,397	250,341	114,934
188,013	-12,473	250,090	114,744
189,027	-12,564	249,848	114,547
190,042	-12,532	249,731	114,510
191,056	-12,710	249,474	114,232
192,071	-12,601	249,257	114,214
193,086	-12,865	248,942	113,838
194,100	-12,786	248,952	113,899
195,115	-12,637	248,800	113,944
196,129	-12,585	248,537	113,857
197,144	-12,594	248,289	113,725
198,159	-12,852	248,275	113,493
199,173	-12,841	248,030	113,381
200,188	-12,906	247,716	113,173
201,202	-13,037	247,530	112,968
202,217	-12,767	247,464	113,153
203,232	-12,877	247,147	112,906
204,246	-13,231	246,810	112,448
205,261	-14,044	246,398	111,576
206,275	-13,587	246,346	111,922
207,290	-9,683	247,957	115,900
208,304	-2,713	250,220	122,799
209,319	1,312	251,508	126,807
210,334	2,592	251,520	127,877
211,348	3,054	251,714	128,352
212,363	3,435	251,601	128,603
213,377	3,678	251,573	128,781
214,392	3,846	251,448	128,847
215,407	3,874	251,383	128,825
216,421	3,935	251,243	128,793
217,436	4,014	251,117	128,783
218,450	4,025	250,766	128,601
219,465	3,814	250,575	128,315
220,480	3,672	250,428	128,110
221,494	3,672	250,113	127,937
222,509	3,141	249,915	127,383
223,523	2,887	249,708	127,055
224,538	2,823	249,475	126,871
225,553	2,651	249,295	126,625
226,567	2,614	248,878	126,372
227,582	2,573	248,918	126,346
228,596	2,605	248,748	126,276
229,611	2,377	248,678	126,040
230,626	2,444	248,427	125,956
231,640	2,591	248,087	125,894
232,655	2,699	248,143	126,001
233,669	2,659	247,859	125,813
234,684	2,443	247,753	125,570
235,699	2,514	247,857	125,670
236,713	2,609	247,594	125,604
237,728	2,718	247,448	125,608
238,742	2,754	247,056	125,427
239,757	2,801	246,862	125,356
240,772	2,700	246,701	125,181
241,786	2,508	246,735	125,029
242,801	2,451	246,406	124,804
243,815	2,451	246,321	124,750
244,830	2,611	246,223	124,820
245,844	2,499	245,937	124,572
246,859	2,306	245,972	124,422
247,874	2,549	245,846	124,545
248,888	2,731	245,672	124,595
249,903	2,756	245,357	124,444
250,917	2,827	245,294	124,459
251,932	3,175	245,056	124,611
252,947	2,792	244,898	124,207
253,961	2,691	244,845	124,087
254,976	2,667	244,674	123,970
255,990	2,620	244,436	123,800
257,005	2,809	244,203	123,824
258,020	2,766	244,080	123,716
259,034	2,513	243,895	123,406
260,049	2,766	243,830	123,567
261,063	2,529	243,643	123,269
262,078	2,536	243,511	123,198
263,093	2,729	243,318	123,245
264,107	2,838	243,122	123,223
265,122	2,603	243,052	122,986
266,136	2,632	243,051	122,999
267,151	2,791	242,725	122,951
268,166	2,783	242,633	122,887
269,180	2,531	242,365	122,537
270,195	2,717	242,148	122,566
271,209	2,615	242,033	122,415
272,224	2,882	241,817	122,509
273,239	2,512	241,719	122,152
274,253	2,643	241,545	122,158
275,268	2,605	241,354	122,020
276,282	2,651	241,214	121,976
277,297	2,465	241,053	121,734
278,312	2,615	240,973	121,803
279,326	2,865	240,758	121,883
280,341	2,610	240,666	121,622
281,355	2,643	240,671	121,640
282,370	2,828	240,285	121,582
283,384	2,836	240,118	121,493
284,399	2,657	239,964	121,261
285,414	2,634	239,930	121,215
286,428	2,357	239,867	120,951
287,443	2,604	239,630	121,018
288,457	2,599	239,436	120,905
289,472	2,579	239,269	120,794
290,487	2,608	239,097	120,719
291,501	2,570	238,945	120,602
292,516	2,652	238,810	120,588
293,530	2,518	238,701	120,416
294,545	2,757	238,601	120,544
295,560	2,522	238,373	120,232
296,574	2,669	238,239	120,271
297,589	2,584	238,036	120,090
298,603	2,860	238,017	120,288
299,618	2,833	237,766	120,129
300,633	2,751	237,643	119,991
301,647	2,800	237,550	119,972
302,662	2,826	237,467	119,940
303,676	2,989	237,110	119,877
304,691	2,924	237,120	119,820
305,706	2,671	236,944	119,522
306,720	2,982	236,798	119,681
307,735	2,958	236,603	119,554
308,749	2,790	236,456	119,337
309,764	2,726	236,167	119,131
310,779	2,549	236,058	118,926
311,793	2,435	235,915	118,754
312,808	2,533	235,812	118,770
313,822	2,889	235,605	118,931
314,837	2,939	235,539	118,927
315,852	2,750	235,435	118,716
316,866	2,807	235,337	118,700
317,881	2,947	234,989	118,624
318,895	2,972	234,895	118,585
319,910	2,944	234,653	118,430
320,925	2,799	234,624	118,292
321,939	2,767	234,485	118,188
322,954	2,865	234,316	118,167
323,968	2,628	234,167	117,898
324,983	2,691	233,984	117,845
325,997	2,754	234,034	117,908
327,012	2,668	233,799	117,713
328,027	2,530	233,606	117,499
329,041	2,754	233,515	117,615
330,056	2,841	233,245	117,535
331,070	2,799	233,108	117,424
332,085	2,838	232,840	117,308
333,100	2,744	232,760	117,185
334,114	2,725	232,580	117,069
335,129	2,919	232,483	117,159
336,143	2,691	232,344	116,904
337,158	2,847	232,262	116,972
338,173	2,911	232,167	116,962
339,187	2,926	231,917	116,837
340,202	3,050	231,828	116,877
341,216	2,681	231,720	116,530
342,231	2,683	231,476	116,399
343,246	2,754	231,462	116,435
344,260	2,935	231,091	116,376
345,275	2,842	231,212	116,356
346,289	2,865	231,004	116,258
347,304	2,841	230,774	116,114
348,319	2,869	230,589	116,031
349,333	2,801	230,442	115,895
350,348	2,613	230,240	115,641
351,362	2,754	230,072	115,654
352,377	2,763	230,070	115,649
353,392	2,536	229,998	115,430
354,406	2,716	229,797	115,455
355,421	193,792	1317,214	1387,629
356,435	155,409	1449,643	1387,574
