DTS Sentinel unit serial number:	SN410029Multiplexer serial number:	ORYXHardware model number:	OX2-SRSoftware version number:	ORYX F/W v4,00 Oryx Data Collector v3.7.2.0data status	okinstallation	B5 Nyhavnadifferential loss correction	single-endedforward channel	channel 2reverse channel	N/Adate	2023/12/14time	18:12:13forward acquisition time	300,00reverse acquisition time	0,00gamma	499,1914k internal	0,3156k external	0,3156temperature offset calibration	1,0000default loss term (dB/km)	0,3820temperature slope calibration	1,0000multiplexer offset coefficient	1,0000multiplexer slope coefficient	1,0000fibre end	0,00T internal ref (°C)	8,41T ext. ref 1 (°C)	-6,95T ext. ref 2 (°C)	-6,98length (m)	temperature (°C)	Stokes	anti-Stokes-744,400	-70,100	0,269	0,075
-743,385	77,785	-0,292	-0,229
-742,371	81,983	0,226	0,180
-741,356	-137,381	-0,294	-0,024
-740,342	-200,000	-0,014	0,068
-739,327	-44,473	-0,443	-0,163
-738,312	-25,526	0,160	0,069
-737,298	-91,544	-0,432	-0,090
-736,283	115,432	0,141	0,127
-735,269	-131,902	-0,241	0,023
-734,254	34,241	0,087	0,056
-733,239	-85,087	-0,454	-0,104
-732,225	-138,292	0,269	-0,022
-731,210	-200,000	-0,018	-0,077
-730,196	179,194	-0,019	-0,021
-729,181	800,000	-0,042	-0,096
-728,167	-92,640	-0,015	-0,003
-727,152	-200,000	0,000	-0,113
-726,137	308,368	-0,014	-0,019
-725,123	-200,000	-0,006	-0,085
-724,108	277,024	0,031	-0,041
-723,094	-200,000	0,025	0,109
-722,079	494,591	-0,058	-0,099
-721,064	-6,280	0,089	0,045
-720,050	-89,613	-0,077	0,016
-719,035	74,550	0,048	0,037
-718,021	-165,732	0,047	-0,001
-717,006	-46,854	-0,100	-0,036
-715,991	-130,333	-0,170	0,017
-714,977	53,604	-0,110	-0,077
-713,962	-125,611	0,161	-0,018
-712,948	-200,000	-0,029	-0,126
-711,933	212,635	-0,031	-0,036
-710,918	180,109	-0,066	-0,071
-709,904	-46,506	-0,174	-0,063
-708,889	-110,946	0,129	0,019
-707,875	121,458	-0,019	-0,018
-706,860	174,042	0,085	-0,090
-705,845	-35,353	0,185	-0,074
-704,831	110,644	-0,082	0,073
-703,816	-200,000	0,006	0,029
-702,802	53,240	-0,116	0,082
-701,787	-200,000	-0,002	0,074
-700,772	-70,201	-0,076	-0,021
-699,758	-115,840	-0,160	0,022
-698,743	274,286	0,073	0,096
-697,729	-7,447	-0,086	0,043
-696,714	-200,000	-0,022	0,137
-695,699	-200,000	0,033	0,108
-694,685	-200,000	0,017	0,095
-693,670	267,857	0,014	0,019
-692,656	-200,000	-0,022	0,203
-691,641	-200,000	0,008	0,080
-690,627	800,000	-0,046	-0,147
-689,612	274,762	-0,021	-0,027
-688,597	173,785	0,026	0,028
-687,583	-200,000	-0,001	-0,030
-686,568	800,000	0,022	-0,063
-685,554	325,629	-0,092	0,130
-684,539	440,743	-0,034	0,054
-683,524	591,728	-0,027	-0,049
-682,510	-87,881	-0,079	0,017
-681,495	-10,771	-0,082	0,040
-680,481	800,000	-0,034	-0,091
-679,466	800,000	-0,075	-0,184
-678,451	-75,247	0,061	-0,016
-677,437	257,076	0,024	0,031
-676,422	44,799	0,010	-0,007
-675,408	-5,790	-0,045	0,022
-674,393	57,719	-0,064	0,046
-673,378	-200,000	0,005	-0,066
-672,364	800,000	-0,063	-0,132
-671,349	99,420	0,087	-0,074
-670,335	60,632	-0,141	-0,102
-669,320	-200,000	0,003	-0,030
-668,305	505,611	0,025	-0,043
-667,291	-200,000	0,016	-0,079
-666,276	149,575	-0,102	0,101
-665,262	-200,000	-0,020	0,104
-664,247	-63,527	-0,092	0,027
-663,232	-77,565	0,029	0,007
-662,218	800,000	0,044	0,126
-661,203	-55,519	-0,055	0,018
-660,189	-49,533	0,137	0,048
-659,174	138,262	-0,008	-0,008
-658,159	-7,550	-0,048	-0,024
-657,145	185,023	0,047	-0,051
-656,130	3,138	-0,151	-0,081
-655,116	-200,000	-0,001	0,035
-654,101	-200,000	-0,020	0,068
-653,086	233,190	0,114	0,138
-652,072	-200,000	-0,008	-0,108
-651,057	-2,500	0,067	-0,035
-650,043	-24,774	0,090	-0,039
-649,028	-69,862	-0,113	0,031
-648,014	-200,000	0,007	-0,030
-646,999	-55,261	0,218	-0,072
-645,984	366,522	-0,074	-0,110
-644,970	494,323	0,027	-0,046
-643,955	508,632	0,016	-0,027
-642,941	-200,000	0,021	0,000
-641,926	-200,000	0,033	0,179
-640,911	800,000	0,031	0,096
-639,897	78,808	-0,045	0,035
-638,882	-200,000	0,011	0,035
-637,868	397,994	-0,073	0,113
-636,853	800,000	0,040	-0,095
-635,838	-158,082	0,093	-0,004
-634,824	320,964	0,029	-0,041
-633,809	-200,000	-0,035	-0,140
-632,795	-200,000	-0,001	-0,030
-631,780	-200,000	0,005	0,062
-630,765	-63,440	-0,112	-0,034
-629,751	-103,391	-0,195	0,033
-628,736	800,000	-0,049	-0,130
-627,722	-200,000	-0,004	-0,087
-626,707	35,862	0,177	-0,114
-625,692	9,188	0,096	0,053
-624,678	800,000	0,065	0,141
-623,663	190,860	-0,056	0,062
-622,649	267,740	0,035	-0,045
-621,634	800,000	-0,072	0,155
-620,619	31,038	0,020	-0,013
-619,605	-200,000	0,019	0,089
-618,590	-200,000	0,011	0,158
-617,576	-41,370	0,091	0,034
-616,561	-104,419	-0,107	-0,018
-615,546	64,209	-0,090	0,066
-614,532	289,867	-0,073	-0,097
-613,517	-20,772	-0,079	0,035
-612,503	-200,000	0,003	-0,150
-611,488	-61,906	0,069	-0,021
-610,474	800,000	0,078	0,177
-609,459	204,549	-0,008	0,010
-608,444	800,000	0,065	-0,175
-607,430	800,000	-0,049	-0,110
-606,415	-146,790	-0,153	-0,010
-605,401	-0,177	0,116	-0,060
-604,386	611,152	-0,021	0,039
-603,371	5,631	-0,016	-0,009
-602,357	-58,972	-0,040	-0,013
-601,342	-200,000	-0,015	0,052
-600,328	-36,732	0,100	-0,039
-599,313	-200,000	-0,001	-0,017
-598,298	338,571	0,028	0,040
-597,284	111,533	0,057	0,050
-596,269	281,230	-0,057	0,075
-595,255	212,842	-0,067	0,078
-594,240	-200,000	-0,006	-0,111
-593,225	37,762	-0,087	0,057
-592,211	239,876	-0,074	-0,090
-591,196	-130,702	0,112	-0,011
-590,182	81,825	-0,105	0,083
-589,167	800,000	0,018	0,054
-588,152	460,463	-0,054	-0,089
-587,138	-39,967	-0,105	0,040
-586,123	-200,000	0,014	0,094
-585,109	-80,476	-0,077	0,019
-584,094	-200,000	-0,000	0,021
-583,079	-200,000	0,014	0,156
-582,065	-81,441	0,150	-0,036
-581,050	-200,000	-0,027	0,163
-580,036	-44,948	-0,054	-0,019
-579,021	-115,404	-0,028	-0,004
-578,006	50,693	0,037	0,026
-576,992	85,631	-0,032	-0,026
-575,977	-200,000	0,023	-0,107
-574,963	178,454	-0,030	0,032
-573,948	-74,275	0,160	-0,042
-572,934	34,192	0,119	-0,076
-571,919	800,000	0,026	-0,084
-570,904	124,498	-0,140	-0,129
-569,890	102,092	0,080	0,068
-568,875	800,000	-0,040	0,121
-567,861	-6,367	0,149	0,074
-566,846	-200,000	0,005	-0,056
-565,831	-178,179	-0,099	0,002
-564,817	49,323	-0,162	-0,111
-563,802	-16,030	-0,008	-0,004
-562,788	-96,035	-0,144	0,028
-561,773	800,000	-0,040	0,106
-560,758	-88,584	-0,061	-0,013
-559,744	-101,086	-0,167	0,030
-558,729	-200,000	0,035	-0,120
-557,715	67,315	-0,077	0,057
-556,700	32,356	-0,066	0,042
-555,685	-200,000	0,016	-0,061
-554,671	-200,000	0,012	-0,072
-553,656	390,963	0,059	-0,091
-552,642	-200,000	0,008	0,155
-551,627	-200,000	0,006	-0,035
-550,612	428,227	-0,057	0,091
-549,598	800,000	0,033	-0,075
-548,583	-164,930	-0,244	-0,008
-547,569	800,000	0,040	-0,086
-546,554	348,051	0,091	-0,131
-545,539	-142,006	0,094	0,007
-544,525	-200,000	-0,016	0,052
-543,510	-200,000	-0,028	-0,157
-542,496	-200,000	-0,014	0,054
-541,481	-28,261	-0,101	-0,042
-540,466	-180,683	0,123	0,002
-539,452	63,651	0,056	0,041
-538,437	-200,000	-0,002	-0,047
-537,423	-74,824	0,059	-0,015
-536,408	-39,690	0,114	0,043
-535,393	-21,074	-0,118	-0,053
-534,379	-192,150	0,106	0,001
-533,364	-39,027	0,080	0,031
-532,350	82,016	0,138	-0,109
-531,335	-89,885	-0,057	-0,012
-530,321	25,501	0,087	0,053
-529,306	-93,459	0,115	-0,023
-528,291	800,000	0,021	-0,046
-527,277	305,373	-0,089	-0,122
-526,262	-31,908	-0,090	-0,037
-525,248	-200,000	0,002	-0,049
-524,233	-168,615	0,094	0,003
-523,218	74,052	-0,060	0,046
-522,204	-200,000	0,004	-0,112
-521,189	-69,186	-0,040	-0,011
-520,175	800,000	0,049	-0,140
-519,160	10,757	0,079	-0,044
-518,145	-109,867	-0,076	0,012
-517,131	192,375	0,032	0,035
-516,116	692,005	0,059	-0,113
-515,102	199,068	-0,012	-0,013
-514,087	302,459	-0,050	-0,068
-513,072	-200,000	-0,052	0,191
-512,058	-200,000	0,000	-0,023
-511,043	422,404	0,088	0,139
-510,029	800,000	-0,063	0,140
-509,014	106,997	0,094	0,082
-507,999	-76,691	0,026	-0,007
-506,985	-158,421	-0,069	0,003
-505,970	136,455	-0,115	0,109
-504,956	-200,000	0,001	0,084
-503,941	-86,450	0,107	0,024
-502,926	548,653	0,006	0,011
-501,912	-200,000	0,012	0,107
-500,897	-88,033	0,110	0,024
-499,883	800,000	0,029	-0,067
-498,868	71,566	0,106	0,081
-497,853	-10,549	0,095	-0,046
-496,839	800,000	-0,042	-0,098
-495,824	-64,436	0,282	-0,083
-494,810	201,604	-0,106	-0,119
-493,795	-200,000	-0,010	-0,036
-492,781	413,710	0,049	-0,077
-491,766	-200,000	0,012	-0,068
-490,751	-200,000	0,015	-0,065
-489,737	17,105	-0,112	-0,064
-488,722	-200,000	-0,003	0,055
-487,708	534,519	0,057	-0,099
-486,693	173,281	0,114	-0,120
-485,678	800,000	-0,090	-0,209
-484,664	-95,241	-0,055	0,011
-483,649	386,253	-0,037	0,056
-482,635	-87,294	-0,183	0,040
-481,620	-93,941	0,020	0,004
-480,605	717,045	0,083	0,162
-479,591	-200,000	-0,016	0,061
-478,576	649,209	-0,027	0,051
-477,562	93,279	0,126	-0,104
-476,547	177,621	-0,055	0,059
-475,532	227,309	-0,095	-0,113
-474,518	-143,761	0,055	0,004
-473,503	800,000	0,021	0,048
-472,489	436,893	-0,076	0,121
-471,474	0,986	0,153	0,080
-470,459	-200,000	-0,006	0,097
-469,445	10,866	-0,072	0,040
-468,430	-200,000	0,005	-0,063
-467,416	-200,000	-0,003	0,137
-466,401	-117,296	0,085	-0,011
-465,386	-92,074	0,066	0,014
-464,372	-200,000	-0,021	0,101
-463,357	124,609	-0,070	0,064
-462,343	-152,482	-0,121	-0,006
-461,328	800,000	0,059	0,185
-460,313	22,522	0,057	-0,034
-459,299	208,215	-0,054	-0,061
-458,284	30,728	0,114	0,071
-457,270	56,875	0,059	-0,042
-456,255	-200,000	-0,003	0,121
-455,241	-44,044	-0,128	-0,047
-454,226	-55,130	0,087	0,028
-453,211	41,169	0,068	0,045
-452,197	772,938	-0,050	-0,100
-451,182	-169,531	0,077	0,002
-450,168	44,869	-0,044	-0,030
-449,153	-200,000	-0,011	-0,050
-448,138	-37,674	-0,159	0,062
-447,124	293,758	-0,010	-0,013
-446,109	65,328	-0,090	-0,066
-445,095	257,857	0,030	0,038
-444,080	142,817	0,100	0,097
-443,065	-70,239	0,059	0,016
-442,051	-200,000	0,019	-0,097
-441,036	800,000	0,012	0,029
-440,022	-57,652	0,134	0,042
-439,007	-68,154	-0,087	0,025
-437,992	167,640	-0,027	-0,028
-436,978	25,012	0,155	-0,094
-435,963	-134,577	-0,095	0,008
-434,949	-103,155	0,038	0,007
-433,934	800,000	-0,046	0,125
-432,919	81,925	0,040	0,032
-431,905	494,189	-0,034	0,056
-430,890	-162,807	0,169	0,006
-429,876	365,664	0,018	0,027
-428,861	800,000	0,062	0,149
-427,846	-47,989	-0,193	-0,068
-426,832	-141,894	0,016	-0,001
-425,817	488,955	-0,030	-0,049
-424,803	63,614	-0,052	0,038
-423,788	-200,000	-0,012	0,055
-422,773	800,000	0,066	0,138
-421,759	139,060	0,054	-0,052
-420,744	-200,000	-0,023	-0,133
-419,730	107,014	-0,073	0,063
-418,715	-59,792	0,051	0,016
-417,701	-172,851	-0,139	0,003
-416,686	800,000	0,015	-0,039
-415,671	-43,324	0,101	-0,037
-414,657	-200,000	0,002	0,039
-413,642	183,992	0,067	-0,072
-412,628	-200,000	0,003	-0,088
-411,613	288,026	-0,081	-0,107
-410,598	70,822	-0,066	0,050
-409,584	-68,990	0,149	0,041
-408,569	-93,287	0,062	0,012
-407,555	-200,000	-0,025	-0,114
-406,540	-80,244	-0,068	0,016
-405,525	-200,000	-0,010	-0,048
-404,511	-200,000	0,017	0,117
-403,496	-200,000	-0,008	-0,116
-402,482	-200,000	0,051	-0,168
-401,467	-200,000	0,001	0,183
-400,452	135,593	0,120	0,114
-399,438	443,903	-0,020	-0,033
-398,423	-200,000	0,029	0,113
-397,409	707,919	0,009	0,018
-396,394	9,518	-0,106	-0,058
-395,379	25,345	0,087	-0,053
-394,365	131,778	-0,127	0,119
-393,350	-5,933	-0,099	0,049
-392,336	357,899	0,040	0,059
-391,321	94,481	-0,015	-0,013
-390,306	44,582	-0,075	-0,050
-389,292	800,000	-0,034	-0,088
-388,277	-190,341	-0,065	0,001
-387,263	78,358	0,051	0,040
-386,248	60,521	-0,067	-0,048
-385,233	-19,012	0,026	-0,012
-384,219	211,318	-0,030	0,035
-383,204	566,305	0,051	-0,090
-382,190	-14,877	0,082	-0,038
-381,175	-53,933	-0,116	0,038
-380,160	800,000	-0,026	0,062
-379,146	-61,942	0,122	0,037
-378,131	93,278	0,101	-0,083
-377,117	-200,000	-0,032	-0,134
-376,102	137,073	-0,103	0,098
-375,088	-55,703	-0,059	-0,019
-374,073	-200,000	0,053	-0,187
-373,058	-152,600	0,122	-0,006
-372,044	-200,000	-0,005	-0,079
-371,029	277,887	0,095	0,123
-370,015	88,488	-0,053	0,043
-369,000	263,828	-0,074	-0,094
-367,985	-117,391	0,018	0,002
-366,971	-118,744	0,078	0,010
-365,956	-200,000	0,003	0,054
-364,942	698,721	-0,039	0,075
-363,927	-34,308	-0,090	0,036
-362,912	-178,089	0,042	0,001
-361,898	-45,056	-0,084	0,030
-360,883	24,930	-0,070	0,042
-359,869	372,121	0,087	-0,129
-358,854	-200,000	-0,019	-0,070
-357,839	171,793	0,071	0,074
-356,825	-200,000	0,035	-0,138
-355,810	-200,000	0,008	-0,119
-354,796	-62,745	-0,157	-0,047
-353,781	149,523	0,021	-0,020
-352,766	18,753	-0,012	-0,007
-351,752	-101,937	0,134	0,023
-350,737	-109,221	0,137	0,021
-349,723	-14,848	0,033	-0,015
-348,708	-200,000	0,027	0,188
-347,693	-200,000	0,011	0,093
-346,679	-200,000	0,009	-0,073
-345,664	81,060	-0,050	-0,040
-344,650	-108,117	0,131	-0,020
-343,635	-94,969	0,139	-0,027
-342,620	-200,000	-0,011	0,041
-341,606	-112,254	0,120	0,017
-340,591	-39,457	-0,057	-0,022
-339,577	531,828	-0,107	0,184
-338,562	-24,202	-0,111	0,048
-337,548	-200,000	0,011	-0,040
-336,533	152,773	0,018	-0,018
-335,518	450,145	0,018	-0,030
-334,504	-200,000	-0,001	0,082
-333,489	417,805	-0,075	0,117
-332,475	-34,115	-0,079	-0,031
-331,460	800,000	0,021	-0,058
-330,445	60,361	-0,105	-0,075
-329,431	800,000	0,021	0,054
-328,416	136,455	0,066	0,062
-327,402	-33,556	0,046	0,018
-326,387	-200,000	0,022	0,072
-325,372	-126,560	-0,059	-0,006
-324,358	800,000	0,044	-0,129
-323,343	-200,000	-0,014	0,093
-322,329	89,685	-0,027	-0,022
-321,314	-200,000	-0,021	0,130
-320,299	-166,310	0,113	0,003
-319,285	105,916	-0,047	0,040
-318,270	800,000	-0,016	0,033
-317,256	708,698	0,015	0,028
-316,241	-74,262	0,148	-0,038
-315,226	-57,093	0,049	-0,016
-314,212	15,181	0,099	0,056
-313,197	-200,000	0,019	0,075
-312,183	12,288	-0,134	0,075
-311,168	502,879	0,048	-0,080
-310,153	126,176	-0,073	0,067
-309,139	-200,000	-0,006	-0,022
-308,124	800,000	0,064	-0,179
-307,110	-27,298	0,110	0,046
-306,095	-107,475	0,109	-0,017
-305,080	645,798	0,049	-0,090
-304,066	662,523	-0,079	0,147
-303,051	-177,994	0,034	-0,001
-302,037	-97,855	0,048	-0,009
-301,022	-56,106	0,096	-0,031
-300,008	-38,562	0,058	0,022
-298,993	-200,000	-0,009	-0,054
-297,978	800,000	0,034	0,108
-296,964	92,969	-0,088	0,072
-295,949	-200,000	-0,007	0,042
-294,935	-12,241	-0,084	-0,040
-293,920	800,000	0,035	0,073
-292,905	800,000	-0,009	-0,018
-291,891	491,516	0,043	0,072
-290,876	35,403	0,123	0,078
-289,862	-165,298	0,168	-0,005
-288,847	-200,000	0,004	-0,183
-287,832	-200,000	-0,010	-0,125
-286,818	-93,861	-0,081	-0,016
-285,803	-178,056	0,048	0,001
-284,789	60,697	-0,006	0,004
-283,774	14,651	-0,119	-0,067
-282,759	260,042	0,045	-0,057
-281,745	-67,612	-0,073	-0,020
-280,730	800,000	0,036	-0,078
-279,716	-200,000	-0,008	-0,113
-278,701	144,239	0,134	-0,130
-277,686	-31,853	-0,026	0,011
-276,672	-106,379	-0,064	-0,010
-275,657	-66,046	-0,025	-0,007
-274,643	56,699	0,061	0,043
-273,628	-200,000	-0,026	-0,213
-272,613	800,000	-0,027	-0,063
-271,599	-113,761	0,115	-0,016
-270,584	-200,000	0,007	0,037
-269,570	256,484	0,048	0,060
-268,555	-132,804	-0,075	-0,007
-267,540	-87,794	-0,091	-0,020
-266,526	72,131	-0,067	-0,050
-265,511	154,623	-0,017	0,017
-264,497	-2,724	0,087	-0,044
-263,482	-41,824	-0,089	-0,033
-262,467	162,040	-0,056	-0,056
-261,453	-200,000	0,004	-0,069
-260,438	94,854	-0,106	-0,087
-259,424	-200,000	0,001	-0,005
-258,409	147,199	0,021	-0,020
-257,395	30,929	-0,108	0,067
-256,380	54,436	-0,040	0,028
-255,365	-130,294	-0,065	-0,006
-254,351	-154,905	-0,119	0,006
-253,336	-18,432	-0,069	-0,031
-252,322	373,582	0,076	-0,112
-251,307	-79,940	-0,126	0,030
-250,292	800,000	0,027	0,084
-249,278	-37,774	-0,068	-0,026
-248,263	-35,861	0,115	-0,045
-247,249	-200,000	-0,017	-0,069
-246,234	-119,018	-0,230	-0,029
-245,219	357,029	-0,018	0,026
-244,205	26,276	-0,065	-0,039
-243,190	-200,000	-0,003	-0,016
-242,176	-200,000	0,007	-0,074
-241,161	-105,033	0,070	-0,011
-240,146	110,851	0,111	-0,097
-239,132	-200,000	-0,008	-0,156
-238,117	-130,424	0,135	0,013
-237,103	83,617	-0,048	0,038
-236,088	-166,921	0,012	-0,000
-235,073	27,304	0,039	0,024
-234,059	-200,000	0,003	0,102
-233,044	712,448	0,037	-0,071
-232,030	11,240	0,134	-0,074
-231,015	-123,574	-0,125	0,014
-230,000	-74,192	-0,122	-0,032
-228,986	223,705	-0,046	0,053
-227,971	-89,558	-0,075	-0,016
-226,957	89,146	0,091	0,073
-225,942	481,967	-0,031	0,051
-224,927	82,030	-0,074	-0,058
-223,913	4,173	-0,059	-0,031
-222,898	-200,000	0,015	-0,113
-221,884	800,000	-0,019	-0,055
-220,869	185,889	0,053	0,057
-219,855	433,876	0,041	0,065
-218,840	-200,000	-0,024	0,144
-217,825	13,463	0,036	0,020
-216,811	-200,000	0,007	-0,088
-215,796	183,028	0,075	-0,080
-214,782	93,457	0,054	0,044
-213,767	-97,687	0,047	-0,009
-212,752	-134,997	0,080	-0,007
-211,738	83,529	0,071	0,056
-210,723	717,316	-0,040	0,077
-209,709	115,964	-0,090	-0,079
-208,694	-74,690	0,018	0,005
-207,679	439,025	0,009	0,014
-206,665	-194,933	0,131	-0,001
-205,650	57,348	0,043	-0,030
-204,636	-200,000	-0,010	0,121
-203,621	800,000	-0,037	0,098
-202,606	139,465	-0,090	0,085
-201,592	221,755	-0,046	0,053
-200,577	-200,000	0,039	-0,135
-199,563	800,000	0,040	-0,120
-198,548	-44,665	-0,068	0,025
-197,533	-200,000	0,031	-0,113
-196,519	88,620	0,028	-0,023
-195,504	-83,523	-0,070	-0,016
-194,490	-109,477	-0,099	0,015
-193,475	-166,696	0,097	-0,003
-192,460	158,775	-0,102	0,103
-191,446	242,665	0,041	0,049
-190,431	252,825	-0,028	-0,035
-189,417	-95,325	-0,120	0,023
-188,402	-200,000	-0,032	0,135
-187,387	-200,000	0,005	-0,050
-186,373	-97,482	-0,116	0,022
-185,358	800,000	-0,056	0,154
-184,344	515,598	0,029	0,050
-183,329	28,306	-0,111	0,067
-182,315	800,000	0,032	0,083
-181,300	36,821	-0,077	-0,049
-180,285	-200,000	-0,044	-0,163
-179,271	-54,390	-0,096	0,031
-178,256	-76,049	0,039	-0,010
-177,242	406,657	-0,120	0,184
-176,227	288,734	-0,134	0,175
-175,212	101,413	0,054	0,046
-174,198	-28,539	-0,075	-0,031
-173,183	800,000	-0,054	-0,127
-172,169	-200,000	0,014	0,167
-171,154	-200,000	-0,003	-0,109
-170,139	-100,695	0,085	0,015
-169,125	-200,000	-0,022	0,096
-168,110	-200,000	-0,008	0,077
-167,096	-200,000	0,005	0,053
-166,081	800,000	-0,004	-0,011
-165,066	-80,378	-0,211	-0,050
-164,052	481,048	0,079	0,129
-163,037	-27,192	-0,077	-0,032
-162,023	63,612	0,098	-0,071
-161,008	800,000	0,015	0,042
-159,993	-41,322	0,054	-0,020
-158,979	-145,704	0,040	0,003
-157,964	35,411	0,069	0,044
-156,950	160,766	0,045	-0,045
-155,935	-200,000	-0,003	-0,051
-154,920	-174,410	0,062	0,001
-153,906	800,000	-0,025	0,060
-152,891	-200,000	0,008	-0,071
-151,877	-32,885	-0,030	0,012
-150,862	681,567	0,056	-0,106
-149,847	3,148	-0,062	-0,032
-148,833	385,666	0,045	-0,068
-147,818	-179,909	0,076	-0,001
-146,804	465,585	-0,046	0,075
-145,789	-200,000	0,001	0,037
-144,775	-200,000	-0,017	-0,127
-143,760	800,000	0,024	-0,056
-142,745	161,942	0,055	-0,056
-141,731	109,856	-0,041	-0,035
-140,716	238,426	-0,085	0,102
-139,702	-113,528	-0,016	-0,002
-138,687	-116,044	-0,011	-0,001
-137,672	-146,055	0,103	-0,006
-136,658	-143,213	-0,129	0,009
-135,643	128,494	0,117	-0,107
-134,629	526,785	0,033	-0,055
-133,614	-66,338	-0,042	0,012
-132,599	-200,000	0,006	0,037
-131,585	800,000	0,016	-0,038
-130,570	590,737	0,065	0,117
-129,556	-200,000	-0,006	-0,068
-128,541	-130,194	0,093	0,009
-127,526	63,534	-0,096	-0,069
-126,512	-200,000	-0,006	-0,094
-125,497	-200,000	0,007	0,089
-124,483	-200,000	-0,014	-0,087
-123,468	-200,000	-0,025	0,100
-122,453	-82,322	0,071	0,017
-121,439	800,000	-0,029	-0,085
-120,424	317,968	-0,081	-0,111
-119,410	357,702	0,035	-0,051
-118,395	-97,539	-0,173	-0,032
-117,380	2,157	-0,096	-0,050
-116,366	94,182	-0,096	-0,078
-115,351	651,458	-0,058	-0,107
-114,337	-127,509	-0,177	-0,018
-113,322	17,204	0,117	0,067
-112,307	287,769	-0,097	-0,126
-111,293	95,513	0,180	-0,147
-110,278	800,000	-0,076	-0,166
-109,264	-66,057	-0,082	-0,023
-108,249	192,733	-0,040	0,044
-107,234	49,438	0,074	-0,050
-106,220	-103,990	-0,080	-0,013
-105,205	313,635	-0,047	0,064
-104,191	-122,610	0,034	-0,004
-103,176	-112,108	-0,089	-0,013
-102,162	-162,569	-0,101	0,004
-101,147	249,017	0,133	-0,162
-100,132	162,272	-0,055	-0,056
-99,118	666,246	0,067	0,125
-98,103	78,551	-0,063	-0,049
-97,089	-133,190	0,056	-0,005
-96,074	-5,368	0,125	0,062
-95,059	-200,000	0,038	-0,158
-94,045	276,013	0,029	-0,038
-93,030	-200,000	-0,010	-0,037
-92,016	-200,000	-0,015	-0,095
-91,001	98,950	0,084	0,070
-89,986	-159,803	0,066	0,003
-88,972	-133,584	-0,019	0,002
-87,957	-34,884	0,072	0,028
-86,943	-88,217	-0,031	-0,007
-85,928	-31,079	0,084	-0,034
-84,913	163,873	-0,044	0,045
-83,899	-65,329	-0,116	-0,033
-82,884	-200,000	-0,021	0,099
-81,870	45,945	0,047	-0,031
-80,855	104,352	-0,070	-0,059
-79,840	-45,962	0,063	0,022
-78,826	-34,696	-0,072	-0,028
-77,811	-81,216	-0,127	-0,030
-76,797	-146,557	-0,113	0,007
-75,782	-200,000	0,000	0,134
-74,767	-67,914	0,162	0,045
-73,753	-127,687	-0,067	-0,007
-72,738	-82,876	0,066	0,015
-71,724	-200,000	0,033	-0,184
-70,709	438,855	0,059	-0,094
-69,694	519,581	-0,051	-0,086
-68,680	-114,479	-0,052	-0,007
-67,665	-200,000	0,005	0,066
-66,651	105,560	-0,101	-0,086
-65,636	1,181	0,065	0,034
-64,622	151,079	-0,071	-0,070
-63,607	-89,766	0,115	0,024
-62,592	284,408	0,071	-0,092
-61,578	42,195	-0,057	0,037
-60,563	-200,000	-0,018	0,078
-59,549	507,279	-0,097	0,162
-58,534	71,123	-2,577	-1,916
-57,519	-39,111	0,501	-0,188
-56,505	-200,000	-1,686	-5,401
-55,490	349,513	1,380	1,962
-54,476	800,000	5,234	11,200
-53,461	-200,000	22,073	344,226
-52,446	800,000	761,806	2305,197
-51,432	515,869	1652,453	2782,018
-50,417	102,651	1616,804	1357,523
-49,403	72,418	1271,864	950,697
-48,388	24,968	1021,142	606,479
-47,373	19,032	987,805	567,036
-46,359	13,144	974,978	540,327
-45,344	9,101	971,495	525,094
-44,330	9,566	969,451	525,496
-43,315	8,590	967,626	521,288
-42,300	8,514	966,342	520,327
-41,286	8,462	965,494	519,677
-40,271	8,486	964,521	519,211
-39,257	8,456	963,697	518,651
-38,242	8,462	962,693	518,108
-37,227	8,456	961,868	517,626
-36,213	8,423	961,298	517,189
-35,198	8,463	960,340	516,784
-34,184	8,502	959,422	516,395
-33,169	8,402	958,652	515,636
-32,154	8,443	957,741	515,259
-31,140	8,447	956,936	514,819
-30,125	8,533	955,949	514,546
-29,111	8,450	955,123	513,813
-28,096	8,487	954,548	513,603
-27,082	8,414	953,932	513,013
-26,067	8,442	953,061	512,617
-25,052	8,481	952,180	512,247
-24,038	8,387	951,661	511,644
-23,023	8,402	950,896	511,263
-22,009	8,453	950,455	511,169
-20,994	8,468	949,799	510,845
-19,979	8,431	949,334	510,456
-18,965	8,382	948,645	509,906
-17,950	8,423	948,168	509,761
-16,936	8,376	947,230	509,086
-15,921	8,394	946,619	508,797
-14,906	8,332	945,853	508,166
-13,892	8,365	945,324	507,968
-12,877	8,382	944,554	507,587
-11,863	8,327	943,970	507,077
-10,848	8,251	943,564	506,597
-9,833	8,442	942,929	506,846
-8,819	8,370	942,327	506,272
-7,804	8,327	941,682	505,768
-6,790	8,374	941,005	505,534
-5,775	8,420	940,455	505,364
-4,760	8,384	939,826	504,893
-3,746	8,299	939,324	504,332
-2,731	8,235	938,413	503,620
-1,717	8,160	938,007	503,145
-0,702	8,193	937,307	502,852
0,313	8,001	936,698	502,676
1,327	11,553	934,435	512,648
2,342	20,412	782,591	452,634
3,356	15,700	449,474	252,830
4,371	-10,644	313,018	148,025
5,386	-14,250	295,372	136,017
6,400	-16,270	289,167	131,144
7,415	-16,805	286,605	129,445
8,429	-17,656	284,643	127,716
9,444	-17,900	283,776	127,078
10,459	-17,667	283,047	126,967
11,473	-17,742	282,479	126,628
12,488	-17,668	282,052	126,496
13,502	-17,706	281,552	126,224
14,517	-17,753	281,141	125,984
15,531	-17,790	280,517	125,657
16,546	-17,690	280,200	125,600
17,561	-17,861	279,867	125,275
18,575	-17,809	279,424	125,116
19,590	-17,845	279,058	124,906
20,604	-17,640	278,699	124,930
21,619	-17,733	278,372	124,684
22,634	-17,759	278,092	124,523
23,648	-17,776	277,840	124,382
24,663	-17,843	277,481	124,147
25,677	-17,895	277,321	124,015
26,692	-17,837	277,127	123,972
27,707	-17,837	276,783	123,807
28,721	-17,851	276,479	123,647
29,736	-17,862	276,131	123,470
30,750	-17,855	275,901	123,362
31,765	-17,754	275,504	123,270
32,780	-17,794	275,468	123,205
33,794	-17,832	275,087	122,987
34,809	-17,904	274,965	122,854
35,823	-17,963	274,816	122,721
36,838	-17,759	274,400	122,716
37,853	-17,825	274,192	122,550
38,867	-17,699	273,908	122,530
39,882	-17,636	273,606	122,443
40,896	-17,733	273,377	122,239
41,911	-17,779	273,022	122,027
42,926	-17,690	272,882	122,036
43,940	-17,737	272,694	121,897
44,955	-17,770	272,493	121,766
45,969	-17,757	272,147	121,613
46,984	-17,635	272,012	121,655
47,999	-17,937	272,010	121,362
49,013	-17,632	271,660	121,478
50,028	-17,685	271,484	121,340
51,042	-17,478	271,036	121,320
52,057	-17,763	271,020	121,038
53,071	-17,703	270,800	120,984
54,086	-17,725	270,553	120,844
55,101	-17,634	270,401	120,848
56,115	-17,670	270,057	120,651
57,130	-17,629	269,838	120,580
58,144	-17,728	269,470	120,315
59,159	-17,906	269,181	120,010
60,174	-17,723	269,042	120,106
61,188	-17,710	268,871	120,031
62,203	-17,593	268,644	120,027
63,217	-17,591	268,298	119,863
64,232	-17,453	268,197	119,933
65,247	-17,799	267,990	119,514
66,261	-17,799	267,581	119,320
67,276	-17,821	267,514	119,260
68,290	-17,711	267,152	119,188
69,305	-17,642	267,107	119,220
70,320	-17,523	266,690	119,131
71,334	-17,765	266,629	118,873
72,349	-17,704	266,384	118,810
73,363	-17,763	266,267	118,693
74,378	-17,619	265,796	118,603
75,393	-17,846	265,772	118,376
76,407	-17,572	265,519	118,501
77,422	-17,701	265,237	118,248
78,436	-17,606	265,033	118,232
79,451	-17,544	264,623	118,095
80,466	-17,587	264,397	117,945
81,480	-17,711	264,413	117,829
82,495	-17,641	264,160	117,769
83,509	-17,583	263,956	117,720
84,524	-17,752	263,773	117,476
85,539	-17,729	263,566	117,394
86,553	-17,562	263,285	117,408
87,568	-17,677	263,144	117,232
88,582	-17,651	262,673	117,035
89,597	-17,738	262,785	116,996
90,611	-17,720	262,490	116,871
91,626	-17,666	262,441	116,887
92,641	-17,553	261,959	116,762
93,655	-17,547	261,786	116,681
94,670	-17,713	261,579	116,429
95,684	-17,550	261,351	116,463
96,699	-17,738	261,156	116,198
97,714	-17,713	261,073	116,173
98,728	-17,812	260,918	116,006
99,743	-17,396	260,590	116,219
100,757	-17,613	260,445	115,951
101,772	-17,388	260,240	116,049
102,787	-17,785	260,053	115,605
103,801	-17,579	259,997	115,751
104,816	-17,565	259,576	115,566
105,830	-17,678	259,401	115,378
106,845	-17,586	259,322	115,413
107,860	-17,551	259,033	115,305
108,874	-17,459	258,747	115,248
109,889	-17,597	258,603	115,053
110,903	-17,756	258,398	114,812
111,918	-17,509	258,200	114,930
112,933	-17,626	258,033	114,743
113,947	-17,362	257,852	114,884
114,962	-17,722	257,693	114,488
115,976	-17,754	257,420	114,328
116,991	-17,741	257,169	114,218
118,006	-17,765	257,070	114,143
119,020	-17,699	256,826	114,082
120,035	-17,573	256,679	114,116
121,049	-17,650	256,583	113,996
122,064	-17,559	256,210	113,899
123,079	-17,517	255,895	113,786
124,093	-17,581	255,851	113,701
125,108	-17,533	255,631	113,634
126,122	-17,657	255,546	113,479
127,137	-17,774	255,381	113,294
128,151	-17,478	255,193	113,457
129,166	-17,542	254,885	113,255
130,181	-17,586	254,772	113,155
131,195	-17,565	254,401	112,999
132,210	-17,581	254,247	112,907
133,224	-17,409	254,038	112,952
134,239	-17,412	253,907	112,882
135,254	-17,452	253,613	112,706
136,268	-17,449	253,555	112,673
137,283	-17,428	253,222	112,532
138,297	-17,355	252,987	112,481
139,312	-17,502	252,898	112,305
140,327	-17,508	252,674	112,190
141,341	-17,609	252,399	111,973
142,356	-17,580	252,524	112,042
143,370	-17,464	252,159	111,970
144,385	-17,713	252,022	111,687
145,400	-17,585	251,754	111,667
146,414	-17,555	251,566	111,599
147,429	-17,485	251,417	111,583
148,443	-17,347	251,210	111,598
149,458	-17,528	251,079	111,376
150,473	-17,491	250,895	111,316
151,487	-17,533	250,676	111,173
152,502	-17,406	250,421	111,158
153,516	-17,400	250,245	111,075
154,531	-17,570	250,153	110,880
155,546	-17,429	249,796	110,831
156,560	-17,382	249,797	110,862
157,575	-17,494	249,533	110,640
158,589	-17,465	249,293	110,548
159,604	-17,513	249,239	110,474
160,619	-17,435	248,924	110,390
161,633	-17,305	248,671	110,377
162,648	-17,564	248,631	110,132
163,662	-17,369	248,402	110,185
164,677	-17,293	248,310	110,198
165,692	-17,456	248,090	109,953
166,706	-17,513	248,022	109,866
167,721	-17,538	247,789	109,732
168,735	-17,436	247,600	109,724
169,750	-17,324	247,354	109,699
170,764	-17,304	247,350	109,704
171,779	-17,579	247,286	109,436
172,794	-17,551	247,059	109,349
173,808	-17,492	246,750	109,252
174,823	-17,475	246,648	109,211
175,837	-17,465	246,372	109,087
176,852	-17,508	246,358	109,036
177,867	-17,381	246,165	109,046
178,881	-17,404	245,885	108,894
179,896	-17,477	245,800	108,786
180,910	-17,396	245,553	108,733
181,925	-17,564	245,509	108,565
182,940	-17,576	245,393	108,494
183,954	-17,551	245,133	108,391
184,969	-17,593	244,968	108,272
185,983	-17,338	244,727	108,368
186,998	-17,253	244,481	108,319
188,013	-17,317	244,339	108,194
189,027	-17,411	244,176	108,034
190,042	-17,528	244,042	107,869
191,056	-17,578	243,939	107,773
192,071	-17,417	243,677	107,780
193,086	-17,423	243,493	107,683
194,100	-17,357	243,233	107,613
195,115	-17,445	243,160	107,500
196,129	-17,635	243,000	107,263
197,144	-17,513	242,686	107,215
198,159	-17,381	242,512	107,236
199,173	-17,518	242,490	107,105
200,188	-17,234	242,204	107,201
201,202	-17,325	242,031	107,040
202,217	-17,351	241,770	106,894
203,232	-17,251	241,658	106,917
204,246	-17,337	241,465	106,752
205,261	-17,191	241,335	106,804
206,275	-15,563	241,817	108,334
207,290	-11,581	243,290	112,248
208,304	-5,963	245,051	117,679
209,319	-2,887	245,736	120,534
210,334	-2,282	245,963	121,133
211,348	-1,712	245,971	121,596
212,363	-1,273	245,968	121,945
213,377	-0,434	246,027	122,654
214,392	-0,078	246,038	122,942
215,407	0,216	246,025	123,166
216,421	0,347	245,952	123,226
217,436	0,193	245,730	122,978
218,450	0,379	245,538	123,024
219,465	0,373	245,496	122,987
220,480	0,578	245,215	123,003
221,494	0,535	245,078	122,888
222,509	0,251	244,924	122,567
223,523	0,237	244,687	122,426
224,538	-0,025	244,542	122,128
225,553	-0,008	244,319	122,020
226,567	-0,136	244,113	121,802
227,582	0,117	243,966	121,924
228,596	0,072	243,884	121,835
229,611	0,048	243,622	121,675
230,626	-0,123	243,714	121,571
231,640	0,054	243,260	121,477
232,655	-0,052	243,164	121,332
233,669	0,196	242,867	121,374
234,684	-0,015	242,827	121,172
235,699	0,069	242,732	121,182
236,713	-0,172	242,695	120,957
237,728	-0,020	242,523	120,984
238,742	-0,093	242,330	120,818
239,757	-0,070	242,039	120,681
240,772	-0,049	241,828	120,582
241,786	0,209	241,785	120,758
242,801	0,098	241,583	120,557
243,815	0,092	241,496	120,498
244,830	0,105	241,291	120,394
245,844	0,181	240,975	120,287
246,859	0,122	240,966	120,225
247,874	0,067	240,761	120,068
248,888	0,044	240,614	119,965
249,903	-0,015	240,430	119,816
250,917	0,114	240,405	119,896
251,932	-0,115	240,295	119,646
252,947	0,231	239,984	119,758
253,961	-0,001	239,872	119,506
254,976	-0,255	239,858	119,285
255,990	0,022	239,526	119,331
257,005	-0,186	239,554	119,168
258,020	-0,031	239,432	119,221
259,034	-0,049	239,209	119,085
260,049	-0,071	238,977	118,940
261,063	0,038	238,726	118,892
262,078	-0,048	238,676	118,788
263,093	-0,068	238,552	118,700
264,107	0,001	238,366	118,651
265,122	0,125	238,246	118,679
266,136	0,189	238,015	118,605
267,151	0,061	237,879	118,424
268,166	0,013	237,630	118,252
269,180	0,030	237,566	118,223
270,195	-0,168	237,491	118,019
271,209	-0,036	237,314	118,025
272,224	-0,095	237,112	117,867
273,239	0,004	236,798	117,779
274,253	0,283	236,838	118,007
275,268	0,071	236,601	117,712
276,282	-0,023	236,372	117,514
277,297	-0,069	236,231	117,397
278,312	0,056	236,240	117,489
279,326	-0,176	236,158	117,256
280,341	0,201	235,888	117,407
281,355	0,044	235,772	117,216
282,370	0,116	235,665	117,208
283,384	0,122	235,248	116,996
284,399	0,015	235,191	116,873
285,414	-0,035	235,144	116,800
286,428	0,124	235,064	116,874
287,443	0,208	234,808	116,803
288,457	0,053	234,851	116,692
289,472	0,102	234,503	116,547
290,487	0,200	234,362	116,542
291,501	0,287	234,089	116,464
292,516	-0,209	234,213	116,130
293,530	0,251	233,880	116,311
294,545	-0,060	233,953	116,095
295,560	0,082	233,724	116,082
296,574	0,172	233,579	116,069
297,589	0,070	233,434	115,908
298,603	0,165	233,212	115,861
299,618	0,195	233,082	115,809
300,633	0,162	233,074	115,769
301,647	0,276	232,693	115,658
302,662	0,393	232,609	115,696
303,676	0,148	232,509	115,447
304,691	0,255	232,284	115,408
305,706	0,449	232,188	115,499
306,720	0,393	232,080	115,392
307,735	0,286	231,987	115,253
308,749	0,234	231,840	115,130
309,764	0,387	231,643	115,139
310,779	0,275	231,529	114,986
311,793	0,351	231,359	114,950
312,808	0,314	231,290	114,877
313,822	0,378	230,988	114,766
314,837	0,547	230,814	114,798
315,852	0,306	230,828	114,611
316,866	0,494	230,621	114,642
317,881	0,580	230,285	114,530
318,895	0,548	230,224	114,465
319,910	0,369	230,063	114,238
320,925	0,512	229,898	114,255
321,939	0,358	229,809	114,083
322,954	0,468	229,708	114,106
323,968	0,417	229,607	114,008
324,983	0,265	229,503	113,830
325,997	0,351	229,349	113,809
327,012	0,342	229,044	113,641
328,027	0,558	229,004	113,774
329,041	0,468	228,804	113,597
330,056	0,369	228,632	113,427
331,070	0,557	228,489	113,488
332,085	0,528	228,407	113,415
333,100	0,216	228,280	113,106
334,114	0,502	228,021	113,183
335,129	0,345	227,981	113,035
336,143	0,210	227,820	112,843
337,158	0,512	227,604	112,954
338,173	0,445	227,572	112,877
339,187	0,493	227,415	112,825
340,202	0,577	227,288	112,815
341,216	0,639	227,077	112,747
342,231	0,717	226,871	112,693
343,246	0,632	226,701	112,535
344,260	0,629	226,683	112,514
345,275	0,586	226,593	112,427
346,289	0,681	226,337	112,361
347,304	0,645	226,284	112,298
348,319	0,460	226,159	112,088
349,333	0,674	225,948	112,133
350,348	0,528	225,886	111,982
351,362	0,534	225,714	111,892
352,377	0,695	225,496	111,894
353,392	0,516	225,502	111,754
354,406	0,450	225,351	111,620
355,421	192,577	1311,478	1378,753
356,435	154,278	1443,658	1378,608
