DTS Sentinel unit serial number:	SN410029Multiplexer serial number:	ORYXHardware model number:	OX2-SRSoftware version number:	ORYX F/W v4,00 Oryx Data Collector v3.7.2.0data status	okinstallation	B5 Nyhavnadifferential loss correction	single-endedforward channel	channel 2reverse channel	N/Adate	2023/12/14time	10:07:13forward acquisition time	300,00reverse acquisition time	0,00gamma	499,1914k internal	0,3161k external	0,3161temperature offset calibration	1,0000default loss term (dB/km)	0,3820temperature slope calibration	1,0000multiplexer offset coefficient	1,0000multiplexer slope coefficient	1,0000fibre end	0,00T internal ref (°C)	6,87T ext. ref 1 (°C)	-9,26T ext. ref 2 (°C)	-9,27length (m)	temperature (°C)	Stokes	anti-Stokes-744,400	800,000	0,079	0,247
-743,385	-57,823	-0,433	-0,139
-742,371	-68,304	0,255	0,073
-741,356	-179,681	-0,331	-0,005
-740,342	800,000	0,100	0,252
-739,327	-14,430	-0,314	-0,148
-738,312	98,376	0,126	0,107
-737,298	58,670	-0,282	-0,204
-736,283	259,607	0,110	0,140
-735,269	16,646	-0,301	0,175
-734,254	-110,345	0,189	0,029
-733,239	-40,791	-0,660	-0,250
-732,225	-110,512	0,352	0,053
-731,210	-8,379	-0,136	0,067
-730,196	283,860	-0,024	-0,032
-729,181	64,183	-0,049	-0,036
-728,167	357,936	-0,045	-0,066
-727,152	-200,000	0,035	-0,166
-726,137	800,000	-0,017	0,044
-725,123	800,000	0,024	-0,069
-724,108	-200,000	-0,026	-0,265
-723,094	-200,000	0,004	-0,093
-722,079	800,000	0,046	-0,118
-721,064	437,649	-0,035	-0,056
-720,050	-82,018	-0,150	0,036
-719,035	-200,000	0,003	-0,026
-718,021	524,786	-0,037	0,065
-717,006	-143,921	-0,067	0,005
-715,991	328,414	-0,057	-0,081
-714,977	800,000	-0,013	0,032
-713,962	-73,569	-0,116	0,031
-712,948	-158,704	-0,070	-0,003
-711,933	-200,000	-0,008	-0,055
-710,918	800,000	-0,067	-0,161
-709,904	-200,000	0,026	-0,211
-708,889	481,463	-0,026	-0,043
-707,875	-38,226	-0,101	-0,039
-706,860	-200,000	0,009	-0,052
-705,845	-41,746	-0,063	0,024
-704,831	85,127	0,020	-0,016
-703,816	282,370	-0,064	0,085
-702,802	54,656	-0,064	0,045
-701,787	239,789	-0,029	0,035
-700,772	10,745	-0,101	0,056
-699,758	22,816	0,160	0,096
-698,743	800,000	-0,040	0,094
-697,729	800,000	0,034	0,069
-696,714	319,886	-0,022	0,031
-695,699	-68,110	-0,071	-0,020
-694,685	86,285	-0,063	-0,051
-693,670	743,785	-0,077	-0,153
-692,656	8,546	0,132	-0,073
-691,641	138,543	-0,033	0,031
-690,627	800,000	0,037	0,102
-689,612	521,799	-0,022	0,038
-688,597	-38,933	0,036	0,014
-687,583	493,611	-0,091	-0,153
-686,568	-200,000	0,006	0,041
-685,554	92,544	-0,054	-0,045
-684,539	82,387	-0,059	-0,047
-683,524	-200,000	-0,015	-0,063
-682,510	-200,000	-0,045	0,253
-681,495	370,411	-0,075	0,111
-680,481	-200,000	0,016	-0,148
-679,466	-64,477	-0,099	0,029
-678,451	-18,393	-0,031	-0,014
-677,437	120,523	0,049	0,045
-676,422	800,000	-0,045	-0,105
-675,408	-126,328	0,033	-0,004
-674,393	-71,936	-0,117	0,032
-673,378	36,005	-0,081	0,052
-672,364	-200,000	0,014	-0,075
-671,349	413,959	-0,042	-0,066
-670,335	-68,004	0,018	0,005
-669,320	-200,000	-0,002	0,098
-668,305	276,085	-0,055	0,072
-667,291	-103,033	-0,081	-0,014
-666,276	34,164	0,088	0,056
-665,262	-200,000	0,004	-0,041
-664,247	-133,438	0,110	-0,010
-663,232	-21,594	-0,071	0,032
-662,218	-200,000	-0,014	0,177
-661,203	20,614	-0,085	0,050
-660,189	409,530	0,032	-0,051
-659,174	-60,140	-0,114	0,035
-658,159	-12,022	-0,062	0,029
-657,145	87,862	-0,132	-0,107
-656,130	800,000	0,014	-0,030
-655,116	44,782	0,090	0,060
-654,101	124,982	-0,180	0,166
-653,086	-200,000	0,001	0,061
-652,072	426,972	-0,108	-0,171
-651,057	70,431	-0,063	0,047
-650,043	54,397	-0,084	-0,059
-649,028	-110,360	-0,035	-0,005
-648,014	164,613	-0,027	0,028
-646,999	652,615	0,061	0,115
-645,984	-200,000	-0,015	-0,070
-644,970	257,443	-0,049	0,062
-643,955	345,741	-0,042	-0,060
-642,941	272,844	0,017	0,022
-641,926	-103,690	-0,156	0,026
-640,911	279,489	0,077	0,101
-639,897	-11,732	0,070	-0,034
-638,882	-200,000	0,017	0,116
-637,868	38,314	0,119	0,077
-636,853	-200,000	-0,005	-0,077
-635,838	-32,763	-0,097	0,039
-634,824	308,283	0,028	0,039
-633,809	521,823	-0,069	-0,119
-632,795	-200,000	-0,011	-0,115
-631,780	720,391	-0,040	0,078
-630,765	-111,872	-0,105	-0,015
-629,751	-102,036	-0,111	0,019
-628,736	542,673	-0,065	-0,115
-627,722	308,950	-0,055	-0,075
-626,707	-59,111	0,091	0,029
-625,692	-112,417	0,179	-0,026
-624,678	-200,000	-0,036	0,174
-623,663	157,129	-0,064	-0,065
-622,649	-131,971	-0,188	-0,018
-621,634	319,066	-0,060	-0,084
-620,619	377,348	-0,071	0,106
-619,605	21,770	0,086	0,051
-618,590	-80,800	0,053	0,013
-617,576	121,342	-0,050	0,045
-616,561	800,000	-0,064	-0,145
-615,546	7,751	-0,066	-0,036
-614,532	800,000	-0,003	-0,008
-613,517	-104,483	0,073	0,012
-612,503	183,308	-0,061	-0,066
-611,488	64,638	-0,052	-0,039
-610,474	289,289	-0,030	0,040
-609,459	-200,000	0,015	0,066
-608,444	563,394	0,042	-0,075
-607,430	-5,172	-0,112	-0,056
-606,415	109,572	-0,067	0,058
-605,401	800,000	0,043	0,130
-604,386	14,721	-0,077	-0,044
-603,371	-54,636	-0,096	-0,032
-602,357	113,925	0,157	-0,140
-601,342	-200,000	-0,023	-0,080
-600,328	20,781	0,121	0,072
-599,313	608,762	0,051	-0,093
-598,298	800,000	-0,011	0,033
-597,284	-200,000	0,015	0,097
-596,269	-91,533	-0,083	0,017
-595,255	452,336	0,039	-0,063
-594,240	-200,000	0,010	0,040
-593,225	-34,575	0,033	-0,013
-592,211	57,531	-0,084	0,060
-591,196	-67,715	0,062	0,018
-590,182	-86,128	0,171	-0,038
-589,167	66,577	0,127	0,095
-588,152	-99,904	0,155	0,028
-587,138	-200,000	0,002	-0,120
-586,123	125,075	-0,071	-0,065
-585,109	-107,301	-0,199	-0,032
-584,094	-56,075	0,100	-0,033
-583,079	-200,000	0,004	-0,037
-582,065	-3,309	0,066	-0,033
-581,050	-13,713	0,060	0,028
-580,036	148,605	0,045	0,045
-579,021	208,771	-0,045	-0,051
-578,006	800,000	-0,006	-0,015
-576,992	549,351	-0,019	0,033
-575,977	-68,194	0,015	-0,004
-574,963	-200,000	0,032	0,126
-573,948	242,439	-0,096	0,118
-572,934	760,550	-0,023	-0,046
-571,919	-200,000	-0,009	-0,048
-570,904	-20,643	-0,166	0,074
-569,890	50,669	0,043	0,030
-568,875	56,463	0,066	0,047
-567,861	-116,169	-0,115	-0,015
-566,846	85,708	-0,094	-0,075
-565,831	476,198	0,026	-0,044
-564,817	248,998	-0,017	-0,021
-563,802	-18,583	-0,077	0,035
-562,788	-200,000	0,001	-0,054
-561,773	90,771	-0,087	0,071
-560,758	-200,000	0,008	-0,149
-559,744	-72,103	-0,040	0,011
-558,729	-200,000	0,011	0,070
-557,715	-26,315	-0,068	-0,029
-556,700	1,017	-0,034	-0,018
-555,685	800,000	-0,023	-0,072
-554,671	-96,777	0,045	-0,009
-553,656	224,880	-0,048	-0,056
-552,642	-75,476	0,107	0,028
-551,627	33,973	0,020	-0,013
-550,612	-200,000	-0,012	-0,038
-549,598	247,986	-0,055	0,068
-548,583	800,000	0,087	-0,185
-547,569	-200,000	-0,001	-0,072
-546,554	-200,000	-0,019	0,174
-545,539	253,643	0,060	0,075
-544,525	390,843	0,007	0,011
-543,510	638,973	-0,057	-0,107
-542,496	-131,710	-0,076	-0,007
-541,481	217,740	-0,040	-0,046
-540,466	-200,000	-0,001	0,024
-539,452	-145,142	0,095	0,006
-538,437	-72,719	-0,070	0,019
-537,423	-200,000	-0,002	0,111
-536,408	-95,276	0,084	0,016
-535,393	-5,782	0,074	0,037
-534,379	-26,862	-0,123	-0,052
-533,364	-172,082	0,058	-0,001
-532,350	-200,000	-0,013	-0,151
-531,335	800,000	-0,028	-0,067
-530,321	241,879	-0,117	0,143
-529,306	-110,838	-0,034	-0,005
-528,291	348,937	0,052	-0,076
-527,277	187,905	-0,076	-0,083
-526,262	800,000	0,045	-0,102
-525,248	319,813	0,019	0,026
-524,233	-200,000	0,009	0,125
-523,218	144,992	-0,036	-0,035
-522,204	-80,141	-0,171	-0,041
-521,189	36,296	-0,118	-0,076
-520,175	-200,000	-0,041	0,000
-519,160	310,653	-0,056	-0,077
-518,145	113,412	0,087	0,077
-517,131	800,000	-0,032	-0,082
-516,116	-200,000	0,023	0,122
-515,102	-200,000	0,033	-0,137
-514,087	22,332	0,107	-0,063
-513,072	56,542	-0,026	-0,018
-512,058	800,000	-0,034	-0,085
-511,043	-200,000	0,028	0,107
-510,029	-162,401	0,077	0,003
-509,014	-4,418	0,059	0,030
-507,999	800,000	-0,032	0,071
-506,985	229,031	-0,032	0,038
-505,970	-200,000	-0,011	0,037
-504,956	-200,000	-0,004	0,019
-503,941	-0,557	0,075	0,039
-502,926	-200,000	-0,054	0,176
-501,912	-200,000	-0,014	0,153
-500,897	-200,000	-0,003	0,085
-499,883	297,729	0,025	-0,033
-498,868	-70,282	-0,125	-0,034
-497,853	-200,000	-0,034	-0,116
-496,839	-200,000	-0,018	-0,105
-495,824	800,000	0,044	-0,121
-494,810	800,000	-0,032	0,067
-493,795	800,000	-0,063	0,146
-492,781	800,000	0,080	0,182
-491,766	800,000	0,013	-0,027
-490,751	-105,069	-0,090	-0,015
-489,737	-87,604	-0,089	0,019
-488,722	302,203	-0,057	0,077
-487,708	1,454	0,106	-0,055
-486,693	428,131	0,018	0,028
-485,678	-200,000	0,006	0,177
-484,664	-52,239	-0,129	0,043
-483,649	-200,000	0,025	-0,100
-482,635	22,528	-0,167	-0,099
-481,620	-12,195	0,123	0,059
-480,605	82,642	0,057	-0,045
-479,591	83,957	0,049	0,039
-478,576	-158,853	-0,015	0,001
-477,562	131,663	-0,075	-0,070
-476,547	269,708	-0,022	-0,028
-475,532	-200,000	-0,034	0,112
-474,518	-200,000	0,003	0,036
-473,503	180,536	0,078	-0,083
-472,489	-20,428	0,043	-0,019
-471,474	80,474	-0,023	-0,018
-470,459	668,644	-0,050	-0,095
-469,445	101,271	-0,074	-0,063
-468,430	800,000	-0,023	-0,053
-467,416	309,141	0,030	-0,040
-466,401	389,350	0,053	0,081
-465,386	-127,913	-0,027	0,003
-464,372	-200,000	0,013	0,054
-463,357	-200,000	0,018	0,125
-462,343	9,180	-0,117	-0,064
-461,328	-200,000	-0,041	-0,167
-460,313	18,032	0,036	0,021
-459,299	-200,000	-0,015	-0,112
-458,284	92,967	0,088	0,072
-457,270	96,347	-0,128	0,106
-456,255	-200,000	-0,000	-0,137
-455,241	-32,721	-0,145	0,058
-454,226	-31,135	-0,051	0,021
-453,211	-17,289	0,059	-0,027
-452,197	16,717	-0,120	0,069
-451,182	24,707	0,071	0,043
-450,168	50,406	0,084	-0,058
-449,153	-200,000	-0,056	0,207
-448,138	-34,036	-0,070	-0,028
-447,124	800,000	-0,033	-0,100
-446,109	-59,918	0,104	0,032
-445,095	-98,967	-0,089	-0,016
-444,080	-70,014	0,034	0,009
-443,065	48,744	0,115	0,079
-442,051	-200,000	-0,011	0,079
-441,036	-126,875	0,096	-0,010
-440,022	-80,634	-0,022	0,005
-439,007	-200,000	0,006	0,128
-437,992	800,000	-0,052	-0,165
-436,978	-112,310	0,050	0,007
-435,963	-200,000	-0,030	-0,125
-434,949	169,857	-0,012	-0,013
-433,934	264,842	-0,106	-0,135
-432,919	800,000	-0,021	-0,056
-431,905	-73,089	-0,099	-0,026
-430,890	-37,823	0,121	0,047
-429,876	-120,539	0,096	0,012
-428,861	105,850	0,096	0,082
-427,846	71,335	0,047	0,035
-426,832	-122,244	-0,059	0,007
-425,817	357,996	0,093	-0,135
-424,803	77,241	-0,062	0,048
-423,788	1,965	-0,049	-0,025
-422,773	-110,203	0,079	-0,012
-421,759	93,065	-0,048	-0,040
-420,744	-72,011	-0,154	-0,041
-419,730	112,941	0,103	0,091
-418,715	800,000	-0,037	-0,082
-417,701	800,000	-0,062	-0,154
-416,686	800,000	-0,007	-0,020
-415,671	33,562	0,134	-0,085
-414,657	-106,981	-0,089	0,014
-413,642	-200,000	-0,018	-0,111
-412,628	17,637	-0,075	0,043
-411,613	65,059	0,144	-0,106
-410,598	28,655	-0,040	-0,024
-409,584	282,373	-0,096	-0,125
-408,569	15,023	0,159	0,090
-407,555	320,567	0,070	0,097
-406,540	-200,000	-0,001	0,008
-405,525	2,618	0,041	-0,021
-404,511	21,263	-0,073	-0,043
-403,496	800,000	0,042	-0,086
-402,482	800,000	-0,030	0,061
-401,467	800,000	-0,060	0,192
-400,452	165,946	0,051	-0,053
-399,438	73,905	-0,121	0,092
-398,423	-123,073	-0,094	0,011
-397,409	-200,000	-0,013	0,042
-396,394	127,626	-0,150	-0,138
-395,379	267,721	0,049	0,063
-394,365	12,820	0,092	0,052
-393,350	-51,406	0,077	-0,026
-392,336	-198,460	-0,086	0,000
-391,321	760,390	-0,028	0,055
-390,306	-200,000	-0,017	-0,105
-389,292	800,000	0,010	0,019
-388,277	800,000	-0,011	0,026
-387,263	800,000	-0,031	0,081
-386,248	98,535	-0,087	0,073
-385,233	-180,211	0,083	-0,001
-384,219	-41,813	-0,043	-0,016
-383,204	183,139	0,074	-0,079
-382,190	739,456	0,023	-0,045
-381,175	-200,000	0,022	-0,114
-380,160	776,510	0,013	-0,026
-379,146	-153,182	-0,003	-0,000
-378,131	78,557	-0,105	-0,081
-377,117	252,172	-0,015	0,018
-376,102	114,003	0,033	-0,029
-375,088	-200,000	0,001	-0,115
-374,073	72,276	-0,058	-0,043
-373,058	42,164	-0,056	0,037
-372,044	19,803	0,154	0,090
-371,029	-200,000	0,005	0,021
-370,015	21,764	-0,018	-0,010
-369,000	-200,000	-0,017	-0,181
-367,985	256,126	-0,044	-0,055
-366,971	26,535	0,071	-0,043
-365,956	-140,163	0,065	0,005
-364,942	173,642	-0,066	0,069
-363,927	-200,000	0,009	0,085
-362,912	165,290	0,060	0,062
-361,898	-200,000	0,002	-0,028
-360,883	800,000	-0,037	-0,110
-359,869	325,152	-0,036	0,050
-358,854	800,000	0,010	-0,020
-357,839	-165,123	0,134	0,004
-356,825	-40,575	-0,040	0,015
-355,810	8,447	0,125	-0,068
-354,796	-200,000	-0,026	-0,184
-353,781	-27,048	-0,091	-0,038
-352,766	800,000	-0,057	-0,156
-351,752	61,435	0,107	0,077
-350,737	-26,426	0,114	-0,048
-349,723	-131,851	0,030	-0,003
-348,708	69,990	0,097	0,073
-347,693	-181,553	-0,077	-0,001
-346,679	-200,000	0,024	-0,236
-345,664	-75,911	0,041	-0,011
-344,650	800,000	0,013	0,037
-343,635	719,905	-0,013	-0,025
-342,620	116,863	0,027	0,024
-341,606	475,577	0,013	0,022
-340,591	-200,000	-0,005	0,089
-339,577	38,412	-0,130	0,084
-338,562	139,344	0,025	0,024
-337,548	-53,875	-0,073	-0,024
-336,533	-200,000	-0,005	-0,034
-335,518	66,028	0,069	-0,051
-334,504	180,843	0,016	0,017
-333,489	-200,000	0,000	0,039
-332,475	210,855	-0,040	0,045
-331,460	-178,200	-0,124	0,002
-330,445	800,000	0,049	-0,108
-329,431	-200,000	0,006	0,053
-328,416	800,000	0,051	0,135
-327,402	393,036	0,048	-0,073
-326,387	800,000	-0,040	0,109
-325,372	237,087	0,104	-0,126
-324,358	-23,597	0,106	-0,046
-323,343	800,000	0,017	0,050
-322,329	-15,965	-0,054	-0,025
-321,314	116,409	0,077	0,068
-320,299	-71,748	0,086	-0,023
-319,285	580,423	0,017	0,030
-318,270	435,933	-0,052	0,081
-317,256	0,280	0,070	-0,036
-316,241	55,831	-0,097	-0,068
-315,226	-173,963	0,144	-0,003
-314,212	-45,255	-0,050	0,018
-313,197	90,138	0,079	-0,064
-312,183	-98,453	0,127	-0,023
-311,168	265,703	-0,061	-0,077
-310,153	9,047	-0,139	0,076
-309,139	800,000	0,040	-0,099
-308,124	747,921	0,034	0,067
-307,110	11,997	0,083	0,046
-306,095	-200,000	-0,004	0,051
-305,080	-200,000	-0,004	0,074
-304,066	143,833	-0,108	0,104
-303,051	-200,000	0,011	-0,075
-302,037	-17,678	-0,098	-0,044
-301,022	-200,000	-0,000	0,090
-300,008	121,310	-0,065	0,059
-298,993	70,776	-0,023	-0,017
-297,978	800,000	0,068	0,138
-296,964	-70,474	-0,082	0,022
-295,949	-200,000	-0,004	-0,046
-294,935	-98,699	-0,128	0,023
-293,920	463,209	0,098	-0,158
-292,905	372,736	0,026	0,039
-291,891	-164,286	0,171	0,006
-290,876	800,000	0,051	0,139
-289,862	82,228	0,154	0,121
-288,847	800,000	-0,018	-0,045
-287,832	199,785	0,056	-0,063
-286,818	-13,193	0,034	-0,016
-285,803	800,000	0,084	0,183
-284,789	142,781	-0,025	0,024
-283,774	36,279	0,063	0,040
-282,759	659,555	0,079	-0,148
-281,745	-6,621	-0,205	0,100
-280,730	-5,965	-0,027	-0,013
-279,716	-200,000	0,000	0,096
-278,701	402,041	-0,083	0,127
-277,686	-104,203	0,018	-0,003
-276,672	-89,208	0,117	-0,025
-275,657	-200,000	0,001	-0,030
-274,643	31,284	-0,143	-0,089
-273,628	81,028	-0,028	0,022
-272,613	-200,000	-0,012	-0,093
-271,599	-39,625	-0,049	0,018
-270,584	800,000	-0,020	-0,057
-269,570	-200,000	-0,001	-0,095
-268,555	-192,549	-0,069	0,000
-267,540	-69,354	0,113	0,031
-266,526	800,000	0,020	-0,046
-265,511	-200,000	-0,008	0,070
-264,497	800,000	0,007	0,018
-263,482	800,000	0,026	0,060
-262,467	-163,009	0,031	-0,001
-261,453	-200,000	-0,037	-0,140
-260,438	800,000	-0,040	0,125
-259,424	-200,000	0,054	-0,000
-258,409	800,000	-0,027	0,070
-257,395	-44,180	0,049	-0,018
-256,380	-11,651	0,071	0,033
-255,365	-19,457	-0,096	-0,043
-254,351	-30,773	-0,149	-0,060
-253,336	107,203	-0,029	0,025
-252,322	330,174	-0,137	-0,191
-251,307	-93,315	0,216	-0,043
-250,292	800,000	0,029	0,058
-249,278	593,300	0,102	-0,183
-248,263	800,000	-0,017	0,036
-247,249	301,526	-0,018	-0,025
-246,234	477,233	0,048	-0,079
-245,219	-200,000	-0,002	-0,086
-244,205	-83,292	-0,056	0,013
-243,190	-65,711	0,088	0,025
-242,176	12,157	0,067	-0,037
-241,161	-55,108	0,061	0,020
-240,146	-200,000	0,007	0,063
-239,132	-85,982	0,047	-0,010
-238,117	-92,049	-0,050	0,010
-237,103	400,459	0,011	-0,016
-236,088	800,000	-0,052	0,111
-235,073	-11,148	0,078	0,037
-234,059	800,000	-0,060	0,137
-233,044	50,984	0,101	0,069
-232,030	544,189	-0,061	-0,106
-231,015	38,546	0,059	0,038
-230,000	-133,605	-0,071	-0,006
-228,986	9,873	-0,026	0,014
-227,971	800,000	-0,042	0,109
-226,957	-59,602	-0,059	0,018
-225,942	-200,000	0,027	0,087
-224,927	-200,000	0,007	0,080
-223,913	-200,000	-0,014	-0,070
-222,898	-88,616	0,089	0,019
-221,884	-200,000	0,006	-0,142
-220,869	800,000	0,103	0,239
-219,855	-173,928	0,087	-0,002
-218,840	-95,816	0,102	0,019
-217,825	370,926	0,054	0,079
-216,811	342,602	-0,093	0,132
-215,796	-147,020	0,078	-0,005
-214,782	-2,881	-0,112	-0,056
-213,767	-87,800	0,205	-0,044
-212,752	-200,000	0,034	0,116
-211,738	-200,000	-0,006	0,026
-210,723	-37,938	0,062	0,024
-209,709	-126,348	-0,095	0,010
-208,694	-200,000	0,006	-0,053
-207,679	90,178	0,084	0,068
-206,665	800,000	-0,055	0,123
-205,650	-89,877	0,142	0,030
-204,636	119,420	0,043	0,038
-203,621	-200,000	0,030	0,098
-202,606	-200,000	0,003	0,020
-201,592	10,521	-0,065	-0,036
-200,577	-14,909	-0,030	-0,014
-199,563	-200,000	0,017	-0,067
-198,548	1,995	0,084	0,043
-197,533	-98,377	0,079	0,014
-196,519	800,000	-0,063	-0,130
-195,504	-200,000	-0,015	0,095
-194,490	-200,000	0,007	0,109
-193,475	320,342	-0,049	-0,068
-192,460	800,000	-0,008	0,023
-191,446	-163,196	0,190	-0,006
-190,431	-93,902	-0,017	-0,003
-189,417	-43,050	0,147	-0,054
-188,402	171,695	-0,050	0,051
-187,387	-200,000	-0,002	0,028
-186,373	-79,651	-0,046	-0,011
-185,358	82,634	0,113	0,089
-184,344	800,000	-0,040	0,082
-183,329	-74,040	0,110	0,029
-182,315	-1,969	-0,101	0,051
-181,300	70,492	0,072	-0,053
-180,285	-200,000	0,003	0,016
-179,271	-48,257	-0,092	0,032
-178,256	-83,083	-0,059	0,014
-177,242	-29,663	0,120	0,049
-176,227	-200,000	-0,013	-0,084
-175,212	-200,000	0,019	0,104
-174,198	135,713	-0,088	-0,083
-173,183	427,373	-0,095	-0,149
-172,169	72,723	-0,105	-0,079
-171,154	-77,972	-0,018	0,004
-170,139	-116,472	0,022	0,003
-169,125	-20,940	0,162	0,071
-168,110	-89,737	-0,142	0,030
-167,096	-200,000	0,007	-0,074
-166,081	44,427	0,043	-0,028
-165,066	69,527	-0,094	-0,070
-164,052	427,990	0,011	-0,017
-163,037	136,804	0,032	0,030
-162,023	-149,347	0,030	-0,002
-161,008	-5,421	-0,130	0,064
-159,993	-132,583	0,068	-0,006
-158,979	171,260	-0,069	-0,072
-157,964	0,192	-0,087	-0,044
-156,950	800,000	0,040	0,110
-155,935	87,863	0,148	0,118
-154,920	-2,966	0,093	0,046
-153,906	364,586	0,077	-0,111
-152,891	310,640	0,080	-0,108
-151,877	786,756	-0,057	0,113
-150,862	-200,000	0,002	-0,067
-149,847	-162,370	-0,094	-0,003
-148,833	137,176	0,033	-0,031
-147,818	-131,614	0,016	-0,001
-146,804	-200,000	0,026	0,113
-145,789	800,000	-0,020	-0,040
-144,775	-200,000	0,003	0,032
-143,760	-200,000	-0,020	0,108
-142,745	423,512	0,025	-0,039
-141,731	-200,000	-0,055	-0,207
-140,716	684,985	0,015	-0,028
-139,702	-29,391	0,046	0,019
-138,687	-200,000	-0,020	0,101
-137,672	208,015	-0,136	0,153
-136,658	-48,268	0,098	0,034
-135,643	56,120	0,038	-0,027
-134,629	-49,762	-0,101	0,034
-133,614	-161,717	0,170	0,006
-132,599	677,323	-0,024	-0,046
-131,585	482,540	0,015	0,025
-130,570	645,920	-0,084	-0,154
-129,556	232,989	-0,096	-0,114
-128,541	-200,000	-0,019	-0,119
-127,526	693,745	-0,031	0,059
-126,512	-25,579	0,157	0,066
-125,497	800,000	-0,016	-0,034
-124,483	9,232	-0,106	0,057
-123,468	184,460	0,066	0,070
-122,453	-77,566	-0,137	-0,034
-121,439	-17,516	-0,109	-0,049
-120,424	-103,608	-0,034	-0,006
-119,410	-200,000	0,012	-0,056
-118,395	-1,528	-0,122	-0,061
-117,380	-89,356	-0,030	0,006
-116,366	313,771	-0,094	-0,127
-115,351	724,373	0,073	-0,140
-114,337	-200,000	-0,003	0,072
-113,322	518,790	0,065	0,109
-112,307	-41,037	0,110	-0,040
-111,293	25,675	-0,085	0,051
-110,278	-200,000	0,015	0,077
-109,264	59,518	0,054	0,038
-108,249	618,784	-0,087	-0,158
-107,234	-131,264	-0,041	0,004
-106,220	243,558	-0,073	0,088
-105,205	-119,200	0,202	-0,025
-104,191	-50,351	0,032	0,011
-103,176	-200,000	-0,005	0,019
-102,162	-121,901	-0,178	-0,021
-101,147	800,000	0,082	-0,202
-100,132	-200,000	-0,004	-0,067
-99,118	-200,000	-0,017	-0,072
-98,103	-116,873	-0,125	-0,016
-97,089	-200,000	0,044	0,138
-96,074	800,000	0,051	0,118
-95,059	-200,000	0,019	-0,111
-94,045	-200,000	-0,013	-0,071
-93,030	324,104	-0,028	-0,038
-92,016	497,014	-0,039	-0,064
-91,001	325,492	-0,067	0,092
-89,986	418,765	0,133	-0,205
-88,972	-79,579	-0,068	-0,016
-87,957	371,241	0,037	-0,054
-86,943	-128,794	0,085	0,008
-85,928	15,128	-0,041	-0,023
-84,913	136,672	0,070	0,065
-83,899	800,000	-0,027	0,080
-82,884	800,000	-0,025	0,076
-81,870	-200,000	-0,008	0,193
-80,855	800,000	0,038	0,098
-79,840	1,351	0,152	-0,078
-78,826	-200,000	0,011	-0,049
-77,811	800,000	-0,039	0,108
-76,797	109,910	-0,082	0,070
-75,782	319,785	0,042	0,057
-74,767	128,125	0,132	0,121
-73,753	207,074	0,009	-0,010
-72,738	707,335	-0,069	0,131
-71,724	800,000	-0,016	0,033
-70,709	101,292	0,085	0,071
-69,694	-200,000	-0,034	-0,120
-68,680	0,833	-0,085	0,043
-67,665	-24,262	0,070	-0,030
-66,651	800,000	0,025	0,060
-65,636	-26,408	-0,087	0,036
-64,622	-200,000	0,047	0,191
-63,607	116,705	0,082	-0,072
-62,592	0,678	-0,051	-0,026
-61,578	800,000	0,055	0,161
-60,563	-124,542	0,151	-0,017
-59,549	12,334	-0,137	-0,076
-58,534	109,981	-2,618	-2,253
-57,519	-53,893	0,495	-0,161
-56,505	-200,000	-1,662	-5,613
-55,490	509,263	1,295	2,166
-54,476	800,000	5,253	11,149
-53,461	-200,000	23,155	349,040
-52,446	800,000	765,884	2264,465
-51,432	496,675	1642,657	2718,417
-50,417	92,653	1598,033	1292,101
-49,403	60,209	1252,559	886,771
-48,388	20,821	1005,115	582,204
-47,373	18,336	972,755	555,339
-46,359	11,660	959,672	526,294
-45,344	7,455	956,759	511,074
-44,330	7,895	954,356	511,190
-43,315	6,968	952,320	507,090
-42,300	6,964	951,271	506,498
-41,286	6,905	950,564	505,914
-40,271	6,844	949,604	505,187
-39,257	6,961	948,421	504,911
-38,242	6,935	947,660	504,403
-37,227	6,894	946,799	503,792
-36,213	6,854	945,988	503,213
-35,198	6,879	945,218	502,864
-34,184	6,953	944,317	502,602
-33,169	6,900	943,514	501,986
-32,154	6,949	942,743	501,712
-31,140	6,957	941,778	501,205
-30,125	6,957	941,130	500,838
-29,111	6,895	940,265	500,163
-28,096	6,959	939,648	500,017
-27,082	6,881	939,129	499,471
-26,067	6,897	938,501	499,171
-25,052	6,896	937,473	498,601
-24,038	6,896	936,792	498,220
-23,023	6,812	936,309	497,674
-22,009	6,856	935,697	497,469
-20,994	6,922	935,099	497,342
-19,979	6,967	934,345	497,062
-18,965	6,838	933,803	496,347
-17,950	6,902	933,223	496,220
-16,936	6,880	932,405	495,697
-15,921	6,866	932,158	495,502
-14,906	6,750	930,986	494,493
-13,892	6,833	930,577	494,516
-12,877	6,753	929,997	493,938
-11,863	6,756	929,536	493,683
-10,848	6,801	928,742	493,382
-9,833	6,904	928,318	493,461
-8,819	6,882	927,635	493,009
-7,804	6,838	926,872	492,449
-6,790	6,815	926,459	492,137
-5,775	6,863	925,909	491,974
-4,760	6,822	925,445	491,579
-3,746	6,814	924,677	491,128
-2,731	6,640	923,819	490,110
-1,717	6,624	923,271	489,750
-0,702	6,636	922,811	489,524
0,313	6,478	922,028	489,352
1,327	9,875	919,510	498,542
2,342	18,379	768,390	438,563
3,356	13,263	441,781	244,532
4,371	-12,604	309,705	144,175
5,386	-16,051	292,719	132,800
6,400	-18,336	286,704	127,814
7,415	-18,232	284,013	126,705
8,429	-19,145	282,045	124,933
9,444	-19,169	281,169	124,510
10,459	-19,082	280,531	124,300
11,473	-19,222	279,986	123,914
12,488	-18,992	279,423	123,874
13,502	-19,033	279,052	123,659
14,517	-18,854	278,558	123,600
15,531	-19,075	278,101	123,176
16,546	-19,162	277,671	122,892
17,561	-18,869	277,302	122,995
18,575	-18,876	277,023	122,854
19,590	-19,139	276,516	122,370
20,604	-19,014	276,336	122,397
21,619	-19,057	276,040	122,215
22,634	-18,965	275,706	122,143
23,648	-18,860	275,301	122,052
24,663	-18,982	275,046	121,812
25,677	-18,863	274,846	121,825
26,692	-18,867	274,567	121,687
27,707	-18,925	274,314	121,509
28,721	-18,894	273,979	121,380
29,736	-18,925	273,643	121,191
30,750	-19,002	273,480	121,035
31,765	-18,967	273,112	120,894
32,780	-18,889	272,978	120,897
33,794	-19,133	272,793	120,576
34,809	-19,162	272,610	120,458
35,823	-19,128	272,239	120,315
36,838	-18,876	271,902	120,390
37,853	-18,949	271,595	120,175
38,867	-18,994	271,363	120,020
39,882	-19,006	271,135	119,898
40,896	-18,696	270,870	120,057
41,911	-18,902	270,753	119,804
42,926	-18,691	270,417	119,839
43,940	-18,997	270,332	119,509
44,955	-18,908	269,963	119,416
45,969	-19,015	270,023	119,334
46,984	-18,823	269,588	119,307
47,999	-18,824	269,401	119,213
49,013	-18,794	269,210	119,145
50,028	-18,616	268,933	119,176
51,042	-18,723	268,726	118,975
52,057	-18,713	268,492	118,870
53,071	-18,906	268,424	118,652
54,086	-18,676	268,082	118,702
55,101	-18,855	267,940	118,464
56,115	-18,924	267,535	118,211
57,130	-18,827	267,328	118,198
58,144	-18,956	267,146	117,990
59,159	-18,928	266,811	117,856
60,174	-18,857	266,697	117,860
61,188	-18,960	266,313	117,587
62,203	-18,944	265,977	117,442
63,217	-18,844	265,903	117,489
64,232	-18,845	265,650	117,366
65,247	-18,990	265,518	117,167
66,261	-18,819	265,214	117,176
67,276	-18,833	265,002	117,060
68,290	-18,669	264,733	117,078
69,305	-18,600	264,616	117,078
70,320	-18,752	264,320	116,800
71,334	-18,886	264,117	116,579
72,349	-18,751	263,649	116,483
73,363	-18,998	263,557	116,211
74,378	-18,827	263,388	116,280
75,393	-19,042	263,318	116,045
76,407	-18,922	263,025	116,014
77,422	-18,842	262,887	116,013
78,436	-18,926	262,530	115,771
79,451	-18,908	262,360	115,701
80,466	-18,790	261,990	115,633
81,480	-18,719	261,807	115,605
82,495	-18,865	261,522	115,339
83,509	-18,868	261,298	115,228
84,524	-18,714	261,256	115,336
85,539	-18,687	260,962	115,220
86,553	-18,608	260,732	115,178
87,568	-18,915	260,406	114,752
88,582	-18,894	260,276	114,703
89,597	-18,723	260,105	114,769
90,611	-18,726	259,899	114,665
91,626	-18,759	259,723	114,548
92,641	-18,718	259,466	114,460
93,655	-18,726	259,177	114,316
94,670	-18,919	259,182	114,137
95,684	-18,868	258,833	114,019
96,699	-18,843	258,722	113,981
97,714	-18,788	258,560	113,949
98,728	-18,914	258,361	113,740
99,743	-18,627	258,106	113,869
100,757	-18,622	257,901	113,773
101,772	-18,863	257,644	113,438
102,787	-18,650	257,498	113,551
103,801	-18,891	257,281	113,234
104,816	-18,822	257,229	113,261
105,830	-18,740	256,792	113,130
106,845	-18,791	256,684	113,028
107,860	-18,691	256,544	113,043
108,874	-18,871	256,262	112,753
109,889	-18,870	256,174	112,705
110,903	-18,649	255,795	112,720
111,918	-18,791	255,628	112,513
112,933	-18,823	255,508	112,422
113,947	-18,766	255,291	112,366
114,962	-18,707	254,960	112,262
115,976	-18,700	254,872	112,219
116,991	-18,830	254,731	112,034
118,006	-18,648	254,370	112,022
119,020	-18,772	254,333	111,890
120,035	-18,680	254,096	111,854
121,049	-18,659	253,959	111,803
122,064	-18,692	253,687	111,644
123,079	-18,717	253,646	111,594
124,093	-18,713	253,311	111,441
125,108	-18,908	253,357	111,283
126,122	-18,578	252,978	111,390
127,137	-18,622	252,874	111,297
128,151	-18,540	252,580	111,227
129,166	-18,717	252,399	110,987
130,181	-18,765	252,110	110,809
131,195	-18,774	251,966	110,728
132,210	-18,813	251,821	110,621
133,224	-18,584	251,461	110,648
134,239	-18,751	251,346	110,445
135,254	-18,815	251,129	110,285
136,268	-18,775	251,040	110,270
137,283	-18,678	250,685	110,187
138,297	-18,637	250,507	110,134
139,312	-18,759	250,391	109,970
140,327	-18,671	250,035	109,878
141,341	-18,663	249,958	109,841
142,356	-18,809	249,800	109,639
143,370	-18,644	249,506	109,639
144,385	-18,740	249,377	109,492
145,400	-18,806	249,042	109,279
146,414	-18,779	249,000	109,273
147,429	-18,764	248,766	109,174
148,443	-18,668	248,407	109,087
149,458	-18,668	248,405	109,077
150,473	-18,684	248,261	108,990
151,487	-18,566	247,934	108,936
152,502	-18,784	247,822	108,694
153,516	-18,600	247,659	108,768
154,531	-18,664	247,496	108,632
155,546	-18,731	247,250	108,459
156,560	-18,867	247,094	108,267
157,575	-18,710	246,869	108,290
158,589	-18,568	246,549	108,258
159,604	-18,763	246,487	108,059
160,619	-18,547	246,183	108,095
161,633	-18,699	246,168	107,953
162,648	-18,781	246,028	107,813
163,662	-18,567	245,689	107,833
164,677	-18,668	245,609	107,704
165,692	-18,706	245,469	107,602
166,706	-18,682	245,341	107,556
167,721	-18,824	245,129	107,337
168,735	-18,770	245,042	107,333
169,750	-18,771	244,821	107,226
170,764	-18,757	244,699	107,175
171,779	-18,695	244,574	107,161
172,794	-18,786	244,323	106,967
173,808	-18,595	244,095	107,015
174,823	-18,584	243,944	106,948
175,837	-18,769	243,844	106,742
176,852	-18,781	243,612	106,622
177,867	-18,492	243,417	106,764
178,881	-18,551	243,176	106,600
179,896	-18,621	243,145	106,520
180,910	-18,799	242,966	106,286
181,925	-18,784	242,670	106,159
182,940	-18,618	242,512	106,217
183,954	-18,776	242,433	106,043
184,969	-18,697	242,363	106,068
185,983	-18,636	241,990	105,945
186,998	-18,702	241,962	105,869
188,013	-18,635	241,691	105,796
189,027	-18,603	241,577	105,763
190,042	-18,863	241,342	105,439
191,056	-18,608	241,074	105,520
192,071	-18,618	241,006	105,472
193,086	-18,558	240,848	105,443
194,100	-18,861	240,588	105,073
195,115	-18,638	240,432	105,177
196,129	-18,616	240,149	105,061
197,144	-18,679	239,956	104,917
198,159	-18,839	239,888	104,748
199,173	-18,440	239,543	104,910
200,188	-18,648	239,525	104,725
201,202	-18,514	239,250	104,703
202,217	-18,621	239,301	104,631
203,232	-18,331	239,106	104,769
204,246	-18,485	238,702	104,459
205,261	-18,388	238,493	104,436
206,275	-16,791	239,225	106,034
207,290	-11,876	241,128	110,855
208,304	-5,556	243,006	116,865
209,319	-2,421	243,770	119,782
210,334	-1,457	243,874	120,609
211,348	-0,421	244,033	121,522
212,363	0,049	244,148	121,951
213,377	0,263	243,886	121,984
214,392	0,293	244,051	122,080
215,407	0,794	243,856	122,380
216,421	0,858	243,658	122,322
217,436	0,880	243,575	122,287
218,450	0,959	243,470	122,287
219,465	1,055	243,372	122,305
220,480	0,976	243,231	122,160
221,494	0,899	243,007	121,973
222,509	0,351	242,806	121,418
223,523	0,310	242,585	121,263
224,538	0,585	242,199	121,281
225,553	0,443	242,098	121,106
226,567	0,380	242,060	121,025
227,582	0,296	241,866	120,849
228,596	0,370	241,718	120,825
229,611	0,344	241,536	120,701
230,626	0,345	241,345	120,596
231,640	0,350	241,230	120,532
232,655	0,263	240,905	120,289
233,669	0,244	240,809	120,215
234,684	0,097	240,734	120,049
235,699	0,266	240,606	120,109
236,713	0,526	240,465	120,237
237,728	0,276	240,303	119,945
238,742	0,337	240,003	119,833
239,757	0,153	239,950	119,649
240,772	0,308	239,672	119,623
241,786	0,419	239,569	119,650
242,801	0,207	239,510	119,441
243,815	0,399	239,328	119,492
244,830	0,377	239,213	119,407
245,844	0,320	238,991	119,240
246,859	0,403	238,834	119,217
247,874	0,380	238,756	119,149
248,888	0,325	238,534	118,985
249,903	0,292	238,367	118,864
250,917	0,543	238,153	118,946
251,932	0,270	238,134	118,710
252,947	0,438	237,924	118,728
253,961	0,500	237,803	118,705
254,976	0,179	237,522	118,301
255,990	0,297	237,425	118,335
257,005	0,275	237,316	118,252
258,020	0,490	237,068	118,288
259,034	0,630	236,949	118,328
260,049	0,573	236,917	118,257
261,063	0,306	236,608	117,882
262,078	0,360	236,601	117,911
263,093	0,202	236,466	117,708
264,107	0,240	236,322	117,657
265,122	0,404	235,984	117,606
266,136	0,255	235,938	117,456
267,151	0,374	235,784	117,462
268,166	0,343	235,666	117,369
269,180	0,279	235,464	117,208
270,195	0,610	235,211	117,330
271,209	0,349	235,100	117,060
272,224	0,359	234,865	116,940
273,239	0,374	234,910	116,964
274,253	0,415	234,602	116,833
275,268	0,469	234,493	116,810
276,282	0,286	234,386	116,603
277,297	0,442	234,202	116,623
278,312	0,250	234,151	116,437
279,326	0,399	233,968	116,452
280,341	0,495	233,898	116,481
281,355	0,605	233,648	116,432
282,370	0,507	233,540	116,292
283,384	0,468	233,336	116,149
284,399	0,469	233,250	116,097
285,414	0,506	232,892	115,937
286,428	0,312	232,961	115,811
287,443	0,378	232,713	115,729
288,457	0,702	232,485	115,855
289,472	0,515	232,513	115,714
290,487	0,439	232,276	115,528
291,501	0,395	232,219	115,455
292,516	0,463	232,046	115,411
293,530	0,550	231,848	115,369
294,545	0,326	231,765	115,145
295,560	0,286	231,622	115,034
296,574	0,565	231,554	115,203
297,589	0,414	231,371	114,987
298,603	0,481	231,140	114,912
299,618	0,688	230,969	114,976
300,633	0,576	230,970	114,880
301,647	0,433	230,819	114,685
302,662	0,691	230,575	114,751
303,676	0,653	230,289	114,570
304,691	0,557	230,296	114,490
305,706	0,455	230,210	114,359
306,720	0,642	229,975	114,374
307,735	0,685	229,923	114,371
308,749	0,557	229,625	114,116
309,764	0,710	229,536	114,177
310,779	0,540	229,467	114,004
311,793	0,641	229,276	113,975
312,808	0,720	229,029	113,902
313,822	0,720	228,991	113,872
314,837	0,774	228,740	113,779
315,852	0,640	228,607	113,601
316,866	0,562	228,485	113,471
317,881	0,740	228,316	113,512
318,895	0,805	228,210	113,498
319,910	0,606	228,198	113,332
320,925	0,670	227,974	113,259
321,939	0,721	227,862	113,231
322,954	0,788	227,636	113,160
323,968	0,787	227,592	113,127
324,983	0,814	227,341	113,012
325,997	0,930	227,106	112,973
327,012	0,840	227,036	112,860
328,027	0,621	226,898	112,617
329,041	0,774	226,881	112,713
330,056	0,868	226,663	112,665
331,070	0,716	226,587	112,503
332,085	0,663	226,373	112,348
333,100	0,835	226,184	112,372
334,114	0,808	226,007	112,254
335,129	0,805	225,799	112,139
336,143	0,819	225,779	112,129
337,158	0,890	225,634	112,100
338,173	1,083	225,511	112,173
339,187	0,919	225,345	111,958
340,202	1,079	225,221	112,006
341,216	1,101	225,011	111,907
342,231	0,976	224,840	111,719
343,246	0,819	224,836	111,591
344,260	0,800	224,592	111,446
345,275	0,883	224,571	111,487
346,289	0,892	224,291	111,345
347,304	0,971	224,191	111,344
348,319	0,875	224,157	111,246
349,333	0,952	223,949	111,189
350,348	0,849	223,711	110,986
351,362	0,733	223,659	110,864
352,377	0,752	223,565	110,822
353,392	0,887	223,434	110,847
354,406	1,181	223,227	110,950
355,421	192,193	1310,321	1374,385
356,435	153,892	1442,596	1374,206
