DTS Sentinel unit serial number:	SN410029Multiplexer serial number:	ORYXHardware model number:	OX2-SRSoftware version number:	ORYX F/W v4,00 Oryx Data Collector v3.7.2.0data status	okinstallation	B5 Nyhavnadifferential loss correction	single-endedforward channel	channel 2reverse channel	N/Adate	2023/12/11time	18:27:13forward acquisition time	300,00reverse acquisition time	0,00gamma	499,1914k internal	0,3161k external	0,3161temperature offset calibration	1,0000default loss term (dB/km)	0,3820temperature slope calibration	1,0000multiplexer offset coefficient	1,0000multiplexer slope coefficient	1,0000fibre end	0,00T internal ref (°C)	15,19T ext. ref 1 (°C)	-0,31T ext. ref 2 (°C)	-0,58length (m)	temperature (°C)	Stokes	anti-Stokes-744,400	-200,000	0,030	-0,103
-743,385	-53,260	-0,232	-0,078
-742,371	362,511	0,046	0,069
-741,356	-69,435	-0,320	0,090
-740,342	329,776	0,030	-0,043
-739,327	-100,976	-0,253	-0,045
-738,312	-97,592	0,212	-0,040
-737,298	-40,300	-0,280	-0,107
-736,283	-200,000	-0,006	-0,027
-735,269	-137,684	-0,350	0,029
-734,254	255,220	0,036	-0,045
-733,239	-9,175	-0,439	-0,215
-732,225	-200,000	0,027	0,104
-731,210	-7,834	-0,079	-0,039
-730,196	162,987	0,065	0,067
-729,181	-200,000	-0,014	0,055
-728,167	-144,625	0,062	-0,004
-727,152	-200,000	0,015	-0,057
-726,137	-176,085	-0,163	-0,003
-725,123	-105,744	0,074	-0,012
-724,108	32,557	-0,123	-0,078
-723,094	800,000	0,027	-0,070
-722,079	-200,000	-0,018	0,081
-721,064	-90,333	0,051	-0,011
-720,050	581,634	0,027	-0,049
-719,035	800,000	-0,014	-0,037
-718,021	-131,959	-0,107	-0,010
-717,006	248,981	0,033	-0,041
-715,991	91,809	-0,136	-0,113
-714,977	20,564	-0,096	-0,057
-713,962	155,224	0,111	-0,113
-712,948	272,673	-0,077	-0,100
-711,933	225,245	0,044	0,052
-710,918	500,843	0,011	-0,018
-709,904	-2,193	-0,129	-0,067
-708,889	210,857	-0,123	-0,142
-707,875	-98,212	-0,144	0,027
-706,860	88,989	0,015	0,012
-705,845	75,328	-0,011	0,008
-704,831	-2,964	0,028	0,014
-703,816	-200,000	-0,013	-0,058
-702,802	203,988	-0,054	-0,061
-701,787	-66,915	-0,062	0,018
-700,772	219,177	-0,069	0,081
-699,758	-200,000	0,001	-0,021
-698,743	614,752	0,068	0,126
-697,729	-200,000	0,011	-0,068
-696,714	155,517	-0,074	0,075
-695,699	361,138	-0,042	0,063
-694,685	800,000	0,023	0,063
-693,670	800,000	0,044	-0,095
-692,656	-168,735	0,062	0,002
-691,641	796,640	0,033	-0,067
-690,627	-21,769	0,138	-0,061
-689,612	155,289	-0,020	-0,020
-688,597	119,957	-0,137	-0,125
-687,583	331,877	-0,100	-0,142
-686,568	-4,882	-0,150	-0,076
-685,554	-200,000	-0,040	-0,155
-684,539	-200,000	0,007	0,047
-683,524	710,945	-0,038	-0,074
-682,510	-177,755	-0,048	0,001
-681,495	-72,434	-0,066	-0,018
-680,481	758,964	-0,093	-0,187
-679,466	361,842	-0,063	0,092
-678,451	162,842	-0,136	-0,141
-677,437	61,314	-0,029	-0,021
-676,422	-122,154	0,133	0,016
-675,408	505,665	-0,042	-0,072
-674,393	171,146	0,039	0,041
-673,378	-48,960	-0,029	0,010
-672,364	304,100	-0,071	-0,097
-671,349	30,550	-0,116	0,073
-670,335	-130,700	0,067	-0,007
-669,320	-76,252	0,109	0,028
-668,305	353,666	-0,051	-0,074
-667,291	438,801	-0,047	-0,075
-666,276	-37,603	-0,107	-0,042
-665,262	443,641	0,020	0,033
-664,247	-200,000	0,004	0,043
-663,232	-10,430	-0,213	-0,103
-662,218	101,508	0,046	-0,039
-661,203	-115,486	0,084	-0,012
-660,189	81,973	-0,073	0,058
-659,174	2,105	0,127	0,067
-658,159	296,633	0,070	-0,094
-657,145	9,108	-0,097	0,054
-656,130	-200,000	0,011	0,068
-655,116	-37,559	0,100	0,039
-654,101	800,000	-0,038	0,103
-653,086	-200,000	-0,009	0,120
-652,072	-149,400	-0,118	0,007
-651,057	539,492	-0,096	-0,169
-650,043	85,544	0,065	-0,053
-649,028	270,041	-0,033	-0,043
-648,014	-200,000	-0,016	0,163
-646,999	-200,000	0,006	0,103
-645,984	-200,000	-0,019	0,250
-644,970	800,000	0,050	-0,157
-643,955	-70,234	-0,224	-0,062
-642,941	595,393	0,020	-0,037
-641,926	183,567	0,041	-0,044
-640,911	-137,111	-0,190	0,016
-639,897	246,052	-0,060	0,075
-638,882	327,634	-0,008	-0,011
-637,868	800,000	-0,026	-0,057
-636,853	-46,030	-0,119	-0,043
-635,838	800,000	0,071	-0,225
-634,824	-139,428	0,129	-0,010
-633,809	258,706	0,043	-0,054
-632,795	-200,000	0,000	0,058
-631,780	460,635	0,027	-0,044
-630,765	-200,000	-0,001	-0,080
-629,751	280,902	0,010	0,013
-628,736	800,000	0,037	-0,083
-627,722	-200,000	0,010	-0,085
-626,707	-200,000	-0,004	0,023
-625,692	-200,000	0,024	0,142
-624,678	-83,347	-0,089	0,021
-623,663	800,000	0,054	-0,133
-622,649	659,215	-0,039	-0,074
-621,634	-8,443	0,009	-0,004
-620,619	-30,655	0,054	-0,022
-619,605	-22,024	-0,051	-0,022
-618,590	-200,000	0,006	0,019
-617,576	800,000	0,044	0,108
-616,561	-200,000	0,009	0,037
-615,546	219,431	-0,057	0,067
-614,532	800,000	-0,021	-0,064
-613,517	-57,491	-0,015	0,005
-612,503	-56,124	0,042	-0,014
-611,488	-200,000	-0,023	-0,108
-610,474	-200,000	0,025	0,132
-609,459	222,902	-0,106	0,126
-608,444	343,431	-0,061	-0,087
-607,430	29,228	-0,117	-0,072
-606,415	800,000	0,032	-0,072
-605,401	227,044	-0,154	-0,183
-604,386	-8,294	-0,104	-0,051
-603,371	-200,000	0,020	-0,123
-602,357	110,153	-0,036	0,032
-601,342	-48,153	-0,039	0,014
-600,328	309,103	-0,034	0,046
-599,313	512,424	0,032	0,055
-598,298	-200,000	0,012	-0,124
-597,284	250,837	0,070	-0,087
-596,269	800,000	-0,025	0,080
-595,255	84,809	-0,028	0,023
-594,240	455,929	0,018	0,030
-593,225	341,777	0,034	-0,049
-592,211	86,023	-0,080	-0,064
-591,196	454,597	-0,075	-0,122
-590,182	-86,633	0,186	0,041
-589,167	515,265	0,081	0,139
-588,152	-26,601	0,060	0,026
-587,138	670,304	0,049	0,094
-586,123	-200,000	-0,001	-0,054
-585,109	112,010	-0,079	-0,070
-584,094	-28,126	-0,063	-0,027
-583,079	-11,036	-0,143	-0,069
-582,065	374,645	-0,024	-0,035
-581,050	129,912	-0,097	0,091
-580,036	-83,599	0,072	-0,017
-579,021	-123,307	-0,056	-0,007
-578,006	30,290	0,056	-0,035
-576,992	256,840	-0,061	-0,077
-575,977	-26,427	0,152	0,065
-574,963	-90,859	0,094	0,020
-573,948	256,086	0,025	-0,031
-572,934	305,163	-0,057	0,077
-571,919	209,317	-0,094	-0,108
-570,904	185,069	-0,133	-0,145
-569,890	658,981	0,047	-0,088
-568,875	-110,578	-0,147	0,022
-567,861	-200,000	0,018	0,079
-566,846	-59,800	0,036	-0,011
-565,831	-53,545	-0,164	0,054
-564,817	182,367	-0,053	-0,057
-563,802	800,000	-0,032	-0,081
-562,788	-200,000	-0,002	0,027
-561,773	-42,428	0,081	0,030
-560,758	121,269	0,063	-0,057
-559,744	-91,505	-0,036	0,007
-558,729	800,000	-0,033	-0,092
-557,715	-52,381	0,052	-0,017
-556,700	800,000	0,040	-0,097
-555,685	8,182	0,117	-0,064
-554,671	-98,319	0,067	0,012
-553,656	-200,000	-0,000	0,105
-552,642	-200,000	-0,016	0,100
-551,627	800,000	-0,016	-0,046
-550,612	-15,778	0,091	-0,042
-549,598	7,523	-0,048	0,026
-548,583	150,701	0,045	0,045
-547,569	273,552	-0,041	-0,053
-546,554	85,560	-0,025	-0,020
-545,539	98,016	0,094	0,079
-544,525	92,114	-0,055	0,046
-543,510	65,781	0,064	0,047
-542,496	-51,141	0,043	0,015
-541,481	-55,065	0,020	-0,007
-540,466	36,826	-0,024	-0,015
-539,452	-193,670	0,149	0,001
-538,437	202,692	-0,045	-0,050
-537,423	-200,000	0,029	-0,141
-536,408	148,345	-0,050	0,050
-535,393	-200,000	-0,013	0,063
-534,379	-200,000	0,008	-0,042
-533,364	-200,000	-0,005	0,062
-532,350	-96,416	0,055	0,011
-531,335	168,387	-0,032	-0,033
-530,321	-200,000	0,024	0,175
-529,306	97,213	0,034	-0,029
-528,291	-200,000	-0,019	-0,083
-527,277	83,272	-0,050	0,039
-526,262	-125,404	0,109	-0,012
-525,248	-120,813	0,082	-0,010
-524,233	-36,690	-0,024	-0,009
-523,218	53,076	0,069	0,048
-522,204	-200,000	0,000	-0,096
-521,189	203,250	0,025	0,028
-520,175	26,421	-0,085	-0,052
-519,160	563,770	-0,013	0,023
-518,145	-93,412	0,159	-0,032
-517,131	-47,634	0,027	-0,010
-516,116	14,835	-0,027	-0,015
-515,102	4,715	-0,071	0,038
-514,087	800,000	0,043	-0,113
-513,072	600,355	-0,037	-0,068
-512,058	210,624	0,045	0,051
-511,043	-50,881	-0,120	-0,041
-510,029	-200,000	0,009	0,164
-509,014	175,635	0,132	0,140
-507,999	236,835	0,069	0,083
-506,985	-200,000	-0,028	-0,090
-505,970	-82,116	-0,038	-0,009
-504,956	800,000	-0,046	-0,098
-503,941	-14,291	0,088	-0,041
-502,926	-127,025	0,152	-0,016
-501,912	-200,000	-0,002	-0,088
-500,897	-121,600	0,089	-0,011
-499,883	62,526	-0,109	0,079
-498,868	-200,000	-0,021	-0,116
-497,853	-13,231	0,041	-0,019
-496,839	-200,000	0,002	0,055
-495,824	-41,144	0,098	0,037
-494,810	159,598	0,066	0,067
-493,795	-200,000	-0,023	0,123
-492,781	800,000	0,028	0,072
-491,766	35,377	-0,095	0,061
-490,751	-13,171	-0,095	-0,045
-489,737	-200,000	-0,015	0,076
-488,722	-200,000	-0,012	0,090
-487,708	800,000	0,027	0,085
-486,693	121,800	-0,018	0,016
-485,678	491,958	-0,053	-0,088
-484,664	-63,167	0,053	0,016
-483,649	722,643	-0,039	-0,076
-482,635	72,296	0,068	-0,052
-481,620	156,122	0,092	-0,092
-480,605	-200,000	0,004	-0,096
-479,591	13,665	0,096	-0,054
-478,576	31,110	-0,124	0,078
-477,562	216,951	-0,095	-0,110
-476,547	-26,478	0,046	-0,020
-475,532	-200,000	0,027	-0,126
-474,518	57,308	-0,063	0,045
-473,503	-113,819	0,093	0,013
-472,489	245,594	-0,049	-0,060
-471,474	-68,989	-0,136	0,038
-470,459	43,504	-0,171	-0,114
-469,445	800,000	-0,071	-0,193
-468,430	-146,694	-0,128	-0,008
-467,416	95,838	0,082	0,069
-466,401	-200,000	-0,019	0,185
-465,386	-200,000	-0,013	0,084
-464,372	442,714	0,008	0,012
-463,357	800,000	0,043	-0,123
-462,343	800,000	-0,037	-0,118
-461,328	800,000	-0,032	-0,080
-460,313	253,508	-0,050	-0,062
-459,299	240,453	0,049	0,060
-458,284	-200,000	-0,010	-0,080
-457,270	16,878	-0,052	-0,030
-456,255	215,248	-0,012	-0,014
-455,241	-101,121	0,082	-0,014
-454,226	-1,916	-0,213	-0,108
-453,211	144,966	0,019	0,019
-452,197	576,793	0,039	0,070
-451,182	800,000	-0,036	-0,084
-450,168	434,609	-0,042	-0,066
-449,153	156,587	0,092	-0,092
-448,138	59,522	-0,057	-0,041
-447,124	-120,789	0,135	0,016
-446,109	67,404	-0,052	0,038
-445,095	-32,997	0,046	-0,019
-444,080	-88,181	0,008	0,002
-443,065	151,184	0,079	0,079
-442,051	-56,101	-0,034	0,011
-441,036	51,158	-0,062	0,043
-440,022	-200,000	0,013	-0,068
-439,007	-68,025	-0,085	0,024
-437,992	18,111	-0,069	0,040
-436,978	800,000	-0,060	0,142
-435,963	78,872	0,097	0,075
-434,949	-79,305	-0,122	-0,030
-433,934	-140,980	-0,105	-0,008
-432,919	187,254	0,099	-0,108
-431,905	-174,427	-0,033	0,001
-430,890	379,711	0,153	0,229
-429,876	-200,000	0,001	-0,040
-428,861	-200,000	0,029	0,105
-427,846	20,377	-0,068	0,040
-426,832	-22,765	-0,145	0,064
-425,817	-200,000	0,006	0,051
-424,803	-60,322	0,185	-0,057
-423,788	137,761	0,104	0,099
-422,773	-110,441	0,017	0,003
-421,759	800,000	0,024	0,069
-420,744	46,275	-0,037	0,025
-419,730	-114,629	0,130	0,018
-418,715	242,086	-0,077	-0,094
-417,701	-200,000	0,039	-0,135
-416,686	-200,000	-0,017	0,098
-415,671	175,831	0,119	0,126
-414,657	-200,000	0,007	0,046
-413,642	91,182	-0,052	-0,042
-412,628	-4,275	-0,058	0,029
-411,613	-122,966	-0,063	0,007
-410,598	437,680	0,055	-0,088
-409,584	-107,033	-0,130	0,021
-408,569	-200,000	-0,008	-0,037
-407,555	275,502	0,073	0,095
-406,540	322,221	0,089	0,123
-405,525	-163,581	-0,081	0,003
-404,511	126,138	-0,127	0,117
-403,496	452,625	-0,086	-0,139
-402,482	-200,000	0,016	0,157
-401,467	-94,596	0,166	-0,032
-400,452	800,000	-0,020	-0,042
-399,438	-29,679	0,023	0,009
-398,423	-60,726	-0,140	-0,043
-397,409	-200,000	0,031	-0,121
-396,394	177,990	-0,148	-0,157
-395,379	800,000	-0,021	0,058
-394,365	-200,000	0,004	0,024
-393,350	-200,000	-0,007	0,058
-392,336	-29,193	-0,030	-0,013
-391,321	135,035	-0,063	-0,060
-390,306	191,650	0,156	-0,171
-389,292	-157,239	-0,057	-0,002
-388,277	-85,815	-0,090	-0,020
-387,263	-113,496	0,099	0,014
-386,248	77,512	0,135	0,105
-385,233	144,501	-0,022	0,022
-384,219	-47,068	0,051	-0,018
-383,204	0,695	-0,093	-0,048
-382,190	65,363	0,077	-0,056
-381,175	-111,606	0,122	0,018
-380,160	-200,000	0,031	0,102
-379,146	-159,176	-0,049	0,002
-378,131	-200,000	-0,014	0,198
-377,117	-200,000	0,006	0,191
-376,102	95,376	-0,092	-0,076
-375,088	109,280	-0,094	0,082
-374,073	-31,768	-0,030	-0,012
-373,058	800,000	-0,027	0,065
-372,044	182,222	0,115	0,123
-371,029	-200,000	0,054	0,194
-370,015	-200,000	0,007	-0,105
-369,000	138,790	0,024	0,023
-367,985	343,327	-0,012	-0,017
-366,971	-200,000	0,005	0,135
-365,956	-200,000	0,022	0,076
-364,942	180,481	0,014	0,015
-363,927	800,000	0,103	0,272
-362,912	-13,148	0,067	0,032
-361,898	-50,463	-0,137	0,047
-360,883	225,776	0,047	-0,056
-359,869	-200,000	0,008	0,049
-358,854	-200,000	0,012	-0,045
-357,839	-200,000	-0,004	0,130
-356,825	190,639	0,067	-0,073
-355,810	800,000	-0,023	-0,047
-354,796	-162,800	-0,070	-0,002
-353,781	16,398	0,123	-0,070
-352,766	-21,959	-0,056	0,025
-351,752	422,030	0,085	0,133
-350,737	-2,661	0,095	0,048
-349,723	149,315	0,066	-0,065
-348,708	189,789	0,031	0,034
-347,693	-200,000	0,019	-0,132
-346,679	-25,224	0,098	-0,042
-345,664	800,000	0,032	-0,097
-344,650	-41,689	-0,027	-0,010
-343,635	-90,927	0,075	-0,015
-342,620	86,205	0,155	0,124
-341,606	-139,035	0,034	0,003
-340,591	94,328	-0,030	-0,024
-339,577	-13,030	0,045	-0,021
-338,562	187,338	0,029	-0,031
-337,548	-200,000	0,002	0,055
-336,533	278,782	0,083	0,107
-335,518	563,014	0,023	-0,041
-334,504	258,477	0,015	0,019
-333,489	552,381	0,026	0,046
-332,475	-7,589	0,149	-0,073
-331,460	-191,655	0,056	0,000
-330,445	24,342	-0,033	0,020
-329,431	-200,000	-0,003	0,161
-328,416	21,419	0,064	0,038
-327,402	338,041	0,062	-0,088
-326,387	-131,763	0,050	0,005
-325,372	-200,000	-0,009	0,147
-324,358	-143,299	0,018	0,001
-323,343	-15,655	0,120	0,055
-322,329	-200,000	-0,021	0,091
-321,314	558,275	0,006	0,010
-320,299	-200,000	-0,025	0,100
-319,285	134,118	-0,023	0,022
-318,270	-34,943	-0,012	-0,005
-317,256	13,266	-0,048	-0,027
-316,241	-15,502	0,072	-0,033
-315,226	160,252	0,105	0,107
-314,212	345,108	-0,053	0,076
-313,197	800,000	0,041	0,102
-312,183	-127,694	-0,070	0,007
-311,168	-139,739	0,112	0,008
-310,153	-200,000	0,010	-0,096
-309,139	-14,834	-0,132	-0,061
-308,124	138,439	0,094	-0,089
-307,110	-52,197	0,142	-0,047
-306,095	-200,000	0,002	-0,019
-305,080	-200,000	-0,007	-0,114
-304,066	-200,000	-0,014	-0,094
-303,051	-131,899	0,028	-0,003
-302,037	8,748	-0,079	0,043
-301,022	216,525	-0,082	-0,095
-300,008	800,000	0,015	0,033
-298,993	-124,409	0,093	0,010
-297,978	-114,462	-0,012	0,002
-296,964	-200,000	-0,004	-0,049
-295,949	73,386	-0,105	0,080
-294,935	-59,207	-0,099	-0,031
-293,920	30,694	0,046	0,028
-292,905	-87,746	0,163	0,035
-291,891	55,094	0,096	0,067
-290,876	-16,685	-0,038	-0,017
-289,862	-200,000	-0,017	-0,092
-288,847	-200,000	-0,003	0,021
-287,832	311,708	-0,039	0,053
-286,818	-121,086	-0,123	-0,015
-285,803	-49,595	0,224	0,077
-284,789	141,133	-0,086	0,082
-283,774	427,049	0,040	0,063
-282,759	-86,640	0,121	-0,027
-281,745	133,180	0,048	0,045
-280,730	-97,940	-0,091	-0,017
-279,716	580,754	-0,008	-0,015
-278,701	40,979	-0,083	-0,054
-277,686	408,316	0,034	0,053
-276,672	42,632	0,077	0,051
-275,657	-200,000	0,008	0,032
-274,643	-200,000	0,004	-0,086
-273,628	478,177	-0,028	0,045
-272,613	336,781	-0,092	0,129
-271,599	800,000	0,011	0,024
-270,584	76,131	0,050	-0,038
-269,570	163,119	-0,027	-0,028
-268,555	800,000	-0,039	-0,106
-267,540	14,178	0,024	-0,014
-266,526	360,262	-0,022	-0,031
-265,511	93,392	0,047	0,039
-264,497	737,193	0,026	0,051
-263,482	55,321	0,145	0,101
-262,467	393,576	-0,029	0,043
-261,453	-37,933	0,038	0,015
-260,438	-111,044	-0,091	-0,013
-259,424	-200,000	0,001	0,011
-258,409	-200,000	0,008	-0,053
-257,395	3,275	-0,075	-0,039
-256,380	21,857	-0,084	0,050
-255,365	110,467	0,036	0,031
-254,351	800,000	-0,036	-0,088
-253,336	-200,000	-0,138	0,000
-252,322	97,923	-0,077	-0,064
-251,307	36,766	0,067	0,043
-250,292	331,006	0,051	0,071
-249,278	-200,000	-0,033	-0,119
-248,263	-200,000	-0,000	0,036
-247,249	800,000	-0,073	-0,165
-246,234	-116,235	-0,155	0,020
-245,219	630,534	-0,110	-0,203
-244,205	249,843	0,058	0,071
-243,190	190,090	-0,158	0,171
-242,176	-198,686	0,093	-0,000
-241,161	140,540	-0,061	0,058
-240,146	49,038	0,061	-0,041
-239,132	137,177	0,068	0,065
-238,117	23,338	-0,042	-0,025
-237,103	-123,735	0,079	-0,009
-236,088	-200,000	-0,051	-0,162
-235,073	253,527	0,027	0,033
-234,059	-50,813	0,065	0,022
-233,044	-167,271	-0,029	-0,001
-232,030	-118,065	0,134	0,017
-231,015	103,103	-0,084	0,071
-230,000	-200,000	-0,006	-0,020
-228,986	800,000	0,049	0,136
-227,971	26,809	-0,012	0,007
-226,957	-200,000	0,009	0,146
-225,942	-91,787	-0,030	0,006
-224,927	2,277	-0,168	-0,087
-223,913	420,944	0,041	-0,064
-222,898	-199,808	0,102	0,000
-221,884	-83,268	-0,066	0,015
-220,869	0,470	-0,094	0,048
-219,855	86,119	-0,021	0,017
-218,840	-85,341	0,125	-0,028
-217,825	55,443	-0,058	-0,041
-216,811	-29,416	-0,067	0,028
-215,796	800,000	-0,004	-0,010
-214,782	128,168	-0,066	-0,060
-213,767	369,009	-0,027	0,039
-212,752	-40,900	0,090	-0,033
-211,738	219,697	-0,035	0,041
-210,723	-111,379	0,034	0,005
-209,709	63,181	0,039	0,028
-208,694	108,314	-0,166	-0,143
-207,679	-80,795	0,021	0,005
-206,665	800,000	-0,058	-0,118
-205,650	753,507	0,015	0,029
-204,636	-200,000	-0,008	0,128
-203,621	800,000	0,009	-0,018
-202,606	500,460	0,016	-0,027
-201,592	491,021	-0,049	-0,081
-200,577	-200,000	-0,053	-0,192
-199,563	-200,000	0,024	-0,133
-198,548	151,991	-0,019	-0,018
-197,533	-200,000	-0,001	0,084
-196,519	-169,776	0,107	0,003
-195,504	-140,921	-0,046	-0,003
-194,490	244,381	-0,090	-0,110
-193,475	-125,054	0,010	0,001
-192,460	271,400	-0,068	-0,086
-191,446	415,002	-0,027	0,041
-190,431	-152,219	0,084	-0,004
-189,417	202,562	-0,041	-0,046
-188,402	179,350	0,006	-0,006
-187,387	253,267	0,074	-0,091
-186,373	-69,128	-0,083	-0,023
-185,358	-34,089	0,014	-0,005
-184,344	178,774	0,065	0,069
-183,329	-200,000	-0,017	0,161
-182,315	-200,000	0,000	-0,013
-181,300	-53,161	-0,070	-0,023
-180,285	-93,710	-0,079	-0,016
-179,271	-200,000	0,003	-0,118
-178,256	18,875	-0,079	0,046
-177,242	800,000	0,009	0,025
-176,227	800,000	0,026	-0,066
-175,212	-57,576	-0,050	0,016
-174,198	-200,000	0,003	-0,129
-173,183	110,517	-0,047	-0,041
-172,169	32,119	-0,080	-0,049
-171,154	-134,318	0,062	-0,005
-170,139	-200,000	-0,004	0,089
-169,125	123,234	0,042	0,038
-168,110	-111,037	-0,097	-0,014
-167,096	-0,411	-0,055	-0,028
-166,081	-101,160	-0,109	-0,019
-165,066	71,327	-0,028	-0,021
-164,052	280,980	0,103	-0,133
-163,037	11,339	0,090	0,050
-162,023	-96,156	0,024	0,005
-161,008	-200,000	0,008	0,117
-159,993	-200,000	-0,007	0,040
-158,979	-200,000	0,021	0,112
-157,964	94,777	-0,082	-0,067
-156,950	103,265	-0,099	0,083
-155,935	446,174	0,041	0,065
-154,920	-200,000	0,003	-0,063
-153,906	-68,374	0,227	0,063
-152,891	-43,140	0,070	-0,025
-151,877	-147,169	-0,160	0,010
-150,862	-200,000	0,003	-0,080
-149,847	-200,000	0,001	0,005
-148,833	800,000	0,062	0,138
-147,818	22,153	-0,082	0,048
-146,804	-200,000	0,012	0,096
-145,789	-109,982	-0,077	0,011
-144,775	242,727	-0,069	-0,084
-143,760	-64,267	-0,120	-0,035
-142,745	-200,000	0,012	-0,071
-141,731	31,824	-0,097	-0,060
-140,716	-200,000	-0,019	0,128
-139,702	-127,568	-0,092	-0,009
-138,687	-98,297	0,087	-0,016
-137,672	-200,000	0,022	-0,114
-136,658	4,682	0,036	-0,019
-135,643	419,122	-0,060	-0,093
-134,629	-200,000	-0,011	0,058
-133,614	209,532	-0,041	0,046
-132,599	120,549	0,025	-0,022
-131,585	-103,696	0,050	-0,008
-130,570	-200,000	-0,018	0,082
-129,556	725,339	0,037	-0,071
-128,541	379,606	-0,048	0,071
-127,526	-200,000	0,005	-0,138
-126,512	585,695	0,046	0,082
-125,497	631,026	-0,037	-0,068
-124,483	-200,000	-0,001	0,063
-123,468	-90,441	-0,086	0,018
-122,453	-72,395	-0,053	0,014
-121,439	-147,021	-0,127	0,008
-120,424	-135,079	-0,065	0,006
-119,410	800,000	-0,065	0,140
-118,395	624,178	0,034	0,062
-117,380	800,000	0,054	0,114
-116,366	-111,450	-0,173	0,025
-115,351	-41,981	-0,193	-0,071
-114,337	-200,000	-0,008	-0,041
-113,322	315,039	0,074	-0,100
-112,307	-200,000	0,010	0,084
-111,293	11,369	0,088	0,048
-110,278	-135,027	0,018	0,002
-109,264	-200,000	-0,003	-0,028
-108,249	-200,000	-0,023	-0,130
-107,234	48,246	0,041	-0,027
-106,220	63,929	-0,068	-0,049
-105,205	100,154	0,018	0,015
-104,191	-89,723	0,085	0,018
-103,176	126,842	0,101	-0,092
-102,162	-200,000	0,025	-0,142
-101,147	594,357	0,083	-0,148
-100,132	-200,000	0,001	-0,084
-99,118	162,386	-0,072	-0,072
-98,103	-71,131	-0,107	0,029
-97,089	30,500	0,108	0,066
-96,074	-82,523	0,087	0,020
-95,059	-200,000	0,038	0,205
-94,045	-60,821	-0,147	-0,044
-93,030	800,000	-0,044	-0,093
-92,016	-37,515	-0,057	0,022
-91,001	783,193	0,011	-0,021
-89,986	-200,000	-0,027	0,096
-88,972	-200,000	0,010	0,068
-87,957	-117,536	-0,047	-0,006
-86,943	104,263	-0,078	0,066
-85,928	13,697	-0,147	-0,082
-84,913	-135,632	-0,020	-0,002
-83,899	249,544	0,020	0,024
-82,884	-200,000	0,016	0,109
-81,870	113,748	0,066	-0,057
-80,855	-12,367	-0,047	0,022
-79,840	80,226	0,050	-0,039
-78,826	109,215	0,067	-0,058
-77,811	195,251	0,058	-0,063
-76,797	17,200	-0,071	-0,040
-75,782	800,000	0,059	0,142
-74,767	119,844	0,045	0,040
-73,753	-27,992	-0,176	0,073
-72,738	199,650	0,033	-0,036
-71,724	-76,812	-0,171	-0,043
-70,709	234,239	0,131	-0,156
-69,694	228,105	-0,116	-0,136
-68,680	-56,420	0,144	0,046
-67,665	216,033	-0,017	-0,020
-66,651	-200,000	0,020	0,117
-65,636	53,492	-0,103	-0,070
-64,622	202,000	0,036	0,040
-63,607	-200,000	-0,012	-0,121
-62,592	-53,612	0,079	-0,026
-61,578	-200,000	-0,005	0,024
-60,563	478,489	0,038	0,063
-59,549	-200,000	-0,016	0,086
-58,534	7,465	-1,855	-0,991
-57,519	-200,000	-0,174	-0,967
-56,505	-200,000	-1,331	-5,062
-55,490	64,178	0,784	0,565
-54,476	800,000	5,349	12,134
-53,461	-200,000	17,623	282,705
-52,446	800,000	726,974	2210,852
-51,432	532,719	1643,137	2798,935
-50,417	109,679	1634,285	1403,949
-49,403	75,178	1286,362	971,131
-48,388	31,932	1026,970	632,747
-47,373	20,008	988,953	570,068
-46,359	18,303	976,600	557,345
-45,344	15,523	972,751	546,047
-44,330	15,743	971,332	545,945
-43,315	15,304	969,410	543,414
-42,300	15,188	968,336	542,411
-41,286	15,181	967,373	541,830
-40,271	15,186	966,388	541,271
-39,257	15,192	965,521	540,784
-38,242	15,210	964,441	540,216
-37,227	15,163	963,749	539,653
-36,213	15,219	962,744	539,253
-35,198	15,202	961,968	538,741
-34,184	15,276	961,221	538,542
-33,169	15,147	960,271	537,572
-32,154	15,216	959,376	537,269
-31,140	15,272	958,416	536,891
-30,125	15,329	957,692	536,649
-29,111	15,263	957,016	536,035
-28,096	15,195	956,440	535,474
-27,082	15,236	955,557	535,091
-26,067	15,197	955,003	534,634
-25,052	15,255	953,971	534,218
-24,038	15,300	953,327	533,981
-23,023	15,181	952,922	533,353
-22,009	15,183	952,302	532,992
-20,994	15,199	951,705	532,688
-19,979	15,216	950,897	532,267
-18,965	15,231	950,265	531,942
-17,950	15,179	949,809	531,498
-16,936	15,147	949,026	530,939
-15,921	15,203	948,325	530,704
-14,906	15,099	947,540	529,911
-13,892	15,132	946,856	529,614
-12,877	15,115	946,196	529,168
-11,863	15,059	945,733	528,712
-10,848	15,113	945,025	528,464
-9,833	15,256	944,665	528,695
-8,819	15,156	944,152	528,070
-7,804	15,056	943,348	527,285
-6,790	15,100	942,814	527,103
-5,775	15,222	942,085	527,060
-4,760	15,145	941,706	526,584
-3,746	15,133	940,956	526,108
-2,731	15,001	940,169	525,230
-1,717	15,015	939,645	524,960
-0,702	14,969	938,903	524,378
0,313	14,813	938,315	524,352
1,327	18,081	936,290	533,449
2,342	27,372	793,520	476,668
3,356	24,315	457,967	270,420
4,371	-3,029	313,529	156,196
5,386	-7,168	295,299	142,931
6,400	-8,883	289,315	138,326
7,415	-9,451	286,809	136,559
8,429	-9,590	285,211	135,651
9,444	-9,856	284,394	134,992
10,459	-9,727	283,726	134,787
11,473	-9,831	283,097	134,376
12,488	-9,725	282,606	134,233
13,502	-9,892	282,256	133,894
14,517	-9,801	281,553	133,636
15,531	-9,996	281,079	133,212
16,546	-9,851	280,733	133,175
17,561	-9,812	280,326	133,008
18,575	-9,777	280,062	132,904
19,590	-10,045	279,673	132,452
20,604	-10,014	279,314	132,300
21,619	-9,964	278,916	132,147
22,634	-9,816	278,611	132,131
23,648	-10,236	278,445	131,641
24,663	-10,072	278,079	131,613
25,677	-10,197	277,830	131,364
26,692	-9,878	277,417	131,459
27,707	-9,964	277,243	131,283
28,721	-9,988	276,892	131,083
29,736	-10,116	276,705	130,862
30,750	-10,008	276,289	130,755
31,765	-10,094	276,136	130,590
32,780	-9,956	275,886	130,591
33,794	-10,117	275,735	130,356
34,809	-9,963	275,275	130,271
35,823	-10,145	275,222	130,064
36,838	-9,986	274,885	130,042
37,853	-10,191	274,673	129,738
38,867	-10,161	274,394	129,623
39,882	-10,183	274,163	129,482
40,896	-10,065	273,951	129,480
41,911	-10,113	273,808	129,356
42,926	-10,101	273,417	129,172
43,940	-10,363	273,191	128,808
44,955	-10,229	273,082	128,870
45,969	-10,098	272,670	128,787
46,984	-10,223	272,479	128,569
47,999	-10,458	272,196	128,206
49,013	-10,659	272,133	127,979
50,028	-10,606	271,641	127,785
51,042	-10,605	271,357	127,641
52,057	-10,740	271,274	127,465
53,071	-10,722	270,964	127,325
54,086	-10,523	270,889	127,462
55,101	-10,581	270,734	127,324
56,115	-10,202	270,409	127,509
57,130	-10,118	270,409	127,575
58,144	-9,975	270,182	127,588
59,159	-9,832	269,893	127,571
60,174	-9,949	269,691	127,357
61,188	-9,973	269,505	127,236
62,203	-9,834	269,182	127,200
63,217	-9,892	269,032	127,064
64,232	-9,902	268,887	126,976
65,247	-9,848	268,606	126,881
66,261	-9,841	268,259	126,711
67,276	-10,113	268,016	126,337
68,290	-10,278	267,879	126,111
69,305	-10,173	267,646	126,086
70,320	-10,193	267,450	125,964
71,334	-9,940	267,210	126,070
72,349	-9,884	266,938	125,981
73,363	-9,991	266,840	125,826
74,378	-9,669	266,467	125,931
75,393	-9,836	266,345	125,712
76,407	-10,068	266,150	125,398
77,422	-10,085	266,002	125,302
78,436	-9,896	265,653	125,297
79,451	-9,740	265,415	125,314
80,466	-10,041	265,276	124,966
81,480	-10,092	264,890	124,727
82,495	-10,244	264,845	124,558
83,509	-10,047	264,568	124,593
84,524	-10,121	264,420	124,446
85,539	-10,280	264,207	124,192
86,553	-10,207	263,908	124,107
87,568	-10,142	263,730	124,070
88,582	-10,061	263,456	124,002
89,597	-10,187	263,497	123,898
90,611	-10,055	263,178	123,855
91,626	-9,941	262,936	123,831
92,641	-10,012	262,920	123,750
93,655	-9,865	262,465	123,656
94,670	-10,046	262,400	123,453
95,684	-10,153	262,141	123,225
96,699	-9,969	261,937	123,281
97,714	-10,061	261,839	123,142
98,728	-10,173	261,627	122,932
99,743	-10,182	261,304	122,762
100,757	-10,247	261,054	122,576
101,772	-10,084	260,921	122,647
102,787	-10,133	260,730	122,502
103,801	-10,098	260,584	122,454
104,816	-9,998	260,462	122,474
105,830	-9,944	260,322	122,444
106,845	-9,900	260,048	122,344
107,860	-9,750	259,749	122,324
108,874	-9,942	259,711	122,126
109,889	-9,935	259,520	122,032
110,903	-9,983	259,352	121,900
111,918	-10,017	259,056	121,720
112,933	-9,934	258,897	121,707
113,947	-9,688	258,733	121,835
114,962	-9,921	258,562	121,540
115,976	-10,053	258,430	121,351
116,991	-9,888	258,052	121,306
118,006	-9,826	257,910	121,283
119,020	-10,125	257,810	120,965
120,035	-9,839	257,729	121,165
121,049	-9,996	257,640	120,976
122,064	-9,911	257,351	120,903
123,079	-9,956	257,174	120,770
124,093	-9,932	256,799	120,604
125,108	-10,084	256,690	120,410
126,122	-10,302	256,445	120,096
127,137	-10,334	256,086	119,888
128,151	-10,197	255,990	119,952
129,166	-10,271	255,901	119,835
130,181	-10,111	255,613	119,828
131,195	-10,253	255,496	119,640
132,210	-10,146	255,179	119,573
133,224	-9,928	255,189	119,755
134,239	-9,817	255,114	119,805
135,254	-9,882	254,759	119,572
136,268	-9,945	254,487	119,379
137,283	-10,155	254,255	119,079
138,297	-10,245	254,012	118,877
139,312	-10,083	253,738	118,878
140,327	-9,951	253,721	118,972
141,341	-9,812	253,658	119,051
142,356	-9,790	253,566	119,016
143,370	-9,700	253,494	119,049
144,385	-9,593	253,075	118,933
145,400	-9,770	252,877	118,678
146,414	-9,681	252,704	118,663
147,429	-9,920	252,669	118,431
148,443	-9,849	252,386	118,349
149,458	-9,861	252,297	118,286
150,473	-9,724	251,933	118,222
151,487	-9,912	251,782	117,980
152,502	-9,842	251,619	117,953
153,516	-9,613	251,502	118,082
154,531	-9,874	251,323	117,766
155,546	-9,863	251,159	117,688
156,560	-9,752	250,760	117,584
157,575	-10,152	250,644	117,181
158,589	-9,768	250,510	117,433
159,604	-9,735	250,347	117,374
160,619	-9,593	250,137	117,384
161,633	-9,766	250,097	117,209
162,648	-9,728	249,908	117,143
163,662	-9,796	249,780	117,015
164,677	-9,661	249,625	117,045
165,692	-9,740	249,414	116,869
166,706	-9,605	249,271	116,905
167,721	-9,688	248,980	116,688
168,735	-9,671	249,000	116,702
169,750	-9,734	248,841	116,564
170,764	-9,562	248,517	116,546
171,779	-9,674	248,483	116,426
172,794	-9,484	248,230	116,456
173,808	-9,721	247,987	116,134
174,823	-9,987	247,549	115,696
175,837	-10,173	247,419	115,470
176,852	-9,798	247,509	115,815
177,867	-9,606	247,432	115,928
178,881	-9,738	247,277	115,736
179,896	-9,753	247,069	115,615
180,910	-9,659	246,826	115,569
181,925	-9,608	246,685	115,536
182,940	-9,616	246,631	115,493
183,954	-9,693	246,363	115,293
184,969	-9,682	246,223	115,227
185,983	-9,485	246,034	115,291
186,998	-9,511	245,883	115,189
188,013	-9,432	245,625	115,123
189,027	-9,617	245,616	114,956
190,042	-9,409	245,277	114,958
191,056	-9,488	245,258	114,874
192,071	-9,449	245,041	114,794
193,086	-9,556	244,838	114,601
194,100	-9,309	244,607	114,685
195,115	-9,401	244,520	114,559
196,129	-9,452	244,229	114,370
197,144	-9,566	244,079	114,196
198,159	-9,629	243,986	114,091
199,173	-9,800	243,861	113,882
200,188	-9,590	243,631	113,937
201,202	-9,747	243,361	113,671
202,217	-9,939	243,199	113,429
203,232	-10,161	242,846	113,073
204,246	-9,770	242,963	113,437
205,261	-8,784	242,781	114,146
206,275	-9,712	242,724	113,352
207,290	-7,654	243,262	115,275
208,304	-2,509	244,891	120,259
209,319	0,637	245,758	123,258
210,334	1,118	245,612	123,569
211,348	1,114	245,578	123,537
212,363	1,366	245,681	123,784
213,377	1,770	245,470	123,998
214,392	1,593	245,529	123,872
215,407	1,579	245,290	123,728
216,421	1,740	244,863	123,634
217,436	1,728	244,870	123,616
218,450	1,726	244,797	123,567
219,465	1,507	244,538	123,246
220,480	1,544	244,220	123,106
221,494	1,689	244,202	123,204
222,509	1,647	244,065	123,089
223,523	1,750	243,838	123,048
224,538	1,607	243,578	122,790
225,553	1,472	243,518	122,638
226,567	1,484	243,472	122,613
227,582	1,675	243,370	122,707
228,596	1,854	243,044	122,676
229,611	1,530	242,924	122,343
230,626	1,457	242,694	122,157
231,640	1,594	242,515	122,166
232,655	1,723	242,582	122,294
233,669	1,620	242,097	121,955
234,684	1,490	242,093	121,837
235,699	1,759	242,112	122,053
236,713	1,905	241,813	122,009
237,728	1,564	241,636	121,634
238,742	1,576	241,417	121,523
239,757	1,517	241,221	121,366
240,772	1,464	241,222	121,313
241,786	1,652	241,007	121,345
242,801	1,232	240,719	120,852
243,815	1,196	240,570	120,738
244,830	1,397	240,515	120,861
245,844	1,652	240,466	121,029
246,859	1,596	240,104	120,792
247,874	1,781	239,971	120,862
248,888	1,529	239,900	120,614
249,903	1,701	239,758	120,669
250,917	1,891	239,823	120,843
251,932	1,934	239,675	120,791
252,947	1,681	239,303	120,392
253,961	1,407	239,022	120,022
254,976	1,469	238,930	120,014
255,990	1,854	238,906	120,297
257,005	1,474	238,535	119,799
258,020	1,335	238,457	119,639
259,034	1,271	238,201	119,449
260,049	1,519	238,128	119,598
261,063	1,463	238,086	119,521
262,078	1,403	237,788	119,314
263,093	1,495	237,780	119,372
264,107	1,828	237,545	119,506
265,122	1,538	237,406	119,197
266,136	1,722	237,283	119,269
267,151	2,005	237,082	119,380
268,166	1,595	236,990	119,001
269,180	1,485	236,765	118,791
270,195	2,117	236,702	119,246
271,209	2,019	236,724	119,169
272,224	1,600	236,300	118,616
273,239	1,242	236,090	118,220
274,253	1,479	236,029	118,365
275,268	1,806	235,890	118,540
276,282	1,691	235,656	118,322
277,297	1,569	235,565	118,171
278,312	1,547	235,327	118,024
279,326	1,647	235,218	118,036
280,341	1,771	235,106	118,066
281,355	1,669	235,068	117,957
282,370	1,966	234,848	118,067
283,384	1,672	234,708	117,758
284,399	1,536	234,537	117,555
285,414	1,315	234,324	117,266
286,428	1,596	234,334	117,479
287,443	1,749	234,161	117,501
288,457	2,053	233,972	117,632
289,472	1,959	233,821	117,472
290,487	1,587	233,721	117,123
291,501	1,246	233,390	116,683
292,516	1,168	233,184	116,510
293,530	1,254	233,057	116,502
294,545	1,676	233,020	116,799
295,560	1,566	232,958	116,672
296,574	1,202	232,578	116,192
297,589	1,336	232,462	116,227
298,603	1,655	232,475	116,468
299,618	1,910	232,449	116,641
300,633	1,890	232,334	116,557
301,647	1,826	232,406	116,534
302,662	2,355	232,161	116,807
303,676	2,356	231,838	116,635
304,691	2,009	231,949	116,414
305,706	2,099	231,662	116,328
306,720	2,022	231,474	116,165
307,735	1,675	231,362	115,833
308,749	1,654	231,095	115,673
309,764	1,464	230,829	115,384
310,779	1,582	230,574	115,336
311,793	1,461	230,511	115,202
312,808	1,331	230,443	115,059
313,822	1,335	230,216	114,938
314,837	1,348	229,945	114,803
315,852	1,462	229,820	114,816
316,866	1,656	229,665	114,877
317,881	1,889	229,603	115,012
318,895	2,225	229,526	115,217
319,910	2,166	229,600	115,200
320,925	1,761	229,322	114,744
321,939	1,711	229,018	114,543
322,954	1,957	229,004	114,713
323,968	1,942	228,977	114,677
324,983	2,003	228,632	114,540
325,997	1,941	228,657	114,496
327,012	1,672	228,407	114,158
328,027	1,567	228,161	113,945
329,041	1,984	227,992	114,164
330,056	2,504	227,938	114,518
331,070	2,421	227,941	114,447
332,085	2,367	227,670	114,260
333,100	2,247	227,523	114,087
334,114	2,030	227,459	113,881
335,129	2,130	227,245	113,839
336,143	2,096	227,080	113,720
337,158	1,903	227,016	113,534
338,173	1,983	226,941	113,546
339,187	1,897	226,791	113,397
340,202	2,114	226,521	113,414
341,216	1,946	226,478	113,257
342,231	1,877	226,251	113,082
343,246	2,089	226,247	113,227
344,260	2,077	226,053	113,112
345,275	2,180	225,999	113,151
346,289	2,092	225,837	112,995
347,304	2,219	225,799	113,060
348,319	2,196	225,594	112,929
349,333	2,146	225,261	112,716
350,348	1,986	225,142	112,528
351,362	1,902	225,066	112,417
352,377	1,828	224,849	112,244
353,392	1,723	224,664	112,064
354,406	1,963	224,582	112,191
355,421	196,757	1320,388	1399,302
356,435	157,722	1453,896	1399,288
