DTS Sentinel unit serial number:	SN410029Multiplexer serial number:	ORYXHardware model number:	OX2-SRSoftware version number:	ORYX F/W v4,00 Oryx Data Collector v3.7.2.0data status	okinstallation	B5 Nyhavnadifferential loss correction	single-endedforward channel	channel 2reverse channel	N/Adate	2023/12/11time	14:47:13forward acquisition time	300,00reverse acquisition time	0,00gamma	499,1914k internal	0,3167k external	0,3167temperature offset calibration	1,0000default loss term (dB/km)	0,3820temperature slope calibration	1,0000multiplexer offset coefficient	1,0000multiplexer slope coefficient	1,0000fibre end	0,00T internal ref (°C)	12,82T ext. ref 1 (°C)	-1,83T ext. ref 2 (°C)	-1,84length (m)	temperature (°C)	Stokes	anti-Stokes-744,400	-200,000	0,012	0,088
-743,385	-159,460	-0,324	-0,013
-742,371	-115,856	0,077	-0,010
-741,356	25,609	-0,226	-0,138
-740,342	-76,014	0,153	-0,039
-739,327	-2,017	-0,324	-0,167
-738,312	-116,108	0,116	-0,016
-737,298	-107,544	-0,377	-0,060
-736,283	3,757	0,162	0,087
-735,269	15,670	-0,261	-0,150
-734,254	-200,000	0,091	-0,000
-733,239	-4,701	-0,438	-0,221
-732,225	624,425	0,051	0,094
-731,210	-200,000	-0,053	0,216
-730,196	-200,000	-0,003	0,077
-729,181	304,668	-0,031	-0,042
-728,167	-200,000	-0,001	-0,018
-727,152	-200,000	0,007	0,074
-726,137	-101,191	-0,057	-0,010
-725,123	-106,100	-0,019	-0,003
-724,108	-5,163	-0,127	-0,064
-723,094	171,873	-0,135	-0,142
-722,079	87,872	0,054	-0,044
-721,064	297,505	0,084	0,114
-720,050	800,000	-0,040	0,085
-719,035	20,394	0,055	-0,033
-718,021	-200,000	-0,063	-0,265
-717,006	800,000	-0,016	-0,033
-715,991	-200,000	-0,009	-0,043
-714,977	-200,000	-0,010	-0,132
-713,962	-133,447	-0,034	0,003
-712,948	-69,317	-0,098	-0,028
-711,933	-156,029	-0,174	-0,008
-710,918	232,744	-0,061	-0,073
-709,904	-70,342	-0,157	-0,043
-708,889	2,751	-0,210	-0,112
-707,875	800,000	-0,017	-0,054
-706,860	-200,000	0,004	0,164
-705,845	184,790	0,083	-0,090
-704,831	-109,116	0,142	-0,022
-703,816	95,963	-0,104	-0,087
-702,802	143,056	-0,111	0,109
-701,787	-200,000	-0,035	-0,128
-700,772	-200,000	0,019	-0,149
-699,758	224,397	-0,062	0,074
-698,743	-200,000	-0,020	-0,087
-697,729	800,000	-0,040	-0,129
-696,714	155,230	-0,044	-0,045
-695,699	800,000	0,021	-0,047
-694,685	64,905	-0,133	-0,098
-693,670	-200,000	0,005	-0,143
-692,656	-34,108	0,026	0,010
-691,641	156,071	-0,106	0,108
-690,627	-200,000	0,012	-0,048
-689,612	105,609	0,034	-0,030
-688,597	-152,533	0,045	-0,002
-687,583	-137,725	0,026	0,002
-686,568	-200,000	-0,001	0,024
-685,554	-53,354	0,096	-0,032
-684,539	178,196	0,070	-0,075
-683,524	-200,000	-0,030	-0,145
-682,510	100,673	-0,070	0,060
-681,495	-200,000	0,006	-0,037
-680,481	-8,099	-0,090	0,045
-679,466	-123,259	-0,086	-0,010
-678,451	525,663	-0,061	-0,106
-677,437	80,573	-0,072	-0,056
-676,422	430,341	-0,033	0,053
-675,408	59,568	-0,082	-0,059
-674,393	-135,184	0,060	0,005
-673,378	-38,485	0,082	-0,032
-672,364	-200,000	-0,015	-0,147
-671,349	728,815	-0,054	-0,106
-670,335	800,000	0,062	0,166
-669,320	-200,000	-0,017	-0,152
-668,305	-200,000	-0,006	-0,070
-667,291	-189,388	0,069	0,001
-666,276	388,816	-0,031	-0,048
-665,262	45,579	-0,185	-0,125
-664,247	-15,027	0,027	0,012
-663,232	308,481	0,100	-0,137
-662,218	713,374	-0,025	-0,048
-661,203	-11,221	0,055	0,026
-660,189	189,092	-0,096	0,106
-659,174	49,024	0,057	0,039
-658,159	450,193	-0,043	-0,070
-657,145	190,138	-0,090	0,099
-656,130	679,611	0,071	0,136
-655,116	203,563	0,047	0,053
-654,101	800,000	-0,051	0,104
-653,086	-54,379	0,113	-0,037
-652,072	-145,600	-0,105	-0,007
-651,057	-200,000	0,001	0,031
-650,043	225,141	-0,066	-0,079
-649,028	133,189	0,046	0,043
-648,014	800,000	0,023	0,068
-646,999	25,622	0,092	-0,056
-645,984	-200,000	0,011	-0,062
-644,970	330,512	0,038	0,053
-643,955	-200,000	0,003	-0,031
-642,941	800,000	-0,029	-0,084
-641,926	-200,000	-0,011	0,100
-640,911	-117,418	0,149	0,019
-639,897	-15,016	-0,117	0,055
-638,882	302,675	0,094	0,128
-637,868	5,082	-0,135	0,072
-636,853	-22,745	-0,166	0,073
-635,838	800,000	0,037	-0,086
-634,824	63,690	0,080	-0,059
-633,809	-86,803	0,128	0,028
-632,795	800,000	-0,013	0,030
-631,780	444,749	0,034	0,055
-630,765	800,000	-0,068	0,146
-629,751	585,033	0,056	0,100
-628,736	55,461	-0,055	0,039
-627,722	241,096	0,028	-0,034
-626,707	266,616	0,052	-0,067
-625,692	-102,891	0,054	-0,009
-624,678	-200,000	0,001	-0,070
-623,663	-66,240	0,081	0,023
-622,649	108,112	-0,037	-0,032
-621,634	800,000	-0,020	-0,043
-620,619	-173,190	0,028	-0,001
-619,605	-94,136	-0,067	-0,013
-618,590	-48,593	0,117	0,041
-617,576	-83,733	0,214	0,049
-616,561	-200,000	0,010	0,036
-615,546	123,559	-0,139	-0,127
-614,532	-51,674	-0,094	-0,032
-613,517	-22,111	-0,035	-0,015
-612,503	-200,000	0,004	0,026
-611,488	342,363	-0,037	-0,052
-610,474	-200,000	0,002	0,110
-609,459	-200,000	0,010	0,082
-608,444	-82,527	-0,079	0,019
-607,430	-178,643	-0,018	-0,000
-606,415	171,772	-0,050	-0,052
-605,401	-125,146	-0,072	0,008
-604,386	-98,242	0,104	-0,019
-603,371	93,602	0,049	0,041
-602,357	-200,000	0,033	-0,151
-601,342	28,726	-0,115	-0,071
-600,328	42,860	-0,052	0,034
-599,313	-200,000	-0,006	-0,040
-598,298	-200,000	-0,030	0,111
-597,284	10,899	0,090	-0,050
-596,269	-45,184	0,114	-0,041
-595,255	356,626	-0,018	-0,026
-594,240	-112,558	-0,036	0,005
-593,225	-97,369	-0,058	0,011
-592,211	-200,000	-0,048	-0,167
-591,196	95,264	-0,071	-0,059
-590,182	502,391	-0,027	0,046
-589,167	-42,817	-0,164	0,061
-588,152	196,960	0,075	-0,083
-587,138	-149,683	-0,015	-0,001
-586,123	-200,000	-0,011	0,078
-585,109	-200,000	-0,006	0,105
-584,094	168,464	0,056	0,058
-583,079	-115,208	-0,128	-0,018
-582,065	-200,000	-0,039	0,138
-581,050	-59,540	0,049	0,015
-580,036	800,000	-0,063	-0,154
-579,021	800,000	-0,034	-0,088
-578,006	141,979	0,033	0,032
-576,992	-200,000	-0,007	-0,094
-575,977	-32,142	-0,055	0,022
-574,963	-10,497	0,072	0,034
-573,948	210,203	0,069	0,079
-572,934	-200,000	-0,001	-0,066
-571,919	-6,044	-0,032	0,016
-570,904	-15,778	-0,050	0,023
-569,890	-200,000	-0,017	-0,126
-568,875	57,619	-0,048	0,034
-567,861	131,429	0,015	0,014
-566,846	192,033	-0,048	-0,053
-565,831	185,608	0,026	0,028
-564,817	-200,000	0,014	-0,156
-563,802	-200,000	0,012	0,053
-562,788	-101,042	0,123	0,022
-561,773	181,930	0,072	-0,078
-560,758	-200,000	0,001	0,023
-559,744	159,721	0,047	0,048
-558,729	123,593	0,114	-0,104
-557,715	-76,542	-0,112	0,028
-556,700	800,000	0,005	-0,010
-555,685	-20,022	-0,034	0,015
-554,671	-200,000	-0,001	-0,024
-553,656	-133,736	0,097	0,009
-552,642	124,780	0,058	0,053
-551,627	-200,000	0,037	-0,130
-550,612	800,000	0,043	0,088
-549,598	133,210	-0,050	-0,047
-548,583	-118,833	0,076	0,010
-547,569	39,815	0,092	-0,060
-546,554	-171,759	-0,104	-0,002
-545,539	698,451	0,042	0,080
-544,525	-126,071	0,099	-0,011
-543,510	-200,000	0,010	-0,109
-542,496	375,499	0,021	-0,032
-541,481	71,929	-0,076	-0,058
-540,466	800,000	-0,048	0,100
-539,452	-93,132	0,161	-0,032
-538,437	356,603	0,059	0,087
-537,423	220,212	-0,069	0,081
-536,408	-24,947	0,109	-0,047
-535,393	800,000	-0,016	-0,051
-534,379	646,798	0,026	0,048
-533,364	800,000	-0,046	-0,112
-532,350	800,000	0,063	-0,187
-531,335	178,750	-0,034	0,037
-530,321	800,000	-0,045	-0,105
-529,306	278,956	-0,058	-0,075
-528,291	774,997	0,045	-0,090
-527,277	204,860	-0,055	-0,062
-526,262	-200,000	0,021	0,100
-525,248	-200,000	-0,015	0,111
-524,233	5,396	0,115	0,062
-523,218	-35,258	-0,052	-0,021
-522,204	-157,051	0,091	-0,004
-521,189	-200,000	0,004	-0,086
-520,175	-200,000	0,005	0,094
-519,160	148,707	-0,062	-0,061
-518,145	-200,000	0,011	0,093
-517,131	-96,513	0,143	0,027
-516,116	-73,959	-0,070	-0,018
-515,102	800,000	-0,020	-0,052
-514,087	319,387	0,050	-0,070
-513,072	-113,443	0,038	-0,005
-512,058	-69,643	0,051	-0,014
-511,043	384,659	-0,029	0,044
-510,029	244,768	0,091	0,111
-509,014	84,938	0,155	0,123
-507,999	160,515	0,055	0,056
-506,985	800,000	0,044	-0,114
-505,970	-147,656	-0,059	-0,004
-504,956	-57,812	-0,052	-0,016
-503,941	147,537	0,100	0,099
-502,926	-200,000	0,029	0,099
-501,912	-30,450	-0,157	-0,064
-500,897	-200,000	-0,042	-0,151
-499,883	-88,480	-0,108	0,023
-498,868	143,838	0,098	-0,095
-497,853	350,234	-0,124	-0,179
-496,839	210,070	0,043	0,049
-495,824	-200,000	-0,002	0,026
-494,810	-200,000	0,006	-0,031
-493,795	-25,199	0,039	0,017
-492,781	636,482	-0,058	-0,109
-491,766	40,172	-0,105	-0,068
-490,751	51,117	-0,038	-0,026
-489,737	718,734	-0,003	0,006
-488,722	60,806	0,006	-0,005
-487,708	-192,067	0,201	-0,001
-486,693	-86,881	-0,032	-0,007
-485,678	-94,999	-0,111	0,022
-484,664	-107,124	-0,072	-0,011
-483,649	-14,114	-0,127	0,059
-482,635	130,451	0,063	0,059
-481,620	28,818	-0,098	-0,060
-480,605	-200,000	0,005	-0,039
-479,591	13,930	0,053	0,030
-478,576	-102,021	-0,053	-0,009
-477,562	-200,000	0,003	-0,037
-476,547	91,178	-0,132	-0,108
-475,532	129,187	0,048	-0,045
-474,518	-14,268	0,087	0,041
-473,503	469,063	0,019	-0,032
-472,489	780,829	-0,007	0,014
-471,474	104,524	-0,059	-0,051
-470,459	800,000	0,022	0,046
-469,445	-200,000	0,031	0,176
-468,430	149,894	-0,060	-0,060
-467,416	-22,240	0,061	0,027
-466,401	227,621	0,118	0,139
-465,386	25,435	0,053	0,032
-464,372	178,665	-0,009	0,009
-463,357	167,926	0,062	-0,064
-462,343	78,041	-0,101	-0,079
-461,328	154,097	-0,057	0,057
-460,313	-30,437	-0,160	0,065
-459,299	-200,000	-0,004	-0,062
-458,284	219,079	-0,036	-0,042
-457,270	-122,916	0,072	-0,008
-456,255	378,022	0,031	-0,046
-455,241	-139,471	-0,092	-0,007
-454,226	88,867	-0,044	-0,036
-453,211	-8,428	0,012	0,006
-452,197	27,044	0,080	0,049
-451,182	387,341	0,062	0,094
-450,168	-200,000	0,019	0,089
-449,153	800,000	0,004	0,012
-448,138	-85,594	0,183	0,041
-447,124	800,000	-0,053	-0,152
-446,109	-154,711	0,127	-0,006
-445,095	123,814	0,089	0,081
-444,080	-200,000	-0,018	0,122
-443,065	-111,542	0,042	0,006
-442,051	-90,196	-0,071	0,015
-441,036	-71,126	-0,045	0,012
-440,022	-36,249	0,060	0,024
-439,007	39,245	0,093	-0,060
-437,992	-167,278	0,063	-0,002
-436,978	-15,329	0,094	0,043
-435,963	24,918	0,187	0,113
-434,949	52,207	-0,070	0,048
-433,934	-96,271	-0,108	0,021
-432,919	-68,957	-0,089	0,025
-431,905	-39,418	0,067	0,025
-430,890	-35,562	0,113	-0,044
-429,876	364,672	0,018	-0,026
-428,861	726,182	0,061	0,118
-427,846	-200,000	0,026	-0,087
-426,832	-85,547	-0,113	0,025
-425,817	-90,551	-0,016	-0,003
-424,803	800,000	-0,035	-0,106
-423,788	-200,000	-0,003	-0,085
-422,773	352,515	-0,060	-0,087
-421,759	91,216	0,018	-0,015
-420,744	345,684	0,079	0,113
-419,730	800,000	-0,036	0,086
-418,715	-143,031	-0,101	-0,007
-417,701	-200,000	0,003	0,069
-416,686	-200,000	0,044	0,165
-415,671	102,375	0,083	0,070
-414,657	-200,000	-0,029	0,100
-413,642	433,494	-0,083	-0,132
-412,628	800,000	0,026	-0,081
-411,613	-200,000	0,026	-0,230
-410,598	800,000	-0,048	0,129
-409,584	217,314	0,052	0,061
-408,569	800,000	-0,016	-0,033
-407,555	38,133	-0,051	0,033
-406,540	589,904	0,031	0,055
-405,525	105,278	0,025	-0,021
-404,511	-109,184	0,072	-0,011
-403,496	-94,195	-0,072	0,014
-402,482	303,086	-0,035	0,048
-401,467	800,000	-0,033	0,069
-400,452	-56,490	-0,062	0,020
-399,438	37,133	-0,106	-0,068
-398,423	347,891	0,104	-0,149
-397,409	97,792	-0,021	-0,018
-396,394	317,871	-0,065	-0,090
-395,379	562,467	-0,073	-0,128
-394,365	-200,000	0,007	-0,045
-393,350	83,425	-0,134	-0,106
-392,336	-155,973	-0,178	0,008
-391,321	266,356	-0,050	-0,063
-390,306	-183,742	-0,075	0,001
-389,292	-51,480	-0,127	-0,043
-388,277	599,234	-0,023	0,042
-387,263	-54,148	-0,020	0,007
-386,248	-125,818	0,062	-0,007
-385,233	328,115	0,088	0,122
-384,219	-23,186	-0,136	-0,059
-383,204	-153,653	0,122	0,006
-382,190	-100,355	0,024	0,004
-381,175	800,000	0,024	-0,070
-380,160	536,890	0,082	0,142
-379,146	-50,888	0,130	0,044
-378,131	516,631	0,020	0,035
-377,117	-96,118	0,059	-0,011
-376,102	-200,000	0,002	-0,057
-375,088	-120,517	-0,096	-0,012
-374,073	-81,031	-0,069	-0,016
-373,058	-200,000	0,014	0,078
-372,044	145,259	-0,116	0,113
-371,029	-200,000	-0,001	-0,036
-370,015	-42,993	0,077	0,028
-369,000	-141,083	0,053	-0,004
-367,985	127,041	0,061	-0,056
-366,971	800,000	-0,071	0,144
-365,956	59,798	0,029	0,021
-364,942	-2,523	-0,111	0,056
-363,927	800,000	-0,019	-0,041
-362,912	35,006	0,040	-0,025
-361,898	-48,753	0,068	-0,024
-360,883	74,050	-0,062	-0,047
-359,869	-92,793	-0,115	0,023
-358,854	-99,757	0,146	-0,026
-357,839	611,301	0,060	0,110
-356,825	-72,594	0,136	0,036
-355,810	-164,678	-0,038	0,001
-354,796	800,000	0,024	-0,066
-353,781	122,878	-0,063	-0,057
-352,766	351,721	-0,139	0,200
-351,752	120,236	-0,070	-0,063
-350,737	70,751	0,052	-0,039
-349,723	800,000	-0,054	0,122
-348,708	704,428	0,018	0,034
-347,693	-36,277	0,134	0,052
-346,679	-29,782	-0,088	0,036
-345,664	-200,000	0,004	0,040
-344,650	-80,715	0,066	0,016
-343,635	800,000	-0,059	0,125
-342,620	800,000	0,043	0,131
-341,606	-200,000	-0,016	0,146
-340,591	-63,898	-0,083	-0,024
-339,577	362,930	0,075	-0,110
-338,562	-20,685	0,129	-0,057
-337,548	-57,372	0,167	0,053
-336,533	-200,000	0,001	-0,080
-335,518	-54,531	0,073	-0,024
-334,504	800,000	0,028	0,064
-333,489	234,593	-0,056	0,067
-332,475	218,215	-0,074	0,086
-331,460	158,559	-0,086	0,086
-330,445	-74,453	-0,021	0,006
-329,431	-200,000	-0,015	0,132
-328,416	-127,476	0,127	-0,013
-327,402	-200,000	0,014	0,053
-326,387	-32,695	-0,096	0,038
-325,372	393,775	-0,048	0,072
-324,358	29,586	-0,028	0,017
-323,343	104,441	-0,059	-0,051
-322,329	-127,993	0,101	0,010
-321,314	800,000	-0,052	0,107
-320,299	8,282	0,041	0,022
-319,285	800,000	-0,034	0,089
-318,270	-123,200	0,031	-0,004
-317,256	-111,807	-0,050	0,007
-316,241	-15,880	-0,088	0,040
-315,226	-75,249	-0,163	-0,042
-314,212	-105,354	0,109	-0,018
-313,197	-34,196	0,039	-0,015
-312,183	163,855	0,050	0,051
-311,168	118,449	0,034	-0,030
-310,153	-3,786	-0,085	-0,042
-309,139	17,894	0,099	-0,057
-308,124	483,573	-0,046	-0,076
-307,110	624,263	0,050	-0,092
-306,095	65,379	-0,123	0,090
-305,080	105,964	0,081	0,070
-304,066	462,243	0,025	-0,040
-303,051	41,192	0,148	-0,097
-302,037	-17,016	0,038	0,017
-301,022	734,599	-0,073	-0,143
-300,008	273,329	0,052	-0,066
-298,993	348,441	-0,056	0,080
-297,978	-200,000	-0,027	0,114
-296,964	800,000	-0,046	-0,131
-295,949	238,889	-0,018	0,022
-294,935	-200,000	-0,035	-0,134
-293,920	289,892	-0,089	0,117
-292,905	-12,149	0,164	0,077
-291,891	-49,292	0,069	-0,024
-290,876	-200,000	-0,002	-0,062
-289,862	-200,000	0,001	-0,076
-288,847	-200,000	0,001	-0,047
-287,832	32,001	-0,116	0,072
-286,818	800,000	0,040	0,088
-285,803	34,428	-0,042	0,027
-284,789	-2,147	-0,040	-0,020
-283,774	15,985	-0,131	0,074
-282,759	-5,649	0,118	0,058
-281,745	605,049	0,016	0,028
-280,730	800,000	-0,065	-0,156
-279,716	374,973	-0,051	-0,075
-278,701	-200,000	-0,004	0,126
-277,686	436,396	0,058	0,091
-276,672	77,041	0,080	0,061
-275,657	800,000	-0,029	-0,064
-274,643	800,000	0,073	-0,170
-273,628	-200,000	-0,004	-0,125
-272,613	51,864	-0,073	-0,050
-271,599	-200,000	-0,015	0,093
-270,584	800,000	0,053	0,115
-269,570	396,698	0,027	0,041
-268,555	134,476	-0,059	-0,055
-267,540	213,019	0,049	-0,056
-266,526	-200,000	-0,009	0,046
-265,511	-116,728	-0,098	-0,013
-264,497	-200,000	0,051	0,163
-263,482	21,956	0,059	0,035
-262,467	220,232	0,027	-0,031
-261,453	-155,483	0,096	-0,004
-260,438	-200,000	-0,010	-0,127
-259,424	273,253	-0,124	-0,159
-258,409	800,000	-0,023	-0,055
-257,395	180,617	-0,169	-0,179
-256,380	-200,000	0,002	-0,030
-255,365	372,771	-0,011	0,016
-254,351	-52,400	0,108	-0,036
-253,336	-200,000	-0,017	-0,067
-252,322	506,856	-0,046	-0,078
-251,307	-141,555	-0,131	-0,009
-250,292	-100,840	-0,111	0,019
-249,278	1,662	0,112	-0,058
-248,263	-200,000	0,028	0,156
-247,249	399,324	0,007	0,011
-246,234	-53,125	0,022	0,007
-245,219	-119,881	0,113	-0,014
-244,205	120,723	0,115	0,103
-243,190	-84,839	0,121	-0,027
-242,176	-200,000	0,009	-0,106
-241,161	-143,495	0,121	-0,008
-240,146	578,880	-0,043	0,077
-239,132	91,958	-0,119	-0,097
-238,117	-200,000	0,016	-0,081
-237,103	-9,444	0,055	0,026
-236,088	309,533	0,028	-0,038
-235,073	542,676	0,048	0,083
-234,059	-71,962	0,028	0,007
-233,044	-200,000	0,010	0,042
-232,030	-200,000	-0,124	-0,000
-231,015	-200,000	-0,009	0,044
-230,000	-200,000	-0,006	-0,115
-228,986	-200,000	0,017	-0,094
-227,971	-165,966	0,044	0,001
-226,957	117,726	0,052	-0,046
-225,942	65,435	0,046	-0,033
-224,927	-38,825	-0,062	0,023
-223,913	599,501	-0,058	-0,104
-222,898	-131,922	-0,087	-0,008
-221,884	-200,000	0,026	0,085
-220,869	-83,016	0,087	0,020
-219,855	37,448	-0,053	0,034
-218,840	-137,562	-0,126	-0,010
-217,825	-200,000	-0,006	0,043
-216,811	-200,000	-0,005	0,147
-215,796	-36,807	-0,064	0,024
-214,782	-100,703	-0,110	-0,019
-213,767	-200,000	-0,022	-0,144
-212,752	117,484	0,078	-0,069
-211,738	-200,000	0,002	0,103
-210,723	-171,684	0,076	0,002
-209,709	-109,468	-0,056	-0,008
-208,694	-200,000	-0,004	-0,020
-207,679	12,652	-0,106	0,059
-206,665	-65,858	-0,090	-0,026
-205,650	-200,000	0,006	-0,050
-204,636	26,931	-0,041	0,025
-203,621	-102,580	0,163	0,028
-202,606	-170,972	-0,075	-0,002
-201,592	13,848	-0,098	-0,055
-200,577	800,000	-0,039	0,115
-199,563	233,647	0,070	0,083
-198,548	-12,397	-0,138	-0,065
-197,533	173,441	-0,048	-0,050
-196,519	-2,293	0,067	0,034
-195,504	-16,466	-0,028	0,013
-194,490	413,635	0,059	0,091
-193,475	-0,567	0,090	-0,046
-192,460	204,347	0,045	-0,051
-191,446	-183,438	-0,050	-0,001
-190,431	-87,106	-0,025	0,005
-189,417	800,000	0,066	0,139
-188,402	-12,840	-0,076	-0,035
-187,387	-84,296	0,078	-0,018
-186,373	800,000	-0,033	-0,071
-185,358	-200,000	0,017	-0,111
-184,344	-200,000	0,033	0,121
-183,329	-200,000	0,019	0,118
-182,315	800,000	-0,055	0,147
-181,300	-200,000	-0,010	-0,054
-180,285	711,205	0,026	0,050
-179,271	800,000	-0,047	0,127
-178,256	-50,793	-0,060	-0,020
-177,242	800,000	0,024	-0,070
-176,227	-200,000	-0,001	0,017
-175,212	-200,000	0,023	-0,107
-174,198	-31,477	-0,040	0,016
-173,183	302,280	-0,112	-0,149
-172,169	-185,730	-0,126	0,001
-171,154	226,934	-0,096	-0,112
-170,139	544,801	0,074	0,128
-169,125	-72,875	0,089	-0,023
-168,110	125,247	0,056	0,051
-167,096	-200,000	-0,001	-0,007
-166,081	-51,797	0,053	0,018
-165,066	-20,503	-0,124	-0,055
-164,052	-131,583	-0,062	0,006
-163,037	-180,256	0,076	0,001
-162,023	-200,000	-0,005	-0,017
-161,008	319,270	-0,024	0,033
-159,993	800,000	0,034	-0,100
-158,979	88,572	-0,082	-0,066
-157,964	-64,510	0,109	0,031
-156,950	-200,000	-0,039	-0,144
-155,935	-200,000	0,006	-0,086
-154,920	-77,737	-0,024	0,006
-153,906	-200,000	0,010	-0,040
-152,891	108,683	0,019	0,016
-151,877	-23,452	0,058	0,025
-150,862	800,000	0,042	-0,097
-149,847	-200,000	0,025	-0,104
-148,833	-40,831	-0,049	0,018
-147,818	-147,431	0,165	0,010
-146,804	-148,056	0,040	-0,002
-145,789	-200,000	-0,004	0,109
-144,775	604,739	-0,030	0,055
-143,760	-200,000	-0,016	0,076
-142,745	-200,000	-0,009	-0,160
-141,731	-77,469	0,065	0,016
-140,716	-200,000	0,009	-0,084
-139,702	-124,436	0,131	0,015
-138,687	-184,354	0,129	-0,001
-137,672	-142,218	-0,052	-0,004
-136,658	286,445	-0,099	-0,129
-135,643	-200,000	0,019	-0,084
-134,629	800,000	0,022	0,048
-133,614	-8,223	0,077	-0,037
-132,599	-132,791	0,039	0,003
-131,585	411,181	0,020	0,030
-130,570	8,855	-0,031	-0,017
-129,556	-188,597	0,041	0,000
-128,541	-200,000	0,000	-0,062
-127,526	-97,022	0,018	-0,003
-126,512	800,000	-0,012	0,024
-125,497	-200,000	-0,005	-0,021
-124,483	348,108	0,099	-0,140
-123,468	-200,000	0,009	0,036
-122,453	-200,000	-0,009	-0,063
-121,439	28,105	0,074	-0,045
-120,424	-44,970	-0,080	-0,028
-119,410	3,460	0,017	-0,009
-118,395	11,800	0,036	0,020
-117,380	139,346	-0,071	-0,067
-116,366	111,217	-0,107	-0,093
-115,351	-112,337	-0,163	-0,023
-114,337	-200,000	0,036	-0,117
-113,322	255,855	0,047	-0,058
-112,307	213,970	0,066	-0,075
-111,293	-47,212	0,117	-0,041
-110,278	800,000	0,034	-0,091
-109,264	-2,633	-0,075	-0,037
-108,249	63,396	-0,154	-0,111
-107,234	-200,000	0,005	0,084
-106,220	-200,000	0,004	0,027
-105,205	32,233	-0,163	-0,101
-104,191	-91,011	0,133	0,027
-103,176	31,693	0,078	0,048
-102,162	800,000	-0,009	-0,021
-101,147	313,217	-0,078	-0,106
-100,132	217,945	0,021	-0,024
-99,118	14,527	-0,090	-0,050
-98,103	451,497	0,040	-0,063
-97,089	70,472	0,101	0,075
-96,074	-127,923	0,142	0,014
-95,059	-11,301	-0,069	-0,032
-94,045	-200,000	0,007	-0,128
-93,030	800,000	-0,046	-0,112
-92,016	-200,000	0,013	-0,123
-91,001	553,061	0,085	-0,147
-89,986	189,054	0,045	-0,049
-88,972	-116,838	0,055	-0,007
-87,957	52,166	0,061	-0,042
-86,943	310,188	-0,001	-0,002
-85,928	151,883	0,006	0,006
-84,913	-200,000	0,009	-0,102
-83,899	-15,682	0,070	-0,032
-82,884	-60,535	0,083	0,025
-81,870	-200,000	0,011	0,146
-80,855	-200,000	-0,004	0,037
-79,840	800,000	-0,006	0,013
-78,826	496,029	-0,050	-0,083
-77,811	69,609	0,092	-0,067
-76,797	-200,000	-0,011	-0,036
-75,782	88,689	0,066	-0,053
-74,767	-118,178	0,099	0,012
-73,753	-200,000	0,023	-0,110
-72,738	-77,151	-0,101	0,025
-71,724	-132,885	-0,099	-0,009
-70,709	-129,634	0,053	-0,005
-69,694	-200,000	-0,007	0,071
-68,680	265,711	0,056	-0,070
-67,665	252,660	0,072	-0,088
-66,651	-113,497	-0,071	-0,010
-65,636	-200,000	-0,008	-0,116
-64,622	199,225	-0,087	-0,096
-63,607	-52,747	-0,129	-0,042
-62,592	100,829	0,063	0,053
-61,578	800,000	0,023	0,045
-60,563	172,907	-0,032	-0,033
-59,549	32,236	-0,111	0,068
-58,534	32,530	-2,259	-1,394
-57,519	-200,000	0,080	-0,776
-56,505	-200,000	-1,430	-5,257
-55,490	83,545	0,929	0,724
-54,476	800,000	5,361	12,115
-53,461	-200,000	19,114	323,779
-52,446	800,000	745,195	2327,354
-51,432	550,177	1657,321	2855,141
-50,417	113,891	1639,289	1425,735
-49,403	79,516	1288,849	988,485
-48,388	30,744	1029,112	628,862
-47,373	19,530	991,809	569,077
-46,359	16,673	979,657	552,707
-45,344	13,276	975,835	539,398
-44,330	13,632	974,505	539,808
-43,315	12,916	972,599	536,388
-42,300	12,849	971,596	535,598
-41,286	12,834	970,398	534,866
-40,271	12,851	969,645	534,484
-39,257	12,830	968,714	533,881
-38,242	12,824	967,852	533,365
-37,227	12,903	966,797	533,021
-36,213	12,787	966,185	532,285
-35,198	12,853	965,050	531,852
-34,184	12,820	964,527	531,437
-33,169	12,898	963,374	531,032
-32,154	12,868	962,541	530,455
-31,140	12,864	961,451	529,819
-30,125	12,891	960,905	529,586
-29,111	12,819	960,125	528,901
-28,096	12,855	959,451	528,628
-27,082	12,868	958,661	528,211
-26,067	12,855	957,854	527,704
-25,052	12,852	957,237	527,334
-24,038	12,789	956,688	526,807
-23,023	12,774	955,947	526,332
-22,009	12,865	955,374	526,288
-20,994	12,878	954,683	525,926
-19,979	12,868	954,010	525,504
-18,965	12,848	953,412	525,089
-17,950	12,909	952,819	524,937
-16,936	12,808	952,115	524,205
-15,921	12,824	951,453	523,871
-14,906	12,708	950,855	523,150
-13,892	12,707	950,213	522,773
-12,877	12,678	949,570	522,306
-11,863	12,705	948,803	521,949
-10,848	12,743	948,428	521,843
-9,833	12,819	947,910	521,779
-8,819	12,811	947,107	521,292
-7,804	12,780	946,401	520,785
-6,790	12,749	945,782	520,326
-5,775	12,828	945,189	520,227
-4,760	12,831	944,742	519,969
-3,746	12,762	944,177	519,419
-2,731	12,632	943,340	518,527
-1,717	12,617	942,644	518,075
-0,702	12,592	941,991	517,618
0,313	12,439	941,373	517,576
1,327	15,805	939,048	526,871
2,342	24,978	793,162	469,272
3,356	21,302	458,146	265,430
4,371	-5,287	316,492	154,947
5,386	-9,105	298,411	142,198
6,400	-11,042	292,424	137,400
7,415	-11,043	289,905	136,203
8,429	-11,265	288,420	135,275
9,444	-11,395	287,647	134,773
10,459	-11,346	286,845	134,433
11,473	-11,405	286,209	134,066
12,488	-11,502	285,662	133,703
13,502	-11,664	285,100	133,270
14,517	-11,454	284,704	133,277
15,531	-11,475	284,291	133,052
16,546	-11,201	283,853	133,100
17,561	-11,448	283,518	132,692
18,575	-11,226	283,119	132,707
19,590	-11,249	282,784	132,516
20,604	-11,234	282,464	132,369
21,619	-11,497	282,234	131,997
22,634	-11,417	281,896	131,904
23,648	-11,469	281,521	131,666
24,663	-11,330	281,122	131,602
25,677	-11,363	281,066	131,532
26,692	-11,354	280,639	131,330
27,707	-11,402	280,458	131,187
28,721	-11,381	280,231	131,089
29,736	-11,238	279,863	131,042
30,750	-11,229	279,486	130,862
31,765	-11,456	279,416	130,602
32,780	-11,250	278,979	130,582
33,794	-11,314	278,796	130,424
34,809	-11,405	278,553	130,211
35,823	-11,445	278,387	130,084
36,838	-11,396	278,120	129,995
37,853	-11,457	277,786	129,769
38,867	-11,401	277,663	129,753
39,882	-11,501	277,339	129,495
40,896	-11,442	277,206	129,477
41,911	-11,476	276,934	129,307
42,926	-11,483	276,590	129,128
43,940	-11,292	276,310	129,166
44,955	-11,370	276,063	128,965
45,969	-11,494	275,885	128,754
46,984	-11,464	275,720	128,694
47,999	-11,486	275,573	128,593
49,013	-11,716	275,136	128,163
50,028	-11,644	274,968	128,140
51,042	-11,633	274,728	128,027
52,057	-11,707	274,392	127,790
53,071	-11,776	274,211	127,630
54,086	-11,700	274,067	127,622
55,101	-11,590	273,830	127,604
56,115	-11,577	273,635	127,513
57,130	-11,430	273,323	127,493
58,144	-11,520	273,224	127,352
59,159	-11,547	272,952	127,188
60,174	-11,395	272,755	127,226
61,188	-11,710	272,451	126,781
62,203	-11,380	272,079	126,903
63,217	-11,438	271,894	126,751
64,232	-11,700	271,824	126,465
65,247	-11,424	271,572	126,592
66,261	-11,395	271,158	126,414
67,276	-11,364	271,046	126,378
68,290	-11,571	270,755	126,042
69,305	-11,568	270,481	125,905
70,320	-11,596	270,504	125,880
71,334	-11,287	270,088	125,958
72,349	-11,364	269,980	125,826
73,363	-11,403	269,616	125,609
74,378	-11,544	269,514	125,421
75,393	-11,571	269,339	125,304
76,407	-11,544	269,025	125,171
77,422	-11,569	268,933	125,095
78,436	-11,593	268,574	124,894
79,451	-11,432	268,222	124,867
80,466	-11,591	268,064	124,637
81,480	-11,455	267,709	124,585
82,495	-11,531	267,693	124,496
83,509	-11,671	267,584	124,308
84,524	-11,570	267,357	124,283
85,539	-11,479	267,002	124,190
86,553	-11,440	266,776	124,108
87,568	-11,587	266,648	123,905
88,582	-11,688	266,546	123,755
89,597	-11,581	266,377	123,762
90,611	-11,588	266,077	123,605
91,626	-11,447	265,807	123,596
92,641	-11,534	265,625	123,422
93,655	-11,524	265,374	123,303
94,670	-11,505	265,196	123,227
95,684	-11,807	265,048	122,876
96,699	-11,526	264,733	122,970
97,714	-11,695	264,645	122,767
98,728	-11,672	264,437	122,681
99,743	-11,636	264,174	122,581
100,757	-11,601	264,000	122,519
101,772	-11,506	263,784	122,493
102,787	-11,510	263,440	122,319
103,801	-11,494	263,291	122,253
104,816	-11,567	263,241	122,154
105,830	-11,524	262,991	122,066
106,845	-11,555	262,693	121,889
107,860	-11,490	262,510	121,851
108,874	-11,413	262,283	121,803
109,889	-11,645	262,159	121,528
110,903	-11,539	261,838	121,462
111,918	-11,672	261,815	121,324
112,933	-11,620	261,537	121,230
113,947	-11,620	261,603	121,250
114,962	-11,562	261,254	121,128
115,976	-11,449	261,004	121,101
116,991	-11,467	260,810	120,985
118,006	-11,634	260,502	120,684
119,020	-11,673	260,547	120,659
120,035	-11,733	260,497	120,572
121,049	-11,587	260,110	120,512
122,064	-11,525	259,748	120,387
123,079	-11,502	259,719	120,383
124,093	-11,762	259,581	120,080
125,108	-11,588	259,328	120,105
126,122	-11,575	259,244	120,068
127,137	-11,470	258,917	119,997
128,151	-11,499	258,634	119,830
129,166	-11,686	258,478	119,583
130,181	-11,688	258,348	119,510
131,195	-11,688	258,182	119,423
132,210	-11,580	257,976	119,412
133,224	-11,540	257,671	119,294
134,239	-11,707	257,424	119,025
135,254	-11,683	257,179	118,921
136,268	-11,862	257,104	118,721
137,283	-11,729	256,841	118,704
138,297	-11,668	256,719	118,690
139,312	-11,680	256,456	118,547
140,327	-11,468	256,372	118,681
141,341	-11,307	256,290	118,772
142,356	-11,230	255,946	118,669
143,370	-11,327	255,771	118,493
144,385	-11,454	255,726	118,352
145,400	-11,374	255,488	118,301
146,414	-11,252	255,304	118,309
147,429	-11,541	255,092	117,953
148,443	-11,451	254,801	117,885
149,458	-11,437	254,896	117,930
150,473	-11,340	254,381	117,764
151,487	-11,444	254,349	117,649
152,502	-11,394	254,118	117,575
153,516	-11,227	253,864	117,590
154,531	-11,440	253,919	117,422
155,546	-11,468	253,574	117,229
156,560	-11,551	253,383	117,059
157,575	-11,690	253,106	116,803
158,589	-11,614	253,016	116,815
159,604	-11,365	252,821	116,927
160,619	-11,072	252,691	117,106
161,633	-11,091	252,581	117,028
162,648	-11,165	252,299	116,825
163,662	-11,376	252,116	116,550
164,677	-11,307	251,969	116,530
165,692	-11,318	251,769	116,418
166,706	-11,303	251,701	116,388
167,721	-10,931	251,530	116,614
168,735	-11,200	251,429	116,330
169,750	-11,369	251,264	116,100
170,764	-11,378	250,969	115,946
171,779	-11,374	250,810	115,865
172,794	-11,204	250,692	115,944
173,808	-11,416	250,512	115,671
174,823	-11,678	250,267	115,327
175,837	-11,686	250,007	115,190
176,852	-11,450	249,856	115,309
177,867	-11,668	249,824	115,100
178,881	-11,450	249,591	115,166
179,896	-11,448	249,412	115,074
180,910	-11,230	249,078	115,093
181,925	-11,340	249,064	114,985
182,940	-11,590	248,992	114,732
183,954	-11,430	248,765	114,751
184,969	-11,261	248,692	114,848
185,983	-11,158	248,451	114,813
186,998	-10,986	248,335	114,892
188,013	-11,415	248,175	114,451
189,027	-11,392	247,935	114,349
190,042	-11,427	247,712	114,206
191,056	-11,473	247,384	114,006
192,071	-11,601	247,317	113,859
193,086	-11,559	247,115	113,791
194,100	-11,690	246,797	113,526
195,115	-11,434	246,828	113,742
196,129	-11,140	246,633	113,886
197,144	-11,221	246,346	113,676
198,159	-11,574	246,309	113,357
199,173	-11,544	246,070	113,261
200,188	-11,556	245,775	113,106
201,202	-11,655	245,496	112,886
202,217	-11,743	245,437	112,776
203,232	-11,926	245,261	112,534
204,246	-11,789	245,026	112,529
205,261	-11,306	245,023	112,914
206,275	-11,601	244,657	112,494
207,290	-10,971	244,996	113,157
208,304	-6,918	246,302	117,096
209,319	-4,034	247,006	119,803
210,334	-2,840	247,455	120,998
211,348	-1,847	247,439	121,799
212,363	-1,600	247,357	121,952
213,377	-1,064	247,411	122,411
214,392	-0,485	247,335	122,840
215,407	-0,476	247,255	122,796
216,421	-0,486	247,143	122,721
217,436	-0,442	247,026	122,689
218,450	-0,587	246,758	122,425
219,465	-0,754	246,548	122,173
220,480	-0,585	246,491	122,272
221,494	-0,678	246,247	122,064
222,509	-0,643	246,075	121,998
223,523	-0,739	246,115	121,928
224,538	-0,501	245,590	121,851
225,553	-0,726	245,428	121,576
226,567	-0,716	245,366	121,542
227,582	-0,823	245,224	121,374
228,596	-0,658	245,059	121,417
229,611	-0,769	244,998	121,285
230,626	-0,838	244,705	121,073
231,640	-0,835	244,648	121,036
232,655	-0,808	244,374	120,911
233,669	-0,853	244,248	120,801
234,684	-0,869	244,070	120,690
235,699	-0,611	244,017	120,863
236,713	-0,729	243,711	120,604
237,728	-0,703	243,575	120,547
238,742	-0,742	243,541	120,488
239,757	-0,757	243,309	120,350
240,772	-0,780	243,153	120,244
241,786	-0,768	243,007	120,171
242,801	-0,710	242,798	120,104
243,815	-0,688	242,623	120,024
244,830	-0,834	242,488	119,829
245,844	-0,906	242,249	119,643
246,859	-0,621	242,008	119,742
247,874	-0,715	241,998	119,651
248,888	-0,505	241,784	119,703
249,903	-0,821	241,802	119,447
250,917	-0,858	241,610	119,312
251,932	-0,518	241,441	119,491
252,947	-0,708	241,108	119,163
253,961	-0,673	241,052	119,153
254,976	-0,545	240,802	119,121
255,990	-0,718	240,655	118,899
257,005	-0,734	240,492	118,796
258,020	-0,956	240,495	118,609
259,034	-0,878	240,414	118,620
260,049	-0,758	240,143	118,572
261,063	-0,695	239,896	118,490
262,078	-0,740	239,709	118,351
263,093	-0,739	239,719	118,346
264,107	-0,685	239,572	118,306
265,122	-0,712	239,348	118,163
266,136	-0,609	239,128	118,126
267,151	-0,568	238,929	118,049
268,166	-0,847	238,871	117,789
269,180	-0,860	238,645	117,657
270,195	-0,543	238,387	117,770
271,209	-0,820	238,329	117,512
272,224	-0,813	238,303	117,494
273,239	-0,518	238,119	117,626
274,253	-0,638	237,945	117,435
275,268	-0,557	237,778	117,405
276,282	-0,808	237,579	117,100
277,297	-0,816	237,368	116,979
278,312	-0,729	237,305	117,006
279,326	-0,586	237,185	117,049
280,341	-0,742	236,966	116,807
281,355	-0,777	236,924	116,749
282,370	-0,449	236,629	116,851
283,384	-0,593	236,536	116,681
284,399	-0,622	236,524	116,642
285,414	-0,631	236,239	116,484
286,428	-0,697	236,165	116,385
287,443	-0,529	235,954	116,402
288,457	-0,451	235,657	116,306
289,472	-0,519	235,676	116,252
290,487	-0,631	235,593	116,114
291,501	-0,585	235,345	116,017
292,516	-0,521	235,332	116,050
293,530	-0,577	235,099	115,881
294,545	-0,662	234,926	115,719
295,560	-0,613	234,777	115,674
296,574	-0,616	234,640	115,594
297,589	-0,800	234,574	115,408
298,603	-0,642	234,280	115,376
299,618	-0,399	233,984	115,408
300,633	-0,636	234,107	115,274
301,647	-0,595	233,858	115,173
302,662	-0,758	233,703	114,961
303,676	-0,538	233,531	115,036
304,691	-0,359	233,445	115,121
305,706	-0,620	233,314	114,845
306,720	-0,530	233,162	114,829
307,735	-0,249	233,005	114,958
308,749	-0,260	232,986	114,930
309,764	-0,296	232,675	114,739
310,779	-0,298	232,586	114,683
311,793	-0,391	232,411	114,515
312,808	-0,446	232,228	114,373
313,822	-0,538	232,073	114,216
314,837	-0,285	231,932	114,329
315,852	-0,216	231,925	114,369
316,866	-0,317	231,645	114,143
317,881	-0,402	231,473	113,983
318,895	-0,274	231,329	114,000
319,910	-0,292	231,106	113,867
320,925	-0,401	231,063	113,752
321,939	-0,264	231,041	113,836
322,954	-0,215	230,734	113,711
323,968	0,076	230,835	113,973
324,983	0,015	230,577	113,789
325,997	-0,171	230,384	113,542
327,012	-0,324	230,269	113,359
328,027	-0,071	230,033	113,425
329,041	-0,254	229,985	113,252
330,056	-0,355	229,754	113,051
331,070	0,038	229,640	113,284
332,085	-0,120	229,635	113,151
333,100	-0,010	229,318	113,068
334,114	-0,144	229,161	112,880
335,129	-0,036	228,937	112,841
336,143	0,051	228,843	112,850
337,158	-0,104	228,839	112,720
338,173	0,119	228,662	112,791
339,187	-0,061	228,550	112,590
340,202	-0,183	228,446	112,437
341,216	-0,089	228,151	112,352
342,231	-0,236	227,990	112,153
343,246	-0,105	227,881	112,188
344,260	0,025	227,839	112,255
345,275	0,123	227,700	112,250
346,289	-0,046	227,680	112,103
347,304	-0,019	227,292	111,922
348,319	-0,064	227,206	111,836
349,333	0,231	226,977	111,934
350,348	-0,043	227,043	111,752
351,362	-0,164	226,920	111,591
352,377	0,006	226,713	111,606
353,392	0,320	226,527	111,739
354,406	0,162	226,533	111,614
355,421	196,444	1317,888	1393,086
356,435	157,538	1450,804	1393,043
