DTS Sentinel unit serial number:	SN410029Multiplexer serial number:	ORYXHardware model number:	OX2-SRSoftware version number:	ORYX F/W v4,00 Oryx Data Collector v3.7.2.0data status	okinstallation	B5 Nyhavnadifferential loss correction	single-endedforward channel	channel 2reverse channel	N/Adate	2023/12/12time	05:22:13forward acquisition time	300,00reverse acquisition time	0,00gamma	499,1914k internal	0,3157k external	0,3157temperature offset calibration	1,0000default loss term (dB/km)	0,3820temperature slope calibration	1,0000multiplexer offset coefficient	1,0000multiplexer slope coefficient	1,0000fibre end	0,00T internal ref (°C)	15,37T ext. ref 1 (°C)	-1,05T ext. ref 2 (°C)	-1,35length (m)	temperature (°C)	Stokes	anti-Stokes-744,400	72,480	0,100	-0,077
-743,385	-149,745	-0,318	0,018
-742,371	624,729	-0,032	0,060
-741,356	-23,902	-0,276	0,121
-740,342	250,107	0,155	0,195
-739,327	-69,030	-0,379	0,107
-738,312	273,740	0,061	-0,080
-737,298	-26,562	-0,385	-0,165
-736,283	101,752	0,048	0,041
-735,269	-57,395	-0,217	0,070
-734,254	-31,971	0,107	0,044
-733,239	-101,796	-0,466	-0,082
-732,225	-80,434	0,214	0,052
-731,210	161,336	0,144	0,149
-730,196	106,205	0,090	0,078
-729,181	0,875	-0,081	-0,043
-728,167	800,000	-0,015	-0,041
-727,152	-200,000	-0,027	-0,110
-726,137	-0,176	-0,075	-0,039
-725,123	154,251	0,021	0,021
-724,108	-200,000	-0,011	-0,131
-723,094	138,958	-0,060	-0,058
-722,079	-72,054	-0,056	0,015
-721,064	126,412	-0,023	0,021
-720,050	201,362	-0,067	0,077
-719,035	350,127	-0,012	-0,017
-718,021	-110,893	-0,007	-0,001
-717,006	-89,175	0,057	0,012
-715,991	85,749	-0,086	-0,070
-714,977	127,218	-0,110	-0,103
-713,962	741,275	0,057	-0,114
-712,948	800,000	0,025	-0,067
-711,933	800,000	0,056	-0,158
-710,918	800,000	-0,092	0,188
-709,904	-34,751	-0,078	-0,031
-708,889	800,000	0,030	-0,084
-707,875	800,000	-0,083	-0,200
-706,860	31,416	-0,123	-0,078
-705,845	-200,000	0,025	-0,091
-704,831	75,409	0,009	-0,007
-703,816	-28,846	-0,017	-0,007
-702,802	34,762	0,049	-0,031
-701,787	252,697	-0,049	-0,062
-700,772	584,237	-0,025	0,045
-699,758	-200,000	0,018	0,063
-698,743	-200,000	0,007	0,079
-697,729	33,412	0,089	-0,056
-696,714	-44,154	-0,038	-0,014
-695,699	119,271	-0,062	-0,057
-694,685	800,000	-0,033	-0,086
-693,670	-200,000	-0,011	-0,060
-692,656	108,033	0,044	-0,038
-691,641	-92,000	-0,107	0,022
-690,627	-95,202	-0,053	-0,010
-689,612	0,748	-0,070	-0,037
-688,597	14,681	-0,042	-0,024
-687,583	-200,000	0,005	0,081
-686,568	-142,820	-0,211	-0,015
-685,554	486,417	0,020	0,034
-684,539	270,281	-0,031	-0,040
-683,524	6,615	0,045	0,024
-682,510	47,064	-0,112	0,076
-681,495	-200,000	-0,039	-0,142
-680,481	-200,000	0,009	0,061
-679,466	-34,016	-0,052	0,021
-678,451	384,620	-0,037	-0,057
-677,437	-200,000	0,000	-0,002
-676,422	-72,168	0,119	0,032
-675,408	24,736	-0,079	-0,048
-674,393	125,421	-0,030	0,028
-673,378	174,367	0,026	0,028
-672,364	800,000	0,052	0,164
-671,349	-200,000	-0,025	-0,087
-670,335	418,707	0,021	-0,033
-669,320	683,086	0,056	-0,108
-668,305	-160,403	-0,030	-0,001
-667,291	131,146	0,054	-0,051
-666,276	800,000	-0,044	-0,091
-665,262	269,649	-0,094	-0,122
-664,247	-126,558	-0,113	0,012
-663,232	-200,000	-0,024	0,108
-662,218	647,062	0,039	0,073
-661,203	-128,580	-0,075	-0,008
-660,189	3,403	-0,057	-0,030
-659,174	-110,839	-0,151	-0,023
-658,159	-111,343	-0,062	0,009
-657,145	800,000	-0,017	-0,042
-656,130	-200,000	0,030	0,122
-655,116	118,245	0,138	0,125
-654,101	520,301	0,080	0,138
-653,086	-146,582	-0,087	0,005
-652,072	7,351	-0,100	-0,055
-651,057	-13,123	-0,017	-0,008
-650,043	397,241	-0,080	0,124
-649,028	-200,000	0,013	-0,066
-648,014	170,969	-0,040	0,042
-646,999	-200,000	-0,006	-0,057
-645,984	-49,299	0,140	-0,049
-644,970	-200,000	-0,007	0,049
-643,955	-200,000	0,028	-0,144
-642,941	-200,000	0,028	-0,120
-641,926	114,326	-0,192	-0,172
-640,911	402,977	0,026	0,040
-639,897	482,777	0,091	0,152
-638,882	800,000	0,059	0,121
-637,868	40,356	-0,149	-0,098
-636,853	-200,000	-0,002	-0,036
-635,838	-200,000	0,004	0,121
-634,824	75,335	-0,111	0,086
-633,809	-66,161	0,111	-0,032
-632,795	-148,565	0,200	-0,012
-631,780	400,618	0,066	0,103
-630,765	298,224	-0,075	-0,102
-629,751	16,455	-0,058	-0,033
-628,736	800,000	-0,045	-0,105
-627,722	800,000	0,053	-0,136
-626,707	60,877	-0,061	0,044
-625,692	100,679	0,096	-0,082
-624,678	-162,632	-0,082	0,003
-623,663	445,960	-0,039	-0,063
-622,649	-200,000	-0,006	-0,145
-621,634	110,386	0,032	0,028
-620,619	-117,581	-0,063	0,008
-619,605	186,016	0,078	-0,086
-618,590	800,000	0,037	0,083
-617,576	24,810	0,103	0,063
-616,561	800,000	-0,036	-0,098
-615,546	-66,548	-0,080	0,023
-614,532	-200,000	-0,020	-0,095
-613,517	-105,689	-0,173	0,028
-612,503	-71,618	0,070	0,019
-611,488	-200,000	0,006	-0,020
-610,474	800,000	0,037	0,118
-609,459	143,426	-0,024	0,024
-608,444	800,000	0,019	0,052
-607,430	11,097	-0,160	0,090
-606,415	454,439	0,017	0,027
-605,401	800,000	0,030	0,091
-604,386	38,211	-0,058	0,038
-603,371	-9,076	0,053	0,026
-602,357	800,000	-0,049	0,116
-601,342	-200,000	0,018	-0,126
-600,328	-67,802	-0,023	-0,007
-599,313	800,000	-0,033	-0,072
-598,298	379,580	0,055	0,083
-597,284	56,802	-0,035	0,025
-596,269	122,833	0,060	-0,055
-595,255	-94,900	-0,106	0,021
-594,240	800,000	0,018	-0,047
-593,225	139,432	0,027	0,026
-592,211	-126,388	0,043	-0,005
-591,196	5,935	-0,020	0,011
-590,182	-109,515	0,152	-0,023
-589,167	800,000	0,045	-0,105
-588,152	-200,000	-0,009	0,035
-587,138	-141,622	0,174	-0,013
-586,123	14,332	-0,143	-0,082
-585,109	-200,000	-0,000	-0,037
-584,094	-82,826	-0,035	0,008
-583,079	-111,612	0,166	-0,025
-582,065	91,162	0,040	0,033
-581,050	251,664	0,092	0,115
-580,036	-200,000	0,016	0,061
-579,021	29,070	0,055	-0,034
-578,006	109,699	0,014	0,012
-576,992	-200,000	-0,033	-0,187
-575,977	-20,256	0,061	-0,027
-574,963	313,249	-0,052	0,072
-573,948	31,793	0,098	-0,062
-572,934	367,628	-0,049	0,073
-571,919	610,208	0,068	0,126
-570,904	-77,526	-0,111	-0,028
-569,890	-19,229	0,075	-0,034
-568,875	-200,000	0,010	-0,062
-567,861	524,868	0,048	-0,083
-566,846	-89,226	0,080	-0,017
-565,831	66,795	-0,144	-0,107
-564,817	-200,000	-0,005	0,063
-563,802	78,706	-0,068	-0,053
-562,788	9,889	0,162	-0,090
-561,773	-172,516	0,028	0,001
-560,758	-118,235	-0,043	0,006
-559,744	-200,000	-0,036	0,160
-558,729	-11,494	-0,158	-0,076
-557,715	800,000	-0,012	-0,033
-556,700	-41,138	0,047	-0,017
-555,685	-200,000	0,006	-0,029
-554,671	-200,000	-0,017	-0,141
-553,656	-23,951	0,061	-0,027
-552,642	505,351	-0,053	0,090
-551,627	-1,245	0,097	0,050
-550,612	-50,746	-0,109	-0,037
-549,598	-200,000	-0,020	-0,108
-548,583	218,332	-0,102	-0,119
-547,569	258,013	0,046	0,059
-546,554	261,223	0,079	-0,100
-545,539	78,767	0,056	-0,043
-544,525	-21,873	0,088	-0,039
-543,510	298,280	0,063	0,085
-542,496	-200,000	-0,008	0,131
-541,481	-200,000	-0,006	-0,081
-540,466	800,000	-0,043	0,092
-539,452	87,791	0,103	0,083
-538,437	-200,000	-0,012	0,104
-537,423	-50,720	-0,011	-0,004
-536,408	115,599	-0,050	-0,045
-535,393	800,000	-0,045	-0,092
-534,379	345,158	-0,034	0,049
-533,364	-86,030	0,132	-0,030
-532,350	-55,273	0,046	0,015
-531,335	483,392	-0,090	0,150
-530,321	-200,000	0,016	0,101
-529,306	800,000	-0,035	-0,086
-528,291	-200,000	-0,006	-0,022
-527,277	398,155	-0,062	-0,095
-526,262	-57,059	-0,048	0,015
-525,248	-37,531	0,157	0,061
-524,233	145,119	-0,143	0,140
-523,218	371,664	0,042	0,062
-522,204	-200,000	0,019	0,083
-521,189	-32,693	0,144	-0,058
-520,175	177,069	0,060	0,064
-519,160	445,195	-0,047	0,075
-518,145	329,771	0,032	-0,045
-517,131	-85,338	0,094	-0,021
-516,116	303,549	0,098	0,133
-515,102	-44,731	0,032	0,012
-514,087	-200,000	-0,000	-0,090
-513,072	-86,076	-0,120	-0,027
-512,058	800,000	-0,008	0,024
-511,043	-59,618	-0,015	-0,005
-510,029	-92,179	0,119	-0,024
-509,014	-200,000	0,009	-0,086
-507,999	800,000	-0,016	-0,047
-506,985	-37,025	-0,050	0,020
-505,970	350,091	0,102	-0,148
-504,956	800,000	-0,020	-0,043
-503,941	215,110	0,121	0,140
-502,926	-74,658	0,049	-0,013
-501,912	141,346	0,062	-0,060
-500,897	-200,000	0,012	-0,148
-499,883	77,990	-0,094	-0,073
-498,868	338,474	-0,016	-0,023
-497,853	168,635	0,062	-0,065
-496,839	-200,000	0,016	0,068
-495,824	-200,000	-0,018	0,092
-494,810	800,000	-0,029	0,074
-493,795	342,491	-0,109	-0,156
-492,781	171,878	-0,065	-0,069
-491,766	235,749	-0,085	0,102
-490,751	-200,000	0,001	-0,011
-489,737	-98,992	0,066	0,012
-488,722	-200,000	-0,024	0,090
-487,708	800,000	-0,035	-0,113
-486,693	204,885	-0,047	0,054
-485,678	-200,000	0,047	-0,190
-484,664	-167,224	-0,100	0,003
-483,649	490,116	-0,062	-0,104
-482,635	800,000	0,048	-0,125
-481,620	800,000	-0,023	0,054
-480,605	74,520	-0,061	0,047
-479,591	800,000	0,014	0,034
-478,576	-38,952	-0,055	-0,021
-477,562	-200,000	-0,007	-0,123
-476,547	130,757	-0,079	-0,074
-475,532	-200,000	0,008	-0,033
-474,518	-1,086	-0,071	0,036
-473,503	65,763	0,083	0,062
-472,489	67,500	0,052	0,039
-471,474	121,137	-0,043	0,039
-470,459	-200,000	0,010	-0,081
-469,445	-110,896	-0,106	0,016
-468,430	421,577	0,055	0,086
-467,416	-200,000	-0,011	-0,166
-466,401	-200,000	0,015	0,131
-465,386	572,946	0,044	0,079
-464,372	689,619	0,033	-0,063
-463,357	-200,000	0,022	0,079
-462,343	-28,568	0,108	0,045
-461,328	-162,149	-0,081	0,003
-460,313	498,602	0,047	-0,079
-459,299	-6,660	0,162	-0,080
-458,284	-116,666	0,082	-0,011
-457,270	800,000	0,031	0,088
-456,255	-48,779	-0,046	0,016
-455,241	86,370	-0,041	-0,033
-454,226	800,000	-0,015	0,046
-453,211	-4,893	0,159	-0,079
-452,197	-16,886	0,065	0,030
-451,182	226,249	0,022	0,026
-450,168	499,777	-0,062	-0,104
-449,153	-1,537	-0,100	-0,051
-448,138	-200,000	0,018	-0,102
-447,124	153,976	0,088	-0,088
-446,109	-200,000	-0,028	-0,142
-445,095	15,203	0,055	-0,031
-444,080	-200,000	0,028	-0,127
-443,065	113,802	-0,028	0,024
-442,051	-11,410	-0,173	0,083
-441,036	757,384	-0,033	-0,066
-440,022	-83,386	-0,122	-0,028
-439,007	800,000	-0,042	0,117
-437,992	-200,000	-0,009	0,184
-436,978	800,000	0,027	0,078
-435,963	-200,000	0,016	-0,056
-434,949	-92,574	-0,033	0,007
-433,934	-16,684	-0,138	0,063
-432,919	678,141	-0,024	-0,046
-431,905	60,594	-0,040	0,029
-430,890	800,000	0,048	0,108
-429,876	6,243	0,171	0,092
-428,861	588,083	0,040	-0,072
-427,846	-16,795	0,009	-0,004
-426,832	-200,000	0,027	-0,142
-425,817	800,000	0,045	0,092
-424,803	469,355	-0,060	0,099
-423,788	-71,814	0,080	-0,022
-422,773	-200,000	0,032	-0,115
-421,759	332,313	-0,023	0,033
-420,744	616,743	-0,054	-0,099
-419,730	275,685	-0,034	-0,044
-418,715	155,391	0,042	-0,043
-417,701	800,000	-0,016	-0,049
-416,686	-74,640	0,136	0,035
-415,671	800,000	0,025	-0,071
-414,657	-31,352	-0,038	0,016
-413,642	-200,000	-0,005	-0,086
-412,628	284,502	-0,052	-0,068
-411,613	800,000	-0,017	0,051
-410,598	-200,000	0,004	0,196
-409,584	655,314	0,108	0,202
-408,569	5,473	0,106	0,057
-407,555	-200,000	-0,001	-0,034
-406,540	54,408	0,050	0,035
-405,525	202,777	-0,085	0,096
-404,511	25,694	0,062	-0,038
-403,496	800,000	-0,034	-0,090
-402,482	-200,000	0,005	-0,031
-401,467	-34,128	0,131	0,052
-400,452	-30,556	-0,118	0,048
-399,438	-56,615	0,038	0,012
-398,423	-200,000	-0,006	0,174
-397,409	36,560	-0,051	0,032
-396,394	-98,990	0,078	-0,014
-395,379	800,000	-0,031	0,075
-394,365	-200,000	0,024	0,083
-393,350	-114,759	-0,072	-0,010
-392,336	-63,115	0,102	-0,031
-391,321	91,150	0,028	0,023
-390,306	-145,389	-0,145	-0,009
-389,292	-200,000	0,015	-0,131
-388,277	800,000	0,009	-0,027
-387,263	-200,000	0,004	-0,031
-386,248	394,977	-0,053	0,080
-385,233	-200,000	0,006	0,088
-384,219	-56,520	0,133	0,043
-383,204	-127,133	-0,019	-0,002
-382,190	-60,701	-0,114	-0,035
-381,175	-137,854	-0,059	-0,005
-380,160	-200,000	0,010	0,132
-379,146	-52,926	-0,133	0,044
-378,131	800,000	0,040	0,096
-377,117	-114,803	-0,087	0,012
-376,102	-49,302	0,129	-0,044
-375,088	-200,000	0,038	0,125
-374,073	-135,271	-0,084	-0,007
-373,058	409,823	0,036	0,056
-372,044	-61,916	0,182	0,055
-371,029	800,000	-0,011	-0,023
-370,015	800,000	0,021	-0,047
-369,000	-200,000	0,016	-0,053
-367,985	-59,997	-0,100	-0,031
-366,971	-200,000	-0,004	-0,097
-365,956	-5,064	0,125	0,062
-364,942	161,756	0,034	0,034
-363,927	203,739	-0,114	0,129
-362,912	525,944	-0,017	-0,029
-361,898	-70,305	-0,062	-0,017
-360,883	-102,393	-0,126	-0,022
-359,869	800,000	-0,021	0,049
-358,854	-191,232	0,087	0,001
-357,839	800,000	0,048	0,142
-356,825	-200,000	-0,029	0,107
-355,810	-200,000	0,023	-0,092
-354,796	-200,000	-0,002	0,040
-353,781	-200,000	0,018	0,079
-352,766	34,400	-0,025	-0,016
-351,752	-122,256	-0,208	0,024
-350,737	-200,000	-0,011	0,059
-349,723	-137,336	-0,126	0,010
-348,708	118,730	-0,079	-0,071
-347,693	95,404	-0,033	0,027
-346,679	-200,000	0,018	-0,070
-345,664	-10,142	0,091	-0,044
-344,650	-200,000	-0,023	-0,090
-343,635	435,174	-0,062	-0,098
-342,620	288,826	0,110	0,146
-341,606	-200,000	0,003	0,087
-340,591	510,759	-0,009	-0,016
-339,577	433,339	0,043	-0,068
-338,562	234,440	0,037	-0,045
-337,548	-27,454	0,059	0,025
-336,533	800,000	0,053	0,147
-335,518	34,846	-0,050	0,032
-334,504	53,824	-0,116	0,081
-333,489	321,333	0,040	0,055
-332,475	10,168	-0,144	-0,079
-331,460	100,493	-0,051	0,043
-330,445	-200,000	0,024	0,087
-329,431	-200,000	-0,019	0,085
-328,416	331,889	0,049	0,069
-327,402	800,000	0,019	0,061
-326,387	57,692	-0,080	0,057
-325,372	528,283	0,039	0,067
-324,358	141,347	0,079	-0,076
-323,343	248,807	0,103	-0,127
-322,329	33,633	0,071	0,045
-321,314	-83,666	0,066	0,015
-320,299	130,481	-0,038	-0,035
-319,285	-82,035	0,097	0,023
-318,270	800,000	-0,056	-0,133
-317,256	100,483	0,065	0,054
-316,241	8,718	-0,115	-0,063
-315,226	16,592	-0,031	0,018
-314,212	800,000	0,009	0,021
-313,197	-200,000	-0,002	0,062
-312,183	-119,315	-0,082	-0,010
-311,168	-200,000	0,014	0,111
-310,153	384,723	-0,054	-0,081
-309,139	139,425	-0,046	0,044
-308,124	541,001	0,066	-0,115
-307,110	0,147	0,064	-0,033
-306,095	-119,051	-0,058	0,007
-305,080	409,942	-0,012	-0,019
-304,066	134,791	0,048	-0,045
-303,051	-134,163	0,083	0,007
-302,037	-89,783	-0,109	-0,023
-301,022	-200,000	0,003	-0,078
-300,008	-200,000	0,041	0,150
-298,993	-200,000	-0,032	0,112
-297,978	-2,888	-0,092	0,047
-296,964	-53,492	0,175	0,058
-295,949	-19,702	-0,083	-0,037
-294,935	-105,064	0,082	0,014
-293,920	144,135	0,115	-0,111
-292,905	-200,000	-0,014	-0,148
-291,891	128,771	-0,079	-0,073
-290,876	30,131	-0,098	0,061
-289,862	461,756	0,074	0,120
-288,847	-90,778	-0,076	0,016
-287,832	-200,000	-0,026	-0,092
-286,818	-47,844	-0,178	0,062
-285,803	-200,000	-0,019	0,079
-284,789	800,000	0,018	0,037
-283,774	276,132	-0,025	-0,032
-282,759	-43,073	-0,103	0,037
-281,745	-200,000	0,000	0,068
-280,730	-27,469	0,019	-0,008
-279,716	745,557	0,037	-0,073
-278,701	195,449	0,073	0,081
-277,686	-200,000	0,025	-0,099
-276,672	33,691	-0,130	0,082
-275,657	-71,720	-0,105	0,028
-274,643	-76,009	0,049	0,012
-273,628	-54,970	-0,098	-0,032
-272,613	685,732	0,054	-0,103
-271,599	-200,000	-0,023	0,131
-270,584	556,859	0,036	-0,064
-269,570	114,762	-0,080	-0,070
-268,555	-200,000	-0,002	0,060
-267,540	-200,000	-0,022	-0,118
-266,526	-200,000	0,011	-0,065
-265,511	-60,787	-0,154	-0,047
-264,497	800,000	-0,026	0,057
-263,482	-91,149	0,229	0,047
-262,467	92,238	-0,049	-0,040
-261,453	55,026	-0,022	-0,015
-260,438	407,175	-0,069	0,106
-259,424	800,000	-0,006	0,013
-258,409	277,144	0,060	-0,078
-257,395	-189,523	0,095	-0,001
-256,380	800,000	0,033	0,101
-255,365	166,006	0,050	0,051
-254,351	800,000	-0,009	0,024
-253,336	-26,157	-0,124	0,052
-252,322	-77,592	0,119	0,029
-251,307	374,332	-0,050	-0,074
-250,292	-24,701	0,048	0,021
-249,278	31,954	-0,115	0,072
-248,263	-50,465	0,030	-0,010
-247,249	-71,345	0,162	0,044
-246,234	800,000	-0,019	0,039
-245,219	-200,000	-0,025	-0,089
-244,205	337,207	-0,026	-0,037
-243,190	-200,000	0,031	0,112
-242,176	-200,000	-0,029	-0,097
-241,161	238,975	0,085	0,103
-240,146	346,445	0,109	0,155
-239,132	-200,000	-0,020	0,177
-238,117	-117,972	-0,019	0,002
-237,103	157,032	-0,010	0,010
-236,088	104,033	-0,058	-0,049
-235,073	800,000	0,023	-0,066
-234,059	800,000	0,033	0,105
-233,044	-146,476	-0,171	-0,011
-232,030	800,000	-0,013	0,041
-231,015	-200,000	-0,021	0,076
-230,000	-200,000	-0,004	-0,083
-228,986	-200,000	-0,020	-0,085
-227,971	-29,607	0,093	-0,038
-226,957	-200,000	0,003	-0,081
-225,942	653,508	0,018	-0,033
-224,927	111,707	0,073	0,064
-223,913	-163,003	0,051	0,002
-222,898	163,600	-0,090	-0,091
-221,884	-90,869	-0,146	-0,030
-220,869	-103,739	0,183	-0,031
-219,855	122,684	0,051	-0,047
-218,840	65,044	-0,110	-0,080
-217,825	-102,057	-0,045	-0,008
-216,811	103,394	-0,023	0,020
-215,796	-115,282	-0,116	0,016
-214,782	800,000	-0,029	0,090
-213,767	461,536	0,040	-0,064
-212,752	-200,000	-0,011	0,106
-211,738	-200,000	0,033	0,106
-210,723	800,000	-0,018	-0,056
-209,709	800,000	-0,047	-0,111
-208,694	-11,162	-0,013	0,006
-207,679	800,000	-0,045	-0,122
-206,665	40,428	0,071	0,046
-205,650	-200,000	0,033	0,115
-204,636	100,357	0,041	-0,035
-203,621	680,373	-0,053	0,100
-202,606	-200,000	-0,006	0,041
-201,592	-200,000	0,039	-0,149
-200,577	136,421	0,126	0,119
-199,563	-173,080	-0,115	0,002
-198,548	-113,536	-0,093	0,013
-197,533	143,531	0,073	-0,070
-196,519	-82,716	-0,086	-0,020
-195,504	-200,000	-0,022	-0,085
-194,490	-103,038	0,144	-0,024
-193,475	-131,937	-0,055	-0,005
-192,460	-160,361	0,083	-0,003
-191,446	800,000	0,035	0,105
-190,431	800,000	-0,053	-0,114
-189,417	-43,963	-0,104	-0,038
-188,402	185,814	0,096	0,103
-187,387	-13,720	-0,040	0,019
-186,373	44,973	0,031	-0,021
-185,358	-200,000	-0,037	-0,193
-184,344	147,499	0,090	-0,087
-183,329	-67,800	-0,098	0,027
-182,315	-200,000	-0,018	0,120
-181,300	-29,493	-0,150	-0,062
-180,285	-6,349	-0,035	0,017
-179,271	2,491	0,039	-0,021
-178,256	-200,000	-0,003	-0,050
-177,242	-30,919	-0,034	0,014
-176,227	-200,000	0,035	0,131
-175,212	-79,217	-0,033	0,008
-174,198	-92,588	0,105	0,021
-173,183	-200,000	-0,049	-0,162
-172,169	-200,000	0,019	-0,164
-171,154	800,000	-0,065	-0,135
-170,139	-200,000	0,016	0,070
-169,125	800,000	-0,024	-0,064
-168,110	190,215	0,099	-0,107
-167,096	-200,000	0,004	0,079
-166,081	742,324	-0,038	0,075
-165,066	509,711	0,013	-0,023
-164,052	648,492	-0,028	0,052
-163,037	490,225	0,009	0,014
-162,023	-162,951	0,139	-0,005
-161,008	-117,317	-0,045	-0,006
-159,993	-154,643	0,105	0,005
-158,979	-7,641	-0,046	-0,022
-157,964	-200,000	0,006	-0,074
-156,950	106,051	-0,095	0,081
-155,935	66,835	-0,069	-0,051
-154,920	-91,979	-0,084	0,017
-153,906	-100,161	-0,088	-0,016
-152,891	-16,724	0,082	0,037
-151,877	-200,000	0,015	-0,059
-150,862	158,109	-0,141	-0,141
-149,847	800,000	-0,021	0,066
-148,833	378,467	-0,027	-0,040
-147,818	180,277	-0,211	0,223
-146,804	207,906	-0,012	-0,013
-145,789	-200,000	-0,028	0,171
-144,775	196,528	0,030	-0,033
-143,760	8,415	0,160	-0,087
-142,745	-200,000	-0,019	-0,111
-141,731	353,490	-0,017	0,024
-140,716	-200,000	-0,002	0,015
-139,702	61,489	0,078	0,055
-138,687	800,000	-0,023	0,061
-137,672	485,800	0,034	0,056
-136,658	-200,000	-0,041	-0,162
-135,643	-200,000	-0,001	-0,004
-134,629	-123,597	-0,042	0,005
-133,614	-200,000	0,029	0,126
-132,599	-86,231	0,120	0,026
-131,585	5,571	0,026	0,014
-130,570	-155,080	-0,079	-0,004
-129,556	237,928	-0,104	-0,125
-128,541	171,837	0,092	-0,096
-127,526	28,531	-0,047	-0,029
-126,512	800,000	-0,014	0,036
-125,497	133,258	-0,082	0,077
-124,483	-200,000	0,001	-0,045
-123,468	-200,000	-0,003	0,036
-122,453	49,518	0,127	0,086
-121,439	-113,533	-0,132	-0,018
-120,424	706,346	0,068	0,130
-119,410	104,631	-0,055	0,047
-118,395	-200,000	0,003	0,060
-117,380	51,318	-0,188	0,128
-116,366	62,083	-0,034	0,025
-115,351	-200,000	-0,013	-0,216
-114,337	-200,000	0,026	-0,127
-113,322	-200,000	0,012	0,043
-112,307	-200,000	0,011	0,105
-111,293	-200,000	0,014	-0,084
-110,278	-200,000	-0,011	0,103
-109,264	-108,694	-0,115	0,018
-108,249	149,587	-0,062	-0,060
-107,234	-114,078	-0,215	-0,030
-106,220	626,543	-0,040	0,073
-105,205	531,736	-0,056	0,096
-104,191	-200,000	-0,003	-0,096
-103,176	-31,217	0,093	-0,037
-102,162	-127,671	-0,101	-0,010
-101,147	800,000	0,025	-0,055
-100,132	-84,614	-0,101	-0,023
-99,118	800,000	-0,071	-0,185
-98,103	800,000	0,012	0,038
-97,089	-200,000	0,004	0,096
-96,074	-48,419	0,043	-0,015
-95,059	-22,838	-0,087	-0,038
-94,045	800,000	-0,083	0,170
-93,030	95,221	-0,038	0,031
-92,016	12,579	-0,048	-0,027
-91,001	133,945	0,072	-0,067
-89,986	355,854	0,118	-0,169
-88,972	800,000	0,059	0,160
-87,957	800,000	0,007	0,022
-86,943	16,691	-0,031	-0,018
-85,928	20,385	0,046	-0,026
-84,913	800,000	-0,014	-0,032
-83,899	-47,050	-0,151	0,053
-82,884	364,296	0,019	0,028
-81,870	459,179	-0,050	-0,080
-80,855	-127,737	0,062	0,006
-79,840	111,548	-0,052	0,045
-78,826	-61,906	-0,083	-0,025
-77,811	-182,825	-0,146	0,002
-76,797	-44,085	0,182	-0,065
-75,782	800,000	0,051	0,150
-74,767	-25,906	0,118	-0,050
-73,753	84,538	-0,143	-0,112
-72,738	-52,599	0,079	-0,026
-71,724	279,589	0,081	-0,105
-70,709	-133,628	-0,224	-0,020
-69,694	171,316	0,025	0,026
-68,680	800,000	0,033	0,085
-67,665	-138,310	0,130	-0,010
-66,651	-200,000	-0,016	0,069
-65,636	-200,000	-0,011	0,125
-64,622	-200,000	0,027	-0,119
-63,607	-162,538	-0,199	-0,007
-62,592	283,297	-0,021	0,027
-61,578	-37,229	-0,093	0,036
-60,563	-4,604	0,141	0,070
-59,549	-77,011	-0,107	0,027
-58,534	-11,183	-2,020	-0,952
-57,519	800,000	-0,343	-0,973
-56,505	-200,000	-1,133	-5,065
-55,490	44,821	0,710	0,469
-54,476	800,000	5,421	12,361
-53,461	-200,000	17,622	283,330
-52,446	800,000	727,123	2214,234
-51,432	534,869	1643,279	2807,573
-50,417	110,038	1634,102	1407,400
-49,403	75,461	1286,629	973,776
-48,388	32,072	1027,710	634,532
-47,373	20,195	989,412	571,722
-46,359	18,488	977,482	559,208
-45,344	15,723	973,339	547,767
-44,330	15,946	972,058	547,753
-43,315	15,440	970,061	544,957
-42,300	15,380	969,003	544,142
-41,286	15,441	967,899	543,700
-40,271	15,319	967,014	542,786
-39,257	15,400	966,068	542,497
-38,242	15,485	965,055	542,181
-37,227	15,404	964,406	541,533
-36,213	15,390	963,505	540,961
-35,198	15,399	962,570	540,443
-34,184	15,489	961,935	540,357
-33,169	15,368	961,110	539,481
-32,154	15,390	960,258	539,052
-31,140	15,481	959,076	538,660
-30,125	15,427	958,563	538,178
-29,111	15,410	957,660	537,593
-28,096	15,411	957,004	537,205
-27,082	15,419	956,353	536,846
-26,067	15,474	955,372	536,451
-25,052	15,351	954,820	535,726
-24,038	15,390	954,145	535,448
-23,023	15,421	953,308	535,057
-22,009	15,396	952,994	534,780
-20,994	15,431	952,166	534,407
-19,979	15,443	951,539	534,073
-18,965	15,391	950,958	533,559
-17,950	15,368	950,504	533,209
-16,936	15,375	949,665	532,739
-15,921	15,379	948,825	532,261
-14,906	15,265	948,313	531,586
-13,892	15,328	947,529	531,329
-12,877	15,255	947,020	530,789
-11,863	15,286	946,512	530,583
-10,848	15,250	945,936	530,122
-9,833	15,355	945,423	530,147
-8,819	15,380	944,684	529,794
-7,804	15,273	944,190	529,154
-6,790	15,299	943,633	528,905
-5,775	15,324	943,140	528,685
-4,760	15,371	942,355	528,375
-3,746	15,425	941,563	528,080
-2,731	15,123	941,088	526,837
-1,717	15,182	940,345	526,587
-0,702	15,170	939,581	526,101
0,313	14,914	939,283	525,920
1,327	18,113	936,815	534,570
2,342	26,790	794,267	476,224
3,356	23,468	459,584	270,442
4,371	-3,470	315,448	156,888
5,386	-7,615	297,252	143,615
6,400	-9,571	291,305	138,779
7,415	-9,847	288,720	137,263
8,429	-10,000	287,192	136,374
9,444	-9,912	286,299	136,024
10,459	-9,951	285,797	135,735
11,473	-9,878	285,082	135,455
12,488	-10,018	284,772	135,159
13,502	-10,079	283,963	134,704
14,517	-9,958	283,660	134,665
15,531	-10,029	283,190	134,362
16,546	-9,826	282,781	134,351
17,561	-10,046	282,472	133,981
18,575	-9,770	282,074	134,046
19,590	-9,872	281,669	133,743
20,604	-9,842	281,456	133,659
21,619	-9,970	281,165	133,386
22,634	-9,945	280,704	133,179
23,648	-9,882	280,340	133,055
24,663	-9,968	280,194	132,891
25,677	-9,958	279,834	132,719
26,692	-9,946	279,715	132,662
27,707	-9,880	279,368	132,548
28,721	-10,019	279,048	132,253
29,736	-10,029	278,678	132,056
30,750	-9,843	278,498	132,136
31,765	-9,997	278,365	131,915
32,780	-9,999	278,111	131,780
33,794	-9,999	277,852	131,646
34,809	-9,995	277,590	131,513
35,823	-9,936	277,255	131,399
36,838	-9,935	276,950	131,244
37,853	-10,135	276,847	130,994
38,867	-9,977	276,630	131,029
39,882	-9,858	276,261	130,954
40,896	-9,925	276,057	130,784
41,911	-10,004	275,700	130,528
42,926	-9,997	275,591	130,472
43,940	-9,960	275,239	130,328
44,955	-10,065	275,118	130,160
45,969	-10,203	274,891	129,912
46,984	-10,131	274,507	129,786
47,999	-10,418	274,337	129,426
49,013	-10,387	274,048	129,307
50,028	-10,543	273,806	129,035
51,042	-10,526	273,447	128,871
52,057	-10,744	273,210	128,545
53,071	-10,532	273,098	128,678
54,086	-10,467	272,875	128,622
55,101	-10,438	272,603	128,509
56,115	-10,276	272,584	128,639
57,130	-9,997	272,489	128,842
58,144	-9,996	272,371	128,775
59,159	-9,986	272,101	128,646
60,174	-9,885	271,884	128,625
61,188	-9,880	271,624	128,495
62,203	-9,950	271,363	128,296
63,217	-10,035	271,289	128,170
64,232	-9,858	270,912	128,144
65,247	-9,942	270,721	127,965
66,261	-9,811	270,373	127,910
67,276	-9,984	270,050	127,586
68,290	-10,116	269,884	127,376
69,305	-10,258	269,534	127,068
70,320	-10,257	269,473	127,029
71,334	-9,978	269,217	127,153
72,349	-10,060	269,169	127,044
73,363	-9,969	268,946	127,010
74,378	-10,029	268,749	126,851
75,393	-9,885	268,373	126,794
76,407	-9,933	268,305	126,707
77,422	-9,790	268,130	126,743
78,436	-10,100	267,963	126,371
79,451	-10,007	267,618	126,282
80,466	-10,207	267,468	126,018
81,480	-10,151	267,196	125,929
82,495	-9,973	267,009	125,991
83,509	-9,871	266,753	125,951
84,524	-9,975	266,555	125,752
85,539	-10,154	266,223	125,423
86,553	-10,188	266,085	125,316
87,568	-10,009	265,823	125,343
88,582	-10,260	265,769	125,079
89,597	-9,989	265,466	125,170
90,611	-9,777	265,342	125,292
91,626	-9,716	265,118	125,230
92,641	-9,898	265,006	125,001
93,655	-10,045	264,752	124,739
94,670	-9,929	264,505	124,716
95,684	-9,987	264,280	124,546
96,699	-9,935	264,199	124,544
97,714	-10,008	263,991	124,369
98,728	-10,236	263,785	124,057
99,743	-9,961	263,284	124,056
100,757	-10,120	263,151	123,840
101,772	-10,050	263,028	123,834
102,787	-9,960	262,863	123,825
103,801	-10,024	262,797	123,726
104,816	-9,849	262,546	123,753
105,830	-9,958	262,393	123,572
106,845	-9,833	262,206	123,585
107,860	-9,986	261,878	123,284
108,874	-10,061	261,869	123,201
109,889	-9,915	261,512	123,152
110,903	-10,014	261,385	122,993
111,918	-10,090	261,350	122,898
112,933	-9,926	260,986	122,862
113,947	-9,783	260,776	122,879
114,962	-9,921	260,566	122,647
115,976	-10,017	260,368	122,457
116,991	-9,860	260,193	122,503
118,006	-9,864	259,969	122,383
119,020	-9,956	259,949	122,281
120,035	-9,707	259,654	122,351
121,049	-9,800	259,594	122,230
122,064	-9,824	259,391	122,102
123,079	-10,004	259,191	121,840
124,093	-10,012	258,860	121,666
125,108	-9,905	258,525	121,591
126,122	-10,337	258,445	121,164
127,137	-10,306	258,253	121,091
128,151	-10,105	258,098	121,183
129,166	-10,083	257,985	121,138
130,181	-9,995	257,563	121,006
131,195	-10,094	257,487	120,873
132,210	-10,080	257,293	120,784
133,224	-9,879	257,202	120,905
134,239	-9,790	256,909	120,834
135,254	-9,966	256,810	120,623
136,268	-9,878	256,497	120,542
137,283	-10,385	256,377	120,036
138,297	-10,302	256,088	119,962
139,312	-10,389	255,868	119,772
140,327	-10,025	255,667	119,982
141,341	-9,682	255,581	120,228
142,356	-9,826	255,453	120,032
143,370	-9,704	255,338	120,073
144,385	-9,561	255,142	120,093
145,400	-9,628	254,935	119,927
146,414	-9,771	254,809	119,734
147,429	-9,822	254,576	119,570
148,443	-9,774	254,414	119,525
149,458	-9,634	254,140	119,506
150,473	-9,666	254,082	119,440
151,487	-9,924	253,873	119,111
152,502	-9,633	253,615	119,228
153,516	-9,716	253,572	119,126
154,531	-9,741	253,316	118,973
155,546	-9,749	253,175	118,889
156,560	-9,589	252,937	118,904
157,575	-9,981	252,705	118,450
158,589	-9,676	252,425	118,569
159,604	-9,556	252,266	118,585
160,619	-9,821	252,290	118,360
161,633	-9,737	252,102	118,333
162,648	-9,641	251,971	118,342
163,662	-9,563	251,745	118,292
164,677	-9,765	251,686	118,082
165,692	-9,630	251,339	118,023
166,706	-9,612	251,085	117,909
167,721	-9,648	250,951	117,805
168,735	-9,833	250,839	117,585
169,750	-9,471	250,653	117,794
170,764	-9,728	250,683	117,580
171,779	-9,618	250,416	117,537
172,794	-9,730	250,290	117,373
173,808	-9,784	250,111	117,233
174,823	-10,090	249,829	116,833
175,837	-10,385	249,522	116,430
176,852	-9,908	249,447	116,786
177,867	-9,583	249,599	117,121
178,881	-9,733	249,449	116,913
179,896	-9,680	249,070	116,770
180,910	-9,573	248,762	116,705
181,925	-9,656	248,726	116,607
182,940	-9,679	248,564	116,503
183,954	-9,771	248,332	116,306
184,969	-9,744	248,316	116,311
185,983	-9,828	248,057	116,109
186,998	-9,560	247,837	116,219
188,013	-9,682	247,738	116,061
189,027	-9,623	247,587	116,029
190,042	-9,607	247,304	115,900
191,056	-9,683	247,082	115,722
192,071	-9,772	247,072	115,633
193,086	-9,605	246,847	115,656
194,100	-9,673	246,621	115,483
195,115	-9,558	246,551	115,536
196,129	-9,487	246,247	115,442
197,144	-9,635	246,016	115,201
198,159	-9,799	245,949	115,023
199,173	-9,616	245,620	115,011
200,188	-9,909	245,596	114,747
201,202	-9,907	245,293	114,596
202,217	-10,116	244,946	114,252
203,232	-10,126	244,798	114,164
204,246	-9,954	244,904	114,346
205,261	-9,411	244,599	114,639
206,275	-10,527	244,372	113,605
207,290	-7,633	245,557	116,536
208,304	-0,584	247,705	123,401
209,319	3,338	248,621	127,106
210,334	3,921	248,607	127,571
211,348	3,936	248,594	127,566
212,363	4,099	248,461	127,622
213,377	4,242	248,442	127,718
214,392	4,115	248,210	127,483
215,407	3,816	247,969	127,100
216,421	4,029	247,811	127,184
217,436	4,135	247,759	127,233
218,450	4,311	247,522	127,246
219,465	4,188	247,280	127,009
220,480	3,731	247,089	126,523
221,494	3,775	246,906	126,454
222,509	3,770	246,872	126,421
223,523	3,856	246,601	126,342
224,538	3,197	246,397	125,685
225,553	3,360	246,249	125,732
226,567	3,611	246,091	125,846
227,582	3,749	245,902	125,851
228,596	3,841	245,765	125,845
229,611	3,509	245,604	125,479
230,626	3,316	245,445	125,229
231,640	3,630	245,289	125,395
232,655	3,473	245,227	125,224
233,669	3,484	244,888	125,049
234,684	3,270	244,833	124,835
235,699	3,672	244,791	125,130
236,713	3,759	244,738	125,163
237,728	3,298	244,345	124,575
238,742	3,469	244,121	124,590
239,757	3,427	243,814	124,387
240,772	3,360	243,841	124,335
241,786	3,533	243,775	124,431
242,801	3,359	243,536	124,158
243,815	3,459	243,285	124,099
244,830	3,575	243,244	124,161
245,844	3,825	243,090	124,273
246,859	3,602	242,874	123,972
247,874	3,304	242,770	123,667
248,888	3,455	242,667	123,725
249,903	3,646	242,417	123,741
250,917	3,691	242,264	123,688
251,932	3,698	242,153	123,626
252,947	3,711	242,010	123,553
253,961	3,360	241,816	123,160
254,976	3,553	241,735	123,263
255,990	3,864	241,460	123,361
257,005	3,532	241,318	123,011
258,020	3,315	241,126	122,729
259,034	3,418	240,966	122,719
260,049	3,804	240,738	122,900
261,063	3,413	240,581	122,497
262,078	3,357	240,558	122,429
263,093	3,690	240,294	122,550
264,107	3,783	240,196	122,563
265,122	3,541	239,932	122,225
266,136	3,663	240,040	122,366
267,151	3,994	239,772	122,482
268,166	3,564	239,693	122,088
269,180	3,339	239,475	121,788
270,195	4,045	239,466	122,334
271,209	4,139	239,239	122,282
272,224	3,508	239,030	121,663
273,239	3,236	238,743	121,291
274,253	3,509	238,636	121,442
275,268	3,584	238,666	121,505
276,282	3,537	238,343	121,293
277,297	3,406	238,135	121,073
278,312	3,613	238,025	121,170
279,326	3,676	238,110	121,252
280,341	3,742	237,779	121,125
281,355	3,723	237,712	121,065
282,370	3,863	237,435	121,023
283,384	3,886	237,120	120,870
284,399	3,394	237,120	120,472
285,414	3,440	236,861	120,366
286,428	3,545	236,901	120,458
287,443	3,680	236,765	120,484
288,457	3,687	236,554	120,372
289,472	3,703	236,444	120,318
290,487	3,458	236,322	120,053
291,501	3,467	236,146	119,959
292,516	3,146	235,874	119,560
293,530	3,383	235,652	119,622
294,545	3,679	235,628	119,829
295,560	3,344	235,589	119,538
296,574	3,396	235,383	119,464
297,589	3,264	235,249	119,282
298,603	4,045	234,996	119,750
299,618	4,003	235,033	119,726
300,633	3,657	234,960	119,409
301,647	3,695	234,746	119,319
302,662	4,079	234,683	119,575
303,676	4,096	234,503	119,485
304,691	3,963	234,442	119,341
305,706	4,066	234,153	119,263
306,720	3,950	233,981	119,075
307,735	3,875	233,708	118,868
308,749	3,546	233,680	118,588
309,764	3,524	233,518	118,479
310,779	3,210	233,145	118,036
311,793	3,057	233,113	117,891
312,808	3,337	233,013	118,046
313,822	3,270	232,722	117,837
314,837	3,252	232,611	117,756
315,852	3,264	232,447	117,672
316,866	3,618	232,442	117,931
317,881	3,941	232,155	118,022
318,895	4,136	232,048	118,107
319,910	4,014	232,110	118,035
320,925	3,419	231,753	117,387
321,939	3,401	231,736	117,354
322,954	3,610	231,514	117,391
323,968	3,223	231,406	117,030
324,983	3,468	231,103	117,054
325,997	3,743	231,108	117,256
327,012	3,975	230,965	117,349
328,027	3,688	230,843	117,058
329,041	3,705	230,756	117,017
330,056	4,114	230,700	117,289
331,070	3,944	230,578	117,087
332,085	3,905	230,405	116,959
333,100	3,977	230,192	116,896
334,114	3,993	229,917	116,758
335,129	4,091	229,823	116,774
336,143	3,952	229,595	116,542
337,158	3,759	229,542	116,359
338,173	3,953	229,451	116,449
339,187	3,807	229,206	116,204
340,202	3,836	229,260	116,243
341,216	3,546	228,999	115,881
342,231	3,814	228,888	116,017
343,246	3,627	228,783	115,812
344,260	3,690	228,693	115,804
345,275	4,104	228,508	116,012
346,289	3,917	228,382	115,797
347,304	4,097	228,192	115,826
348,319	3,941	228,009	115,606
349,333	3,761	227,886	115,397
350,348	3,560	227,666	115,125
351,362	4,012	227,562	115,401
352,377	3,510	227,363	114,914
353,392	3,515	227,052	114,750
354,406	3,722	226,993	114,865
355,421	195,304	1321,054	1397,282
356,435	156,575	1454,341	1397,276
