DTS Sentinel unit serial number:	SN410029Multiplexer serial number:	ORYXHardware model number:	OX2-SRSoftware version number:	ORYX F/W v4,00 Oryx Data Collector v3.7.2.0data status	okinstallation	B5 Nyhavnadifferential loss correction	single-endedforward channel	channel 2reverse channel	N/Adate	2023/12/12time	15:42:13forward acquisition time	300,00reverse acquisition time	0,00gamma	499,1914k internal	0,3157k external	0,3157temperature offset calibration	1,0000default loss term (dB/km)	0,3820temperature slope calibration	1,0000multiplexer offset coefficient	1,0000multiplexer slope coefficient	1,0000fibre end	0,00T internal ref (°C)	15,93T ext. ref 1 (°C)	-0,48T ext. ref 2 (°C)	-0,75length (m)	temperature (°C)	Stokes	anti-Stokes-744,400	98,045	0,099	-0,084
-743,385	-80,418	-0,288	-0,070
-742,371	168,454	0,024	-0,025
-741,356	-44,097	-0,243	0,089
-740,342	-200,000	-0,018	0,102
-739,327	-91,555	-0,388	0,081
-738,312	-124,571	0,082	-0,009
-737,298	51,336	-0,207	-0,145
-736,283	425,031	0,031	-0,049
-735,269	-187,812	-0,272	0,003
-734,254	-159,487	0,158	-0,006
-733,239	-25,492	-0,333	-0,144
-732,225	-168,795	0,210	0,006
-731,210	-88,502	-0,122	0,027
-730,196	-200,000	0,036	0,135
-729,181	-144,957	-0,105	-0,007
-728,167	471,194	-0,060	0,100
-727,152	-175,279	0,122	-0,002
-726,137	110,146	-0,085	0,075
-725,123	35,046	-0,067	-0,043
-724,108	-19,227	-0,141	-0,064
-723,094	-26,339	-0,029	-0,013
-722,079	165,316	-0,102	-0,106
-721,064	-200,000	0,030	-0,099
-720,050	-200,000	-0,026	0,094
-719,035	-73,214	0,153	-0,041
-718,021	-51,177	0,030	-0,010
-717,006	-137,323	-0,040	-0,003
-715,991	130,377	-0,103	-0,097
-714,977	-200,000	0,005	0,061
-713,962	553,757	0,073	0,129
-712,948	800,000	0,018	-0,040
-711,933	216,907	-0,022	0,026
-710,918	28,516	-0,057	-0,035
-709,904	395,716	0,020	0,030
-708,889	32,358	-0,025	-0,016
-707,875	-200,000	-0,042	-0,222
-706,860	-200,000	-0,008	-0,067
-705,845	-200,000	0,042	-0,147
-704,831	149,896	0,119	-0,118
-703,816	-159,204	0,066	0,003
-702,802	96,542	-0,062	0,053
-701,787	800,000	-0,108	-0,275
-700,772	-200,000	-0,005	-0,064
-699,758	-173,242	0,079	-0,002
-698,743	37,138	0,035	0,023
-697,729	800,000	-0,055	-0,116
-696,714	-6,684	-0,035	0,018
-695,699	-200,000	0,003	0,017
-694,685	-143,330	0,055	-0,004
-693,670	731,237	-0,063	-0,124
-692,656	-66,127	0,091	-0,026
-691,641	248,288	-0,070	0,087
-690,627	-200,000	0,013	-0,083
-689,612	-120,496	-0,122	-0,015
-688,597	84,867	0,061	-0,049
-687,583	-38,317	-0,090	0,035
-686,568	682,710	-0,037	-0,072
-685,554	-200,000	0,007	-0,125
-684,539	400,012	0,022	0,034
-683,524	800,000	-0,015	0,044
-682,510	-1,566	0,044	0,023
-681,495	-200,000	-0,003	-0,087
-680,481	-44,094	-0,048	-0,018
-679,466	-200,000	0,013	0,046
-678,451	308,710	-0,010	-0,014
-677,437	800,000	-0,018	0,047
-676,422	297,909	0,037	0,050
-675,408	61,604	-0,037	-0,027
-674,393	64,428	-0,032	0,024
-673,378	-29,795	-0,046	0,019
-672,364	194,686	-0,045	-0,050
-671,349	-115,636	-0,033	-0,005
-670,335	-77,994	-0,135	0,034
-669,320	635,569	0,045	-0,085
-668,305	-200,000	-0,011	0,083
-667,291	-17,886	-0,065	-0,030
-666,276	-200,000	0,020	-0,145
-665,262	-200,000	-0,020	-0,077
-664,247	-24,072	-0,137	-0,060
-663,232	-16,877	0,107	-0,050
-662,218	5,561	-0,020	0,011
-661,203	800,000	-0,035	-0,092
-660,189	-200,000	0,024	0,199
-659,174	192,684	-0,109	0,121
-658,159	168,436	-0,137	-0,143
-657,145	-145,811	-0,164	-0,011
-656,130	-96,570	0,116	0,022
-655,116	127,716	0,060	-0,056
-654,101	371,598	0,082	0,122
-653,086	800,000	-0,018	-0,056
-652,072	24,323	0,033	-0,020
-651,057	-106,314	-0,082	0,013
-650,043	76,161	-0,086	0,067
-649,028	84,029	0,024	0,020
-648,014	-200,000	-0,041	-0,244
-646,999	-182,197	0,096	0,001
-645,984	-22,589	0,029	0,013
-644,970	-200,000	0,012	-0,075
-643,955	-200,000	0,017	-0,194
-642,941	800,000	-0,022	0,052
-641,926	-200,000	0,013	0,091
-640,911	-200,000	0,001	0,095
-639,897	-200,000	-0,011	0,040
-638,882	-200,000	0,007	0,113
-637,868	251,708	0,026	0,033
-636,853	-164,790	-0,200	0,006
-635,838	59,843	0,072	-0,052
-634,824	-164,467	0,069	0,002
-633,809	479,995	-0,051	0,085
-632,795	168,398	0,092	0,097
-631,780	-93,002	0,136	-0,028
-630,765	119,637	-0,111	0,101
-629,751	-109,516	-0,112	0,017
-628,736	-200,000	0,017	-0,084
-627,722	22,542	-0,086	-0,052
-626,707	-200,000	0,006	-0,042
-625,692	-200,000	0,046	0,237
-624,678	-200,000	0,017	0,093
-623,663	-62,816	-0,163	0,049
-622,649	-86,695	0,037	-0,008
-621,634	-14,785	0,051	0,024
-620,619	-200,000	-0,017	-0,134
-619,605	-200,000	-0,059	0,199
-618,590	439,812	-0,114	0,184
-617,576	-154,747	0,060	0,003
-616,561	560,803	-0,050	0,090
-615,546	10,491	-0,094	-0,052
-614,532	-23,643	0,128	-0,056
-613,517	-95,219	-0,073	0,014
-612,503	800,000	-0,025	-0,061
-611,488	-200,000	0,028	0,119
-610,474	800,000	-0,013	-0,034
-609,459	-103,639	0,064	0,011
-608,444	-200,000	0,010	-0,151
-607,430	527,243	-0,090	-0,156
-606,415	38,723	-0,083	-0,054
-605,401	-129,891	0,102	0,010
-604,386	359,329	0,044	-0,064
-603,371	-200,000	-0,024	0,140
-602,357	257,064	-0,025	0,031
-601,342	212,302	0,113	-0,131
-600,328	209,100	-0,144	-0,165
-599,313	89,588	0,057	0,046
-598,298	-186,280	-0,105	-0,001
-597,284	39,817	0,072	-0,048
-596,269	-128,782	-0,068	-0,007
-595,255	800,000	-0,014	0,041
-594,240	-200,000	-0,015	-0,082
-593,225	800,000	-0,023	-0,072
-592,211	535,453	-0,040	-0,070
-591,196	-47,995	-0,090	0,032
-590,182	143,138	-0,036	-0,035
-589,167	-33,680	0,071	0,029
-588,152	-200,000	-0,008	-0,077
-587,138	-200,000	-0,056	-0,221
-586,123	800,000	0,028	0,064
-585,109	-1,205	-0,032	0,016
-584,094	626,514	-0,009	0,017
-583,079	592,676	-0,017	-0,030
-582,065	-135,884	0,134	0,011
-581,050	181,890	-0,013	0,014
-580,036	-200,000	-0,028	0,180
-579,021	282,988	-0,013	-0,018
-578,006	-120,247	0,052	0,006
-576,992	270,081	-0,030	-0,039
-575,977	96,179	0,023	-0,019
-574,963	144,333	0,059	0,058
-573,948	-85,590	-0,129	0,029
-572,934	169,423	-0,077	-0,081
-571,919	646,884	0,039	0,072
-570,904	562,182	-0,042	-0,075
-569,890	-200,000	-0,003	0,016
-568,875	226,482	0,043	0,051
-567,861	800,000	-0,027	0,062
-566,846	-200,000	-0,011	-0,086
-565,831	-87,515	0,101	-0,022
-564,817	-200,000	-0,019	-0,065
-563,802	-200,000	0,003	-0,103
-562,788	-46,806	-0,056	-0,020
-561,773	431,878	0,051	0,082
-560,758	800,000	0,034	0,084
-559,744	153,986	0,050	-0,050
-558,729	-200,000	-0,067	-0,000
-557,715	153,184	0,053	-0,053
-556,700	-127,723	-0,135	-0,014
-555,685	-200,000	-0,005	0,018
-554,671	392,047	-0,094	-0,144
-553,656	800,000	0,066	0,172
-552,642	-100,520	0,032	0,006
-551,627	52,050	0,052	0,036
-550,612	-56,226	-0,031	-0,010
-549,598	-200,000	0,036	-0,224
-548,583	-200,000	-0,023	-0,082
-547,569	289,237	0,053	0,071
-546,554	-200,000	0,014	0,131
-545,539	119,838	-0,049	0,045
-544,525	-200,000	0,020	0,067
-543,510	552,544	-0,087	-0,154
-542,496	-122,106	-0,009	-0,001
-541,481	-52,595	0,139	-0,047
-540,466	-17,462	-0,098	-0,045
-539,452	-200,000	0,034	0,167
-538,437	-115,026	-0,034	-0,005
-537,423	86,846	0,095	-0,076
-536,408	-200,000	0,027	0,112
-535,393	-47,019	0,061	-0,022
-534,379	-30,030	0,077	-0,032
-533,364	800,000	-0,064	-0,186
-532,350	800,000	-0,037	-0,116
-531,335	-43,231	0,065	0,024
-530,321	-200,000	-0,013	0,122
-529,306	800,000	-0,040	0,117
-528,291	256,966	-0,070	-0,088
-527,277	-200,000	0,000	0,010
-526,262	-0,422	-0,087	0,045
-525,248	310,493	-0,031	-0,042
-524,233	-70,207	-0,010	-0,003
-523,218	-121,180	-0,071	0,009
-522,204	41,099	0,092	0,061
-521,189	-101,686	-0,033	-0,006
-520,175	-55,251	-0,083	-0,027
-519,160	-54,879	-0,013	-0,004
-518,145	110,156	0,048	0,042
-517,131	-200,000	0,004	-0,080
-516,116	18,849	0,045	-0,026
-515,102	82,157	0,005	0,004
-514,087	-200,000	0,010	0,054
-513,072	800,000	0,040	0,103
-512,058	168,029	-0,049	-0,051
-511,043	-111,427	0,158	-0,023
-510,029	800,000	0,027	0,059
-509,014	4,723	0,101	-0,054
-507,999	-63,328	-0,068	-0,020
-506,985	-200,000	0,021	0,148
-505,970	38,349	-0,160	-0,104
-504,956	-200,000	-0,020	-0,148
-503,941	263,088	-0,039	-0,049
-502,926	622,521	0,037	-0,068
-501,912	-200,000	-0,016	-0,066
-500,897	187,445	0,079	0,087
-499,883	-107,275	-0,084	-0,013
-498,868	5,538	-0,101	-0,054
-497,853	62,520	0,102	-0,074
-496,839	800,000	0,003	-0,008
-495,824	-128,617	0,144	-0,015
-494,810	17,865	-0,072	-0,042
-493,795	800,000	0,040	0,118
-492,781	26,773	-0,044	0,027
-491,766	217,362	0,114	0,133
-490,751	800,000	-0,064	0,187
-489,737	-200,000	-0,002	0,034
-488,722	316,037	0,055	-0,077
-487,708	-33,839	-0,038	0,015
-486,693	30,225	-0,059	0,037
-485,678	45,028	0,095	-0,064
-484,664	800,000	-0,018	0,053
-483,649	533,474	0,054	0,094
-482,635	-46,773	0,117	-0,041
-481,620	-19,615	0,070	-0,031
-480,605	-200,000	-0,011	0,119
-479,591	105,173	0,098	0,084
-478,576	506,930	0,019	-0,032
-477,562	171,840	-0,076	-0,079
-476,547	-200,000	-0,008	-0,036
-475,532	-47,598	0,106	-0,037
-474,518	-200,000	-0,025	0,161
-473,503	-55,592	0,002	0,001
-472,489	702,621	0,027	0,051
-471,474	-2,272	0,121	0,062
-470,459	254,842	-0,039	-0,049
-469,445	102,225	0,052	0,045
-468,430	217,797	-0,083	-0,097
-467,416	9,944	-0,060	-0,033
-466,401	211,476	-0,100	-0,115
-465,386	-124,886	0,124	0,014
-464,372	193,099	-0,017	0,019
-463,357	-143,190	0,016	-0,001
-462,343	109,417	-0,135	0,118
-461,328	-116,333	0,055	-0,007
-460,313	-200,000	-0,028	-0,127
-459,299	249,731	0,040	0,049
-458,284	-83,275	0,072	0,017
-457,270	-81,657	0,113	0,027
-456,255	-129,631	-0,113	-0,011
-455,241	183,007	-0,012	0,013
-454,226	-200,000	0,019	-0,092
-453,211	-192,736	-0,123	-0,001
-452,197	-31,266	0,038	-0,016
-451,182	-11,421	0,099	0,047
-450,168	45,357	0,045	0,030
-449,153	-200,000	0,009	-0,100
-448,138	-81,155	0,070	0,017
-447,124	-200,000	-0,002	-0,014
-446,109	-200,000	0,016	-0,161
-445,095	800,000	0,049	0,108
-444,080	800,000	-0,071	0,158
-443,065	161,683	0,047	0,048
-442,051	215,568	0,072	0,084
-441,036	-200,000	0,016	0,119
-440,022	204,647	0,013	0,015
-439,007	-11,824	0,057	0,027
-437,992	-12,440	0,134	0,064
-436,978	-76,550	0,149	0,038
-435,963	-120,327	-0,051	-0,006
-434,949	42,331	0,091	0,060
-433,934	800,000	-0,027	-0,062
-432,919	-200,000	-0,005	-0,027
-431,905	18,138	0,077	-0,044
-430,890	-200,000	-0,019	0,116
-429,876	55,946	0,068	0,048
-428,861	800,000	0,016	-0,047
-427,846	800,000	-0,063	0,132
-426,832	409,384	-0,070	0,109
-425,817	-36,842	0,085	-0,033
-424,803	113,193	0,129	0,114
-423,788	360,990	0,035	0,051
-422,773	800,000	0,022	-0,057
-421,759	-200,000	0,014	0,102
-420,744	800,000	-0,018	0,043
-419,730	-200,000	-0,028	-0,098
-418,715	0,788	0,149	-0,077
-417,701	800,000	0,078	-0,178
-416,686	176,623	-0,034	-0,036
-415,671	-116,533	0,055	-0,007
-414,657	800,000	0,014	-0,041
-413,642	-200,000	0,045	0,164
-412,628	339,384	-0,076	0,108
-411,613	319,914	0,033	0,045
-410,598	-66,488	-0,109	0,031
-409,584	-200,000	0,042	0,168
-408,569	800,000	0,043	0,116
-407,555	455,967	-0,020	0,033
-406,540	-148,627	-0,058	0,003
-405,525	-90,695	0,089	-0,019
-404,511	135,854	0,042	-0,039
-403,496	465,015	0,026	0,042
-402,482	-94,908	-0,049	-0,010
-401,467	33,984	0,040	0,025
-400,452	255,378	0,065	0,081
-399,438	177,533	0,027	0,028
-398,423	52,590	0,009	0,007
-397,409	432,189	-0,075	-0,119
-396,394	800,000	-0,047	-0,132
-395,379	-136,794	0,085	-0,007
-394,365	-200,000	-0,025	0,082
-393,350	800,000	0,049	-0,126
-392,336	26,443	-0,025	-0,015
-391,321	-38,550	0,041	-0,016
-390,306	-200,000	0,023	-0,111
-389,292	2,220	-0,107	-0,056
-388,277	-63,517	0,055	0,016
-387,263	0,379	0,047	-0,024
-386,248	-200,000	-0,028	0,127
-385,233	-71,780	-0,132	-0,036
-384,219	243,932	0,034	0,042
-383,204	13,390	-0,022	0,013
-382,190	-200,000	0,011	0,136
-381,175	-52,700	0,056	-0,019
-380,160	-90,406	0,088	0,018
-379,146	147,687	-0,029	0,028
-378,131	-16,536	0,047	0,022
-377,117	-200,000	-0,013	0,071
-376,102	-130,090	-0,153	-0,015
-375,088	-14,389	-0,079	0,037
-374,073	725,496	0,014	0,028
-373,058	800,000	0,038	0,104
-372,044	55,803	-0,062	-0,044
-371,029	-67,558	-0,064	-0,018
-370,015	-200,000	-0,001	0,085
-369,000	-200,000	-0,012	-0,049
-367,985	25,649	-0,123	-0,074
-366,971	-200,000	-0,019	-0,141
-365,956	-200,000	-0,031	0,111
-364,942	-97,178	-0,100	0,019
-363,927	-200,000	0,003	0,131
-362,912	280,970	0,031	0,040
-361,898	-196,351	-0,188	-0,001
-360,883	-109,030	-0,159	0,024
-359,869	161,379	0,045	-0,046
-358,854	68,409	0,124	-0,092
-357,839	277,174	0,030	0,039
-356,825	764,803	0,074	-0,146
-355,810	605,409	0,003	-0,005
-354,796	-104,552	-0,112	-0,019
-353,781	-200,000	-0,029	-0,102
-352,766	-200,000	-0,006	-0,048
-351,752	-200,000	0,008	-0,030
-350,737	64,321	0,113	-0,083
-349,723	299,715	-0,033	-0,044
-348,708	800,000	-0,073	-0,161
-347,693	800,000	0,099	-0,218
-346,679	800,000	-0,075	-0,222
-345,664	-163,376	-0,088	0,003
-344,650	800,000	-0,016	0,034
-343,635	538,747	0,050	-0,087
-342,620	-200,000	0,018	0,065
-341,606	-135,963	0,087	0,007
-340,591	732,234	0,039	0,076
-339,577	589,237	-0,040	0,072
-338,562	-200,000	-0,004	-0,017
-337,548	-200,000	-0,010	-0,061
-336,533	319,926	0,011	-0,015
-335,518	800,000	-0,028	-0,059
-334,504	-142,576	-0,080	-0,006
-333,489	98,156	-0,037	0,031
-332,475	-200,000	0,005	0,025
-331,460	800,000	-0,045	-0,129
-330,445	19,557	-0,066	-0,038
-329,431	0,787	0,141	0,073
-328,416	-6,609	0,034	-0,017
-327,402	219,106	-0,085	-0,099
-326,387	800,000	0,010	0,022
-325,372	372,620	0,062	-0,091
-324,358	-13,603	0,036	0,017
-323,343	-22,341	-0,045	-0,020
-322,329	-200,000	0,011	0,044
-321,314	800,000	-0,056	0,134
-320,299	-147,767	0,116	-0,007
-319,285	-74,311	-0,085	-0,022
-318,270	0,889	0,119	0,062
-317,256	-23,385	-0,060	0,026
-316,241	47,626	-0,136	0,092
-315,226	-100,505	0,103	0,018
-314,212	2,174	0,022	-0,012
-313,197	311,552	-0,051	-0,069
-312,183	210,948	0,019	-0,022
-311,168	-161,864	-0,088	-0,003
-310,153	383,322	0,028	0,041
-309,139	-97,690	0,084	0,016
-308,124	190,899	-0,061	-0,067
-307,110	-113,964	0,075	0,010
-306,095	-200,000	-0,006	-0,055
-305,080	-200,000	0,038	-0,168
-304,066	-80,434	-0,049	-0,012
-303,051	-64,868	-0,056	-0,016
-302,037	-72,940	-0,081	0,021
-301,022	-200,000	0,004	-0,059
-300,008	-142,811	0,202	-0,014
-298,993	-166,385	-0,122	0,004
-297,978	707,883	0,038	0,073
-296,964	-200,000	0,031	0,159
-295,949	-14,560	-0,027	-0,013
-294,935	-40,500	-0,244	-0,091
-293,920	652,346	0,022	0,042
-292,905	-3,345	0,178	0,090
-291,891	282,701	0,027	0,035
-290,876	-33,029	-0,116	0,047
-289,862	295,079	0,046	0,061
-288,847	36,553	-0,060	-0,038
-287,832	-78,931	0,122	-0,030
-286,818	16,677	-0,132	-0,076
-285,803	164,697	0,029	0,029
-284,789	-200,000	-0,006	0,047
-283,774	265,857	0,075	-0,095
-282,759	301,822	-0,070	-0,094
-281,745	-200,000	-0,015	-0,141
-280,730	158,168	-0,036	-0,036
-279,716	800,000	0,034	-0,083
-278,701	-200,000	-0,005	-0,094
-277,686	-184,529	0,084	0,001
-276,672	311,508	0,047	0,064
-275,657	800,000	0,013	0,027
-274,643	-74,346	0,127	-0,033
-273,628	572,498	-0,071	-0,126
-272,613	-1,627	-0,109	-0,055
-271,599	-200,000	0,032	0,115
-270,584	-200,000	0,029	0,124
-269,570	25,753	0,022	-0,014
-268,555	-10,427	-0,036	0,017
-267,540	91,682	-0,108	0,088
-266,526	-135,616	-0,140	0,012
-265,511	344,553	-0,053	0,075
-264,497	108,833	0,042	-0,037
-263,482	561,294	-0,018	0,032
-262,467	144,444	0,049	-0,047
-261,453	-200,000	-0,012	-0,045
-260,438	-200,000	0,003	-0,037
-259,424	-101,205	-0,139	0,024
-258,409	-163,758	0,105	-0,003
-257,395	800,000	0,030	-0,070
-256,380	800,000	0,006	-0,012
-255,365	123,428	0,133	0,120
-254,351	34,416	-0,093	0,058
-253,336	-60,409	0,069	0,021
-252,322	-200,000	0,002	-0,077
-251,307	59,133	-0,045	-0,032
-250,292	144,531	0,049	-0,047
-249,278	-200,000	-0,024	0,146
-248,263	91,221	0,148	0,120
-247,249	499,788	0,089	-0,150
-246,234	156,831	0,031	-0,031
-245,219	800,000	-0,052	-0,145
-244,205	-14,061	-0,016	0,008
-243,190	-200,000	0,040	0,139
-242,176	-184,280	-0,108	0,001
-241,161	31,277	-0,025	-0,016
-240,146	800,000	-0,041	0,115
-239,132	-200,000	0,006	0,181
-238,117	-95,145	-0,018	0,004
-237,103	-77,467	-0,080	-0,020
-236,088	-27,931	0,176	0,073
-235,073	-167,263	0,151	-0,004
-234,059	-79,206	0,126	0,031
-233,044	-77,024	-0,070	-0,017
-232,030	85,899	0,059	-0,047
-231,015	359,563	0,042	-0,060
-230,000	495,756	0,023	-0,038
-228,986	-64,128	-0,071	0,021
-227,971	538,577	-0,011	0,020
-226,957	-200,000	0,025	-0,088
-225,942	358,299	-0,022	0,032
-224,927	-108,411	0,095	0,015
-223,913	-18,516	0,045	-0,020
-222,898	40,323	-0,058	-0,037
-221,884	-200,000	-0,016	-0,093
-220,869	800,000	-0,031	0,065
-219,855	3,866	-0,110	0,058
-218,840	-44,017	-0,043	-0,015
-217,825	-168,827	-0,088	0,002
-216,811	361,853	-0,119	-0,172
-215,796	108,295	-0,085	-0,073
-214,782	-200,000	0,005	-0,051
-213,767	-145,597	0,057	-0,004
-212,752	674,781	-0,068	0,128
-211,738	-140,464	0,110	0,008
-210,723	-200,000	-0,002	-0,012
-209,709	222,726	-0,076	-0,089
-208,694	-200,000	0,025	-0,080
-207,679	538,492	-0,024	0,042
-206,665	800,000	0,034	0,108
-205,650	-200,000	-0,029	0,132
-204,636	-62,218	-0,009	-0,003
-203,621	253,977	-0,026	0,033
-202,606	800,000	-0,020	-0,049
-201,592	-200,000	-0,034	-0,148
-200,577	-200,000	0,001	-0,039
-199,563	-200,000	-0,006	-0,157
-198,548	55,717	-0,003	-0,002
-197,533	-200,000	-0,019	0,133
-196,519	190,996	-0,069	-0,075
-195,504	-200,000	0,014	-0,153
-194,490	17,119	-0,059	-0,034
-193,475	-164,520	0,052	-0,002
-192,460	800,000	-0,032	-0,069
-191,446	800,000	-0,035	0,094
-190,431	21,368	0,097	0,057
-189,417	186,987	-0,095	-0,102
-188,402	-200,000	-0,030	0,116
-187,387	214,011	0,073	0,084
-186,373	-77,917	0,116	-0,029
-185,358	-94,601	0,128	-0,025
-184,344	587,148	-0,032	0,057
-183,329	94,866	0,088	0,072
-182,315	800,000	-0,041	0,086
-181,300	-200,000	0,018	-0,063
-180,285	-24,802	-0,139	-0,060
-179,271	-149,831	0,059	0,003
-178,256	-25,231	-0,122	0,052
-177,242	800,000	-0,026	-0,069
-176,227	-44,785	0,089	0,032
-175,212	-23,688	0,056	0,024
-174,198	-63,519	-0,079	0,023
-173,183	740,886	0,059	-0,115
-172,169	-200,000	-0,019	0,075
-171,154	176,640	0,070	-0,073
-170,139	-135,783	0,040	0,003
-169,125	800,000	0,025	0,064
-168,110	-74,719	-0,113	0,029
-167,096	-74,907	0,025	0,006
-166,081	-38,725	0,057	-0,021
-165,066	83,317	-0,113	0,089
-164,052	-154,022	-0,144	-0,007
-163,037	-129,742	-0,079	-0,008
-162,023	-39,348	0,099	0,037
-161,008	273,360	-0,024	0,031
-159,993	800,000	-0,022	0,052
-158,979	-139,269	0,040	-0,003
-157,964	-200,000	0,007	0,098
-156,950	-45,243	-0,035	0,012
-155,935	-98,698	-0,201	-0,037
-154,920	-141,783	0,062	0,004
-153,906	534,953	0,036	0,061
-152,891	-134,907	-0,075	-0,006
-151,877	-200,000	0,004	-0,063
-150,862	-42,642	-0,094	0,034
-149,847	103,900	0,108	0,091
-148,833	82,805	0,069	-0,054
-147,818	-90,289	0,114	0,024
-146,804	-17,844	0,087	-0,039
-145,789	-105,177	-0,061	-0,010
-144,775	-79,616	-0,087	0,021
-143,760	-200,000	-0,000	-0,194
-142,745	5,761	0,066	0,035
-141,731	793,789	0,009	-0,017
-140,716	-200,000	0,031	0,102
-139,702	321,842	0,043	0,059
-138,687	800,000	0,035	-0,109
-137,672	447,152	-0,006	0,009
-136,658	79,657	-0,127	-0,098
-135,643	-112,177	0,044	0,006
-134,629	-75,664	0,044	-0,011
-133,614	-200,000	0,008	0,045
-132,599	-134,057	0,086	0,008
-131,585	82,180	0,077	-0,060
-130,570	188,058	-0,096	0,104
-129,556	-87,322	-0,115	-0,025
-128,541	800,000	0,029	-0,078
-127,526	107,918	-0,041	0,035
-126,512	97,283	0,077	0,063
-125,497	538,697	0,092	0,158
-124,483	-200,000	0,011	-0,063
-123,468	465,312	0,027	0,044
-122,453	-200,000	-0,011	-0,062
-121,439	-200,000	-0,003	-0,025
-120,424	139,758	0,095	-0,090
-119,410	63,794	0,054	0,039
-118,395	800,000	-0,007	0,020
-117,380	234,373	0,055	0,065
-116,366	-141,984	0,130	-0,009
-115,351	395,588	0,038	0,057
-114,337	-170,618	-0,064	-0,002
-113,322	-80,639	-0,135	-0,032
-112,307	-17,305	0,138	0,062
-111,293	290,899	0,098	0,129
-110,278	-36,262	0,061	-0,023
-109,264	-58,818	0,207	0,064
-108,249	173,140	-0,085	0,088
-107,234	-75,439	0,021	-0,005
-106,220	8,916	-0,115	0,062
-105,205	754,374	0,016	0,031
-104,191	-156,425	0,021	-0,001
-103,176	236,824	0,080	-0,095
-102,162	3,781	0,169	0,089
-101,147	468,138	0,094	0,152
-100,132	-90,431	-0,098	0,020
-99,118	-200,000	-0,003	-0,019
-98,103	634,503	-0,037	0,068
-97,089	-200,000	-0,022	0,157
-96,074	124,948	0,123	0,111
-95,059	235,047	-0,090	-0,107
-94,045	800,000	-0,033	0,083
-93,030	-200,000	-0,009	0,070
-92,016	-99,751	-0,052	-0,009
-91,001	-200,000	-0,001	-0,072
-89,986	-200,000	0,017	0,079
-88,972	4,049	-0,045	-0,023
-87,957	-38,873	-0,041	0,016
-86,943	28,012	-0,092	0,056
-85,928	10,773	0,141	-0,077
-84,913	133,407	0,153	-0,142
-83,899	-200,000	-0,006	-0,064
-82,884	26,439	0,126	-0,076
-81,870	-200,000	0,011	-0,049
-80,855	-95,419	0,063	-0,012
-79,840	800,000	-0,035	0,079
-78,826	-129,354	-0,057	-0,006
-77,811	468,735	0,045	0,073
-76,797	584,181	0,033	-0,059
-75,782	800,000	-0,027	-0,063
-74,767	-6,712	-0,128	0,062
-73,753	-200,000	-0,031	0,111
-72,738	800,000	0,048	0,111
-71,724	-200,000	-0,027	0,147
-70,709	184,595	0,094	-0,100
-69,694	-109,875	-0,103	0,015
-68,680	187,099	0,072	0,077
-67,665	290,773	-0,013	0,017
-66,651	-200,000	-0,021	-0,143
-65,636	800,000	0,026	0,053
-64,622	800,000	-0,052	-0,135
-63,607	183,476	-0,041	0,044
-62,592	187,034	-0,078	-0,084
-61,578	-200,000	0,028	0,095
-60,563	-1,293	0,109	0,055
-59,549	-200,000	0,006	0,132
-58,534	-23,093	-1,903	-0,820
-57,519	800,000	-0,335	-0,870
-56,505	-200,000	-1,115	-4,941
-55,490	0,149	0,735	0,375
-54,476	800,000	5,207	12,076
-53,461	-200,000	17,190	284,276
-52,446	800,000	722,620	2230,619
-51,432	545,440	1638,317	2821,914
-50,417	112,289	1631,118	1415,759
-49,403	76,302	1286,746	977,366
-48,388	32,911	1029,152	638,370
-47,373	20,344	990,902	573,159
-46,359	18,761	979,308	561,231
-45,344	16,255	975,120	550,593
-44,330	16,467	973,417	550,307
-43,315	15,908	972,043	547,677
-42,300	15,978	970,731	547,146
-41,286	15,939	969,724	546,428
-40,271	15,905	968,754	545,751
-39,257	15,991	967,817	545,481
-38,242	16,005	966,914	544,994
-37,227	15,989	966,357	544,609
-36,213	15,959	965,333	543,913
-35,198	15,929	964,474	543,309
-34,184	15,978	963,828	543,084
-33,169	15,946	962,577	542,253
-32,154	15,910	961,854	541,707
-31,140	15,950	961,026	541,348
-30,125	15,993	960,061	540,922
-29,111	15,959	959,424	540,432
-28,096	15,951	958,786	540,026
-27,082	16,016	958,070	539,812
-26,067	15,935	957,367	539,131
-25,052	15,984	956,424	538,737
-24,038	15,898	955,823	538,100
-23,023	15,924	954,992	537,696
-22,009	15,967	954,667	537,629
-20,994	16,001	953,992	537,338
-19,979	16,010	953,209	536,903
-18,965	15,963	952,627	536,403
-17,950	15,984	951,945	536,066
-16,936	15,968	951,463	535,723
-15,921	15,896	950,710	535,048
-14,906	15,850	950,007	534,482
-13,892	15,829	949,394	534,048
-12,877	15,812	948,817	533,650
-11,863	15,747	948,281	533,119
-10,848	15,831	947,666	533,020
-9,833	15,899	947,349	533,036
-8,819	15,908	946,550	532,594
-7,804	15,909	945,700	532,097
-6,790	15,878	945,159	531,674
-5,775	15,932	944,465	531,435
-4,760	15,973	943,909	531,230
-3,746	15,814	943,510	530,481
-2,731	15,741	942,576	529,703
-1,717	15,723	942,174	529,400
-0,702	15,732	941,391	528,968
0,313	15,518	940,748	528,728
1,327	18,620	938,440	537,168
2,342	27,225	796,305	478,663
3,356	23,955	460,332	271,670
4,371	-2,887	314,829	157,229
5,386	-6,985	296,409	143,866
6,400	-8,931	290,532	139,067
7,415	-9,042	287,877	137,675
8,429	-9,482	286,496	136,570
9,444	-9,578	285,600	136,038
10,459	-9,395	285,035	135,935
11,473	-9,467	284,448	135,573
12,488	-9,449	283,837	135,287
13,502	-9,679	283,285	134,789
14,517	-9,505	282,952	134,787
15,531	-9,417	282,504	134,647
16,546	-9,546	282,122	134,328
17,561	-9,462	281,726	134,209
18,575	-9,263	281,433	134,249
19,590	-9,420	281,005	133,881
20,604	-9,432	280,779	133,750
21,619	-9,328	280,324	133,621
22,634	-9,424	280,022	133,373
23,648	-9,609	279,907	133,130
24,663	-9,511	279,515	133,025
25,677	-9,518	279,235	132,873
26,692	-9,496	279,029	132,784
27,707	-9,524	278,665	132,572
28,721	-9,534	278,297	132,377
29,736	-9,459	278,126	132,355
30,750	-9,563	277,912	132,142
31,765	-9,648	277,625	131,914
32,780	-9,386	277,448	132,066
33,794	-9,356	277,035	131,885
34,809	-9,548	276,963	131,658
35,823	-9,390	276,539	131,594
36,838	-9,467	276,416	131,451
37,853	-9,526	276,025	131,197
38,867	-9,494	275,849	131,133
39,882	-9,512	275,620	130,995
40,896	-9,498	275,429	130,906
41,911	-9,563	275,225	130,736
42,926	-9,446	274,902	130,681
43,940	-9,628	274,799	130,450
44,955	-9,415	274,353	130,425
45,969	-9,467	274,269	130,325
46,984	-9,502	273,891	130,101
47,999	-10,043	273,660	129,475
49,013	-9,999	273,478	129,419
50,028	-10,065	273,178	129,203
51,042	-10,168	272,780	128,907
52,057	-10,337	272,586	128,648
53,071	-10,211	272,407	128,668
54,086	-10,122	272,298	128,688
55,101	-9,740	271,907	128,846
56,115	-9,891	271,969	128,724
57,130	-9,467	271,847	129,048
58,144	-9,569	271,579	128,814
59,159	-9,343	271,331	128,895
60,174	-9,252	271,197	128,903
61,188	-9,261	270,907	128,745
62,203	-9,382	270,752	128,549
63,217	-9,329	270,318	128,380
64,232	-9,419	270,166	128,214
65,247	-9,444	270,136	128,165
66,261	-9,177	269,672	128,179
67,276	-9,519	269,626	127,831
68,290	-9,717	269,315	127,491
69,305	-9,854	268,986	127,199
70,320	-9,833	268,901	127,166
71,334	-9,707	268,750	127,199
72,349	-9,289	268,362	127,386
73,363	-9,429	268,299	127,216
74,378	-9,205	267,912	127,225
75,393	-9,355	267,809	127,028
76,407	-9,294	267,641	126,994
77,422	-9,356	267,447	126,833
78,436	-9,385	267,240	126,697
79,451	-9,302	266,943	126,621
80,466	-9,375	266,678	126,418
81,480	-9,579	266,522	126,148
82,495	-9,622	266,353	126,017
83,509	-9,446	266,147	126,068
84,524	-9,563	265,837	125,805
85,539	-9,748	265,607	125,517
86,553	-9,693	265,381	125,449
87,568	-9,685	265,342	125,426
88,582	-9,604	265,121	125,384
89,597	-9,547	264,917	125,327
90,611	-9,602	264,804	125,213
91,626	-9,340	264,609	125,345
92,641	-9,329	264,275	125,186
93,655	-9,506	264,092	124,929
94,670	-9,451	263,901	124,877
95,684	-9,480	263,779	124,782
96,699	-9,378	263,515	124,738
97,714	-9,395	263,274	124,597
98,728	-9,579	263,011	124,297
99,743	-9,601	262,862	124,196
100,757	-9,780	262,647	123,923
101,772	-9,641	262,418	123,928
102,787	-9,657	262,228	123,813
103,801	-9,394	262,140	123,995
104,816	-9,423	262,044	123,912
105,830	-9,391	261,765	123,798
106,845	-9,307	261,609	123,788
107,860	-9,438	261,348	123,537
108,874	-9,505	261,164	123,379
109,889	-9,476	260,897	123,268
110,903	-9,474	260,680	123,156
111,918	-9,571	260,593	123,018
112,933	-9,493	260,160	122,872
113,947	-9,296	260,006	122,962
114,962	-9,306	259,922	122,902
115,976	-9,542	259,856	122,652
116,991	-9,379	259,543	122,637
118,006	-9,365	259,405	122,574
119,020	-9,363	259,201	122,468
120,035	-9,270	259,206	122,541
121,049	-9,376	258,905	122,295
122,064	-9,459	258,789	122,156
123,079	-9,343	258,488	122,105
124,093	-9,341	258,344	122,028
125,108	-9,550	257,998	121,671
126,122	-9,784	257,709	121,320
127,137	-9,767	257,516	121,232
128,151	-9,727	257,398	121,201
129,166	-9,661	257,293	121,198
130,181	-9,602	257,014	121,107
131,195	-9,725	256,831	120,904
132,210	-9,649	256,726	120,909
133,224	-9,489	256,607	120,982
134,239	-9,471	256,280	120,832
135,254	-9,401	256,210	120,849
136,268	-9,388	255,874	120,691
137,283	-9,712	255,647	120,293
138,297	-9,759	255,445	120,146
139,312	-9,727	255,182	120,040
140,327	-9,405	255,150	120,292
141,341	-9,305	255,061	120,325
142,356	-9,438	254,941	120,144
143,370	-9,363	254,833	120,146
144,385	-9,235	254,833	120,246
145,400	-9,162	254,227	120,012
146,414	-9,217	254,136	119,911
147,429	-9,268	253,884	119,738
148,443	-9,344	253,823	119,633
149,458	-9,043	253,663	119,805
150,473	-9,141	253,542	119,653
151,487	-9,290	253,148	119,329
152,502	-9,502	253,095	119,113
153,516	-9,223	252,971	119,282
154,531	-9,329	252,709	119,057
155,546	-9,208	252,419	119,013
156,560	-9,090	252,374	119,082
157,575	-9,439	252,048	118,620
158,589	-9,507	252,039	118,548
159,604	-9,125	251,768	118,734
160,619	-9,148	251,637	118,643
161,633	-9,245	251,637	118,549
162,648	-9,203	251,317	118,424
163,662	-9,194	251,186	118,359
164,677	-9,303	250,982	118,160
165,692	-9,229	250,927	118,186
166,706	-9,323	250,648	117,965
167,721	-9,187	250,440	117,971
168,735	-9,224	250,190	117,811
169,750	-9,216	250,221	117,823
170,764	-9,010	250,002	117,883
171,779	-9,053	249,910	117,793
172,794	-9,070	249,836	117,733
173,808	-9,120	249,433	117,490
174,823	-9,482	249,052	116,996
175,837	-9,804	249,000	116,691
176,852	-9,467	248,949	116,940
177,867	-9,134	248,752	117,116
178,881	-9,272	248,672	116,953
179,896	-9,127	248,473	116,969
180,910	-9,245	248,337	116,797
181,925	-9,159	248,228	116,807
182,940	-9,278	248,121	116,646
183,954	-9,121	247,784	116,609
184,969	-9,205	247,754	116,514
185,983	-9,207	247,463	116,366
186,998	-9,038	247,386	116,460
188,013	-9,161	247,141	116,232
189,027	-9,093	246,900	116,164
190,042	-8,948	246,739	116,199
191,056	-9,093	246,681	116,040
192,071	-9,094	246,311	115,856
193,086	-9,002	246,229	115,883
194,100	-9,356	246,042	115,492
195,115	-9,061	245,951	115,682
196,129	-9,135	245,745	115,513
197,144	-9,303	245,583	115,288
198,159	-9,167	245,251	115,235
199,173	-9,203	245,159	115,152
200,188	-9,285	245,019	115,008
201,202	-9,634	244,748	114,583
202,217	-9,716	244,387	114,336
203,232	-9,760	244,191	114,198
204,246	-9,395	244,311	114,544
205,261	-8,987	244,199	114,817
206,275	-9,902	243,639	113,793
207,290	-6,769	244,896	116,950
208,304	0,233	247,336	123,911
209,319	3,702	248,255	127,239
210,334	4,132	248,139	127,524
211,348	4,279	248,102	127,615
212,363	4,405	247,970	127,640
213,377	4,704	247,823	127,800
214,392	4,565	247,597	127,558
215,407	4,534	247,360	127,398
216,421	4,148	247,256	127,015
217,436	4,500	247,187	127,259
218,450	4,791	246,970	127,375
219,465	4,329	246,804	126,898
220,480	3,944	246,585	126,457
221,494	4,221	246,484	126,622
222,509	4,296	246,341	126,599
223,523	4,363	245,918	126,426
224,538	3,834	245,954	125,999
225,553	3,815	245,847	125,917
226,567	4,086	245,667	126,036
227,582	4,166	245,331	125,917
228,596	4,389	245,349	126,097
229,611	3,895	245,122	125,566
230,626	3,892	244,884	125,431
231,640	3,923	244,666	125,333
232,655	3,878	244,642	125,274
233,669	3,677	244,403	124,976
234,684	3,682	244,203	124,867
235,699	4,060	244,122	125,121
236,713	4,309	244,142	125,323
237,728	3,876	243,927	124,850
238,742	3,958	243,564	124,719
239,757	3,647	243,363	124,353
240,772	3,990	243,131	124,501
241,786	3,862	243,223	124,434
242,801	3,876	242,930	124,284
243,815	3,799	242,798	124,143
244,830	4,000	242,740	124,265
245,844	3,969	242,559	124,136
246,859	3,934	242,274	123,951
247,874	3,952	242,130	123,881
248,888	3,876	242,045	123,765
249,903	4,116	241,941	123,894
250,917	4,097	241,765	123,778
251,932	4,273	241,688	123,868
252,947	4,131	241,556	123,675
253,961	3,870	241,308	123,328
254,976	3,958	241,222	123,344
255,990	4,160	241,039	123,401
257,005	3,827	240,750	122,976
258,020	3,719	240,629	122,817
259,034	3,682	240,513	122,716
260,049	3,899	240,326	122,783
261,063	3,842	240,177	122,651
262,078	3,796	239,927	122,476
263,093	4,134	239,831	122,685
264,107	4,379	239,731	122,818
265,122	3,843	239,518	122,272
266,136	4,046	239,389	122,356
267,151	4,241	239,319	122,465
268,166	3,825	239,033	121,977
269,180	3,834	238,850	121,880
270,195	4,398	238,994	122,390
271,209	4,506	238,995	122,465
272,224	4,099	238,435	121,846
273,239	3,511	238,249	121,275
274,253	3,774	238,162	121,427
275,268	3,971	237,971	121,475
276,282	4,059	237,841	121,467
277,297	3,764	237,708	121,155
278,312	3,898	237,601	121,196
279,326	4,184	237,374	121,294
280,341	4,198	237,180	121,196
281,355	4,000	237,141	121,009
282,370	4,091	237,049	121,023
283,384	3,929	236,822	120,769
284,399	3,693	236,662	120,491
285,414	3,854	236,521	120,535
286,428	3,790	236,310	120,367
287,443	3,943	236,298	120,470
288,457	4,003	236,132	120,421
289,472	3,960	236,052	120,336
290,487	4,179	235,703	120,319
291,501	3,758	235,606	119,929
292,516	3,731	235,311	119,748
293,530	3,715	235,207	119,672
294,545	4,063	235,156	119,906
295,560	3,965	235,051	119,765
296,574	3,729	234,860	119,474
297,589	3,827	234,621	119,417
298,603	4,311	234,594	119,769
299,618	3,988	234,377	119,397
300,633	3,904	234,354	119,310
301,647	4,244	234,310	119,540
302,662	4,382	234,260	119,611
303,676	4,434	233,868	119,440
304,691	4,240	233,778	119,234
305,706	4,375	233,693	119,284
306,720	4,300	233,508	119,121
307,735	4,258	233,251	118,947
308,749	4,136	233,181	118,807
309,764	3,980	232,833	118,499
310,779	3,916	232,718	118,380
311,793	3,875	232,341	118,146
312,808	3,674	232,311	117,966
313,822	3,599	232,229	117,856
314,837	3,738	232,035	117,855
315,852	3,777	231,925	117,818
316,866	4,005	231,923	117,981
317,881	4,093	231,745	117,948
318,895	3,967	231,578	117,755
319,910	4,264	231,570	117,968
320,925	4,355	231,395	117,938
321,939	4,088	231,251	117,650
322,954	4,071	231,166	117,584
323,968	3,807	230,893	117,233
324,983	3,774	230,770	117,135
325,997	4,062	230,586	117,250
327,012	4,276	230,522	117,370
328,027	4,167	230,425	117,227
329,041	4,428	230,288	117,346
330,056	4,708	230,316	117,562
331,070	4,613	230,129	117,384
332,085	4,472	229,761	117,079
333,100	3,944	229,770	116,672
334,114	4,054	229,500	116,609
335,129	4,288	229,270	116,658
336,143	4,409	229,307	116,758
337,158	4,330	229,159	116,613
338,173	4,331	228,833	116,437
339,187	4,225	228,714	116,286
340,202	4,073	228,647	116,127
341,216	4,115	228,463	116,056
342,231	4,119	228,148	115,888
343,246	4,051	228,164	115,834
344,260	4,174	228,083	115,875
345,275	4,171	228,015	115,829
346,289	4,397	227,756	115,856
347,304	4,327	227,725	115,777
348,319	4,460	227,572	115,789
349,333	4,236	227,313	115,480
350,348	3,943	227,035	115,109
351,362	4,259	226,969	115,301
352,377	3,913	226,723	114,907
353,392	3,978	226,477	114,821
354,406	3,985	226,509	114,832
355,421	195,719	1320,855	1398,588
356,435	156,914	1454,181	1398,599
