DTS Sentinel unit serial number:	SN410029Multiplexer serial number:	ORYXHardware model number:	OX2-SRSoftware version number:	ORYX F/W v4,00 Oryx Data Collector v3.7.2.0data status	okinstallation	B5 Nyhavnadifferential loss correction	single-endedforward channel	channel 2reverse channel	N/Adate	2023/12/13time	02:22:13forward acquisition time	300,00reverse acquisition time	0,00gamma	499,1914k internal	0,3159k external	0,3159temperature offset calibration	1,0000default loss term (dB/km)	0,3820temperature slope calibration	1,0000multiplexer offset coefficient	1,0000multiplexer slope coefficient	1,0000fibre end	0,00T internal ref (°C)	14,01T ext. ref 1 (°C)	-2,43T ext. ref 2 (°C)	-2,73length (m)	temperature (°C)	Stokes	anti-Stokes-744,400	-57,422	0,201	0,065
-743,385	-84,164	-0,228	-0,053
-742,371	-99,770	0,170	-0,031
-741,356	-111,949	-0,276	0,041
-740,342	253,174	0,099	0,125
-739,327	-125,743	-0,375	0,041
-738,312	126,336	0,084	-0,079
-737,298	-46,768	-0,264	-0,095
-736,283	26,417	0,070	0,043
-735,269	-135,877	-0,247	-0,021
-734,254	21,657	0,077	-0,046
-733,239	-27,524	-0,441	-0,188
-732,225	-136,962	0,226	0,019
-731,210	628,517	-0,025	-0,046
-730,196	-200,000	-0,013	0,048
-729,181	-200,000	0,004	0,016
-728,167	-116,579	0,102	-0,014
-727,152	-9,186	-0,066	0,032
-726,137	152,857	-0,118	-0,119
-725,123	-200,000	-0,008	-0,052
-724,108	46,367	-0,118	-0,081
-723,094	4,852	-0,074	-0,040
-722,079	-200,000	-0,015	-0,122
-721,064	-200,000	-0,014	-0,106
-720,050	-200,000	-0,024	0,112
-719,035	225,719	-0,036	0,043
-718,021	134,398	0,168	-0,160
-717,006	-200,000	-0,054	-0,186
-715,991	-194,036	-0,182	0,001
-714,977	-4,782	-0,088	0,045
-713,962	-10,436	-0,031	-0,015
-712,948	495,427	-0,033	-0,056
-711,933	800,000	0,037	-0,101
-710,918	-139,926	-0,096	-0,007
-709,904	65,918	-0,067	0,050
-708,889	22,544	-0,087	-0,052
-707,875	-200,000	-0,007	0,023
-706,860	800,000	0,023	-0,062
-705,845	-200,000	-0,009	-0,035
-704,831	-200,000	0,001	0,023
-703,816	-200,000	-0,025	0,089
-702,802	187,212	-0,102	-0,112
-701,787	-111,161	-0,023	-0,003
-700,772	-200,000	-0,009	-0,053
-699,758	-200,000	0,037	-0,161
-698,743	-49,200	-0,123	0,043
-697,729	-200,000	-0,027	0,212
-696,714	-200,000	-0,013	-0,044
-695,699	723,960	-0,014	0,028
-694,685	-103,199	-0,135	0,023
-693,670	680,391	-0,027	-0,052
-692,656	-200,000	0,005	0,061
-691,641	318,973	0,080	-0,112
-690,627	395,270	0,069	0,105
-689,612	800,000	-0,055	0,116
-688,597	329,444	-0,072	-0,103
-687,583	-9,917	-0,132	-0,064
-686,568	-12,169	-0,068	-0,032
-685,554	-37,092	-0,099	-0,039
-684,539	335,663	0,013	-0,018
-683,524	-200,000	0,021	0,140
-682,510	-158,671	0,114	0,005
-681,495	800,000	-0,047	0,099
-680,481	-63,695	0,058	-0,017
-679,466	800,000	0,073	-0,175
-678,451	582,439	0,014	0,026
-677,437	-134,614	0,145	0,013
-676,422	-7,561	-0,079	-0,039
-675,408	-107,889	0,113	-0,018
-674,393	-123,513	-0,135	0,016
-673,378	-79,649	0,018	-0,004
-672,364	-200,000	-0,071	-0,231
-671,349	-200,000	0,009	-0,176
-670,335	800,000	0,033	-0,086
-669,320	-200,000	0,016	-0,055
-668,305	800,000	-0,002	0,004
-667,291	800,000	-0,024	0,067
-666,276	-121,547	-0,085	0,010
-665,262	800,000	-0,030	0,063
-664,247	-200,000	-0,003	-0,079
-663,232	210,965	-0,053	0,061
-662,218	-200,000	-0,007	0,072
-661,203	10,354	0,097	0,054
-660,189	-24,190	0,151	-0,066
-659,174	15,877	-0,106	-0,061
-658,159	-184,952	-0,126	-0,001
-657,145	159,013	-0,090	0,092
-656,130	710,165	0,016	0,030
-655,116	73,593	0,142	0,109
-654,101	-23,230	-0,097	0,043
-653,086	-39,630	0,069	-0,026
-652,072	351,897	0,024	-0,035
-651,057	-88,895	-0,103	0,022
-650,043	800,000	-0,023	-0,060
-649,028	-44,617	0,047	-0,017
-648,014	713,528	0,040	0,078
-646,999	228,062	-0,051	0,062
-645,984	-200,000	0,000	0,081
-644,970	-66,026	-0,128	-0,037
-643,955	-200,000	0,009	-0,118
-642,941	48,567	-0,128	-0,088
-641,926	146,917	-0,037	0,036
-640,911	-131,853	-0,058	0,006
-639,897	800,000	0,024	0,058
-638,882	-200,000	0,003	0,137
-637,868	31,676	0,079	0,050
-636,853	-66,086	-0,108	0,032
-635,838	-200,000	-0,026	0,085
-634,824	208,533	0,074	-0,085
-633,809	-200,000	0,003	-0,012
-632,795	4,254	0,040	-0,021
-631,780	200,573	-0,064	-0,072
-630,765	-104,375	-0,060	-0,010
-629,751	11,855	-0,106	-0,059
-628,736	-112,926	-0,064	-0,009
-627,722	-132,362	-0,075	0,007
-626,707	466,166	0,045	-0,074
-625,692	18,031	0,074	0,043
-624,678	800,000	0,038	0,113
-623,663	-200,000	0,024	0,122
-622,649	-87,587	-0,072	0,016
-621,634	-151,640	0,047	-0,002
-620,619	-53,125	-0,093	-0,031
-619,605	58,580	-0,044	0,032
-618,590	-200,000	0,018	0,072
-617,576	-20,833	0,191	0,086
-616,561	-29,275	0,077	-0,032
-615,546	800,000	-0,066	0,152
-614,532	800,000	-0,007	0,023
-613,517	336,668	-0,052	-0,075
-612,503	114,158	0,019	0,017
-611,488	-200,000	-0,002	-0,007
-610,474	-200,000	-0,011	0,092
-609,459	540,052	0,061	0,107
-608,444	202,961	-0,025	0,028
-607,430	800,000	0,011	0,026
-606,415	-82,567	-0,065	0,015
-605,401	-200,000	0,017	-0,055
-604,386	47,542	-0,138	-0,094
-603,371	-70,895	-0,034	0,009
-602,357	800,000	0,034	0,077
-601,342	-141,934	-0,010	0,001
-600,328	-200,000	0,008	-0,100
-599,313	-200,000	0,011	-0,139
-598,298	-39,554	0,033	0,013
-597,284	-200,000	0,008	-0,055
-596,269	-178,724	-0,113	-0,002
-595,255	-149,991	-0,093	-0,005
-594,240	131,965	0,017	-0,016
-593,225	62,546	0,133	-0,097
-592,211	130,612	-0,068	-0,064
-591,196	-112,535	0,102	0,015
-590,182	800,000	0,015	-0,038
-589,167	-200,000	0,001	0,109
-588,152	285,057	-0,027	0,036
-587,138	140,173	-0,036	0,035
-586,123	-200,000	-0,023	-0,082
-585,109	-200,000	0,011	-0,039
-584,094	-95,325	-0,148	-0,029
-583,079	154,191	-0,076	0,076
-582,065	-200,000	0,029	0,132
-581,050	-23,563	-0,117	0,051
-580,036	582,839	-0,019	-0,034
-579,021	-200,000	-0,017	0,092
-578,006	-46,054	-0,138	-0,050
-576,992	-83,650	0,116	-0,027
-575,977	139,338	0,056	0,054
-574,963	771,951	-0,022	-0,044
-573,948	244,103	-0,041	0,051
-572,934	-177,288	0,117	-0,002
-571,919	-42,988	-0,038	0,014
-570,904	108,040	-0,013	-0,011
-569,890	-64,412	-0,121	-0,036
-568,875	0,752	-0,050	0,026
-567,861	800,000	0,024	0,058
-566,846	250,716	-0,034	0,043
-565,831	440,122	-0,018	-0,028
-564,817	800,000	-0,017	-0,052
-563,802	-97,791	0,100	-0,019
-562,788	-32,577	0,092	-0,037
-561,773	-200,000	0,005	-0,053
-560,758	534,255	0,047	0,081
-559,744	-76,770	0,069	0,017
-558,729	800,000	-0,070	0,147
-557,715	-79,904	0,106	-0,026
-556,700	-60,655	-0,163	-0,050
-555,685	-200,000	-0,016	-0,172
-554,671	800,000	-0,033	0,068
-553,656	-143,874	0,052	0,004
-552,642	398,633	0,061	0,094
-551,627	-200,000	0,019	-0,079
-550,612	-130,121	-0,054	0,005
-549,598	800,000	0,028	-0,088
-548,583	243,133	-0,016	-0,019
-547,569	458,304	0,039	-0,063
-546,554	98,700	0,123	-0,104
-545,539	-200,000	-0,008	0,092
-544,525	158,846	0,065	0,066
-543,510	-200,000	0,018	-0,125
-542,496	-162,317	-0,028	-0,001
-541,481	-11,420	-0,037	0,018
-540,466	-173,412	0,039	0,001
-539,452	-200,000	-0,005	0,119
-538,437	-200,000	0,004	-0,020
-537,423	327,348	0,099	0,139
-536,408	377,195	-0,051	-0,077
-535,393	38,561	-0,119	-0,077
-534,379	-22,540	-0,179	-0,079
-533,364	-107,568	-0,081	-0,013
-532,350	0,673	0,142	0,074
-531,335	352,849	0,065	-0,094
-530,321	-61,173	-0,129	0,040
-529,306	800,000	0,022	0,067
-528,291	134,131	-0,086	-0,081
-527,277	-167,403	0,075	0,002
-526,262	-200,000	0,008	-0,046
-525,248	73,436	0,033	-0,025
-524,233	31,974	0,086	-0,054
-523,218	-3,016	-0,091	0,046
-522,204	-200,000	0,020	-0,084
-521,189	-200,000	0,001	-0,177
-520,175	-43,015	-0,131	0,048
-519,160	800,000	-0,052	-0,123
-518,145	222,239	0,069	0,081
-517,131	-88,711	0,067	-0,014
-516,116	-34,036	0,056	0,022
-515,102	-52,241	-0,034	-0,012
-514,087	800,000	0,034	-0,102
-513,072	-200,000	-0,038	-0,178
-512,058	-200,000	-0,031	-0,117
-511,043	20,788	-0,041	-0,024
-510,029	-105,822	0,103	0,017
-509,014	353,104	-0,036	0,052
-507,999	70,105	-0,065	0,049
-506,985	800,000	0,017	0,036
-505,970	143,411	-0,094	-0,091
-504,956	800,000	-0,032	0,091
-503,941	-100,317	0,064	0,011
-502,926	-12,076	0,078	0,037
-501,912	800,000	0,045	0,115
-500,897	62,091	-0,080	0,058
-499,883	-200,000	-0,014	0,064
-498,868	-199,759	-0,062	-0,000
-497,853	-76,727	0,175	0,044
-496,839	-3,238	-0,100	0,051
-495,824	-72,621	0,035	0,009
-494,810	-116,792	-0,119	0,016
-493,795	89,030	-0,056	0,045
-492,781	800,000	0,027	0,076
-491,766	431,502	-0,035	-0,056
-490,751	665,200	0,042	-0,079
-489,737	358,165	0,034	-0,049
-488,722	-200,000	-0,004	0,046
-487,708	-200,000	-0,004	-0,014
-486,693	-200,000	-0,022	0,080
-485,678	-191,016	0,144	0,001
-484,664	-200,000	0,044	-0,173
-483,649	273,064	0,060	-0,078
-482,635	300,775	-0,040	-0,054
-481,620	52,652	-0,121	-0,084
-480,605	51,163	0,134	-0,093
-479,591	59,100	0,122	0,087
-478,576	469,238	-0,057	-0,093
-477,562	800,000	-0,022	-0,064
-476,547	-200,000	0,002	-0,064
-475,532	159,818	0,061	-0,062
-474,518	-200,000	-0,003	0,032
-473,503	73,079	0,115	0,088
-472,489	-78,552	-0,158	0,039
-471,474	-200,000	-0,040	-0,157
-470,459	-200,000	0,041	-0,151
-469,445	6,173	-0,021	-0,011
-468,430	-91,873	0,010	-0,002
-467,416	42,342	-0,011	0,007
-466,401	-200,000	0,009	-0,042
-465,386	-200,000	-0,021	-0,076
-464,372	98,602	-0,057	-0,048
-463,357	101,415	0,016	-0,013
-462,343	-200,000	-0,011	-0,114
-461,328	-200,000	0,071	-0,240
-460,313	800,000	-0,033	-0,081
-459,299	80,386	0,063	0,049
-458,284	110,879	0,034	0,030
-457,270	-200,000	0,011	0,058
-456,255	315,424	0,032	0,044
-455,241	91,863	-0,067	0,055
-454,226	-200,000	0,008	0,076
-453,211	268,945	0,077	0,098
-452,197	73,058	-0,033	-0,025
-451,182	-91,399	-0,059	0,012
-450,168	228,731	0,044	-0,053
-449,153	212,149	-0,096	-0,110
-448,138	-73,665	-0,183	0,048
-447,124	-200,000	0,005	-0,139
-446,109	-90,632	0,070	-0,015
-445,095	-33,126	0,011	-0,004
-444,080	-151,934	0,169	0,009
-443,065	-200,000	0,021	0,069
-442,051	-200,000	0,009	-0,061
-441,036	-200,000	0,025	-0,136
-440,022	476,494	-0,055	0,091
-439,007	-200,000	0,010	-0,039
-437,992	-200,000	0,011	0,049
-436,978	207,643	-0,026	-0,029
-435,963	-200,000	-0,036	0,118
-434,949	-97,833	-0,149	0,028
-433,934	800,000	0,032	-0,096
-432,919	21,823	-0,080	-0,047
-431,905	-93,571	0,065	-0,013
-430,890	249,020	0,109	0,134
-429,876	-176,324	0,140	0,003
-428,861	-100,540	0,031	0,006
-427,846	337,631	-0,066	-0,094
-426,832	-200,000	-0,005	-0,141
-425,817	-113,851	-0,046	-0,006
-424,803	438,432	-0,045	-0,071
-423,788	189,021	0,079	0,087
-422,773	-79,899	0,160	-0,039
-421,759	-200,000	-0,001	0,044
-420,744	60,486	-0,074	0,054
-419,730	729,426	-0,039	-0,076
-418,715	800,000	0,044	-0,102
-417,701	-100,541	-0,055	-0,010
-416,686	800,000	0,016	-0,050
-415,671	-200,000	0,002	0,102
-414,657	79,003	0,079	0,061
-413,642	-200,000	-0,018	-0,149
-412,628	-200,000	0,016	-0,255
-411,613	-200,000	0,034	-0,222
-410,598	86,869	-0,085	-0,068
-409,584	800,000	0,011	-0,025
-408,569	166,382	0,082	0,085
-407,555	800,000	-0,035	0,076
-406,540	800,000	-0,053	-0,130
-405,525	27,732	0,044	-0,027
-404,511	173,759	0,015	0,016
-403,496	-200,000	0,033	-0,125
-402,482	-200,000	-0,009	-0,044
-401,467	311,289	0,019	-0,026
-400,452	-118,602	0,036	-0,005
-399,438	-200,000	0,022	0,112
-398,423	203,968	0,036	0,041
-397,409	339,668	0,082	-0,116
-396,394	-96,465	0,079	0,015
-395,379	800,000	-0,020	0,053
-394,365	-200,000	-0,013	-0,084
-393,350	-200,000	-0,021	0,137
-392,336	368,925	-0,038	0,056
-391,321	-60,475	-0,110	-0,034
-390,306	-200,000	0,012	-0,058
-389,292	-171,267	-0,005	-0,000
-388,277	305,480	0,125	-0,169
-387,263	-16,093	0,167	0,077
-386,248	-200,000	0,010	-0,065
-385,233	-200,000	-0,000	0,023
-384,219	204,722	0,035	0,040
-383,204	601,878	0,039	0,071
-382,190	545,537	-0,107	-0,187
-381,175	101,153	0,016	-0,014
-380,160	703,812	-0,059	0,113
-379,146	-8,927	0,115	0,056
-378,131	-49,400	-0,053	0,018
-377,117	581,588	-0,064	-0,115
-376,102	-200,000	-0,034	-0,141
-375,088	38,368	-0,134	0,087
-374,073	-200,000	0,036	-0,115
-373,058	-200,000	-0,011	0,127
-372,044	-88,693	-0,013	-0,003
-371,029	-113,424	0,056	0,008
-370,015	-200,000	-0,001	0,048
-369,000	-200,000	0,013	-0,043
-367,985	168,233	0,031	0,032
-366,971	119,796	-0,074	0,066
-365,956	800,000	-0,025	-0,071
-364,942	48,964	0,032	-0,022
-363,927	30,821	0,023	0,014
-362,912	800,000	-0,029	-0,072
-361,898	689,716	-0,007	-0,014
-360,883	472,114	0,020	0,033
-359,869	-200,000	0,016	0,114
-358,854	-13,205	-0,110	-0,052
-357,839	-3,499	0,210	0,106
-356,825	-200,000	-0,004	0,032
-355,810	272,465	0,045	0,058
-354,796	-200,000	-0,003	0,103
-353,781	-189,362	0,080	-0,001
-352,766	-200,000	0,006	0,123
-351,752	35,672	-0,129	0,082
-350,737	800,000	-0,053	0,115
-349,723	-200,000	-0,024	0,079
-348,708	432,150	0,098	0,154
-347,693	-16,827	-0,129	-0,059
-346,679	-200,000	-0,001	0,009
-345,664	-200,000	0,004	-0,096
-344,650	-200,000	-0,028	0,207
-343,635	-120,538	0,091	-0,011
-342,620	-150,232	0,161	-0,009
-341,606	800,000	0,069	0,167
-340,591	447,956	-0,049	0,079
-339,577	-114,167	-0,066	0,009
-338,562	240,506	0,109	0,132
-337,548	-12,413	-0,108	-0,051
-336,533	-200,000	0,015	0,079
-335,518	20,169	0,143	-0,084
-334,504	354,321	0,078	0,112
-333,489	-200,000	0,002	-0,141
-332,475	-161,908	0,033	0,001
-331,460	144,264	-0,027	-0,026
-330,445	-125,572	0,068	-0,007
-329,431	195,279	-0,067	0,074
-328,416	232,165	0,008	0,009
-327,402	800,000	0,017	0,040
-326,387	-200,000	0,011	0,048
-325,372	-63,096	-0,071	-0,021
-324,358	314,484	0,053	0,073
-323,343	-200,000	-0,014	-0,065
-322,329	-200,000	-0,010	-0,068
-321,314	-200,000	-0,007	0,199
-320,299	-200,000	0,025	0,105
-319,285	-46,262	-0,101	0,036
-318,270	-200,000	0,022	-0,081
-317,256	95,329	-0,050	-0,041
-316,241	-68,297	-0,087	0,024
-315,226	-200,000	-0,002	0,025
-314,212	-134,362	-0,026	-0,002
-313,197	129,544	0,025	0,023
-312,183	238,373	-0,073	-0,088
-311,168	-23,819	0,091	-0,039
-310,153	149,047	-0,056	-0,055
-309,139	800,000	-0,063	-0,128
-308,124	-12,717	-0,025	-0,012
-307,110	317,501	0,075	0,103
-306,095	-146,407	0,035	-0,002
-305,080	9,868	-0,072	0,040
-304,066	74,669	-0,085	0,064
-303,051	61,040	0,026	0,019
-302,037	103,431	0,107	0,091
-301,022	204,037	-0,058	0,065
-300,008	-28,526	0,096	0,040
-298,993	-8,115	0,048	0,023
-297,978	-67,401	0,110	-0,031
-296,964	202,423	-0,077	0,086
-295,949	471,772	-0,040	-0,065
-294,935	800,000	-0,029	-0,090
-293,920	649,875	0,070	0,130
-292,905	412,264	-0,013	-0,019
-291,891	-200,000	-0,012	0,149
-290,876	415,837	-0,069	0,107
-289,862	168,990	-0,119	-0,123
-288,847	199,802	0,080	-0,089
-287,832	-113,229	0,068	-0,010
-286,818	129,185	-0,144	0,133
-285,803	-200,000	0,033	-0,200
-284,789	-200,000	-0,042	0,164
-283,774	205,862	-0,077	-0,087
-282,759	125,127	0,078	0,071
-281,745	800,000	-0,041	0,130
-280,730	-200,000	-0,009	-0,068
-279,716	85,599	0,060	0,048
-278,701	-102,183	0,070	-0,012
-277,686	-106,438	0,011	0,002
-276,672	115,234	0,037	0,033
-275,657	106,997	-0,054	0,046
-274,643	-200,000	0,008	-0,048
-273,628	800,000	0,046	-0,140
-272,613	128,391	-0,035	0,032
-271,599	-78,121	-0,084	0,021
-270,584	-143,450	0,093	0,006
-269,570	270,195	0,044	-0,056
-268,555	-5,220	-0,042	0,021
-267,540	556,219	0,015	-0,027
-266,526	83,687	-0,154	0,121
-265,511	-42,883	0,219	-0,080
-264,497	-136,030	-0,124	0,010
-263,482	-82,676	0,185	0,043
-262,467	175,699	-0,007	-0,007
-261,453	157,772	0,088	0,088
-260,438	188,831	-0,066	0,071
-259,424	3,533	0,136	-0,071
-258,409	759,298	-0,028	-0,054
-257,395	-200,000	-0,014	-0,082
-256,380	-200,000	-0,005	0,052
-255,365	800,000	0,022	0,058
-254,351	-200,000	0,024	0,100
-253,336	295,173	-0,070	-0,092
-252,322	138,418	0,085	0,080
-251,307	203,766	0,042	-0,047
-250,292	418,465	0,016	-0,024
-249,278	-110,070	0,174	0,026
-248,263	-28,805	-0,055	0,023
-247,249	-80,888	-0,069	-0,016
-246,234	-132,611	0,030	-0,003
-245,219	122,684	0,029	0,026
-244,205	800,000	-0,029	-0,073
-243,190	-54,505	0,143	-0,046
-242,176	5,852	0,158	0,084
-241,161	-200,000	0,010	-0,051
-240,146	-100,048	-0,073	-0,013
-239,132	800,000	-0,031	-0,087
-238,117	162,573	-0,045	-0,046
-237,103	-91,329	-0,079	0,016
-236,088	94,589	0,136	0,112
-235,073	6,060	0,199	0,106
-234,059	-197,415	0,070	0,000
-233,044	-200,000	-0,017	0,165
-232,030	43,014	0,096	0,063
-231,015	381,544	-0,083	-0,124
-230,000	250,552	-0,055	-0,067
-228,986	-200,000	-0,018	-0,070
-227,971	274,699	0,017	-0,022
-226,957	426,816	0,031	0,049
-225,942	-200,000	-0,017	0,063
-224,927	-200,000	0,009	0,065
-223,913	436,391	-0,053	-0,083
-222,898	-200,000	0,016	-0,101
-221,884	408,437	0,099	-0,151
-220,869	32,795	-0,062	0,039
-219,855	12,503	0,122	0,068
-218,840	244,022	0,047	-0,057
-217,825	23,082	0,029	-0,017
-216,811	-200,000	0,009	-0,102
-215,796	-61,114	-0,086	-0,026
-214,782	-200,000	0,015	0,149
-213,767	800,000	-0,041	-0,107
-212,752	483,849	-0,010	0,017
-211,738	-86,028	0,155	-0,034
-210,723	-74,767	-0,161	0,041
-209,709	-28,197	0,095	-0,040
-208,694	-54,428	-0,115	0,037
-207,679	363,221	-0,079	0,115
-206,665	250,606	0,079	-0,097
-205,650	-20,740	0,048	-0,021
-204,636	-13,668	0,123	-0,057
-203,621	800,000	-0,047	0,099
-202,606	206,066	-0,094	0,106
-201,592	800,000	-0,012	-0,031
-200,577	-127,608	-0,008	-0,001
-199,563	14,634	0,054	0,030
-198,548	-200,000	0,025	0,202
-197,533	321,844	-0,040	0,054
-196,519	800,000	-0,077	0,175
-195,504	-200,000	0,017	-0,122
-194,490	-83,753	-0,101	0,023
-193,475	454,932	-0,031	-0,050
-192,460	51,097	-0,114	0,078
-191,446	800,000	0,040	0,094
-190,431	800,000	0,013	0,028
-189,417	-195,970	-0,193	0,001
-188,402	189,986	-0,040	0,043
-187,387	-200,000	0,014	-0,051
-186,373	-200,000	0,004	-0,049
-185,358	36,137	0,064	0,040
-184,344	424,671	0,049	-0,076
-183,329	76,447	-0,012	0,009
-182,315	55,669	0,068	0,047
-181,300	563,589	-0,069	-0,122
-180,285	-200,000	0,001	-0,003
-179,271	-116,858	-0,083	0,011
-178,256	24,317	-0,041	-0,024
-177,242	199,132	0,056	-0,062
-176,227	100,135	-0,104	0,087
-175,212	800,000	-0,024	0,068
-174,198	-19,602	-0,045	0,020
-173,183	520,018	-0,032	0,055
-172,169	49,129	0,031	0,021
-171,154	-119,036	-0,136	-0,017
-170,139	241,786	0,010	0,012
-169,125	260,227	0,026	0,032
-168,110	800,000	0,010	-0,030
-167,096	-67,677	0,052	-0,015
-166,081	510,527	0,084	-0,141
-165,066	800,000	0,026	0,066
-164,052	800,000	0,042	-0,131
-163,037	350,644	-0,106	0,152
-162,023	-200,000	0,019	-0,083
-161,008	-64,820	-0,110	0,032
-159,993	-45,160	0,104	0,037
-158,979	7,916	-0,075	-0,040
-157,964	432,511	-0,097	-0,152
-156,950	135,971	-0,116	-0,109
-155,935	495,689	0,012	0,020
-154,920	-200,000	0,006	0,022
-153,906	324,712	0,016	0,022
-152,891	-200,000	0,001	0,116
-151,877	-200,000	0,001	-0,088
-150,862	-29,052	0,063	-0,026
-149,847	-177,278	0,193	-0,003
-148,833	245,977	-0,066	-0,080
-147,818	-200,000	0,009	0,035
-146,804	511,156	-0,050	-0,083
-145,789	-108,170	0,221	-0,034
-144,775	-92,948	-0,156	-0,031
-143,760	-200,000	0,000	0,032
-142,745	800,000	-0,068	-0,165
-141,731	134,252	0,094	-0,087
-140,716	-11,743	-0,079	-0,037
-139,702	365,619	0,069	0,100
-138,687	-200,000	-0,018	0,067
-137,672	-42,299	0,106	0,039
-136,658	-49,139	-0,047	0,016
-135,643	-200,000	-0,005	0,019
-134,629	-200,000	0,018	-0,126
-133,614	76,767	0,072	-0,055
-132,599	453,191	0,047	0,075
-131,585	-182,263	-0,148	0,002
-130,570	331,892	-0,053	-0,074
-129,556	209,065	0,030	-0,034
-128,541	88,732	0,129	-0,103
-127,526	800,000	-0,008	0,020
-126,512	-109,646	-0,035	-0,005
-125,497	800,000	0,034	0,073
-124,483	147,952	-0,005	0,004
-123,468	800,000	0,038	0,097
-122,453	-103,508	0,075	0,013
-121,439	-200,000	0,022	-0,104
-120,424	-66,469	-0,123	0,035
-119,410	-200,000	0,009	0,050
-118,395	112,082	0,089	-0,077
-117,380	60,546	0,082	0,059
-116,366	-78,848	0,080	-0,020
-115,351	-19,777	-0,051	0,023
-114,337	114,145	-0,147	-0,128
-113,322	218,673	0,088	-0,101
-112,307	-64,424	-0,102	-0,030
-111,293	93,615	0,078	0,064
-110,278	98,598	-0,060	0,050
-109,264	800,000	-0,060	-0,121
-108,249	54,287	-0,080	-0,056
-107,234	179,195	-0,076	-0,080
-106,220	14,559	-0,106	0,059
-105,205	-65,375	-0,079	-0,023
-104,191	-200,000	0,183	0,000
-103,176	-112,339	-0,080	-0,011
-102,162	-121,840	-0,193	0,023
-101,147	-63,152	0,075	0,022
-100,132	22,742	-0,083	-0,049
-99,118	-83,963	0,101	-0,023
-98,103	22,825	0,106	-0,062
-97,089	66,294	-0,024	-0,018
-96,074	-200,000	-0,037	0,187
-95,059	-109,491	0,062	-0,009
-94,045	-89,497	-0,032	-0,007
-93,030	-77,016	-0,091	-0,023
-92,016	-200,000	-0,003	0,078
-91,001	131,307	0,122	-0,113
-89,986	-113,002	-0,218	-0,031
-88,972	-154,555	0,204	-0,010
-87,957	-200,000	0,009	-0,037
-86,943	-200,000	0,000	0,069
-85,928	800,000	-0,014	-0,040
-84,913	-185,643	-0,164	-0,002
-83,899	-124,576	0,094	-0,010
-82,884	-37,615	0,086	0,033
-81,870	-200,000	-0,011	0,042
-80,855	-114,653	0,098	0,013
-79,840	401,907	0,016	0,025
-78,826	-140,498	-0,037	0,003
-77,811	800,000	-0,042	0,097
-76,797	199,574	-0,045	0,050
-75,782	800,000	-0,045	0,094
-74,767	-200,000	0,001	0,081
-73,753	-100,073	0,135	-0,024
-72,738	-200,000	0,003	-0,032
-71,724	-200,000	0,023	-0,085
-70,709	-200,000	-0,043	-0,157
-69,694	488,807	-0,036	-0,060
-68,680	446,679	-0,058	0,093
-67,665	290,150	-0,030	0,040
-66,651	69,010	0,057	0,042
-65,636	59,706	-0,127	0,090
-64,622	1,687	0,071	-0,037
-63,607	256,214	-0,077	-0,095
-62,592	800,000	0,036	-0,080
-61,578	109,476	-0,080	0,069
-60,563	-5,552	-0,057	0,028
-59,549	-200,000	0,018	0,165
-58,534	44,617	-2,021	-1,331
-57,519	800,000	-0,267	-0,762
-56,505	-200,000	-1,286	-5,067
-55,490	118,722	0,778	0,689
-54,476	800,000	5,321	11,856
-53,461	-200,000	18,495	310,942
-52,446	800,000	739,516	2315,952
-51,432	556,050	1655,716	2871,629
-50,417	110,656	1640,388	1414,703
-49,403	74,898	1290,166	973,452
-48,388	30,586	1030,858	630,926
-47,373	20,017	993,259	572,916
-46,359	17,698	980,850	558,106
-45,344	14,436	976,864	545,101
-44,330	14,708	975,420	545,168
-43,315	14,012	973,699	541,902
-42,300	14,039	972,494	541,299
-41,286	14,060	971,356	540,712
-40,271	13,928	970,825	539,963
-39,257	14,036	969,741	539,690
-38,242	14,021	968,814	539,105
-37,227	14,052	967,935	538,694
-36,213	13,999	967,101	538,039
-35,198	13,983	966,222	537,475
-34,184	14,072	965,400	537,285
-33,169	14,011	964,479	536,555
-32,154	14,060	963,439	536,114
-31,140	14,102	962,524	535,718
-30,125	14,038	961,966	535,181
-29,111	14,020	961,229	534,689
-28,096	14,076	960,433	534,408
-27,082	14,074	959,873	534,067
-26,067	14,043	959,138	533,538
-25,052	14,076	958,329	533,173
-24,038	14,010	957,521	532,491
-23,023	13,978	957,027	532,092
-22,009	14,070	956,300	531,961
-20,994	14,044	955,730	531,540
-19,979	14,073	955,183	531,308
-18,965	14,059	954,328	530,765
-17,950	14,047	953,975	530,509
-16,936	13,962	953,344	529,864
-15,921	14,019	952,495	529,555
-14,906	13,970	951,707	528,938
-13,892	13,979	950,968	528,536
-12,877	13,925	950,414	528,035
-11,863	13,900	949,751	527,565
-10,848	13,931	949,325	527,406
-9,833	14,027	948,708	527,350
-8,819	13,967	948,175	526,841
-7,804	13,989	947,349	526,432
-6,790	13,991	946,896	526,166
-5,775	13,979	946,555	525,915
-4,760	14,020	945,744	525,575
-3,746	13,987	945,149	525,117
-2,731	13,850	944,499	524,300
-1,717	13,783	944,052	523,819
-0,702	13,750	943,296	523,274
0,313	13,603	942,691	523,262
1,327	16,878	940,204	532,195
2,342	25,812	795,608	474,074
3,356	22,316	460,448	268,974
4,371	-4,641	317,493	156,517
5,386	-8,435	299,285	143,648
6,400	-10,618	293,180	138,516
7,415	-10,970	290,891	137,072
8,429	-11,190	289,263	136,075
9,444	-11,162	288,254	135,616
10,459	-11,050	287,694	135,451
11,473	-11,209	287,022	134,966
12,488	-11,331	286,713	134,689
13,502	-11,195	285,977	134,465
14,517	-11,207	285,709	134,314
15,531	-11,120	285,160	134,129
16,546	-11,066	284,750	133,978
17,561	-10,929	284,272	133,873
18,575	-11,096	284,013	133,577
19,590	-11,154	283,654	133,340
20,604	-11,184	283,467	133,211
21,619	-11,047	282,997	133,111
22,634	-10,991	282,568	132,952
23,648	-11,333	282,429	132,545
24,663	-11,194	282,173	132,546
25,677	-11,107	281,820	132,453
26,692	-11,032	281,594	132,407
27,707	-11,032	281,227	132,222
28,721	-11,170	281,025	131,983
29,736	-11,195	280,618	131,757
30,750	-11,291	280,513	131,604
31,765	-11,073	280,128	131,619
32,780	-11,133	279,909	131,448
33,794	-11,152	279,664	131,303
34,809	-10,994	279,399	131,317
35,823	-11,093	279,114	131,077
36,838	-11,269	278,887	130,792
37,853	-11,190	278,624	130,732
38,867	-11,282	278,419	130,536
39,882	-11,131	278,117	130,526
40,896	-11,088	277,941	130,473
41,911	-11,199	277,687	130,237
42,926	-11,099	277,487	130,226
43,940	-11,186	277,135	129,967
44,955	-11,231	276,895	129,801
45,969	-11,281	276,696	129,648
46,984	-11,317	276,317	129,426
47,999	-11,426	275,967	129,147
49,013	-11,870	276,011	128,738
50,028	-11,624	275,455	128,699
51,042	-11,869	275,308	128,389
52,057	-11,899	275,077	128,241
53,071	-11,853	274,858	128,171
54,086	-11,772	274,783	128,200
55,101	-11,686	274,718	128,239
56,115	-11,529	274,375	128,214
57,130	-11,265	274,391	128,457
58,144	-10,952	273,952	128,532
59,159	-11,076	273,778	128,324
60,174	-11,007	273,633	128,309
61,188	-11,110	273,331	128,059
62,203	-10,866	273,029	128,134
63,217	-10,986	272,882	127,941
64,232	-10,937	272,649	127,867
65,247	-11,044	272,554	127,712
66,261	-11,098	272,164	127,467
67,276	-11,223	271,909	127,220
68,290	-11,196	271,632	127,105
69,305	-11,477	271,371	126,712
70,320	-11,554	271,220	126,558
71,334	-11,135	271,155	126,904
72,349	-11,199	270,989	126,756
73,363	-11,065	270,701	126,733
74,378	-11,119	270,522	126,588
75,393	-11,137	270,312	126,462
76,407	-11,015	270,026	126,429
77,422	-10,857	269,778	126,446
78,436	-10,953	269,415	126,177
79,451	-11,057	269,401	126,064
80,466	-11,022	269,016	125,905
81,480	-11,118	268,667	125,642
82,495	-10,989	268,465	125,655
83,509	-11,070	268,447	125,561
84,524	-11,242	268,129	125,244
85,539	-11,269	267,949	125,124
86,553	-11,305	267,676	124,953
87,568	-11,164	267,448	124,964
88,582	-11,328	267,349	124,757
89,597	-11,202	267,138	124,762
90,611	-11,190	267,114	124,750
91,626	-10,998	266,969	124,846
92,641	-11,115	266,676	124,592
93,655	-11,102	266,444	124,484
94,670	-11,171	266,174	124,285
95,684	-11,121	265,978	124,227
96,699	-11,250	265,707	123,973
97,714	-11,209	265,665	123,979
98,728	-11,255	265,228	123,723
99,743	-11,324	265,175	123,625
100,757	-11,456	264,959	123,394
101,772	-11,394	264,594	123,270
102,787	-11,323	264,512	123,284
103,801	-11,120	264,263	123,339
104,816	-10,987	264,114	123,378
105,830	-10,908	264,061	123,413
106,845	-11,162	263,841	123,072
107,860	-11,118	263,619	122,996
108,874	-11,055	263,339	122,911
109,889	-11,257	263,333	122,716
110,903	-11,113	262,909	122,637
111,918	-10,941	262,813	122,734
112,933	-11,056	262,642	122,541
113,947	-11,159	262,595	122,416
114,962	-11,014	262,174	122,338
115,976	-11,193	262,102	122,135
116,991	-11,216	261,841	121,982
118,006	-11,133	261,678	121,969
119,020	-11,109	261,557	121,922
120,035	-11,042	261,355	121,877
121,049	-11,084	261,039	121,682
122,064	-11,006	260,797	121,627
123,079	-11,102	260,630	121,453
124,093	-11,268	260,689	121,324
125,108	-11,217	260,312	121,182
126,122	-11,291	259,857	120,895
127,137	-11,492	259,834	120,696
128,151	-11,348	259,554	120,682
129,166	-11,444	259,453	120,539
130,181	-11,198	259,071	120,567
131,195	-11,340	258,934	120,368
132,210	-11,259	258,915	120,420
133,224	-10,998	258,642	120,510
134,239	-11,022	258,559	120,439
135,254	-11,041	258,307	120,295
136,268	-11,131	257,922	120,027
137,283	-11,404	257,730	119,688
138,297	-11,469	257,634	119,576
139,312	-11,485	257,484	119,482
140,327	-11,220	257,384	119,656
141,341	-11,028	257,235	119,743
142,356	-11,067	257,023	119,599
143,370	-10,880	256,869	119,680
144,385	-10,779	256,720	119,688
145,400	-10,998	256,484	119,377
146,414	-10,870	256,352	119,416
147,429	-10,945	256,051	119,200
148,443	-10,850	255,856	119,180
149,458	-10,762	255,718	119,182
150,473	-10,823	255,489	119,012
151,487	-10,968	255,250	118,765
152,502	-10,946	255,211	118,755
153,516	-11,035	254,912	118,529
154,531	-10,916	254,794	118,565
155,546	-10,855	254,663	118,546
156,560	-10,996	254,419	118,302
157,575	-11,078	254,141	118,091
158,589	-11,162	254,111	117,995
159,604	-10,727	253,872	118,246
160,619	-10,801	253,729	118,106
161,633	-10,947	253,476	117,853
162,648	-10,960	253,455	117,821
163,662	-10,938	253,202	117,712
164,677	-10,976	253,111	117,627
165,692	-10,984	253,003	117,559
166,706	-10,912	252,700	117,469
167,721	-10,777	252,383	117,426
168,735	-10,897	252,452	117,345
169,750	-10,835	252,177	117,260
170,764	-10,886	252,054	117,149
171,779	-10,723	251,767	117,144
172,794	-10,968	251,844	116,960
173,808	-11,096	251,469	116,667
174,823	-11,201	251,176	116,432
175,837	-11,382	250,992	116,183
176,852	-10,976	250,999	116,520
177,867	-10,945	250,880	116,480
178,881	-10,852	250,807	116,514
179,896	-10,803	250,517	116,411
180,910	-10,819	250,280	116,277
181,925	-10,777	250,148	116,241
182,940	-10,849	250,112	116,152
183,954	-10,769	249,708	116,022
184,969	-10,883	249,586	115,860
185,983	-10,908	249,445	115,763
186,998	-10,976	249,387	115,668
188,013	-10,832	249,123	115,657
189,027	-10,749	249,010	115,663
190,042	-10,843	248,690	115,425
191,056	-10,898	248,633	115,342
192,071	-10,852	248,415	115,270
193,086	-10,824	248,232	115,198
194,100	-10,789	247,925	115,075
195,115	-10,640	247,725	115,096
196,129	-10,802	247,591	114,888
197,144	-10,773	247,414	114,819
198,159	-10,687	247,179	114,772
199,173	-10,766	247,065	114,643
200,188	-11,011	246,818	114,314
201,202	-11,050	246,687	114,212
202,217	-11,479	246,358	113,694
203,232	-11,447	246,216	113,644
204,246	-10,998	246,297	114,043
205,261	-10,430	246,039	114,384
206,275	-11,512	245,492	113,226
207,290	-7,464	247,428	117,474
208,304	0,587	249,887	125,372
209,319	4,227	250,796	128,864
210,334	4,430	250,756	129,001
211,348	4,641	250,733	129,155
212,363	4,942	250,723	129,390
213,377	5,028	250,532	129,352
214,392	5,093	250,263	129,254
215,407	4,853	250,057	128,936
216,421	4,980	249,975	128,989
217,436	4,978	250,005	128,991
218,450	5,174	249,800	129,037
219,465	5,025	249,416	128,704
220,480	4,764	249,297	128,413
221,494	4,644	249,028	128,164
222,509	4,698	248,991	128,179
223,523	4,607	248,864	128,026
224,538	4,442	248,381	127,631
225,553	4,477	248,330	127,622
226,567	4,549	248,176	127,591
227,582	4,427	248,123	127,451
228,596	4,551	247,918	127,437
229,611	4,110	247,806	127,004
230,626	4,199	247,416	126,866
231,640	4,069	247,379	126,729
232,655	4,555	247,165	127,007
233,669	4,405	246,927	126,751
234,684	4,194	246,768	126,485
235,699	4,657	246,947	126,946
236,713	4,625	246,648	126,754
237,728	4,262	246,364	126,300
238,742	4,282	246,217	126,229
239,757	4,056	246,066	125,956
240,772	4,082	245,919	125,890
241,786	4,164	245,879	125,926
242,801	4,059	245,494	125,632
243,815	4,120	245,504	125,675
244,830	4,416	245,410	125,858
245,844	4,431	245,048	125,672
246,859	4,450	244,892	125,597
247,874	4,279	244,849	125,424
248,888	4,452	244,582	125,417
249,903	4,238	244,645	125,264
250,917	4,700	244,336	125,470
251,932	4,834	244,118	125,455
252,947	4,614	243,909	125,159
253,961	4,340	243,836	124,888
254,976	4,402	243,696	124,856
255,990	4,543	243,576	124,897
257,005	4,296	243,418	124,606
258,020	4,123	243,148	124,316
259,034	4,357	242,938	124,387
260,049	4,271	242,941	124,308
261,063	4,132	242,754	124,089
262,078	4,106	242,603	123,980
263,093	4,455	242,541	124,218
264,107	4,421	242,584	124,202
265,122	4,202	242,370	123,905
266,136	4,337	242,140	123,885
267,151	4,812	241,909	124,137
268,166	4,364	241,504	123,559
269,180	4,076	241,415	123,271
270,195	4,666	241,599	123,827
271,209	4,870	241,403	123,879
272,224	4,445	240,986	123,314
273,239	3,985	240,821	122,852
274,253	4,087	240,631	122,826
275,268	4,371	240,526	122,987
276,282	4,415	240,478	122,986
277,297	4,003	240,238	122,525
278,312	4,246	240,181	122,678
279,326	4,362	239,922	122,627
280,341	4,326	239,970	122,612
281,355	4,525	239,704	122,623
282,370	4,550	239,602	122,580
283,384	4,422	239,310	122,318
284,399	4,212	239,236	122,103
285,414	3,979	239,075	121,826
286,428	3,969	238,946	121,741
287,443	4,216	238,708	121,804
288,457	4,465	238,724	121,998
289,472	4,481	238,503	121,887
290,487	4,499	238,259	121,766
291,501	4,115	238,126	121,384
292,516	3,920	237,968	121,139
293,530	4,001	237,889	121,152
294,545	4,196	237,769	121,234
295,560	4,288	237,552	121,184
296,574	4,281	237,270	121,024
297,589	4,341	237,136	120,992
298,603	4,256	237,280	120,988
299,618	4,522	236,969	121,027
300,633	4,414	236,950	120,922
301,647	4,517	236,718	120,873
302,662	4,718	236,743	121,033
303,676	4,565	236,543	120,800
304,691	4,430	236,362	120,592
305,706	4,703	236,227	120,725
306,720	4,530	236,125	120,527
307,735	4,492	235,818	120,330
308,749	4,586	235,687	120,325
309,764	4,221	235,366	119,867
310,779	4,058	235,132	119,611
311,793	4,048	235,050	119,550
312,808	4,061	234,890	119,469
313,822	4,129	234,701	119,414
314,837	3,981	234,558	119,216
315,852	3,971	234,416	119,126
316,866	4,204	234,390	119,282
317,881	4,300	234,271	119,286
318,895	4,433	233,988	119,234
319,910	4,380	234,027	119,202
320,925	4,381	233,850	119,102
321,939	4,323	233,624	118,931
322,954	4,342	233,673	118,960
323,968	4,605	233,507	119,068
324,983	4,382	233,358	118,810
325,997	4,892	233,134	119,077
327,012	4,352	232,999	118,583
328,027	4,434	232,796	118,532
329,041	4,816	232,833	118,833
330,056	5,035	232,694	118,920
331,070	4,980	232,666	118,853
332,085	4,863	232,338	118,585
333,100	4,316	232,268	118,120
334,114	4,603	231,910	118,147
335,129	4,815	231,744	118,213
336,143	4,747	231,739	118,148
337,158	4,719	231,468	117,978
338,173	4,591	231,374	117,822
339,187	4,316	231,255	117,541
340,202	4,472	231,168	117,606
341,216	4,485	230,961	117,500
342,231	4,483	230,750	117,381
343,246	4,437	230,693	117,306
344,260	4,741	230,418	117,387
345,275	4,703	230,511	117,394
346,289	4,861	230,313	117,403
347,304	4,716	230,132	117,190
348,319	4,693	230,004	117,098
349,333	4,676	229,693	116,916
350,348	4,329	229,449	116,519
351,362	4,514	229,504	116,676
352,377	4,367	229,200	116,401
353,392	3,982	229,027	116,012
354,406	4,182	229,010	116,143
355,421	195,506	1318,797	1394,474
356,435	156,825	1451,524	1394,448
