DTS Sentinel unit serial number:	SN410029Multiplexer serial number:	ORYXHardware model number:	OX2-SRSoftware version number:	ORYX F/W v4,00 Oryx Data Collector v3.7.2.0data status	okinstallation	B5 Nyhavnadifferential loss correction	single-endedforward channel	channel 2reverse channel	N/Adate	2023/12/13time	18:22:13forward acquisition time	300,00reverse acquisition time	0,00gamma	499,1914k internal	0,3160k external	0,3160temperature offset calibration	1,0000default loss term (dB/km)	0,3820temperature slope calibration	1,0000multiplexer offset coefficient	1,0000multiplexer slope coefficient	1,0000fibre end	0,00T internal ref (°C)	12,84T ext. ref 1 (°C)	-4,41T ext. ref 2 (°C)	-4,49length (m)	temperature (°C)	Stokes	anti-Stokes-744,400	-74,449	0,194	0,051
-743,385	-113,024	-0,320	-0,046
-742,371	-114,347	0,106	0,015
-741,356	-90,290	-0,245	0,052
-740,342	-133,540	0,084	0,008
-739,327	41,305	-0,202	-0,134
-738,312	165,522	0,064	-0,067
-737,298	-105,442	-0,306	-0,051
-736,283	-162,613	0,101	0,004
-735,269	-45,514	-0,310	0,113
-734,254	280,590	-0,031	0,041
-733,239	-177,762	-0,428	0,007
-732,225	18,302	0,183	0,107
-731,210	-200,000	0,007	0,057
-730,196	-200,000	0,001	-0,083
-729,181	31,989	-0,087	0,055
-728,167	-200,000	-0,019	0,127
-727,152	249,402	0,023	0,029
-726,137	-100,645	0,083	0,015
-725,123	800,000	-0,041	0,097
-724,108	-182,853	-0,090	-0,001
-723,094	281,491	-0,029	-0,038
-722,079	-200,000	-0,005	-0,034
-721,064	-93,605	0,018	0,004
-720,050	64,549	-0,112	-0,083
-719,035	-19,733	0,088	-0,040
-718,021	15,775	-0,177	-0,102
-717,006	-23,451	0,056	-0,025
-715,991	-200,000	-0,035	-0,156
-714,977	-200,000	0,029	-0,150
-713,962	-200,000	-0,015	-0,053
-712,948	4,472	-0,069	-0,037
-711,933	800,000	0,028	0,078
-710,918	387,471	-0,066	0,101
-709,904	175,000	-0,101	-0,108
-708,889	44,033	-0,066	0,044
-707,875	800,000	-0,019	-0,060
-706,860	-200,000	0,003	-0,056
-705,845	290,280	-0,056	-0,075
-704,831	-200,000	0,025	0,083
-703,816	31,067	-0,066	-0,042
-702,802	-38,150	0,057	-0,022
-701,787	28,910	-0,065	0,040
-700,772	-200,000	-0,026	-0,126
-699,758	-57,386	0,063	-0,020
-698,743	63,245	0,064	0,047
-697,729	107,816	-0,038	-0,033
-696,714	13,086	0,051	-0,029
-695,699	-200,000	0,004	-0,043
-694,685	-200,000	0,021	-0,117
-693,670	800,000	0,025	-0,057
-692,656	800,000	-0,050	-0,143
-691,641	-200,000	0,063	0,000
-690,627	34,450	0,053	-0,034
-689,612	-200,000	-0,030	-0,105
-688,597	-200,000	0,018	-0,098
-687,583	-7,690	-0,173	-0,086
-686,568	145,459	-0,020	0,020
-685,554	79,404	-0,080	-0,063
-684,539	800,000	0,033	-0,091
-683,524	-200,000	-0,001	0,103
-682,510	7,370	0,103	0,057
-681,495	-200,000	-0,015	0,087
-680,481	800,000	0,002	0,005
-679,466	-38,646	-0,062	0,024
-678,451	-200,000	0,022	-0,079
-677,437	-25,168	-0,147	0,064
-676,422	-45,324	0,061	0,022
-675,408	-43,272	-0,125	-0,046
-674,393	800,000	0,089	-0,181
-673,378	800,000	-0,026	-0,062
-672,364	301,102	0,090	-0,122
-671,349	436,743	0,011	-0,017
-670,335	800,000	-0,019	-0,049
-669,320	-64,924	0,073	-0,021
-668,305	-133,645	0,203	-0,018
-667,291	800,000	-0,034	-0,093
-666,276	97,007	0,099	-0,084
-665,262	-85,081	-0,205	-0,047
-664,247	-200,000	-0,011	0,067
-663,232	800,000	-0,051	-0,130
-662,218	220,555	-0,056	-0,066
-661,203	150,597	-0,030	-0,030
-660,189	-57,650	0,093	-0,030
-659,174	311,332	0,089	-0,123
-658,159	43,266	-0,112	-0,075
-657,145	11,112	0,117	-0,065
-656,130	-146,387	0,116	0,007
-655,116	800,000	0,052	0,126
-654,101	-77,386	-0,090	0,023
-653,086	800,000	0,007	0,016
-652,072	-100,498	-0,054	-0,010
-651,057	-142,060	-0,075	-0,005
-650,043	-64,352	-0,158	-0,047
-649,028	800,000	0,017	0,041
-648,014	407,425	0,099	0,155
-646,999	-200,000	0,010	0,126
-645,984	-64,538	-0,155	0,046
-644,970	-200,000	-0,021	-0,140
-643,955	753,973	-0,093	-0,186
-642,941	200,824	-0,068	-0,077
-641,926	-12,155	-0,159	-0,076
-640,911	62,964	0,072	-0,053
-639,897	-200,000	-0,006	0,020
-638,882	-183,505	-0,112	-0,001
-637,868	-118,117	0,068	-0,009
-636,853	162,744	-0,088	0,090
-635,838	-200,000	-0,003	0,155
-634,824	207,380	-0,034	-0,039
-633,809	55,731	-0,090	-0,064
-632,795	-41,519	0,106	-0,040
-631,780	91,648	-0,035	-0,029
-630,765	70,500	-0,007	0,005
-629,751	549,603	0,053	-0,093
-628,736	-200,000	-0,017	-0,085
-627,722	-1,618	0,182	-0,094
-626,707	178,103	0,098	0,105
-625,692	324,326	-0,023	-0,032
-624,678	-7,794	0,068	-0,034
-623,663	-200,000	-0,004	-0,115
-622,649	15,213	0,011	0,006
-621,634	435,929	0,020	-0,032
-620,619	375,390	-0,134	-0,201
-619,605	725,605	0,076	0,149
-618,590	-124,363	0,051	0,006
-617,576	-50,148	0,068	-0,023
-616,561	67,842	-0,036	-0,027
-615,546	-200,000	0,026	-0,149
-614,532	-200,000	-0,024	-0,111
-613,517	580,476	0,017	-0,030
-612,503	5,294	0,116	-0,063
-611,488	48,310	0,039	-0,027
-610,474	63,249	-0,115	0,085
-609,459	367,037	0,137	0,204
-608,444	2,616	-0,088	-0,047
-607,430	498,235	-0,015	0,026
-606,415	-139,045	-0,040	0,003
-605,401	-86,814	-0,100	0,022
-604,386	-84,476	0,018	0,004
-603,371	697,492	0,025	0,049
-602,357	-53,166	-0,132	0,044
-601,342	-36,146	0,073	0,029
-600,328	-200,000	-0,039	-0,198
-599,313	-84,495	-0,068	0,016
-598,298	22,660	0,030	-0,018
-597,284	33,477	0,073	-0,046
-596,269	-8,981	-0,095	-0,046
-595,255	800,000	0,014	0,045
-594,240	-97,181	0,062	0,012
-593,225	174,307	-0,039	-0,041
-592,211	-131,967	-0,146	-0,014
-591,196	-200,000	-0,001	-0,112
-590,182	-200,000	-0,001	0,011
-589,167	-158,759	-0,016	-0,001
-588,152	-200,000	0,015	0,066
-587,138	-200,000	0,026	-0,105
-586,123	800,000	-0,085	-0,220
-585,109	-200,000	-0,027	0,117
-584,094	138,234	0,070	0,068
-583,079	-200,000	-0,019	-0,119
-582,065	56,749	0,041	0,030
-581,050	800,000	-0,032	-0,102
-580,036	-13,222	0,011	0,005
-579,021	800,000	0,036	0,100
-578,006	-99,905	-0,067	0,012
-576,992	-157,187	0,164	-0,007
-575,977	65,911	0,030	0,022
-574,963	-200,000	0,010	0,122
-573,948	40,938	0,055	0,036
-572,934	504,443	-0,009	-0,015
-571,919	-163,237	-0,110	0,004
-570,904	518,347	-0,068	-0,117
-569,890	-48,006	0,089	0,031
-568,875	-168,855	-0,095	0,003
-567,861	800,000	0,022	0,065
-566,846	-200,000	-0,005	0,071
-565,831	-113,829	-0,042	-0,006
-564,817	229,834	-0,111	-0,133
-563,802	12,359	-0,100	-0,056
-562,788	541,489	-0,022	-0,039
-561,773	-70,756	0,059	0,016
-560,758	-146,225	-0,015	0,001
-559,744	-200,000	0,027	-0,147
-558,729	-88,857	0,138	0,030
-557,715	-200,000	-0,017	0,082
-556,700	800,000	-0,036	-0,077
-555,685	45,319	-0,089	0,060
-554,671	-200,000	-0,014	-0,092
-553,656	347,033	-0,030	0,044
-552,642	-87,063	0,096	0,021
-551,627	-200,000	0,040	-0,169
-550,612	-87,269	-0,158	0,035
-549,598	78,291	-0,047	0,036
-548,583	107,066	-0,073	-0,064
-547,569	-138,575	0,138	-0,011
-546,554	100,204	0,102	0,086
-545,539	-200,000	0,007	-0,149
-544,525	80,490	0,122	0,096
-543,510	-157,897	0,043	-0,002
-542,496	800,000	0,039	-0,102
-541,481	-129,067	-0,096	0,010
-540,466	-61,166	-0,062	0,019
-539,452	623,037	0,127	0,235
-538,437	624,288	0,018	0,034
-537,423	-146,695	0,082	0,005
-536,408	-200,000	0,006	-0,041
-535,393	-140,443	-0,046	0,003
-534,379	800,000	0,042	-0,111
-533,364	-161,035	-0,140	-0,005
-532,350	27,055	-0,028	0,017
-531,335	-200,000	0,028	0,104
-530,321	-133,888	0,127	-0,011
-529,306	474,770	-0,080	-0,133
-528,291	-200,000	0,004	-0,043
-527,277	-200,000	-0,012	0,117
-526,262	86,997	0,066	-0,053
-525,248	-200,000	0,024	-0,148
-524,233	-200,000	0,019	-0,091
-523,218	140,166	-0,061	-0,059
-522,204	-128,997	-0,142	0,014
-521,189	80,077	0,064	-0,050
-520,175	1,928	-0,122	-0,064
-519,160	422,592	-0,074	0,116
-518,145	-200,000	-0,009	0,047
-517,131	-105,774	0,148	-0,024
-516,116	-105,303	-0,094	0,015
-515,102	-84,684	-0,138	-0,032
-514,087	-167,017	-0,127	-0,004
-513,072	-200,000	0,006	0,044
-512,058	24,905	0,029	0,018
-511,043	-69,725	-0,023	0,007
-510,029	800,000	-0,019	0,047
-509,014	-200,000	0,018	0,112
-507,999	-200,000	0,012	0,105
-506,985	800,000	0,024	0,057
-505,970	-40,255	-0,149	-0,056
-504,956	-12,532	0,067	0,032
-503,941	-63,841	0,067	0,020
-502,926	94,017	0,062	-0,051
-501,912	-200,000	0,019	-0,063
-500,897	149,324	0,043	0,043
-499,883	21,229	-0,051	0,030
-498,868	62,751	-0,060	-0,044
-497,853	-200,000	0,029	-0,118
-496,839	800,000	-0,026	0,053
-495,824	-200,000	0,015	-0,071
-494,810	-112,662	-0,043	0,006
-493,795	180,676	-0,097	0,104
-492,781	-200,000	-0,037	-0,125
-491,766	86,962	0,035	0,028
-490,751	-159,016	-0,120	0,005
-489,737	-178,369	-0,093	-0,002
-488,722	167,298	-0,064	0,066
-487,708	61,366	-0,100	0,073
-486,693	460,846	0,044	-0,073
-485,678	-200,000	0,004	-0,053
-484,664	752,093	-0,033	0,064
-483,649	-200,000	-0,002	0,044
-482,635	-200,000	0,042	-0,193
-481,620	-187,503	-0,014	-0,000
-480,605	-200,000	-0,009	0,060
-479,591	21,173	-0,093	0,055
-478,576	-107,793	0,063	0,010
-477,562	178,058	-0,058	-0,061
-476,547	-200,000	-0,015	-0,138
-475,532	117,062	0,091	0,081
-474,518	-127,447	-0,064	0,007
-473,503	432,538	0,036	0,057
-472,489	800,000	0,044	0,120
-471,474	42,084	-0,082	0,054
-470,459	800,000	-0,061	-0,128
-469,445	301,605	-0,071	-0,096
-468,430	-200,000	0,003	-0,031
-467,416	800,000	-0,043	0,109
-466,401	-92,856	0,059	-0,012
-465,386	213,684	-0,049	0,057
-464,372	15,819	-0,013	0,007
-463,357	-200,000	0,021	-0,077
-462,343	-75,183	-0,114	-0,030
-461,328	177,201	-0,059	-0,062
-460,313	9,761	-0,047	0,026
-459,299	763,457	-0,038	0,075
-458,284	134,830	0,119	-0,113
-457,270	35,858	-0,129	-0,083
-456,255	-165,682	-0,157	-0,005
-455,241	72,075	-0,023	0,017
-454,226	17,281	-0,072	-0,042
-453,211	-200,000	0,004	-0,031
-452,197	800,000	0,032	0,066
-451,182	-170,777	-0,091	0,002
-450,168	177,623	-0,040	0,042
-449,153	-200,000	0,013	-0,173
-448,138	-200,000	0,029	-0,113
-447,124	-11,137	-0,103	0,049
-446,109	-200,000	0,002	0,084
-445,095	-67,558	0,116	0,033
-444,080	-55,319	-0,060	0,019
-443,065	62,403	0,078	0,057
-442,051	-200,000	0,031	0,138
-441,036	800,000	-0,054	-0,153
-440,022	70,470	-0,085	-0,064
-439,007	-27,558	-0,114	0,048
-437,992	-200,000	0,002	-0,056
-436,978	-131,929	0,048	0,005
-435,963	409,075	0,020	-0,031
-434,949	-68,718	0,054	-0,015
-433,934	-144,441	-0,047	0,003
-432,919	514,081	0,028	-0,047
-431,905	-92,392	0,093	-0,019
-430,890	2,441	0,118	0,062
-429,876	-200,000	0,028	-0,133
-428,861	-200,000	-0,004	-0,134
-427,846	454,792	0,089	0,145
-426,832	-200,000	-0,003	-0,133
-425,817	172,853	-0,091	-0,096
-424,803	800,000	0,095	0,196
-423,788	132,985	-0,099	0,093
-422,773	-200,000	-0,017	0,096
-421,759	-89,296	-0,066	0,014
-420,744	393,869	0,068	0,103
-419,730	-106,237	-0,103	0,017
-418,715	438,005	-0,022	-0,034
-417,701	61,568	-0,061	-0,044
-416,686	-70,377	0,117	-0,032
-415,671	800,000	-0,022	0,052
-414,657	-200,000	-0,003	0,064
-413,642	-200,000	-0,008	0,075
-412,628	634,991	-0,077	0,142
-411,613	-200,000	0,010	-0,093
-410,598	-126,873	0,026	-0,003
-409,584	260,556	-0,055	-0,070
-408,569	52,539	0,059	-0,041
-407,555	450,773	0,040	-0,065
-406,540	794,719	-0,043	0,087
-405,525	-10,370	-0,106	-0,051
-404,511	-200,000	-0,004	0,063
-403,496	-54,842	-0,034	0,011
-402,482	-91,195	0,120	0,025
-401,467	-200,000	0,006	-0,031
-400,452	800,000	0,049	-0,136
-399,438	724,860	-0,015	0,029
-398,423	-122,510	0,035	-0,004
-397,409	-149,952	-0,098	-0,005
-396,394	-200,000	0,015	0,070
-395,379	-200,000	-0,006	-0,052
-394,365	800,000	-0,027	-0,056
-393,350	800,000	-0,047	0,107
-392,336	-57,962	0,037	0,012
-391,321	-143,049	-0,100	-0,007
-390,306	-125,952	-0,193	0,021
-389,292	-97,756	-0,068	-0,013
-388,277	-200,000	-0,014	0,059
-387,263	171,793	-0,045	-0,047
-386,248	-200,000	0,077	-0,000
-385,233	-200,000	-0,020	-0,123
-384,219	21,929	0,086	-0,051
-383,204	-36,443	0,112	0,044
-382,190	71,327	-0,065	-0,049
-381,175	-14,888	-0,102	0,048
-380,160	91,114	0,095	0,078
-379,146	-75,442	0,123	0,032
-378,131	133,902	0,014	0,013
-377,117	712,507	0,041	0,078
-376,102	105,590	-0,096	-0,082
-375,088	800,000	-0,006	-0,016
-374,073	-200,000	-0,017	-0,151
-373,058	-200,000	-0,030	-0,122
-372,044	-200,000	-0,002	0,056
-371,029	-94,288	0,045	-0,009
-370,015	563,068	0,046	0,082
-369,000	327,703	-0,053	-0,074
-367,985	203,307	-0,041	-0,047
-366,971	-200,000	0,016	-0,060
-365,956	257,402	0,088	-0,110
-364,942	-200,000	0,009	0,044
-363,927	-16,434	0,094	-0,043
-362,912	-74,606	0,114	-0,029
-361,898	-144,705	0,023	-0,002
-360,883	131,420	0,110	-0,102
-359,869	157,920	-0,093	-0,093
-358,854	-56,939	-0,097	-0,031
-357,839	800,000	-0,016	-0,040
-356,825	-200,000	0,003	0,049
-355,810	-200,000	-0,000	0,142
-354,796	-43,919	-0,037	-0,013
-353,781	100,551	-0,031	0,026
-352,766	-200,000	0,004	0,075
-351,752	-146,206	0,111	0,007
-350,737	101,573	-0,087	0,074
-349,723	-200,000	-0,027	-0,100
-348,708	788,883	0,087	0,174
-347,693	-124,964	-0,215	-0,024
-346,679	800,000	-0,034	-0,081
-345,664	-200,000	0,007	0,065
-344,650	800,000	0,064	0,170
-343,635	156,571	0,058	0,059
-342,620	150,604	0,082	0,081
-341,606	230,864	-0,083	0,098
-340,591	-158,947	-0,053	-0,002
-339,577	201,538	0,038	-0,042
-338,562	-200,000	0,003	0,045
-337,548	333,657	0,064	0,090
-336,533	-200,000	0,042	0,193
-335,518	297,295	0,125	0,167
-334,504	800,000	-0,028	0,087
-333,489	58,276	0,035	-0,025
-332,475	-114,780	0,021	-0,003
-331,460	560,645	-0,048	-0,084
-330,445	-15,072	-0,154	-0,071
-329,431	-200,000	-0,009	-0,051
-328,416	-200,000	0,001	0,025
-327,402	-76,389	-0,072	0,018
-326,387	800,000	-0,026	0,066
-325,372	-200,000	-0,004	0,045
-324,358	183,108	0,072	-0,078
-323,343	-138,951	0,123	-0,010
-322,329	800,000	0,012	0,039
-321,314	-200,000	-0,020	-0,071
-320,299	800,000	-0,026	-0,060
-319,285	502,104	0,013	0,021
-318,270	-175,323	-0,151	0,003
-317,256	800,000	0,017	-0,052
-316,241	98,367	0,045	0,038
-315,226	-96,590	0,035	-0,007
-314,212	-200,000	0,004	0,025
-313,197	-6,584	0,065	0,032
-312,183	174,994	0,057	0,060
-311,168	-43,140	-0,096	-0,035
-310,153	615,449	0,024	-0,043
-309,139	-100,383	0,198	0,035
-308,124	-107,522	0,089	0,014
-307,110	-200,000	0,021	0,126
-306,095	147,650	0,067	0,065
-305,080	76,424	0,059	0,045
-304,066	107,315	-0,071	-0,061
-303,051	-200,000	-0,034	-0,203
-302,037	17,192	0,106	-0,061
-301,022	18,711	0,140	0,081
-300,008	-88,071	0,119	0,026
-298,993	800,000	0,071	0,145
-297,978	352,248	0,082	0,117
-296,964	800,000	0,020	-0,046
-295,949	213,722	0,022	0,025
-294,935	-128,751	0,166	-0,017
-293,920	800,000	0,036	0,090
-292,905	-200,000	-0,003	0,038
-291,891	-22,958	0,168	0,073
-290,876	800,000	-0,065	0,143
-289,862	307,417	0,070	-0,094
-288,847	192,402	-0,066	-0,073
-287,832	185,066	0,060	-0,065
-286,818	24,849	-0,020	-0,012
-285,803	-200,000	0,008	0,027
-284,789	423,443	-0,063	-0,099
-283,774	-101,079	0,180	0,032
-282,759	751,331	0,034	-0,067
-281,745	4,925	-0,011	0,006
-280,730	56,000	-0,016	-0,011
-279,716	-49,892	-0,027	-0,009
-278,701	-175,220	0,120	0,002
-277,686	577,444	0,028	0,050
-276,672	-200,000	-0,020	-0,102
-275,657	-76,740	-0,045	0,011
-274,643	-200,000	-0,034	-0,148
-273,628	-87,453	0,111	-0,024
-272,613	-200,000	-0,014	-0,051
-271,599	800,000	-0,017	-0,047
-270,584	-33,258	0,012	-0,005
-269,570	207,240	0,036	-0,040
-268,555	-108,679	-0,100	0,015
-267,540	749,460	0,049	0,097
-266,526	-200,000	-0,015	0,125
-265,511	-200,000	0,040	0,175
-264,497	774,204	0,038	0,075
-263,482	253,201	0,073	-0,090
-262,467	-200,000	-0,004	-0,094
-261,453	-129,722	0,062	-0,006
-260,438	140,734	-0,021	0,020
-259,424	125,089	-0,040	-0,036
-258,409	-166,037	-0,146	0,004
-257,395	49,550	0,062	0,042
-256,380	490,744	0,083	0,137
-255,365	-187,270	-0,161	0,002
-254,351	-200,000	-0,024	0,080
-253,336	-200,000	-0,023	0,076
-252,322	-200,000	-0,007	-0,069
-251,307	-137,037	-0,073	0,006
-250,292	-101,425	0,017	0,003
-249,278	800,000	-0,047	-0,144
-248,263	-200,000	-0,042	0,137
-247,249	91,075	0,056	-0,046
-246,234	-200,000	0,011	-0,122
-245,219	11,326	-0,052	0,029
-244,205	23,427	-0,136	0,080
-243,190	-57,261	-0,060	-0,019
-242,176	-102,871	0,080	0,014
-241,161	-200,000	-0,002	0,078
-240,146	34,227	0,060	0,038
-239,132	-90,002	0,037	0,008
-238,117	-89,349	-0,044	0,009
-237,103	-200,000	0,037	-0,131
-236,088	321,245	-0,054	0,074
-235,073	-200,000	-0,001	0,078
-234,059	780,471	0,054	0,108
-233,044	-200,000	0,038	0,147
-232,030	-157,069	-0,105	-0,005
-231,015	-200,000	0,009	-0,126
-230,000	-200,000	0,005	0,061
-228,986	123,396	-0,150	0,136
-227,971	7,015	0,127	0,068
-226,957	-36,927	0,170	0,065
-225,942	258,119	-0,127	0,158
-224,927	-45,122	0,129	0,046
-223,913	-200,000	0,012	-0,082
-222,898	189,577	0,068	-0,074
-221,884	-101,824	-0,071	-0,012
-220,869	68,753	0,050	-0,037
-219,855	-200,000	-0,008	0,027
-218,840	718,737	-0,092	0,177
-217,825	-200,000	0,013	0,066
-216,811	-1,356	-0,044	-0,022
-215,796	198,799	-0,091	-0,101
-214,782	-80,606	-0,126	-0,030
-213,767	74,265	0,057	0,043
-212,752	-68,534	0,184	-0,051
-211,738	-69,906	-0,068	0,019
-210,723	19,551	0,055	0,032
-209,709	-16,235	0,057	-0,026
-208,694	-104,362	0,071	0,012
-207,679	800,000	-0,066	-0,173
-206,665	94,507	-0,111	-0,091
-205,650	333,023	-0,016	-0,023
-204,636	-49,169	0,085	0,029
-203,621	23,184	0,049	0,029
-202,606	169,842	-0,035	-0,037
-201,592	-200,000	-0,005	-0,017
-200,577	-132,630	0,096	0,009
-199,563	-2,312	-0,051	-0,026
-198,548	800,000	0,076	0,192
-197,533	63,298	0,145	0,105
-196,519	101,859	0,046	-0,038
-195,504	800,000	0,081	-0,203
-194,490	187,160	-0,061	-0,066
-193,475	-200,000	-0,034	0,112
-192,460	-200,000	-0,013	-0,051
-191,446	-200,000	-0,026	0,087
-190,431	-200,000	-0,005	-0,038
-189,417	-200,000	-0,005	-0,097
-188,402	0,560	0,233	0,120
-187,387	-200,000	-0,007	-0,081
-186,373	800,000	-0,045	-0,113
-185,358	800,000	-0,068	-0,146
-184,344	25,395	0,055	0,033
-183,329	156,644	0,138	0,137
-182,315	77,173	0,069	0,053
-181,300	-66,358	-0,148	0,042
-180,285	-200,000	-0,021	-0,071
-179,271	247,555	-0,087	-0,106
-178,256	114,811	0,096	0,084
-177,242	800,000	-0,010	-0,024
-176,227	-73,007	-0,082	0,022
-175,212	-200,000	-0,013	0,118
-174,198	-155,786	-0,102	-0,005
-173,183	-200,000	0,013	-0,101
-172,169	800,000	0,057	-0,140
-171,154	-200,000	0,013	-0,043
-170,139	450,813	-0,047	-0,075
-169,125	-166,286	0,188	0,006
-168,110	96,344	-0,131	-0,108
-167,096	-200,000	0,015	0,060
-166,081	60,194	0,160	0,114
-165,066	-200,000	0,000	0,067
-164,052	-46,871	-0,048	0,017
-163,037	-200,000	0,008	-0,061
-162,023	-200,000	-0,029	0,116
-161,008	-13,879	-0,008	-0,003
-159,993	-114,126	0,082	-0,011
-158,979	-200,000	0,021	0,073
-157,964	41,698	0,033	-0,022
-156,950	-120,419	0,158	0,019
-155,935	196,442	0,008	-0,009
-154,920	-200,000	-0,023	0,094
-153,906	-200,000	0,013	0,091
-152,891	-200,000	-0,011	0,061
-151,877	-200,000	0,013	-0,144
-150,862	800,000	0,011	0,024
-149,847	-58,211	0,124	0,039
-148,833	-200,000	-0,060	0,000
-147,818	-200,000	0,017	-0,175
-146,804	800,000	0,046	0,124
-145,789	800,000	0,037	0,077
-144,775	791,845	-0,012	0,024
-143,760	583,867	-0,054	0,096
-142,745	-67,248	-0,034	0,010
-141,731	-21,857	0,017	0,007
-140,716	648,567	0,024	0,044
-139,702	-200,000	0,011	0,052
-138,687	800,000	0,007	0,015
-137,672	-40,210	0,151	-0,056
-136,658	121,535	-0,077	-0,069
-135,643	-68,095	-0,083	-0,023
-134,629	-200,000	-0,013	0,070
-133,614	124,350	0,072	0,065
-132,599	91,380	0,074	-0,060
-131,585	-40,953	-0,145	-0,054
-130,570	800,000	0,031	-0,087
-129,556	45,661	-0,152	-0,101
-128,541	0,610	-0,038	-0,019
-127,526	-55,933	-0,017	-0,005
-126,512	242,367	-0,084	0,101
-125,497	-200,000	0,024	0,092
-124,483	174,759	-0,073	0,076
-123,468	43,782	0,230	-0,151
-122,453	139,057	-0,056	-0,053
-121,439	-200,000	-0,016	-0,070
-120,424	-120,676	-0,142	-0,017
-119,410	-200,000	-0,006	0,058
-118,395	800,000	-0,033	0,084
-117,380	464,756	-0,079	-0,128
-116,366	118,857	-0,061	0,054
-115,351	-40,576	-0,087	0,032
-114,337	-22,127	-0,109	0,047
-113,322	735,893	-0,028	-0,054
-112,307	-200,000	0,035	0,123
-111,293	-200,000	0,055	0,214
-110,278	-200,000	0,007	0,036
-109,264	75,887	-0,168	0,128
-108,249	-77,643	-0,147	-0,036
-107,234	242,461	0,019	0,022
-106,220	434,926	-0,057	-0,090
-105,205	45,613	0,075	-0,050
-104,191	73,307	-0,084	0,063
-103,176	-28,507	-0,029	0,012
-102,162	157,701	0,046	0,046
-101,147	-58,000	-0,121	0,038
-100,132	-200,000	0,001	-0,070
-99,118	-101,363	-0,080	-0,014
-98,103	-200,000	0,019	-0,084
-97,089	-200,000	-0,018	0,083
-96,074	367,571	0,036	-0,053
-95,059	-200,000	0,010	0,056
-94,045	-200,000	0,014	-0,082
-93,030	800,000	-0,048	-0,130
-92,016	800,000	-0,044	-0,091
-91,001	411,595	0,047	0,072
-89,986	-200,000	0,009	0,030
-88,972	526,772	-0,033	0,056
-87,957	-118,043	0,139	0,018
-86,943	305,797	-0,043	-0,057
-85,928	-1,520	-0,092	-0,046
-84,913	110,255	0,038	0,033
-83,899	180,087	0,082	-0,086
-82,884	800,000	0,023	0,059
-81,870	572,073	-0,067	0,117
-80,855	516,995	0,073	0,123
-79,840	-181,861	0,010	-0,000
-78,826	37,527	-0,094	-0,060
-77,811	-200,000	-0,044	-0,150
-76,797	353,065	-0,038	-0,054
-75,782	112,912	-0,082	0,071
-74,767	800,000	-0,038	0,076
-73,753	800,000	0,036	-0,113
-72,738	-147,502	-0,034	-0,002
-71,724	-200,000	0,037	0,132
-70,709	355,205	-0,010	-0,015
-69,694	-88,350	-0,030	-0,006
-68,680	-200,000	-0,003	-0,089
-67,665	674,149	0,026	-0,048
-66,651	800,000	0,039	0,078
-65,636	-200,000	0,006	-0,075
-64,622	-200,000	-0,026	-0,132
-63,607	-200,000	-0,000	-0,014
-62,592	-200,000	0,016	0,128
-61,578	800,000	0,033	-0,076
-60,563	800,000	-0,047	0,114
-59,549	219,886	0,033	-0,038
-58,534	48,679	-2,209	-1,483
-57,519	-200,000	0,022	-0,721
-56,505	-200,000	-1,420	-5,236
-55,490	184,004	0,871	0,925
-54,476	800,000	5,370	12,093
-53,461	-200,000	19,347	326,808
-52,446	800,000	748,112	2333,863
-51,432	547,867	1660,427	2862,381
-50,417	114,070	1641,242	1431,669
-49,403	80,434	1290,569	995,801
-48,388	30,874	1030,644	631,732
-47,373	19,789	993,538	572,279
-46,359	16,689	981,150	554,914
-45,344	13,284	977,843	541,816
-44,330	13,688	976,147	542,184
-43,315	12,879	974,371	538,518
-42,300	12,835	973,270	537,745
-41,286	12,873	972,159	537,233
-40,271	12,816	971,307	536,556
-39,257	12,833	970,479	536,133
-38,242	12,856	969,691	535,750
-37,227	12,913	968,572	535,298
-36,213	12,875	967,658	534,648
-35,198	12,831	966,904	534,064
-34,184	12,867	966,184	533,764
-33,169	12,805	965,245	533,021
-32,154	12,968	964,019	532,853
-31,140	12,839	963,149	531,933
-30,125	12,974	962,382	531,926
-29,111	12,851	961,702	531,132
-28,096	12,827	961,137	530,719
-27,082	12,894	960,231	530,416
-26,067	12,888	959,407	529,921
-25,052	12,912	958,611	529,536
-24,038	12,884	958,218	529,207
-23,023	12,840	957,459	528,624
-22,009	12,892	956,891	528,457
-20,994	12,887	956,199	528,041
-19,979	12,890	955,803	527,808
-18,965	12,877	954,897	527,247
-17,950	12,895	954,483	527,054
-16,936	12,842	953,786	526,480
-15,921	12,790	953,221	525,980
-14,906	12,792	952,171	525,385
-13,892	12,761	951,625	524,965
-12,877	12,773	951,266	524,784
-11,863	12,699	950,369	524,031
-10,848	12,715	950,000	523,856
-9,833	12,798	949,479	523,815
-8,819	12,781	948,747	523,335
-7,804	12,779	947,739	522,753
-6,790	12,759	947,411	522,487
-5,775	12,831	946,805	522,363
-4,760	12,797	946,369	521,993
-3,746	12,725	945,853	521,458
-2,731	12,633	944,975	520,661
-1,717	12,600	944,314	520,169
-0,702	12,589	943,660	519,754
0,313	12,401	943,069	519,616
1,327	15,847	940,716	529,191
2,342	24,897	793,558	470,404
3,356	20,624	457,874	264,862
4,371	-7,234	316,341	153,136
5,386	-11,133	298,100	140,318
6,400	-13,347	292,186	135,307
7,415	-13,508	289,846	134,053
8,429	-13,509	288,147	133,254
9,444	-13,533	287,262	132,809
10,459	-13,438	286,678	132,620
11,473	-13,398	285,957	132,315
12,488	-13,600	285,432	131,863
13,502	-13,822	285,154	131,506
14,517	-13,333	284,680	131,751
15,531	-13,001	284,246	131,862
16,546	-12,963	283,989	131,768
17,561	-12,973	283,601	131,566
18,575	-12,819	283,305	131,567
19,590	-13,031	282,773	131,103
20,604	-12,847	282,551	131,165
21,619	-12,905	282,280	130,972
22,634	-13,003	281,846	130,665
23,648	-12,996	281,475	130,488
24,663	-13,084	281,496	130,402
25,677	-12,907	280,892	130,280
26,692	-13,032	280,693	130,056
27,707	-12,818	280,494	130,157
28,721	-12,862	280,257	129,994
29,736	-12,960	279,826	129,688
30,750	-13,009	279,648	129,547
31,765	-12,914	279,412	129,517
32,780	-12,806	279,149	129,487
33,794	-12,868	278,613	129,168
34,809	-13,045	278,653	129,006
35,823	-12,950	278,353	128,946
36,838	-12,878	278,210	128,937
37,853	-12,858	277,859	128,782
38,867	-12,970	277,536	128,514
39,882	-12,872	277,285	128,479
40,896	-12,855	277,129	128,412
41,911	-13,020	276,943	128,158
42,926	-12,941	276,622	128,073
43,940	-12,977	276,355	127,904
44,955	-12,977	276,164	127,803
45,969	-12,956	275,975	127,725
46,984	-12,956	275,710	127,591
47,999	-12,898	275,541	127,556
49,013	-12,851	275,099	127,384
50,028	-13,032	275,022	127,168
51,042	-12,906	274,657	127,105
52,057	-13,105	274,527	126,847
53,071	-13,105	274,342	126,751
54,086	-12,922	274,061	126,780
55,101	-12,986	273,774	126,577
56,115	-13,048	273,661	126,455
57,130	-12,964	273,528	126,461
58,144	-12,938	273,169	126,308
59,159	-13,058	272,893	126,057
60,174	-12,979	272,538	125,955
61,188	-13,014	272,513	125,900
62,203	-12,967	272,303	125,835
63,217	-12,951	272,063	125,728
64,232	-12,882	271,794	125,657
65,247	-13,182	271,685	125,317
66,261	-13,092	271,349	125,235
67,276	-12,802	271,022	125,340
68,290	-12,917	270,816	125,127
69,305	-13,029	270,548	124,890
70,320	-12,924	270,345	124,880
71,334	-12,787	270,140	124,901
72,349	-12,864	269,906	124,711
73,363	-13,057	269,710	124,432
74,378	-12,961	269,552	124,436
75,393	-12,860	269,274	124,389
76,407	-12,947	269,191	124,260
77,422	-12,888	268,889	124,164
78,436	-13,040	268,575	123,869
79,451	-13,033	268,327	123,750
80,466	-13,074	268,149	123,619
81,480	-12,919	268,080	123,718
82,495	-12,910	267,672	123,527
83,509	-12,926	267,555	123,447
84,524	-12,871	267,310	123,373
85,539	-12,864	266,984	123,218
86,553	-12,884	267,058	123,223
87,568	-12,929	266,810	123,057
88,582	-12,933	266,433	122,868
89,597	-13,101	266,352	122,668
90,611	-12,740	265,914	122,782
91,626	-12,917	265,981	122,642
92,641	-12,827	265,710	122,587
93,655	-12,618	265,404	122,623
94,670	-12,868	265,185	122,286
95,684	-12,922	265,115	122,194
96,699	-12,884	264,791	122,068
97,714	-12,938	264,579	121,911
98,728	-12,867	264,455	121,906
99,743	-12,935	264,391	121,805
100,757	-12,981	264,010	121,577
101,772	-13,047	263,848	121,433
102,787	-13,033	263,489	121,270
103,801	-13,240	263,358	121,013
104,816	-13,090	263,154	121,043
105,830	-12,961	263,062	121,105
106,845	-12,966	262,810	120,974
107,860	-12,851	262,521	120,933
108,874	-12,957	262,319	120,734
109,889	-13,161	262,160	120,469
110,903	-12,990	261,829	120,457
111,918	-13,156	261,666	120,224
112,933	-13,110	261,650	120,247
113,947	-13,194	261,521	120,103
114,962	-12,960	261,216	120,159
115,976	-12,911	261,065	120,123
116,991	-13,200	260,857	119,761
118,006	-13,096	260,630	119,738
119,020	-13,091	260,471	119,658
120,035	-12,899	260,251	119,716
121,049	-13,046	260,103	119,507
122,064	-12,999	259,962	119,473
123,079	-13,098	259,655	119,235
124,093	-12,892	259,462	119,317
125,108	-13,006	259,311	119,136
126,122	-12,951	259,124	119,088
127,137	-12,801	258,850	119,083
128,151	-12,913	258,623	118,870
129,166	-13,131	258,538	118,629
130,181	-13,126	258,319	118,523
131,195	-13,051	257,999	118,431
132,210	-12,901	257,913	118,511
133,224	-13,079	257,745	118,268
134,239	-12,898	257,464	118,287
135,254	-12,846	257,186	118,194
136,268	-12,945	257,047	118,033
137,283	-13,119	256,871	117,790
138,297	-13,065	256,666	117,733
139,312	-13,183	256,506	117,547
140,327	-13,123	256,390	117,535
141,341	-12,756	256,000	117,664
142,356	-12,963	255,937	117,445
143,370	-13,123	255,779	117,223
144,385	-12,749	255,558	117,435
145,400	-12,872	255,316	117,207
146,414	-12,818	255,147	117,165
147,429	-13,031	255,035	116,920
148,443	-12,902	254,913	116,965
149,458	-13,112	254,552	116,609
150,473	-12,940	254,374	116,664
151,487	-12,990	254,052	116,463
152,502	-13,134	254,237	116,414
153,516	-12,825	253,915	116,521
154,531	-12,889	253,722	116,368
155,546	-12,837	253,319	116,216
156,560	-13,001	253,382	116,095
157,575	-13,019	253,036	115,911
158,589	-13,109	252,836	115,732
159,604	-12,882	252,727	115,865
160,619	-12,798	252,529	115,836
161,633	-12,941	252,444	115,665
162,648	-12,723	252,231	115,743
163,662	-12,919	251,943	115,433
164,677	-12,934	251,884	115,383
165,692	-13,090	251,758	115,182
166,706	-12,842	251,492	115,261
167,721	-12,882	251,257	115,109
168,735	-12,931	251,278	115,067
169,750	-13,092	251,094	114,836
170,764	-12,897	250,726	114,823
171,779	-12,826	250,518	114,777
172,794	-12,915	250,582	114,721
173,808	-12,711	250,167	114,693
174,823	-13,237	250,220	114,262
175,837	-12,979	249,979	114,361
176,852	-12,981	249,741	114,240
177,867	-13,092	249,735	114,133
178,881	-13,106	249,458	113,984
179,896	-13,064	249,311	113,943
180,910	-12,842	249,003	113,977
181,925	-12,904	248,886	113,862
182,940	-13,234	248,859	113,562
183,954	-12,930	248,588	113,684
184,969	-12,666	248,368	113,794
185,983	-12,722	248,220	113,669
186,998	-12,817	248,162	113,553
188,013	-12,826	247,968	113,446
189,027	-12,676	247,635	113,410
190,042	-13,020	247,654	113,121
191,056	-13,108	247,274	112,864
192,071	-13,177	247,044	112,692
193,086	-13,010	246,772	112,696
194,100	-12,938	246,649	112,690
195,115	-12,865	246,483	112,664
196,129	-12,738	246,379	112,712
197,144	-13,116	246,227	112,319
198,159	-13,089	246,150	112,296
199,173	-12,949	245,827	112,255
200,188	-13,257	245,404	111,797
201,202	-13,408	245,465	111,691
202,217	-13,020	245,214	111,887
203,232	-13,050	245,019	111,763
204,246	-13,265	244,756	111,456
205,261	-14,325	244,254	110,345
206,275	-14,241	244,074	110,323
207,290	-10,172	245,709	114,416
208,304	-3,133	248,044	121,352
209,319	1,338	249,212	125,639
210,334	2,259	249,365	126,472
211,348	2,803	249,426	126,944
212,363	3,068	249,403	127,142
213,377	3,446	249,357	127,421
214,392	3,638	249,477	127,631
215,407	3,806	249,268	127,652
216,421	3,825	249,022	127,530
217,436	3,920	248,904	127,537
218,450	3,801	248,627	127,286
219,465	3,619	248,583	127,101
220,480	3,530	248,372	126,908
221,494	3,277	247,963	126,479
222,509	2,939	247,784	126,097
223,523	2,912	247,508	125,923
224,538	2,554	247,333	125,528
225,553	2,545	247,149	125,416
226,567	2,179	246,841	124,948
227,582	2,324	246,742	125,005
228,596	2,631	246,573	125,161
229,611	2,589	246,310	124,982
230,626	2,280	246,288	124,706
231,640	2,257	246,170	124,616
232,655	2,580	245,983	124,775
233,669	2,338	245,850	124,498
234,684	2,582	245,473	124,495
235,699	2,570	245,643	124,560
236,713	2,698	245,405	124,533
237,728	2,567	245,174	124,298
238,742	2,471	245,051	124,147
239,757	2,329	244,941	123,964
240,772	2,539	244,587	123,944
241,786	2,546	244,417	123,853
242,801	2,528	244,349	123,793
243,815	2,301	244,256	123,550
244,830	2,520	244,082	123,629
245,844	2,323	244,019	123,426
246,859	2,579	243,708	123,466
247,874	2,501	243,641	123,358
248,888	2,836	243,310	123,450
249,903	2,686	243,174	123,249
250,917	2,613	243,312	123,248
251,932	2,809	242,968	123,222
252,947	2,582	242,805	122,945
253,961	2,750	242,692	123,012
254,976	2,779	242,569	122,962
255,990	2,567	242,259	122,624
257,005	2,560	242,283	122,619
258,020	2,572	242,096	122,523
259,034	2,601	241,833	122,402
260,049	2,532	241,655	122,246
261,063	2,407	241,528	122,070
262,078	2,521	241,211	121,991
263,093	2,596	241,318	122,094
264,107	2,633	241,027	121,965
265,122	2,323	240,931	121,658
266,136	2,742	240,795	121,913
267,151	2,605	240,619	121,704
268,166	2,364	240,516	121,448
269,180	2,418	240,181	121,312
270,195	2,347	240,170	121,238
271,209	2,595	239,871	121,275
272,224	2,683	239,843	121,320
273,239	2,474	239,630	121,034
274,253	2,339	239,564	120,883
275,268	2,466	239,414	120,898
276,282	2,444	239,202	120,762
277,297	2,556	239,048	120,763
278,312	2,610	238,754	120,646
279,326	2,438	238,785	120,515
280,341	2,671	238,552	120,571
281,355	2,443	238,501	120,354
282,370	2,718	238,358	120,488
283,384	2,531	238,181	120,241
284,399	2,456	237,976	120,067
285,414	2,527	237,904	120,076
286,428	2,402	237,684	119,856
287,443	2,531	237,533	119,871
288,457	2,445	237,378	119,714
289,472	2,704	237,000	119,716
290,487	2,515	237,033	119,574
291,501	2,516	236,928	119,511
292,516	2,486	236,661	119,342
293,530	2,546	236,598	119,347
294,545	2,804	236,398	119,437
295,560	2,717	236,282	119,299
296,574	2,450	236,180	119,029
297,589	2,447	236,025	118,938
298,603	2,572	235,978	119,001
299,618	2,619	235,652	118,863
300,633	2,670	235,524	118,827
301,647	2,623	235,520	118,778
302,662	2,755	235,333	118,776
303,676	2,739	235,175	118,673
304,691	2,731	234,971	118,553
305,706	2,747	234,919	118,529
306,720	2,806	234,735	118,472
307,735	2,915	234,431	118,392
308,749	2,588	234,475	118,150
309,764	2,515	234,211	117,950
310,779	2,463	234,028	117,807
311,793	2,410	233,886	117,684
312,808	2,775	233,604	117,814
313,822	2,656	233,648	117,734
314,837	2,572	233,538	117,602
315,852	2,585	233,383	117,524
316,866	2,778	233,113	117,527
317,881	2,746	233,014	117,441
318,895	2,917	232,630	117,369
319,910	2,695	232,678	117,212
320,925	2,689	232,582	117,149
321,939	2,621	232,319	116,953
322,954	2,746	232,241	116,999
323,968	2,634	232,077	116,821
324,983	2,517	232,001	116,682
325,997	2,738	231,764	116,722
327,012	2,888	231,596	116,742
328,027	2,559	231,575	116,469
329,041	2,608	231,558	116,487
330,056	2,644	231,275	116,362
331,070	2,705	231,123	116,322
332,085	2,564	230,852	116,068
333,100	2,553	230,753	115,999
334,114	2,509	230,530	115,843
335,129	2,630	230,387	115,853
336,143	2,577	230,361	115,789
337,158	2,484	230,242	115,649
338,173	2,723	230,170	115,783
339,187	2,935	229,725	115,710
340,202	2,668	229,711	115,491
341,216	2,708	229,602	115,456
342,231	2,808	229,505	115,472
343,246	2,778	229,297	115,334
344,260	2,685	229,265	115,238
345,275	2,868	228,990	115,228
346,289	2,632	228,873	114,980
347,304	2,728	228,621	114,916
348,319	2,724	228,575	114,879
349,333	2,753	228,352	114,779
350,348	2,424	228,283	114,486
351,362	2,624	228,121	114,546
352,377	2,800	227,859	114,536
353,392	2,503	227,838	114,292
354,406	2,338	227,679	114,078
355,421	195,425	1313,750	1388,788
356,435	156,738	1446,013	1388,733
