DTS Sentinel unit serial number:	SN410029Multiplexer serial number:	ORYXHardware model number:	OX2-SRSoftware version number:	ORYX F/W v4,00 Oryx Data Collector v3.7.2.0data status	okinstallation	B5 Nyhavnadifferential loss correction	single-endedforward channel	channel 2reverse channel	N/Adate	2023/12/11time	20:12:13forward acquisition time	300,00reverse acquisition time	0,00gamma	499,1914k internal	0,3158k external	0,3158temperature offset calibration	1,0000default loss term (dB/km)	0,3820temperature slope calibration	1,0000multiplexer offset coefficient	1,0000multiplexer slope coefficient	1,0000fibre end	0,00T internal ref (°C)	15,90T ext. ref 1 (°C)	0,08T ext. ref 2 (°C)	-0,15length (m)	temperature (°C)	Stokes	anti-Stokes-744,400	-100,903	0,037	0,007
-743,385	10,391	-0,203	0,114
-742,371	-104,122	0,160	-0,027
-741,356	-148,491	-0,157	0,009
-740,342	103,782	0,019	0,017
-739,327	-63,885	-0,302	-0,091
-738,312	-187,106	0,208	-0,002
-737,298	-85,264	-0,293	-0,067
-736,283	-59,322	0,099	0,031
-735,269	-128,545	-0,231	-0,024
-734,254	-200,000	0,007	0,041
-733,239	-83,319	-0,361	-0,085
-732,225	-119,730	0,114	-0,014
-731,210	-27,328	0,076	0,032
-730,196	-72,545	0,068	0,018
-729,181	-111,291	0,022	0,003
-728,167	-156,600	-0,055	0,002
-727,152	800,000	0,018	-0,049
-726,137	800,000	-0,049	0,123
-725,123	-41,486	-0,037	0,014
-724,108	-45,157	-0,031	0,011
-723,094	-38,819	-0,058	-0,022
-722,079	800,000	-0,025	-0,052
-721,064	127,235	-0,039	-0,036
-720,050	206,263	0,096	0,110
-719,035	-88,725	-0,116	0,025
-718,021	182,295	-0,030	-0,033
-717,006	-200,000	-0,015	0,085
-715,991	307,901	-0,035	0,048
-714,977	800,000	0,008	-0,020
-713,962	13,148	-0,117	-0,067
-712,948	132,543	0,025	0,024
-711,933	76,277	0,107	-0,083
-710,918	-200,000	-0,007	-0,035
-709,904	168,124	-0,069	-0,072
-708,889	606,360	-0,106	-0,196
-707,875	148,522	-0,020	-0,020
-706,860	-60,920	-0,121	-0,037
-705,845	-66,014	-0,061	0,018
-704,831	169,808	-0,028	0,030
-703,816	-200,000	-0,004	0,089
-702,802	67,766	-0,127	0,096
-701,787	753,512	-0,051	-0,102
-700,772	-200,000	0,030	-0,099
-699,758	-118,143	0,082	0,011
-698,743	-16,750	0,105	0,049
-697,729	256,783	0,030	-0,038
-696,714	138,015	-0,044	-0,043
-695,699	-5,688	-0,046	0,023
-694,685	351,036	-0,026	-0,038
-693,670	176,882	-0,026	0,028
-692,656	-100,599	-0,121	-0,022
-691,641	-200,000	-0,011	0,052
-690,627	277,145	0,041	-0,054
-689,612	-200,000	-0,006	0,135
-688,597	-72,953	-0,098	0,026
-687,583	37,937	0,080	-0,052
-686,568	800,000	0,039	0,084
-685,554	115,057	-0,092	-0,082
-684,539	800,000	-0,010	-0,025
-683,524	-200,000	0,016	-0,114
-682,510	-200,000	-0,012	-0,045
-681,495	167,589	0,040	0,041
-680,481	-200,000	0,013	-0,073
-679,466	746,044	-0,070	-0,138
-678,451	-139,897	-0,108	-0,008
-677,437	-200,000	0,018	-0,075
-676,422	-200,000	-0,008	0,099
-675,408	-21,306	-0,029	0,013
-674,393	13,113	-0,063	0,036
-673,378	429,225	-0,029	0,046
-672,364	-42,325	-0,115	-0,043
-671,349	-121,343	-0,027	0,003
-670,335	-197,889	-0,122	-0,001
-669,320	11,625	0,087	0,049
-668,305	174,405	0,058	-0,061
-667,291	-140,358	-0,163	0,012
-666,276	-76,680	-0,175	-0,045
-665,262	-26,971	0,044	0,019
-664,247	-200,000	0,033	-0,124
-663,232	228,540	-0,015	0,018
-662,218	800,000	0,008	-0,025
-661,203	-93,271	-0,182	-0,037
-660,189	-51,622	0,014	0,005
-659,174	-94,214	-0,062	-0,012
-658,159	-64,823	-0,086	-0,025
-657,145	102,521	-0,024	0,020
-656,130	-83,868	-0,060	0,014
-655,116	-200,000	0,028	0,155
-654,101	178,075	0,019	-0,021
-653,086	-200,000	0,042	0,143
-652,072	95,535	-0,131	0,110
-651,057	309,534	-0,065	-0,089
-650,043	75,791	-0,086	-0,067
-649,028	800,000	-0,039	0,084
-648,014	127,348	0,084	0,078
-646,999	-71,525	-0,076	0,021
-645,984	692,764	-0,003	-0,005
-644,970	158,405	-0,039	0,040
-643,955	800,000	-0,056	-0,125
-642,941	115,896	-0,087	-0,078
-641,926	83,612	0,012	0,009
-640,911	369,424	-0,044	0,066
-639,897	-18,801	0,128	-0,059
-638,882	-200,000	0,000	-0,076
-637,868	99,592	-0,125	-0,106
-636,853	92,895	-0,042	-0,035
-635,838	-200,000	-0,008	-0,034
-634,824	51,629	0,072	-0,050
-633,809	-167,206	-0,096	-0,003
-632,795	-200,000	0,021	0,082
-631,780	800,000	0,013	-0,028
-630,765	-200,000	-0,005	-0,090
-629,751	205,226	-0,029	0,033
-628,736	-133,584	-0,141	-0,013
-627,722	-108,030	0,176	0,028
-626,707	234,140	-0,058	0,070
-625,692	800,000	0,048	0,152
-624,678	800,000	-0,021	0,054
-623,663	42,276	-0,035	-0,024
-622,649	-200,000	0,013	-0,053
-621,634	62,315	-0,065	-0,048
-620,619	-9,500	-0,048	-0,023
-619,605	36,039	-0,153	0,099
-618,590	-113,831	0,038	-0,005
-617,576	-73,770	-0,073	0,019
-616,561	800,000	0,028	0,077
-615,546	103,629	-0,072	0,062
-614,532	-28,175	-0,082	0,034
-613,517	-200,000	0,009	0,040
-612,503	800,000	-0,037	-0,111
-611,488	-131,849	0,019	-0,002
-610,474	-200,000	-0,020	-0,071
-609,459	-79,367	0,139	0,034
-608,444	8,965	0,090	0,049
-607,430	-200,000	0,015	0,052
-606,415	-161,978	-0,184	0,007
-605,401	-200,000	0,004	0,106
-604,386	36,100	0,091	0,058
-603,371	-132,530	-0,140	-0,013
-602,357	800,000	0,021	-0,064
-601,342	30,248	-0,138	0,086
-600,328	-200,000	-0,003	-0,131
-599,313	492,423	0,007	-0,012
-598,298	-200,000	0,007	0,041
-597,284	-14,377	0,089	-0,042
-596,269	96,702	-0,101	0,084
-595,255	20,376	-0,086	-0,051
-594,240	-102,335	0,104	0,018
-593,225	509,728	-0,017	-0,030
-592,211	-200,000	0,002	-0,160
-591,196	800,000	-0,036	0,089
-590,182	105,755	0,032	0,028
-589,167	800,000	0,074	0,169
-588,152	49,163	-0,132	0,091
-587,138	62,211	-0,023	0,017
-586,123	-52,035	-0,172	-0,058
-585,109	-200,000	-0,015	0,129
-584,094	5,098	-0,096	0,052
-583,079	418,918	-0,074	0,117
-582,065	217,548	0,029	0,034
-581,050	22,448	-0,119	-0,071
-580,036	16,770	-0,085	0,049
-579,021	-149,146	-0,036	0,002
-578,006	102,332	0,062	-0,053
-576,992	800,000	-0,028	-0,086
-575,977	-122,051	0,073	-0,009
-574,963	-34,624	-0,045	-0,018
-573,948	158,921	0,106	0,108
-572,934	-188,003	0,115	-0,001
-571,919	222,888	-0,067	-0,079
-570,904	-35,437	-0,103	-0,041
-569,890	800,000	0,026	0,082
-568,875	-200,000	-0,015	0,053
-567,861	161,903	-0,042	0,043
-566,846	-200,000	-0,004	0,084
-565,831	8,212	-0,054	-0,029
-564,817	698,552	-0,052	-0,100
-563,802	139,829	0,108	0,104
-562,788	800,000	-0,019	0,060
-561,773	-200,000	-0,009	-0,043
-560,758	688,178	0,013	0,025
-559,744	-155,100	0,064	-0,003
-558,729	-200,000	-0,006	-0,059
-557,715	-111,550	-0,168	-0,025
-556,700	-200,000	-0,010	-0,169
-555,685	-78,933	-0,048	-0,012
-554,671	472,524	-0,025	0,042
-553,656	-16,219	0,052	0,024
-552,642	-94,646	0,065	-0,013
-551,627	-200,000	-0,012	-0,120
-550,612	-141,636	-0,090	0,006
-549,598	-200,000	0,010	-0,117
-548,583	56,735	0,037	0,026
-547,569	-94,641	0,119	0,024
-546,554	-6,223	-0,069	0,034
-545,539	-45,935	-0,039	-0,014
-544,525	23,435	-0,095	0,057
-543,510	772,207	-0,074	0,148
-542,496	269,783	0,033	-0,043
-541,481	800,000	-0,064	-0,148
-540,466	-194,317	0,072	-0,000
-539,452	-129,927	0,064	-0,006
-538,437	1,826	-0,099	0,052
-537,423	-111,719	0,153	-0,022
-536,408	-200,000	-0,012	-0,115
-535,393	-133,010	-0,019	0,002
-534,379	-200,000	0,005	-0,065
-533,364	192,936	0,049	-0,054
-532,350	34,979	0,081	-0,052
-531,335	800,000	0,044	0,120
-530,321	-42,448	-0,063	0,023
-529,306	-200,000	-0,032	-0,107
-528,291	-23,214	0,110	0,048
-527,277	163,810	-0,051	0,053
-526,262	81,217	-0,125	-0,099
-525,248	800,000	-0,029	0,071
-524,233	353,086	0,086	0,125
-523,218	46,662	0,110	0,074
-522,204	800,000	-0,029	0,065
-521,189	101,445	0,105	-0,089
-520,175	-88,957	0,027	-0,006
-519,160	-49,267	0,137	0,047
-518,145	-200,000	0,018	0,099
-517,131	800,000	0,008	-0,018
-516,116	-64,872	0,034	-0,010
-515,102	-8,804	0,087	-0,042
-514,087	324,411	-0,019	-0,026
-513,072	-151,772	-0,135	0,007
-512,058	246,331	-0,074	-0,091
-511,043	150,655	0,049	0,048
-510,029	-200,000	-0,003	-0,053
-509,014	-59,467	-0,065	0,020
-507,999	238,811	-0,052	0,063
-506,985	29,585	0,079	0,049
-505,970	258,360	0,093	-0,117
-504,956	158,686	-0,051	-0,052
-503,941	51,726	0,068	0,047
-502,926	49,644	0,087	-0,060
-501,912	44,246	0,050	0,033
-500,897	-200,000	-0,002	0,015
-499,883	143,019	-0,150	-0,145
-498,868	-122,777	0,160	0,019
-497,853	333,800	0,037	-0,053
-496,839	-57,689	-0,245	-0,078
-495,824	-157,734	0,122	0,005
-494,810	143,313	0,058	0,057
-493,795	800,000	0,007	0,022
-492,781	-101,509	-0,096	-0,017
-491,766	242,421	0,005	0,006
-490,751	354,620	-0,062	-0,091
-489,737	12,685	-0,033	-0,019
-488,722	-58,117	-0,145	0,046
-487,708	-50,942	0,134	0,046
-486,693	-184,369	0,130	0,002
-485,678	307,192	-0,055	-0,074
-484,664	-200,000	-0,005	-0,091
-483,649	-200,000	0,021	0,175
-482,635	-120,154	0,075	-0,009
-481,620	29,077	0,101	0,063
-480,605	-144,074	0,085	0,006
-479,591	-87,239	0,034	-0,008
-478,576	-200,000	0,014	0,113
-477,562	-200,000	-0,020	0,097
-476,547	178,553	0,069	-0,074
-475,532	455,365	0,014	-0,023
-474,518	273,234	-0,059	0,077
-473,503	230,618	-0,033	0,040
-472,489	187,312	-0,006	-0,007
-471,474	169,676	0,014	0,014
-470,459	-200,000	-0,006	-0,091
-469,445	-102,541	-0,114	0,020
-468,430	81,090	0,031	0,025
-467,416	12,829	0,089	-0,050
-466,401	800,000	-0,004	-0,010
-465,386	94,739	0,063	0,052
-464,372	-200,000	-0,013	0,069
-463,357	259,774	-0,055	-0,070
-462,343	-105,327	-0,080	-0,013
-461,328	-137,723	-0,178	0,014
-460,313	156,921	-0,027	0,028
-459,299	-70,612	-0,091	-0,025
-458,284	800,000	0,061	0,132
-457,270	-106,514	0,087	0,014
-456,255	-200,000	0,033	-0,106
-455,241	-200,000	0,010	-0,032
-454,226	-200,000	-0,003	0,082
-453,211	-53,016	0,062	0,021
-452,197	-9,803	0,029	0,014
-451,182	-25,611	0,107	0,046
-450,168	242,387	0,026	0,032
-449,153	800,000	-0,026	0,080
-448,138	-100,330	-0,090	-0,016
-447,124	-82,193	0,147	-0,035
-446,109	-200,000	0,022	0,114
-445,095	-2,398	0,113	-0,058
-444,080	225,818	0,050	-0,059
-443,065	11,104	0,120	0,067
-442,051	-26,819	0,027	0,011
-441,036	-200,000	-0,003	-0,050
-440,022	303,698	0,034	-0,047
-439,007	-48,682	-0,165	-0,058
-437,992	86,935	-0,057	0,046
-436,978	-131,493	-0,057	0,005
-435,963	-42,733	-0,023	-0,008
-434,949	-200,000	-0,007	-0,091
-433,934	-91,065	-0,168	-0,035
-432,919	333,488	0,064	-0,091
-431,905	-66,707	0,054	-0,015
-430,890	139,767	0,015	0,014
-429,876	274,898	0,028	0,036
-428,861	-53,076	0,074	-0,025
-427,846	70,821	0,082	-0,062
-426,832	170,445	-0,138	-0,144
-425,817	36,753	0,040	-0,026
-424,803	-104,452	-0,202	-0,034
-423,788	800,000	0,083	-0,173
-422,773	-200,000	-0,033	-0,130
-421,759	-162,353	0,046	0,002
-420,744	144,637	-0,052	0,051
-419,730	-89,114	-0,034	0,007
-418,715	1,232	0,033	-0,017
-417,701	28,920	0,066	0,041
-416,686	657,193	-0,048	0,090
-415,671	-200,000	0,000	0,108
-414,657	-93,480	0,041	-0,008
-413,642	464,708	-0,023	0,038
-412,628	-200,000	-0,014	-0,046
-411,613	-120,051	-0,200	0,025
-410,598	-57,154	-0,097	-0,031
-409,584	-200,000	0,020	-0,094
-408,569	-12,052	0,159	-0,075
-407,555	-88,814	-0,229	-0,049
-406,540	800,000	0,046	-0,124
-405,525	167,352	-0,051	0,053
-404,511	15,679	-0,137	-0,078
-403,496	-200,000	-0,003	0,079
-402,482	-6,619	0,103	0,051
-401,467	98,077	-0,067	0,056
-400,452	-200,000	0,019	-0,098
-399,438	-200,000	-0,006	0,065
-398,423	-47,265	-0,054	0,019
-397,409	-89,976	-0,058	-0,012
-396,394	-200,000	-0,022	0,073
-395,379	133,600	-0,095	0,089
-394,365	800,000	-0,033	0,075
-393,350	528,521	-0,047	-0,082
-392,336	21,964	0,048	-0,029
-391,321	-63,259	0,038	-0,011
-390,306	-63,715	-0,169	-0,050
-389,292	140,190	-0,024	-0,023
-388,277	-54,894	0,065	-0,021
-387,263	25,702	0,172	0,104
-386,248	-176,253	0,071	0,001
-385,233	-54,791	0,153	0,050
-384,219	146,929	-0,042	-0,041
-383,204	-54,899	-0,086	0,028
-382,190	800,000	-0,001	-0,004
-381,175	12,768	-0,106	-0,059
-380,160	800,000	-0,049	0,159
-379,146	598,384	0,079	0,144
-378,131	-68,838	0,060	0,017
-377,117	-200,000	-0,191	0,000
-376,102	172,283	-0,075	0,078
-375,088	-112,988	-0,148	-0,021
-374,073	50,976	-0,080	-0,055
-373,058	11,436	0,040	0,022
-372,044	-115,716	0,179	0,024
-371,029	-39,432	-0,092	-0,035
-370,015	658,501	-0,062	-0,117
-369,000	141,424	-0,028	-0,027
-367,985	-39,979	-0,105	-0,040
-366,971	-200,000	0,007	-0,034
-365,956	657,577	-0,043	-0,081
-364,942	629,800	-0,037	0,069
-363,927	627,860	0,031	-0,056
-362,912	-200,000	0,024	0,258
-361,898	149,140	-0,074	-0,073
-360,883	-56,455	-0,061	-0,019
-359,869	198,540	0,070	0,078
-358,854	101,243	0,109	-0,092
-357,839	359,331	-0,041	0,060
-356,825	-200,000	0,003	0,030
-355,810	113,611	-0,013	0,011
-354,796	-8,355	-0,133	0,064
-353,781	-200,000	-0,039	0,134
-352,766	144,427	-0,028	-0,028
-351,752	30,509	0,065	0,040
-350,737	-200,000	-0,010	0,134
-349,723	145,813	-0,112	-0,109
-348,708	351,575	0,033	-0,048
-347,693	-200,000	-0,009	-0,052
-346,679	800,000	0,047	-0,145
-345,664	228,400	-0,020	-0,024
-344,650	-96,148	0,110	0,021
-343,635	-118,290	0,083	-0,011
-342,620	-72,316	-0,047	-0,012
-341,606	65,481	0,068	0,050
-340,591	671,656	0,052	-0,098
-339,577	22,902	0,079	-0,047
-338,562	800,000	0,037	-0,095
-337,548	-36,328	-0,033	-0,013
-336,533	-46,211	0,162	-0,058
-335,518	327,349	0,061	0,084
-334,504	-200,000	-0,019	-0,076
-333,489	-200,000	-0,003	-0,055
-332,475	193,015	-0,033	-0,037
-331,460	-200,000	-0,004	-0,082
-330,445	317,752	-0,073	0,100
-329,431	17,871	0,070	0,040
-328,416	13,552	0,104	0,058
-327,402	-200,000	0,023	-0,112
-326,387	-200,000	0,033	0,124
-325,372	229,245	-0,031	-0,036
-324,358	416,122	-0,052	-0,081
-323,343	97,310	0,080	0,067
-322,329	-200,000	0,002	-0,071
-321,314	-108,925	0,036	-0,005
-320,299	42,767	-0,057	0,038
-319,285	567,306	0,040	0,070
-318,270	6,916	-0,185	-0,100
-317,256	800,000	0,038	-0,085
-316,241	38,694	-0,093	-0,060
-315,226	471,444	-0,013	0,022
-314,212	88,715	-0,052	0,042
-313,197	342,842	0,040	0,057
-312,183	90,914	-0,092	-0,075
-311,168	-200,000	-0,018	0,173
-310,153	800,000	-0,039	-0,086
-309,139	325,373	0,046	0,064
-308,124	-128,117	0,059	0,006
-307,110	178,583	0,051	0,055
-306,095	-116,927	0,105	-0,014
-305,080	-200,000	0,005	0,031
-304,066	-200,000	-0,036	-0,126
-303,051	-200,000	-0,008	-0,143
-302,037	800,000	0,044	-0,108
-301,022	-200,000	0,003	0,088
-300,008	800,000	0,051	-0,152
-298,993	7,857	0,025	-0,013
-297,978	47,735	0,025	-0,017
-296,964	-200,000	0,004	-0,138
-295,949	39,821	0,066	-0,043
-294,935	800,000	-0,012	-0,038
-293,920	-200,000	0,003	-0,014
-292,905	192,245	0,058	-0,063
-291,891	-200,000	-0,007	0,148
-290,876	2,188	-0,055	0,029
-289,862	-9,841	0,112	-0,054
-288,847	82,766	-0,058	0,045
-287,832	21,843	0,160	0,094
-286,818	-200,000	-0,007	0,089
-285,803	-200,000	-0,018	-0,065
-284,789	315,091	-0,069	0,095
-283,774	0,268	0,176	0,091
-282,759	800,000	-0,020	-0,041
-281,745	800,000	0,033	-0,097
-280,730	-200,000	-0,007	0,094
-279,716	-57,871	-0,099	-0,031
-278,701	-200,000	0,011	-0,092
-277,686	387,547	-0,055	0,083
-276,672	-200,000	-0,041	0,161
-275,657	-200,000	0,052	0,183
-274,643	440,789	0,027	0,043
-273,628	4,019	0,070	-0,037
-272,613	212,404	-0,011	0,013
-271,599	800,000	0,016	-0,043
-270,584	481,708	0,011	-0,018
-269,570	-116,314	0,134	0,018
-268,555	-66,863	-0,037	-0,011
-267,540	13,364	0,103	-0,057
-266,526	346,566	-0,060	-0,085
-265,511	462,479	0,078	0,126
-264,497	-101,591	-0,150	-0,026
-263,482	53,943	0,174	0,121
-262,467	-68,525	0,078	0,022
-261,453	-94,730	-0,073	-0,014
-260,438	145,326	-0,061	-0,059
-259,424	-200,000	0,008	-0,067
-258,409	31,931	0,102	-0,063
-257,395	-136,286	-0,096	-0,008
-256,380	187,831	0,056	-0,060
-255,365	-48,614	-0,061	-0,021
-254,351	-200,000	-0,034	-0,123
-253,336	199,742	0,064	-0,071
-252,322	-200,000	-0,004	-0,018
-251,307	93,006	0,068	-0,055
-250,292	-70,054	0,128	-0,035
-249,278	191,651	0,059	-0,065
-248,263	800,000	0,026	-0,078
-247,249	225,794	0,032	0,037
-246,234	25,927	0,089	-0,054
-245,219	384,682	-0,095	-0,143
-244,205	-200,000	-0,025	-0,105
-243,190	-200,000	-0,032	-0,103
-242,176	-200,000	0,002	0,132
-241,161	744,867	-0,016	-0,032
-240,146	-69,325	0,104	0,029
-239,132	800,000	-0,024	0,058
-238,117	-18,079	-0,048	0,022
-237,103	-53,531	-0,014	0,005
-236,088	551,386	0,017	0,030
-235,073	294,514	0,077	0,101
-234,059	800,000	0,027	0,086
-233,044	104,350	0,059	0,050
-232,030	-200,000	0,013	-0,077
-231,015	-81,683	-0,132	-0,031
-230,000	17,734	-0,119	-0,068
-228,986	-171,110	0,018	0,000
-227,971	-20,640	-0,119	0,052
-226,957	-37,371	0,172	0,066
-225,942	-200,000	0,012	0,084
-224,927	37,500	-0,107	0,068
-223,913	474,183	0,064	0,105
-222,898	-139,411	-0,113	-0,009
-221,884	362,925	-0,048	-0,070
-220,869	-138,175	0,090	0,007
-219,855	-200,000	-0,012	-0,041
-218,840	-200,000	0,041	0,160
-217,825	51,236	0,057	0,039
-216,811	529,586	-0,040	-0,069
-215,796	-19,550	-0,112	-0,050
-214,782	-96,157	0,078	-0,015
-213,767	-200,000	0,003	0,064
-212,752	-32,770	0,109	0,043
-211,738	190,838	0,052	-0,057
-210,723	441,976	-0,074	0,118
-209,709	-200,000	-0,040	0,176
-208,694	119,298	-0,104	-0,093
-207,679	-200,000	0,015	0,066
-206,665	13,340	0,033	0,018
-205,650	-200,000	0,020	0,085
-204,636	800,000	-0,054	-0,118
-203,621	208,147	-0,047	0,054
-202,606	800,000	0,029	0,072
-201,592	742,364	0,026	0,051
-200,577	800,000	-0,059	0,141
-199,563	-117,152	-0,064	0,008
-198,548	-200,000	0,008	-0,035
-197,533	-39,027	0,089	-0,034
-196,519	58,575	0,051	-0,036
-195,504	593,783	-0,047	-0,085
-194,490	426,278	0,123	-0,192
-193,475	1,155	0,049	0,025
-192,460	41,195	0,014	-0,009
-191,446	800,000	-0,035	-0,110
-190,431	123,630	-0,117	0,106
-189,417	130,941	0,077	-0,071
-188,402	126,516	0,094	-0,086
-187,387	351,339	-0,014	-0,020
-186,373	-90,616	-0,119	-0,025
-185,358	-200,000	-0,000	-0,080
-184,344	293,867	-0,038	-0,050
-183,329	292,766	-0,027	-0,036
-182,315	464,333	0,016	0,026
-181,300	42,760	0,056	-0,037
-180,285	114,425	0,111	-0,097
-179,271	66,886	-0,118	0,086
-178,256	64,699	0,019	0,014
-177,242	-88,312	0,072	0,015
-176,227	261,582	-0,062	0,078
-175,212	42,532	0,094	0,061
-174,198	108,355	0,121	0,104
-173,183	-200,000	0,038	0,172
-172,169	-59,073	-0,042	-0,013
-171,154	40,502	-0,046	0,030
-170,139	49,847	0,066	-0,045
-169,125	529,978	0,046	-0,079
-168,110	-185,822	0,144	-0,002
-167,096	-131,069	0,016	-0,001
-166,081	-200,000	0,012	-0,038
-165,066	-171,655	0,061	0,001
-164,052	-144,415	0,087	0,006
-163,037	50,927	0,029	0,020
-162,023	-23,511	0,114	0,049
-161,008	-91,203	0,112	-0,023
-159,993	44,464	-0,199	0,131
-158,979	-87,921	0,083	-0,018
-157,964	34,801	-0,068	0,043
-156,950	800,000	0,012	-0,035
-155,935	43,980	0,049	-0,032
-154,920	600,506	0,061	0,110
-153,906	-145,687	-0,077	0,005
-152,891	308,184	0,049	-0,067
-151,877	-200,000	0,010	-0,067
-150,862	-128,370	-0,092	-0,009
-149,847	80,267	0,031	0,024
-148,833	-200,000	-0,022	0,073
-147,818	800,000	-0,030	0,078
-146,804	-200,000	-0,002	0,063
-145,789	235,337	0,026	-0,032
-144,775	-200,000	-0,009	-0,166
-143,760	-200,000	0,016	0,094
-142,745	107,569	-0,084	-0,072
-141,731	-200,000	0,010	0,031
-140,716	-200,000	-0,002	-0,072
-139,702	-200,000	0,006	0,056
-138,687	-200,000	0,003	-0,094
-137,672	-61,400	0,098	0,029
-136,658	-52,856	-0,125	0,041
-135,643	220,452	0,048	0,056
-134,629	21,296	-0,033	-0,019
-133,614	-61,151	-0,140	0,042
-132,599	800,000	-0,021	0,046
-131,585	-200,000	-0,021	0,086
-130,570	800,000	-0,033	-0,078
-129,556	30,651	-0,191	0,117
-128,541	800,000	-0,058	0,124
-127,526	-200,000	0,023	0,080
-126,512	33,520	-0,046	-0,029
-125,497	-93,850	0,145	0,029
-124,483	-75,398	-0,087	0,022
-123,468	105,881	0,083	0,071
-122,453	-200,000	-0,002	-0,033
-121,439	-200,000	0,015	-0,062
-120,424	-83,554	-0,081	-0,018
-119,410	348,570	0,066	0,094
-118,395	-200,000	0,007	-0,049
-117,380	-54,113	0,124	-0,040
-116,366	800,000	0,015	-0,031
-115,351	-65,696	0,106	0,030
-114,337	-159,951	-0,114	-0,004
-113,322	-8,122	-0,132	-0,064
-112,307	-200,000	0,031	-0,179
-111,293	133,934	0,070	0,065
-110,278	64,349	-0,075	-0,054
-109,264	86,373	-0,056	-0,044
-108,249	8,533	-0,070	-0,038
-107,234	-200,000	-0,005	-0,131
-106,220	25,070	0,138	-0,082
-105,205	-200,000	0,028	-0,120
-104,191	-85,485	0,116	0,026
-103,176	-135,091	0,056	-0,005
-102,162	-200,000	-0,013	-0,068
-101,147	5,658	0,016	-0,009
-100,132	-75,974	-0,163	0,041
-99,118	243,344	0,113	-0,136
-98,103	361,080	-0,154	0,223
-97,089	-113,469	0,090	0,013
-96,074	40,581	-0,103	0,067
-95,059	-98,984	-0,118	0,021
-94,045	-200,000	0,021	-0,086
-93,030	124,070	0,146	0,132
-92,016	53,431	-0,050	-0,035
-91,001	800,000	-0,021	-0,043
-89,986	280,675	0,037	0,048
-88,972	-200,000	0,002	-0,098
-87,957	800,000	-0,023	-0,066
-86,943	366,422	0,042	-0,061
-85,928	49,864	-0,159	-0,108
-84,913	-91,954	-0,097	-0,020
-83,899	39,528	0,064	0,041
-82,884	-112,628	-0,114	-0,016
-81,870	153,351	-0,115	0,113
-80,855	-200,000	-0,031	0,137
-79,840	66,269	0,073	-0,053
-78,826	-125,243	0,106	0,011
-77,811	-139,676	-0,139	-0,010
-76,797	55,635	-0,094	0,065
-75,782	800,000	-0,018	-0,044
-74,767	23,466	-0,069	0,041
-73,753	87,832	-0,098	-0,078
-72,738	31,058	0,001	-0,001
-71,724	14,265	-0,163	0,091
-70,709	-200,000	-0,020	-0,074
-69,694	800,000	-0,028	-0,061
-68,680	105,254	0,052	0,044
-67,665	-200,000	-0,034	0,116
-66,651	800,000	0,007	-0,022
-65,636	14,238	0,058	-0,032
-64,622	541,012	-0,114	-0,196
-63,607	800,000	-0,080	-0,166
-62,592	-16,161	-0,051	0,023
-61,578	-4,378	0,206	0,102
-60,563	4,229	-0,129	0,067
-59,549	209,527	0,070	0,079
-58,534	-9,836	-1,884	-0,897
-57,519	800,000	-0,443	-0,889
-56,505	-200,000	-1,166	-4,793
-55,490	-35,230	0,899	0,350
-54,476	800,000	5,247	12,117
-53,461	-200,000	17,377	282,211
-52,446	800,000	722,262	2223,543
-51,432	542,459	1638,316	2814,145
-50,417	112,050	1631,100	1413,863
-49,403	76,106	1286,469	975,855
-48,388	32,902	1028,495	637,595
-47,373	20,216	990,429	572,161
-46,359	18,714	978,456	560,293
-45,344	16,243	974,598	549,969
-44,330	16,440	973,142	549,772
-43,315	16,016	971,338	547,344
-42,300	15,950	970,327	546,538
-41,286	15,924	969,074	545,725
-40,271	15,938	968,179	545,247
-39,257	15,921	967,287	544,667
-38,242	15,937	966,490	544,249
-37,227	15,945	965,537	543,717
-36,213	15,956	964,864	543,351
-35,198	15,962	963,782	542,740
-34,184	15,975	963,206	542,435
-33,169	15,905	962,163	541,602
-32,154	15,977	961,022	541,169
-31,140	15,955	960,278	540,658
-30,125	15,985	959,530	540,311
-29,111	15,919	958,903	539,725
-28,096	15,956	958,255	539,457
-27,082	15,955	957,515	539,017
-26,067	15,933	956,799	538,523
-25,052	15,920	955,963	537,989
-24,038	15,907	955,272	537,536
-23,023	15,873	954,739	537,105
-22,009	15,978	953,907	536,952
-20,994	15,892	953,518	536,438
-19,979	15,952	952,809	536,208
-18,965	15,942	952,181	535,802
-17,950	15,930	951,678	535,460
-16,936	15,882	950,771	534,776
-15,921	15,887	950,280	534,494
-14,906	15,884	949,464	534,003
-13,892	15,803	949,036	533,484
-12,877	15,825	948,086	532,999
-11,863	15,834	947,644	532,758
-10,848	15,829	947,093	532,411
-9,833	15,930	946,629	532,449
-8,819	15,843	946,048	531,826
-7,804	15,782	945,523	531,316
-6,790	15,807	944,704	530,912
-5,775	15,875	944,062	530,746
-4,760	15,779	943,662	530,197
-3,746	15,809	942,850	529,815
-2,731	15,695	942,050	528,982
-1,717	15,634	941,783	528,618
-0,702	15,673	940,787	528,163
0,313	15,472	940,291	528,046
1,327	18,648	938,126	536,793
2,342	27,443	795,777	478,672
3,356	24,431	459,227	271,602
4,371	-2,667	313,607	156,771
5,386	-6,551	295,242	143,663
6,400	-8,449	289,326	138,895
7,415	-9,058	286,988	137,162
8,429	-8,994	285,251	136,382
9,444	-9,199	284,386	135,756
10,459	-9,251	283,732	135,382
11,473	-9,248	283,155	135,097
12,488	-9,435	282,720	134,697
13,502	-9,223	282,145	134,616
14,517	-9,273	281,821	134,401
15,531	-9,202	281,103	134,114
16,546	-9,311	280,916	133,909
17,561	-9,474	280,510	133,547
18,575	-9,222	280,162	133,611
19,590	-9,191	279,617	133,369
20,604	-9,388	279,484	133,105
21,619	-9,414	279,136	132,902
22,634	-9,264	278,724	132,837
23,648	-9,251	278,525	132,744
24,663	-9,363	278,204	132,472
25,677	-9,404	278,012	132,330
26,692	-9,045	277,644	132,483
27,707	-9,276	277,278	132,078
28,721	-9,323	277,094	131,934
29,736	-9,498	276,889	131,660
30,750	-9,344	276,524	131,619
31,765	-9,467	276,374	131,420
32,780	-9,471	276,218	131,331
33,794	-9,393	275,905	131,243
34,809	-9,460	275,592	131,020
35,823	-9,410	275,422	130,975
36,838	-9,454	275,131	130,783
37,853	-9,615	274,898	130,509
38,867	-9,403	274,494	130,505
39,882	-9,437	274,374	130,405
40,896	-9,265	274,051	130,400
41,911	-9,375	273,925	130,225
42,926	-9,494	273,627	129,961
43,940	-9,507	273,400	129,830
44,955	-9,320	273,074	129,837
45,969	-9,488	272,977	129,624
46,984	-9,549	272,667	129,408
47,999	-9,993	272,442	128,877
49,013	-9,956	271,997	128,690
50,028	-9,981	271,859	128,590
51,042	-10,284	271,645	128,196
52,057	-10,229	271,378	128,109
53,071	-10,039	271,240	128,208
54,086	-10,082	271,022	128,054
55,101	-9,836	270,930	128,227
56,115	-9,593	270,638	128,301
57,130	-9,236	270,605	128,603
58,144	-9,222	270,254	128,438
59,159	-9,089	270,134	128,492
60,174	-9,367	269,972	128,147
61,188	-9,408	269,803	128,018
62,203	-9,210	269,424	128,009
63,217	-9,259	269,254	127,872
64,232	-9,233	268,980	127,754
65,247	-9,221	268,807	127,672
66,261	-9,262	268,467	127,461
67,276	-9,488	268,306	127,167
68,290	-9,593	268,186	127,002
69,305	-9,624	267,879	126,818
70,320	-9,526	267,660	126,792
71,334	-9,370	267,496	126,844
72,349	-9,275	267,437	126,892
73,363	-9,163	266,954	126,753
74,378	-9,282	267,005	126,659
75,393	-9,368	266,744	126,445
76,407	-9,317	266,457	126,344
77,422	-9,339	266,291	126,234
78,436	-9,235	266,049	126,202
79,451	-9,379	265,794	125,940
80,466	-9,437	265,491	125,733
81,480	-9,558	265,357	125,549
82,495	-9,660	265,098	125,323
83,509	-9,338	264,749	125,437
84,524	-9,642	264,824	125,187
85,539	-9,732	264,442	124,915
86,553	-9,773	264,269	124,786
87,568	-9,469	263,929	124,886
88,582	-9,558	263,816	124,742
89,597	-9,509	263,491	124,621
90,611	-9,392	263,520	124,728
91,626	-9,448	263,348	124,586
92,641	-9,256	263,080	124,619
93,655	-9,287	262,941	124,515
94,670	-9,162	262,703	124,503
95,684	-9,417	262,464	124,151
96,699	-9,452	262,262	124,013
97,714	-9,419	262,177	123,991
98,728	-9,574	261,869	123,697
99,743	-9,738	261,722	123,471
100,757	-9,622	261,383	123,402
101,772	-9,606	261,359	123,394
102,787	-9,390	260,971	123,391
103,801	-9,377	260,797	123,310
104,816	-9,369	260,774	123,295
105,830	-9,274	260,559	123,266
106,845	-9,340	260,414	123,128
107,860	-9,270	260,224	123,089
108,874	-9,194	260,048	123,062
109,889	-9,286	259,752	122,830
110,903	-9,296	259,559	122,719
111,918	-9,302	259,242	122,553
112,933	-9,332	259,246	122,518
113,947	-9,244	258,985	122,461
114,962	-9,202	258,769	122,384
115,976	-9,331	258,711	122,233
116,991	-9,341	258,399	122,065
118,006	-9,292	258,302	122,052
119,020	-9,389	258,234	121,924
120,035	-9,280	257,941	121,870
121,049	-9,275	257,694	121,747
122,064	-9,281	257,626	121,698
123,079	-9,343	257,409	121,531
124,093	-9,324	257,117	121,399
125,108	-9,543	256,822	121,058
126,122	-9,536	256,585	120,942
127,137	-9,648	256,386	120,740
128,151	-9,695	256,204	120,603
129,166	-9,595	256,108	120,634
130,181	-9,413	255,869	120,668
131,195	-9,606	255,701	120,411
132,210	-9,603	255,782	120,441
133,224	-9,200	255,376	120,587
134,239	-9,168	255,155	120,500
135,254	-9,063	255,024	120,518
136,268	-9,343	254,773	120,147
137,283	-9,578	254,635	119,869
138,297	-9,654	254,369	119,668
139,312	-9,908	254,231	119,373
140,327	-9,444	253,977	119,643
141,341	-9,161	253,953	119,863
142,356	-9,147	253,757	119,772
143,370	-9,013	253,574	119,790
144,385	-9,014	253,380	119,686
145,400	-9,056	253,143	119,529
146,414	-9,238	253,116	119,349
147,429	-9,153	252,858	119,289
148,443	-9,047	252,634	119,264
149,458	-9,150	252,539	119,120
150,473	-9,058	252,447	119,144
151,487	-9,107	252,111	118,933
152,502	-9,329	252,121	118,739
153,516	-8,940	251,701	118,861
154,531	-9,069	251,530	118,660
155,546	-9,089	251,538	118,636
156,560	-8,977	251,127	118,527
157,575	-9,250	250,983	118,217
158,589	-9,123	250,724	118,191
159,604	-9,012	250,624	118,228
160,619	-9,036	250,527	118,151
161,633	-9,025	250,321	118,053
162,648	-9,048	250,251	117,990
163,662	-9,118	250,055	117,828
164,677	-9,114	249,829	117,715
165,692	-9,007	249,809	117,785
166,706	-9,050	249,623	117,651
167,721	-9,067	249,427	117,533
168,735	-9,113	249,264	117,407
169,750	-9,028	249,074	117,379
170,764	-9,116	248,904	117,215
171,779	-8,957	248,645	117,215
172,794	-8,859	248,718	117,321
173,808	-9,096	248,293	116,912
174,823	-9,505	248,067	116,453
175,837	-9,702	247,886	116,193
176,852	-9,218	247,772	116,533
177,867	-8,948	247,726	116,727
178,881	-8,927	247,472	116,614
179,896	-8,998	247,355	116,489
180,910	-9,017	247,182	116,382
181,925	-8,987	246,974	116,299
182,940	-8,848	246,943	116,389
183,954	-9,104	246,757	116,078
184,969	-9,041	246,542	116,019
185,983	-8,816	246,312	116,087
186,998	-8,958	246,277	115,943
188,013	-9,019	246,155	115,824
189,027	-8,737	245,743	115,854
190,042	-8,763	245,694	115,799
191,056	-8,806	245,519	115,670
192,071	-8,995	245,385	115,440
193,086	-9,084	245,297	115,315
194,100	-9,226	245,021	115,058
195,115	-8,733	244,852	115,375
196,129	-8,876	244,604	115,130
197,144	-8,838	244,396	115,053
198,159	-9,012	244,343	114,875
199,173	-8,783	244,130	114,952
200,188	-8,940	243,819	114,667
201,202	-9,286	243,676	114,306
202,217	-9,414	243,316	114,022
203,232	-9,631	243,248	113,803
204,246	-9,045	243,247	114,272
205,261	-8,514	243,087	114,620
206,275	-9,032	242,762	114,034
207,290	-6,713	243,924	116,470
208,304	-1,489	245,458	121,491
209,319	1,376	246,115	124,164
210,334	1,688	246,086	124,395
211,348	2,041	246,102	124,682
212,363	2,435	246,107	124,997
213,377	2,682	245,855	125,061
214,392	2,483	245,763	124,840
215,407	2,551	245,621	124,812
216,421	2,376	245,397	124,544
217,436	2,676	245,243	124,700
218,450	2,773	245,202	124,747
219,465	2,249	245,050	124,230
220,480	2,217	244,815	124,074
221,494	2,591	244,629	124,273
222,509	2,647	244,565	124,276
223,523	2,541	244,365	124,077
224,538	2,188	243,951	123,569
225,553	2,212	243,704	123,452
226,567	2,238	243,662	123,440
227,582	2,334	243,729	123,541
228,596	2,202	243,536	123,325
229,611	1,872	243,201	122,877
230,626	2,232	243,165	123,140
231,640	2,123	242,967	122,940
232,655	2,308	242,889	123,040
233,669	2,360	242,532	122,890
234,684	2,198	242,368	122,665
235,699	2,508	242,365	122,903
236,713	2,471	242,339	122,849
237,728	2,231	242,041	122,493
238,742	2,050	241,887	122,259
239,757	2,099	241,695	122,190
240,772	2,237	241,484	122,184
241,786	2,151	241,413	122,068
242,801	2,039	241,129	121,823
243,815	1,996	240,979	121,702
244,830	2,309	240,921	121,913
245,844	2,324	240,934	121,921
246,859	2,240	240,572	121,659
247,874	2,469	240,436	121,763
248,888	2,275	240,332	121,544
249,903	2,205	240,166	121,393
250,917	2,508	240,114	121,599
251,932	2,591	239,934	121,562
252,947	2,471	239,837	121,407
253,961	2,108	239,386	120,879
254,976	2,115	239,472	120,917
255,990	2,452	239,225	121,050
257,005	2,157	238,858	120,619
258,020	1,817	238,801	120,309
259,034	2,164	238,716	120,531
260,049	2,427	238,542	120,641
261,063	2,186	238,399	120,367
262,078	1,991	238,273	120,138
263,093	2,434	238,168	120,425
264,107	2,537	237,954	120,388
265,122	2,286	237,862	120,132
266,136	2,444	237,715	120,172
267,151	2,528	237,589	120,164
268,166	2,117	237,406	119,737
269,180	2,118	237,184	119,615
270,195	2,836	237,211	120,183
271,209	2,693	237,110	120,009
272,224	2,475	236,762	119,651
273,239	2,008	236,603	119,192
274,253	1,948	236,468	119,067
275,268	2,494	236,204	119,351
276,282	2,397	236,192	119,259
277,297	2,137	235,867	118,880
278,312	2,128	235,933	118,896
279,326	2,447	235,717	119,026
280,341	2,437	235,554	118,925
281,355	2,358	235,595	118,874
282,370	2,477	235,316	118,815
283,384	2,422	235,208	118,707
284,399	2,450	234,927	118,577
285,414	2,107	234,887	118,278
286,428	2,253	234,677	118,276
287,443	2,340	234,349	118,168
288,457	2,598	234,424	118,396
289,472	2,730	234,200	118,375
290,487	2,201	234,045	117,874
291,501	2,105	233,855	117,694
292,516	1,971	233,660	117,482
293,530	2,159	233,431	117,502
294,545	2,204	233,507	117,564
295,560	2,367	233,294	117,572
296,574	1,885	232,934	117,009
297,589	1,951	232,965	117,064
298,603	2,436	232,975	117,434
299,618	2,583	232,740	117,418
300,633	2,576	232,571	117,317
301,647	2,596	232,424	117,248
302,662	2,738	232,522	117,396
303,676	2,960	232,264	117,426
304,691	2,629	232,197	117,127
305,706	2,494	231,981	116,905
306,720	2,725	231,792	116,976
307,735	2,522	231,703	116,765
308,749	2,492	231,321	116,538
309,764	2,185	231,325	116,295
310,779	2,278	231,044	116,215
311,793	1,944	230,781	115,817
312,808	2,227	230,555	115,910
313,822	1,939	230,543	115,673
314,837	2,015	230,367	115,633
315,852	1,818	230,202	115,389
316,866	2,117	230,134	115,573
317,881	2,573	230,064	115,874
318,895	2,968	229,870	116,066
319,910	2,948	229,868	116,040
320,925	2,502	229,642	115,577
321,939	2,527	229,427	115,478
322,954	2,366	229,468	115,366
323,968	2,313	229,183	115,172
324,983	2,495	229,096	115,255
325,997	2,634	229,034	115,319
327,012	2,528	228,743	115,083
328,027	2,108	228,576	114,671
329,041	2,227	228,326	114,625
330,056	2,632	228,528	115,022
331,070	3,141	228,449	115,356
332,085	2,893	228,172	115,019
333,100	2,754	227,864	114,749
334,114	2,722	227,796	114,680
335,129	2,528	227,538	114,395
336,143	2,366	227,400	114,193
337,158	2,911	227,572	114,679
338,173	2,755	227,349	114,439
339,187	2,632	227,072	114,198
340,202	2,657	226,955	114,147
341,216	2,708	226,860	114,127
342,231	2,623	226,741	113,994
343,246	2,669	226,461	113,877
344,260	2,631	226,380	113,798
345,275	2,863	226,378	113,960
346,289	2,704	226,293	113,788
347,304	2,922	226,067	113,828
348,319	2,904	225,879	113,709
349,333	2,478	225,576	113,229
350,348	2,540	225,362	113,158
351,362	2,536	225,395	113,161
352,377	2,439	225,289	113,026
353,392	2,424	225,061	112,890
354,406	2,447	224,892	112,813
355,421	196,264	1322,525	1401,348
356,435	157,311	1456,254	1401,354
