DTS Sentinel unit serial number:	SN410029Multiplexer serial number:	ORYXHardware model number:	OX2-SRSoftware version number:	ORYX F/W v4,00 Oryx Data Collector v3.7.2.0data status	okinstallation	B5 Nyhavnadifferential loss correction	single-endedforward channel	channel 2reverse channel	N/Adate	2023/12/14time	10:12:13forward acquisition time	300,00reverse acquisition time	0,00gamma	499,1914k internal	0,3161k external	0,3161temperature offset calibration	1,0000default loss term (dB/km)	0,3820temperature slope calibration	1,0000multiplexer offset coefficient	1,0000multiplexer slope coefficient	1,0000fibre end	0,00T internal ref (°C)	6,87T ext. ref 1 (°C)	-9,21T ext. ref 2 (°C)	-9,23length (m)	temperature (°C)	Stokes	anti-Stokes-744,400	-130,766	0,160	0,016
-743,385	-54,900	-0,373	-0,123
-742,371	11,562	0,195	0,110
-741,356	-155,238	-0,479	0,023
-740,342	-86,535	0,149	0,033
-739,327	3,203	-0,325	-0,174
-738,312	178,886	0,123	0,133
-737,298	-169,144	-0,289	-0,008
-736,283	497,282	0,043	0,074
-735,269	-68,945	-0,357	0,101
-734,254	-200,000	-0,020	0,169
-733,239	-65,506	-0,577	-0,169
-732,225	10,860	0,278	0,156
-731,210	-68,604	-0,017	0,005
-730,196	-134,482	0,026	0,002
-729,181	-200,000	0,018	-0,095
-728,167	26,909	-0,060	0,037
-727,152	-200,000	-0,040	-0,132
-726,137	-143,971	-0,104	0,007
-725,123	-200,000	-0,004	-0,082
-724,108	40,351	0,043	-0,028
-723,094	772,646	-0,073	-0,146
-722,079	50,486	0,117	-0,081
-721,064	19,831	-0,091	0,054
-720,050	-200,000	0,021	-0,188
-719,035	-162,366	-0,116	-0,004
-718,021	389,878	-0,047	-0,072
-717,006	-158,791	-0,036	-0,001
-715,991	-3,772	-0,088	-0,045
-714,977	-200,000	0,006	0,100
-713,962	-200,000	0,006	0,113
-712,948	-138,349	-0,166	0,013
-711,933	-200,000	-0,009	-0,142
-710,918	-20,449	0,077	0,035
-709,904	-162,899	0,061	0,002
-708,889	-73,587	0,055	-0,015
-707,875	-200,000	0,001	0,032
-706,860	-142,699	0,101	0,007
-705,845	260,701	-0,022	0,028
-704,831	10,300	-0,098	-0,055
-703,816	236,230	0,051	0,062
-702,802	800,000	-0,077	0,169
-701,787	-88,547	0,012	-0,003
-700,772	303,710	-0,036	0,049
-699,758	61,131	-0,095	-0,069
-698,743	-82,879	0,175	0,041
-697,729	-200,000	0,014	0,117
-696,714	-145,051	0,122	0,008
-695,699	51,935	-0,141	0,099
-694,685	343,411	0,067	-0,097
-693,670	-41,511	-0,073	-0,028
-692,656	145,761	-0,014	-0,013
-691,641	-137,737	0,022	0,002
-690,627	-19,352	0,070	0,032
-689,612	307,513	-0,054	-0,074
-688,597	415,371	0,082	0,129
-687,583	316,782	-0,007	0,010
-686,568	-200,000	-0,032	-0,203
-685,554	800,000	-0,023	0,049
-684,539	-200,000	-0,021	0,075
-683,524	-68,283	-0,018	-0,005
-682,510	71,765	0,047	0,036
-681,495	-95,600	0,098	0,019
-680,481	-18,130	-0,192	-0,088
-679,466	-200,000	-0,006	0,066
-678,451	-200,000	-0,025	0,148
-677,437	-110,940	0,116	0,017
-676,422	85,702	0,089	0,071
-675,408	800,000	-0,070	0,181
-674,393	482,670	-0,068	0,114
-673,378	-18,015	0,098	-0,045
-672,364	170,327	-0,083	-0,088
-671,349	146,964	-0,013	-0,013
-670,335	76,882	-0,024	0,019
-669,320	-121,657	0,139	0,017
-668,305	-94,175	0,061	0,012
-667,291	80,617	0,048	0,038
-666,276	800,000	-0,022	0,056
-665,262	-200,000	-0,002	-0,103
-664,247	359,303	0,026	-0,038
-663,232	-135,499	-0,077	-0,007
-662,218	-200,000	-0,016	0,089
-661,203	-200,000	0,005	0,065
-660,189	800,000	-0,001	0,004
-659,174	800,000	-0,036	-0,074
-658,159	339,860	-0,042	-0,060
-657,145	-200,000	0,027	-0,090
-656,130	-85,024	0,062	0,014
-655,116	800,000	0,021	0,054
-654,101	-154,558	-0,147	-0,007
-653,086	-200,000	0,024	-0,085
-652,072	800,000	0,050	0,122
-651,057	48,644	-0,022	-0,015
-650,043	284,684	-0,023	-0,030
-649,028	310,380	0,066	0,090
-648,014	83,063	-0,004	0,003
-646,999	-27,765	0,150	0,063
-645,984	214,413	-0,015	0,018
-644,970	-123,871	-0,052	-0,006
-643,955	-80,761	-0,074	0,018
-642,941	315,539	-0,126	0,175
-641,926	-200,000	-0,003	0,165
-640,911	666,308	0,109	0,207
-639,897	332,204	-0,024	0,034
-638,882	-60,781	0,092	-0,029
-637,868	469,794	-0,077	-0,128
-636,853	52,700	0,055	0,038
-635,838	-136,204	-0,049	-0,004
-634,824	-86,773	-0,148	0,033
-633,809	-200,000	-0,010	-0,097
-632,795	175,383	-0,050	-0,053
-631,780	-180,991	0,100	0,001
-630,765	800,000	-0,034	-0,073
-629,751	415,707	0,051	-0,080
-628,736	-95,604	-0,192	-0,037
-627,722	374,419	0,091	-0,136
-626,707	65,066	-0,043	-0,031
-625,692	595,346	0,036	0,065
-624,678	21,961	-0,040	0,024
-623,663	-200,000	-0,005	-0,032
-622,649	800,000	0,007	0,023
-621,634	72,886	-0,108	-0,083
-620,619	-200,000	-0,038	-0,145
-619,605	-200,000	0,011	0,052
-618,590	-93,586	0,035	0,007
-617,576	-93,147	0,051	-0,010
-616,561	-100,657	-0,098	-0,018
-615,546	75,159	0,082	0,064
-614,532	463,689	-0,061	-0,101
-613,517	-104,339	-0,057	-0,010
-612,503	-147,088	0,069	-0,004
-611,488	285,472	-0,011	-0,014
-610,474	-166,378	0,026	-0,001
-609,459	12,064	0,062	0,035
-608,444	422,645	-0,098	-0,155
-607,430	-100,921	0,040	-0,007
-606,415	-83,565	-0,080	0,019
-605,401	-107,105	0,158	-0,025
-604,386	132,994	-0,062	0,059
-603,371	38,227	-0,102	-0,067
-602,357	400,624	-0,046	-0,071
-601,342	800,000	-0,029	0,080
-600,328	-63,075	-0,155	0,047
-599,313	-200,000	0,008	0,028
-598,298	-23,249	0,060	0,026
-597,284	800,000	0,044	0,129
-596,269	46,923	-0,112	-0,076
-595,255	800,000	0,042	0,107
-594,240	-33,552	-0,087	0,035
-593,225	154,782	0,076	0,076
-592,211	62,514	0,101	-0,074
-591,196	105,471	-0,023	0,019
-590,182	161,890	-0,040	-0,041
-589,167	-28,051	-0,027	0,012
-588,152	70,848	-0,154	0,117
-587,138	76,977	-0,053	0,041
-586,123	-43,575	0,156	0,057
-585,109	-143,792	-0,096	-0,007
-584,094	39,085	-0,004	-0,003
-583,079	408,981	0,054	-0,085
-582,065	577,214	-0,089	0,159
-581,050	215,682	0,015	-0,018
-580,036	800,000	0,064	0,163
-579,021	-66,054	-0,118	0,034
-578,006	-86,833	-0,104	-0,023
-576,992	-200,000	-0,030	-0,139
-575,977	113,698	0,065	0,058
-574,963	-200,000	0,010	0,114
-573,948	-200,000	-0,002	0,106
-572,934	-15,995	0,226	-0,105
-571,919	-200,000	-0,014	0,091
-570,904	-200,000	0,038	-0,134
-569,890	-200,000	0,013	0,072
-568,875	-130,861	-0,071	-0,007
-567,861	-200,000	0,002	0,088
-566,846	274,683	0,064	-0,083
-565,831	174,955	0,074	-0,078
-564,817	-200,000	-0,062	-0,213
-563,802	-200,000	0,039	-0,159
-562,788	-200,000	0,001	0,025
-561,773	-38,348	-0,004	0,002
-560,758	194,390	-0,033	0,037
-559,744	-157,118	0,014	0,001
-558,729	-88,125	0,170	0,037
-557,715	800,000	-0,025	-0,054
-556,700	-122,098	0,054	0,006
-555,685	-200,000	-0,021	-0,137
-554,671	-6,752	0,050	-0,025
-553,656	265,913	0,049	0,062
-552,642	322,388	0,021	0,030
-551,627	-200,000	0,000	0,130
-550,612	109,611	-0,078	0,068
-549,598	-200,000	0,007	-0,104
-548,583	766,827	-0,023	0,046
-547,569	126,551	0,030	0,028
-546,554	800,000	-0,004	-0,009
-545,539	206,047	0,082	-0,093
-544,525	185,600	-0,040	0,043
-543,510	317,742	-0,108	0,149
-542,496	513,504	-0,020	-0,035
-541,481	46,100	-0,027	0,018
-540,466	-28,276	-0,059	0,025
-539,452	-200,000	0,015	-0,059
-538,437	356,770	0,057	0,084
-537,423	227,270	0,046	0,055
-536,408	800,000	-0,010	-0,028
-535,393	72,838	0,041	-0,031
-534,379	1,821	0,154	0,081
-533,364	26,276	-0,108	-0,066
-532,350	149,570	0,024	0,024
-531,335	-200,000	-0,003	0,060
-530,321	-46,729	-0,062	0,022
-529,306	-200,000	0,021	0,165
-528,291	46,892	-0,065	-0,044
-527,277	284,316	-0,037	-0,049
-526,262	38,846	-0,044	0,028
-525,248	-136,715	0,086	-0,007
-524,233	61,997	-0,017	0,012
-523,218	55,122	0,010	-0,007
-522,204	533,083	0,062	-0,107
-521,189	-131,859	-0,107	-0,010
-520,175	-126,266	0,161	-0,017
-519,160	800,000	-0,016	0,042
-518,145	214,347	0,055	-0,064
-517,131	-200,000	0,011	-0,083
-516,116	800,000	-0,028	0,078
-515,102	-200,000	-0,006	0,111
-514,087	-28,378	-0,054	-0,023
-513,072	111,560	0,039	0,035
-512,058	-142,711	-0,068	0,005
-511,043	-200,000	-0,005	0,030
-510,029	800,000	-0,066	-0,190
-509,014	-20,380	-0,092	-0,041
-507,999	-165,308	0,070	0,002
-506,985	-200,000	0,000	0,076
-505,970	107,133	0,091	-0,079
-504,956	324,964	-0,021	-0,029
-503,941	-200,000	0,003	-0,115
-502,926	635,222	0,024	0,044
-501,912	80,490	0,109	0,085
-500,897	-200,000	0,037	0,000
-499,883	-1,982	-0,014	-0,007
-498,868	136,013	-0,068	0,065
-497,853	85,916	-0,081	-0,065
-496,839	800,000	0,014	-0,045
-495,824	397,338	0,068	0,103
-494,810	344,318	0,060	0,086
-493,795	-95,322	-0,031	0,006
-492,781	690,087	0,027	0,052
-491,766	-83,181	-0,038	-0,009
-490,751	18,945	0,079	0,046
-489,737	-200,000	0,019	-0,152
-488,722	-92,838	-0,061	-0,012
-487,708	-171,158	0,082	0,002
-486,693	800,000	-0,020	-0,054
-485,678	-200,000	-0,018	-0,065
-484,664	-101,844	0,063	0,011
-483,649	800,000	-0,045	-0,132
-482,635	682,713	0,072	-0,137
-481,620	466,780	0,034	-0,055
-480,605	84,383	0,102	0,081
-479,591	43,917	0,094	0,063
-478,576	800,000	0,022	-0,055
-477,562	800,000	-0,040	-0,099
-476,547	289,239	-0,066	-0,088
-475,532	800,000	0,008	-0,022
-474,518	56,412	-0,075	0,053
-473,503	-24,462	0,119	0,051
-472,489	136,463	0,028	0,026
-471,474	96,877	-0,041	0,034
-470,459	299,787	0,056	-0,075
-469,445	176,737	0,043	-0,046
-468,430	-200,000	0,035	-0,114
-467,416	-200,000	-0,007	-0,024
-466,401	-200,000	-0,005	-0,048
-465,386	800,000	-0,013	-0,036
-464,372	1,884	-0,054	0,028
-463,357	-83,808	-0,105	0,024
-462,343	-108,661	-0,057	-0,009
-461,328	373,533	0,020	-0,030
-460,313	-200,000	-0,010	-0,081
-459,299	-200,000	0,001	-0,042
-458,284	70,777	-0,080	0,060
-457,270	-173,467	-0,022	0,000
-456,255	800,000	0,019	-0,038
-455,241	40,275	-0,099	0,065
-454,226	156,938	0,105	-0,106
-453,211	-200,000	-0,023	-0,145
-452,197	-108,237	0,113	0,018
-451,182	1,602	0,036	0,019
-450,168	800,000	-0,026	-0,064
-449,153	-200,000	0,011	-0,046
-448,138	-200,000	-0,004	-0,044
-447,124	-63,205	0,222	-0,066
-446,109	800,000	0,006	0,016
-445,095	7,435	0,048	-0,026
-444,080	44,806	-0,081	-0,054
-443,065	25,457	-0,049	-0,030
-442,051	-200,000	-0,036	0,149
-441,036	-200,000	0,060	-0,223
-440,022	-86,787	-0,066	-0,015
-439,007	268,589	0,083	-0,106
-437,992	-200,000	0,002	0,034
-436,978	-121,015	0,073	-0,009
-435,963	204,402	0,094	-0,106
-434,949	159,162	-0,162	0,165
-433,934	101,368	-0,030	-0,025
-432,919	-200,000	0,001	0,042
-431,905	800,000	-0,014	0,028
-430,890	138,985	-0,004	-0,004
-429,876	36,976	0,106	0,068
-428,861	800,000	0,037	0,080
-427,846	-200,000	0,003	0,104
-426,832	52,369	0,122	-0,084
-425,817	43,921	0,066	-0,044
-424,803	-200,000	-0,005	0,121
-423,788	-52,556	0,083	0,028
-422,773	-200,000	-0,013	-0,095
-421,759	-200,000	0,002	0,056
-420,744	121,500	-0,056	0,050
-419,730	278,154	0,085	-0,111
-418,715	-20,722	0,057	0,025
-417,701	-114,341	-0,198	0,027
-416,686	448,064	-0,065	0,105
-415,671	-23,216	0,061	0,027
-414,657	66,744	0,087	0,065
-413,642	-101,839	-0,036	-0,006
-412,628	-96,359	-0,081	0,015
-411,613	-61,162	-0,213	-0,065
-410,598	800,000	-0,057	-0,146
-409,584	-200,000	0,001	0,037
-408,569	-116,772	0,055	0,007
-407,555	-96,279	0,035	0,007
-406,540	478,953	0,022	0,036
-405,525	-200,000	-0,012	0,066
-404,511	-11,969	0,053	0,025
-403,496	157,690	-0,053	-0,053
-402,482	-200,000	-0,008	-0,028
-401,467	800,000	0,027	0,077
-400,452	-200,000	-0,032	0,139
-399,438	175,119	0,076	0,080
-398,423	70,837	0,020	-0,015
-397,409	320,146	-0,096	-0,133
-396,394	-87,859	-0,038	0,008
-395,379	-43,175	0,010	-0,003
-394,365	-200,000	-0,007	0,173
-393,350	-150,591	0,138	0,008
-392,336	-200,000	-0,010	-0,037
-391,321	38,855	0,122	0,079
-390,306	-59,103	0,081	-0,025
-389,292	-70,400	-0,048	0,013
-388,277	364,734	0,070	0,103
-387,263	-200,000	-0,002	-0,019
-386,248	-11,679	0,133	-0,063
-385,233	-40,097	0,113	0,043
-384,219	28,101	-0,192	-0,118
-383,204	-200,000	-0,041	-0,171
-382,190	-66,094	0,040	0,011
-381,175	587,480	0,060	-0,107
-380,160	-200,000	-0,011	0,081
-379,146	-148,316	0,075	0,004
-378,131	93,567	0,085	0,070
-377,117	800,000	-0,009	0,021
-376,102	250,530	0,017	-0,020
-375,088	56,237	0,091	0,064
-374,073	-77,582	-0,091	0,023
-373,058	-200,000	-0,004	-0,028
-372,044	800,000	-0,039	0,090
-371,029	191,808	-0,076	0,083
-370,015	-99,049	-0,063	0,011
-369,000	-200,000	-0,007	-0,061
-367,985	5,192	-0,106	-0,056
-366,971	70,116	0,148	-0,111
-365,956	-200,000	-0,027	0,179
-364,942	-128,710	-0,140	0,014
-363,927	270,906	0,018	-0,023
-362,912	-110,306	0,134	0,020
-361,898	676,078	0,028	-0,052
-360,883	-48,045	-0,136	-0,047
-359,869	-31,403	0,060	-0,024
-358,854	-126,940	-0,059	-0,006
-357,839	-200,000	0,005	0,117
-356,825	800,000	-0,048	-0,125
-355,810	-193,370	-0,164	0,001
-354,796	-57,284	-0,071	-0,022
-353,781	-200,000	0,079	0,000
-352,766	-124,445	-0,052	-0,006
-351,752	-200,000	0,005	0,050
-350,737	-28,176	0,019	-0,008
-349,723	14,342	-0,084	-0,047
-348,708	-141,469	0,045	-0,003
-347,693	-59,216	-0,197	-0,061
-346,679	-200,000	0,023	0,107
-345,664	494,479	0,021	-0,036
-344,650	-196,007	0,072	-0,000
-343,635	58,691	0,103	0,073
-342,620	93,146	0,098	0,080
-341,606	68,010	-0,097	0,072
-340,591	-65,518	0,069	0,020
-339,577	30,084	0,080	0,049
-338,562	117,360	-0,037	-0,033
-337,548	674,685	-0,056	-0,106
-336,533	-200,000	-0,000	0,048
-335,518	-46,423	0,062	0,022
-334,504	800,000	-0,017	0,046
-333,489	-2,700	0,103	0,052
-332,475	-200,000	0,026	-0,127
-331,460	197,957	-0,040	0,045
-330,445	30,259	0,090	0,056
-329,431	123,941	-0,023	0,021
-328,416	56,465	0,069	0,048
-327,402	669,250	-0,056	0,106
-326,387	800,000	-0,053	0,161
-325,372	27,751	-0,054	-0,033
-324,358	-173,102	-0,076	-0,002
-323,343	-105,488	-0,164	-0,027
-322,329	20,817	0,119	-0,070
-321,314	-137,528	0,019	0,002
-320,299	-5,279	-0,072	-0,036
-319,285	122,815	0,085	0,077
-318,270	-24,024	-0,116	0,050
-317,256	-200,000	-0,004	-0,116
-316,241	-200,000	0,003	-0,183
-315,226	614,137	-0,061	-0,112
-314,212	-16,445	-0,023	-0,011
-313,197	76,749	-0,139	-0,107
-312,183	-200,000	0,005	0,021
-311,168	138,769	-0,050	0,047
-310,153	800,000	-0,023	0,048
-309,139	-97,844	0,062	-0,012
-308,124	303,454	0,046	-0,061
-307,110	800,000	-0,025	-0,058
-306,095	238,581	-0,047	-0,056
-305,080	-70,483	-0,062	0,017
-304,066	-132,728	-0,041	0,004
-303,051	364,061	0,086	-0,125
-302,037	-158,884	-0,185	-0,007
-301,022	113,921	-0,043	-0,038
-300,008	449,724	-0,121	0,194
-298,993	138,389	0,068	0,064
-297,978	-200,000	-0,002	-0,031
-296,964	-153,192	-0,035	0,002
-295,949	214,682	0,069	-0,079
-294,935	800,000	0,042	-0,125
-293,920	-200,000	-0,008	-0,056
-292,905	85,905	0,066	0,052
-291,891	-74,191	-0,089	-0,023
-290,876	800,000	0,056	0,141
-289,862	-126,141	0,140	0,015
-288,847	-200,000	-0,012	-0,216
-287,832	-54,117	-0,102	-0,033
-286,818	-144,136	0,138	0,009
-285,803	-120,545	0,129	0,016
-284,789	-200,000	0,004	0,154
-283,774	-200,000	0,018	-0,098
-282,759	-200,000	0,021	-0,110
-281,745	-200,000	0,011	-0,114
-280,730	19,272	-0,099	0,057
-279,716	210,751	-0,046	-0,052
-278,701	202,109	0,071	-0,080
-277,686	85,012	-0,004	0,003
-276,672	-63,884	0,128	0,038
-275,657	149,401	-0,024	-0,023
-274,643	-200,000	-0,015	-0,110
-273,628	123,305	-0,101	-0,091
-272,613	-153,645	0,049	0,002
-271,599	52,469	0,087	0,060
-270,584	222,979	-0,059	0,069
-269,570	-23,415	0,009	-0,004
-268,555	800,000	0,052	0,149
-267,540	-44,049	0,054	0,020
-266,526	324,869	-0,036	0,050
-265,511	-5,618	-0,054	-0,027
-264,497	317,809	-0,032	0,044
-263,482	-107,073	0,158	-0,025
-262,467	579,384	0,058	0,103
-261,453	-48,433	0,076	0,026
-260,438	16,656	-0,190	-0,108
-259,424	-200,000	-0,010	0,059
-258,409	-200,000	0,024	-0,105
-257,395	82,934	-0,070	-0,055
-256,380	-11,974	0,065	-0,031
-255,365	116,181	-0,062	0,055
-254,351	65,263	0,044	0,032
-253,336	12,039	-0,021	0,011
-252,322	800,000	-0,046	-0,119
-251,307	507,231	0,045	-0,075
-250,292	-43,062	-0,065	-0,024
-249,278	-200,000	-0,025	0,097
-248,263	510,239	-0,101	0,171
-247,249	185,125	-0,089	0,095
-246,234	87,045	-0,049	0,039
-245,219	73,238	-0,086	-0,065
-244,205	91,258	-0,196	-0,159
-243,190	-134,395	0,044	-0,004
-242,176	142,368	0,064	0,061
-241,161	-39,487	0,167	-0,063
-240,146	-118,262	-0,027	-0,003
-239,132	-67,545	0,081	-0,023
-238,117	-65,125	-0,128	-0,037
-237,103	-35,253	0,111	0,043
-236,088	-200,000	0,000	-0,063
-235,073	-200,000	0,008	-0,046
-234,059	-200,000	-0,007	0,139
-233,044	247,997	0,069	-0,085
-232,030	800,000	-0,019	-0,059
-231,015	23,223	-0,019	-0,011
-230,000	800,000	-0,040	-0,085
-228,986	-148,199	-0,152	0,009
-227,971	-133,924	0,139	0,012
-226,957	-87,055	0,147	0,032
-225,942	-200,000	-0,035	0,135
-224,927	-95,946	0,104	-0,020
-223,913	186,550	-0,053	-0,057
-222,898	25,038	0,157	-0,094
-221,884	-200,000	-0,011	-0,072
-220,869	113,819	0,146	-0,128
-219,855	335,097	0,060	0,084
-218,840	338,043	0,092	0,130
-217,825	311,510	0,045	0,061
-216,811	-123,979	-0,040	0,005
-215,796	21,987	-0,055	-0,032
-214,782	-124,962	-0,126	-0,014
-213,767	734,425	0,112	0,218
-212,752	-200,000	-0,006	0,104
-211,738	-200,000	-0,004	0,175
-210,723	216,895	-0,078	0,090
-209,709	-112,650	0,048	-0,007
-208,694	-200,000	-0,002	-0,011
-207,679	49,914	-0,037	0,025
-206,665	480,251	0,048	0,078
-205,650	-117,952	-0,122	-0,016
-204,636	664,203	0,003	-0,007
-203,621	236,546	0,072	0,086
-202,606	-116,869	-0,090	-0,012
-201,592	-128,575	-0,103	-0,010
-200,577	-200,000	0,002	-0,057
-199,563	2,204	0,125	0,065
-198,548	-1,836	0,107	0,054
-197,533	-200,000	0,036	0,172
-196,519	77,998	-0,071	0,054
-195,504	-26,659	-0,094	0,040
-194,490	175,749	0,079	-0,082
-193,475	332,145	-0,048	-0,068
-192,460	373,931	-0,071	-0,104
-191,446	-120,515	0,013	-0,002
-190,431	32,752	0,060	-0,037
-189,417	292,699	-0,092	-0,121
-188,402	-94,063	-0,028	-0,005
-187,387	800,000	-0,033	0,070
-186,373	50,560	0,073	-0,050
-185,358	-200,000	-0,005	0,066
-184,344	-96,927	0,143	0,027
-183,329	-85,036	-0,041	0,009
-182,315	492,798	0,005	0,008
-181,300	-80,058	0,055	-0,013
-180,285	-5,911	-0,058	0,028
-179,271	199,307	0,068	0,075
-178,256	-200,000	0,004	-0,029
-177,242	111,160	0,073	-0,063
-176,227	-45,781	-0,023	-0,008
-175,212	-165,055	0,056	0,002
-174,198	159,079	-0,105	0,105
-173,183	-49,356	-0,080	-0,027
-172,169	771,068	0,027	-0,054
-171,154	552,102	0,040	-0,069
-170,139	-174,880	0,075	0,001
-169,125	113,329	-0,022	0,019
-168,110	-200,000	-0,008	-0,049
-167,096	-13,737	0,090	-0,042
-166,081	510,031	0,022	-0,037
-165,066	-169,728	-0,189	-0,005
-164,052	-4,340	-0,049	0,024
-163,037	55,228	-0,049	0,034
-162,023	-67,413	0,135	-0,038
-161,008	-1,047	-0,058	0,030
-159,993	519,655	-0,045	0,076
-158,979	-200,000	-0,004	-0,129
-157,964	-200,000	-0,015	-0,085
-156,950	67,023	-0,025	0,018
-155,935	438,781	-0,121	0,191
-154,920	769,962	0,083	0,164
-153,906	-165,997	-0,137	-0,004
-152,891	-39,269	-0,071	-0,027
-151,877	800,000	-0,099	-0,212
-150,862	-53,414	-0,111	-0,036
-149,847	30,534	0,047	0,029
-148,833	800,000	-0,013	-0,034
-147,818	205,032	0,045	0,050
-146,804	18,243	0,036	0,020
-145,789	165,722	-0,058	0,059
-144,775	525,781	-0,016	0,028
-143,760	-200,000	-0,012	-0,108
-142,745	224,446	0,032	-0,038
-141,731	800,000	-0,007	0,019
-140,716	-200,000	-0,013	-0,146
-139,702	-195,447	-0,015	0,000
-138,687	-200,000	-0,003	0,026
-137,672	34,788	0,060	0,037
-136,658	-200,000	-0,018	-0,127
-135,643	111,842	-0,123	-0,106
-134,629	246,462	0,035	-0,043
-133,614	-42,602	-0,042	0,015
-132,599	524,639	0,060	-0,102
-131,585	411,092	0,050	0,077
-130,570	-94,418	-0,066	-0,013
-129,556	800,000	0,033	-0,080
-128,541	-5,498	-0,135	0,067
-127,526	410,468	0,045	0,069
-126,512	273,488	0,046	0,059
-125,497	-22,260	0,145	-0,063
-124,483	214,620	0,117	0,133
-123,468	665,025	-0,072	0,135
-122,453	119,547	0,069	0,061
-121,439	520,229	-0,049	-0,084
-120,424	277,369	-0,072	-0,093
-119,410	800,000	0,038	0,093
-118,395	800,000	0,016	0,042
-117,380	-200,000	0,022	-0,085
-116,366	503,354	0,033	-0,056
-115,351	127,400	0,096	-0,088
-114,337	165,136	-0,091	-0,092
-113,322	416,945	-0,043	-0,067
-112,307	133,997	0,111	-0,103
-111,293	-200,000	-0,025	0,081
-110,278	-32,637	-0,095	0,038
-109,264	-87,845	0,149	0,032
-108,249	158,067	-0,072	0,071
-107,234	-198,524	-0,090	-0,000
-106,220	94,034	0,098	0,080
-105,205	-8,342	-0,103	0,050
-104,191	-200,000	-0,004	-0,023
-103,176	215,868	0,017	0,019
-102,162	101,869	0,074	0,062
-101,147	-200,000	0,046	-0,176
-100,132	-200,000	0,015	-0,077
-99,118	-100,145	-0,113	-0,020
-98,103	800,000	-0,037	0,097
-97,089	-89,780	0,140	0,029
-96,074	-25,452	-0,057	0,024
-95,059	-31,886	0,100	0,040
-94,045	21,372	-0,153	-0,089
-93,030	-200,000	0,012	-0,160
-92,016	-145,490	-0,057	-0,004
-91,001	-119,982	-0,069	-0,008
-89,986	299,459	-0,046	-0,061
-88,972	187,941	0,014	0,015
-87,957	151,585	-0,076	0,075
-86,943	517,248	0,046	0,077
-85,928	378,374	-0,052	-0,077
-84,913	-200,000	-0,012	0,086
-83,899	-51,032	-0,104	0,035
-82,884	419,551	0,044	-0,068
-81,870	-50,641	0,069	0,023
-80,855	403,204	0,014	-0,021
-79,840	-200,000	-0,011	-0,101
-78,826	-34,791	0,108	-0,042
-77,811	-200,000	0,009	0,033
-76,797	-200,000	0,014	0,051
-75,782	28,456	0,110	-0,066
-74,767	-64,613	0,126	0,037
-73,753	-29,423	-0,032	0,013
-72,738	-8,414	0,036	0,017
-71,724	37,217	-0,071	0,045
-70,709	-58,734	-0,088	-0,027
-69,694	96,977	0,099	0,081
-68,680	-200,000	0,010	-0,035
-67,665	-200,000	-0,001	0,108
-66,651	190,518	0,086	-0,093
-65,636	-93,110	0,104	-0,020
-64,622	800,000	0,011	0,035
-63,607	-69,528	-0,125	-0,034
-62,592	-200,000	0,018	-0,164
-61,578	-200,000	-0,008	0,040
-60,563	-104,219	0,095	-0,016
-59,549	13,806	-0,082	0,046
-58,534	99,294	-2,810	-2,329
-57,519	-5,046	0,458	-0,225
-56,505	-200,000	-1,724	-5,564
-55,490	795,565	1,115	2,213
-54,476	800,000	5,347	11,188
-53,461	-200,000	23,060	348,150
-52,446	800,000	765,850	2263,791
-51,432	497,137	1642,423	2718,930
-50,417	92,732	1597,925	1292,323
-49,403	60,231	1252,622	886,855
-48,388	20,850	1005,092	582,254
-47,373	18,207	972,803	554,915
-46,359	11,620	959,575	526,079
-45,344	7,515	956,430	511,062
-44,330	7,966	953,994	511,198
-43,315	6,990	952,344	507,145
-42,300	6,870	951,408	506,242
-41,286	6,890	950,457	505,777
-40,271	6,956	949,315	505,363
-39,257	6,946	948,559	504,909
-38,242	6,910	947,878	504,409
-37,227	6,858	946,825	503,664
-36,213	6,844	946,082	503,202
-35,198	6,912	945,200	502,933
-34,184	6,980	944,349	502,676
-33,169	6,876	943,456	501,849
-32,154	7,009	942,395	501,689
-31,140	6,914	941,755	501,026
-30,125	6,947	941,147	500,789
-29,111	6,905	940,293	500,179
-28,096	6,933	939,629	499,896
-27,082	6,915	938,911	499,435
-26,067	6,902	938,201	498,997
-25,052	6,910	937,485	498,622
-24,038	6,866	936,785	498,089
-23,023	6,870	936,124	497,733
-22,009	6,914	935,482	497,510
-20,994	6,880	935,060	497,157
-19,979	6,891	934,349	496,794
-18,965	6,857	933,702	496,324
-17,950	6,906	933,228	496,207
-16,936	6,865	932,405	495,619
-15,921	6,789	931,795	495,038
-14,906	6,851	930,989	494,786
-13,892	6,833	930,613	494,508
-12,877	6,830	929,862	494,082
-11,863	6,783	929,367	493,650
-10,848	6,800	928,944	493,460
-9,833	6,900	928,339	493,432
-8,819	6,843	927,485	492,780
-7,804	6,802	926,936	492,339
-6,790	6,800	926,406	492,032
-5,775	6,859	925,809	491,880
-4,760	6,844	925,348	491,570
-3,746	6,880	924,520	491,222
-2,731	6,741	923,846	490,410
-1,717	6,656	923,438	489,909
-0,702	6,676	922,622	489,518
0,313	6,490	921,985	489,339
1,327	9,876	919,357	498,435
2,342	18,376	768,398	438,535
3,356	13,426	441,900	244,827
4,371	-12,172	309,834	144,685
5,386	-15,846	292,598	132,943
6,400	-17,901	286,566	128,173
7,415	-18,404	283,996	126,522
8,429	-19,133	282,008	124,921
9,444	-19,224	281,147	124,441
10,459	-19,068	280,411	124,254
11,473	-19,163	279,976	123,959
12,488	-19,015	279,488	123,874
13,502	-18,985	278,915	123,637
14,517	-19,098	278,520	123,343
15,531	-19,024	278,006	123,175
16,546	-19,104	277,604	122,910
17,561	-18,922	277,099	122,848
18,575	-18,901	276,808	122,728
19,590	-18,950	276,626	122,590
20,604	-18,841	276,360	122,564
21,619	-18,981	275,890	122,213
22,634	-18,809	275,524	122,202
23,648	-19,047	275,291	121,864
24,663	-18,913	274,886	121,800
25,677	-18,918	274,657	121,682
26,692	-19,078	274,562	121,479
27,707	-18,861	274,050	121,446
28,721	-19,026	273,979	121,248
29,736	-18,819	273,473	121,207
30,750	-19,042	273,386	120,950
31,765	-18,818	273,148	121,042
32,780	-18,889	272,859	120,837
33,794	-18,893	272,605	120,711
34,809	-19,113	272,486	120,442
35,823	-18,976	272,059	120,370
36,838	-18,943	271,859	120,301
37,853	-18,985	271,651	120,159
38,867	-18,808	271,487	120,240
39,882	-18,906	271,092	119,964
40,896	-18,898	270,812	119,837
41,911	-19,034	270,659	119,633
42,926	-18,762	270,303	119,716
43,940	-18,918	270,181	119,507
44,955	-19,012	269,961	119,313
45,969	-19,100	269,873	119,182
46,984	-18,657	269,541	119,433
47,999	-18,803	269,315	119,188
49,013	-18,663	269,191	119,251
50,028	-18,749	268,930	119,046
51,042	-18,713	268,639	118,939
52,057	-18,670	268,361	118,844
53,071	-18,627	268,217	118,810
54,086	-18,803	268,124	118,596
55,101	-18,748	267,790	118,488
56,115	-18,730	267,417	118,330
57,130	-18,945	267,424	118,126
58,144	-18,982	266,986	117,889
59,159	-18,919	266,734	117,824
60,174	-18,771	266,438	117,817
61,188	-18,898	266,225	117,597
62,203	-18,923	266,158	117,534
63,217	-18,811	265,870	117,498
64,232	-18,742	265,493	117,384
65,247	-18,890	265,412	117,203
66,261	-19,024	265,228	116,991
67,276	-18,897	264,946	116,970
68,290	-18,789	264,617	116,912
69,305	-18,766	264,451	116,849
70,320	-18,789	264,400	116,796
71,334	-18,927	264,145	116,548
72,349	-18,872	263,857	116,460
73,363	-18,967	263,622	116,261
74,378	-18,915	263,348	116,176
75,393	-18,757	262,978	116,144
76,407	-18,981	262,890	115,894
77,422	-18,612	262,598	116,085
78,436	-18,726	262,394	115,883
79,451	-18,987	262,240	115,571
80,466	-18,871	261,993	115,556
81,480	-18,705	261,669	115,550
82,495	-18,919	261,622	115,329
83,509	-18,620	261,255	115,423
84,524	-18,826	261,096	115,159
85,539	-18,635	260,974	115,265
86,553	-18,703	260,645	115,048
87,568	-18,873	260,553	114,847
88,582	-19,000	260,438	114,673
89,597	-18,886	260,045	114,592
90,611	-18,706	259,863	114,660
91,626	-18,737	259,617	114,514
92,641	-18,625	259,316	114,469
93,655	-18,762	259,257	114,312
94,670	-18,848	258,981	114,104
95,684	-18,843	258,795	114,017
96,699	-18,741	258,635	114,026
97,714	-18,827	258,519	113,890
98,728	-18,737	258,224	113,828
99,743	-18,594	258,071	113,876
100,757	-18,802	257,892	113,605
101,772	-18,737	257,581	113,514
102,787	-18,826	257,376	113,336
103,801	-18,773	257,153	113,274
104,816	-18,716	256,909	113,206
105,830	-18,829	256,939	113,111
106,845	-18,661	256,738	113,159
107,860	-18,560	256,330	113,057
108,874	-18,723	256,291	112,887
109,889	-18,902	255,902	112,551
110,903	-18,947	255,818	112,464
111,918	-18,734	255,631	112,557
112,933	-18,634	255,318	112,496
113,947	-18,757	255,116	112,290
114,962	-18,898	254,951	112,086
115,976	-18,719	254,826	112,175
116,991	-18,881	254,587	111,920
118,006	-19,004	254,532	111,779
119,020	-18,742	254,106	111,809
120,035	-18,546	254,037	111,938
121,049	-18,743	253,838	111,671
122,064	-18,726	253,637	111,586
123,079	-18,846	253,549	111,435
124,093	-18,686	253,192	111,405
125,108	-18,822	253,133	111,253
126,122	-18,523	252,863	111,380
127,137	-18,678	252,699	111,165
128,151	-18,589	252,477	111,134
129,166	-18,787	252,374	110,909
130,181	-18,536	252,051	110,972
131,195	-18,761	252,018	110,755
132,210	-18,606	251,601	110,695
133,224	-18,752	251,428	110,484
134,239	-18,740	251,329	110,441
135,254	-18,679	250,998	110,337
136,268	-18,665	250,866	110,281
137,283	-18,774	250,658	110,088
138,297	-18,624	250,470	110,122
139,312	-18,525	250,184	110,071
140,327	-18,743	250,126	109,851
141,341	-18,854	249,873	109,636
142,356	-18,937	249,858	109,550
143,370	-18,701	249,524	109,592
144,385	-18,689	249,238	109,467
145,400	-18,480	248,899	109,484
146,414	-18,846	248,852	109,146
147,429	-18,632	248,721	109,259
148,443	-18,861	248,590	108,999
149,458	-18,762	248,322	108,955
150,473	-18,711	248,166	108,920
151,487	-18,502	247,779	108,915
152,502	-18,760	247,718	108,662
153,516	-18,825	247,622	108,556
154,531	-18,625	247,276	108,562
155,546	-18,596	247,018	108,463
156,560	-18,778	246,986	108,287
157,575	-18,625	246,876	108,358
158,589	-18,636	246,439	108,147
159,604	-18,722	246,332	108,019
160,619	-18,777	246,222	107,915
161,633	-18,668	245,914	107,861
162,648	-18,659	245,884	107,846
163,662	-18,761	245,810	107,719
164,677	-18,522	245,557	107,797
165,692	-18,600	245,387	107,648
166,706	-18,686	245,225	107,497
167,721	-18,646	244,951	107,399
168,735	-18,560	244,896	107,437
169,750	-18,815	244,827	107,187
170,764	-18,606	244,735	107,309
171,779	-18,545	244,419	107,211
172,794	-18,580	244,283	107,113
173,808	-18,611	243,985	106,947
174,823	-18,535	243,990	107,003
175,837	-18,591	243,705	106,822
176,852	-18,757	243,502	106,587
177,867	-18,566	243,501	106,734
178,881	-18,549	243,213	106,612
179,896	-18,765	243,168	106,406
180,910	-18,617	242,940	106,418
181,925	-18,749	242,645	106,172
182,940	-18,528	242,413	106,241
183,954	-18,627	242,279	106,092
184,969	-18,645	242,181	106,024
185,983	-18,608	241,978	105,956
186,998	-18,483	241,734	105,943
188,013	-18,644	241,732	105,800
189,027	-18,731	241,371	105,563
190,042	-18,796	241,308	105,472
191,056	-18,624	241,048	105,490
192,071	-18,683	240,889	105,363
193,086	-18,725	240,738	105,253
194,100	-18,610	240,372	105,177
195,115	-18,617	240,305	105,132
196,129	-18,711	240,005	104,915
197,144	-18,468	239,754	104,993
198,159	-18,669	239,722	104,807
199,173	-18,544	239,534	104,816
200,188	-18,468	239,441	104,828
201,202	-18,506	239,383	104,762
202,217	-18,523	239,162	104,642
203,232	-18,339	239,023	104,721
204,246	-18,532	238,639	104,388
205,261	-18,554	238,656	104,368
206,275	-16,925	239,121	105,874
207,290	-11,792	240,972	110,845
208,304	-5,359	243,002	117,017
209,319	-2,622	243,739	119,596
210,334	-1,505	243,978	120,614
211,348	-0,594	244,150	121,431
212,363	0,039	244,080	121,902
213,377	0,401	243,976	122,134
214,392	0,471	243,961	122,173
215,407	0,668	243,878	122,281
216,421	1,027	243,747	122,497
217,436	0,996	243,603	122,387
218,450	0,916	243,359	122,190
219,465	0,938	243,380	122,207
220,480	0,843	243,132	121,994
221,494	1,044	242,934	122,047
222,509	0,516	242,661	121,472
223,523	0,568	242,359	121,352
224,538	0,509	242,197	121,212
225,553	0,315	242,099	120,996
226,567	0,296	241,985	120,913
227,582	0,313	241,772	120,808
228,596	0,406	241,632	120,803
229,611	0,351	241,504	120,684
230,626	0,404	241,177	120,552
231,640	0,261	241,224	120,450
232,655	0,264	240,888	120,274
233,669	0,195	240,743	120,135
234,684	0,359	240,625	120,198
235,699	0,354	240,481	120,111
236,713	0,289	240,375	119,995
237,728	0,290	240,289	119,943
238,742	0,290	240,009	119,792
239,757	0,270	239,820	119,671
240,772	0,419	239,638	119,688
241,786	0,264	239,600	119,535
242,801	0,332	239,536	119,547
243,815	0,318	239,338	119,426
244,830	0,175	238,954	119,110
245,844	0,381	239,044	119,308
246,859	0,364	238,719	119,122
247,874	0,441	238,578	119,102
248,888	0,370	238,380	118,936
249,903	0,233	238,312	118,784
250,917	0,504	238,268	118,965
251,932	0,566	238,073	118,906
252,947	0,376	237,925	118,671
253,961	0,456	237,731	118,627
254,976	0,347	237,514	118,423
255,990	0,282	237,390	118,299
257,005	0,472	237,188	118,338
258,020	0,500	237,054	118,282
259,034	0,365	236,900	118,089
260,049	0,391	236,869	118,083
261,063	0,376	236,682	117,967
262,078	0,263	236,344	117,700
263,093	0,386	236,337	117,783
264,107	0,422	236,298	117,781
265,122	0,546	235,926	117,682
266,136	0,351	235,886	117,498
267,151	0,308	235,695	117,359
268,166	0,189	235,624	117,221
269,180	0,339	235,216	117,124
270,195	0,328	235,267	117,130
271,209	0,306	235,110	117,025
272,224	0,284	235,098	116,991
273,239	0,462	234,791	116,966
274,253	0,353	234,574	116,763
275,268	0,394	234,425	116,711
276,282	0,547	234,331	116,772
277,297	0,370	234,143	116,531
278,312	0,124	234,086	116,301
279,326	0,358	233,764	116,312
280,341	0,478	233,729	116,377
281,355	0,626	233,553	116,394
282,370	0,651	233,453	116,353
283,384	0,548	233,274	116,174
284,399	0,403	233,084	115,957
285,414	0,525	232,948	115,973
286,428	0,442	232,895	115,872
287,443	0,601	232,648	115,861
288,457	0,650	232,524	115,827
289,472	0,469	232,473	115,652
290,487	0,582	232,290	115,638
291,501	0,403	232,141	115,415
292,516	0,687	231,887	115,497
293,530	0,432	231,842	115,268
294,545	0,407	231,877	115,257
295,560	0,434	231,521	115,090
296,574	0,607	231,502	115,204
297,589	0,528	231,214	114,989
298,603	0,417	231,158	114,866
299,618	0,492	230,993	114,831
300,633	0,662	230,845	114,877
301,647	0,872	230,653	114,932
302,662	0,689	230,558	114,734
303,676	0,762	230,339	114,671
304,691	0,562	230,380	114,529
305,706	0,593	230,059	114,383
306,720	0,570	229,911	114,281
307,735	0,894	229,711	114,418
308,749	0,608	229,812	114,240
309,764	0,829	229,445	114,216
310,779	0,597	229,435	114,024
311,793	0,495	229,120	113,780
312,808	0,576	229,050	113,797
313,822	0,712	228,799	113,765
314,837	0,696	228,722	113,704
315,852	0,709	228,524	113,606
316,866	0,882	228,475	113,702
317,881	0,619	228,212	113,362
318,895	0,916	228,078	113,510
319,910	0,793	227,969	113,353
320,925	0,620	227,886	113,171
321,939	0,887	227,716	113,278
322,954	0,816	227,653	113,182
323,968	0,651	227,434	112,939
324,983	0,882	227,357	113,065
325,997	0,765	227,198	112,887
327,012	0,697	227,081	112,768
328,027	0,643	226,906	112,631
329,041	0,716	226,839	112,642
330,056	0,741	226,700	112,582
331,070	0,847	226,462	112,533
332,085	0,769	226,285	112,377
333,100	0,770	226,040	112,246
334,114	0,622	225,997	112,104
335,129	0,847	225,829	112,179
336,143	0,882	225,706	112,134
337,158	0,638	225,695	111,936
338,173	1,004	225,442	112,073
339,187	0,876	225,355	111,924
340,202	0,673	225,325	111,749
341,216	0,505	225,149	111,526
342,231	0,889	224,850	111,653
343,246	0,897	224,750	111,600
344,260	0,783	224,611	111,436
345,275	0,882	224,643	111,516
346,289	0,968	224,264	111,382
347,304	0,979	224,259	111,377
348,319	0,764	224,001	111,080
349,333	0,785	223,854	111,013
350,348	1,105	223,720	111,173
351,362	1,002	223,635	111,044
352,377	0,947	223,456	110,905
353,392	0,758	223,300	110,678
354,406	1,079	223,067	110,789
355,421	192,793	1310,041	1375,910
356,435	154,395	1442,298	1375,731
