DTS Sentinel unit serial number:	SN410029Multiplexer serial number:	ORYXHardware model number:	OX2-SRSoftware version number:	ORYX F/W v4,00 Oryx Data Collector v3.7.2.0data status	okinstallation	B5 Nyhavnadifferential loss correction	single-endedforward channel	channel 2reverse channel	N/Adate	2023/12/12time	13:27:13forward acquisition time	300,00reverse acquisition time	0,00gamma	499,1914k internal	0,3158k external	0,3158temperature offset calibration	1,0000default loss term (dB/km)	0,3820temperature slope calibration	1,0000multiplexer offset coefficient	1,0000multiplexer slope coefficient	1,0000fibre end	0,00T internal ref (°C)	15,62T ext. ref 1 (°C)	-0,35T ext. ref 2 (°C)	-0,59length (m)	temperature (°C)	Stokes	anti-Stokes-744,400	-24,071	0,120	-0,053
-743,385	-139,453	-0,334	-0,026
-742,371	-15,045	0,163	-0,077
-741,356	-100,705	-0,076	0,014
-740,342	217,688	0,082	0,097
-739,327	-25,754	-0,280	0,121
-738,312	-200,000	0,008	-0,145
-737,298	-164,014	-0,201	0,007
-736,283	-149,898	0,058	0,003
-735,269	-29,068	-0,205	-0,086
-734,254	-88,202	0,138	0,030
-733,239	-76,356	-0,534	-0,138
-732,225	-109,685	0,317	0,049
-731,210	-200,000	-0,031	0,151
-730,196	344,839	0,030	-0,044
-729,181	125,937	-0,118	0,110
-728,167	-97,556	-0,087	-0,016
-727,152	12,421	-0,079	0,045
-726,137	-200,000	-0,006	-0,059
-725,123	-78,941	-0,126	0,031
-724,108	157,192	-0,102	-0,104
-723,094	195,010	0,099	-0,111
-722,079	-200,000	-0,016	-0,076
-721,064	-67,294	0,055	0,016
-720,050	431,310	0,006	-0,009
-719,035	-20,699	-0,136	0,061
-718,021	353,781	-0,056	-0,082
-717,006	-200,000	-0,021	-0,082
-715,991	207,724	-0,094	-0,108
-714,977	800,000	-0,032	-0,073
-713,962	402,591	0,114	-0,177
-712,948	188,272	0,046	-0,051
-711,933	800,000	0,049	-0,157
-710,918	170,544	-0,045	-0,048
-709,904	205,280	-0,131	-0,150
-708,889	-16,578	-0,094	-0,043
-707,875	-200,000	-0,018	-0,145
-706,860	-107,215	0,061	-0,010
-705,845	-109,668	-0,029	-0,004
-704,831	-59,276	0,185	-0,058
-703,816	109,432	-0,026	-0,023
-702,802	9,126	-0,005	-0,003
-701,787	-200,000	-0,041	-0,217
-700,772	-200,000	0,021	-0,133
-699,758	329,323	0,028	-0,039
-698,743	276,718	0,011	0,015
-697,729	-200,000	0,004	-0,068
-696,714	800,000	0,026	-0,060
-695,699	-200,000	-0,007	0,073
-694,685	125,547	-0,021	0,019
-693,670	-17,033	-0,037	-0,017
-692,656	108,908	-0,112	-0,099
-691,641	405,306	0,039	-0,060
-690,627	231,164	0,058	0,070
-689,612	240,011	0,094	-0,116
-688,597	-200,000	0,000	-0,028
-687,583	38,768	-0,098	0,064
-686,568	-200,000	-0,014	-0,100
-685,554	-162,622	0,050	-0,002
-684,539	-200,000	0,015	-0,058
-683,524	-200,000	0,006	0,033
-682,510	252,416	0,038	0,048
-681,495	2,605	-0,106	-0,056
-680,481	401,522	-0,009	-0,013
-679,466	-67,498	-0,059	0,017
-678,451	-108,266	0,028	-0,004
-677,437	-56,485	-0,045	0,015
-676,422	-137,560	0,224	-0,018
-675,408	-86,201	-0,048	-0,011
-674,393	-200,000	-0,023	-0,115
-673,378	-133,155	-0,135	0,012
-672,364	-200,000	-0,007	0,095
-671,349	-200,000	-0,005	-0,088
-670,335	-200,000	0,011	-0,096
-669,320	-52,264	0,130	-0,044
-668,305	-88,374	0,087	-0,019
-667,291	-94,555	0,064	0,013
-666,276	136,646	0,114	-0,109
-665,262	-200,000	-0,022	-0,134
-664,247	800,000	0,012	0,025
-663,232	-59,777	0,063	0,020
-662,218	52,105	-0,075	-0,052
-661,203	-130,313	-0,074	0,007
-660,189	193,785	0,021	0,023
-659,174	99,145	0,073	-0,062
-658,159	-200,000	-0,033	-0,139
-657,145	-63,118	-0,069	-0,021
-656,130	800,000	0,039	-0,115
-655,116	248,183	-0,030	0,038
-654,101	2,857	0,065	-0,035
-653,086	-200,000	0,014	0,064
-652,072	184,632	-0,039	0,042
-651,057	-101,650	-0,052	-0,009
-650,043	5,602	-0,112	-0,061
-649,028	-168,562	0,144	0,004
-648,014	-200,000	0,023	0,089
-646,999	28,355	0,094	-0,058
-645,984	64,900	0,095	0,071
-644,970	234,600	-0,135	0,164
-643,955	-70,784	-0,141	-0,039
-642,941	-49,468	0,148	-0,051
-641,926	-200,000	-0,021	-0,091
-640,911	-200,000	0,038	-0,226
-639,897	143,029	-0,046	0,045
-638,882	68,856	0,030	-0,023
-637,868	-102,162	-0,079	-0,014
-636,853	-117,100	-0,079	-0,010
-635,838	-141,983	-0,070	0,005
-634,824	-137,746	-0,205	-0,017
-633,809	383,845	-0,004	0,005
-632,795	800,000	0,069	0,184
-631,780	159,636	0,018	-0,018
-630,765	178,843	-0,034	0,037
-629,751	528,380	-0,069	0,120
-628,736	-55,249	-0,147	-0,048
-627,722	-44,403	0,103	-0,038
-626,707	101,745	-0,009	0,007
-625,692	-200,000	0,026	0,136
-624,678	-14,292	0,098	0,046
-623,663	800,000	0,032	-0,082
-622,649	-80,651	-0,086	-0,021
-621,634	181,906	-0,056	0,060
-620,619	282,653	0,040	-0,052
-619,605	368,087	0,043	0,063
-618,590	-23,559	-0,100	0,044
-617,576	14,564	-0,043	-0,024
-616,561	-200,000	-0,003	-0,100
-615,546	159,950	0,013	-0,013
-614,532	-200,000	-0,003	0,027
-613,517	-35,489	-0,081	-0,032
-612,503	-70,639	-0,059	0,016
-611,488	800,000	0,026	-0,078
-610,474	-69,193	-0,108	-0,030
-609,459	-157,751	0,039	0,002
-608,444	648,315	-0,064	-0,121
-607,430	-111,190	-0,080	0,012
-606,415	104,965	0,020	-0,017
-605,401	264,674	-0,006	0,008
-604,386	800,000	0,044	-0,089
-603,371	196,157	0,074	0,083
-602,357	-16,051	0,020	-0,009
-601,342	-200,000	-0,000	-0,118
-600,328	144,960	-0,109	-0,107
-599,313	-112,162	-0,108	-0,016
-598,298	-55,803	0,202	-0,066
-597,284	800,000	-0,044	-0,105
-596,269	-200,000	0,020	0,000
-595,255	75,007	0,057	-0,044
-594,240	77,348	0,046	-0,036
-593,225	-192,783	-0,157	-0,001
-592,211	586,161	-0,095	-0,172
-591,196	56,610	0,078	0,055
-590,182	-102,728	0,165	0,029
-589,167	30,329	0,040	0,025
-588,152	-96,110	0,029	-0,006
-587,138	411,513	0,096	-0,150
-586,123	615,912	0,025	0,046
-585,109	-200,000	0,007	-0,103
-584,094	800,000	-0,033	-0,099
-583,079	-141,340	-0,095	0,007
-582,065	58,920	-0,041	-0,029
-581,050	-113,354	-0,135	-0,019
-580,036	-86,290	-0,109	-0,024
-579,021	-200,000	-0,023	-0,097
-578,006	516,725	0,021	-0,036
-576,992	-75,223	0,015	0,004
-575,977	576,736	0,007	-0,013
-574,963	279,790	0,034	0,045
-573,948	-153,409	-0,051	0,003
-572,934	280,591	0,053	-0,070
-571,919	-200,000	-0,002	-0,010
-570,904	-200,000	-0,002	-0,076
-569,890	-97,587	-0,042	0,008
-568,875	800,000	0,029	0,077
-567,861	-151,635	0,013	-0,001
-566,846	120,734	0,080	0,073
-565,831	-200,000	-0,034	0,117
-564,817	321,694	0,053	0,074
-563,802	-200,000	0,016	-0,060
-562,788	362,819	-0,019	-0,028
-561,773	-117,721	0,021	-0,003
-560,758	-47,817	0,052	-0,018
-559,744	800,000	0,049	0,113
-558,729	800,000	-0,064	0,141
-557,715	-200,000	-0,008	-0,076
-556,700	-92,433	-0,092	0,019
-555,685	43,799	-0,074	0,049
-554,671	168,848	0,009	0,010
-553,656	359,007	0,019	0,028
-552,642	-200,000	-0,010	0,188
-551,627	-200,000	-0,017	-0,165
-550,612	-200,000	0,014	-0,152
-549,598	-200,000	-0,060	-0,249
-548,583	-152,492	-0,056	0,003
-547,569	670,106	-0,093	-0,176
-546,554	-3,119	0,059	0,030
-545,539	-200,000	-0,006	-0,103
-544,525	540,355	-0,025	0,044
-543,510	93,315	0,117	-0,096
-542,496	-133,843	-0,113	0,010
-541,481	310,812	0,052	-0,071
-540,466	-200,000	-0,003	-0,027
-539,452	-148,685	-0,108	0,006
-538,437	-193,214	0,060	-0,000
-537,423	800,000	0,049	0,105
-536,408	244,629	0,033	-0,040
-535,393	259,385	-0,048	-0,061
-534,379	800,000	-0,070	-0,166
-533,364	-200,000	0,033	-0,182
-532,350	88,731	-0,039	-0,032
-531,335	84,793	-0,021	-0,017
-530,321	-200,000	-0,005	-0,141
-529,306	53,499	0,050	0,035
-528,291	199,341	-0,016	-0,018
-527,277	800,000	-0,041	-0,128
-526,262	227,644	0,008	0,010
-525,248	184,359	-0,024	-0,026
-524,233	800,000	0,085	0,208
-523,218	147,354	-0,116	0,114
-522,204	418,977	0,074	0,115
-521,189	-59,319	-0,136	-0,042
-520,175	16,272	-0,159	-0,092
-519,160	-57,491	-0,144	-0,046
-518,145	-45,707	0,072	0,026
-517,131	328,410	0,049	-0,069
-516,116	119,289	-0,056	0,051
-515,102	-89,700	-0,094	0,020
-514,087	107,184	-0,038	-0,033
-513,072	523,285	-0,047	-0,081
-512,058	-138,476	0,048	-0,004
-511,043	-200,000	-0,019	0,128
-510,029	-200,000	0,006	-0,024
-509,014	437,728	-0,049	-0,078
-507,999	-200,000	0,011	-0,092
-506,985	-200,000	-0,014	-0,101
-505,970	207,927	0,059	0,067
-504,956	-163,583	-0,110	-0,004
-503,941	-122,466	-0,138	-0,016
-502,926	800,000	0,031	-0,094
-501,912	224,988	0,069	0,081
-500,897	25,489	-0,045	0,027
-499,883	235,088	0,033	0,040
-498,868	-98,747	-0,046	0,008
-497,853	-99,784	-0,103	-0,019
-496,839	-200,000	0,021	0,085
-495,824	800,000	-0,059	0,124
-494,810	62,811	0,129	0,094
-493,795	800,000	-0,019	-0,059
-492,781	-171,958	0,053	0,001
-491,766	-17,352	-0,111	0,051
-490,751	800,000	-0,028	-0,066
-489,737	-1,175	0,058	0,030
-488,722	-145,357	0,084	0,005
-487,708	-72,249	-0,069	-0,019
-486,693	-200,000	0,013	0,053
-485,678	767,543	-0,046	-0,091
-484,664	800,000	0,019	0,048
-483,649	555,624	0,053	-0,093
-482,635	-22,691	0,065	-0,028
-481,620	144,568	0,150	0,146
-480,605	265,849	0,061	0,077
-479,591	800,000	0,068	0,160
-478,576	28,841	-0,128	0,079
-477,562	341,830	-0,081	0,116
-476,547	-61,159	0,073	0,022
-475,532	637,101	0,069	0,129
-474,518	190,121	-0,031	-0,034
-473,503	-200,000	-0,012	0,096
-472,489	800,000	0,037	0,089
-471,474	800,000	0,027	-0,084
-470,459	-200,000	-0,012	-0,102
-469,445	800,000	0,064	0,146
-468,430	341,192	-0,031	0,044
-467,416	-15,268	0,192	0,089
-466,401	519,592	0,054	-0,093
-465,386	56,317	-0,090	-0,064
-464,372	-200,000	0,002	-0,069
-463,357	19,758	-0,046	-0,027
-462,343	612,759	0,022	-0,040
-461,328	343,172	-0,045	-0,064
-460,313	800,000	-0,024	-0,055
-459,299	-200,000	0,046	0,185
-458,284	-108,943	-0,139	-0,021
-457,270	800,000	0,023	-0,069
-456,255	-200,000	-0,007	0,027
-455,241	622,036	0,040	0,075
-454,226	800,000	0,008	-0,017
-453,211	453,144	0,069	-0,112
-452,197	132,844	0,176	0,165
-451,182	-95,212	-0,081	-0,016
-450,168	800,000	-0,024	-0,074
-449,153	800,000	-0,015	-0,033
-448,138	-200,000	-0,012	-0,112
-447,124	424,277	0,049	-0,077
-446,109	-56,375	0,094	-0,030
-445,095	-111,207	-0,073	-0,011
-444,080	-200,000	-0,002	0,228
-443,065	-37,660	-0,048	-0,018
-442,051	134,750	-0,031	0,029
-441,036	-200,000	0,016	-0,074
-440,022	22,383	-0,098	-0,058
-439,007	-200,000	-0,010	0,059
-437,992	-28,942	0,034	0,014
-436,978	-200,000	0,011	0,118
-435,963	490,737	0,030	0,050
-434,949	-200,000	-0,015	0,145
-433,934	-97,041	-0,069	0,013
-432,919	257,134	0,068	-0,085
-431,905	800,000	0,034	0,107
-430,890	800,000	0,036	-0,091
-429,876	-8,781	0,175	0,085
-428,861	318,382	0,037	-0,051
-427,846	-200,000	0,017	-0,107
-426,832	-200,000	-0,006	-0,050
-425,817	-78,492	-0,106	0,026
-424,803	83,922	-0,035	-0,027
-423,788	-140,128	0,171	0,013
-422,773	-6,531	0,044	0,022
-421,759	394,230	0,021	0,032
-420,744	-200,000	0,021	-0,163
-419,730	470,115	0,008	0,013
-418,715	-60,742	0,081	-0,025
-417,701	-200,000	0,015	0,059
-416,686	-86,307	0,064	-0,014
-415,671	-200,000	-0,008	-0,115
-414,657	-21,453	0,052	-0,023
-413,642	237,109	-0,056	0,068
-412,628	-110,888	-0,059	0,009
-411,613	-61,835	-0,064	-0,019
-410,598	-200,000	-0,006	0,105
-409,584	52,688	0,074	0,051
-408,569	84,024	-0,067	-0,053
-407,555	-30,216	-0,046	0,019
-406,540	228,213	-0,056	0,066
-405,525	-171,803	-0,146	-0,003
-404,511	291,588	-0,017	-0,023
-403,496	30,997	0,108	0,067
-402,482	-145,310	-0,034	-0,002
-401,467	-130,608	-0,079	0,008
-400,452	-95,343	-0,106	-0,020
-399,438	-138,869	-0,092	-0,007
-398,423	367,287	-0,060	-0,089
-397,409	-103,995	-0,085	0,014
-396,394	-200,000	0,007	-0,055
-395,379	749,434	0,037	0,073
-394,365	357,525	0,076	0,110
-393,350	-200,000	-0,031	-0,129
-392,336	-52,326	0,021	0,007
-391,321	-200,000	0,009	0,051
-390,306	-200,000	0,017	-0,081
-389,292	-73,214	0,021	-0,005
-388,277	234,152	-0,077	-0,093
-387,263	65,524	-0,050	-0,037
-386,248	4,719	-0,057	-0,031
-385,233	290,636	0,032	-0,042
-384,219	171,505	-0,102	-0,107
-383,204	-200,000	-0,019	-0,116
-382,190	160,604	-0,120	-0,122
-381,175	-8,617	-0,137	-0,067
-380,160	800,000	-0,040	0,081
-379,146	-200,000	-0,014	0,138
-378,131	-21,441	-0,046	0,020
-377,117	364,673	0,070	0,103
-376,102	-59,983	0,061	-0,019
-375,088	461,020	-0,012	-0,019
-374,073	-65,015	0,117	0,034
-373,058	-145,828	-0,084	-0,005
-372,044	-11,218	0,070	0,033
-371,029	305,132	-0,054	0,073
-370,015	-200,000	-0,003	-0,108
-369,000	800,000	-0,063	0,165
-367,985	746,673	0,006	-0,012
-366,971	-104,411	0,048	0,008
-365,956	800,000	0,047	-0,105
-364,942	-200,000	0,001	-0,060
-363,927	-35,290	-0,029	0,011
-362,912	248,411	-0,098	-0,121
-361,898	257,202	0,016	0,020
-360,883	-23,505	-0,070	-0,030
-359,869	276,449	-0,062	0,081
-358,854	-98,780	0,087	0,016
-357,839	800,000	0,012	0,035
-356,825	666,652	-0,013	-0,025
-355,810	-200,000	-0,000	0,011
-354,796	173,472	0,059	-0,061
-353,781	102,634	-0,064	-0,055
-352,766	-2,333	-0,059	-0,030
-351,752	21,047	0,109	-0,064
-350,737	-200,000	-0,033	0,108
-349,723	800,000	-0,070	0,182
-348,708	166,959	0,053	0,055
-347,693	-200,000	0,009	0,037
-346,679	67,204	0,055	0,041
-345,664	214,073	-0,141	-0,162
-344,650	800,000	0,028	-0,087
-343,635	-11,297	0,100	-0,047
-342,620	27,241	-0,107	0,065
-341,606	-200,000	0,008	-0,051
-340,591	800,000	-0,043	-0,089
-339,577	-200,000	-0,015	0,114
-338,562	800,000	-0,030	-0,079
-337,548	53,211	0,088	-0,061
-336,533	-103,686	-0,056	-0,009
-335,518	-200,000	-0,027	0,137
-334,504	23,433	0,055	0,033
-333,489	3,429	0,045	-0,023
-332,475	800,000	0,021	-0,051
-331,460	800,000	-0,050	-0,125
-330,445	307,020	0,031	0,042
-329,431	800,000	-0,012	0,039
-328,416	-200,000	0,007	0,126
-327,402	244,918	0,083	0,102
-326,387	37,978	0,068	0,043
-325,372	-131,030	0,090	0,009
-324,358	800,000	0,040	0,087
-323,343	-17,613	-0,071	0,032
-322,329	60,466	0,086	-0,061
-321,314	149,246	0,038	-0,037
-320,299	800,000	-0,018	-0,047
-319,285	-200,000	0,006	0,090
-318,270	-200,000	-0,017	0,128
-317,256	-200,000	0,090	0,000
-316,241	106,439	-0,076	0,065
-315,226	156,576	0,045	-0,045
-314,212	-6,163	0,051	-0,025
-313,197	-200,000	0,064	-0,206
-312,183	609,664	-0,052	0,095
-311,168	68,679	-0,042	0,031
-310,153	563,808	0,027	-0,048
-309,139	-129,079	-0,105	0,011
-308,124	-200,000	0,045	0,146
-307,110	-200,000	0,000	0,057
-306,095	-200,000	-0,005	0,053
-305,080	800,000	-0,060	-0,136
-304,066	-21,050	-0,144	0,063
-303,051	205,839	0,035	0,040
-302,037	-200,000	0,017	-0,155
-301,022	-200,000	0,007	-0,109
-300,008	-200,000	-0,012	0,058
-298,993	651,148	0,041	0,077
-297,978	-200,000	0,016	0,160
-296,964	-56,728	0,116	-0,037
-295,949	800,000	-0,020	-0,051
-294,935	-103,110	0,086	-0,015
-293,920	800,000	0,062	0,156
-292,905	-42,895	0,120	0,044
-291,891	115,696	-0,107	0,095
-290,876	21,103	0,090	-0,053
-289,862	800,000	-0,039	-0,097
-288,847	-93,541	0,093	-0,019
-287,832	-38,077	0,104	-0,040
-286,818	281,555	0,047	-0,061
-285,803	790,005	-0,039	0,078
-284,789	-200,000	0,015	0,184
-283,774	100,896	0,007	-0,006
-282,759	-18,631	0,104	0,047
-281,745	-126,071	-0,076	-0,008
-280,730	86,412	0,103	-0,082
-279,716	-56,899	0,159	-0,051
-278,701	800,000	-0,025	-0,067
-277,686	-200,000	-0,003	0,026
-276,672	623,498	-0,053	0,098
-275,657	-200,000	0,069	-0,236
-274,643	-23,286	-0,107	-0,047
-273,628	100,416	-0,018	0,015
-272,613	800,000	0,031	0,068
-271,599	39,149	0,041	0,026
-270,584	179,538	-0,149	0,158
-269,570	800,000	0,079	0,183
-268,555	78,988	0,025	-0,020
-267,540	309,895	0,055	-0,075
-266,526	13,529	-0,007	-0,004
-265,511	335,877	-0,091	0,128
-264,497	-200,000	-0,011	0,074
-263,482	62,097	0,127	-0,091
-262,467	76,757	0,088	-0,068
-261,453	-166,106	-0,095	-0,003
-260,438	-200,000	-0,016	-0,145
-259,424	-70,481	0,082	-0,022
-258,409	-5,983	0,075	0,037
-257,395	-200,000	0,002	0,067
-256,380	-169,999	0,211	-0,005
-255,365	-65,177	0,135	-0,039
-254,351	-84,976	0,084	0,019
-253,336	285,355	-0,063	0,082
-252,322	-162,981	-0,156	0,005
-251,307	-123,618	0,160	0,018
-250,292	349,011	0,030	-0,043
-249,278	118,018	0,060	0,054
-248,263	562,918	-0,043	0,075
-247,249	800,000	0,048	0,100
-246,234	57,545	-0,127	-0,090
-245,219	55,331	-0,072	-0,051
-244,205	78,732	-0,081	-0,062
-243,190	198,481	0,041	0,046
-242,176	-130,449	0,060	-0,006
-241,161	-97,625	0,129	0,024
-240,146	106,364	-0,071	0,061
-239,132	399,664	-0,067	-0,102
-238,117	38,300	-0,039	-0,025
-237,103	-33,860	0,088	0,035
-236,088	524,790	-0,017	-0,028
-235,073	800,000	-0,022	0,070
-234,059	-200,000	0,014	-0,066
-233,044	198,918	0,073	0,081
-232,030	-42,666	-0,109	0,040
-231,015	-200,000	0,014	0,070
-230,000	-200,000	0,014	-0,064
-228,986	-2,924	0,067	0,034
-227,971	-94,194	-0,031	0,006
-226,957	241,895	-0,016	-0,020
-225,942	800,000	0,044	0,107
-224,927	-5,668	-0,048	-0,023
-223,913	-200,000	-0,033	-0,111
-222,898	663,255	0,041	0,077
-221,884	19,552	-0,082	-0,047
-220,869	-37,112	0,085	0,033
-219,855	-88,203	0,043	0,009
-218,840	700,925	0,040	0,076
-217,825	2,750	-0,069	-0,036
-216,811	800,000	0,048	-0,106
-215,796	800,000	0,006	-0,016
-214,782	-200,000	0,000	0,146
-213,767	-200,000	-0,005	-0,031
-212,752	-74,036	0,127	0,033
-211,738	5,158	-0,111	0,059
-210,723	-200,000	-0,037	-0,123
-209,709	800,000	0,018	0,050
-208,694	-200,000	-0,009	-0,051
-207,679	238,058	-0,046	-0,056
-206,665	39,265	0,167	-0,108
-205,650	-145,914	0,086	-0,005
-204,636	-68,590	0,148	-0,041
-203,621	83,760	0,064	-0,050
-202,606	-164,840	-0,179	-0,006
-201,592	800,000	-0,034	-0,079
-200,577	387,865	-0,077	-0,116
-199,563	-3,922	-0,069	0,035
-198,548	221,539	-0,060	-0,070
-197,533	157,432	0,040	0,040
-196,519	64,952	-0,123	0,090
-195,504	-200,000	0,001	-0,095
-194,490	-200,000	-0,002	-0,091
-193,475	-200,000	0,044	0,187
-192,460	-2,688	0,068	-0,034
-191,446	800,000	0,006	0,017
-190,431	-200,000	-0,009	0,042
-189,417	-28,443	0,021	-0,009
-188,402	320,846	-0,027	-0,038
-187,387	131,990	0,076	-0,071
-186,373	-22,461	-0,097	-0,042
-185,358	-100,278	0,053	0,009
-184,344	627,268	0,062	0,113
-183,329	670,448	-0,032	0,059
-182,315	-200,000	0,014	0,201
-181,300	-200,000	0,004	0,104
-180,285	-157,495	-0,055	-0,002
-179,271	538,320	0,028	0,048
-178,256	800,000	0,040	0,083
-177,242	-83,497	0,176	0,040
-176,227	71,745	0,123	-0,092
-175,212	-85,979	-0,032	0,007
-174,198	-200,000	0,022	-0,101
-173,183	238,347	-0,021	0,025
-172,169	376,632	-0,027	0,039
-171,154	182,811	-0,053	0,057
-170,139	-200,000	-0,002	0,125
-169,125	800,000	0,045	0,112
-168,110	12,105	0,107	0,059
-167,096	37,486	-0,037	0,023
-166,081	-57,077	0,055	-0,017
-165,066	800,000	0,035	0,074
-164,052	65,014	0,064	-0,047
-163,037	-122,160	-0,024	-0,003
-162,023	-200,000	-0,005	0,068
-161,008	585,229	-0,039	0,070
-159,993	800,000	-0,058	0,180
-158,979	-200,000	0,015	-0,105
-157,964	43,089	-0,064	0,042
-156,950	318,537	-0,049	-0,067
-155,935	-28,283	-0,065	-0,027
-154,920	-139,290	0,028	0,002
-153,906	366,129	0,025	0,036
-152,891	-72,163	-0,104	-0,028
-151,877	-200,000	0,024	-0,078
-150,862	-5,357	0,124	-0,061
-149,847	-53,621	0,129	-0,042
-148,833	16,816	-0,075	0,043
-147,818	-33,687	0,060	-0,024
-146,804	96,825	-0,076	-0,063
-145,789	13,324	0,109	-0,061
-144,775	117,644	0,066	-0,058
-143,760	800,000	0,038	0,091
-142,745	-45,355	-0,079	-0,028
-141,731	-200,000	0,011	0,078
-140,716	-62,179	0,035	-0,011
-139,702	-65,038	0,029	0,008
-138,687	-66,948	-0,137	0,039
-137,672	-4,017	-0,059	-0,029
-136,658	-200,000	0,003	0,019
-135,643	127,131	-0,129	0,118
-134,629	123,907	0,087	-0,079
-133,614	439,910	0,045	0,071
-132,599	-200,000	0,008	0,033
-131,585	466,784	-0,016	0,025
-130,570	13,783	0,056	0,031
-129,556	479,095	-0,114	0,186
-128,541	-1,273	0,100	0,051
-127,526	159,142	0,101	-0,101
-126,512	-49,846	0,116	0,039
-125,497	10,044	0,083	0,045
-124,483	-200,000	0,010	0,182
-123,468	-150,112	-0,050	-0,003
-122,453	-72,100	-0,076	0,020
-121,439	163,637	-0,120	0,121
-120,424	800,000	-0,050	-0,124
-119,410	-166,226	0,089	0,003
-118,395	-137,983	0,174	0,014
-117,380	800,000	0,019	0,046
-116,366	-179,804	-0,061	0,001
-115,351	800,000	0,054	-0,128
-114,337	-200,000	0,007	0,065
-113,322	-38,463	0,079	-0,030
-112,307	-200,000	0,031	-0,108
-111,293	-200,000	0,006	-0,029
-110,278	514,841	0,029	-0,049
-109,264	112,525	0,075	0,065
-108,249	-132,971	0,119	-0,011
-107,234	-200,000	-0,017	-0,103
-106,220	800,000	0,058	0,117
-105,205	97,640	0,067	-0,055
-104,191	168,926	0,040	0,041
-103,176	-200,000	-0,003	-0,081
-102,162	-200,000	-0,015	0,072
-101,147	800,000	0,022	-0,052
-100,132	72,959	-0,145	0,109
-99,118	222,388	-0,045	-0,052
-98,103	800,000	0,035	-0,080
-97,089	-67,212	-0,104	-0,029
-96,074	87,732	0,090	0,072
-95,059	-18,532	0,138	0,062
-94,045	-59,533	-0,067	-0,021
-93,030	-18,598	-0,118	0,053
-92,016	644,987	-0,066	0,121
-91,001	-16,906	0,080	0,036
-89,986	-200,000	0,124	0,000
-88,972	189,067	0,046	-0,050
-87,957	-29,528	0,074	0,030
-86,943	-200,000	-0,004	-0,039
-85,928	88,681	-0,042	-0,034
-84,913	43,171	-0,078	-0,051
-83,899	800,000	-0,023	-0,051
-82,884	-107,249	0,067	-0,011
-81,870	-200,000	-0,008	-0,044
-80,855	800,000	-0,035	0,090
-79,840	151,045	-0,048	0,047
-78,826	765,013	0,063	-0,124
-77,811	23,791	0,049	-0,029
-76,797	65,836	-0,063	0,046
-75,782	179,287	-0,079	0,083
-74,767	-63,203	0,178	0,052
-73,753	-200,000	-0,003	0,027
-72,738	-84,341	-0,166	-0,038
-71,724	355,534	0,076	-0,109
-70,709	800,000	0,039	-0,102
-69,694	-118,562	-0,113	-0,014
-68,680	292,998	0,074	0,098
-67,665	21,860	0,095	0,055
-66,651	-124,334	0,073	-0,008
-65,636	-200,000	0,006	0,074
-64,622	-200,000	-0,003	-0,057
-63,607	-200,000	-0,009	-0,186
-62,592	8,592	0,133	-0,072
-61,578	-61,584	-0,051	0,015
-60,563	800,000	0,054	0,109
-59,549	318,349	-0,067	0,092
-58,534	-15,775	-1,935	-0,882
-57,519	-200,000	-0,275	-0,912
-56,505	-200,000	-1,249	-4,928
-55,490	66,468	0,681	0,496
-54,476	800,000	5,255	12,073
-53,461	-200,000	17,383	284,282
-52,446	800,000	724,450	2222,653
-51,432	540,274	1640,589	2813,988
-50,417	111,035	1632,277	1410,329
-49,403	75,235	1286,532	972,617
-48,388	32,304	1028,123	635,458
-47,373	20,279	989,746	572,090
-46,359	18,637	977,970	559,873
-45,344	15,989	973,974	548,896
-44,330	16,141	972,509	548,547
-43,315	15,698	970,605	546,004
-42,300	15,669	969,594	545,317
-41,286	15,634	968,638	544,646
-40,271	15,613	967,604	543,973
-39,257	15,651	966,561	543,490
-38,242	15,652	965,857	543,074
-37,227	15,636	965,155	542,606
-36,213	15,699	963,928	542,101
-35,198	15,631	963,242	541,474
-34,184	15,729	962,421	541,306
-33,169	15,599	961,671	540,443
-32,154	15,659	960,755	540,099
-31,140	15,629	959,884	539,493
-30,125	15,728	958,997	539,292
-29,111	15,709	958,108	538,710
-28,096	15,680	957,714	538,372
-27,082	15,723	956,766	537,958
-26,067	15,690	956,106	537,459
-25,052	15,633	955,475	536,901
-24,038	15,610	954,848	536,451
-23,023	15,612	954,135	536,036
-22,009	15,697	953,421	535,886
-20,994	15,697	952,728	535,475
-19,979	15,652	952,183	535,004
-18,965	15,702	951,436	534,722
-17,950	15,695	951,044	534,461
-16,936	15,596	950,254	533,677
-15,921	15,574	949,618	533,229
-14,906	15,546	948,894	532,711
-13,892	15,559	948,226	532,357
-12,877	15,546	947,544	531,910
-11,863	15,501	947,091	531,493
-10,848	15,565	946,542	531,369
-9,833	15,595	946,100	531,194
-8,819	15,605	945,403	530,814
-7,804	15,540	944,859	530,279
-6,790	15,535	944,093	529,812
-5,775	15,536	943,642	529,543
-4,760	15,612	942,791	529,284
-3,746	15,578	942,505	528,996
-2,731	15,433	941,653	528,036
-1,717	15,385	941,016	527,506
-0,702	15,349	940,423	527,040
0,313	15,179	939,553	526,812
1,327	18,363	937,509	535,652
2,342	27,181	794,995	477,606
3,356	24,065	459,547	271,286
4,371	-2,706	314,331	157,124
5,386	-6,541	296,038	144,090
6,400	-8,574	290,072	139,157
7,415	-9,034	287,654	137,532
8,429	-9,322	286,088	136,488
9,444	-9,313	285,193	136,058
10,459	-9,364	284,544	135,687
11,473	-9,171	283,973	135,590
12,488	-9,164	283,350	135,287
13,502	-9,295	282,954	134,959
14,517	-9,388	282,540	134,660
15,531	-9,308	281,819	134,381
16,546	-9,381	281,685	134,235
17,561	-9,586	281,261	133,823
18,575	-9,424	280,982	133,835
19,590	-9,640	280,632	133,449
20,604	-9,341	280,134	133,487
21,619	-9,548	279,801	133,118
22,634	-9,552	279,595	133,004
23,648	-9,616	279,325	132,803
24,663	-9,555	278,738	132,570
25,677	-9,460	278,629	132,597
26,692	-9,396	278,450	132,560
27,707	-9,553	278,170	132,266
28,721	-9,619	277,900	132,063
29,736	-9,667	277,727	131,924
30,750	-9,496	277,097	131,775
31,765	-9,574	277,041	131,663
32,780	-9,407	276,839	131,712
33,794	-9,493	276,492	131,455
34,809	-9,460	276,412	131,436
35,823	-9,696	276,087	131,048
36,838	-9,420	275,657	131,092
37,853	-9,597	275,590	130,882
38,867	-9,572	275,325	130,767
39,882	-9,642	275,038	130,553
40,896	-9,418	274,734	130,607
41,911	-9,552	274,661	130,435
42,926	-9,574	274,361	130,261
43,940	-9,659	274,144	130,068
44,955	-9,617	274,053	130,051
45,969	-9,757	273,760	129,770
46,984	-9,897	273,352	129,435
47,999	-10,112	273,104	129,105
49,013	-10,180	272,813	128,894
50,028	-10,426	272,763	128,629
51,042	-10,371	272,402	128,498
52,057	-10,228	271,920	128,392
53,071	-10,256	271,843	128,319
54,086	-10,381	271,709	128,128
55,101	-10,096	271,690	128,372
56,115	-9,948	271,587	128,449
57,130	-9,464	271,204	128,703
58,144	-9,501	271,082	128,600
59,159	-9,393	270,893	128,598
60,174	-9,378	270,664	128,491
61,188	-9,333	270,403	128,398
62,203	-9,486	270,271	128,183
63,217	-9,599	269,939	127,910
64,232	-9,550	269,785	127,871
65,247	-9,398	269,560	127,892
66,261	-9,262	269,175	127,822
67,276	-9,528	268,839	127,408
68,290	-9,926	268,825	127,026
69,305	-9,881	268,627	126,963
70,320	-9,751	268,400	126,963
71,334	-9,655	268,288	126,986
72,349	-9,395	267,942	127,048
73,363	-9,293	267,769	127,048
74,378	-9,547	267,622	126,735
75,393	-9,456	267,339	126,673
76,407	-9,549	267,148	126,486
77,422	-9,402	266,939	126,509
78,436	-9,393	266,690	126,389
79,451	-9,219	266,413	126,403
80,466	-9,406	266,267	126,154
81,480	-9,523	265,937	125,881
82,495	-9,790	265,776	125,552
83,509	-9,618	265,508	125,569
84,524	-9,611	265,429	125,527
85,539	-9,762	265,161	125,253
86,553	-9,802	265,095	125,174
87,568	-9,589	264,858	125,243
88,582	-9,774	264,451	124,873
89,597	-9,667	264,346	124,909
90,611	-9,466	264,301	125,056
91,626	-9,333	264,014	125,029
92,641	-9,459	263,765	124,787
93,655	-9,643	263,680	124,571
94,670	-9,504	263,424	124,563
95,684	-9,452	263,158	124,472
96,699	-9,479	262,876	124,305
97,714	-9,645	262,784	124,102
98,728	-9,610	262,597	124,033
99,743	-9,895	262,326	123,641
100,757	-9,867	262,211	123,600
101,772	-9,668	261,983	123,658
102,787	-9,857	261,881	123,431
103,801	-9,611	261,623	123,517
104,816	-9,607	261,441	123,424
105,830	-9,403	261,210	123,485
106,845	-9,461	261,225	123,429
107,860	-9,516	261,084	123,303
108,874	-9,648	260,759	123,022
109,889	-9,419	260,517	123,099
110,903	-9,576	260,322	122,858
111,918	-9,512	260,006	122,753
112,933	-9,587	259,929	122,639
113,947	-9,352	259,700	122,728
114,962	-9,530	259,489	122,461
115,976	-9,412	259,348	122,487
116,991	-9,524	259,272	122,342
118,006	-9,537	259,085	122,231
119,020	-9,554	258,830	122,085
120,035	-9,400	258,687	122,142
121,049	-9,402	258,457	122,020
122,064	-9,350	258,300	121,981
123,079	-9,511	258,082	121,727
124,093	-9,396	257,859	121,711
125,108	-9,728	257,578	121,277
126,122	-9,737	257,420	121,185
127,137	-9,958	257,141	120,850
128,151	-9,962	257,008	120,773
129,166	-9,456	256,714	121,064
130,181	-9,847	256,699	120,707
131,195	-9,747	256,405	120,644
132,210	-9,498	256,209	120,757
133,224	-9,351	256,159	120,851
134,239	-9,327	255,927	120,751
135,254	-9,347	255,755	120,642
136,268	-9,526	255,479	120,346
137,283	-9,770	255,215	120,000
138,297	-9,964	255,099	119,768
139,312	-10,066	254,877	119,564
140,327	-9,766	254,701	119,730
141,341	-9,447	254,703	119,995
142,356	-9,383	254,537	119,962
143,370	-9,383	254,378	119,876
144,385	-9,212	254,091	119,876
145,400	-9,090	253,949	119,904
146,414	-9,409	253,879	119,586
147,429	-9,300	253,622	119,548
148,443	-9,180	253,407	119,539
149,458	-9,362	253,421	119,379
150,473	-9,234	253,073	119,313
151,487	-9,347	252,769	119,063
152,502	-9,416	252,669	118,947
153,516	-9,363	252,460	118,882
154,531	-9,305	252,265	118,830
155,546	-9,326	252,172	118,758
156,560	-9,417	252,069	118,621
157,575	-9,384	251,661	118,446
158,589	-9,182	251,513	118,538
159,604	-9,349	251,414	118,339
160,619	-9,409	251,123	118,140
161,633	-9,272	250,992	118,184
162,648	-8,976	250,762	118,316
163,662	-9,262	250,736	118,051
164,677	-9,121	250,631	118,111
165,692	-9,213	250,352	117,891
166,706	-9,261	250,301	117,816
167,721	-9,084	249,977	117,802
168,735	-9,042	249,739	117,715
169,750	-9,354	249,860	117,498
170,764	-9,227	249,808	117,571
171,779	-9,385	249,482	117,273
172,794	-9,183	249,345	117,369
173,808	-9,113	249,058	117,281
174,823	-9,576	248,782	116,753
175,837	-9,969	248,559	116,309
176,852	-9,440	248,640	116,779
177,867	-9,136	248,302	116,865
178,881	-9,110	248,215	116,835
179,896	-9,200	248,150	116,719
180,910	-9,130	247,896	116,647
181,925	-9,211	247,712	116,483
182,940	-8,989	247,557	116,584
183,954	-9,271	247,488	116,307
184,969	-9,122	247,163	116,268
185,983	-9,110	247,044	116,211
186,998	-9,202	246,933	116,072
188,013	-9,120	246,821	116,077
189,027	-9,150	246,544	115,912
190,042	-9,145	246,481	115,876
191,056	-9,273	246,264	115,657
192,071	-9,225	246,278	115,693
193,086	-9,093	245,911	115,620
194,100	-9,043	245,626	115,517
195,115	-8,985	245,530	115,509
196,129	-9,245	245,383	115,215
197,144	-9,267	245,196	115,099
198,159	-9,095	244,923	115,102
199,173	-9,224	244,865	114,959
200,188	-9,241	244,738	114,875
201,202	-9,443	244,373	114,527
202,217	-9,730	244,099	114,153
203,232	-9,573	243,831	114,146
204,246	-9,294	243,859	114,378
205,261	-8,544	243,871	114,989
206,275	-9,375	243,601	114,170
207,290	-5,913	244,850	117,593
208,304	0,575	247,148	124,060
209,319	3,619	247,654	126,820
210,334	4,071	247,654	127,183
211,348	4,156	247,735	127,283
212,363	4,595	247,564	127,546
213,377	4,561	247,467	127,457
214,392	4,279	247,371	127,164
215,407	4,469	247,099	127,169
216,421	4,360	246,943	126,988
217,436	4,437	246,919	127,028
218,450	4,763	246,760	127,202
219,465	4,359	246,482	126,716
220,480	4,377	246,103	126,524
221,494	4,238	246,021	126,357
222,509	4,287	245,916	126,332
223,523	4,034	245,733	126,020
224,538	3,890	245,438	125,740
225,553	3,887	245,287	125,648
226,567	3,992	245,208	125,682
227,582	4,148	245,029	125,707
228,596	4,020	244,875	125,512
229,611	3,682	244,686	125,129
230,626	3,704	244,425	125,002
231,640	3,872	244,280	125,053
232,655	4,008	244,228	125,126
233,669	3,889	243,919	124,860
234,684	3,796	243,752	124,688
235,699	4,289	243,687	125,044
236,713	4,172	243,666	124,927
237,728	3,968	243,399	124,613
238,742	3,849	243,178	124,393
239,757	3,844	242,927	124,249
240,772	3,863	242,918	124,249
241,786	3,931	242,855	124,260
242,801	3,621	242,658	123,898
243,815	3,652	242,491	123,827
244,830	3,985	242,291	123,982
245,844	4,074	242,209	124,001
246,859	3,671	242,109	123,615
247,874	3,779	241,873	123,569
248,888	4,080	241,530	123,625
249,903	3,895	241,512	123,456
250,917	3,937	241,491	123,468
251,932	4,309	241,208	123,610
252,947	4,088	241,002	123,317
253,961	3,963	240,862	123,135
254,976	4,111	240,630	123,123
255,990	4,210	240,670	123,212
257,005	3,787	240,321	122,685
258,020	3,733	240,140	122,538
259,034	3,846	240,121	122,607
260,049	3,817	239,989	122,506
261,063	3,725	239,785	122,318
262,078	3,652	239,581	122,145
263,093	3,980	239,432	122,319
264,107	4,082	239,356	122,350
265,122	3,992	239,147	122,160
266,136	3,980	239,202	122,168
267,151	4,306	238,878	122,250
268,166	3,893	238,581	121,760
269,180	3,784	238,397	121,569
270,195	4,188	238,603	121,984
271,209	4,395	238,401	122,033
272,224	3,875	238,277	121,548
273,239	3,529	237,869	121,056
274,253	3,470	237,802	120,964
275,268	4,019	237,616	121,292
276,282	4,004	237,475	121,197
277,297	3,772	237,285	120,907
278,312	3,814	237,120	120,845
279,326	3,987	236,973	120,895
280,341	3,940	236,868	120,794
281,355	3,944	236,681	120,691
282,370	4,187	236,535	120,796
283,384	3,871	236,414	120,476
284,399	3,947	236,220	120,425
285,414	3,546	235,988	119,984
286,428	3,818	235,766	120,072
287,443	3,872	235,634	120,037
288,457	4,075	235,616	120,175
289,472	4,060	235,687	120,189
290,487	4,087	235,359	120,032
291,501	3,942	235,074	119,763
292,516	3,722	234,960	119,523
293,530	3,546	234,795	119,291
294,545	3,886	234,786	119,540
295,560	3,945	234,708	119,536
296,574	3,796	234,353	119,229
297,589	3,673	234,357	119,125
298,603	4,341	234,188	119,547
299,618	4,343	234,112	119,498
300,633	4,012	233,836	119,091
301,647	4,341	233,734	119,283
302,662	4,467	233,790	119,398
303,676	4,514	233,560	119,307
304,691	4,260	233,331	118,983
305,706	4,374	233,191	118,989
306,720	4,244	233,056	118,809
307,735	4,180	232,940	118,690
308,749	4,067	232,636	118,437
309,764	3,746	232,584	118,154
310,779	4,037	232,246	118,194
311,793	3,713	232,158	117,891
312,808	3,584	231,935	117,668
313,822	3,610	231,763	117,590
314,837	3,720	231,537	117,549
315,852	3,665	231,546	117,501
316,866	3,872	231,517	117,634
317,881	3,913	231,415	117,604
318,895	4,035	231,186	117,569
319,910	3,905	231,134	117,433
320,925	4,379	230,928	117,680
321,939	4,114	230,860	117,433
322,954	4,331	230,640	117,476
323,968	4,126	230,413	117,194
324,983	3,889	230,350	116,971
325,997	3,890	230,111	116,839
327,012	4,400	229,982	117,151
328,027	4,349	229,995	117,108
329,041	4,488	230,005	117,208
330,056	4,776	229,871	117,348
331,070	4,833	229,668	117,277
332,085	4,465	229,487	116,896
333,100	4,249	229,330	116,642
334,114	4,285	229,005	116,493
335,129	4,121	229,073	116,394
336,143	4,348	228,869	116,451
337,158	4,434	228,785	116,463
338,173	4,220	228,459	116,125
339,187	4,114	228,418	116,014
340,202	4,146	228,190	115,913
341,216	4,324	228,169	116,025
342,231	4,212	227,908	115,798
343,246	3,854	227,729	115,428
344,260	4,128	227,735	115,627
345,275	4,378	227,666	115,769
346,289	4,475	227,452	115,723
347,304	4,402	227,320	115,590
348,319	4,301	227,123	115,404
349,333	4,383	226,971	115,378
350,348	4,122	226,722	115,046
351,362	4,206	226,588	115,031
352,377	3,607	226,624	114,591
353,392	3,935	226,277	114,650
354,406	4,011	226,198	114,657
355,421	195,584	1319,745	1396,529
356,435	156,794	1452,974	1396,530
