DTS Sentinel unit serial number:	SN410029Multiplexer serial number:	ORYXHardware model number:	OX2-SRSoftware version number:	ORYX F/W v4,00 Oryx Data Collector v3.7.2.0data status	okinstallation	B5 Nyhavnadifferential loss correction	single-endedforward channel	channel 2reverse channel	N/Adate	2023/12/13time	17:17:13forward acquisition time	300,00reverse acquisition time	0,00gamma	499,1914k internal	0,3159k external	0,3159temperature offset calibration	1,0000default loss term (dB/km)	0,3820temperature slope calibration	1,0000multiplexer offset coefficient	1,0000multiplexer slope coefficient	1,0000fibre end	0,00T internal ref (°C)	14,00T ext. ref 1 (°C)	-3,39T ext. ref 2 (°C)	-3,48length (m)	temperature (°C)	Stokes	anti-Stokes-744,400	-187,300	0,143	0,001
-743,385	-62,029	-0,244	0,075
-742,371	-63,889	0,227	0,068
-741,356	-160,770	-0,269	-0,010
-740,342	-200,000	0,001	0,032
-739,327	-111,338	-0,402	0,060
-738,312	-125,188	0,119	0,013
-737,298	-150,474	-0,261	0,015
-736,283	170,422	0,127	0,134
-735,269	-110,919	-0,285	0,043
-734,254	142,279	0,131	0,128
-733,239	-44,682	-0,451	-0,165
-732,225	-133,620	0,280	0,025
-731,210	800,000	0,043	0,129
-730,196	-60,811	0,060	-0,019
-729,181	-200,000	0,001	-0,065
-728,167	643,573	-0,025	0,047
-727,152	63,867	0,045	0,034
-726,137	-200,000	0,017	-0,163
-725,123	-110,263	-0,087	0,013
-724,108	-200,000	-0,001	-0,120
-723,094	-4,641	-0,183	-0,092
-722,079	-31,341	-0,078	0,032
-721,064	234,348	0,085	0,103
-720,050	239,553	0,060	-0,073
-719,035	-59,397	-0,019	-0,006
-718,021	-110,550	0,085	-0,013
-717,006	139,855	-0,100	-0,097
-715,991	800,000	-0,018	-0,041
-714,977	5,336	0,043	-0,023
-713,962	-200,000	0,023	-0,184
-712,948	318,718	0,056	0,079
-711,933	-31,674	0,011	-0,005
-710,918	-78,314	-0,113	0,028
-709,904	-160,570	0,100	0,004
-708,889	-75,864	-0,117	0,030
-707,875	619,937	-0,071	-0,132
-706,860	36,611	0,184	-0,119
-705,845	566,377	-0,020	0,037
-704,831	165,366	0,086	-0,089
-703,816	178,650	-0,054	0,058
-702,802	800,000	-0,099	-0,213
-701,787	-200,000	0,022	-0,114
-700,772	543,615	0,080	-0,141
-699,758	800,000	0,067	-0,204
-698,743	628,310	0,041	-0,076
-697,729	-61,084	0,047	-0,014
-696,714	-200,000	0,005	0,096
-695,699	-26,245	0,090	0,039
-694,685	713,775	-0,036	-0,071
-693,670	244,818	-0,018	-0,022
-692,656	287,074	-0,028	0,037
-691,641	502,045	-0,034	-0,058
-690,627	-162,297	-0,047	-0,002
-689,612	-200,000	-0,021	-0,085
-688,597	-54,210	-0,073	0,024
-687,583	800,000	0,022	-0,063
-686,568	32,974	0,019	-0,012
-685,554	21,862	0,036	-0,022
-684,539	377,719	-0,024	0,037
-683,524	-143,469	0,039	-0,003
-682,510	-166,327	0,023	0,001
-681,495	368,474	-0,015	-0,022
-680,481	27,385	-0,007	-0,004
-679,466	114,770	0,061	-0,054
-678,451	-200,000	0,023	-0,138
-677,437	800,000	-0,011	-0,028
-676,422	-45,785	-0,070	0,025
-675,408	-200,000	0,013	0,233
-674,393	83,002	-0,112	-0,090
-673,378	175,960	0,042	-0,045
-672,364	-100,098	-0,152	0,028
-671,349	800,000	-0,025	-0,071
-670,335	30,201	0,095	0,060
-669,320	800,000	-0,021	-0,067
-668,305	-200,000	0,026	0,156
-667,291	-85,897	-0,145	-0,033
-666,276	245,150	-0,080	-0,099
-665,262	-102,348	-0,126	0,022
-664,247	-105,112	-0,059	0,010
-663,232	45,488	0,077	-0,052
-662,218	-174,920	-0,126	0,003
-661,203	-176,573	-0,100	-0,002
-660,189	3,473	-0,168	0,090
-659,174	-200,000	-0,007	-0,087
-658,159	-49,935	-0,131	-0,045
-657,145	-200,000	-0,026	-0,117
-656,130	153,513	-0,162	-0,163
-655,116	736,951	0,029	-0,056
-654,101	-81,149	0,063	0,015
-653,086	26,021	-0,057	0,035
-652,072	334,046	-0,043	-0,062
-651,057	800,000	0,034	-0,098
-650,043	-99,709	0,091	-0,017
-649,028	-200,000	-0,016	0,064
-648,014	-39,199	0,056	0,022
-646,999	-63,401	-0,014	0,004
-645,984	-62,505	-0,032	0,010
-644,970	357,856	-0,091	-0,134
-643,955	-200,000	0,003	-0,111
-642,941	218,154	-0,049	0,057
-641,926	242,290	0,061	0,076
-640,911	463,568	0,078	-0,128
-639,897	-146,987	-0,154	-0,010
-638,882	-15,246	-0,103	-0,048
-637,868	-50,971	-0,033	0,011
-636,853	-200,000	0,013	0,123
-635,838	319,319	0,059	-0,082
-634,824	-97,439	-0,167	0,032
-633,809	-200,000	-0,004	0,074
-632,795	800,000	0,021	0,060
-631,780	800,000	-0,013	0,030
-630,765	38,282	-0,039	-0,026
-629,751	256,171	0,032	0,040
-628,736	-200,000	0,011	-0,137
-627,722	-200,000	0,009	-0,088
-626,707	487,671	0,024	0,041
-625,692	-200,000	0,015	0,107
-624,678	67,926	0,045	-0,033
-623,663	-200,000	-0,017	0,058
-622,649	-130,786	-0,097	-0,009
-621,634	-200,000	-0,005	-0,031
-620,619	-78,268	-0,057	0,014
-619,605	-200,000	-0,000	-0,055
-618,590	411,812	0,049	0,076
-617,576	166,816	0,045	0,047
-616,561	-54,623	0,061	-0,020
-615,546	621,541	-0,085	-0,157
-614,532	-200,000	-0,031	-0,108
-613,517	-69,981	-0,120	0,033
-612,503	70,001	0,163	0,124
-611,488	84,047	0,025	0,020
-610,474	365,458	-0,096	0,142
-609,459	133,352	0,081	0,076
-608,444	263,973	-0,109	0,139
-607,430	-120,722	-0,080	0,010
-606,415	-200,000	0,034	-0,132
-605,401	-12,212	-0,087	0,042
-604,386	-200,000	-0,005	0,032
-603,371	26,571	0,090	0,055
-602,357	-116,528	0,131	-0,018
-601,342	-14,782	-0,091	0,043
-600,328	76,421	-0,149	0,115
-599,313	9,778	0,028	-0,015
-598,298	473,434	-0,076	-0,127
-597,284	-200,000	0,023	0,106
-596,269	111,746	-0,074	0,066
-595,255	-200,000	0,035	0,123
-594,240	-165,074	0,223	0,007
-593,225	-200,000	0,010	-0,124
-592,211	-200,000	0,003	-0,110
-591,196	28,062	0,105	0,065
-590,182	525,714	-0,029	-0,049
-589,167	-200,000	0,004	0,241
-588,152	-79,883	-0,024	0,006
-587,138	138,559	0,051	0,049
-586,123	110,020	0,058	0,051
-585,109	-200,000	-0,005	-0,033
-584,094	800,000	0,008	-0,019
-583,079	-46,111	0,053	0,019
-582,065	-200,000	0,020	0,102
-581,050	-200,000	0,013	0,056
-580,036	154,276	0,033	-0,033
-579,021	-200,000	-0,007	-0,044
-578,006	-200,000	0,009	-0,032
-576,992	-200,000	0,002	0,021
-575,977	67,622	-0,142	-0,106
-574,963	260,771	0,036	0,046
-573,948	-200,000	-0,001	-0,037
-572,934	-200,000	0,031	-0,164
-571,919	800,000	0,018	-0,054
-570,904	-116,711	-0,130	0,017
-569,890	-200,000	-0,001	-0,163
-568,875	800,000	-0,020	0,061
-567,861	725,742	0,046	-0,090
-566,846	-200,000	-0,039	0,135
-565,831	115,112	0,021	-0,018
-564,817	115,052	0,032	-0,029
-563,802	-89,628	-0,059	-0,013
-562,788	-99,373	-0,115	-0,021
-561,773	-70,124	0,100	0,028
-560,758	120,136	0,144	0,131
-559,744	-79,837	0,098	0,024
-558,729	31,290	-0,098	-0,062
-557,715	-108,209	-0,150	-0,024
-556,700	-200,000	-0,013	-0,079
-555,685	-88,738	0,065	0,014
-554,671	202,286	0,110	0,124
-553,656	-200,000	-0,023	0,101
-552,642	136,847	-0,040	-0,038
-551,627	165,866	-0,014	-0,014
-550,612	800,000	-0,002	0,004
-549,598	800,000	-0,020	0,047
-548,583	-24,625	0,073	-0,032
-547,569	-139,294	-0,039	0,003
-546,554	-186,806	0,104	-0,001
-545,539	-74,032	0,029	-0,008
-544,525	800,000	0,042	0,121
-543,510	-43,215	-0,088	0,032
-542,496	-8,880	-0,095	-0,046
-541,481	-121,779	0,015	0,002
-540,466	-69,585	0,027	0,007
-539,452	-121,781	0,053	0,006
-538,437	-64,679	0,068	-0,020
-537,423	-130,123	0,046	0,005
-536,408	515,299	-0,041	-0,070
-535,393	366,560	0,032	0,048
-534,379	176,538	-0,079	0,084
-533,364	149,189	-0,113	0,112
-532,350	-6,478	0,077	-0,038
-531,335	-76,985	-0,114	0,029
-530,321	800,000	0,030	-0,096
-529,306	51,901	0,019	0,013
-528,291	-75,624	-0,122	0,031
-527,277	800,000	0,074	-0,182
-526,262	-200,000	-0,006	-0,040
-525,248	-148,182	0,123	0,007
-524,233	-76,241	-0,114	0,029
-523,218	-200,000	0,022	-0,072
-522,204	-200,000	0,012	-0,154
-521,189	-79,405	-0,098	-0,024
-520,175	53,694	0,033	-0,023
-519,160	-200,000	-0,011	0,153
-518,145	-127,909	0,125	-0,013
-517,131	-200,000	0,006	0,034
-516,116	347,046	0,056	0,080
-515,102	337,873	0,026	-0,037
-514,087	28,098	-0,104	-0,064
-513,072	30,618	-0,087	0,054
-512,058	-200,000	0,003	-0,026
-511,043	71,689	0,053	0,040
-510,029	-200,000	0,004	0,043
-509,014	513,364	0,022	-0,038
-507,999	800,000	0,010	-0,029
-506,985	278,785	-0,041	-0,053
-505,970	-200,000	-0,005	-0,166
-504,956	-89,791	-0,117	-0,025
-503,941	69,302	-0,027	0,020
-502,926	304,508	-0,047	-0,064
-501,912	-200,000	0,027	-0,104
-500,897	671,558	-0,036	0,068
-499,883	-24,719	-0,067	-0,029
-498,868	-200,000	-0,003	-0,136
-497,853	-200,000	0,018	0,093
-496,839	-200,000	-0,037	0,142
-495,824	100,749	0,155	0,132
-494,810	285,640	0,058	0,076
-493,795	-200,000	0,017	0,149
-492,781	113,754	0,054	-0,048
-491,766	139,427	-0,130	-0,125
-490,751	-110,222	0,058	0,009
-489,737	-200,000	-0,018	0,095
-488,722	45,006	0,055	-0,037
-487,708	800,000	0,008	-0,017
-486,693	-200,000	0,078	0,000
-485,678	-200,000	0,011	-0,069
-484,664	35,649	0,051	-0,033
-483,649	-200,000	0,019	-0,122
-482,635	-200,000	0,017	0,061
-481,620	11,051	0,086	0,048
-480,605	20,759	-0,026	-0,016
-479,591	79,356	0,079	0,062
-478,576	-200,000	0,021	0,144
-477,562	-200,000	0,002	-0,105
-476,547	283,677	-0,025	0,033
-475,532	255,334	0,053	-0,067
-474,518	-105,448	0,120	0,020
-473,503	-83,576	-0,152	0,035
-472,489	-94,887	0,132	0,026
-471,474	-166,257	-0,031	-0,001
-470,459	-200,000	0,011	-0,092
-469,445	315,948	-0,041	0,056
-468,430	-41,417	-0,109	-0,041
-467,416	-176,733	-0,087	-0,002
-466,401	465,566	-0,046	0,076
-465,386	-200,000	-0,004	-0,088
-464,372	800,000	0,051	-0,111
-463,357	-68,331	-0,103	0,029
-462,343	55,402	-0,070	-0,049
-461,328	54,751	0,043	0,030
-460,313	-89,354	-0,059	-0,013
-459,299	305,167	0,054	0,074
-458,284	163,673	0,072	0,074
-457,270	-200,000	0,001	-0,038
-456,255	800,000	0,031	-0,086
-455,241	-200,000	-0,030	-0,153
-454,226	-85,507	-0,178	-0,040
-453,211	13,328	0,070	-0,039
-452,197	-200,000	0,007	-0,038
-451,182	147,957	0,050	0,049
-450,168	-25,728	0,100	0,043
-449,153	-57,534	0,065	-0,021
-448,138	356,132	0,045	-0,065
-447,124	-200,000	0,028	-0,095
-446,109	-200,000	0,025	0,141
-445,095	-124,497	0,054	0,006
-444,080	173,105	0,037	0,039
-443,065	702,856	-0,006	0,012
-442,051	-200,000	-0,010	-0,086
-441,036	-200,000	0,010	-0,109
-440,022	-200,000	0,026	0,121
-439,007	-70,670	0,049	-0,013
-437,992	-200,000	-0,012	0,046
-436,978	-200,000	-0,007	0,030
-435,963	480,369	-0,081	0,133
-434,949	64,596	-0,043	0,032
-433,934	38,307	-0,052	-0,033
-432,919	185,178	0,020	0,022
-431,905	31,333	0,027	-0,017
-430,890	-200,000	0,003	0,076
-429,876	168,367	0,096	0,099
-428,861	-102,906	0,017	0,003
-427,846	-68,640	-0,115	-0,032
-426,832	298,262	-0,011	-0,015
-425,817	201,040	-0,147	0,165
-424,803	237,926	-0,048	0,058
-423,788	800,000	-0,010	-0,025
-422,773	-200,000	-0,013	-0,075
-421,759	800,000	-0,082	-0,182
-420,744	800,000	-0,016	-0,039
-419,730	-200,000	0,015	-0,058
-418,715	318,282	0,075	-0,104
-417,701	-164,451	0,010	0,000
-416,686	72,558	0,090	0,068
-415,671	-130,232	0,114	-0,011
-414,657	-181,642	-0,098	0,001
-413,642	484,053	0,033	-0,056
-412,628	-31,853	-0,153	-0,062
-411,613	65,427	-0,138	0,102
-410,598	-56,323	-0,069	-0,022
-409,584	800,000	-0,021	-0,059
-408,569	-200,000	-0,009	0,115
-407,555	-200,000	-0,028	0,239
-406,540	135,424	-0,027	-0,025
-405,525	212,711	-0,077	0,088
-404,511	-200,000	-0,005	0,030
-403,496	-200,000	0,002	-0,041
-402,482	-200,000	0,025	0,093
-401,467	-106,915	0,055	0,009
-400,452	800,000	0,033	0,068
-399,438	165,159	0,034	-0,035
-398,423	271,541	-0,044	0,056
-397,409	-200,000	-0,028	-0,115
-396,394	800,000	-0,020	-0,046
-395,379	562,452	0,037	-0,066
-394,365	800,000	0,062	-0,150
-393,350	-49,844	0,004	0,001
-392,336	-200,000	-0,006	0,109
-391,321	387,644	-0,069	0,104
-390,306	-6,249	-0,087	0,043
-389,292	-16,713	0,017	-0,008
-388,277	-200,000	0,006	0,113
-387,263	376,180	-0,041	-0,061
-386,248	-200,000	-0,032	0,185
-385,233	41,178	0,050	-0,033
-384,219	503,450	0,034	-0,058
-383,204	-81,988	-0,115	-0,027
-382,190	163,905	-0,062	0,063
-381,175	-45,002	0,036	0,013
-380,160	-69,894	-0,155	-0,043
-379,146	800,000	-0,042	0,133
-378,131	-154,672	0,101	0,005
-377,117	23,504	-0,042	0,025
-376,102	-130,040	-0,057	0,006
-375,088	75,263	-0,022	-0,017
-374,073	-44,135	0,117	-0,042
-373,058	-158,319	0,213	0,009
-372,044	719,657	-0,047	0,091
-371,029	165,108	0,088	-0,090
-370,015	-200,000	-0,029	-0,101
-369,000	-111,983	-0,059	0,009
-367,985	258,832	0,030	-0,038
-366,971	800,000	-0,023	0,060
-365,956	-200,000	0,015	0,116
-364,942	91,087	0,016	-0,013
-363,927	800,000	-0,008	-0,019
-362,912	-46,535	-0,126	0,045
-361,898	130,185	0,020	0,018
-360,883	488,564	0,026	0,043
-359,869	353,472	0,003	0,004
-358,854	26,025	0,091	0,055
-357,839	-200,000	0,004	0,062
-356,825	51,721	-0,084	0,058
-355,810	90,012	-0,073	0,059
-354,796	62,463	-0,048	-0,035
-353,781	109,645	0,076	0,066
-352,766	800,000	-0,022	0,068
-351,752	800,000	0,023	-0,058
-350,737	42,454	0,117	0,077
-349,723	-25,991	-0,089	-0,038
-348,708	256,505	0,067	0,083
-347,693	-5,107	0,070	-0,035
-346,679	35,942	-0,085	-0,054
-345,664	123,777	-0,023	-0,021
-344,650	42,095	0,072	0,047
-343,635	-200,000	-0,002	0,095
-342,620	245,600	0,035	-0,042
-341,606	298,278	0,017	-0,023
-340,591	392,201	0,008	-0,013
-339,577	-71,811	-0,101	0,027
-338,562	0,264	0,128	-0,066
-337,548	181,018	-0,019	0,020
-336,533	156,384	0,146	0,147
-335,518	-27,717	0,117	-0,049
-334,504	-13,719	-0,035	0,016
-333,489	-47,970	0,050	-0,017
-332,475	-200,000	0,009	-0,110
-331,460	-43,739	-0,107	0,039
-330,445	-84,122	-0,037	-0,009
-329,431	-200,000	0,046	0,161
-328,416	-16,346	0,162	-0,074
-327,402	-4,874	0,064	0,032
-326,387	-86,060	-0,105	-0,023
-325,372	-200,000	-0,021	0,146
-324,358	-200,000	-0,006	0,107
-323,343	-105,981	-0,100	0,016
-322,329	-200,000	-0,013	-0,144
-321,314	-79,927	0,071	-0,017
-320,299	647,573	0,022	0,040
-319,285	-62,859	-0,061	0,018
-318,270	25,259	-0,026	-0,016
-317,256	-76,426	-0,058	-0,015
-316,241	-200,000	0,002	-0,081
-315,226	98,563	0,048	0,040
-314,212	-130,414	-0,126	-0,012
-313,197	535,745	0,026	-0,046
-312,183	-102,602	-0,083	0,014
-311,168	-43,127	-0,068	-0,025
-310,153	-200,000	-0,029	-0,109
-309,139	-43,871	0,090	0,033
-308,124	106,918	0,073	0,063
-307,110	-166,078	0,030	0,001
-306,095	-24,344	0,111	-0,048
-305,080	557,351	-0,088	-0,154
-304,066	64,897	-0,114	-0,083
-303,051	-200,000	0,016	-0,142
-302,037	800,000	-0,042	-0,125
-301,022	-176,804	0,118	-0,002
-300,008	800,000	0,012	0,030
-298,993	-69,935	0,112	-0,031
-297,978	238,578	-0,069	0,084
-296,964	-21,590	0,145	0,064
-295,949	-200,000	-0,016	-0,105
-294,935	-200,000	-0,007	-0,127
-293,920	-62,053	0,129	0,039
-292,905	-200,000	-0,027	-0,092
-291,891	-117,324	0,115	0,015
-290,876	-200,000	0,012	0,118
-289,862	-200,000	0,030	-0,105
-288,847	-64,163	-0,224	-0,066
-287,832	-200,000	-0,000	0,066
-286,818	-143,478	0,096	0,007
-285,803	800,000	0,027	0,083
-284,789	305,475	0,011	-0,015
-283,774	161,741	-0,035	-0,035
-282,759	-170,109	0,092	0,002
-281,745	364,531	-0,076	0,111
-280,730	-96,338	0,113	0,021
-279,716	800,000	0,031	-0,081
-278,701	264,096	0,075	0,094
-277,686	313,218	0,047	0,064
-276,672	-27,612	-0,010	-0,004
-275,657	800,000	-0,061	0,133
-274,643	-200,000	0,005	-0,066
-273,628	-200,000	0,025	0,110
-272,613	800,000	0,025	-0,063
-271,599	-177,653	0,127	-0,002
-270,584	800,000	0,143	-0,300
-269,570	800,000	-0,042	-0,127
-268,555	41,532	-0,078	-0,051
-267,540	-200,000	-0,012	-0,062
-266,526	-144,037	0,122	0,008
-265,511	800,000	-0,025	-0,051
-264,497	-200,000	0,004	0,017
-263,482	-75,860	0,138	-0,035
-262,467	-14,506	0,034	-0,016
-261,453	602,586	-0,064	0,116
-260,438	202,728	0,011	-0,013
-259,424	91,778	-0,141	-0,115
-258,409	-168,806	0,039	-0,001
-257,395	-200,000	0,012	0,058
-256,380	-200,000	0,023	0,091
-255,365	-200,000	-0,006	0,061
-254,351	271,821	-0,090	-0,115
-253,336	295,375	0,034	-0,045
-252,322	-200,000	-0,003	-0,030
-251,307	-200,000	-0,009	-0,045
-250,292	259,803	-0,062	-0,078
-249,278	800,000	-0,034	0,089
-248,263	-200,000	-0,040	0,219
-247,249	-126,280	0,066	0,007
-246,234	303,776	-0,095	-0,128
-245,219	-200,000	-0,009	-0,080
-244,205	-200,000	-0,009	0,039
-243,190	800,000	-0,012	-0,027
-242,176	-200,000	-0,008	-0,080
-241,161	-200,000	-0,014	-0,121
-240,146	635,072	0,024	-0,045
-239,132	800,000	-0,032	-0,096
-238,117	94,199	-0,121	-0,099
-237,103	-42,952	-0,080	0,029
-236,088	-149,396	0,062	0,004
-235,073	-103,671	0,039	-0,007
-234,059	-110,682	0,133	0,020
-233,044	55,823	-0,108	-0,075
-232,030	32,271	-0,016	0,010
-231,015	473,842	0,022	-0,037
-230,000	-34,759	-0,050	0,020
-228,986	54,753	0,114	-0,079
-227,971	-200,000	-0,016	0,122
-226,957	-139,068	0,133	0,010
-225,942	-56,050	0,037	0,012
-224,927	283,648	0,103	-0,133
-223,913	296,238	0,040	-0,053
-222,898	-140,698	-0,053	0,004
-221,884	60,890	0,097	0,070
-220,869	404,711	-0,024	0,037
-219,855	72,809	0,070	0,053
-218,840	258,321	0,076	0,094
-217,825	53,324	-0,087	0,060
-216,811	503,667	0,034	-0,057
-215,796	116,204	-0,089	0,079
-214,782	131,855	-0,119	0,110
-213,767	-200,000	0,018	0,099
-212,752	10,383	0,130	-0,071
-211,738	-167,110	-0,171	-0,005
-210,723	315,790	-0,051	0,070
-209,709	-6,342	0,083	0,041
-208,694	800,000	-0,033	-0,088
-207,679	-200,000	0,010	-0,089
-206,665	-168,917	0,106	-0,003
-205,650	-111,447	0,107	-0,016
-204,636	56,580	0,102	-0,071
-203,621	-200,000	0,023	-0,075
-202,606	189,242	-0,102	-0,110
-201,592	312,801	-0,096	0,130
-200,577	354,185	0,037	-0,053
-199,563	23,497	-0,079	0,047
-198,548	800,000	0,038	0,103
-197,533	159,270	0,084	0,085
-196,519	-96,653	0,075	-0,014
-195,504	189,347	-0,062	0,068
-194,490	-200,000	0,029	-0,093
-193,475	279,517	0,100	-0,130
-192,460	71,129	0,035	-0,026
-191,446	344,368	0,092	-0,130
-190,431	-0,295	-0,033	-0,017
-189,417	-32,798	-0,152	-0,061
-188,402	-200,000	0,014	-0,061
-187,387	259,236	-0,059	0,073
-186,373	-19,067	0,100	0,045
-185,358	800,000	-0,023	0,065
-184,344	-200,000	-0,007	0,052
-183,329	21,008	0,081	0,047
-182,315	-6,113	0,046	0,022
-181,300	-130,816	-0,093	0,009
-180,285	683,541	-0,031	-0,059
-179,271	41,250	0,064	-0,042
-178,256	335,631	-0,031	-0,043
-177,242	-198,863	-0,097	0,000
-176,227	164,315	-0,047	0,048
-175,212	322,773	-0,082	0,113
-174,198	9,293	-0,172	0,093
-173,183	800,000	-0,085	-0,187
-172,169	359,201	-0,056	-0,082
-171,154	567,613	0,051	-0,090
-170,139	-200,000	-0,000	0,092
-169,125	800,000	0,016	-0,045
-168,110	-200,000	0,028	0,091
-167,096	-116,580	0,075	-0,010
-166,081	-107,074	-0,108	0,017
-165,066	309,956	0,073	-0,099
-164,052	-68,573	0,055	-0,015
-163,037	169,756	-0,049	-0,050
-162,023	261,986	-0,068	0,085
-161,008	-163,045	-0,106	0,004
-159,993	217,625	-0,075	0,086
-158,979	-128,548	-0,081	0,008
-157,964	-200,000	0,015	0,142
-156,950	-200,000	0,016	-0,171
-155,935	-200,000	-0,005	0,036
-154,920	-200,000	0,008	-0,056
-153,906	126,399	0,094	-0,086
-152,891	-126,066	-0,088	-0,009
-151,877	25,156	0,086	0,051
-150,862	150,070	-0,045	0,044
-149,847	-200,000	-0,004	0,046
-148,833	346,728	0,022	0,032
-147,818	20,454	-0,025	0,014
-146,804	800,000	0,029	0,083
-145,789	-200,000	-0,017	-0,057
-144,775	-64,920	-0,128	0,037
-143,760	-122,221	-0,056	0,006
-142,745	540,067	0,069	-0,119
-141,731	-78,269	0,046	-0,011
-140,716	-200,000	0,037	-0,182
-139,702	13,567	-0,022	0,012
-138,687	9,776	0,067	0,036
-137,672	466,332	0,028	0,045
-136,658	-74,692	-0,098	0,025
-135,643	-200,000	-0,022	0,089
-134,629	334,211	-0,029	0,041
-133,614	304,340	-0,057	0,077
-132,599	231,759	-0,082	0,096
-131,585	6,939	0,067	-0,036
-130,570	-52,910	-0,073	-0,024
-129,556	-200,000	-0,008	-0,154
-128,541	800,000	-0,036	-0,113
-127,526	800,000	-0,024	-0,055
-126,512	63,035	0,126	0,091
-125,497	800,000	0,035	0,088
-124,483	60,468	-0,083	0,059
-123,468	58,832	0,092	0,065
-122,453	11,824	-0,120	0,066
-121,439	213,998	-0,024	-0,027
-120,424	8,594	0,072	-0,039
-119,410	800,000	0,049	-0,101
-118,395	800,000	0,058	0,125
-117,380	72,250	0,095	0,071
-116,366	-70,477	0,045	-0,012
-115,351	321,999	-0,022	-0,030
-114,337	-200,000	0,010	0,054
-113,322	161,426	0,094	-0,094
-112,307	230,128	-0,072	0,085
-111,293	800,000	0,074	0,159
-110,278	210,399	-0,037	-0,042
-109,264	800,000	0,031	-0,064
-108,249	379,344	0,102	-0,151
-107,234	-30,881	-0,061	0,025
-106,220	181,923	0,118	-0,125
-105,205	89,084	0,090	-0,072
-104,191	167,550	-0,032	0,033
-103,176	259,350	0,100	0,125
-102,162	-114,344	0,122	0,017
-101,147	-200,000	0,011	-0,072
-100,132	-70,887	0,056	0,015
-99,118	93,301	-0,145	-0,118
-98,103	-155,065	0,083	-0,004
-97,089	475,349	-0,063	0,103
-96,074	418,525	0,064	0,098
-95,059	-200,000	0,006	0,065
-94,045	140,883	-0,018	-0,017
-93,030	180,053	-0,071	-0,074
-92,016	57,372	-0,123	-0,086
-91,001	-153,283	0,022	0,001
-89,986	-140,794	0,058	0,004
-88,972	94,183	0,038	-0,031
-87,957	-200,000	-0,002	-0,080
-86,943	-136,471	-0,075	-0,006
-85,928	486,732	0,071	-0,117
-84,913	-200,000	0,000	-0,059
-83,899	800,000	0,007	0,020
-82,884	-200,000	0,000	0,105
-81,870	103,361	0,105	-0,088
-80,855	800,000	-0,084	0,181
-79,840	800,000	-0,014	-0,028
-78,826	759,994	0,029	-0,056
-77,811	-97,243	-0,074	-0,014
-76,797	8,275	-0,055	-0,030
-75,782	212,157	0,056	0,064
-74,767	-64,758	0,078	-0,022
-73,753	-95,147	0,057	-0,011
-72,738	800,000	0,077	0,200
-71,724	62,463	-0,105	-0,075
-70,709	-194,031	0,096	-0,001
-69,694	-200,000	-0,014	-0,064
-68,680	344,720	0,060	0,084
-67,665	-200,000	0,000	0,046
-66,651	-200,000	0,011	0,127
-65,636	-70,620	-0,017	0,004
-64,622	-9,177	-0,102	-0,049
-63,607	437,509	-0,075	0,117
-62,592	166,711	-0,112	0,115
-61,578	-200,000	0,004	0,027
-60,563	-66,388	0,127	0,036
-59,549	-200,000	-0,034	0,132
-58,534	10,709	-2,264	-1,236
-57,519	800,000	-0,231	-0,726
-56,505	-200,000	-1,319	-5,066
-55,490	71,457	0,980	0,729
-54,476	800,000	5,351	12,064
-53,461	-200,000	18,693	312,364
-52,446	800,000	740,215	2320,364
-51,432	555,068	1656,920	2872,103
-50,417	110,729	1640,801	1415,623
-49,403	74,997	1290,453	974,214
-48,388	30,557	1031,304	631,193
-47,373	20,047	993,804	573,416
-46,359	17,730	981,400	558,610
-45,344	14,416	977,587	545,522
-44,330	14,687	976,132	545,580
-43,315	14,048	974,242	542,405
-42,300	14,004	973,303	541,715
-41,286	13,983	972,275	541,052
-40,271	13,979	971,251	540,448
-39,257	14,004	970,465	540,073
-38,242	14,039	969,416	539,580
-37,227	14,028	968,660	539,104
-36,213	13,998	967,675	538,434
-35,198	14,040	966,763	538,044
-34,184	14,094	966,002	537,774
-33,169	13,980	965,133	536,900
-32,154	14,001	964,446	536,564
-31,140	14,076	963,308	536,151
-30,125	14,086	962,560	535,748
-29,111	13,997	961,834	535,034
-28,096	14,047	961,196	534,820
-27,082	14,036	960,579	534,418
-26,067	14,025	959,616	533,825
-25,052	14,029	958,938	533,439
-24,038	14,112	958,137	533,243
-23,023	14,051	957,601	532,726
-22,009	14,010	956,997	532,236
-20,994	14,063	956,282	531,989
-19,979	13,995	955,787	531,472
-18,965	14,007	955,019	531,062
-17,950	13,989	954,450	530,667
-16,936	13,974	953,990	530,342
-15,921	13,996	953,226	529,969
-14,906	13,961	952,506	529,433
-13,892	13,909	951,703	528,799
-12,877	13,887	951,185	528,422
-11,863	13,892	950,489	528,030
-10,848	13,950	949,933	527,884
-9,833	14,004	949,291	527,680
-8,819	13,965	948,668	527,189
-7,804	13,930	948,218	526,805
-6,790	13,910	947,657	526,408
-5,775	13,963	947,158	526,279
-4,760	13,926	946,489	525,770
-3,746	13,928	945,864	525,407
-2,731	13,840	945,097	524,681
-1,717	13,811	944,336	524,146
-0,702	13,744	943,777	523,603
0,313	13,569	943,161	523,495
1,327	16,802	940,876	532,415
2,342	25,515	795,671	473,398
3,356	21,237	460,163	267,188
4,371	-6,015	317,233	154,923
5,386	-10,302	299,049	141,647
6,400	-12,426	292,861	136,574
7,415	-12,535	290,543	135,372
8,429	-12,207	289,070	134,999
9,444	-12,453	288,161	134,319
10,459	-12,250	287,413	134,159
11,473	-12,384	286,875	133,764
12,488	-12,404	286,404	133,513
13,502	-12,511	285,940	133,180
14,517	-12,323	285,773	133,274
15,531	-11,901	285,281	133,444
16,546	-11,738	284,875	133,402
17,561	-11,762	284,609	133,242
18,575	-11,749	284,259	133,079
19,590	-11,667	283,759	132,912
20,604	-11,526	283,582	132,955
21,619	-11,814	283,373	132,565
22,634	-11,662	282,843	132,452
23,648	-11,822	282,556	132,152
24,663	-11,620	282,264	132,198
25,677	-11,658	281,965	132,010
26,692	-11,631	281,610	131,858
27,707	-11,700	281,406	131,684
28,721	-11,885	281,237	131,415
29,736	-11,667	281,018	131,511
30,750	-11,563	280,586	131,397
31,765	-11,717	280,452	131,175
32,780	-11,846	280,144	130,895
33,794	-11,779	279,922	130,844
34,809	-11,832	279,695	130,676
35,823	-11,928	279,521	130,491
36,838	-11,799	279,036	130,376
37,853	-11,851	278,881	130,243
38,867	-11,829	278,492	130,070
39,882	-11,743	278,363	130,080
40,896	-11,813	278,124	129,891
41,911	-11,711	277,792	129,821
42,926	-11,742	277,579	129,680
43,940	-11,724	277,353	129,580
44,955	-11,929	277,057	129,236
45,969	-11,864	276,916	129,221
46,984	-11,939	276,652	129,014
47,999	-11,865	276,372	128,942
49,013	-12,021	276,219	128,712
50,028	-11,944	275,911	128,630
51,042	-12,048	275,655	128,401
52,057	-12,154	275,424	128,183
53,071	-12,211	275,354	128,086
54,086	-12,107	274,980	127,998
55,101	-12,051	274,863	127,984
56,115	-11,929	274,754	128,036
57,130	-11,956	274,454	127,860
58,144	-11,865	274,232	127,830
59,159	-11,770	273,849	127,729
60,174	-11,937	273,798	127,538
61,188	-11,783	273,392	127,481
62,203	-11,824	273,361	127,417
63,217	-11,700	273,076	127,388
64,232	-11,768	272,822	127,195
65,247	-11,887	272,594	126,966
66,261	-11,909	272,333	126,814
67,276	-11,879	271,954	126,654
68,290	-12,023	271,837	126,454
69,305	-12,107	271,458	126,189
70,320	-11,994	271,532	126,317
71,334	-11,928	271,309	126,262
72,349	-11,797	270,836	126,152
73,363	-11,789	270,685	126,078
74,378	-11,856	270,475	125,907
75,393	-11,711	270,184	125,893
76,407	-11,856	270,191	125,752
77,422	-11,715	269,900	125,736
78,436	-11,851	269,598	125,458
79,451	-11,922	269,383	125,282
80,466	-11,734	269,212	125,364
81,480	-11,881	269,022	125,130
82,495	-11,874	268,889	125,062
83,509	-11,884	268,579	124,898
84,524	-11,978	268,487	124,758
85,539	-11,846	268,185	124,728
86,553	-11,906	267,937	124,547
87,568	-12,040	267,814	124,356
88,582	-11,869	267,439	124,327
89,597	-11,941	267,295	124,183
90,611	-11,912	267,109	124,112
91,626	-11,798	266,957	124,134
92,641	-11,873	266,792	123,978
93,655	-11,904	266,456	123,783
94,670	-11,842	266,252	123,733
95,684	-11,937	266,055	123,545
96,699	-12,049	265,884	123,353
97,714	-11,942	265,745	123,374
98,728	-11,857	265,442	123,299
99,743	-12,126	265,266	122,964
100,757	-12,063	265,143	122,953
101,772	-11,709	264,819	123,109
102,787	-11,880	264,620	122,852
103,801	-11,964	264,395	122,662
104,816	-11,981	264,303	122,593
105,830	-11,817	264,128	122,648
106,845	-12,046	264,054	122,397
107,860	-11,979	263,533	122,205
108,874	-12,108	263,412	122,023
109,889	-12,066	263,170	121,937
110,903	-12,084	262,995	121,829
111,918	-12,248	262,832	121,596
112,933	-12,038	262,567	121,650
113,947	-11,800	262,376	121,762
114,962	-12,023	262,316	121,525
115,976	-11,943	262,099	121,485
116,991	-12,059	261,941	121,298
118,006	-12,164	261,768	121,114
119,020	-11,791	261,445	121,285
120,035	-12,019	261,395	121,049
121,049	-11,943	261,215	121,021
122,064	-12,000	260,868	120,800
123,079	-12,013	260,795	120,743
124,093	-12,028	260,573	120,617
125,108	-12,037	260,204	120,427
126,122	-12,011	260,311	120,489
127,137	-11,905	259,921	120,391
128,151	-12,009	259,757	120,212
129,166	-12,165	259,526	119,958
130,181	-11,937	259,336	120,060
131,195	-12,100	259,230	119,857
132,210	-12,080	258,853	119,690
133,224	-12,010	258,723	119,680
134,239	-12,124	258,630	119,526
135,254	-12,065	258,283	119,407
136,268	-12,077	258,098	119,300
137,283	-12,247	258,081	119,133
138,297	-12,041	257,814	119,179
139,312	-12,205	257,415	118,842
140,327	-12,086	257,401	118,928
141,341	-11,668	257,189	119,183
142,356	-11,870	256,944	118,883
143,370	-11,880	256,773	118,784
144,385	-11,754	256,564	118,787
145,400	-11,725	256,665	118,848
146,414	-11,742	256,453	118,725
147,429	-11,769	256,137	118,544
148,443	-11,840	255,856	118,343
149,458	-11,948	255,803	118,214
150,473	-11,845	255,593	118,196
151,487	-12,010	255,400	117,952
152,502	-11,983	255,353	117,944
153,516	-11,784	255,072	117,975
154,531	-11,672	254,822	117,946
155,546	-11,906	254,607	117,634
156,560	-11,906	254,429	117,542
157,575	-11,980	254,237	117,379
158,589	-12,026	253,865	117,157
159,604	-11,803	253,884	117,346
160,619	-11,580	253,814	117,496
161,633	-11,798	253,731	117,260
162,648	-11,740	253,385	117,138
163,662	-11,669	253,203	117,105
164,677	-11,767	253,071	116,949
165,692	-11,694	252,794	116,873
166,706	-11,589	252,756	116,935
167,721	-11,478	252,678	116,983
168,735	-11,682	252,410	116,675
169,750	-11,819	252,147	116,426
170,764	-12,024	252,168	116,251
171,779	-11,898	251,979	116,261
172,794	-11,865	251,793	116,193
173,808	-11,817	251,606	116,137
174,823	-12,078	251,139	115,689
175,837	-12,216	251,137	115,561
176,852	-12,206	250,933	115,466
177,867	-11,842	250,856	115,728
178,881	-11,843	250,608	115,602
179,896	-11,814	250,552	115,590
180,910	-11,756	250,316	115,521
181,925	-11,795	250,077	115,367
182,940	-11,909	249,991	115,221
183,954	-11,824	249,670	115,134
184,969	-11,717	249,625	115,194
185,983	-11,765	249,494	115,082
186,998	-11,594	249,423	115,183
188,013	-11,800	249,229	114,910
189,027	-11,728	249,037	114,872
190,042	-11,744	248,622	114,656
191,056	-11,974	248,465	114,382
192,071	-12,045	248,274	114,224
193,086	-12,378	248,141	113,875
194,100	-12,166	247,869	113,916
195,115	-11,797	247,840	114,201
196,129	-11,794	247,556	114,062
197,144	-12,109	247,265	113,656
198,159	-12,183	247,265	113,584
199,173	-11,930	246,993	113,659
200,188	-12,219	246,524	113,194
201,202	-12,437	246,391	112,942
202,217	-12,390	246,289	112,924
203,232	-12,102	246,186	113,105
204,246	-12,611	245,915	112,549
205,261	-13,716	245,255	111,325
206,275	-13,689	245,166	111,297
207,290	-9,784	246,800	115,271
208,304	-2,073	249,135	122,796
209,319	2,191	250,581	127,071
210,334	3,106	250,652	127,861
211,348	3,601	250,578	128,225
212,363	3,930	250,472	128,434
213,377	4,174	250,521	128,652
214,392	4,305	250,344	128,658
215,407	4,218	250,281	128,543
216,421	4,344	249,937	128,459
217,436	4,149	249,856	128,244
218,450	4,252	249,700	128,238
219,465	4,257	249,533	128,145
220,480	4,051	249,342	127,864
221,494	3,907	249,182	127,651
222,509	3,524	248,946	127,202
223,523	3,245	248,731	126,849
224,538	3,257	248,459	126,709
225,553	3,112	248,174	126,433
226,567	2,778	247,970	126,041
227,582	3,172	247,809	126,273
228,596	2,945	247,690	126,014
229,611	2,881	247,434	125,820
230,626	3,001	247,348	125,864
231,640	3,014	247,073	125,724
232,655	3,109	246,926	125,716
233,669	3,077	246,788	125,608
234,684	3,031	246,621	125,474
235,699	3,231	246,547	125,590
236,713	3,066	246,475	125,406
237,728	3,262	246,318	125,476
238,742	3,006	246,093	125,140
239,757	2,967	245,910	125,004
240,772	3,047	245,632	124,917
241,786	2,834	245,637	124,734
242,801	2,925	245,368	124,661
243,815	2,871	245,212	124,526
244,830	2,875	245,080	124,451
245,844	2,984	245,089	124,534
246,859	3,102	244,807	124,475
247,874	2,947	244,678	124,273
248,888	3,242	244,403	124,361
249,903	3,292	244,382	124,380
250,917	3,479	244,113	124,384
251,932	3,480	244,142	124,388
252,947	3,353	243,806	124,103
253,961	3,098	243,656	123,809
254,976	2,938	243,690	123,686
255,990	3,144	243,442	123,715
257,005	3,218	243,341	123,714
258,020	3,306	243,039	123,620
259,034	3,051	243,059	123,413
260,049	3,223	242,714	123,366
261,063	2,991	242,575	123,097
262,078	2,943	242,471	122,995
263,093	3,341	242,234	123,183
264,107	3,194	242,047	122,960
265,122	2,958	241,921	122,695
266,136	3,264	241,878	122,908
267,151	3,261	241,636	122,772
268,166	3,152	241,509	122,608
269,180	3,051	241,242	122,381
270,195	3,110	241,085	122,338
271,209	3,167	240,995	122,326
272,224	2,953	240,963	122,128
273,239	3,094	240,699	122,097
274,253	3,218	240,523	122,095
275,268	3,374	240,544	122,220
276,282	3,001	240,131	121,702
277,297	3,177	239,932	121,730
278,312	3,066	239,918	121,624
279,326	2,986	239,859	121,519
280,341	3,028	239,651	121,436
281,355	3,194	239,518	121,490
282,370	3,193	239,423	121,430
283,384	3,042	239,292	121,234
284,399	3,266	238,857	121,180
285,414	2,923	238,804	120,870
286,428	2,847	238,784	120,789
287,443	3,052	238,455	120,774
288,457	3,212	238,353	120,838
289,472	3,121	238,232	120,694
290,487	2,950	238,061	120,461
291,501	2,943	237,892	120,360
292,516	2,988	237,710	120,293
293,530	2,890	237,650	120,174
294,545	3,202	237,515	120,341
295,560	3,040	237,325	120,107
296,574	3,000	237,168	119,985
297,589	3,001	237,122	119,952
298,603	3,020	236,935	119,862
299,618	3,022	236,760	119,764
300,633	3,073	236,495	119,658
301,647	3,311	236,524	119,849
302,662	3,214	236,345	119,672
303,676	3,223	236,185	119,587
304,691	3,321	236,012	119,566
305,706	3,358	235,785	119,469
306,720	3,251	235,801	119,383
307,735	3,186	235,583	119,211
308,749	3,263	235,542	119,239
309,764	2,971	235,415	118,937
310,779	3,131	234,919	118,800
311,793	2,926	234,789	118,565
312,808	2,938	234,723	118,530
313,822	3,110	234,660	118,621
314,837	3,389	234,493	118,743
315,852	3,208	234,424	118,557
316,866	3,442	234,234	118,632
317,881	3,129	234,079	118,301
318,895	3,297	233,953	118,356
319,910	3,356	233,857	118,343
320,925	3,142	233,655	118,065
321,939	3,086	233,346	117,854
322,954	3,257	233,384	117,995
323,968	3,011	233,234	117,719
324,983	2,814	233,149	117,514
325,997	3,227	232,812	117,651
327,012	3,199	232,759	117,592
328,027	3,226	232,551	117,498
329,041	3,443	232,431	117,593
330,056	3,294	232,313	117,409
331,070	3,430	232,213	117,452
332,085	3,244	231,947	117,164
333,100	3,194	231,687	116,984
334,114	3,238	231,537	116,932
335,129	3,259	231,363	116,850
336,143	3,126	231,376	116,744
337,158	3,156	231,268	116,702
338,173	3,159	231,156	116,638
339,187	3,142	230,935	116,503
340,202	3,249	230,861	116,537
341,216	3,279	230,670	116,452
342,231	3,373	230,432	116,393
343,246	3,172	230,253	116,140
344,260	3,251	230,182	116,154
345,275	3,346	230,213	116,231
346,289	3,218	230,023	116,028
347,304	3,176	229,839	115,892
348,319	3,330	229,580	115,868
349,333	3,012	229,486	115,571
350,348	3,274	229,217	115,622
351,362	3,059	229,194	115,438
352,377	3,045	229,016	115,328
353,392	2,950	228,768	115,121
354,406	3,241	228,582	115,236
355,421	194,352	1319,407	1391,667
356,435	155,833	1452,271	1391,635
