DTS Sentinel unit serial number:	SN410029Multiplexer serial number:	ORYXHardware model number:	OX2-SRSoftware version number:	ORYX F/W v4,00 Oryx Data Collector v3.7.2.0data status	okinstallation	B5 Nyhavnadifferential loss correction	single-endedforward channel	channel 2reverse channel	N/Adate	2023/12/11time	15:32:13forward acquisition time	300,00reverse acquisition time	0,00gamma	499,1914k internal	0,3166k external	0,3166temperature offset calibration	1,0000default loss term (dB/km)	0,3820temperature slope calibration	1,0000multiplexer offset coefficient	1,0000multiplexer slope coefficient	1,0000fibre end	0,00T internal ref (°C)	13,38T ext. ref 1 (°C)	-1,82T ext. ref 2 (°C)	-1,91length (m)	temperature (°C)	Stokes	anti-Stokes-744,400	-84,691	0,083	0,019
-743,385	-91,897	-0,319	-0,066
-742,371	232,558	0,125	0,152
-741,356	-105,970	-0,195	-0,032
-740,342	800,000	0,040	0,088
-739,327	-69,488	-0,225	-0,063
-738,312	-118,368	0,050	0,006
-737,298	-66,358	-0,398	-0,115
-736,283	-114,320	0,390	-0,055
-735,269	-84,676	-0,492	0,113
-734,254	-200,000	-0,006	0,068
-733,239	-78,589	-0,455	-0,113
-732,225	-70,845	0,019	0,005
-731,210	-71,305	0,050	0,014
-730,196	800,000	-0,039	-0,083
-729,181	66,744	-0,095	-0,071
-728,167	130,293	0,086	0,081
-727,152	135,206	-0,055	0,053
-726,137	-60,909	-0,069	0,021
-725,123	-1,665	-0,241	-0,125
-724,108	-200,000	-0,005	-0,096
-723,094	98,648	-0,034	-0,029
-722,079	-200,000	-0,024	-0,110
-721,064	19,618	0,063	-0,037
-720,050	15,046	0,040	0,023
-719,035	-73,147	-0,110	0,029
-718,021	94,540	-0,092	-0,077
-717,006	-18,406	-0,141	-0,064
-715,991	16,608	-0,060	-0,035
-714,977	-200,000	0,005	-0,077
-713,962	167,915	-0,077	0,081
-712,948	-200,000	0,009	0,123
-711,933	99,980	-0,134	0,114
-710,918	-200,000	-0,035	-0,113
-709,904	378,502	-0,070	0,106
-708,889	134,104	-0,083	-0,079
-707,875	-200,000	-0,009	-0,136
-706,860	-200,000	-0,031	-0,135
-705,845	155,628	0,093	-0,094
-704,831	-178,547	0,028	-0,000
-703,816	251,742	-0,078	-0,097
-702,802	48,655	0,144	-0,099
-701,787	121,771	-0,131	-0,120
-700,772	800,000	-0,041	-0,086
-699,758	-6,112	-0,064	-0,032
-698,743	-142,603	0,051	0,004
-697,729	800,000	-0,032	0,069
-696,714	-90,350	-0,087	0,018
-695,699	156,584	-0,058	0,059
-694,685	-200,000	0,012	-0,079
-693,670	19,384	-0,078	0,046
-692,656	-200,000	0,002	0,023
-691,641	-200,000	0,016	0,127
-690,627	-168,873	-0,043	0,001
-689,612	-20,516	-0,076	0,034
-688,597	-124,547	0,135	-0,015
-687,583	347,156	0,056	-0,081
-686,568	-94,726	0,024	0,005
-685,554	86,475	0,038	-0,031
-684,539	800,000	-0,020	-0,063
-683,524	40,247	0,082	0,054
-682,510	-1,211	-0,026	-0,014
-681,495	799,754	-0,053	0,108
-680,481	723,871	-0,107	-0,210
-679,466	800,000	-0,004	0,010
-678,451	-200,000	-0,033	-0,109
-677,437	-200,000	0,019	-0,077
-676,422	-65,522	0,036	-0,011
-675,408	800,000	0,051	0,138
-674,393	800,000	-0,057	-0,144
-673,378	498,996	-0,088	-0,150
-672,364	-102,557	-0,034	-0,006
-671,349	145,688	0,145	-0,142
-670,335	18,167	-0,080	-0,046
-669,320	46,375	-0,114	-0,078
-668,305	-200,000	-0,001	0,143
-667,291	261,682	-0,104	0,132
-666,276	-200,000	-0,005	-0,058
-665,262	617,489	0,024	0,044
-664,247	551,530	-0,064	0,112
-663,232	800,000	0,065	-0,158
-662,218	-64,099	0,058	0,017
-661,203	2,968	0,174	0,093
-660,189	-119,927	0,037	-0,005
-659,174	-200,000	-0,043	0,171
-658,159	-200,000	0,011	-0,155
-657,145	2,318	-0,062	-0,033
-656,130	38,203	-0,095	-0,062
-655,116	139,380	0,051	-0,049
-654,101	325,674	-0,015	-0,022
-653,086	-120,581	0,048	0,006
-652,072	258,461	0,050	-0,063
-651,057	280,559	-0,060	-0,079
-650,043	-78,720	-0,126	-0,031
-649,028	142,139	0,026	-0,025
-648,014	241,768	-0,059	0,072
-646,999	235,682	0,107	-0,130
-645,984	800,000	0,066	-0,151
-644,970	800,000	-0,031	-0,069
-643,955	320,631	-0,027	-0,037
-642,941	-200,000	-0,000	-0,050
-641,926	800,000	-0,015	-0,041
-640,911	84,630	-0,092	-0,074
-639,897	430,221	0,096	-0,153
-638,882	504,670	-0,034	0,058
-637,868	800,000	-0,025	-0,064
-636,853	64,948	-0,077	0,057
-635,838	-79,756	0,013	0,003
-634,824	741,238	-0,061	0,120
-633,809	-83,325	0,076	0,018
-632,795	-200,000	-0,034	-0,151
-631,780	-200,000	-0,006	0,102
-630,765	800,000	0,017	0,045
-629,751	-200,000	0,031	-0,121
-628,736	-6,741	0,113	0,056
-627,722	-200,000	-0,005	0,067
-626,707	-72,965	-0,045	-0,012
-625,692	800,000	-0,041	0,118
-624,678	-79,114	-0,109	-0,027
-623,663	713,671	0,033	-0,065
-622,649	-58,070	-0,143	-0,045
-621,634	478,695	-0,073	-0,122
-620,619	479,074	0,027	-0,045
-619,605	37,455	0,072	0,046
-618,590	-200,000	-0,014	0,052
-617,576	800,000	0,064	-0,145
-616,561	-200,000	0,035	0,191
-615,546	800,000	-0,039	-0,099
-614,532	800,000	-0,028	-0,079
-613,517	-200,000	0,018	-0,092
-612,503	-200,000	0,019	-0,103
-611,488	-34,932	-0,042	0,017
-610,474	81,506	0,084	-0,067
-609,459	-52,212	0,053	0,018
-608,444	184,125	-0,002	-0,002
-607,430	372,650	-0,064	-0,095
-606,415	180,228	0,147	0,158
-605,401	10,134	-0,109	-0,061
-604,386	282,904	-0,074	0,097
-603,371	-110,861	0,069	0,010
-602,357	-2,849	0,082	0,042
-601,342	27,348	-0,064	-0,039
-600,328	70,235	0,008	0,006
-599,313	-122,658	-0,059	0,007
-598,298	-200,000	-0,002	-0,079
-597,284	273,318	-0,035	0,046
-596,269	-72,517	0,013	-0,003
-595,255	195,010	0,076	-0,085
-594,240	-21,012	-0,072	-0,032
-593,225	-95,517	-0,082	0,016
-592,211	484,750	-0,062	-0,104
-591,196	-200,000	0,006	0,074
-590,182	-137,934	-0,083	0,007
-589,167	-56,469	-0,110	-0,035
-588,152	40,716	-0,160	-0,106
-587,138	6,950	0,048	0,026
-586,123	301,619	-0,039	0,052
-585,109	-47,656	0,033	0,012
-584,094	800,000	-0,022	0,070
-583,079	-200,000	-0,013	0,070
-582,065	208,231	0,071	0,081
-581,050	333,053	-0,046	-0,065
-580,036	-74,930	0,063	0,016
-579,021	-200,000	-0,017	0,086
-578,006	-101,187	-0,122	0,022
-576,992	29,311	-0,052	-0,032
-575,977	-200,000	-0,012	0,069
-574,963	31,211	0,006	0,004
-573,948	800,000	-0,048	0,118
-572,934	-107,265	0,117	0,019
-571,919	173,685	-0,185	-0,195
-570,904	-7,078	-0,107	-0,053
-569,890	413,191	0,083	-0,130
-568,875	-200,000	-0,012	-0,098
-567,861	-117,877	-0,055	-0,007
-566,846	430,456	-0,038	-0,060
-565,831	141,465	-0,090	0,087
-564,817	-200,000	0,015	-0,059
-563,802	246,148	-0,007	0,008
-562,788	800,000	-0,043	-0,095
-561,773	415,197	0,027	0,042
-560,758	-200,000	-0,007	0,115
-559,744	301,821	0,031	0,042
-558,729	800,000	-0,020	0,051
-557,715	-200,000	0,012	-0,061
-556,700	-200,000	-0,181	-0,000
-555,685	460,698	-0,056	-0,092
-554,671	83,579	0,049	-0,039
-553,656	185,771	-0,017	0,019
-552,642	-66,939	0,028	0,008
-551,627	-200,000	0,001	-0,025
-550,612	419,577	-0,027	0,043
-549,598	-158,292	-0,128	-0,005
-548,583	-200,000	-0,010	-0,051
-547,569	-92,359	0,058	-0,012
-546,554	-200,000	0,001	0,028
-545,539	-200,000	-0,001	-0,064
-544,525	-200,000	0,007	0,199
-543,510	255,370	0,064	-0,080
-542,496	-63,698	-0,139	0,041
-541,481	304,453	-0,092	-0,125
-540,466	104,045	0,128	-0,110
-539,452	800,000	0,019	-0,057
-538,437	89,128	0,048	0,039
-537,423	-200,000	0,036	-0,172
-536,408	8,917	-0,089	-0,049
-535,393	-131,084	0,130	-0,012
-534,379	151,430	-0,013	0,013
-533,364	800,000	0,057	0,165
-532,350	800,000	-0,013	0,034
-531,335	20,507	0,089	-0,052
-530,321	575,046	-0,016	0,029
-529,306	90,413	-0,093	-0,076
-528,291	-200,000	-0,031	-0,156
-527,277	582,273	-0,064	-0,115
-526,262	-102,094	-0,007	0,001
-525,248	-79,341	0,040	-0,010
-524,233	1,304	-0,100	-0,052
-523,218	574,352	-0,076	0,136
-522,204	261,680	-0,070	0,089
-521,189	116,872	-0,140	-0,126
-520,175	-200,000	-0,010	-0,108
-519,160	-200,000	0,001	-0,059
-518,145	-70,228	0,086	-0,024
-517,131	-111,851	0,252	-0,037
-516,116	265,217	-0,057	-0,072
-515,102	67,377	0,101	0,075
-514,087	800,000	-0,045	0,142
-513,072	-78,624	-0,082	0,020
-512,058	-125,581	-0,090	-0,010
-511,043	-200,000	0,008	0,075
-510,029	-66,935	0,087	-0,025
-509,014	-148,896	-0,092	-0,005
-507,999	800,000	0,045	-0,143
-506,985	376,015	-0,060	-0,089
-505,970	-200,000	-0,009	0,048
-504,956	256,860	0,035	0,043
-503,941	800,000	-0,028	-0,073
-502,926	27,498	0,051	-0,031
-501,912	7,836	-0,164	0,089
-500,897	158,017	-0,048	0,049
-499,883	-95,839	-0,168	0,032
-498,868	15,568	-0,071	0,040
-497,853	-59,923	-0,145	0,045
-496,839	775,951	0,037	-0,074
-495,824	800,000	-0,036	0,088
-494,810	75,690	-0,065	0,050
-493,795	-109,562	-0,066	-0,010
-492,781	370,260	-0,140	-0,207
-491,766	-200,000	-0,002	-0,015
-490,751	709,189	-0,086	-0,166
-489,737	-200,000	0,032	0,166
-488,722	294,939	0,125	0,166
-487,708	325,309	-0,091	0,127
-486,693	-200,000	-0,032	0,132
-485,678	-115,570	-0,085	-0,011
-484,664	-31,533	-0,082	-0,033
-483,649	10,511	0,015	-0,008
-482,635	505,787	0,046	0,078
-481,620	-61,750	0,072	-0,022
-480,605	-30,710	-0,085	0,035
-479,591	619,442	-0,018	-0,032
-478,576	436,080	0,070	0,111
-477,562	800,000	-0,034	-0,088
-476,547	-200,000	-0,019	-0,093
-475,532	68,043	0,029	0,022
-474,518	76,565	0,099	-0,077
-473,503	800,000	0,054	-0,119
-472,489	-200,000	0,005	0,131
-471,474	-200,000	-0,024	0,112
-470,459	800,000	0,050	-0,137
-469,445	-75,184	-0,116	-0,030
-468,430	-200,000	0,003	0,107
-467,416	-113,458	-0,052	0,007
-466,401	-200,000	-0,019	-0,073
-465,386	479,375	0,062	0,103
-464,372	-200,000	0,025	-0,109
-463,357	800,000	-0,050	-0,123
-462,343	149,494	-0,139	-0,137
-461,328	800,000	0,038	-0,117
-460,313	213,017	0,091	0,105
-459,299	31,391	0,168	0,105
-458,284	66,306	0,096	-0,071
-457,270	141,356	-0,030	-0,029
-456,255	800,000	0,050	-0,154
-455,241	-132,153	-0,051	-0,005
-454,226	-200,000	0,003	0,082
-453,211	203,552	0,057	0,065
-452,197	349,886	-0,027	-0,039
-451,182	147,948	-0,092	-0,090
-450,168	401,459	-0,041	-0,063
-449,153	83,467	-0,137	0,108
-448,138	-7,054	-0,060	-0,029
-447,124	800,000	0,026	-0,062
-446,109	-200,000	-0,026	0,150
-445,095	701,925	-0,065	0,125
-444,080	800,000	0,037	0,099
-443,065	50,150	0,059	0,040
-442,051	800,000	0,042	0,094
-441,036	297,208	0,016	-0,021
-440,022	-1,623	0,056	-0,029
-439,007	13,955	-0,020	-0,011
-437,992	-200,000	0,011	0,090
-436,978	71,939	0,029	0,022
-435,963	800,000	0,054	-0,119
-434,949	253,661	-0,031	-0,038
-433,934	-98,353	0,027	-0,005
-432,919	258,075	0,069	0,086
-431,905	-144,184	0,107	-0,007
-430,890	102,655	0,033	0,028
-429,876	480,298	0,038	-0,063
-428,861	800,000	0,020	0,045
-427,846	14,869	-0,025	0,014
-426,832	-200,000	-0,006	-0,115
-425,817	-200,000	-0,033	-0,182
-424,803	91,402	-0,086	0,070
-423,788	-200,000	-0,022	0,075
-422,773	11,746	0,025	-0,014
-421,759	-200,000	-0,020	0,136
-420,744	-200,000	-0,045	0,179
-419,730	800,000	-0,029	-0,061
-418,715	-176,819	0,110	-0,002
-417,701	-134,299	-0,040	-0,003
-416,686	-200,000	0,009	0,125
-415,671	8,533	-0,050	-0,027
-414,657	85,660	0,028	0,022
-413,642	800,000	0,037	0,108
-412,628	-51,451	-0,096	-0,032
-411,613	-200,000	-0,012	-0,096
-410,598	-119,578	0,061	0,008
-409,584	-200,000	-0,005	0,166
-408,569	-35,268	0,177	0,069
-407,555	-16,640	0,131	0,060
-406,540	419,712	0,019	0,030
-405,525	81,265	-0,083	0,065
-404,511	315,184	0,037	-0,050
-403,496	-89,541	-0,065	0,014
-402,482	69,286	0,115	-0,086
-401,467	103,659	-0,029	0,025
-400,452	38,835	0,148	0,095
-399,438	-109,321	0,088	0,013
-398,423	-200,000	-0,004	0,027
-397,409	175,148	-0,039	0,041
-396,394	800,000	0,020	-0,063
-395,379	-20,936	0,086	-0,038
-394,365	800,000	-0,035	0,070
-393,350	800,000	-0,061	0,168
-392,336	800,000	-0,026	0,056
-391,321	-37,241	0,025	-0,010
-390,306	-200,000	0,015	-0,205
-389,292	-200,000	0,012	-0,068
-388,277	-45,947	0,005	-0,002
-387,263	-22,740	0,139	0,061
-386,248	-162,606	0,076	0,003
-385,233	468,220	0,032	0,053
-384,219	54,101	0,087	0,061
-383,204	800,000	-0,021	-0,050
-382,190	538,479	-0,146	0,253
-381,175	800,000	-0,048	-0,110
-380,160	200,278	-0,077	-0,086
-379,146	85,220	0,152	-0,121
-378,131	222,454	0,039	-0,046
-377,117	-200,000	-0,006	-0,073
-376,102	46,155	-0,130	-0,087
-375,088	471,270	-0,089	-0,146
-374,073	283,787	-0,060	-0,079
-373,058	800,000	-0,026	0,075
-372,044	-159,590	0,023	-0,001
-371,029	-196,418	0,082	0,000
-370,015	-135,016	0,102	-0,009
-369,000	243,508	-0,116	0,141
-367,985	-18,866	0,092	0,041
-366,971	-140,615	-0,074	0,005
-365,956	-66,365	0,144	0,041
-364,942	-200,000	-0,013	0,087
-363,927	-75,998	0,179	0,045
-362,912	800,000	0,034	0,097
-361,898	-200,000	0,012	-0,072
-360,883	-51,372	-0,085	-0,029
-359,869	800,000	0,040	-0,125
-358,854	210,268	0,077	-0,088
-357,839	12,993	0,094	0,052
-356,825	-197,662	0,060	-0,000
-355,810	-200,000	0,020	-0,082
-354,796	18,871	-0,064	-0,037
-353,781	410,809	-0,072	-0,112
-352,766	220,958	0,102	-0,118
-351,752	44,237	0,077	-0,051
-350,737	-200,000	0,008	0,128
-349,723	60,266	0,096	0,069
-348,708	800,000	-0,015	0,034
-347,693	800,000	-0,005	0,015
-346,679	612,933	-0,019	-0,034
-345,664	-85,853	0,035	0,008
-344,650	-29,750	-0,107	-0,044
-343,635	-89,888	-0,092	0,019
-342,620	212,914	0,059	0,067
-341,606	-28,168	0,054	0,023
-340,591	-10,477	-0,033	0,016
-339,577	-200,000	-0,005	0,042
-338,562	-84,027	-0,127	-0,029
-337,548	130,584	0,042	-0,039
-336,533	-42,261	0,034	-0,012
-335,518	131,383	-0,024	0,023
-334,504	-96,049	-0,097	0,019
-333,489	-200,000	0,008	-0,172
-332,475	-106,640	-0,044	-0,007
-331,460	104,779	-0,055	-0,047
-330,445	23,467	0,092	-0,055
-329,431	38,151	0,144	-0,093
-328,416	72,974	-0,035	-0,027
-327,402	78,776	-0,072	-0,055
-326,387	800,000	0,024	-0,065
-325,372	-154,413	0,071	-0,003
-324,358	-200,000	0,028	-0,114
-323,343	800,000	0,045	0,126
-322,329	800,000	-0,006	-0,018
-321,314	42,229	0,140	0,092
-320,299	243,179	-0,089	-0,108
-319,285	-0,314	-0,052	0,027
-318,270	175,372	0,021	-0,022
-317,256	-200,000	-0,047	-0,208
-316,241	153,484	-0,078	-0,077
-315,226	-53,375	0,180	-0,059
-314,212	800,000	0,018	0,051
-313,197	195,027	0,043	0,047
-312,183	625,542	-0,059	-0,108
-311,168	112,336	-0,086	-0,075
-310,153	402,582	-0,061	-0,092
-309,139	228,866	-0,113	-0,134
-308,124	788,829	-0,031	-0,063
-307,110	204,197	0,031	0,035
-306,095	800,000	0,015	0,031
-305,080	5,786	-0,018	0,010
-304,066	-42,889	0,053	-0,019
-303,051	220,872	0,023	0,027
-302,037	-200,000	-0,004	-0,027
-301,022	-24,919	0,036	0,016
-300,008	184,097	0,030	0,032
-298,993	-15,204	-0,148	0,068
-297,978	6,288	-0,057	-0,031
-296,964	524,123	-0,059	0,100
-295,949	111,959	-0,146	-0,127
-294,935	800,000	-0,021	-0,056
-293,920	184,431	0,091	0,098
-292,905	-200,000	-0,004	0,047
-291,891	-23,971	0,104	0,045
-290,876	-200,000	-0,020	0,000
-289,862	-65,995	-0,014	-0,004
-288,847	379,629	-0,035	-0,051
-287,832	281,382	-0,004	0,005
-286,818	212,682	0,125	0,143
-285,803	643,890	0,072	0,134
-284,789	-42,588	-0,106	0,039
-283,774	-82,902	0,174	0,040
-282,759	-200,000	-0,012	-0,046
-281,745	308,746	-0,133	-0,180
-280,730	30,138	0,169	0,104
-279,716	64,147	0,030	0,022
-278,701	-138,156	0,108	-0,009
-277,686	176,500	0,044	0,046
-276,672	800,000	-0,039	0,084
-275,657	-66,245	0,069	0,020
-274,643	251,475	0,074	-0,091
-273,628	-106,759	0,113	0,018
-272,613	-200,000	-0,037	0,136
-271,599	800,000	-0,037	-0,100
-270,584	137,637	0,066	-0,062
-269,570	154,095	0,075	0,074
-268,555	-15,194	-0,069	-0,032
-267,540	758,673	-0,038	-0,075
-266,526	169,640	-0,158	-0,163
-265,511	-200,000	0,019	0,102
-264,497	-12,178	0,051	0,024
-263,482	337,317	0,069	0,097
-262,467	372,055	-0,025	-0,036
-261,453	-200,000	-0,010	0,067
-260,438	-2,312	-0,038	-0,019
-259,424	800,000	0,015	0,045
-258,409	44,256	-0,127	-0,084
-257,395	343,325	0,036	-0,050
-256,380	27,652	0,068	-0,041
-255,365	-200,000	-0,016	0,074
-254,351	800,000	0,023	0,056
-253,336	-200,000	0,026	-0,092
-252,322	151,779	-0,091	0,090
-251,307	-45,342	-0,086	0,031
-250,292	340,403	0,065	-0,091
-249,278	70,148	0,060	-0,045
-248,263	58,099	-0,042	-0,029
-247,249	279,654	0,134	0,172
-246,234	800,000	0,063	0,134
-245,219	-200,000	0,014	0,063
-244,205	251,421	-0,057	0,070
-243,190	140,094	-0,047	0,045
-242,176	-63,056	0,158	0,047
-241,161	221,959	0,030	0,035
-240,146	654,772	0,068	0,126
-239,132	-8,146	-0,041	-0,020
-238,117	-200,000	0,012	0,108
-237,103	-49,682	0,024	-0,008
-236,088	-200,000	0,010	-0,107
-235,073	414,377	0,109	0,167
-234,059	-12,163	-0,110	0,052
-233,044	-200,000	0,002	0,013
-232,030	-200,000	0,011	-0,130
-231,015	203,910	-0,056	-0,062
-230,000	-42,051	0,056	-0,021
-228,986	538,668	0,041	-0,070
-227,971	-5,154	0,072	-0,035
-226,957	-200,000	-0,018	0,205
-225,942	542,141	-0,069	0,119
-224,927	316,318	-0,129	0,176
-223,913	375,102	0,068	0,100
-222,898	420,238	-0,056	0,087
-221,884	111,809	0,040	-0,035
-220,869	-48,533	0,064	-0,022
-219,855	462,752	0,062	-0,099
-218,840	800,000	0,049	-0,142
-217,825	-200,000	0,011	-0,043
-216,811	-200,000	0,014	0,050
-215,796	-200,000	-0,005	0,089
-214,782	467,927	0,025	0,040
-213,767	-11,343	-0,074	0,035
-212,752	-108,678	0,118	0,018
-211,738	-47,778	0,059	0,021
-210,723	-33,955	-0,042	0,017
-209,709	20,925	-0,018	-0,011
-208,694	-200,000	0,005	0,100
-207,679	-29,366	-0,111	-0,045
-206,665	-192,855	0,177	-0,001
-205,650	-200,000	-0,027	0,202
-204,636	486,662	-0,019	0,031
-203,621	426,245	-0,024	-0,037
-202,606	-200,000	-0,042	-0,147
-201,592	267,200	-0,079	0,100
-200,577	-200,000	-0,002	-0,021
-199,563	87,148	0,074	0,059
-198,548	-175,917	-0,112	-0,002
-197,533	47,090	0,040	0,027
-196,519	783,321	-0,053	0,106
-195,504	-123,693	0,065	0,007
-194,490	800,000	-0,039	-0,101
-193,475	411,975	-0,034	0,052
-192,460	-8,461	0,035	0,017
-191,446	780,263	0,095	0,188
-190,431	-200,000	0,002	0,017
-189,417	135,050	0,068	0,064
-188,402	-200,000	0,002	0,102
-187,387	800,000	-0,038	0,082
-186,373	608,539	0,070	0,126
-185,358	-149,406	-0,024	0,001
-184,344	203,075	0,046	0,051
-183,329	-200,000	-0,007	0,043
-182,315	-200,000	0,042	0,185
-181,300	-188,064	-0,063	-0,001
-180,285	-166,163	0,074	-0,002
-179,271	-200,000	0,019	-0,099
-178,256	-200,000	-0,015	-0,054
-177,242	-200,000	0,015	0,110
-176,227	-72,087	0,133	-0,035
-175,212	-200,000	-0,006	-0,089
-174,198	282,142	0,055	0,070
-173,183	640,630	0,020	-0,037
-172,169	-200,000	-0,030	-0,134
-171,154	800,000	0,056	-0,140
-170,139	-14,534	-0,026	-0,012
-169,125	-69,166	0,147	0,040
-168,110	469,499	0,082	0,133
-167,096	-200,000	0,005	-0,039
-166,081	-200,000	0,012	-0,165
-165,066	-46,604	0,078	-0,027
-164,052	67,629	-0,074	0,054
-163,037	442,017	-0,115	-0,182
-162,023	-48,768	0,097	-0,033
-161,008	-90,680	-0,041	-0,008
-159,993	-200,000	0,017	-0,064
-158,979	-113,905	-0,065	0,009
-157,964	-10,548	-0,159	-0,075
-156,950	-160,725	-0,070	-0,003
-155,935	-200,000	0,015	0,123
-154,920	-84,451	0,071	0,016
-153,906	-200,000	0,001	0,124
-152,891	-200,000	-0,002	0,073
-151,877	130,571	0,029	0,027
-150,862	236,391	0,076	-0,090
-149,847	-161,188	0,086	-0,003
-148,833	-200,000	0,024	-0,140
-147,818	800,000	-0,082	0,167
-146,804	129,347	-0,015	0,014
-145,789	-200,000	0,006	0,056
-144,775	18,295	0,112	0,064
-143,760	-93,488	-0,124	-0,024
-142,745	-113,377	0,141	0,020
-141,731	-36,897	-0,088	-0,034
-140,716	-200,000	-0,057	0,194
-139,702	-97,921	0,112	0,021
-138,687	-2,406	0,063	0,032
-137,672	15,531	-0,142	-0,080
-136,658	-200,000	0,000	-0,070
-135,643	-134,799	-0,114	-0,010
-134,629	-51,339	-0,077	-0,026
-133,614	800,000	0,031	0,061
-132,599	-108,577	0,122	0,019
-131,585	-137,455	0,045	-0,004
-130,570	-91,655	-0,129	0,026
-129,556	35,144	0,054	-0,034
-128,541	-63,399	0,109	-0,032
-127,526	651,957	0,052	-0,095
-126,512	239,210	-0,060	-0,072
-125,497	-106,773	0,077	0,012
-124,483	-8,365	0,083	0,040
-123,468	-120,288	-0,097	0,012
-122,453	427,223	-0,037	-0,058
-121,439	-200,000	0,030	-0,113
-120,424	-70,862	-0,056	-0,015
-119,410	-108,745	0,125	-0,019
-118,395	464,438	-0,049	0,078
-117,380	507,190	-0,076	0,127
-116,366	-200,000	-0,016	0,107
-115,351	689,112	-0,025	-0,047
-114,337	193,280	-0,126	-0,137
-113,322	230,614	0,100	-0,117
-112,307	87,415	-0,049	0,039
-111,293	-22,163	0,083	0,036
-110,278	-146,545	-0,157	-0,010
-109,264	-200,000	0,004	-0,102
-108,249	284,042	0,035	-0,045
-107,234	444,259	0,046	0,072
-106,220	646,154	-0,023	-0,043
-105,205	404,938	0,064	-0,097
-104,191	250,552	0,108	0,132
-103,176	331,133	0,071	0,099
-102,162	-200,000	0,031	0,105
-101,147	-114,921	0,093	-0,013
-100,132	-73,347	-0,182	0,047
-99,118	107,290	-0,037	0,031
-98,103	800,000	-0,064	0,153
-97,089	-1,130	-0,071	-0,036
-96,074	800,000	-0,045	-0,120
-95,059	-21,326	0,102	0,044
-94,045	386,355	-0,092	0,137
-93,030	348,139	0,065	0,092
-92,016	-200,000	0,020	-0,076
-91,001	79,340	0,064	0,049
-89,986	99,780	0,063	0,052
-88,972	-86,415	0,138	-0,030
-87,957	-200,000	0,005	0,134
-86,943	-73,196	0,062	0,016
-85,928	651,621	0,031	0,057
-84,913	-200,000	-0,037	-0,136
-83,899	-90,145	-0,023	0,005
-82,884	-84,476	0,056	-0,012
-81,870	219,630	-0,016	-0,018
-80,855	68,747	0,052	-0,038
-79,840	-152,015	0,160	-0,008
-78,826	-116,762	-0,119	0,016
-77,811	-74,057	0,044	-0,011
-76,797	-138,411	-0,084	-0,007
-75,782	-200,000	-0,030	0,098
-74,767	-139,224	0,139	0,011
-73,753	321,633	0,026	-0,035
-72,738	76,227	0,015	-0,012
-71,724	-77,150	0,017	-0,004
-70,709	-99,755	-0,107	-0,019
-69,694	-179,310	-0,131	0,002
-68,680	800,000	0,018	0,044
-67,665	-200,000	0,012	-0,095
-66,651	762,832	-0,022	-0,043
-65,636	-93,409	-0,070	0,014
-64,622	542,889	0,053	0,091
-63,607	-92,381	-0,117	-0,023
-62,592	481,049	0,041	0,066
-61,578	800,000	0,008	0,018
-60,563	69,780	-0,056	0,041
-59,549	18,251	-0,039	0,022
-58,534	26,587	-2,158	-1,290
-57,519	-200,000	-0,213	-0,812
-56,505	-200,000	-1,412	-5,185
-55,490	56,612	0,837	0,582
-54,476	800,000	5,509	12,273
-53,461	-200,000	18,800	320,344
-52,446	800,000	741,233	2331,316
-51,432	555,135	1656,389	2864,735
-50,417	110,797	1640,197	1412,179
-49,403	74,456	1289,985	969,458
-48,388	29,933	1030,852	627,342
-47,373	19,760	993,536	570,993
-46,359	17,120	981,356	555,296
-45,344	13,791	977,528	542,184
-44,330	14,039	975,887	542,066
-43,315	13,515	974,008	539,284
-42,300	13,427	973,041	538,438
-41,286	13,356	971,993	537,605
-40,271	13,428	971,197	537,380
-39,257	13,461	970,335	536,988
-38,242	13,422	969,349	536,295
-37,227	13,418	968,511	535,796
-36,213	13,437	967,625	535,348
-35,198	13,300	966,855	534,455
-34,184	13,435	966,105	534,456
-33,169	13,394	964,960	533,671
-32,154	13,374	964,071	533,093
-31,140	13,425	963,201	532,755
-30,125	13,431	962,408	532,315
-29,111	13,445	961,593	531,888
-28,096	13,402	960,911	531,352
-27,082	13,421	960,204	530,999
-26,067	13,476	959,418	530,721
-25,052	13,437	958,768	530,215
-24,038	13,463	958,019	529,863
-23,023	13,359	957,528	529,237
-22,009	13,447	956,998	529,206
-20,994	13,367	956,301	528,541
-19,979	13,448	955,650	528,420
-18,965	13,398	955,039	527,903
-17,950	13,454	954,365	527,689
-16,936	13,359	953,704	526,998
-15,921	13,369	953,049	526,648
-14,906	13,302	952,378	526,041
-13,892	13,325	951,782	525,764
-12,877	13,341	950,832	525,270
-11,863	13,254	950,430	524,749
-10,848	13,296	949,782	524,503
-9,833	13,388	949,326	524,526
-8,819	13,354	948,657	524,025
-7,804	13,375	947,761	523,578
-6,790	13,308	947,462	523,179
-5,775	13,336	946,943	522,958
-4,760	13,370	946,316	522,702
-3,746	13,282	945,886	522,164
-2,731	13,138	945,027	521,210
-1,717	13,206	944,198	520,949
-0,702	13,171	943,679	520,529
0,313	12,921	943,049	520,177
1,327	16,380	940,689	529,758
2,342	25,623	794,460	471,878
3,356	22,016	459,251	267,240
4,371	-4,712	317,079	155,901
5,386	-8,935	299,112	142,747
6,400	-10,650	292,926	138,068
7,415	-11,263	290,324	136,222
8,429	-11,491	288,577	135,165
9,444	-11,720	287,818	134,572
10,459	-11,593	287,055	134,328
11,473	-11,853	286,580	133,839
12,488	-11,803	286,179	133,689
13,502	-11,603	285,518	133,563
14,517	-11,624	285,036	133,305
15,531	-11,676	284,662	133,068
16,546	-11,626	284,295	132,934
17,561	-11,556	283,893	132,801
18,575	-11,547	283,542	132,634
19,590	-11,853	283,104	132,122
20,604	-11,597	282,994	132,306
21,619	-11,663	282,420	131,962
22,634	-11,622	282,138	131,858
23,648	-11,731	281,940	131,648
24,663	-11,585	281,551	131,596
25,677	-11,674	281,388	131,422
26,692	-11,532	281,102	131,413
27,707	-11,542	280,716	131,212
28,721	-11,706	280,528	130,955
29,736	-11,553	280,155	130,915
30,750	-11,679	279,989	130,706
31,765	-11,618	279,725	130,629
32,780	-11,731	279,506	130,408
33,794	-11,736	279,268	130,280
34,809	-11,677	278,980	130,190
35,823	-11,618	278,582	130,048
36,838	-11,757	278,501	129,867
37,853	-11,947	278,303	129,583
38,867	-11,720	277,941	129,618
39,882	-11,901	277,885	129,410
40,896	-11,790	277,416	129,284
41,911	-11,766	277,203	129,196
42,926	-11,760	276,931	129,063
43,940	-11,793	276,744	128,934
44,955	-11,661	276,460	128,914
45,969	-11,831	276,274	128,656
46,984	-11,823	276,002	128,526
47,999	-11,697	276,000	128,631
49,013	-11,744	275,556	128,369
50,028	-11,908	275,355	128,111
51,042	-11,953	275,236	128,001
52,057	-11,867	274,844	127,888
53,071	-11,971	274,739	127,730
54,086	-11,862	274,497	127,708
55,101	-11,807	274,228	127,623
56,115	-11,656	273,933	127,616
57,130	-11,722	273,930	127,541
58,144	-11,567	273,570	127,506
59,159	-11,588	273,414	127,403
60,174	-11,635	273,042	127,174
61,188	-11,661	272,899	127,072
62,203	-11,774	272,742	126,883
63,217	-11,703	272,455	126,804
64,232	-11,697	272,089	126,628
65,247	-11,451	271,873	126,743
66,261	-11,525	271,661	126,565
67,276	-11,709	271,542	126,328
68,290	-11,668	271,238	126,213
69,305	-11,794	271,101	126,023
70,320	-11,786	270,975	125,960
71,334	-11,913	270,700	125,704
72,349	-11,496	270,401	125,937
73,363	-11,564	270,214	125,776
74,378	-11,611	269,806	125,532
75,393	-11,580	269,696	125,498
76,407	-11,682	269,441	125,275
77,422	-11,576	269,137	125,219
78,436	-11,567	268,997	125,151
79,451	-11,573	268,774	125,031
80,466	-11,743	268,568	124,769
81,480	-11,516	268,319	124,849
82,495	-11,612	268,171	124,681
83,509	-11,653	267,984	124,546
84,524	-11,755	267,702	124,311
85,539	-11,913	267,585	124,102
86,553	-11,775	267,490	124,173
87,568	-11,689	267,280	124,141
88,582	-11,838	266,992	123,862
89,597	-11,843	266,808	123,761
90,611	-11,628	266,415	123,762
91,626	-11,717	266,265	123,601
92,641	-11,628	266,138	123,611
93,655	-11,756	265,872	123,361
94,670	-11,544	265,678	123,452
95,684	-11,616	265,423	123,257
96,699	-11,781	265,368	123,072
97,714	-11,606	265,244	123,160
98,728	-11,618	264,861	122,962
99,743	-11,827	264,724	122,699
100,757	-11,770	264,423	122,600
101,772	-11,773	264,232	122,498
102,787	-11,524	264,176	122,684
103,801	-11,589	263,875	122,475
104,816	-11,762	263,724	122,239
105,830	-11,653	263,514	122,228
106,845	-11,594	263,191	122,120
107,860	-11,898	263,167	121,827
108,874	-11,310	262,758	122,150
109,889	-11,907	262,763	121,611
110,903	-11,643	262,491	121,709
111,918	-11,841	262,266	121,417
112,933	-11,615	261,940	121,456
113,947	-11,672	262,018	121,431
114,962	-11,608	261,774	121,364
115,976	-11,610	261,416	121,185
116,991	-11,767	261,335	120,998
118,006	-11,815	261,239	120,900
119,020	-11,721	260,987	120,856
120,035	-11,770	260,932	120,777
121,049	-11,487	260,505	120,818
122,064	-11,591	260,519	120,722
123,079	-11,750	260,322	120,479
124,093	-11,658	260,118	120,456
125,108	-11,742	259,837	120,241
126,122	-11,787	259,615	120,087
127,137	-11,465	259,341	120,232
128,151	-11,695	259,244	119,975
129,166	-11,819	259,064	119,773
130,181	-11,673	258,785	119,760
131,195	-11,791	258,630	119,575
132,210	-11,575	258,445	119,667
133,224	-11,599	258,280	119,559
134,239	-11,635	258,189	119,476
135,254	-11,589	257,875	119,360
136,268	-11,764	257,677	119,105
137,283	-11,613	257,425	119,108
138,297	-11,591	257,248	119,035
139,312	-11,646	256,948	118,838
140,327	-11,628	256,977	118,856
141,341	-11,667	256,758	118,711
142,356	-11,364	256,580	118,880
143,370	-11,548	256,385	118,620
144,385	-11,445	256,142	118,587
145,400	-11,562	256,118	118,463
146,414	-11,409	255,634	118,361
147,429	-11,488	255,634	118,283
148,443	-11,600	255,531	118,128
149,458	-11,505	255,171	118,032
150,473	-11,484	255,082	117,998
151,487	-11,719	254,901	117,703
152,502	-11,508	254,713	117,786
153,516	-11,496	254,380	117,633
154,531	-11,418	254,330	117,666
155,546	-11,563	254,155	117,450
156,560	-11,567	253,904	117,320
157,575	-11,810	253,809	117,057
158,589	-11,798	253,473	116,903
159,604	-11,406	253,381	117,184
160,619	-11,312	253,100	117,124
161,633	-11,374	252,938	116,986
162,648	-11,374	252,932	116,972
163,662	-11,600	252,663	116,645
164,677	-11,604	252,509	116,561
165,692	-11,486	252,445	116,622
166,706	-11,650	252,280	116,395
167,721	-11,254	252,014	116,598
168,735	-11,273	251,739	116,445
169,750	-11,490	251,659	116,213
170,764	-11,490	251,536	116,146
171,779	-11,431	251,327	116,089
172,794	-11,407	251,235	116,057
173,808	-11,252	250,927	116,034
174,823	-11,589	250,790	115,677
175,837	-11,848	250,688	115,400
176,852	-11,440	250,540	115,667
177,867	-11,601	250,467	115,486
178,881	-11,547	250,188	115,393
179,896	-11,511	249,906	115,283
180,910	-11,282	249,788	115,410
181,925	-11,543	249,563	115,077
182,940	-11,468	249,570	115,133
183,954	-11,542	249,446	115,004
184,969	-11,420	249,158	114,963
185,983	-11,261	249,037	115,030
186,998	-11,318	248,888	114,903
188,013	-11,569	248,650	114,574
189,027	-11,479	248,423	114,533
190,042	-11,425	248,311	114,517
191,056	-11,638	248,099	114,231
192,071	-11,407	247,888	114,316
193,086	-11,693	247,657	113,961
194,100	-11,444	247,361	114,022
195,115	-11,141	247,130	114,157
196,129	-11,381	247,188	113,975
197,144	-11,431	246,952	113,814
198,159	-11,616	246,734	113,550
199,173	-11,477	246,370	113,487
200,188	-11,762	246,473	113,289
201,202	-11,741	246,227	113,183
202,217	-11,781	246,062	113,064
203,232	-11,618	245,770	113,055
204,246	-11,184	245,666	113,354
205,261	-10,535	245,707	113,898
206,275	-10,552	245,665	113,854
207,290	-9,156	246,130	115,212
208,304	-5,937	247,061	118,302
209,319	-3,501	247,759	120,645
210,334	-2,591	247,891	121,452
211,348	-1,867	248,055	122,122
212,363	-1,455	248,040	122,444
213,377	-0,967	248,085	122,859
214,392	-0,430	248,007	123,255
215,407	-0,452	247,879	123,162
216,421	-0,446	247,661	123,047
217,436	-0,486	247,454	122,900
218,450	-0,655	247,236	122,642
219,465	-0,796	247,147	122,470
220,480	-0,609	246,978	122,530
221,494	-0,616	246,805	122,427
222,509	-0,765	246,753	122,268
223,523	-0,729	246,269	122,046
224,538	-0,663	246,179	122,045
225,553	-0,705	246,051	121,937
226,567	-0,595	245,964	121,973
227,582	-0,834	245,869	121,719
228,596	-0,640	245,626	121,747
229,611	-0,917	245,526	121,460
230,626	-0,640	245,280	121,554
231,640	-0,718	245,009	121,345
232,655	-0,847	244,957	121,203
233,669	-1,019	244,882	121,015
234,684	-0,630	244,550	121,157
235,699	-0,839	244,511	120,956
236,713	-0,836	244,274	120,831
237,728	-0,830	244,069	120,724
238,742	-0,632	243,972	120,825
239,757	-0,820	243,802	120,578
240,772	-0,689	243,497	120,522
241,786	-0,871	243,596	120,413
242,801	-0,824	243,460	120,373
243,815	-0,775	243,142	120,245
244,830	-0,816	243,050	120,155
245,844	-0,879	242,813	119,977
246,859	-0,703	242,611	120,008
247,874	-0,701	242,549	119,969
248,888	-1,018	242,486	119,671
249,903	-0,735	242,291	119,792
250,917	-0,818	242,068	119,605
251,932	-0,730	241,964	119,614
252,947	-0,591	241,622	119,545
253,961	-0,980	241,602	119,212
254,976	-0,727	241,408	119,310
255,990	-0,670	241,270	119,276
257,005	-0,723	241,066	119,122
258,020	-0,729	241,024	119,086
259,034	-0,801	240,898	118,955
260,049	-0,816	240,632	118,801
261,063	-0,692	240,461	118,805
262,078	-0,681	240,223	118,686
263,093	-0,784	240,184	118,574
264,107	-0,688	239,955	118,527
265,122	-0,499	239,728	118,555
266,136	-0,676	239,843	118,460
267,151	-0,722	239,491	118,239
268,166	-0,808	239,356	118,093
269,180	-0,755	239,128	118,013
270,195	-0,693	239,117	118,046
271,209	-0,763	238,890	117,867
272,224	-0,741	238,762	117,811
273,239	-0,908	238,764	117,669
274,253	-0,797	238,534	117,633
275,268	-0,764	238,321	117,544
276,282	-0,939	238,215	117,343
277,297	-0,623	237,947	117,450
278,312	-0,988	237,981	117,168
279,326	-0,432	237,612	117,415
280,341	-0,690	237,601	117,195
281,355	-0,628	237,353	117,111
282,370	-0,626	237,409	117,130
283,384	-0,649	237,266	117,030
284,399	-0,569	236,987	116,945
285,414	-0,597	236,759	116,801
286,428	-0,529	236,738	116,833
287,443	-0,519	236,411	116,669
288,457	-0,662	236,408	116,545
289,472	-0,797	236,054	116,254
290,487	-0,585	236,040	116,403
291,501	-0,490	235,863	116,380
292,516	-0,644	235,690	116,164
293,530	-0,476	235,719	116,299
294,545	-0,632	235,559	116,089
295,560	-0,628	235,264	115,936
296,574	-0,801	235,123	115,721
297,589	-0,444	234,901	115,879
298,603	-0,506	234,784	115,763
299,618	-0,506	234,665	115,694
300,633	-0,518	234,563	115,624
301,647	-0,850	234,541	115,345
302,662	-0,407	234,210	115,515
303,676	-0,686	234,153	115,260
304,691	-0,549	234,101	115,331
305,706	-0,507	233,796	115,203
306,720	-0,413	233,651	115,194
307,735	-0,427	233,491	115,093
308,749	-0,237	233,460	115,215
309,764	-0,494	233,281	114,918
310,779	-0,413	233,141	114,902
311,793	-0,424	233,024	114,825
312,808	-0,438	232,816	114,701
313,822	-0,627	232,737	114,507
314,837	-0,345	232,526	114,609
315,852	-0,532	232,472	114,429
316,866	-0,459	232,226	114,354
317,881	-0,530	232,006	114,181
318,895	-0,550	231,935	114,120
319,910	-0,548	231,820	114,055
320,925	-0,385	231,472	113,998
321,939	-0,450	231,490	113,947
322,954	-0,217	231,393	114,067
323,968	-0,345	231,324	113,926
324,983	-0,420	231,109	113,752
325,997	-0,354	230,924	113,701
327,012	-0,536	230,931	113,556
328,027	-0,332	230,780	113,627
329,041	-0,345	230,544	113,490
330,056	-0,424	230,367	113,333
331,070	-0,205	230,175	113,395
332,085	-0,298	230,037	113,247
333,100	-0,185	229,968	113,288
334,114	-0,277	229,717	113,085
335,129	-0,356	229,476	112,897
336,143	-0,359	229,434	112,863
337,158	-0,268	229,255	112,834
338,173	-0,236	229,155	112,798
339,187	-0,438	229,027	112,573
340,202	-0,286	228,977	112,654
341,216	-0,033	228,663	112,679
342,231	-0,135	228,594	112,559
343,246	-0,122	228,434	112,480
344,260	-0,185	228,344	112,378
345,275	-0,049	228,270	112,434
346,289	0,181	228,011	112,469
347,304	-0,101	227,936	112,210
348,319	-0,211	227,831	112,066
349,333	-0,139	227,611	112,001
350,348	0,091	227,483	112,101
351,362	-0,200	227,421	111,842
352,377	-0,086	227,156	111,787
353,392	0,096	227,073	111,873
354,406	-0,127	226,962	111,641
355,421	196,938	1317,636	1394,776
356,435	157,967	1450,473	1394,734
