DTS Sentinel unit serial number:	SN410029Multiplexer serial number:	ORYXHardware model number:	OX2-SRSoftware version number:	ORYX F/W v4,00 Oryx Data Collector v3.7.2.0data status	okinstallation	B5 Nyhavnadifferential loss correction	single-endedforward channel	channel 2reverse channel	N/Adate	2023/12/14time	00:52:13forward acquisition time	300,00reverse acquisition time	0,00gamma	499,1914k internal	0,3155k external	0,3155temperature offset calibration	1,0000default loss term (dB/km)	0,3820temperature slope calibration	1,0000multiplexer offset coefficient	1,0000multiplexer slope coefficient	1,0000fibre end	0,00T internal ref (°C)	8,69T ext. ref 1 (°C)	-7,18T ext. ref 2 (°C)	-7,19length (m)	temperature (°C)	Stokes	anti-Stokes-744,400	800,000	0,056	0,136
-743,385	-132,252	-0,318	-0,030
-742,371	3,073	0,243	0,130
-741,356	-144,579	-0,363	-0,024
-740,342	-28,706	0,181	0,076
-739,327	-42,571	-0,420	-0,157
-738,312	-200,000	0,032	0,119
-737,298	-130,995	-0,419	-0,041
-736,283	-104,326	0,219	0,037
-735,269	-177,560	-0,362	-0,006
-734,254	-119,979	0,254	0,032
-733,239	-83,348	-0,590	-0,138
-732,225	-23,610	0,251	0,111
-731,210	-200,000	0,012	-0,074
-730,196	800,000	0,034	-0,075
-729,181	-164,887	-0,110	-0,004
-728,167	100,076	-0,107	0,091
-727,152	-72,568	-0,112	0,030
-726,137	-90,087	-0,145	0,031
-725,123	-107,490	0,080	0,013
-724,108	-200,000	-0,030	-0,189
-723,094	-52,316	-0,035	0,012
-722,079	-106,939	-0,153	0,025
-721,064	72,801	-0,020	-0,016
-720,050	359,083	-0,058	-0,086
-719,035	-200,000	0,008	0,049
-718,021	546,663	0,025	-0,044
-717,006	132,336	-0,133	-0,127
-715,991	-200,000	-0,014	-0,102
-714,977	-200,000	-0,018	-0,168
-713,962	275,758	0,028	-0,037
-712,948	54,330	0,065	0,046
-711,933	-161,710	0,073	0,003
-710,918	29,824	-0,059	0,037
-709,904	-122,619	-0,125	0,015
-708,889	-107,068	-0,090	-0,015
-707,875	-200,000	-0,040	-0,150
-706,860	99,786	0,025	0,022
-705,845	-109,801	-0,162	0,025
-704,831	-11,786	-0,083	0,040
-703,816	-200,000	0,029	0,136
-702,802	153,268	-0,045	0,046
-701,787	255,485	-0,056	0,070
-700,772	-200,000	0,017	-0,160
-699,758	-80,538	0,040	0,010
-698,743	800,000	-0,034	0,074
-697,729	37,668	-0,041	-0,027
-696,714	301,032	-0,108	-0,148
-695,699	-105,146	0,084	-0,014
-694,685	634,343	-0,072	-0,135
-693,670	145,439	-0,013	0,013
-692,656	100,060	-0,068	-0,058
-691,641	68,723	0,035	0,026
-690,627	-94,656	0,157	0,031
-689,612	-47,063	-0,069	-0,025
-688,597	612,951	0,057	-0,105
-687,583	800,000	-0,028	-0,062
-686,568	800,000	-0,043	-0,128
-685,554	-32,966	-0,119	0,048
-684,539	800,000	0,022	-0,070
-683,524	-78,936	-0,129	0,032
-682,510	-88,558	0,054	-0,012
-681,495	-200,000	-0,006	-0,111
-680,481	33,354	-0,125	-0,080
-679,466	45,549	-0,041	0,028
-678,451	-200,000	0,016	-0,059
-677,437	-200,000	-0,000	0,032
-676,422	82,225	-0,116	-0,093
-675,408	-200,000	-0,001	0,050
-674,393	-55,882	-0,062	-0,020
-673,378	-200,000	-0,002	-0,006
-672,364	800,000	-0,085	-0,237
-671,349	-200,000	-0,022	-0,092
-670,335	102,421	0,091	0,079
-669,320	136,195	-0,050	0,048
-668,305	449,961	0,092	0,149
-667,291	155,534	-0,046	-0,046
-666,276	153,466	0,044	-0,045
-665,262	252,756	-0,041	-0,052
-664,247	-200,000	0,001	-0,059
-663,232	-200,000	0,023	-0,119
-662,218	-200,000	-0,017	0,090
-661,203	800,000	-0,020	-0,043
-660,189	149,278	-0,015	-0,015
-659,174	132,310	0,091	0,086
-658,159	496,924	-0,035	-0,059
-657,145	45,394	-0,096	-0,065
-656,130	-31,890	0,136	-0,056
-655,116	528,325	0,046	-0,079
-654,101	41,617	0,030	-0,020
-653,086	-131,289	0,024	-0,002
-652,072	-145,377	-0,085	0,006
-651,057	-102,566	-0,210	0,037
-650,043	663,187	0,055	-0,104
-649,028	-41,077	0,032	0,012
-648,014	800,000	0,028	-0,086
-646,999	94,280	-0,097	0,081
-645,984	92,298	0,026	-0,022
-644,970	-29,588	-0,052	-0,022
-643,955	-200,000	0,007	-0,068
-642,941	-112,626	-0,033	0,005
-641,926	-98,534	-0,062	-0,012
-640,911	526,394	0,014	-0,024
-639,897	-200,000	-0,008	0,106
-638,882	-72,294	-0,067	-0,018
-637,868	-31,319	-0,143	0,059
-636,853	800,000	-0,053	-0,171
-635,838	583,390	-0,011	-0,020
-634,824	220,556	-0,042	0,050
-633,809	-101,093	-0,142	0,025
-632,795	173,324	0,034	0,036
-631,780	-150,597	-0,117	-0,006
-630,765	800,000	0,034	-0,109
-629,751	-200,000	-0,030	0,105
-628,736	-200,000	-0,037	-0,215
-627,722	449,417	0,014	0,023
-626,707	-200,000	-0,031	-0,163
-625,692	574,197	-0,056	0,100
-624,678	-92,359	0,118	0,024
-623,663	-67,710	-0,053	-0,015
-622,649	11,392	-0,114	-0,064
-621,634	206,156	-0,092	-0,106
-620,619	252,771	-0,017	0,021
-619,605	39,370	0,024	0,016
-618,590	-43,582	-0,060	0,022
-617,576	-24,090	0,106	0,046
-616,561	-200,000	0,032	-0,142
-615,546	-200,000	-0,002	0,165
-614,532	428,418	0,085	-0,135
-613,517	-200,000	-0,029	0,117
-612,503	-200,000	-0,010	-0,113
-611,488	-92,763	0,129	-0,026
-610,474	138,525	-0,057	-0,055
-609,459	18,089	0,217	-0,126
-608,444	-88,609	-0,108	-0,023
-607,430	-125,589	-0,115	-0,013
-606,415	-200,000	-0,012	-0,056
-605,401	37,191	0,037	-0,024
-604,386	-35,366	0,177	0,070
-603,371	-82,545	-0,103	0,024
-602,357	-200,000	-0,006	-0,021
-601,342	-29,586	-0,096	0,040
-600,328	800,000	-0,028	-0,086
-599,313	59,372	-0,058	-0,042
-598,298	22,467	-0,091	-0,055
-597,284	3,808	0,123	0,066
-596,269	800,000	-0,094	0,230
-595,255	285,818	-0,011	0,015
-594,240	-200,000	0,000	0,096
-593,225	-94,132	-0,022	0,004
-592,211	47,817	-0,149	-0,102
-591,196	-200,000	-0,011	-0,048
-590,182	298,655	-0,027	0,037
-589,167	315,302	0,101	0,140
-588,152	11,936	-0,095	-0,053
-587,138	669,261	0,026	-0,049
-586,123	-159,745	-0,282	0,011
-585,109	-200,000	-0,004	-0,018
-584,094	-200,000	0,002	-0,071
-583,079	58,889	-0,068	0,049
-582,065	92,719	0,168	-0,139
-581,050	-94,715	0,113	0,022
-580,036	519,078	-0,059	-0,102
-579,021	-200,000	0,001	-0,029
-578,006	-23,935	-0,125	0,055
-576,992	-68,532	0,072	0,020
-575,977	187,208	-0,081	-0,089
-574,963	243,802	0,055	-0,068
-573,948	9,079	0,083	-0,046
-572,934	800,000	-0,030	-0,089
-571,919	800,000	-0,026	-0,065
-570,904	-200,000	0,008	-0,119
-569,890	-102,993	0,059	0,010
-568,875	-200,000	0,009	-0,101
-567,861	-73,056	-0,015	-0,004
-566,846	-122,798	-0,091	-0,011
-565,831	45,900	0,063	-0,042
-564,817	22,026	-0,096	0,057
-563,802	234,324	-0,039	0,047
-562,788	-78,166	-0,069	-0,017
-561,773	298,402	-0,064	0,086
-560,758	-200,000	0,030	0,185
-559,744	-200,000	0,001	0,057
-558,729	300,163	0,018	-0,024
-557,715	-200,000	0,009	-0,181
-556,700	121,586	-0,064	-0,059
-555,685	106,394	-0,062	-0,054
-554,671	-200,000	0,005	-0,056
-553,656	-132,497	-0,057	-0,005
-552,642	-200,000	0,002	-0,072
-551,627	56,259	-0,063	0,045
-550,612	-200,000	-0,016	0,080
-549,598	800,000	-0,025	-0,052
-548,583	356,885	0,042	-0,061
-547,569	800,000	-0,030	-0,066
-546,554	-55,681	0,042	-0,014
-545,539	18,870	0,055	0,032
-544,525	-16,183	0,125	-0,058
-543,510	-62,384	-0,145	0,044
-542,496	-106,509	0,101	-0,016
-541,481	788,127	0,078	-0,158
-540,466	-200,000	-0,010	0,106
-539,452	-159,682	0,074	-0,003
-538,437	800,000	0,045	-0,115
-537,423	59,165	-0,101	-0,073
-536,408	-157,937	0,119	-0,005
-535,393	408,716	0,080	-0,124
-534,379	327,810	-0,012	-0,017
-533,364	-122,832	-0,136	-0,016
-532,350	-200,000	0,014	0,066
-531,335	3,615	-0,116	0,062
-530,321	800,000	0,007	-0,021
-529,306	96,022	0,059	0,049
-528,291	-200,000	0,024	-0,101
-527,277	-200,000	0,012	-0,075
-526,262	71,856	0,031	-0,024
-525,248	517,240	0,048	0,082
-524,233	8,315	-0,135	-0,074
-523,218	-8,981	0,105	0,051
-522,204	164,039	-0,065	0,067
-521,189	800,000	0,015	-0,044
-520,175	-103,431	-0,105	0,018
-519,160	-200,000	0,017	-0,063
-518,145	90,819	0,094	0,077
-517,131	4,309	0,206	-0,110
-516,116	18,742	0,069	0,040
-515,102	-200,000	-0,004	-0,045
-514,087	800,000	0,044	0,095
-513,072	167,938	-0,018	-0,019
-512,058	80,801	-0,099	-0,078
-511,043	746,249	-0,043	-0,085
-510,029	-8,593	0,024	-0,012
-509,014	353,998	0,071	-0,103
-507,999	64,670	0,153	-0,112
-506,985	32,633	-0,163	-0,103
-505,970	147,013	-0,104	-0,102
-504,956	176,607	-0,061	-0,064
-503,941	-17,456	0,035	-0,016
-502,926	100,474	0,109	-0,093
-501,912	159,106	-0,056	0,057
-500,897	487,982	-0,016	-0,026
-499,883	72,411	0,109	0,083
-498,868	194,179	-0,091	-0,101
-497,853	-19,719	0,158	-0,071
-496,839	-19,404	0,133	0,060
-495,824	800,000	-0,020	-0,060
-494,810	145,239	0,114	0,112
-493,795	384,657	0,064	0,097
-492,781	-92,995	-0,073	-0,015
-491,766	334,394	-0,078	0,111
-490,751	-21,994	0,141	0,062
-489,737	800,000	0,021	-0,043
-488,722	-200,000	0,011	-0,076
-487,708	177,913	0,063	0,067
-486,693	642,504	0,062	0,115
-485,678	-200,000	-0,011	0,039
-484,664	-200,000	0,011	-0,111
-483,649	-24,585	0,080	0,035
-482,635	-200,000	-0,014	0,064
-481,620	-200,000	-0,012	0,068
-480,605	155,762	0,096	0,097
-479,591	-16,666	-0,101	-0,046
-478,576	-104,515	0,052	0,009
-477,562	175,807	-0,058	0,062
-476,547	-200,000	0,018	-0,059
-475,532	11,419	-0,061	-0,034
-474,518	800,000	-0,057	0,140
-473,503	-22,626	0,113	-0,050
-472,489	56,475	-0,109	-0,077
-471,474	-200,000	-0,022	0,085
-470,459	-200,000	0,007	-0,071
-469,445	-147,059	0,058	0,004
-468,430	-7,304	-0,098	0,048
-467,416	-183,626	-0,025	-0,000
-466,401	172,574	-0,093	0,098
-465,386	-200,000	-0,005	0,084
-464,372	3,949	0,022	-0,012
-463,357	-200,000	0,017	0,061
-462,343	70,659	-0,042	0,032
-461,328	299,330	-0,028	-0,038
-460,313	-200,000	-0,027	0,112
-459,299	-200,000	-0,018	-0,068
-458,284	-81,096	-0,107	-0,026
-457,270	5,114	-0,029	-0,016
-456,255	-75,125	-0,113	-0,029
-455,241	-200,000	0,021	-0,117
-454,226	-119,257	0,102	-0,013
-453,211	-82,183	-0,157	-0,037
-452,197	564,753	-0,012	0,021
-451,182	-17,602	0,026	-0,012
-450,168	-40,916	-0,079	0,030
-449,153	353,268	-0,077	0,112
-448,138	-57,527	-0,136	-0,043
-447,124	-25,839	-0,256	-0,110
-446,109	150,628	0,150	0,149
-445,095	288,647	0,058	-0,077
-444,080	-65,615	0,074	0,022
-443,065	21,358	0,091	-0,054
-442,051	340,108	-0,028	-0,040
-441,036	104,684	-0,120	-0,103
-440,022	262,533	0,034	0,043
-439,007	334,067	-0,043	0,061
-437,992	48,678	0,103	0,070
-436,978	248,855	0,041	0,050
-435,963	800,000	-0,008	-0,017
-434,949	198,125	0,115	-0,128
-433,934	565,182	0,031	-0,054
-432,919	-62,336	-0,090	-0,027
-431,905	-37,807	-0,117	-0,045
-430,890	800,000	-0,014	0,033
-429,876	800,000	-0,011	0,035
-428,861	-74,304	-0,022	0,006
-427,846	800,000	-0,033	0,067
-426,832	-58,476	-0,063	-0,020
-425,817	46,690	-0,098	0,066
-424,803	380,655	-0,046	-0,069
-423,788	-112,059	0,095	-0,014
-422,773	-200,000	-0,015	0,164
-421,759	-200,000	0,001	-0,007
-420,744	-200,000	0,004	0,048
-419,730	800,000	0,019	0,041
-418,715	-200,000	0,005	0,035
-417,701	800,000	0,055	0,166
-416,686	-115,806	-0,102	0,014
-415,671	327,419	0,026	-0,037
-414,657	769,470	-0,028	-0,056
-413,642	-197,242	-0,029	-0,000
-412,628	-60,005	-0,085	0,026
-411,613	-200,000	-0,015	-0,055
-410,598	-200,000	-0,013	0,051
-409,584	189,059	0,078	0,085
-408,569	-200,000	0,000	0,066
-407,555	213,915	0,103	-0,119
-406,540	384,783	0,043	0,065
-405,525	-84,246	-0,113	0,026
-404,511	258,658	0,110	-0,138
-403,496	800,000	0,038	0,121
-402,482	-200,000	0,027	-0,155
-401,467	575,787	-0,037	-0,065
-400,452	-200,000	0,015	0,089
-399,438	25,470	-0,010	-0,006
-398,423	-200,000	0,038	-0,137
-397,409	403,714	-0,089	-0,136
-396,394	376,732	0,036	-0,053
-395,379	-126,400	-0,084	0,009
-394,365	-200,000	-0,006	-0,081
-393,350	6,828	0,021	-0,011
-392,336	-158,146	-0,060	0,002
-391,321	800,000	0,028	0,063
-390,306	55,112	-0,026	0,018
-389,292	800,000	-0,041	0,092
-388,277	161,089	-0,023	0,023
-387,263	3,215	-0,091	-0,048
-386,248	-82,869	-0,030	0,007
-385,233	-200,000	0,003	0,116
-384,219	79,164	-0,075	-0,058
-383,204	-1,659	-0,030	-0,015
-382,190	54,330	0,051	-0,036
-381,175	418,766	-0,035	0,054
-380,160	182,044	-0,066	-0,071
-379,146	-200,000	-0,021	-0,068
-378,131	-45,687	-0,009	0,003
-377,117	31,285	-0,143	0,089
-376,102	-200,000	0,018	-0,136
-375,088	-14,374	0,050	-0,023
-374,073	-59,896	0,080	0,025
-373,058	800,000	-0,047	0,120
-372,044	-200,000	0,006	0,054
-371,029	312,290	0,088	0,120
-370,015	643,286	0,022	0,041
-369,000	-51,698	0,037	0,013
-367,985	-32,406	-0,144	-0,058
-366,971	-14,069	0,141	0,066
-365,956	-180,397	-0,138	-0,002
-364,942	-86,732	0,074	-0,016
-363,927	800,000	-0,009	0,027
-362,912	192,885	0,118	-0,129
-361,898	800,000	-0,011	0,029
-360,883	-200,000	0,016	-0,080
-359,869	200,225	-0,096	-0,107
-358,854	41,573	-0,098	0,065
-357,839	86,346	0,050	-0,040
-356,825	-121,839	0,102	0,012
-355,810	143,947	-0,122	-0,119
-354,796	800,000	0,041	0,098
-353,781	557,568	-0,066	0,116
-352,766	-61,128	-0,067	0,020
-351,752	146,149	0,095	0,092
-350,737	-200,000	0,005	-0,094
-349,723	-31,359	0,167	0,068
-348,708	-116,240	0,031	0,004
-347,693	-200,000	0,006	0,039
-346,679	303,421	0,074	-0,100
-345,664	276,824	-0,053	0,069
-344,650	-200,000	-0,005	-0,104
-343,635	-200,000	0,007	0,038
-342,620	74,751	-0,025	-0,019
-341,606	800,000	0,030	-0,095
-340,591	-200,000	0,107	-0,000
-339,577	-120,913	0,024	0,003
-338,562	-76,457	0,115	0,029
-337,548	65,240	-0,040	-0,030
-336,533	269,978	0,064	0,081
-335,518	-124,190	0,205	-0,023
-334,504	221,187	0,078	0,091
-333,489	-200,000	0,010	0,086
-332,475	800,000	-0,039	-0,082
-331,460	-38,030	0,148	0,057
-330,445	800,000	0,060	-0,148
-329,431	800,000	0,025	-0,077
-328,416	98,910	-0,054	0,045
-327,402	800,000	-0,034	-0,097
-326,387	-148,216	0,054	-0,003
-325,372	150,418	0,092	-0,091
-324,358	214,265	0,031	-0,035
-323,343	-95,018	-0,166	0,032
-322,329	-24,772	0,132	0,057
-321,314	434,325	0,037	0,059
-320,299	-200,000	-0,002	0,078
-319,285	147,426	-0,069	0,068
-318,270	543,968	0,089	0,154
-317,256	536,645	0,033	0,057
-316,241	-200,000	-0,004	0,077
-315,226	398,098	-0,026	0,040
-314,212	-200,000	-0,016	0,074
-313,197	452,420	0,008	-0,013
-312,183	-200,000	-0,014	-0,094
-311,168	800,000	0,077	-0,196
-310,153	77,259	0,064	0,050
-309,139	-154,049	0,087	0,004
-308,124	-69,432	-0,184	0,051
-307,110	-200,000	-0,007	0,056
-306,095	-200,000	0,018	0,177
-305,080	194,127	0,055	0,061
-304,066	-97,884	-0,062	0,012
-303,051	800,000	0,071	-0,170
-302,037	-200,000	0,010	0,100
-301,022	793,606	-0,047	0,094
-300,008	-200,000	0,002	0,046
-298,993	264,240	0,025	-0,032
-297,978	-200,000	0,007	0,106
-296,964	-154,913	-0,126	-0,006
-295,949	800,000	-0,023	-0,066
-294,935	-101,742	-0,029	-0,005
-293,920	95,614	0,013	-0,010
-292,905	237,753	0,125	0,150
-291,891	270,245	-0,057	-0,073
-290,876	-200,000	0,007	-0,025
-289,862	-200,000	-0,001	0,035
-288,847	52,484	-0,032	-0,022
-287,832	5,801	0,073	-0,039
-286,818	235,202	-0,079	0,095
-285,803	-200,000	0,003	0,080
-284,789	709,954	0,008	-0,015
-283,774	102,348	0,009	0,008
-282,759	-3,500	-0,084	0,042
-281,745	-200,000	0,002	-0,085
-280,730	-200,000	-0,005	-0,040
-279,716	97,414	0,042	-0,035
-278,701	-122,722	0,189	0,022
-277,686	344,658	-0,087	0,123
-276,672	32,298	0,101	0,063
-275,657	-92,252	0,011	0,002
-274,643	237,627	0,082	0,099
-273,628	-60,176	0,121	-0,037
-272,613	800,000	0,028	-0,088
-271,599	231,669	0,060	0,072
-270,584	-141,455	0,190	-0,014
-269,570	-95,713	-0,028	0,005
-268,555	9,802	0,033	-0,018
-267,540	-200,000	-0,003	0,051
-266,526	82,492	-0,043	-0,033
-265,511	114,116	0,027	0,024
-264,497	-106,743	0,145	0,023
-263,482	-42,700	0,070	0,026
-262,467	-48,794	-0,047	0,016
-261,453	-200,000	0,000	0,056
-260,438	78,679	0,061	-0,047
-259,424	71,724	0,048	-0,036
-258,409	-56,066	-0,065	-0,021
-257,395	800,000	-0,054	0,169
-256,380	800,000	-0,011	0,031
-255,365	26,747	0,166	0,100
-254,351	-200,000	0,012	0,119
-253,336	645,588	-0,032	0,060
-252,322	800,000	0,042	-0,091
-251,307	-200,000	0,002	0,062
-250,292	67,422	-0,048	-0,036
-249,278	77,758	-0,041	-0,031
-248,263	800,000	-0,053	0,113
-247,249	211,846	0,086	0,098
-246,234	44,915	-0,050	-0,033
-245,219	-18,913	0,053	-0,024
-244,205	14,396	-0,074	0,042
-243,190	103,211	0,029	-0,024
-242,176	800,000	0,046	-0,120
-241,161	-172,279	-0,058	-0,001
-240,146	-200,000	-0,013	-0,079
-239,132	-36,242	-0,117	-0,045
-238,117	421,304	0,139	-0,217
-237,103	-73,758	0,080	0,021
-236,088	800,000	0,051	-0,126
-235,073	275,018	-0,018	-0,023
-234,059	-137,687	0,059	0,005
-233,044	78,540	0,038	0,029
-232,030	799,028	-0,048	-0,096
-231,015	115,801	0,078	-0,069
-230,000	-145,257	-0,107	-0,007
-228,986	-44,228	0,141	-0,051
-227,971	-144,076	0,096	0,006
-226,957	531,148	0,100	0,171
-225,942	800,000	-0,051	0,129
-224,927	800,000	0,023	0,069
-223,913	-102,942	0,036	-0,006
-222,898	4,942	-0,129	0,068
-221,884	681,606	0,044	-0,084
-220,869	800,000	0,018	-0,051
-219,855	99,677	-0,126	-0,105
-218,840	52,508	-0,033	0,023
-217,825	-182,347	-0,156	-0,002
-216,811	-159,792	0,041	0,002
-215,796	435,474	-0,058	-0,092
-214,782	-34,292	-0,085	-0,034
-213,767	274,578	-0,050	0,064
-212,752	260,968	0,061	0,076
-211,738	482,359	-0,055	0,091
-210,723	-200,000	0,000	0,093
-209,709	322,784	-0,037	-0,051
-208,694	-19,033	0,140	-0,063
-207,679	800,000	0,068	0,150
-206,665	-164,159	0,133	-0,004
-205,650	-5,892	-0,068	0,033
-204,636	-174,690	-0,139	0,003
-203,621	-100,295	0,072	0,013
-202,606	-89,152	-0,087	0,018
-201,592	-93,389	-0,082	0,016
-200,577	800,000	-0,028	0,067
-199,563	-200,000	-0,013	0,206
-198,548	-13,054	0,126	0,059
-197,533	11,315	0,098	-0,054
-196,519	-200,000	0,006	-0,131
-195,504	10,066	-0,067	0,037
-194,490	-132,451	-0,047	0,004
-193,475	-200,000	-0,010	-0,046
-192,460	94,336	-0,066	0,054
-191,446	67,130	-0,144	-0,106
-190,431	-148,008	0,123	-0,007
-189,417	-200,000	0,007	-0,043
-188,402	-113,603	0,052	0,007
-187,387	87,583	0,020	-0,016
-186,373	91,183	-0,053	-0,043
-185,358	131,724	0,109	0,101
-184,344	-200,000	-0,007	0,036
-183,329	416,824	0,062	0,095
-182,315	800,000	-0,042	-0,092
-181,300	-200,000	-0,002	0,057
-180,285	-200,000	0,010	-0,061
-179,271	-25,983	0,145	-0,062
-178,256	125,042	-0,112	0,102
-177,242	75,116	0,053	0,041
-176,227	26,992	0,061	0,037
-175,212	800,000	0,032	0,080
-174,198	-170,159	0,085	0,002
-173,183	74,367	0,042	0,032
-172,169	38,406	-0,117	-0,075
-171,154	88,804	0,013	0,010
-170,139	-30,361	0,048	-0,020
-169,125	-200,000	-0,001	0,073
-168,110	-94,724	-0,126	-0,025
-167,096	81,342	0,054	-0,042
-166,081	-41,252	0,094	0,035
-165,066	81,529	-0,049	0,038
-164,052	598,739	-0,041	-0,074
-163,037	369,759	0,046	0,067
-162,023	48,955	-0,063	0,043
-161,008	482,493	-0,059	0,097
-159,993	-200,000	0,019	0,063
-158,979	-200,000	0,009	0,117
-157,964	-93,843	0,030	-0,006
-156,950	-7,032	-0,065	-0,032
-155,935	-200,000	0,000	-0,052
-154,920	-141,105	-0,050	-0,004
-153,906	-90,612	0,014	0,003
-152,891	563,659	-0,023	0,040
-151,877	-200,000	-0,019	-0,085
-150,862	-200,000	0,006	-0,038
-149,847	169,134	0,048	0,050
-148,833	-14,047	-0,025	0,012
-147,818	50,342	0,054	-0,037
-146,804	372,807	0,098	0,144
-145,789	-200,000	0,020	0,072
-144,775	48,583	-0,055	-0,037
-143,760	-12,002	-0,049	-0,023
-142,745	-116,305	0,049	0,006
-141,731	-200,000	-0,031	0,126
-140,716	800,000	-0,023	0,055
-139,702	-200,000	-0,010	-0,052
-138,687	-12,138	0,076	0,036
-137,672	-115,879	0,014	0,002
-136,658	-200,000	0,005	-0,044
-135,643	104,441	-0,067	0,056
-134,629	6,489	0,136	-0,073
-133,614	-200,000	0,034	-0,122
-132,599	-196,945	0,145	0,001
-131,585	800,000	-0,030	0,068
-130,570	-200,000	0,009	-0,040
-129,556	-173,636	-0,045	0,001
-128,541	-134,194	-0,117	0,010
-127,526	323,544	0,024	0,034
-126,512	16,177	-0,054	-0,031
-125,497	-200,000	-0,023	0,125
-124,483	133,414	-0,030	0,028
-123,468	-37,446	-0,098	-0,038
-122,453	800,000	0,031	-0,093
-121,439	-200,000	-0,026	-0,092
-120,424	-200,000	-0,005	-0,127
-119,410	-200,000	-0,022	0,173
-118,395	-200,000	0,042	0,148
-117,380	8,221	0,060	-0,033
-116,366	133,686	-0,072	0,067
-115,351	8,642	-0,110	-0,060
-114,337	-11,237	-0,074	-0,035
-113,322	-200,000	-0,016	0,072
-112,307	-200,000	0,015	0,110
-111,293	-153,714	0,060	-0,003
-110,278	278,421	0,096	0,123
-109,264	463,316	-0,099	-0,159
-108,249	490,514	-0,061	-0,101
-107,234	130,305	-0,093	-0,086
-106,220	403,033	0,058	-0,087
-105,205	-200,000	-0,015	-0,174
-104,191	-99,506	-0,082	-0,015
-103,176	-200,000	-0,003	-0,150
-102,162	-31,297	0,151	-0,061
-101,147	-29,853	-0,021	0,009
-100,132	800,000	-0,033	-0,103
-99,118	800,000	-0,010	-0,022
-98,103	-200,000	-0,006	-0,059
-97,089	798,761	-0,018	0,037
-96,074	-67,564	-0,107	-0,030
-95,059	63,282	-0,157	0,113
-94,045	-140,027	-0,214	-0,016
-93,030	-200,000	-0,007	-0,026
-92,016	12,506	-0,058	-0,032
-91,001	576,917	-0,049	-0,087
-89,986	59,670	0,055	0,039
-88,972	800,000	-0,031	-0,071
-87,957	-25,624	0,025	-0,011
-86,943	-141,232	-0,101	-0,007
-85,928	386,049	-0,076	-0,113
-84,913	139,295	0,059	-0,056
-83,899	-200,000	-0,008	-0,035
-82,884	-200,000	0,018	0,059
-81,870	-21,322	0,082	-0,036
-80,855	45,642	0,019	0,013
-79,840	800,000	0,018	-0,049
-78,826	-170,850	-0,044	0,001
-77,811	800,000	0,079	0,183
-76,797	-41,310	-0,060	-0,022
-75,782	-93,652	0,098	0,019
-74,767	-129,543	-0,130	-0,013
-73,753	222,912	-0,054	-0,063
-72,738	366,829	0,066	0,096
-71,724	800,000	-0,042	-0,130
-70,709	72,299	0,036	0,027
-69,694	-55,940	-0,088	-0,028
-68,680	541,920	0,040	-0,070
-67,665	241,300	0,010	0,012
-66,651	-113,562	0,163	-0,023
-65,636	107,369	-0,036	-0,031
-64,622	228,565	-0,090	-0,105
-63,607	-200,000	-0,016	-0,052
-62,592	122,149	-0,087	0,078
-61,578	-23,761	0,133	0,057
-60,563	36,184	0,057	0,036
-59,549	179,964	-0,025	0,027
-58,534	68,621	-2,554	-1,880
-57,519	29,592	0,362	-0,220
-56,505	-200,000	-1,632	-5,510
-55,490	305,292	1,310	1,753
-54,476	800,000	5,375	11,457
-53,461	-200,000	21,904	345,519
-52,446	800,000	761,555	2312,298
-51,432	518,623	1653,081	2790,329
-50,417	103,804	1617,663	1364,323
-49,403	73,430	1273,246	956,136
-48,388	25,378	1021,936	608,592
-47,373	19,312	988,488	568,585
-46,359	13,461	975,586	541,925
-45,344	9,315	972,371	526,485
-44,330	9,854	970,274	527,101
-43,315	8,742	968,507	522,471
-42,300	8,711	967,320	521,707
-41,286	8,744	966,151	521,164
-40,271	8,700	965,320	520,551
-39,257	8,761	964,379	520,224
-38,242	8,691	963,438	519,467
-37,227	8,680	962,726	519,025
-36,213	8,656	962,044	518,559
-35,198	8,676	960,999	518,041
-34,184	8,821	960,220	518,073
-33,169	8,685	959,535	517,240
-32,154	8,762	958,358	516,834
-31,140	8,754	957,481	516,314
-30,125	8,766	956,709	515,917
-29,111	8,702	955,814	515,206
-28,096	8,839	955,154	515,274
-27,082	8,768	954,462	514,652
-26,067	8,713	954,008	514,207
-25,052	8,662	953,100	513,533
-24,038	8,668	952,309	513,108
-23,023	8,693	951,631	512,802
-22,009	8,752	951,169	512,721
-20,994	8,737	950,610	512,353
-19,979	8,745	949,915	511,982
-18,965	8,714	949,316	511,539
-17,950	8,683	948,892	511,193
-16,936	8,696	948,062	510,765
-15,921	8,647	947,418	510,243
-14,906	8,633	946,535	509,702
-13,892	8,648	945,931	509,403
-12,877	8,570	945,525	508,916
-11,863	8,570	944,619	508,406
-10,848	8,607	944,418	508,397
-9,833	8,726	943,691	508,366
-8,819	8,639	943,092	507,747
-7,804	8,613	942,389	507,265
-6,790	8,611	941,681	506,857
-5,775	8,621	941,224	506,621
-4,760	8,640	940,675	506,366
-3,746	8,639	939,958	505,956
-2,731	8,585	939,062	505,284
-1,717	8,491	938,630	504,733
-0,702	8,453	938,043	504,277
0,313	8,266	937,399	504,099
1,327	11,706	935,098	513,701
2,342	20,532	783,370	453,582
3,356	15,733	450,048	253,305
4,371	-10,513	313,294	148,356
5,386	-14,260	295,635	136,182
6,400	-16,171	289,671	131,524
7,415	-16,605	287,127	129,930
8,429	-17,172	285,073	128,434
9,444	-17,389	284,393	127,905
10,459	-17,254	283,537	127,639
11,473	-17,396	283,092	127,289
12,488	-17,281	282,582	127,161
13,502	-17,290	281,930	126,847
14,517	-17,369	281,652	126,634
15,531	-17,339	281,113	126,410
16,546	-17,171	280,748	126,396
17,561	-17,401	280,417	126,014
18,575	-17,235	279,988	125,970
19,590	-17,222	279,700	125,841
20,604	-17,173	279,367	125,727
21,619	-17,353	279,071	125,411
22,634	-17,101	278,650	125,452
23,648	-17,273	278,358	125,145
24,663	-17,163	278,110	125,127
25,677	-17,131	277,780	124,997
26,692	-17,192	277,637	124,864
27,707	-17,053	277,166	124,773
28,721	-17,162	276,982	124,575
29,736	-17,223	276,789	124,419
30,750	-17,180	276,373	124,262
31,765	-17,098	276,109	124,210
32,780	-17,026	275,886	124,167
33,794	-17,271	275,629	123,809
34,809	-17,086	275,371	123,856
35,823	-17,231	275,120	123,596
36,838	-17,148	274,895	123,562
37,853	-17,071	274,653	123,514
38,867	-17,189	274,552	123,347
39,882	-17,118	274,243	123,263
40,896	-17,072	273,952	123,165
41,911	-17,183	273,809	122,985
42,926	-17,021	273,402	122,943
43,940	-17,167	273,252	122,729
44,955	-17,161	273,016	122,618
45,969	-17,249	272,768	122,413
46,984	-17,049	272,605	122,516
47,999	-17,086	272,488	122,417
49,013	-17,082	272,230	122,295
50,028	-17,143	271,932	122,094
51,042	-17,068	271,749	122,070
52,057	-17,048	271,320	121,885
53,071	-17,115	271,201	121,758
54,086	-16,962	271,054	121,823
55,101	-17,052	270,809	121,618
56,115	-17,141	270,612	121,437
57,130	-17,225	270,395	121,251
58,144	-17,011	269,841	121,189
59,159	-17,210	269,869	121,008
60,174	-17,156	269,686	120,965
61,188	-17,178	269,339	120,778
62,203	-17,032	269,042	120,768
63,217	-16,982	268,980	120,776
64,232	-17,147	268,551	120,420
65,247	-17,176	268,499	120,360
66,261	-17,125	268,091	120,213
67,276	-16,991	267,872	120,227
68,290	-17,104	267,810	120,085
69,305	-17,108	267,689	120,016
70,320	-17,023	267,429	119,967
71,334	-16,848	267,052	119,947
72,349	-17,133	266,867	119,593
73,363	-16,979	266,412	119,518
74,378	-16,972	266,199	119,418
75,393	-17,053	266,191	119,331
76,407	-17,152	266,013	119,150
77,422	-16,889	265,867	119,313
78,436	-17,163	265,518	118,898
79,451	-17,005	265,337	118,949
80,466	-17,175	264,912	118,594
81,480	-17,052	264,880	118,681
82,495	-17,048	264,593	118,544
83,509	-17,014	264,384	118,472
84,524	-17,032	264,176	118,352
85,539	-16,942	263,917	118,305
86,553	-17,192	263,777	118,007
87,568	-17,005	263,734	118,146
88,582	-17,116	263,291	117,837
89,597	-16,990	263,189	117,895
90,611	-17,181	263,006	117,630
91,626	-17,035	262,795	117,657
92,641	-16,948	262,607	117,639
93,655	-17,057	262,451	117,462
94,670	-16,980	262,078	117,353
95,684	-16,983	261,941	117,279
96,699	-17,057	261,567	117,035
97,714	-16,833	261,411	117,154
98,728	-17,002	261,504	117,035
99,743	-16,977	261,081	116,857
100,757	-17,092	260,990	116,704
101,772	-17,003	260,498	116,553
102,787	-17,107	260,482	116,443
103,801	-16,945	260,319	116,503
104,816	-17,220	260,017	116,114
105,830	-16,974	259,970	116,300
106,845	-16,791	259,627	116,298
107,860	-16,981	259,552	116,087
108,874	-17,006	259,111	115,857
109,889	-17,049	259,029	115,772
110,903	-17,052	258,879	115,692
111,918	-16,962	258,595	115,634
112,933	-17,239	258,594	115,379
113,947	-16,953	258,133	115,415
114,962	-16,993	258,116	115,361
115,976	-16,942	257,834	115,270
116,991	-16,991	257,643	115,131
118,006	-17,036	257,461	115,000
119,020	-16,997	257,423	115,007
120,035	-16,981	257,065	114,851
121,049	-16,992	257,036	114,818
122,064	-16,919	256,815	114,773
123,079	-17,032	256,526	114,535
124,093	-17,057	256,220	114,367
125,108	-17,132	256,172	114,269
126,122	-16,861	255,918	114,382
127,137	-17,053	255,906	114,199
128,151	-17,007	255,611	114,097
129,166	-16,972	255,264	113,963
130,181	-16,960	255,281	113,971
131,195	-16,817	254,873	113,902
132,210	-16,886	254,715	113,761
133,224	-16,904	254,474	113,628
134,239	-17,105	254,386	113,405
135,254	-17,048	254,159	113,343
136,268	-16,905	253,972	113,372
137,283	-16,899	253,787	113,285
138,297	-16,816	253,445	113,194
139,312	-17,028	253,438	112,998
140,327	-16,816	253,072	113,007
141,341	-17,021	252,884	112,737
142,356	-16,928	252,737	112,741
143,370	-16,928	252,559	112,652
144,385	-17,016	252,409	112,500
145,400	-16,886	252,155	112,487
146,414	-17,055	251,942	112,238
147,429	-17,087	251,872	112,170
148,443	-17,137	251,645	112,016
149,458	-16,921	251,437	112,097
150,473	-17,123	251,328	111,866
151,487	-17,030	251,135	111,850
152,502	-16,783	250,804	111,902
153,516	-16,971	250,705	111,689
154,531	-16,981	250,468	111,564
155,546	-17,036	250,322	111,443
156,560	-16,928	250,156	111,451
157,575	-16,967	249,877	111,283
158,589	-16,898	249,610	111,213
159,604	-17,141	249,693	111,034
160,619	-16,967	249,350	111,019
161,633	-16,966	249,235	110,959
162,648	-16,945	249,075	110,895
163,662	-16,861	248,915	110,885
164,677	-16,977	248,751	110,704
165,692	-16,909	248,639	110,702
166,706	-16,950	248,439	110,568
167,721	-17,204	248,214	110,245
168,735	-16,969	247,934	110,308
169,750	-16,893	247,803	110,303
170,764	-17,017	247,817	110,196
171,779	-16,788	247,488	110,231
172,794	-16,962	247,522	110,091
173,808	-17,192	247,272	109,778
174,823	-16,797	247,099	110,021
175,837	-16,906	246,826	109,799
176,852	-16,775	246,597	109,796
177,867	-16,870	246,498	109,664
178,881	-16,800	246,256	109,604
179,896	-16,881	246,102	109,459
180,910	-16,909	245,993	109,377
181,925	-16,858	245,641	109,253
182,940	-16,830	245,544	109,224
183,954	-17,067	245,478	108,988
184,969	-16,909	245,092	108,938
185,983	-16,791	245,125	109,041
186,998	-16,745	244,896	108,967
188,013	-16,988	244,662	108,652
189,027	-16,927	244,578	108,656
190,042	-16,897	244,417	108,599
191,056	-17,005	244,240	108,421
192,071	-16,924	243,971	108,359
193,086	-16,791	243,811	108,388
194,100	-16,834	243,583	108,242
195,115	-16,867	243,478	108,158
196,129	-17,137	243,390	107,888
197,144	-17,040	243,043	107,804
198,159	-16,795	242,821	107,896
199,173	-16,938	242,713	107,722
200,188	-16,841	242,600	107,741
201,202	-16,726	242,391	107,733
202,217	-16,878	242,135	107,485
203,232	-16,636	241,927	107,581
204,246	-16,969	241,814	107,250
205,261	-16,954	241,766	107,231
206,275	-15,736	242,206	108,412
207,290	-10,522	243,795	113,396
208,304	-4,516	245,887	119,323
209,319	-1,870	246,339	121,718
210,334	-0,961	246,757	122,666
211,348	0,124	246,903	123,624
212,363	0,832	246,803	124,147
213,377	1,181	246,910	124,478
214,392	1,363	246,889	124,607
215,407	1,637	246,770	124,762
216,421	1,634	246,502	124,613
217,436	1,827	246,529	124,774
218,450	1,695	246,431	124,604
219,465	1,973	246,033	124,621
220,480	1,559	245,984	124,245
221,494	1,632	245,614	124,107
222,509	1,118	245,383	123,557
223,523	0,982	245,278	123,382
224,538	1,061	244,954	123,273
225,553	0,895	244,811	123,054
226,567	0,882	244,582	122,918
227,582	0,866	244,500	122,852
228,596	0,773	244,412	122,721
229,611	0,945	244,142	122,715
230,626	0,867	244,058	122,598
231,640	0,931	243,844	122,532
232,655	0,991	243,651	122,473
233,669	0,843	243,493	122,262
234,684	0,839	243,423	122,212
235,699	0,741	243,376	122,099
236,713	0,841	243,161	122,061
237,728	0,944	242,942	122,024
238,742	0,841	242,785	121,851
239,757	0,992	242,633	121,885
240,772	0,890	242,365	121,658
241,786	0,817	242,379	121,594
242,801	0,880	242,148	121,519
243,815	0,843	241,881	121,344
244,830	0,635	241,888	121,169
245,844	0,976	241,567	121,272
246,859	0,842	241,506	121,123
247,874	0,792	241,386	121,012
248,888	0,847	241,113	120,909
249,903	0,949	240,993	120,919
250,917	0,865	240,782	120,735
251,932	1,093	240,750	120,891
252,947	0,813	240,583	120,572
253,961	0,934	240,353	120,543
254,976	0,772	240,252	120,352
255,990	0,907	240,013	120,329
257,005	0,869	239,949	120,256
258,020	0,954	239,796	120,236
259,034	1,066	239,535	120,185
260,049	0,923	239,477	120,031
261,063	0,960	239,373	119,997
262,078	0,668	239,205	119,670
263,093	0,697	239,109	119,634
264,107	0,848	238,752	119,565
265,122	0,811	238,618	119,457
266,136	1,048	238,533	119,593
267,151	0,809	238,382	119,317
268,166	1,072	238,183	119,416
269,180	0,742	237,997	119,050
270,195	0,883	238,085	119,195
271,209	0,765	237,794	118,945
272,224	0,912	237,554	118,931
273,239	0,941	237,424	118,878
274,253	0,794	237,344	118,711
275,268	0,901	237,044	118,635
276,282	1,040	236,971	118,697
277,297	0,893	236,782	118,476
278,312	0,976	236,675	118,477
279,326	0,756	236,624	118,268
280,341	0,974	236,331	118,282
281,355	0,878	236,254	118,158
282,370	1,056	236,044	118,182
283,384	0,957	235,847	117,996
284,399	0,733	235,813	117,793
285,414	0,616	235,657	117,612
286,428	0,780	235,548	117,676
287,443	0,885	235,347	117,647
288,457	0,781	235,230	117,497
289,472	1,088	234,993	117,608
290,487	0,993	234,760	117,407
291,501	0,898	234,697	117,290
292,516	0,806	234,574	117,147
293,530	0,829	234,371	117,053
294,545	1,172	234,263	117,255
295,560	0,991	234,024	116,985
296,574	1,050	233,888	116,952
297,589	1,094	233,840	116,951
298,603	1,027	233,755	116,846
299,618	1,142	233,445	116,771
300,633	1,097	233,504	116,755
301,647	1,022	233,324	116,596
302,662	1,135	233,224	116,623
303,676	1,117	232,918	116,446
304,691	1,282	232,691	116,449
305,706	1,247	232,718	116,425
306,720	1,114	232,530	116,219
307,735	1,119	232,399	116,146
308,749	1,111	232,192	116,027
309,764	1,028	232,090	115,901
310,779	0,932	231,985	115,765
311,793	1,235	231,817	115,904
312,808	1,018	231,712	115,673
313,822	1,124	231,487	115,632
314,837	1,108	231,360	115,546
315,852	1,186	231,225	115,529
316,866	1,315	230,949	115,479
317,881	1,279	230,850	115,392
318,895	1,263	230,931	115,410
319,910	1,278	230,669	115,280
320,925	1,148	230,545	115,108
321,939	1,015	230,241	114,846
322,954	1,165	230,302	114,979
323,968	1,030	230,085	114,758
324,983	1,177	229,928	114,781
325,997	1,273	229,582	114,671
327,012	1,100	229,506	114,492
328,027	1,141	229,455	114,487
329,041	1,118	229,439	114,451
330,056	1,118	229,128	114,286
331,070	1,321	229,042	114,387
332,085	1,153	228,837	114,147
333,100	1,183	228,653	114,068
334,114	1,195	228,455	113,969
335,129	1,020	228,266	113,732
336,143	1,042	228,288	113,749
337,158	1,266	228,160	113,844
338,173	1,225	227,894	113,670
339,187	1,213	227,825	113,617
340,202	1,200	227,677	113,523
341,216	1,315	227,404	113,463
342,231	0,979	227,349	113,173
343,246	1,096	227,303	113,228
344,260	0,990	227,172	113,073
345,275	1,295	226,898	113,155
346,289	1,279	226,867	113,118
347,304	1,207	226,625	112,933
348,319	1,208	226,527	112,875
349,333	1,293	226,218	112,775
350,348	1,311	226,254	112,796
351,362	1,509	226,043	112,829
352,377	1,223	226,020	112,593
353,392	1,272	225,790	112,505
354,406	1,347	225,517	112,415
355,421	190,833	1313,882	1376,282
356,435	152,792	1446,356	1376,122
