DTS Sentinel unit serial number:	SN410029Multiplexer serial number:	ORYXHardware model number:	OX2-SRSoftware version number:	ORYX F/W v4,00 Oryx Data Collector v3.7.2.0data status	okinstallation	B5 Nyhavnadifferential loss correction	single-endedforward channel	channel 2reverse channel	N/Adate	2023/12/14time	09:17:13forward acquisition time	300,00reverse acquisition time	0,00gamma	499,1914k internal	0,3161k external	0,3161temperature offset calibration	1,0000default loss term (dB/km)	0,3820temperature slope calibration	1,0000multiplexer offset coefficient	1,0000multiplexer slope coefficient	1,0000fibre end	0,00T internal ref (°C)	6,97T ext. ref 1 (°C)	-9,24T ext. ref 2 (°C)	-9,31length (m)	temperature (°C)	Stokes	anti-Stokes-744,400	257,336	0,062	0,079
-743,385	-141,258	-0,188	-0,014
-742,371	50,298	0,199	0,138
-741,356	-81,110	-0,320	-0,077
-740,342	800,000	0,058	0,125
-739,327	-49,377	-0,428	-0,150
-738,312	-155,615	0,131	-0,006
-737,298	-31,814	-0,320	-0,132
-736,283	-200,000	0,008	0,149
-735,269	-100,787	-0,293	-0,053
-734,254	27,919	0,227	0,141
-733,239	54,290	-0,487	-0,345
-732,225	-198,635	0,231	0,001
-731,210	-145,608	-0,164	0,011
-730,196	800,000	0,041	-0,122
-729,181	-63,005	-0,076	0,023
-728,167	25,269	-0,069	-0,042
-727,152	483,417	-0,027	0,046
-726,137	-89,381	-0,192	0,041
-725,123	800,000	-0,015	-0,038
-724,108	41,240	-0,111	-0,074
-723,094	80,438	-0,064	-0,051
-722,079	606,124	-0,095	-0,174
-721,064	-200,000	-0,003	-0,100
-720,050	-200,000	-0,003	0,136
-719,035	116,362	0,034	-0,030
-718,021	2,980	-0,074	-0,040
-717,006	-200,000	0,005	-0,024
-715,991	391,455	0,034	-0,052
-714,977	3,229	-0,148	-0,079
-713,962	-70,954	0,100	0,027
-712,948	-2,456	-0,028	-0,014
-711,933	-200,000	-0,002	-0,123
-710,918	-173,799	-0,063	0,001
-709,904	49,778	-0,144	-0,100
-708,889	129,699	-0,084	-0,079
-707,875	456,477	-0,075	-0,122
-706,860	126,581	0,178	-0,165
-705,845	30,509	0,079	0,050
-704,831	224,791	-0,087	0,103
-703,816	722,008	0,021	-0,040
-702,802	-162,889	-0,078	-0,003
-701,787	-135,139	-0,199	-0,017
-700,772	211,124	-0,078	-0,091
-699,758	2,491	0,017	-0,009
-698,743	-200,000	-0,027	-0,115
-697,729	800,000	0,062	0,139
-696,714	-200,000	0,026	0,000
-695,699	-119,227	-0,148	0,019
-694,685	40,849	-0,072	-0,048
-693,670	194,686	-0,129	-0,144
-692,656	-158,453	0,022	0,001
-691,641	231,429	-0,034	-0,042
-690,627	-200,000	0,027	0,144
-689,612	114,288	0,013	-0,012
-688,597	-53,500	-0,127	-0,043
-687,583	-20,366	-0,236	-0,106
-686,568	379,578	0,051	-0,076
-685,554	-26,541	-0,126	-0,054
-684,539	-68,742	0,126	0,036
-683,524	237,456	-0,037	0,045
-682,510	-86,219	0,042	0,009
-681,495	306,560	-0,065	0,089
-680,481	-200,000	-0,009	0,053
-679,466	284,817	-0,115	0,152
-678,451	98,647	0,025	0,021
-677,437	-200,000	-0,012	0,139
-676,422	-200,000	-0,066	0,214
-675,408	800,000	-0,088	0,182
-674,393	-32,216	-0,045	-0,019
-673,378	-200,000	-0,024	-0,095
-672,364	321,231	0,046	0,064
-671,349	-154,982	-0,044	-0,002
-670,335	-200,000	0,022	0,075
-669,320	124,824	0,053	-0,049
-668,305	395,537	-0,052	0,079
-667,291	469,484	0,009	-0,015
-666,276	-195,943	0,011	0,000
-665,262	127,137	-0,085	0,079
-664,247	-200,000	-0,009	-0,089
-663,232	163,249	0,095	-0,099
-662,218	800,000	-0,027	0,076
-661,203	-97,760	-0,031	0,006
-660,189	800,000	0,049	0,130
-659,174	380,771	-0,041	-0,062
-658,159	-7,067	0,033	-0,016
-657,145	176,742	-0,058	-0,062
-656,130	-200,000	0,008	-0,107
-655,116	-83,692	0,129	-0,030
-654,101	800,000	-0,037	0,095
-653,086	-200,000	-0,005	0,048
-652,072	-87,362	-0,056	0,012
-651,057	78,353	-0,119	0,094
-650,043	259,857	-0,065	-0,083
-649,028	357,927	0,062	-0,091
-648,014	20,044	0,078	0,046
-646,999	418,698	-0,052	0,083
-645,984	800,000	0,052	-0,141
-644,970	310,343	0,052	0,071
-643,955	-89,331	-0,104	-0,022
-642,941	258,302	0,029	-0,037
-641,926	800,000	-0,029	0,072
-640,911	-106,034	0,027	0,004
-639,897	-200,000	-0,005	-0,019
-638,882	-200,000	0,008	0,087
-637,868	-43,446	-0,018	-0,007
-636,853	89,307	0,014	0,012
-635,838	-41,147	0,141	-0,053
-634,824	-200,000	0,013	0,138
-633,809	711,332	-0,042	0,081
-632,795	-3,131	0,065	0,033
-631,780	-30,666	-0,071	-0,030
-630,765	283,224	-0,039	0,052
-629,751	-165,794	-0,096	0,003
-628,736	14,335	-0,125	-0,072
-627,722	-87,117	-0,074	-0,016
-626,707	-200,000	0,015	0,103
-625,692	243,759	0,088	0,109
-624,678	-200,000	0,001	0,064
-623,663	360,261	-0,028	0,041
-622,649	-200,000	-0,019	-0,080
-621,634	-94,231	-0,061	0,012
-620,619	-35,939	0,070	-0,028
-619,605	-145,223	0,049	0,003
-618,590	-150,110	0,020	-0,001
-617,576	-200,000	-0,069	-0,231
-616,561	268,221	0,015	-0,019
-615,546	-115,735	-0,068	-0,009
-614,532	47,734	-0,129	-0,088
-613,517	-200,000	0,001	-0,202
-612,503	318,911	0,022	-0,031
-611,488	-200,000	0,002	-0,048
-610,474	48,854	-0,035	-0,024
-609,459	-110,465	-0,114	-0,017
-608,444	139,784	-0,104	-0,101
-607,430	331,333	-0,073	-0,103
-606,415	553,485	-0,079	-0,140
-605,401	-64,874	-0,096	0,028
-604,386	216,081	-0,055	-0,064
-603,371	192,568	0,085	0,094
-602,357	-103,178	-0,051	0,009
-601,342	-200,000	-0,013	-0,138
-600,328	-200,000	0,023	-0,101
-599,313	86,876	0,068	0,055
-598,298	-105,194	-0,131	0,022
-597,284	562,665	0,066	0,117
-596,269	-62,106	-0,111	-0,034
-595,255	324,149	-0,078	-0,109
-594,240	800,000	-0,043	-0,097
-593,225	-121,755	-0,134	0,016
-592,211	245,183	0,080	-0,099
-591,196	-67,385	0,128	0,036
-590,182	-16,010	0,080	-0,037
-589,167	800,000	0,037	0,080
-588,152	239,853	0,031	0,038
-587,138	-106,292	0,119	-0,019
-586,123	-90,044	-0,059	-0,012
-585,109	320,850	-0,105	-0,146
-584,094	517,663	-0,051	0,088
-583,079	800,000	0,048	0,149
-582,065	288,563	0,067	-0,089
-581,050	593,239	-0,041	0,074
-580,036	-200,000	0,013	0,087
-579,021	347,697	-0,039	0,056
-578,006	-200,000	-0,003	-0,059
-576,992	-116,784	-0,114	-0,015
-575,977	-148,180	0,028	-0,002
-574,963	193,004	0,137	0,152
-573,948	399,535	-0,017	-0,026
-572,934	114,383	-0,063	-0,056
-571,919	-15,452	-0,119	-0,055
-570,904	56,434	-0,065	-0,046
-569,890	82,316	-0,072	-0,057
-568,875	800,000	0,026	0,061
-567,861	2,548	0,147	0,077
-566,846	356,609	0,050	0,073
-565,831	800,000	0,017	0,039
-564,817	44,242	0,068	-0,046
-563,802	72,288	0,013	-0,010
-562,788	324,468	-0,049	-0,069
-561,773	658,290	-0,035	0,066
-560,758	128,392	0,042	-0,039
-559,744	-123,231	-0,052	-0,006
-558,729	-200,000	0,038	0,128
-557,715	-158,620	-0,064	0,003
-556,700	-200,000	0,020	-0,156
-555,685	-79,251	-0,049	0,012
-554,671	67,493	-0,071	-0,053
-553,656	-200,000	-0,017	-0,098
-552,642	77,824	0,105	-0,082
-551,627	104,145	0,040	0,034
-550,612	116,720	-0,149	0,134
-549,598	-13,631	-0,075	-0,035
-548,583	-8,339	0,038	-0,019
-547,569	-186,961	-0,158	-0,002
-546,554	-84,937	-0,136	-0,031
-545,539	-10,182	-0,054	0,026
-544,525	-200,000	0,008	-0,034
-543,510	286,134	0,032	-0,043
-542,496	401,453	-0,050	-0,077
-541,481	574,063	-0,013	-0,023
-540,466	96,209	0,054	-0,045
-539,452	-23,102	-0,250	0,110
-538,437	800,000	0,052	0,166
-537,423	588,309	-0,047	0,086
-536,408	141,881	-0,116	-0,112
-535,393	-200,000	-0,007	-0,109
-534,379	93,338	0,067	0,055
-533,364	-17,071	0,067	-0,031
-532,350	-140,517	0,102	0,008
-531,335	-200,000	0,009	-0,052
-530,321	86,691	0,094	0,076
-529,306	-151,929	-0,075	0,004
-528,291	-64,767	-0,017	-0,005
-527,277	-200,000	0,004	-0,176
-526,262	-200,000	0,002	-0,047
-525,248	84,989	0,045	0,036
-524,233	98,747	0,102	0,086
-523,218	-200,000	-0,018	0,095
-522,204	491,121	-0,004	-0,006
-521,189	106,133	-0,037	-0,032
-520,175	800,000	-0,043	-0,105
-519,160	-131,715	0,091	-0,009
-518,145	84,013	-0,141	0,112
-517,131	1,860	0,089	0,046
-516,116	92,045	-0,065	0,053
-515,102	-36,852	-0,151	0,059
-514,087	800,000	-0,049	-0,138
-513,072	-123,746	-0,115	-0,013
-512,058	634,381	0,027	0,051
-511,043	-161,916	0,046	0,002
-510,029	24,433	0,062	0,038
-509,014	-200,000	-0,021	-0,088
-507,999	553,754	-0,027	0,047
-506,985	19,392	0,094	-0,055
-505,970	-200,000	-0,019	-0,092
-504,956	-200,000	-0,000	-0,054
-503,941	-136,817	0,113	-0,009
-502,926	-131,245	0,202	0,019
-501,912	-200,000	0,012	0,122
-500,897	-145,932	-0,101	0,006
-499,883	161,030	0,029	-0,029
-498,868	116,988	0,093	-0,084
-497,853	-200,000	-0,037	-0,147
-496,839	469,279	0,057	-0,095
-495,824	543,493	0,022	-0,039
-494,810	-137,286	0,087	0,007
-493,795	289,214	-0,051	-0,068
-492,781	743,711	0,076	0,149
-491,766	129,327	-0,070	0,065
-490,751	-200,000	-0,007	-0,048
-489,737	361,772	0,085	0,125
-488,722	-113,568	0,072	0,010
-487,708	429,078	0,063	-0,099
-486,693	-200,000	0,016	0,181
-485,678	-139,009	-0,116	-0,009
-484,664	292,568	0,012	-0,016
-483,649	5,897	0,088	-0,047
-482,635	-200,000	-0,011	-0,087
-481,620	800,000	-0,053	-0,122
-480,605	-20,319	0,103	-0,046
-479,591	-103,403	-0,108	0,018
-478,576	800,000	0,043	-0,116
-477,562	154,278	-0,069	-0,069
-476,547	34,855	-0,120	-0,076
-475,532	176,471	0,083	-0,088
-474,518	52,108	-0,070	0,049
-473,503	800,000	-0,012	0,026
-472,489	291,210	0,123	0,164
-471,474	-11,706	-0,014	0,007
-470,459	-200,000	0,021	0,107
-469,445	265,419	-0,032	0,041
-468,430	56,134	-0,029	0,021
-467,416	190,504	0,067	0,073
-466,401	-35,112	0,106	0,042
-465,386	-30,555	-0,037	0,015
-464,372	460,152	-0,091	0,147
-463,357	-200,000	-0,040	-0,129
-462,343	208,060	-0,101	-0,115
-461,328	-200,000	0,004	-0,118
-460,313	-46,442	-0,046	-0,016
-459,299	41,281	-0,067	0,044
-458,284	-200,000	-0,008	0,071
-457,270	63,613	-0,123	-0,090
-456,255	748,330	-0,054	0,106
-455,241	-116,829	0,029	-0,004
-454,226	-89,121	0,073	0,016
-453,211	-47,649	0,186	0,065
-452,197	290,230	0,081	-0,107
-451,182	14,563	0,064	-0,036
-450,168	257,881	0,028	0,036
-449,153	-61,915	-0,148	0,045
-448,138	-151,161	0,154	-0,008
-447,124	-100,527	-0,091	0,016
-446,109	-137,974	-0,088	-0,007
-445,095	66,773	0,061	0,045
-444,080	129,201	-0,048	-0,044
-443,065	529,436	-0,081	-0,139
-442,051	-31,166	-0,064	-0,026
-441,036	-18,737	-0,048	-0,022
-440,022	104,105	0,082	-0,070
-439,007	-200,000	-0,021	-0,089
-437,992	107,336	0,065	-0,056
-436,978	109,950	0,062	-0,054
-435,963	283,311	0,053	0,069
-434,949	367,652	-0,016	0,024
-433,934	800,000	0,031	-0,087
-432,919	-101,392	-0,132	-0,023
-431,905	-200,000	-0,001	0,115
-430,890	94,622	0,138	0,114
-429,876	-88,784	0,045	-0,010
-428,861	-165,466	-0,092	-0,003
-427,846	-200,000	0,005	-0,101
-426,832	214,366	-0,085	0,098
-425,817	800,000	0,056	-0,113
-424,803	800,000	-0,051	-0,112
-423,788	-200,000	0,004	-0,083
-422,773	103,358	0,136	-0,116
-421,759	-200,000	0,015	0,109
-420,744	800,000	-0,012	0,032
-419,730	97,088	-0,093	-0,078
-418,715	-200,000	0,004	0,080
-417,701	330,634	0,061	-0,086
-416,686	516,765	0,008	-0,014
-415,671	110,687	-0,071	0,062
-414,657	800,000	-0,058	0,123
-413,642	-109,993	0,077	-0,012
-412,628	-200,000	-0,034	0,150
-411,613	-76,220	-0,052	0,013
-410,598	-200,000	0,002	-0,147
-409,584	-200,000	0,041	-0,184
-408,569	800,000	-0,038	0,118
-407,555	206,018	-0,081	0,091
-406,540	71,001	0,050	0,038
-405,525	98,406	-0,100	0,083
-404,511	-61,525	0,156	0,047
-403,496	412,366	0,061	0,095
-402,482	624,973	0,028	0,052
-401,467	-200,000	0,009	0,073
-400,452	580,145	0,045	0,080
-399,438	800,000	0,053	0,111
-398,423	-82,975	0,134	0,031
-397,409	674,448	0,021	0,039
-396,394	-200,000	0,002	-0,033
-395,379	399,278	0,023	-0,035
-394,365	-54,097	0,109	-0,036
-393,350	800,000	0,025	-0,080
-392,336	-200,000	-0,006	0,022
-391,321	7,309	0,065	-0,035
-390,306	167,218	-0,005	0,006
-389,292	117,543	0,055	-0,049
-388,277	-200,000	0,017	0,093
-387,263	800,000	0,057	0,119
-386,248	370,663	0,024	0,036
-385,233	215,071	0,020	-0,023
-384,219	101,139	0,076	0,065
-383,204	-200,000	-0,006	0,067
-382,190	147,361	0,068	-0,066
-381,175	-155,724	-0,086	-0,004
-380,160	39,236	0,159	0,103
-379,146	298,765	-0,050	0,067
-378,131	737,556	-0,033	0,064
-377,117	102,456	-0,159	-0,135
-376,102	-35,288	0,006	0,002
-375,088	-200,000	0,002	0,007
-374,073	294,776	-0,118	-0,157
-373,058	38,614	-0,035	-0,023
-372,044	129,160	0,036	-0,034
-371,029	53,319	0,094	0,065
-370,015	-59,902	0,098	0,030
-369,000	-72,799	-0,082	0,022
-367,985	196,414	0,033	-0,036
-366,971	-200,000	-0,002	-0,014
-365,956	501,881	0,056	-0,094
-364,942	-47,384	0,095	-0,033
-363,927	117,959	-0,033	0,030
-362,912	-0,371	0,079	-0,041
-361,898	-200,000	-0,004	-0,018
-360,883	-200,000	-0,044	-0,145
-359,869	800,000	0,022	-0,065
-358,854	-35,717	-0,185	0,072
-357,839	75,398	0,054	0,041
-356,825	800,000	-0,056	0,143
-355,810	-147,509	0,099	-0,006
-354,796	205,669	-0,065	-0,073
-353,781	-84,669	0,082	0,019
-352,766	152,335	0,012	-0,012
-351,752	-121,585	-0,059	0,007
-350,737	800,000	-0,025	-0,079
-349,723	7,265	0,100	-0,054
-348,708	-200,000	0,027	0,110
-347,693	44,650	-0,080	-0,053
-346,679	800,000	0,080	-0,182
-345,664	800,000	-0,029	0,059
-344,650	73,178	0,091	-0,069
-343,635	604,884	-0,008	-0,014
-342,620	78,885	0,110	0,085
-341,606	273,534	0,063	-0,081
-340,591	-97,300	-0,108	0,020
-339,577	-200,000	-0,040	0,193
-338,562	159,685	-0,030	-0,031
-337,548	150,341	-0,045	-0,044
-336,533	-109,605	0,055	-0,008
-335,518	41,676	-0,066	0,043
-334,504	-200,000	-0,021	0,087
-333,489	-200,000	0,005	-0,018
-332,475	-200,000	-0,020	-0,122
-331,460	-90,982	-0,104	0,021
-330,445	-200,000	-0,019	0,065
-329,431	-130,911	0,038	-0,004
-328,416	-85,662	0,213	0,048
-327,402	-176,552	0,039	-0,001
-326,387	800,000	0,007	-0,016
-325,372	648,806	-0,062	-0,115
-324,358	-1,923	-0,078	-0,040
-323,343	800,000	0,051	-0,119
-322,329	171,795	-0,018	-0,019
-321,314	18,074	-0,091	0,052
-320,299	291,155	0,058	-0,076
-319,285	65,122	-0,046	0,033
-318,270	-55,855	-0,024	0,008
-317,256	800,000	0,043	-0,125
-316,241	501,748	-0,017	0,028
-315,226	-49,311	0,053	0,018
-314,212	-38,386	-0,058	0,022
-313,197	330,992	-0,080	-0,113
-312,183	381,011	0,026	-0,039
-311,168	142,058	-0,161	0,155
-310,153	-80,653	0,050	0,012
-309,139	-200,000	-0,005	0,053
-308,124	-200,000	-0,005	0,049
-307,110	46,904	0,056	-0,038
-306,095	-200,000	0,057	0,208
-305,080	-23,202	-0,096	-0,042
-304,066	-59,014	-0,039	0,012
-303,051	-118,176	-0,110	0,014
-302,037	-31,976	0,050	0,020
-301,022	-131,862	-0,098	0,009
-300,008	239,789	-0,029	0,035
-298,993	-69,457	0,068	0,019
-297,978	-7,586	-0,033	0,016
-296,964	800,000	-0,017	0,048
-295,949	-34,532	-0,113	-0,045
-294,935	800,000	0,038	0,083
-293,920	-200,000	-0,002	-0,020
-292,905	189,594	0,079	0,086
-291,891	205,166	-0,086	-0,097
-290,876	-200,000	-0,000	0,128
-289,862	800,000	0,063	-0,160
-288,847	-200,000	0,007	-0,056
-287,832	-200,000	-0,031	0,119
-286,818	-200,000	-0,024	0,094
-285,803	-60,474	0,053	-0,016
-284,789	-139,813	-0,064	-0,005
-283,774	442,260	0,078	-0,124
-282,759	126,480	0,097	0,089
-281,745	-200,000	-0,016	0,113
-280,730	64,200	-0,048	-0,035
-279,716	800,000	-0,012	-0,025
-278,701	277,823	0,099	0,128
-277,686	-119,835	-0,036	0,004
-276,672	-98,016	0,088	-0,016
-275,657	-174,807	-0,062	-0,001
-274,643	-81,567	0,194	-0,046
-273,628	-200,000	-0,035	0,161
-272,613	-200,000	0,004	0,079
-271,599	-45,402	0,065	0,023
-270,584	-200,000	-0,005	0,071
-269,570	-12,675	-0,097	0,046
-268,555	315,065	0,105	-0,144
-267,540	680,584	-0,046	-0,088
-266,526	266,962	-0,147	-0,186
-265,511	-200,000	0,026	-0,104
-264,497	-24,914	0,056	-0,024
-263,482	-71,451	0,032	-0,009
-262,467	-117,757	0,015	0,002
-261,453	800,000	0,010	0,022
-260,438	-52,310	0,045	-0,015
-259,424	-11,722	-0,049	-0,023
-258,409	-200,000	-0,019	-0,062
-257,395	-200,000	-0,010	-0,038
-256,380	-120,292	0,072	0,009
-255,365	-200,000	0,043	0,150
-254,351	65,757	-0,087	0,063
-253,336	-200,000	0,023	-0,115
-252,322	-121,797	-0,081	-0,010
-251,307	800,000	-0,008	0,018
-250,292	596,677	-0,066	-0,119
-249,278	-107,258	0,060	0,009
-248,263	58,829	0,093	0,066
-247,249	-200,000	0,000	0,135
-246,234	362,805	0,091	-0,133
-245,219	-36,687	-0,071	-0,027
-244,205	800,000	0,036	-0,081
-243,190	39,359	-0,028	0,018
-242,176	179,208	-0,018	-0,019
-241,161	-200,000	0,000	-0,036
-240,146	-186,689	-0,158	0,002
-239,132	-200,000	-0,003	-0,068
-238,117	13,519	-0,051	-0,029
-237,103	131,204	-0,091	0,084
-236,088	348,273	-0,043	-0,061
-235,073	-128,324	0,079	0,008
-234,059	-33,042	0,253	0,101
-233,044	-72,651	-0,021	-0,006
-232,030	-94,499	-0,113	0,022
-231,015	-5,714	-0,158	-0,078
-230,000	-198,934	0,043	-0,000
-228,986	356,431	0,066	0,095
-227,971	55,476	0,118	-0,083
-226,957	83,584	0,121	0,095
-225,942	800,000	-0,030	0,090
-224,927	70,073	0,082	-0,061
-223,913	-193,367	-0,079	0,000
-222,898	800,000	-0,046	-0,103
-221,884	611,141	0,053	0,096
-220,869	800,000	-0,066	0,158
-219,855	800,000	-0,041	-0,127
-218,840	-36,972	-0,116	0,045
-217,825	-200,000	0,020	0,108
-216,811	-131,927	0,021	-0,002
-215,796	-43,743	-0,057	0,021
-214,782	800,000	-0,044	0,090
-213,767	800,000	0,004	-0,011
-212,752	-116,962	0,071	0,009
-211,738	370,333	0,061	0,090
-210,723	-200,000	0,030	0,170
-209,709	313,349	-0,014	-0,019
-208,694	35,920	0,036	-0,023
-207,679	-166,388	-0,045	0,001
-206,665	516,515	0,023	-0,038
-205,650	-169,275	-0,093	-0,002
-204,636	31,711	0,079	0,049
-203,621	58,425	0,196	0,138
-202,606	-16,814	-0,106	-0,048
-201,592	13,553	0,095	-0,053
-200,577	375,749	0,037	0,055
-199,563	800,000	0,023	0,050
-198,548	-200,000	0,031	0,186
-197,533	-200,000	-0,031	0,189
-196,519	-200,000	0,036	-0,122
-195,504	-200,000	-0,030	-0,135
-194,490	-35,590	0,018	0,007
-193,475	-151,866	-0,124	0,006
-192,460	-96,726	-0,103	0,019
-191,446	414,369	0,018	0,028
-190,431	15,228	0,128	0,072
-189,417	135,967	-0,083	0,078
-188,402	108,224	0,137	0,118
-187,387	-42,916	-0,061	-0,022
-186,373	146,794	-0,134	-0,130
-185,358	-23,216	-0,009	-0,004
-184,344	-80,680	-0,078	0,019
-183,329	241,236	0,101	0,121
-182,315	-200,000	-0,009	0,090
-181,300	-49,770	-0,109	0,037
-180,285	6,888	0,029	0,015
-179,271	552,598	0,024	-0,042
-178,256	267,727	0,052	0,066
-177,242	-200,000	-0,036	0,137
-176,227	132,780	0,077	-0,072
-175,212	800,000	-0,052	-0,108
-174,198	-125,118	0,063	0,007
-173,183	300,272	-0,022	0,029
-172,169	-157,279	0,127	-0,005
-171,154	272,681	0,115	0,147
-170,139	-49,390	0,105	0,036
-169,125	164,258	0,065	-0,066
-168,110	-0,794	0,040	-0,021
-167,096	-115,642	-0,067	-0,009
-166,081	-107,327	-0,101	0,016
-165,066	-200,000	-0,011	0,050
-164,052	-200,000	0,006	-0,084
-163,037	267,678	-0,057	0,072
-162,023	255,968	0,091	0,112
-161,008	318,509	0,027	-0,036
-159,993	201,415	0,127	-0,141
-158,979	800,000	0,058	-0,128
-157,964	-158,017	-0,084	0,004
-156,950	-31,604	-0,061	-0,025
-155,935	33,385	-0,013	-0,008
-154,920	-200,000	0,037	-0,123
-153,906	261,413	-0,031	-0,039
-152,891	6,295	0,091	0,049
-151,877	800,000	-0,074	0,166
-150,862	-116,716	0,111	0,015
-149,847	241,414	-0,077	0,092
-148,833	800,000	0,013	-0,032
-147,818	-160,890	-0,077	0,003
-146,804	-200,000	0,004	-0,075
-145,789	-200,000	-0,044	-0,194
-144,775	-130,377	0,099	0,010
-143,760	-60,834	-0,099	0,030
-142,745	-200,000	-0,030	-0,107
-141,731	673,169	0,038	0,071
-140,716	128,119	0,197	0,181
-139,702	279,930	0,095	0,122
-138,687	800,000	-0,034	0,102
-137,672	800,000	-0,020	-0,044
-136,658	110,195	0,071	0,061
-135,643	-39,517	0,091	0,034
-134,629	617,164	0,028	-0,051
-133,614	800,000	-0,066	0,139
-132,599	-200,000	-0,022	-0,083
-131,585	-152,712	-0,029	0,001
-130,570	50,957	-0,062	0,042
-129,556	1,736	-0,064	0,033
-128,541	800,000	0,047	0,132
-127,526	-200,000	-0,036	0,140
-126,512	-133,407	0,020	-0,002
-125,497	152,795	-0,026	0,025
-124,483	800,000	0,040	-0,094
-123,468	800,000	-0,015	-0,037
-122,453	-200,000	0,016	-0,110
-121,439	13,355	-0,125	0,070
-120,424	-200,000	0,000	0,096
-119,410	-139,298	0,126	0,010
-118,395	16,802	0,019	0,011
-117,380	-200,000	-0,045	0,227
-116,366	8,386	-0,163	0,088
-115,351	-114,820	0,063	0,008
-114,337	-113,006	-0,154	0,022
-113,322	-200,000	-0,019	-0,060
-112,307	800,000	-0,030	-0,086
-111,293	443,995	0,067	0,105
-110,278	-89,983	-0,133	0,028
-109,264	59,821	-0,049	-0,035
-108,249	232,872	0,073	0,087
-107,234	800,000	0,025	-0,076
-106,220	218,610	-0,084	0,096
-105,205	800,000	-0,047	0,135
-104,191	-200,000	0,027	0,130
-103,176	-100,410	-0,076	0,013
-102,162	82,107	-0,108	-0,084
-101,147	183,677	0,109	-0,116
-100,132	43,681	-0,137	0,090
-99,118	-200,000	0,002	-0,110
-98,103	-76,075	0,190	-0,048
-97,089	-200,000	-0,000	0,009
-96,074	100,724	0,066	0,055
-95,059	123,109	-0,043	-0,039
-94,045	154,834	0,058	0,057
-93,030	-135,531	-0,072	-0,006
-92,016	-90,366	-0,141	-0,029
-91,001	-69,638	0,121	-0,033
-89,986	-142,802	0,090	0,006
-88,972	228,592	-0,041	0,049
-87,957	91,888	0,104	0,084
-86,943	256,347	-0,057	0,071
-85,928	800,000	-0,034	-0,103
-84,913	-165,644	0,165	0,005
-83,899	800,000	-0,036	0,076
-82,884	-107,360	0,054	0,008
-81,870	-43,484	0,089	0,032
-80,855	188,033	0,053	0,057
-79,840	-200,000	0,034	-0,132
-78,826	761,361	0,047	-0,093
-77,811	-200,000	-0,005	-0,178
-76,797	42,530	-0,134	0,087
-75,782	183,831	-0,037	0,040
-74,767	116,100	0,071	-0,063
-73,753	586,861	0,056	-0,098
-72,738	242,198	-0,073	0,088
-71,724	-36,114	-0,093	0,036
-70,709	-120,183	-0,103	-0,012
-69,694	-93,550	-0,085	-0,017
-68,680	144,532	0,073	0,070
-67,665	-119,201	0,127	-0,016
-66,651	245,741	-0,012	-0,015
-65,636	-64,258	-0,135	-0,039
-64,622	43,356	-0,057	-0,037
-63,607	-65,246	-0,107	0,031
-62,592	800,000	0,034	0,101
-61,578	-200,000	0,033	0,167
-60,563	-200,000	0,002	0,086
-59,549	-156,453	-0,087	0,004
-58,534	86,695	-2,712	-2,145
-57,519	-82,009	0,690	-0,160
-56,505	-200,000	-1,633	-5,511
-55,490	517,138	1,289	2,170
-54,476	800,000	5,288	11,287
-53,461	-200,000	23,062	347,616
-52,446	800,000	765,599	2262,706
-51,432	496,737	1642,841	2718,932
-50,417	92,941	1598,503	1293,901
-49,403	60,578	1253,362	888,835
-48,388	21,010	1005,771	583,237
-47,373	18,384	973,339	555,844
-46,359	11,755	960,268	526,941
-45,344	7,695	957,102	512,046
-44,330	8,014	954,801	511,826
-43,315	7,067	953,184	507,883
-42,300	7,028	952,077	507,149
-41,286	6,996	951,073	506,489
-40,271	6,983	950,312	506,023
-39,257	7,034	949,259	505,606
-38,242	7,052	948,286	505,126
-37,227	6,906	947,751	504,350
-36,213	6,982	946,766	504,052
-35,198	7,017	945,782	503,619
-34,184	7,053	945,035	503,318
-33,169	6,968	944,246	502,603
-32,154	7,005	943,525	502,320
-31,140	7,002	942,475	501,729
-30,125	7,033	941,954	501,531
-29,111	7,040	941,083	501,072
-28,096	7,032	940,423	500,673
-27,082	7,033	939,817	500,335
-26,067	7,034	939,107	499,939
-25,052	6,993	938,328	499,375
-24,038	6,994	937,408	498,871
-23,023	6,926	937,101	498,469
-22,009	6,953	936,314	498,118
-20,994	7,087	935,587	498,137
-19,979	6,998	934,933	497,486
-18,965	6,966	934,506	497,138
-17,950	6,974	933,907	496,824
-16,936	6,972	933,287	496,469
-15,921	6,972	932,493	496,025
-14,906	6,892	931,907	495,442
-13,892	6,956	931,286	495,295
-12,877	6,889	930,612	494,706
-11,863	6,865	930,039	494,306
-10,848	6,882	929,500	494,054
-9,833	6,938	929,000	493,944
-8,819	6,946	928,344	493,602
-7,804	6,887	927,628	493,016
-6,790	6,938	927,127	492,890
-5,775	6,966	926,520	492,634
-4,760	7,002	925,938	492,420
-3,746	6,906	925,193	491,702
-2,731	6,792	924,657	491,041
-1,717	6,711	924,102	490,474
-0,702	6,757	923,415	490,234
0,313	6,602	922,793	490,158
1,327	9,940	920,272	499,169
2,342	18,528	769,407	439,538
3,356	13,327	442,723	245,155
4,371	-12,580	310,644	144,642
5,386	-16,126	293,236	132,962
6,400	-18,147	287,224	128,236
7,415	-18,438	284,608	126,773
8,429	-19,099	282,648	125,247
9,444	-19,183	281,823	124,790
10,459	-19,119	281,244	124,584
11,473	-19,182	280,572	124,214
12,488	-19,056	280,084	124,109
13,502	-19,098	279,616	123,850
14,517	-19,132	279,357	123,692
15,531	-18,907	278,609	123,564
16,546	-18,974	278,337	123,369
17,561	-18,911	278,004	123,270
18,575	-18,702	277,751	123,345
19,590	-18,835	277,259	122,990
20,604	-18,797	277,065	122,929
21,619	-18,923	276,742	122,655
22,634	-18,762	276,279	122,592
23,648	-18,813	275,972	122,396
24,663	-18,949	275,734	122,151
25,677	-18,894	275,645	122,152
26,692	-18,969	275,245	121,894
27,707	-18,897	274,979	121,833
28,721	-18,918	274,684	121,672
29,736	-19,000	274,382	121,450
30,750	-19,075	274,160	121,271
31,765	-18,921	273,942	121,308
32,780	-18,870	273,811	121,287
33,794	-18,887	273,457	121,103
34,809	-18,876	273,267	121,018
35,823	-18,933	272,866	120,777
36,838	-18,778	272,724	120,848
37,853	-18,984	272,462	120,530
38,867	-18,882	272,246	120,518
39,882	-18,805	271,993	120,467
40,896	-18,924	271,733	120,230
41,911	-18,962	271,495	120,079
42,926	-18,869	271,163	120,008
43,940	-18,802	270,906	119,945
44,955	-18,856	270,766	119,823
45,969	-18,769	270,464	119,759
46,984	-18,853	270,409	119,646
47,999	-18,918	270,152	119,462
49,013	-18,808	269,909	119,445
50,028	-18,670	269,806	119,516
51,042	-18,750	269,572	119,328
52,057	-18,710	269,217	119,197
53,071	-18,504	268,825	119,202
54,086	-18,694	268,778	118,995
55,101	-18,726	268,541	118,851
56,115	-18,873	268,388	118,638
57,130	-18,771	267,978	118,540
58,144	-18,949	267,751	118,266
59,159	-18,991	267,448	118,084
60,174	-18,929	267,177	118,010
61,188	-18,887	267,140	118,021
62,203	-18,968	266,754	117,766
63,217	-18,959	266,608	117,700
64,232	-18,899	266,297	117,606
65,247	-18,745	266,034	117,619
66,261	-19,005	265,987	117,352
67,276	-18,902	265,786	117,347
68,290	-18,807	265,469	117,282
69,305	-18,746	265,409	117,300
70,320	-18,555	264,947	117,258
71,334	-18,887	264,785	116,876
72,349	-18,807	264,529	116,825
73,363	-18,968	264,381	116,604
74,378	-18,867	264,032	116,531
75,393	-18,812	263,837	116,483
76,407	-18,853	263,665	116,360
77,422	-18,871	263,371	116,204
78,436	-18,644	263,192	116,319
79,451	-18,885	262,964	115,991
80,466	-18,789	262,563	115,890
81,480	-18,835	262,542	115,830
82,495	-18,890	262,393	115,704
83,509	-18,791	262,146	115,673
84,524	-18,724	261,921	115,624
85,539	-18,905	261,784	115,391
86,553	-18,620	261,447	115,487
87,568	-18,712	261,422	115,383
88,582	-18,683	261,055	115,236
89,597	-18,811	260,818	115,008
90,611	-18,686	260,634	115,027
91,626	-18,816	260,355	114,778
92,641	-18,811	260,386	114,786
93,655	-18,721	259,930	114,655
94,670	-18,728	259,833	114,596
95,684	-18,634	259,519	114,530
96,699	-18,872	259,385	114,251
97,714	-18,917	259,341	114,181
98,728	-18,814	259,036	114,128
99,743	-18,579	258,868	114,250
100,757	-18,848	258,672	113,917
101,772	-18,758	258,456	113,891
102,787	-18,861	258,154	113,658
103,801	-18,951	258,028	113,513
104,816	-18,835	257,624	113,427
105,830	-18,638	257,606	113,581
106,845	-18,902	257,545	113,313
107,860	-18,894	257,170	113,145
108,874	-18,900	256,961	113,038
109,889	-18,919	256,652	112,875
110,903	-18,848	256,545	112,880
111,918	-18,752	256,455	112,914
112,933	-18,877	256,215	112,689
113,947	-18,886	255,958	112,558
114,962	-18,791	255,712	112,522
115,976	-18,712	255,489	112,483
116,991	-18,821	255,351	112,318
118,006	-18,799	255,169	112,246
119,020	-18,675	255,006	112,272
120,035	-18,738	254,996	112,203
121,049	-18,697	254,654	112,078
122,064	-18,752	254,511	111,958
123,079	-18,820	254,085	111,702
124,093	-18,723	254,105	111,784
125,108	-18,637	253,738	111,687
126,122	-18,621	253,661	111,657
127,137	-18,885	253,531	111,362
128,151	-18,579	253,270	111,501
129,166	-18,773	253,065	111,234
130,181	-18,652	252,791	111,207
131,195	-18,585	252,571	111,158
132,210	-18,563	252,384	111,085
133,224	-18,928	252,316	110,733
134,239	-18,820	252,094	110,718
135,254	-18,656	251,832	110,733
136,268	-18,492	251,595	110,759
137,283	-18,500	251,424	110,667
138,297	-18,617	251,158	110,440
139,312	-18,694	251,092	110,336
140,327	-18,519	250,780	110,338
141,341	-18,953	250,713	109,929
142,356	-18,748	250,518	110,008
143,370	-18,808	250,163	109,792
144,385	-18,609	249,907	109,838
145,400	-18,854	249,939	109,635
146,414	-18,774	249,694	109,585
147,429	-18,650	249,335	109,523
148,443	-18,693	249,263	109,445
149,458	-18,828	249,147	109,270
150,473	-18,757	248,914	109,218
151,487	-18,678	248,811	109,229
152,502	-18,732	248,614	109,089
153,516	-18,657	248,390	109,043
154,531	-18,713	248,062	108,843
155,546	-18,609	247,967	108,879
156,560	-18,828	247,858	108,637
157,575	-18,642	247,417	108,589
158,589	-18,767	247,308	108,428
159,604	-18,683	247,150	108,419
160,619	-18,776	246,953	108,245
161,633	-18,658	246,762	108,250
162,648	-18,605	246,660	108,240
163,662	-18,761	246,439	108,003
164,677	-18,868	246,403	107,889
165,692	-18,721	246,146	107,889
166,706	-18,653	246,026	107,883
167,721	-18,618	245,900	107,847
168,735	-18,785	245,713	107,617
169,750	-18,663	245,487	107,610
170,764	-18,667	245,205	107,473
171,779	-18,758	245,202	107,387
172,794	-18,829	245,059	107,256
173,808	-18,690	244,853	107,271
174,823	-18,497	244,691	107,350
175,837	-18,578	244,434	107,161
176,852	-18,472	244,338	107,197
177,867	-18,716	244,162	106,909
178,881	-18,742	243,997	106,806
179,896	-18,700	243,815	106,751
180,910	-18,652	243,705	106,733
181,925	-18,651	243,441	106,608
182,940	-18,681	243,149	106,447
183,954	-18,446	243,079	106,599
184,969	-18,855	243,105	106,266
185,983	-18,422	242,673	106,422
186,998	-18,573	242,530	106,226
188,013	-18,627	242,275	106,061
189,027	-18,659	242,313	106,042
190,042	-18,658	242,040	105,913
191,056	-18,624	241,853	105,851
192,071	-18,699	241,697	105,711
193,086	-18,681	241,433	105,601
194,100	-18,943	241,446	105,384
195,115	-18,459	241,022	105,583
196,129	-18,518	240,813	105,434
197,144	-18,693	240,702	105,234
198,159	-18,694	240,577	105,169
199,173	-18,778	240,347	104,992
200,188	-18,737	240,110	104,912
201,202	-18,610	240,064	104,985
202,217	-18,668	240,034	104,916
203,232	-18,329	239,654	105,014
204,246	-18,673	239,439	104,633
205,261	-18,865	239,381	104,443
206,275	-17,147	239,831	106,017
207,290	-12,261	241,636	110,779
208,304	-5,604	243,707	117,166
209,319	-2,427	244,629	120,202
210,334	-1,231	244,727	121,218
211,348	-0,269	244,925	122,093
212,363	0,133	244,756	122,327
213,377	0,382	244,663	122,473
214,392	0,381	244,717	122,488
215,407	0,702	244,613	122,688
216,421	0,862	244,347	122,674
217,436	0,810	244,320	122,607
218,450	0,603	244,210	122,372
219,465	0,859	244,005	122,467
220,480	0,917	243,974	122,487
221,494	0,787	243,713	122,239
222,509	0,647	243,480	121,998
223,523	0,505	243,189	121,726
224,538	0,480	242,986	121,593
225,553	0,505	242,908	121,564
226,567	0,412	242,685	121,366
227,582	0,439	242,490	121,279
228,596	0,362	242,409	121,166
229,611	0,353	242,249	121,068
230,626	0,238	242,138	120,909
231,640	0,393	241,876	120,892
232,655	0,268	241,830	120,758
233,669	0,292	241,616	120,660
234,684	0,368	241,464	120,634
235,699	0,331	241,355	120,539
236,713	0,430	241,000	120,430
237,728	0,376	241,042	120,397
238,742	0,342	240,723	120,200
239,757	0,506	240,648	120,283
240,772	0,375	240,512	120,100
241,786	0,369	240,262	119,960
242,801	0,181	240,051	119,693
243,815	0,161	240,046	119,664
244,830	0,441	239,761	119,735
245,844	0,446	239,618	119,656
246,859	0,564	239,391	119,627
247,874	0,408	239,250	119,421
248,888	0,353	239,117	119,301
249,903	0,491	239,054	119,368
250,917	0,334	238,960	119,186
251,932	0,522	238,738	119,214
252,947	0,466	238,572	119,076
253,961	0,298	238,433	118,863
254,976	0,471	238,202	118,874
255,990	0,378	238,132	118,754
257,005	0,320	237,947	118,605
258,020	0,326	237,759	118,506
259,034	0,506	237,796	118,657
260,049	0,336	237,535	118,381
261,063	0,481	237,225	118,331
262,078	0,307	237,187	118,163
263,093	0,518	236,931	118,192
264,107	0,616	236,795	118,191
265,122	0,365	236,787	117,979
266,136	0,444	236,533	117,904
267,151	0,516	236,419	117,893
268,166	0,297	236,208	117,605
269,180	0,259	236,075	117,499
270,195	0,240	235,939	117,406
271,209	0,496	235,757	117,505
272,224	0,241	235,615	117,225
273,239	0,195	235,621	117,180
274,253	0,360	235,244	117,112
275,268	0,339	235,238	117,082
276,282	0,500	234,961	117,060
277,297	0,296	234,869	116,844
278,312	0,319	234,836	116,835
279,326	0,600	234,562	116,907
280,341	0,624	234,365	116,817
281,355	0,608	234,330	116,777
282,370	0,518	234,120	116,592
283,384	0,377	233,975	116,400
284,399	0,373	233,917	116,357
285,414	0,545	233,586	116,316
286,428	0,533	233,615	116,311
287,443	0,276	233,519	116,053
288,457	0,741	233,190	116,239
289,472	0,587	233,170	116,100
290,487	0,662	232,837	115,981
291,501	0,611	232,731	115,879
292,516	0,533	232,585	115,736
293,530	0,599	232,427	115,698
294,545	0,426	232,423	115,552
295,560	0,526	232,271	115,543
296,574	0,457	232,107	115,398
297,589	0,691	231,852	115,441
298,603	0,391	231,840	115,194
299,618	0,416	231,634	115,101
300,633	0,516	231,679	115,190
301,647	0,695	231,315	115,136
302,662	0,637	231,159	115,003
303,676	0,670	231,058	114,968
304,691	0,600	230,884	114,817
305,706	0,836	230,659	114,876
306,720	0,735	230,639	114,779
307,735	0,634	230,582	114,662
308,749	0,895	230,327	114,725
309,764	0,634	230,247	114,476
310,779	0,671	229,959	114,351
311,793	0,509	229,889	114,182
312,808	0,737	229,850	114,326
313,822	0,746	229,549	114,173
314,837	0,800	229,370	114,115
315,852	0,656	229,314	113,967
316,866	0,871	229,066	113,997
317,881	0,764	228,992	113,869
318,895	0,835	228,823	113,828
319,910	0,756	228,765	113,729
320,925	0,895	228,514	113,700
321,939	0,836	228,443	113,610
322,954	0,742	228,275	113,445
323,968	0,875	228,174	113,485
324,983	0,889	228,040	113,419
325,997	0,885	227,892	113,332
327,012	0,694	227,744	113,105
328,027	0,916	227,354	113,068
329,041	0,904	227,527	113,134
330,056	0,708	227,279	112,854
331,070	0,729	227,078	112,760
332,085	0,938	226,892	112,814
333,100	0,813	226,769	112,649
334,114	0,646	226,654	112,457
335,129	0,891	226,578	112,593
336,143	0,786	226,369	112,401
337,158	0,893	226,197	112,385
338,173	0,926	226,076	112,339
339,187	0,948	226,073	112,345
340,202	0,798	225,886	112,129
341,216	0,998	225,669	112,160
342,231	0,865	225,609	112,022
343,246	0,741	225,419	111,825
344,260	0,924	225,187	111,836
345,275	0,769	225,200	111,717
346,289	0,995	224,974	111,763
347,304	1,142	224,824	111,788
348,319	0,872	224,622	111,477
349,333	1,029	224,590	111,568
350,348	0,890	224,543	111,432
351,362	0,965	224,287	111,350
352,377	0,851	224,117	111,172
353,392	0,921	224,025	111,168
354,406	1,022	223,833	111,137
355,421	192,420	1310,832	1375,674
356,435	154,097	1443,103	1375,495
