DTS Sentinel unit serial number:	SN410029Multiplexer serial number:	ORYXHardware model number:	OX2-SRSoftware version number:	ORYX F/W v4,00 Oryx Data Collector v3.7.2.0data status	okinstallation	B5 Nyhavnadifferential loss correction	single-endedforward channel	channel 2reverse channel	N/Adate	2023/12/14time	02:47:13forward acquisition time	300,00reverse acquisition time	0,00gamma	499,1914k internal	0,3155k external	0,3155temperature offset calibration	1,0000default loss term (dB/km)	0,3820temperature slope calibration	1,0000multiplexer offset coefficient	1,0000multiplexer slope coefficient	1,0000fibre end	0,00T internal ref (°C)	8,42T ext. ref 1 (°C)	-7,92T ext. ref 2 (°C)	-7,98length (m)	temperature (°C)	Stokes	anti-Stokes-744,400	-159,148	0,139	0,006
-743,385	8,595	-0,355	-0,197
-742,371	-190,864	0,148	-0,001
-741,356	-199,886	-0,355	-0,001
-740,342	187,963	0,084	0,092
-739,327	72,213	-0,412	-0,316
-738,312	-99,434	0,102	-0,019
-737,298	-131,397	-0,345	-0,033
-736,283	-124,225	0,191	-0,022
-735,269	-64,479	-0,287	-0,086
-734,254	140,676	0,132	0,129
-733,239	-21,653	-0,530	-0,237
-732,225	-63,647	0,296	0,089
-731,210	-200,000	-0,011	0,042
-730,196	278,245	0,021	0,028
-729,181	-200,000	0,005	0,022
-728,167	-44,177	0,061	-0,022
-727,152	-9,688	-0,095	-0,046
-726,137	-200,000	-0,019	0,072
-725,123	800,000	-0,040	0,107
-724,108	800,000	-0,027	-0,058
-723,094	684,195	-0,049	0,094
-722,079	119,734	-0,021	0,019
-721,064	-55,292	0,131	-0,043
-720,050	-200,000	-0,023	0,137
-719,035	46,418	0,020	-0,014
-718,021	141,531	0,042	-0,041
-717,006	-126,358	-0,253	-0,028
-715,991	43,578	-0,152	-0,102
-714,977	-156,740	0,088	0,004
-713,962	-17,695	0,075	-0,034
-712,948	-77,657	0,049	-0,012
-711,933	800,000	-0,016	-0,044
-710,918	585,535	-0,072	-0,130
-709,904	-89,337	-0,119	-0,026
-708,889	445,442	0,045	-0,073
-707,875	733,661	-0,052	-0,104
-706,860	-200,000	0,031	-0,115
-705,845	109,836	0,084	-0,075
-704,831	-28,588	0,084	0,036
-703,816	105,418	-0,026	0,022
-702,802	-193,813	-0,112	0,001
-701,787	-200,000	0,002	-0,045
-700,772	83,088	-0,042	0,034
-699,758	-200,000	0,006	-0,040
-698,743	-140,451	0,015	-0,001
-697,729	-9,277	-0,130	-0,064
-696,714	212,433	0,055	-0,064
-695,699	95,816	0,040	-0,034
-694,685	-200,000	-0,016	-0,133
-693,670	-84,837	-0,083	-0,019
-692,656	-143,140	0,101	0,007
-691,641	-200,000	-0,008	-0,140
-690,627	-200,000	0,005	0,036
-689,612	-200,000	0,017	0,092
-688,597	219,395	0,075	-0,089
-687,583	405,953	-0,065	-0,101
-686,568	596,664	0,100	-0,183
-685,554	800,000	0,061	-0,164
-684,539	164,294	-0,126	-0,131
-683,524	432,678	0,056	-0,090
-682,510	-55,025	-0,098	0,032
-681,495	-88,687	0,139	-0,030
-680,481	214,021	-0,142	-0,166
-679,466	165,196	-0,040	0,042
-678,451	-200,000	-0,008	-0,063
-677,437	415,308	0,052	-0,082
-676,422	-200,000	-0,013	-0,047
-675,408	-107,676	-0,030	0,005
-674,393	37,069	0,085	-0,055
-673,378	-39,046	-0,021	-0,008
-672,364	-126,656	-0,005	0,001
-671,349	-200,000	0,006	-0,046
-670,335	-200,000	-0,001	-0,021
-669,320	322,303	-0,047	-0,065
-668,305	64,391	0,080	-0,059
-667,291	323,438	-0,085	-0,119
-666,276	-13,291	-0,012	-0,006
-665,262	29,966	-0,167	-0,105
-664,247	137,482	-0,066	0,064
-663,232	-129,298	0,115	-0,012
-662,218	121,979	-0,062	-0,057
-661,203	572,844	-0,133	-0,240
-660,189	-122,603	-0,093	0,011
-659,174	314,704	-0,107	-0,148
-658,159	-90,063	-0,131	-0,028
-657,145	-14,457	-0,093	-0,044
-656,130	800,000	0,012	-0,027
-655,116	-200,000	-0,022	-0,128
-654,101	-200,000	-0,011	0,081
-653,086	-26,268	-0,081	0,035
-652,072	-200,000	0,001	-0,032
-651,057	233,814	-0,078	-0,095
-650,043	-92,152	0,112	-0,023
-649,028	-200,000	0,009	0,112
-648,014	217,312	0,019	0,023
-646,999	20,089	-0,049	-0,029
-645,984	423,018	0,056	-0,089
-644,970	-200,000	0,018	-0,079
-643,955	-161,190	-0,081	0,003
-642,941	-200,000	-0,016	-0,055
-641,926	-55,529	0,139	-0,045
-640,911	14,698	0,031	-0,018
-639,897	-94,993	-0,039	0,008
-638,882	4,902	0,087	0,047
-637,868	74,985	-0,041	-0,032
-636,853	-1,875	0,028	0,014
-635,838	61,335	0,098	0,072
-634,824	167,765	0,048	0,050
-633,809	-200,000	0,008	0,082
-632,795	-200,000	-0,015	0,133
-631,780	-135,881	-0,107	-0,009
-630,765	509,722	-0,012	-0,021
-629,751	93,751	-0,150	0,124
-628,736	-200,000	0,021	-0,088
-627,722	299,892	0,047	-0,064
-626,707	190,581	0,039	-0,043
-625,692	8,209	0,076	-0,042
-624,678	154,767	0,075	-0,076
-623,663	512,623	-0,126	-0,216
-622,649	435,318	0,034	-0,054
-621,634	-200,000	-0,002	-0,181
-620,619	-38,184	-0,151	-0,058
-619,605	-200,000	-0,027	-0,096
-618,590	-200,000	0,006	0,058
-617,576	10,588	-0,070	0,039
-616,561	-119,705	0,108	-0,014
-615,546	146,615	0,029	-0,029
-614,532	275,280	-0,064	-0,084
-613,517	-53,451	0,064	0,022
-612,503	-95,146	0,061	-0,012
-611,488	190,762	0,021	-0,023
-610,474	260,771	0,081	0,103
-609,459	-88,646	0,033	0,007
-608,444	82,364	-0,083	-0,066
-607,430	83,085	-0,098	-0,079
-606,415	-70,746	-0,147	-0,040
-605,401	-139,766	-0,033	0,003
-604,386	800,000	-0,013	-0,032
-603,371	15,357	0,013	-0,007
-602,357	169,964	-0,085	-0,090
-601,342	13,564	0,082	-0,047
-600,328	800,000	-0,039	0,083
-599,313	601,198	0,064	0,118
-598,298	-144,432	-0,034	-0,002
-597,284	-144,152	0,020	0,001
-596,269	-137,927	0,130	-0,011
-595,255	-0,580	-0,102	0,053
-594,240	7,424	0,082	-0,045
-593,225	439,802	-0,064	-0,104
-592,211	626,781	-0,117	-0,218
-591,196	800,000	-0,039	-0,123
-590,182	-200,000	-0,001	0,074
-589,167	-200,000	-0,000	0,096
-588,152	800,000	-0,062	-0,171
-587,138	800,000	-0,041	0,113
-586,123	81,865	-0,074	-0,059
-585,109	-89,580	0,047	-0,010
-584,094	134,281	0,063	0,060
-583,079	-200,000	0,003	-0,167
-582,065	800,000	0,028	-0,078
-581,050	674,759	-0,037	0,071
-580,036	-200,000	0,030	-0,141
-579,021	236,024	-0,042	-0,051
-578,006	57,277	-0,073	0,052
-576,992	-200,000	0,005	0,096
-575,977	-200,000	-0,008	0,107
-574,963	261,611	0,057	0,073
-573,948	-200,000	-0,000	-0,025
-572,934	544,173	0,043	-0,075
-571,919	-47,591	-0,041	-0,015
-570,904	67,772	0,147	-0,110
-569,890	-48,232	-0,134	0,047
-568,875	800,000	0,048	0,145
-567,861	-132,517	-0,050	0,005
-566,846	84,442	-0,031	-0,025
-565,831	800,000	-0,051	0,162
-564,817	-98,349	-0,106	0,020
-563,802	530,653	-0,066	0,115
-562,788	-145,454	-0,020	0,001
-561,773	-94,562	-0,171	0,034
-560,758	157,201	0,076	0,077
-559,744	-5,483	0,065	-0,033
-558,729	-200,000	-0,005	0,061
-557,715	-200,000	0,004	0,106
-556,700	800,000	0,026	-0,085
-555,685	44,618	-0,030	0,020
-554,671	84,918	-0,035	-0,028
-553,656	-200,000	0,007	-0,064
-552,642	125,690	0,107	0,099
-551,627	800,000	0,027	0,072
-550,612	-12,077	-0,120	-0,057
-549,598	800,000	0,060	-0,131
-548,583	204,835	-0,070	0,080
-547,569	-5,677	-0,032	-0,016
-546,554	-12,454	0,084	-0,040
-545,539	172,111	0,055	0,058
-544,525	800,000	-0,057	0,127
-543,510	-143,809	-0,077	-0,005
-542,496	665,955	-0,014	-0,026
-541,481	776,700	0,041	-0,083
-540,466	193,619	-0,106	0,118
-539,452	800,000	-0,033	0,085
-538,437	101,464	-0,117	0,100
-537,423	800,000	-0,003	-0,006
-536,408	-162,189	0,178	0,006
-535,393	-161,802	-0,070	0,003
-534,379	800,000	-0,069	-0,205
-533,364	53,269	0,081	-0,057
-532,350	110,800	0,099	0,087
-531,335	-200,000	0,049	0,182
-530,321	-200,000	-0,017	0,073
-529,306	-169,287	0,055	-0,001
-528,291	799,130	-0,033	0,067
-527,277	800,000	0,024	0,074
-526,262	43,935	0,166	-0,111
-525,248	-200,000	0,038	-0,126
-524,233	800,000	-0,016	0,044
-523,218	208,031	0,037	0,042
-522,204	-200,000	0,009	-0,167
-521,189	29,630	-0,157	0,097
-520,175	657,529	-0,004	0,008
-519,160	-200,000	0,015	-0,055
-518,145	453,634	0,052	0,085
-517,131	-200,000	0,001	-0,035
-516,116	-40,905	-0,026	0,010
-515,102	114,422	-0,125	0,112
-514,087	11,454	-0,032	-0,018
-513,072	654,434	-0,042	-0,080
-512,058	-200,000	0,007	0,079
-511,043	366,089	-0,046	-0,068
-510,029	-113,986	-0,143	0,020
-509,014	337,367	0,147	0,209
-507,999	-200,000	-0,047	-0,163
-506,985	800,000	-0,055	-0,179
-505,970	-16,800	-0,133	0,061
-504,956	-200,000	-0,007	-0,160
-503,941	800,000	-0,020	0,051
-502,926	47,564	0,152	0,104
-501,912	81,262	0,087	0,069
-500,897	-200,000	-0,018	0,162
-499,883	55,330	0,037	-0,026
-498,868	-200,000	-0,032	0,121
-497,853	-200,000	-0,016	-0,093
-496,839	-104,568	0,024	0,004
-495,824	-22,944	0,088	-0,039
-494,810	211,410	0,075	-0,087
-493,795	-200,000	0,002	-0,012
-492,781	519,582	-0,054	-0,094
-491,766	72,390	-0,047	-0,035
-490,751	-61,881	-0,123	0,037
-489,737	-56,609	0,090	-0,029
-488,722	-200,000	0,003	0,068
-487,708	-83,965	0,078	0,018
-486,693	-80,499	-0,062	0,015
-485,678	482,764	-0,026	0,043
-484,664	-129,332	-0,160	-0,016
-483,649	477,289	-0,068	-0,112
-482,635	-64,220	0,090	0,027
-481,620	511,975	0,049	0,083
-480,605	739,580	0,029	0,058
-479,591	800,000	0,037	0,086
-478,576	-16,945	0,077	-0,035
-477,562	-200,000	0,005	-0,030
-476,547	-200,000	-0,010	-0,085
-475,532	183,859	-0,026	0,028
-474,518	-200,000	0,032	0,106
-473,503	232,064	-0,048	0,058
-472,489	800,000	-0,026	0,071
-471,474	111,875	0,046	0,040
-470,459	-200,000	-0,012	-0,068
-469,445	-200,000	-0,009	0,072
-468,430	627,165	0,029	-0,053
-467,416	69,836	0,059	-0,044
-466,401	-200,000	-0,027	-0,104
-465,386	-32,716	0,084	-0,034
-464,372	-200,000	0,016	-0,058
-463,357	-128,737	-0,078	0,008
-462,343	-200,000	-0,006	0,029
-461,328	-150,391	-0,023	-0,001
-460,313	-200,000	-0,004	-0,063
-459,299	-200,000	-0,020	0,080
-458,284	-4,424	-0,080	-0,040
-457,270	231,128	-0,059	0,071
-456,255	84,858	-0,057	-0,045
-455,241	51,628	-0,055	-0,038
-454,226	-130,006	0,065	0,006
-453,211	-200,000	0,049	0,173
-452,197	78,820	-0,047	0,036
-451,182	323,584	0,035	0,048
-450,168	-200,000	0,003	0,070
-449,153	-89,981	-0,045	-0,009
-448,138	359,411	0,053	-0,078
-447,124	125,289	-0,043	-0,040
-446,109	179,442	0,063	-0,067
-445,095	207,852	0,033	-0,038
-444,080	-72,865	0,074	-0,020
-443,065	800,000	-0,011	0,027
-442,051	-183,855	-0,105	0,001
-441,036	240,359	0,022	-0,027
-440,022	-133,747	-0,124	-0,011
-439,007	21,921	-0,089	-0,053
-437,992	-200,000	0,005	0,094
-436,978	-107,218	0,060	0,010
-435,963	110,024	-0,016	0,014
-434,949	-200,000	-0,032	0,123
-433,934	-200,000	-0,007	0,049
-432,919	-25,816	-0,075	-0,032
-431,905	671,421	-0,043	0,081
-430,890	-200,000	0,006	-0,050
-429,876	102,403	-0,050	0,043
-428,861	-47,090	0,106	-0,038
-427,846	-200,000	0,002	0,042
-426,832	-200,000	-0,042	-0,144
-425,817	494,504	-0,019	0,033
-424,803	-200,000	0,001	0,018
-423,788	-200,000	-0,018	-0,074
-422,773	-31,636	0,034	-0,014
-421,759	355,694	0,070	0,102
-420,744	800,000	0,014	0,033
-419,730	-200,000	0,002	0,116
-418,715	157,219	0,007	-0,007
-417,701	2,657	-0,126	0,066
-416,686	14,828	-0,087	0,049
-415,671	800,000	0,078	0,186
-414,657	41,086	0,078	-0,051
-413,642	56,776	0,067	0,047
-412,628	800,000	-0,010	0,024
-411,613	800,000	0,051	-0,111
-410,598	-200,000	-0,007	-0,238
-409,584	-97,201	-0,035	-0,007
-408,569	480,646	0,008	-0,013
-407,555	-113,674	0,066	-0,009
-406,540	83,936	-0,039	0,031
-405,525	-200,000	-0,013	0,111
-404,511	295,755	-0,074	0,099
-403,496	183,580	-0,087	-0,094
-402,482	160,492	-0,090	-0,091
-401,467	800,000	0,022	0,066
-400,452	93,258	0,096	0,079
-399,438	-200,000	0,037	-0,121
-398,423	-200,000	0,013	0,132
-397,409	-46,074	0,059	-0,021
-396,394	534,540	0,047	-0,082
-395,379	-200,000	0,007	-0,036
-394,365	97,505	-0,075	0,062
-393,350	261,744	0,090	-0,114
-392,336	-200,000	-0,005	-0,084
-391,321	800,000	-0,027	0,065
-390,306	47,168	0,089	-0,060
-389,292	-128,710	0,094	-0,010
-388,277	-109,166	0,168	-0,026
-387,263	41,465	0,092	-0,061
-386,248	800,000	0,004	-0,011
-385,233	70,379	0,047	-0,035
-384,219	278,212	-0,035	-0,045
-383,204	465,865	-0,095	0,156
-382,190	-2,826	0,065	0,033
-381,175	-173,996	-0,039	0,001
-380,160	-56,995	0,206	-0,066
-379,146	641,529	0,052	0,097
-378,131	2,495	0,046	0,024
-377,117	130,376	-0,045	-0,042
-376,102	175,966	0,124	-0,132
-375,088	-200,000	0,001	-0,031
-374,073	800,000	-0,029	-0,060
-373,058	-200,000	0,001	0,035
-372,044	175,961	0,229	0,242
-371,029	-93,984	-0,058	0,011
-370,015	16,668	0,175	-0,100
-369,000	-33,502	-0,118	-0,047
-367,985	204,813	-0,031	-0,035
-366,971	-200,000	0,024	-0,101
-365,956	76,729	0,061	-0,047
-364,942	-87,842	0,124	0,027
-363,927	-36,536	-0,160	0,062
-362,912	9,688	0,088	-0,048
-361,898	-27,960	-0,049	-0,020
-360,883	-200,000	0,016	0,164
-359,869	-200,000	0,006	-0,057
-358,854	-200,000	0,006	-0,030
-357,839	-50,143	0,049	-0,017
-356,825	28,176	0,084	-0,051
-355,810	5,821	-0,097	0,052
-354,796	-105,336	0,060	-0,010
-353,781	-200,000	-0,042	-0,134
-352,766	-200,000	0,002	-0,114
-351,752	800,000	-0,040	-0,110
-350,737	76,365	0,054	-0,041
-349,723	185,963	0,064	0,069
-348,708	89,878	0,051	-0,041
-347,693	393,801	0,003	0,004
-346,679	-200,000	0,033	-0,145
-345,664	749,790	-0,055	-0,109
-344,650	78,540	-0,086	-0,067
-343,635	-200,000	0,015	-0,105
-342,620	-82,178	-0,079	0,019
-341,606	-200,000	-0,012	-0,052
-340,591	-200,000	-0,012	-0,096
-339,577	-99,836	0,068	0,012
-338,562	254,018	-0,007	-0,009
-337,548	301,699	0,049	0,066
-336,533	751,439	0,047	0,093
-335,518	-101,169	0,103	-0,018
-334,504	-110,344	0,047	-0,007
-333,489	20,509	0,052	0,031
-332,475	37,647	0,038	-0,025
-331,460	57,561	-0,054	-0,038
-330,445	-6,288	-0,055	0,027
-329,431	34,337	0,085	0,054
-328,416	-80,503	0,038	0,009
-327,402	-200,000	0,017	0,057
-326,387	-65,188	0,083	-0,024
-325,372	114,524	-0,087	-0,077
-324,358	-166,048	0,087	-0,003
-323,343	-200,000	-0,004	-0,050
-322,329	-110,730	-0,040	-0,006
-321,314	-200,000	0,009	0,109
-320,299	501,003	-0,052	0,088
-319,285	-200,000	0,032	0,127
-318,270	800,000	-0,025	0,057
-317,256	-151,637	-0,128	0,007
-316,241	-200,000	-0,007	-0,043
-315,226	800,000	-0,034	-0,077
-314,212	-5,950	-0,105	0,052
-313,197	-200,000	0,023	0,144
-312,183	49,897	0,107	0,073
-311,168	800,000	-0,029	-0,086
-310,153	800,000	0,014	0,034
-309,139	-56,054	0,153	-0,049
-308,124	196,386	-0,025	0,028
-307,110	4,640	0,030	-0,016
-306,095	800,000	0,026	0,053
-305,080	-200,000	0,002	0,026
-304,066	730,359	-0,034	0,066
-303,051	800,000	-0,058	-0,134
-302,037	800,000	-0,062	-0,135
-301,022	-200,000	-0,008	-0,045
-300,008	-34,453	0,097	-0,038
-298,993	276,337	-0,023	0,030
-297,978	-36,738	0,057	-0,022
-296,964	-16,510	-0,083	-0,038
-295,949	-126,329	-0,077	-0,008
-294,935	-31,604	0,007	0,003
-293,920	462,272	0,027	-0,044
-292,905	-63,800	0,054	0,016
-291,891	800,000	0,051	0,139
-290,876	121,154	-0,100	-0,090
-289,862	-200,000	-0,009	-0,035
-288,847	144,177	-0,188	-0,182
-287,832	57,064	0,101	-0,072
-286,818	594,376	0,025	0,045
-285,803	-200,000	0,014	0,057
-284,789	793,844	-0,041	0,082
-283,774	611,214	0,050	0,091
-282,759	655,923	0,035	0,065
-281,745	800,000	-0,024	0,055
-280,730	-200,000	0,016	0,077
-279,716	695,075	0,055	0,104
-278,701	-41,862	-0,073	0,027
-277,686	99,976	-0,018	-0,015
-276,672	5,243	-0,106	0,056
-275,657	475,706	0,058	-0,096
-274,643	-22,137	-0,087	0,038
-273,628	501,352	-0,067	-0,112
-272,613	-141,453	0,050	0,004
-271,599	-172,671	-0,120	0,003
-270,584	-194,239	0,165	-0,001
-269,570	-150,713	-0,064	-0,003
-268,555	-111,396	0,186	-0,027
-267,540	274,542	0,061	0,078
-266,526	143,091	-0,090	-0,087
-265,511	800,000	0,040	-0,092
-264,497	-91,800	-0,033	-0,007
-263,482	484,746	0,058	0,096
-262,467	79,821	-0,071	-0,055
-261,453	800,000	-0,010	-0,024
-260,438	-200,000	0,006	-0,065
-259,424	-200,000	-0,044	0,142
-258,409	542,596	0,037	0,065
-257,395	-24,095	-0,061	-0,026
-256,380	-200,000	0,034	0,233
-255,365	800,000	0,057	0,134
-254,351	-200,000	0,000	0,026
-253,336	558,129	-0,075	-0,132
-252,322	-200,000	0,039	-0,197
-251,307	-200,000	-0,048	-0,185
-250,292	50,843	0,098	-0,067
-249,278	800,000	-0,025	0,068
-248,263	38,054	-0,154	0,099
-247,249	139,027	0,130	0,123
-246,234	800,000	-0,027	0,074
-245,219	111,504	-0,013	0,011
-244,205	538,839	0,035	-0,060
-243,190	103,256	-0,075	0,063
-242,176	119,890	-0,067	0,060
-241,161	-200,000	0,025	0,108
-240,146	699,313	-0,075	0,144
-239,132	-200,000	-0,026	0,173
-238,117	-78,817	0,032	0,008
-237,103	87,351	-0,217	-0,174
-236,088	-200,000	0,019	0,166
-235,073	198,725	-0,046	0,051
-234,059	38,472	-0,160	-0,103
-233,044	64,712	0,068	0,050
-232,030	24,550	0,111	-0,066
-231,015	-200,000	-0,002	-0,090
-230,000	800,000	-0,051	-0,128
-228,986	73,574	0,025	-0,019
-227,971	-67,865	0,221	0,062
-226,957	127,500	0,041	0,037
-225,942	800,000	-0,009	0,023
-224,927	585,846	0,054	0,097
-223,913	179,474	0,050	-0,053
-222,898	800,000	-0,016	-0,051
-221,884	800,000	0,016	0,043
-220,869	-200,000	-0,000	0,040
-219,855	753,068	0,032	0,063
-218,840	133,381	-0,023	0,022
-217,825	0,661	-0,041	0,021
-216,811	-135,436	0,119	-0,010
-215,796	306,780	-0,068	0,092
-214,782	-108,170	-0,059	0,009
-213,767	800,000	0,008	0,022
-212,752	-56,666	-0,131	0,042
-211,738	504,296	0,023	-0,039
-210,723	120,761	-0,083	-0,075
-209,709	192,539	-0,140	-0,153
-208,694	800,000	-0,030	-0,074
-207,679	138,487	-0,047	-0,044
-206,665	44,349	-0,109	0,072
-205,650	-13,718	0,072	0,034
-204,636	-200,000	0,001	-0,038
-203,621	-123,186	-0,086	-0,010
-202,606	800,000	-0,089	-0,178
-201,592	-5,820	0,105	-0,052
-200,577	-200,000	0,007	-0,182
-199,563	214,903	-0,017	0,020
-198,548	315,923	0,051	0,070
-197,533	302,962	0,042	0,057
-196,519	-167,456	-0,056	0,002
-195,504	117,959	-0,064	-0,057
-194,490	216,359	-0,003	-0,004
-193,475	-200,000	0,010	-0,096
-192,460	-200,000	0,008	0,041
-191,446	800,000	0,053	0,154
-190,431	800,000	-0,029	0,067
-189,417	-200,000	-0,001	0,080
-188,402	800,000	0,019	0,059
-187,387	-200,000	0,007	-0,050
-186,373	386,341	0,041	-0,062
-185,358	-8,678	-0,130	0,063
-184,344	-200,000	0,029	0,094
-183,329	-200,000	-0,003	0,063
-182,315	5,208	-0,086	0,046
-181,300	-88,569	-0,073	-0,016
-180,285	-200,000	0,009	-0,046
-179,271	-200,000	-0,014	0,075
-178,256	-98,791	0,089	0,016
-177,242	-200,000	0,006	0,105
-176,227	-69,821	0,144	-0,039
-175,212	800,000	-0,028	0,060
-174,198	-76,029	0,109	-0,028
-173,183	-22,043	-0,066	-0,029
-172,169	-200,000	0,002	-0,111
-171,154	12,706	-0,071	-0,040
-170,139	535,576	0,053	0,092
-169,125	-200,000	0,007	-0,041
-168,110	631,414	0,100	-0,183
-167,096	-200,000	-0,010	0,046
-166,081	21,208	0,041	-0,024
-165,066	-169,149	-0,067	0,002
-164,052	284,456	-0,051	0,066
-163,037	-200,000	-0,011	0,048
-162,023	113,954	0,167	-0,146
-161,008	-58,051	0,024	0,007
-159,993	-130,303	-0,076	0,007
-158,979	759,465	-0,029	-0,057
-157,964	-200,000	-0,005	-0,085
-156,950	-18,002	0,046	-0,021
-155,935	58,492	0,100	0,070
-154,920	125,229	0,093	0,085
-153,906	52,258	-0,066	0,045
-152,891	-200,000	-0,014	0,090
-151,877	-200,000	-0,046	-0,189
-150,862	-86,407	-0,038	-0,008
-149,847	-150,093	-0,105	0,006
-148,833	-148,255	0,037	0,002
-147,818	800,000	0,026	0,053
-146,804	-200,000	-0,007	-0,060
-145,789	495,870	-0,011	0,018
-144,775	-38,111	-0,026	0,010
-143,760	313,862	-0,054	-0,073
-142,745	303,281	-0,072	0,096
-141,731	244,356	-0,041	0,050
-140,716	-175,314	-0,102	0,002
-139,702	303,018	-0,027	0,036
-138,687	-61,450	-0,033	-0,010
-137,672	131,825	0,079	-0,073
-136,658	-59,184	-0,068	-0,021
-135,643	180,507	0,046	-0,049
-134,629	415,704	-0,062	0,095
-133,614	264,654	-0,034	0,043
-132,599	225,902	0,059	0,069
-131,585	110,226	-0,025	0,021
-130,570	-200,000	0,005	-0,142
-129,556	-36,948	0,104	0,040
-128,541	-126,685	0,099	0,010
-127,526	640,845	0,018	-0,033
-126,512	-200,000	-0,040	-0,196
-125,497	186,127	0,027	0,029
-124,483	482,283	0,045	0,074
-123,468	-200,000	-0,004	0,073
-122,453	253,769	-0,003	0,004
-121,439	118,103	-0,140	0,125
-120,424	23,076	0,038	0,022
-119,410	-200,000	-0,001	0,013
-118,395	-22,480	-0,126	0,055
-117,380	-200,000	0,046	0,174
-116,366	800,000	-0,061	-0,160
-115,351	-175,334	-0,071	0,001
-114,337	259,113	0,069	-0,086
-113,322	-35,333	0,173	-0,067
-112,307	-200,000	-0,010	-0,066
-111,293	800,000	0,022	0,063
-110,278	70,306	-0,040	-0,030
-109,264	-130,205	0,168	-0,016
-108,249	120,152	-0,037	-0,033
-107,234	237,419	-0,081	-0,097
-106,220	-200,000	0,010	0,106
-105,205	7,771	0,028	-0,015
-104,191	-127,710	-0,132	0,014
-103,176	756,233	0,033	0,064
-102,162	-200,000	0,007	-0,033
-101,147	337,078	-0,035	-0,050
-100,132	800,000	-0,038	-0,116
-99,118	-200,000	-0,008	-0,058
-98,103	800,000	0,030	-0,083
-97,089	800,000	0,062	0,187
-96,074	6,728	0,015	0,008
-95,059	104,671	0,135	-0,114
-94,045	-76,439	-0,079	0,020
-93,030	2,850	0,090	-0,047
-92,016	8,686	0,027	-0,015
-91,001	12,948	0,033	0,019
-89,986	-117,115	0,118	0,015
-88,972	165,740	-0,030	0,030
-87,957	90,536	-0,105	-0,084
-86,943	676,762	0,047	-0,088
-85,928	-102,222	0,033	0,006
-84,913	-200,000	-0,010	-0,130
-83,899	-99,534	0,126	-0,023
-82,884	-10,521	-0,045	0,021
-81,870	800,000	0,023	0,067
-80,855	128,278	0,097	0,089
-79,840	800,000	-0,036	-0,099
-78,826	107,792	0,064	-0,055
-77,811	-46,707	-0,052	-0,018
-76,797	-128,104	-0,112	0,011
-75,782	-200,000	0,010	0,142
-74,767	221,542	0,060	0,069
-73,753	42,674	-0,169	-0,110
-72,738	36,952	0,047	0,030
-71,724	-19,681	0,038	-0,017
-70,709	-18,704	0,029	0,013
-69,694	-200,000	-0,031	0,113
-68,680	-95,002	0,030	0,006
-67,665	-200,000	0,004	0,021
-66,651	136,572	-0,170	-0,160
-65,636	-6,700	-0,091	-0,044
-64,622	188,238	0,086	-0,092
-63,607	119,818	-0,033	0,030
-62,592	-86,747	0,027	-0,006
-61,578	-200,000	0,010	0,047
-60,563	-200,000	-0,042	-0,196
-59,549	-19,698	0,100	0,044
-58,534	72,801	-2,679	-2,008
-57,519	116,225	0,381	-0,335
-56,505	-200,000	-1,665	-5,505
-55,490	392,703	1,237	1,853
-54,476	800,000	5,313	11,300
-53,461	-200,000	22,077	348,021
-52,446	800,000	760,479	2315,261
-51,432	520,726	1649,344	2788,979
-50,417	101,940	1613,855	1352,329
-49,403	70,695	1269,961	942,910
-48,388	24,550	1020,204	604,808
-47,373	19,268	986,687	567,464
-46,359	13,295	974,040	540,580
-45,344	9,057	970,581	524,725
-44,330	9,522	968,711	525,219
-43,315	8,533	966,664	520,847
-42,300	8,437	965,830	520,065
-41,286	8,464	964,616	519,478
-40,271	8,420	963,631	518,784
-39,257	8,457	962,790	518,431
-38,242	8,395	962,025	517,797
-37,227	8,396	961,131	517,299
-36,213	8,390	960,397	516,862
-35,198	8,420	959,351	516,375
-34,184	8,500	958,503	516,158
-33,169	8,386	957,700	515,338
-32,154	8,465	956,899	515,142
-31,140	8,472	955,962	514,638
-30,125	8,441	955,246	514,132
-29,111	8,505	954,128	513,716
-28,096	8,507	953,702	513,474
-27,082	8,520	952,948	513,089
-26,067	8,427	952,231	512,383
-25,052	8,523	951,202	512,117
-24,038	8,379	950,707	511,367
-23,023	8,423	949,974	511,096
-22,009	8,432	949,583	510,892
-20,994	8,508	948,815	510,705
-19,979	8,476	948,379	510,347
-18,965	8,457	947,654	509,875
-17,950	8,484	946,974	509,576
-16,936	8,364	946,364	508,844
-15,921	8,407	945,710	508,608
-14,906	8,352	944,903	507,977
-13,892	8,358	944,283	507,646
-12,877	8,338	943,682	507,238
-11,863	8,299	942,962	506,704
-10,848	8,351	942,538	506,624
-9,833	8,401	942,158	506,557
-8,819	8,419	941,272	506,119
-7,804	8,396	940,741	505,742
-6,790	8,322	940,223	505,207
-5,775	8,411	939,565	505,114
-4,760	8,400	938,815	504,658
-3,746	8,300	938,417	504,106
-2,731	8,226	937,672	503,452
-1,717	8,163	937,269	503,014
-0,702	8,182	936,492	502,638
0,313	8,038	935,683	502,505
1,327	11,370	933,341	511,733
2,342	19,873	781,246	450,676
3,356	14,822	448,172	250,903
4,371	-11,426	311,763	146,670
5,386	-15,235	294,226	134,564
6,400	-17,133	288,190	129,914
7,415	-17,301	285,669	128,601
8,429	-18,032	283,755	127,016
9,444	-17,950	282,911	126,706
10,459	-17,936	282,149	126,368
11,473	-17,702	281,626	126,349
12,488	-17,658	281,204	126,191
13,502	-17,729	280,626	125,851
14,517	-17,811	280,299	125,615
15,531	-17,933	279,856	125,288
16,546	-17,583	279,572	125,485
17,561	-17,745	279,090	125,103
18,575	-17,465	278,680	125,175
19,590	-17,693	278,597	124,909
20,604	-17,431	278,117	124,932
21,619	-17,627	277,822	124,602
22,634	-17,510	277,259	124,449
23,648	-17,511	277,055	124,346
24,663	-17,591	276,968	124,220
25,677	-17,460	276,475	124,112
26,692	-17,622	276,274	123,857
27,707	-17,482	276,001	123,856
28,721	-17,563	275,788	123,673
29,736	-17,464	275,414	123,588
30,750	-17,510	274,892	123,300
31,765	-17,565	274,966	123,270
32,780	-17,412	274,807	123,331
33,794	-17,392	274,458	123,182
34,809	-17,573	274,284	122,923
35,823	-17,594	273,959	122,747
36,838	-17,421	273,749	122,804
37,853	-17,694	273,364	122,365
38,867	-17,497	273,235	122,480
39,882	-17,408	272,832	122,372
40,896	-17,409	272,704	122,303
41,911	-17,539	272,454	122,058
42,926	-17,404	272,245	122,080
43,940	-17,429	271,889	121,887
44,955	-17,497	271,668	121,713
45,969	-17,709	271,568	121,461
46,984	-17,449	271,230	121,540
47,999	-17,261	271,183	121,682
49,013	-17,260	270,912	121,550
50,028	-17,378	270,737	121,352
51,042	-17,392	270,626	121,279
52,057	-17,440	270,291	121,073
53,071	-17,342	269,965	121,007
54,086	-17,367	269,877	120,933
55,101	-17,274	269,611	120,889
56,115	-17,431	269,383	120,632
57,130	-17,387	269,023	120,500
58,144	-17,437	268,804	120,345
59,159	-17,481	268,416	120,121
60,174	-17,609	268,393	119,982
61,188	-17,475	268,051	119,941
62,203	-17,430	267,882	119,896
63,217	-17,486	267,711	119,757
64,232	-17,541	267,402	119,559
65,247	-17,600	267,080	119,350
66,261	-17,478	266,942	119,389
67,276	-17,282	266,654	119,428
68,290	-17,439	266,489	119,201
69,305	-17,508	266,282	119,035
70,320	-17,514	266,245	119,002
71,334	-17,402	265,834	118,909
72,349	-17,448	265,416	118,670
73,363	-17,712	265,455	118,438
74,378	-17,465	265,076	118,482
75,393	-17,564	264,981	118,339
76,407	-17,427	264,661	118,310
77,422	-17,293	264,375	118,292
78,436	-17,555	264,302	118,012
79,451	-17,522	263,994	117,894
80,466	-17,455	263,724	117,823
81,480	-17,501	263,595	117,714
82,495	-17,379	263,333	117,696
83,509	-17,431	263,238	117,596
84,524	-17,211	262,852	117,611
85,539	-17,415	262,811	117,398
86,553	-17,347	262,397	117,265
87,568	-17,301	262,371	117,283
88,582	-17,480	262,209	117,041
89,597	-17,546	261,943	116,852
90,611	-17,393	261,580	116,816
91,626	-17,381	261,638	116,843
92,641	-17,286	261,285	116,759
93,655	-17,412	261,025	116,521
94,670	-17,481	260,896	116,391
95,684	-17,419	260,701	116,349
96,699	-17,514	260,465	116,149
97,714	-17,464	260,429	116,167
98,728	-17,350	260,086	116,105
99,743	-17,472	260,003	115,949
100,757	-17,438	259,658	115,815
101,772	-17,379	259,399	115,741
102,787	-17,395	259,135	115,599
103,801	-17,390	258,880	115,479
104,816	-17,358	258,885	115,500
105,830	-17,514	258,745	115,289
106,845	-17,500	258,338	115,110
107,860	-17,497	258,186	115,035
108,874	-17,593	257,879	114,804
109,889	-17,595	257,831	114,770
110,903	-17,574	257,697	114,718
111,918	-17,480	257,396	114,657
112,933	-17,407	257,171	114,610
113,947	-17,350	256,917	114,536
114,962	-17,295	256,743	114,497
115,976	-17,280	256,548	114,413
116,991	-17,234	256,311	114,337
118,006	-17,343	256,077	114,128
119,020	-17,476	256,127	114,024
120,035	-17,358	255,960	114,042
121,049	-17,195	255,626	114,024
122,064	-17,374	255,434	113,773
123,079	-17,387	255,260	113,674
124,093	-17,399	255,111	113,587
125,108	-17,216	254,835	113,612
126,122	-17,327	254,835	113,507
127,137	-17,416	254,612	113,320
128,151	-17,165	254,328	113,401
129,166	-17,235	254,041	113,202
130,181	-17,353	253,863	113,011
131,195	-17,284	253,736	113,004
132,210	-17,268	253,374	112,846
133,224	-17,588	253,361	112,555
134,239	-17,506	253,041	112,473
135,254	-17,606	252,903	112,316
136,268	-17,321	252,756	112,485
137,283	-17,202	252,459	112,445
138,297	-17,279	252,351	112,321
139,312	-17,378	252,058	112,096
140,327	-17,317	251,955	112,092
141,341	-17,404	251,772	111,927
142,356	-17,338	251,407	111,811
143,370	-17,324	251,252	111,743
144,385	-17,469	251,134	111,558
145,400	-17,241	250,811	111,598
146,414	-17,285	250,699	111,501
147,429	-17,312	250,542	111,398
148,443	-17,219	250,240	111,333
149,458	-17,276	250,179	111,247
150,473	-17,341	249,904	111,060
151,487	-17,414	249,736	110,913
152,502	-17,184	249,559	111,019
153,516	-17,269	249,271	110,810
154,531	-17,425	249,329	110,694
155,546	-17,450	249,099	110,561
156,560	-17,346	248,982	110,587
157,575	-17,296	248,631	110,463
158,589	-17,309	248,359	110,322
159,604	-17,164	248,143	110,337
160,619	-17,250	248,104	110,239
161,633	-17,411	247,900	110,002
162,648	-17,253	247,668	110,022
163,662	-17,292	247,660	109,976
164,677	-17,462	247,389	109,704
165,692	-17,445	247,332	109,683
166,706	-17,374	247,152	109,653
167,721	-17,330	246,924	109,579
168,735	-17,370	246,852	109,504
169,750	-17,354	246,575	109,384
170,764	-17,551	246,453	109,156
171,779	-17,135	246,152	109,360
172,794	-17,399	246,307	109,199
173,808	-17,461	245,876	108,947
174,823	-17,239	245,892	109,129
175,837	-17,298	245,717	108,992
176,852	-17,415	245,533	108,803
177,867	-17,337	245,160	108,693
178,881	-17,252	245,095	108,725
179,896	-17,183	244,790	108,637
180,910	-17,432	244,646	108,357
181,925	-17,163	244,511	108,510
182,940	-17,189	244,282	108,378
183,954	-17,276	244,142	108,234
184,969	-17,297	244,015	108,151
185,983	-17,435	243,928	107,989
186,998	-17,120	243,694	108,135
188,013	-17,310	243,412	107,844
189,027	-17,410	243,300	107,703
190,042	-17,360	243,119	107,654
191,056	-17,247	242,990	107,679
192,071	-17,455	242,672	107,359
193,086	-17,419	242,568	107,333
194,100	-17,523	242,464	107,192
195,115	-17,495	242,209	107,092
196,129	-17,221	241,975	107,204
197,144	-17,219	241,692	107,070
198,159	-17,396	241,547	106,852
199,173	-17,516	241,526	106,736
200,188	-17,487	241,208	106,609
201,202	-17,458	241,183	106,612
202,217	-17,176	240,828	106,674
203,232	-17,386	240,743	106,457
204,246	-17,707	240,615	106,130
205,261	-17,584	240,314	106,088
206,275	-16,572	240,712	107,076
207,290	-11,392	242,491	112,091
208,304	-5,064	244,462	118,195
209,319	-2,088	245,155	120,967
210,334	-0,957	245,277	121,946
211,348	0,047	245,626	122,935
212,363	0,499	245,600	123,281
213,377	0,948	245,448	123,564
214,392	0,906	245,583	123,586
215,407	1,392	245,490	123,927
216,421	1,670	245,291	124,044
217,436	1,532	245,157	123,851
218,450	1,444	245,054	123,716
219,465	1,597	244,938	123,772
220,480	1,497	244,702	123,559
221,494	1,046	244,619	123,138
222,509	1,190	244,218	123,043
223,523	0,862	244,058	122,684
224,538	0,846	243,779	122,520
225,553	0,639	243,524	122,213
226,567	0,578	243,508	122,143
227,582	0,663	243,329	122,112
228,596	0,894	243,031	122,139
229,611	0,807	243,064	122,074
230,626	0,796	242,788	121,915
231,640	0,778	242,568	121,780
232,655	0,733	242,344	121,620
233,669	0,715	242,239	121,542
234,684	0,495	242,200	121,333
235,699	0,895	242,092	121,592
236,713	0,704	241,908	121,334
237,728	0,614	241,879	121,236
238,742	0,759	241,698	121,252
239,757	0,498	241,459	120,911
240,772	0,711	241,224	120,954
241,786	0,734	241,222	120,960
242,801	0,648	240,984	120,761
243,815	0,449	240,801	120,499
244,830	0,635	240,678	120,576
245,844	0,604	240,468	120,435
246,859	0,714	240,258	120,407
247,874	0,613	240,191	120,282
248,888	0,552	239,970	120,112
249,903	0,677	239,888	120,161
250,917	0,765	239,698	120,124
251,932	0,785	239,539	120,050
252,947	0,735	239,386	119,923
253,961	0,654	239,164	119,737
254,976	0,744	239,085	119,758
255,990	0,660	238,801	119,538
257,005	0,744	238,656	119,522
258,020	0,868	238,740	119,652
259,034	0,771	238,383	119,385
260,049	0,703	238,351	119,305
261,063	0,734	238,112	119,199
262,078	0,682	237,923	119,053
263,093	0,952	237,734	119,161
264,107	0,722	237,493	118,848
265,122	0,711	237,575	118,870
266,136	0,714	237,387	118,767
267,151	0,880	237,203	118,795
268,166	0,812	236,968	118,613
269,180	0,961	236,697	118,585
270,195	0,943	236,695	118,559
271,209	0,806	236,437	118,311
272,224	0,738	236,418	118,238
273,239	0,670	236,229	118,079
274,253	0,593	236,057	117,923
275,268	0,863	235,900	118,045
276,282	0,495	235,819	117,705
277,297	0,699	235,710	117,800
278,312	0,767	235,695	117,836
279,326	0,763	235,432	117,691
280,341	0,720	235,425	117,643
281,355	0,784	235,153	117,547
282,370	0,898	234,820	117,459
283,384	0,722	234,663	117,233
284,399	0,751	234,610	117,218
285,414	0,695	234,473	117,096
286,428	0,575	234,531	117,021
287,443	0,761	234,018	116,899
288,457	0,808	234,068	116,950
289,472	0,735	233,878	116,788
290,487	0,754	233,663	116,685
291,501	0,939	233,575	116,774
292,516	0,770	233,409	116,550
293,530	0,929	233,258	116,587
294,545	0,930	233,055	116,476
295,560	1,000	232,900	116,442
296,574	0,879	232,898	116,337
297,589	0,870	232,640	116,191
298,603	1,067	232,300	116,163
299,618	0,906	232,471	116,114
300,633	0,847	232,210	115,927
301,647	0,923	232,135	115,938
302,662	1,024	231,959	115,918
303,676	0,999	231,800	115,809
304,691	1,155	231,641	115,839
305,706	0,909	231,453	115,546
306,720	0,994	231,462	115,605
307,735	1,003	231,183	115,463
308,749	0,902	231,125	115,346
309,764	1,136	230,912	115,408
310,779	1,095	230,816	115,318
311,793	1,051	230,622	115,178
312,808	1,100	230,374	115,081
313,822	0,937	230,269	114,894
314,837	0,934	230,088	114,791
315,852	1,137	229,903	114,843
316,866	1,189	229,943	114,893
317,881	1,229	229,671	114,777
318,895	0,848	229,610	114,446
319,910	0,854	229,413	114,342
320,925	0,973	229,315	114,374
321,939	1,111	228,997	114,310
322,954	0,838	229,051	114,119
323,968	0,903	228,829	114,047
324,983	1,084	228,669	114,094
325,997	0,989	228,634	113,995
327,012	1,132	228,253	113,903
328,027	1,165	228,157	113,870
329,041	0,943	228,140	113,684
330,056	0,894	228,113	113,623
331,070	0,988	227,839	113,548
332,085	0,932	227,729	113,440
333,100	0,876	227,561	113,304
334,114	0,923	227,443	113,271
335,129	0,866	227,248	113,120
336,143	0,864	227,082	113,027
337,158	0,976	226,938	113,029
338,173	0,948	226,847	112,953
339,187	0,946	226,729	112,882
340,202	0,853	226,542	112,709
341,216	1,063	226,381	112,777
342,231	1,005	226,255	112,660
343,246	1,283	226,167	112,814
344,260	1,252	225,975	112,685
345,275	1,141	225,920	112,565
346,289	1,100	225,618	112,374
347,304	1,078	225,577	112,327
348,319	0,980	225,407	112,160
349,333	1,243	225,197	112,240
350,348	1,085	225,033	112,031
351,362	0,978	225,062	111,956
352,377	1,074	224,743	111,859
353,392	1,312	224,762	112,035
354,406	1,282	224,535	111,889
355,421	192,457	1313,482	1381,185
356,435	154,140	1446,008	1381,036
