DTS Sentinel unit serial number:	SN410029Multiplexer serial number:	ORYXHardware model number:	OX2-SRSoftware version number:	ORYX F/W v4,00 Oryx Data Collector v3.7.2.0data status	okinstallation	B5 Nyhavnadifferential loss correction	single-endedforward channel	channel 2reverse channel	N/Adate	2023/12/11time	15:07:13forward acquisition time	300,00reverse acquisition time	0,00gamma	499,1914k internal	0,3166k external	0,3166temperature offset calibration	1,0000default loss term (dB/km)	0,3820temperature slope calibration	1,0000multiplexer offset coefficient	1,0000multiplexer slope coefficient	1,0000fibre end	0,00T internal ref (°C)	13,11T ext. ref 1 (°C)	-1,96T ext. ref 2 (°C)	-1,95length (m)	temperature (°C)	Stokes	anti-Stokes-744,400	266,465	0,070	0,090
-743,385	-34,806	-0,399	-0,159
-742,371	-25,063	0,098	0,042
-741,356	-131,038	-0,291	0,028
-740,342	-91,907	0,147	-0,030
-739,327	-131,535	-0,328	0,031
-738,312	800,000	0,028	0,088
-737,298	-94,996	-0,389	-0,077
-736,283	116,307	0,164	-0,147
-735,269	10,249	-0,136	-0,076
-734,254	157,293	0,041	0,041
-733,239	-64,314	-0,513	-0,153
-732,225	-108,962	0,172	-0,027
-731,210	146,446	0,048	0,047
-730,196	-200,000	-0,007	0,104
-729,181	238,711	-0,036	-0,044
-728,167	247,199	0,067	-0,083
-727,152	-200,000	-0,005	-0,055
-726,137	-130,412	-0,077	0,008
-725,123	108,097	0,090	0,079
-724,108	800,000	-0,063	-0,133
-723,094	471,269	-0,043	-0,072
-722,079	-107,568	-0,175	-0,028
-721,064	338,022	0,051	-0,073
-720,050	800,000	0,021	0,045
-719,035	-150,231	-0,048	0,003
-718,021	8,146	-0,043	0,024
-717,006	12,416	-0,093	-0,053
-715,991	-121,529	-0,185	-0,022
-714,977	85,898	-0,145	-0,117
-713,962	-200,000	0,000	-0,001
-712,948	122,445	-0,020	0,019
-711,933	-67,393	0,072	-0,021
-710,918	800,000	-0,027	-0,055
-709,904	-200,000	-0,029	-0,187
-708,889	83,500	-0,076	-0,061
-707,875	-156,525	-0,108	-0,005
-706,860	692,131	0,036	0,069
-705,845	380,344	0,076	-0,115
-704,831	458,166	0,088	-0,144
-703,816	16,745	0,060	0,035
-702,802	800,000	-0,038	-0,082
-701,787	364,500	-0,094	-0,139
-700,772	-200,000	-0,009	-0,046
-699,758	-82,151	-0,136	0,032
-698,743	-16,412	0,087	0,040
-697,729	733,583	-0,051	-0,101
-696,714	-200,000	0,000	0,007
-695,699	800,000	0,024	0,069
-694,685	-200,000	-0,095	-0,000
-693,670	99,001	-0,094	-0,079
-692,656	782,726	0,022	0,044
-691,641	142,579	0,027	-0,026
-690,627	-200,000	-0,008	0,125
-689,612	-200,000	-0,011	0,061
-688,597	-131,975	-0,129	0,012
-687,583	800,000	-0,019	-0,058
-686,568	-59,833	0,065	-0,020
-685,554	106,840	-0,146	-0,127
-684,539	306,275	0,015	-0,021
-683,524	-200,000	-0,002	-0,038
-682,510	221,275	0,069	0,081
-681,495	-28,965	-0,106	-0,044
-680,481	800,000	-0,051	-0,116
-679,466	-89,733	-0,020	0,004
-678,451	58,489	-0,184	-0,132
-677,437	-162,856	0,105	-0,004
-676,422	-18,130	0,127	0,058
-675,408	219,645	-0,063	-0,075
-674,393	-200,000	0,005	0,102
-673,378	-111,335	-0,142	-0,021
-672,364	-92,133	-0,183	0,038
-671,349	-122,931	0,119	-0,014
-670,335	36,674	0,060	0,039
-669,320	-200,000	0,034	0,149
-668,305	34,238	0,116	-0,074
-667,291	-200,000	-0,018	0,105
-666,276	-87,070	-0,026	-0,006
-665,262	-179,506	-0,049	-0,001
-664,247	-101,631	-0,093	-0,016
-663,232	800,000	0,032	-0,087
-662,218	-27,378	-0,109	-0,046
-661,203	-78,664	-0,115	-0,029
-660,189	115,641	0,014	0,013
-659,174	-80,557	-0,035	0,009
-658,159	-200,000	-0,045	-0,171
-657,145	-133,349	-0,087	-0,008
-656,130	25,984	0,089	-0,054
-655,116	127,310	-0,040	0,037
-654,101	422,216	-0,014	0,023
-653,086	-110,133	0,115	-0,017
-652,072	321,931	0,069	0,097
-651,057	800,000	-0,014	-0,041
-650,043	85,607	0,109	-0,087
-649,028	800,000	-0,018	-0,045
-648,014	524,359	0,026	0,046
-646,999	-1,115	0,019	0,010
-645,984	209,995	-0,110	0,126
-644,970	-7,664	-0,029	-0,014
-643,955	161,805	-0,060	0,061
-642,941	800,000	0,040	-0,102
-641,926	-43,266	-0,158	-0,058
-640,911	79,848	-0,031	-0,024
-639,897	550,484	0,053	0,094
-638,882	-200,000	-0,021	-0,181
-637,868	-101,396	0,027	-0,005
-636,853	10,832	-0,038	-0,021
-635,838	-200,000	-0,005	-0,105
-634,824	-87,071	0,029	-0,006
-633,809	800,000	-0,012	-0,028
-632,795	800,000	0,017	-0,046
-631,780	-8,588	0,046	-0,022
-630,765	-200,000	0,009	0,051
-629,751	138,403	-0,059	0,057
-628,736	-200,000	0,001	-0,075
-627,722	280,868	-0,036	-0,047
-626,707	-200,000	0,012	-0,121
-625,692	-21,683	-0,063	-0,028
-624,678	203,913	0,021	0,023
-623,663	-200,000	-0,009	-0,035
-622,649	800,000	-0,054	-0,172
-621,634	209,536	0,020	0,023
-620,619	-200,000	-0,009	-0,194
-619,605	70,130	0,082	-0,062
-618,590	179,726	0,060	0,065
-617,576	-86,448	-0,074	0,017
-616,561	-200,000	0,001	-0,016
-615,546	-200,000	-0,022	-0,189
-614,532	-3,702	-0,124	0,063
-613,517	304,381	0,019	0,026
-612,503	-113,467	-0,144	0,020
-611,488	525,221	0,021	-0,036
-610,474	430,487	-0,051	-0,081
-609,459	-200,000	-0,015	-0,172
-608,444	-90,807	0,032	0,007
-607,430	154,800	-0,048	0,048
-606,415	-141,356	0,121	-0,009
-605,401	-52,824	-0,160	0,053
-604,386	298,139	-0,050	0,067
-603,371	58,331	0,092	0,066
-602,357	304,970	-0,053	-0,072
-601,342	-124,866	0,018	0,002
-600,328	-200,000	-0,000	0,079
-599,313	184,580	-0,089	-0,096
-598,298	65,482	-0,010	-0,007
-597,284	-43,614	0,024	0,009
-596,269	-200,000	-0,019	-0,063
-595,255	-200,000	-0,004	-0,130
-594,240	-200,000	-0,040	-0,132
-593,225	-200,000	0,002	-0,189
-592,211	-200,000	0,030	-0,128
-591,196	-200,000	0,003	-0,101
-590,182	-49,890	-0,173	0,060
-589,167	138,619	-0,020	-0,019
-588,152	-123,943	0,141	-0,016
-587,138	184,487	0,114	-0,123
-586,123	800,000	-0,018	-0,056
-585,109	89,123	0,029	0,023
-584,094	-52,361	-0,018	-0,006
-583,079	-4,014	-0,106	-0,054
-582,065	-200,000	-0,009	-0,035
-581,050	-69,583	-0,068	0,019
-580,036	485,876	-0,048	0,080
-579,021	47,962	-0,078	0,053
-578,006	-87,318	-0,112	-0,025
-576,992	220,904	-0,035	-0,041
-575,977	-77,868	-0,094	0,024
-574,963	253,585	0,027	-0,034
-573,948	-200,000	-0,014	0,086
-572,934	-134,783	-0,148	0,013
-571,919	168,078	-0,051	0,053
-570,904	-200,000	0,034	-0,123
-569,890	-37,987	-0,153	-0,059
-568,875	-42,150	0,130	-0,048
-567,861	522,923	0,045	-0,078
-566,846	-41,460	0,043	0,016
-565,831	447,980	0,103	0,167
-564,817	-200,000	-0,006	0,034
-563,802	-200,000	0,027	0,151
-562,788	-200,000	-0,017	-0,093
-561,773	-200,000	0,009	-0,171
-560,758	800,000	0,082	-0,185
-559,744	212,592	-0,099	0,114
-558,729	-108,957	0,111	0,017
-557,715	320,292	-0,105	-0,146
-556,700	-27,367	-0,068	0,029
-555,685	-200,000	0,011	-0,060
-554,671	175,131	0,071	-0,075
-553,656	800,000	0,028	0,067
-552,642	-156,316	0,127	0,006
-551,627	282,945	-0,054	0,071
-550,612	325,345	-0,065	-0,091
-549,598	146,056	-0,093	-0,091
-548,583	67,905	0,052	0,039
-547,569	0,526	-0,033	0,017
-546,554	150,411	-0,118	-0,117
-545,539	-200,000	0,001	0,099
-544,525	-145,290	0,065	-0,004
-543,510	60,426	-0,052	0,038
-542,496	-200,000	-0,027	0,107
-541,481	-84,004	-0,106	0,024
-540,466	-99,185	-0,057	0,010
-539,452	429,598	-0,024	0,039
-538,437	-22,707	0,082	-0,036
-537,423	-200,000	-0,004	0,100
-536,408	-132,360	-0,013	0,001
-535,393	227,486	-0,024	-0,028
-534,379	10,705	-0,111	-0,062
-533,364	217,960	0,078	0,091
-532,350	331,054	0,086	0,121
-531,335	-33,264	-0,129	0,052
-530,321	267,468	-0,024	0,031
-529,306	-127,085	-0,111	0,012
-528,291	34,435	0,156	-0,099
-527,277	-200,000	-0,000	0,058
-526,262	47,068	-0,076	0,051
-525,248	-22,034	-0,063	-0,028
-524,233	296,440	0,064	0,086
-523,218	84,978	0,037	0,029
-522,204	35,828	-0,119	0,076
-521,189	116,339	-0,080	-0,071
-520,175	-200,000	-0,013	-0,071
-519,160	61,217	0,021	0,015
-518,145	-200,000	0,046	-0,156
-517,131	459,907	0,009	-0,014
-516,116	179,415	0,012	-0,013
-515,102	-200,000	-0,011	0,110
-514,087	-67,917	0,085	0,024
-513,072	-93,332	-0,204	-0,041
-512,058	-166,569	0,156	-0,005
-511,043	7,931	0,036	-0,020
-510,029	11,982	-0,089	-0,050
-509,014	-200,000	-0,021	-0,174
-507,999	-200,000	-0,006	0,078
-506,985	523,068	-0,062	0,106
-505,970	-200,000	0,008	0,154
-504,956	-200,000	0,029	-0,099
-503,941	-0,915	0,075	0,038
-502,926	-14,916	-0,112	-0,052
-501,912	492,875	0,069	0,116
-500,897	-22,902	0,079	0,035
-499,883	-200,000	-0,017	-0,142
-498,868	-80,322	-0,126	-0,030
-497,853	-200,000	0,027	-0,106
-496,839	-200,000	-0,018	-0,118
-495,824	215,806	0,090	0,105
-494,810	-200,000	0,006	0,108
-493,795	386,594	-0,029	0,044
-492,781	56,628	-0,067	0,048
-491,766	-178,396	0,163	0,003
-490,751	800,000	-0,020	0,045
-489,737	-200,000	-0,013	-0,096
-488,722	173,368	0,101	-0,107
-487,708	-198,056	0,233	0,001
-486,693	320,029	0,036	-0,050
-485,678	-40,539	-0,136	0,051
-484,664	-145,057	-0,106	0,007
-483,649	-200,000	-0,011	-0,080
-482,635	-32,453	0,138	0,056
-481,620	214,499	-0,018	0,021
-480,605	-91,945	0,036	0,007
-479,591	-200,000	-0,007	0,026
-478,576	800,000	-0,035	0,074
-477,562	-200,000	0,010	-0,087
-476,547	88,643	-0,050	0,040
-475,532	-133,693	-0,168	0,015
-474,518	377,294	0,127	-0,189
-473,503	-200,000	0,018	-0,069
-472,489	34,081	-0,008	0,005
-471,474	72,808	0,062	-0,047
-470,459	-57,221	0,109	0,035
-469,445	-57,450	-0,049	-0,015
-468,430	100,965	0,018	0,015
-467,416	-200,000	-0,032	0,109
-466,401	39,644	0,129	0,084
-465,386	-200,000	-0,008	-0,045
-464,372	-12,190	-0,143	-0,068
-463,357	-200,000	-0,024	-0,102
-462,343	363,480	0,033	-0,048
-461,328	757,225	-0,034	0,067
-460,313	157,856	0,164	0,165
-459,299	-83,870	0,094	-0,022
-458,284	110,422	-0,101	-0,089
-457,270	-124,240	0,062	0,007
-456,255	-200,000	-0,004	0,022
-455,241	-200,000	-0,021	-0,086
-454,226	-200,000	-0,008	0,114
-453,211	-200,000	0,019	0,069
-452,197	800,000	-0,028	0,073
-451,182	800,000	0,016	0,048
-450,168	107,476	-0,047	0,041
-449,153	-124,672	-0,132	-0,015
-448,138	800,000	-0,014	0,034
-447,124	300,753	-0,010	-0,014
-446,109	-15,409	-0,088	0,041
-445,095	243,743	0,061	0,074
-444,080	111,700	-0,074	0,065
-443,065	-200,000	-0,007	0,156
-442,051	-72,656	-0,058	-0,015
-441,036	18,527	-0,095	0,055
-440,022	-108,167	-0,107	-0,017
-439,007	800,000	-0,020	0,047
-437,992	-200,000	-0,017	0,127
-436,978	-78,558	0,126	-0,031
-435,963	800,000	0,034	0,097
-434,949	342,910	-0,025	0,036
-433,934	74,041	0,100	0,076
-432,919	72,867	-0,184	-0,139
-431,905	9,965	-0,072	0,040
-430,890	-200,000	0,012	-0,159
-429,876	-104,801	0,077	-0,013
-428,861	-200,000	-0,053	0,250
-427,846	-200,000	-0,022	0,111
-426,832	800,000	0,019	-0,054
-425,817	-18,389	-0,059	-0,027
-424,803	-200,000	-0,028	0,132
-423,788	-200,000	-0,003	0,126
-422,773	-200,000	-0,009	0,086
-421,759	-18,729	-0,040	-0,018
-420,744	449,103	0,019	-0,031
-419,730	-61,382	-0,068	0,021
-418,715	-36,606	-0,049	-0,019
-417,701	110,267	0,048	-0,042
-416,686	105,039	-0,048	-0,041
-415,671	-200,000	-0,012	0,041
-414,657	800,000	-0,022	0,057
-413,642	26,338	-0,018	0,011
-412,628	-1,896	0,021	-0,011
-411,613	36,938	-0,077	0,049
-410,598	659,166	-0,101	0,189
-409,584	187,014	0,086	-0,093
-408,569	-170,241	-0,030	0,001
-407,555	-69,943	0,110	-0,030
-406,540	-24,887	-0,098	-0,042
-405,525	-200,000	0,002	-0,014
-404,511	-200,000	0,012	-0,117
-403,496	83,654	-0,104	0,082
-402,482	-47,725	0,123	-0,043
-401,467	25,695	0,038	0,023
-400,452	-81,147	0,062	-0,015
-399,438	-14,793	0,057	0,027
-398,423	-59,033	-0,168	-0,052
-397,409	4,479	-0,040	-0,021
-396,394	-200,000	0,024	-0,105
-395,379	-200,000	-0,003	-0,076
-394,365	-128,430	0,097	0,010
-393,350	75,992	0,060	0,046
-392,336	-200,000	0,023	-0,109
-391,321	-200,000	0,039	-0,182
-390,306	327,609	0,038	0,053
-389,292	569,150	-0,086	-0,152
-388,277	234,858	-0,052	-0,062
-387,263	-200,000	0,003	-0,067
-386,248	472,466	0,054	-0,089
-385,233	-69,750	0,064	0,018
-384,219	554,646	0,054	-0,094
-383,204	10,020	-0,062	-0,034
-382,190	219,768	-0,005	-0,006
-381,175	-34,787	0,083	-0,033
-380,160	133,999	-0,052	0,049
-379,146	112,262	-0,097	-0,085
-378,131	-61,154	-0,042	0,013
-377,117	-200,000	-0,004	-0,089
-376,102	197,554	-0,046	-0,052
-375,088	-69,776	0,118	-0,033
-374,073	800,000	0,043	-0,100
-373,058	-200,000	0,012	0,052
-372,044	-63,896	-0,167	-0,049
-371,029	-200,000	-0,001	0,086
-370,015	-200,000	0,009	0,105
-369,000	-55,013	0,071	0,023
-367,985	800,000	-0,045	0,111
-366,971	308,421	0,077	-0,104
-365,956	206,615	0,053	0,059
-364,942	131,296	0,018	0,017
-363,927	-200,000	0,008	-0,188
-362,912	12,745	0,036	-0,020
-361,898	-19,663	0,086	-0,038
-360,883	800,000	-0,051	-0,125
-359,869	-131,666	0,153	-0,014
-358,854	-200,000	-0,025	-0,082
-357,839	-120,795	-0,078	-0,009
-356,825	-57,009	0,145	0,046
-355,810	-54,353	0,099	-0,032
-354,796	800,000	-0,037	-0,078
-353,781	-137,486	-0,052	0,004
-352,766	677,260	0,041	0,078
-351,752	108,068	0,074	-0,064
-350,737	140,008	0,034	-0,033
-349,723	138,253	-0,033	-0,032
-348,708	-155,025	-0,104	0,005
-347,693	328,591	-0,087	-0,121
-346,679	513,608	-0,005	0,009
-345,664	287,878	-0,030	0,039
-344,650	800,000	-0,036	-0,094
-343,635	-185,043	0,195	0,002
-342,620	-165,484	-0,052	0,002
-341,606	-150,017	0,088	0,005
-340,591	317,373	-0,114	0,157
-339,577	-200,000	0,008	0,119
-338,562	103,662	-0,116	0,099
-337,548	51,599	-0,101	0,070
-336,533	-49,494	0,073	0,025
-335,518	34,988	0,050	0,032
-334,504	800,000	0,056	-0,132
-333,489	209,834	-0,136	0,154
-332,475	91,921	0,084	-0,069
-331,460	-200,000	-0,028	0,106
-330,445	-200,000	-0,019	-0,082
-329,431	-200,000	0,020	0,103
-328,416	30,808	0,018	0,011
-327,402	-200,000	-0,014	0,157
-326,387	800,000	0,069	0,187
-325,372	-200,000	0,009	0,074
-324,358	-200,000	0,009	-0,057
-323,343	-34,909	-0,070	-0,027
-322,329	28,417	0,182	0,111
-321,314	292,767	-0,074	0,098
-320,299	331,750	0,026	0,037
-319,285	-200,000	0,000	-0,012
-318,270	-200,000	0,002	-0,095
-317,256	-200,000	-0,003	-0,013
-316,241	-1,373	0,080	-0,041
-315,226	800,000	0,036	0,102
-314,212	-200,000	0,022	0,119
-313,197	123,962	0,061	0,055
-312,183	-84,660	0,104	0,023
-311,168	-151,240	-0,079	0,004
-310,153	80,527	-0,132	-0,103
-309,139	800,000	0,053	-0,147
-308,124	215,863	0,073	-0,083
-307,110	800,000	0,072	0,155
-306,095	-200,000	0,002	-0,049
-305,080	-200,000	-0,004	0,077
-304,066	800,000	-0,022	-0,047
-303,051	379,072	-0,032	-0,048
-302,037	-200,000	0,004	-0,167
-301,022	-89,183	-0,023	0,005
-300,008	-200,000	0,012	0,132
-298,993	76,618	0,050	-0,039
-297,978	61,326	-0,045	0,032
-296,964	156,305	0,027	0,026
-295,949	-200,000	-0,014	-0,071
-294,935	-200,000	-0,043	-0,150
-293,920	-200,000	-0,021	0,073
-292,905	226,499	-0,039	0,045
-291,891	-35,518	0,116	0,045
-290,876	-135,583	-0,117	0,010
-289,862	-83,445	0,054	0,012
-288,847	23,643	-0,062	0,037
-287,832	800,000	0,049	-0,124
-286,818	-200,000	0,009	0,129
-285,803	-155,564	0,149	-0,007
-284,789	-45,045	0,137	0,049
-283,774	357,241	0,020	0,029
-282,759	800,000	-0,040	0,096
-281,745	8,437	0,120	0,065
-280,730	4,142	0,101	-0,053
-279,716	-115,391	0,066	0,009
-278,701	41,637	-0,031	0,020
-277,686	-200,000	0,015	0,048
-276,672	-142,726	0,123	-0,009
-275,657	49,265	0,012	-0,008
-274,643	-200,000	-0,017	-0,118
-273,628	250,137	0,060	-0,073
-272,613	-151,613	0,043	0,002
-271,599	-103,120	-0,041	-0,007
-270,584	-200,000	0,010	0,041
-269,570	331,066	0,121	0,168
-268,555	800,000	-0,028	0,065
-267,540	267,255	-0,099	-0,125
-266,526	512,420	-0,035	-0,059
-265,511	56,301	0,066	0,046
-264,497	-160,202	0,138	0,005
-263,482	463,400	-0,011	-0,018
-262,467	257,464	-0,043	0,053
-261,453	248,987	0,019	-0,023
-260,438	-200,000	-0,043	0,147
-259,424	406,400	0,047	-0,071
-258,409	23,302	-0,154	-0,091
-257,395	-42,965	0,033	-0,012
-256,380	-105,411	0,104	0,017
-255,365	-69,556	0,068	-0,019
-254,351	-200,000	0,011	-0,155
-253,336	-57,702	-0,031	-0,010
-252,322	273,833	0,069	0,088
-251,307	177,900	-0,045	0,048
-250,292	-200,000	0,010	0,041
-249,278	769,183	-0,010	0,020
-248,263	-200,000	0,007	-0,106
-247,249	-200,000	-0,001	-0,021
-246,234	9,506	0,134	-0,073
-245,219	800,000	0,009	-0,022
-244,205	225,975	-0,028	-0,033
-243,190	-72,533	0,060	-0,016
-242,176	-77,254	0,043	-0,011
-241,161	131,826	0,072	-0,067
-240,146	-24,630	-0,211	0,090
-239,132	-200,000	-0,004	-0,063
-238,117	-200,000	0,013	-0,106
-237,103	-200,000	-0,000	-0,062
-236,088	-4,490	0,114	-0,057
-235,073	-200,000	-0,025	0,094
-234,059	165,250	-0,116	0,118
-233,044	274,989	0,057	0,073
-232,030	-46,750	-0,048	-0,017
-231,015	800,000	0,046	-0,122
-230,000	393,292	-0,044	0,067
-228,986	-112,417	0,033	-0,005
-227,971	14,750	0,075	0,042
-226,957	-26,824	0,112	0,047
-225,942	-118,958	-0,074	-0,009
-224,927	363,448	0,021	0,031
-223,913	-200,000	-0,009	0,073
-222,898	78,884	-0,093	0,072
-221,884	159,849	0,061	0,061
-220,869	453,190	-0,061	-0,098
-219,855	800,000	0,037	-0,102
-218,840	-61,289	0,033	0,010
-217,825	-34,561	0,064	0,025
-216,811	-200,000	0,032	-0,190
-215,796	800,000	0,032	-0,068
-214,782	62,072	-0,070	-0,050
-213,767	246,234	0,038	0,046
-212,752	569,239	0,073	0,128
-211,738	-200,000	0,000	-0,021
-210,723	72,520	-0,054	0,040
-209,709	-200,000	-0,019	0,082
-208,694	80,089	0,097	0,075
-207,679	-143,778	-0,150	-0,010
-206,665	19,794	0,056	0,032
-205,650	800,000	-0,019	0,047
-204,636	157,567	0,058	0,058
-203,621	800,000	0,037	0,094
-202,606	63,109	-0,025	0,018
-201,592	68,198	0,059	-0,043
-200,577	255,071	-0,007	0,009
-199,563	800,000	0,032	-0,102
-198,548	-26,688	0,060	-0,025
-197,533	-200,000	-0,031	0,169
-196,519	800,000	0,021	0,064
-195,504	90,145	-0,053	-0,042
-194,490	201,664	-0,087	-0,097
-193,475	18,425	0,043	0,025
-192,460	168,942	0,090	0,092
-191,446	737,871	-0,051	0,099
-190,431	-200,000	0,011	0,123
-189,417	-109,476	0,037	-0,006
-188,402	309,612	-0,056	-0,076
-187,387	216,051	-0,018	-0,020
-186,373	-200,000	0,015	0,103
-185,358	155,596	0,020	-0,020
-184,344	85,125	0,026	-0,020
-183,329	800,000	0,074	0,191
-182,315	800,000	0,016	0,045
-181,300	-200,000	-0,032	-0,117
-180,285	459,610	-0,055	-0,088
-179,271	-200,000	-0,038	-0,137
-178,256	495,325	0,046	0,076
-177,242	88,465	0,104	0,083
-176,227	-200,000	-0,060	0,229
-175,212	-200,000	0,001	0,032
-174,198	166,550	-0,060	0,061
-173,183	-149,580	0,116	-0,006
-172,169	-149,699	0,074	0,004
-171,154	-166,677	-0,041	-0,001
-170,139	-200,000	0,029	0,112
-169,125	163,024	0,025	0,025
-168,110	-123,410	0,060	-0,007
-167,096	800,000	-0,036	-0,078
-166,081	120,900	-0,087	0,077
-165,066	-200,000	-0,006	0,117
-164,052	530,700	-0,022	0,038
-163,037	-64,575	0,093	-0,027
-162,023	-142,775	0,136	0,009
-161,008	162,453	0,054	0,055
-159,993	580,612	0,086	-0,152
-158,979	198,441	-0,101	-0,111
-157,964	-186,600	-0,055	-0,001
-156,950	800,000	0,007	0,018
-155,935	-200,000	-0,013	0,107
-154,920	147,892	-0,146	0,142
-153,906	175,856	-0,030	0,031
-152,891	800,000	0,046	0,142
-151,877	800,000	-0,033	-0,084
-150,862	-200,000	0,014	0,051
-149,847	43,942	-0,138	0,091
-148,833	133,805	0,092	0,086
-147,818	351,685	-0,050	0,071
-146,804	-17,194	-0,137	0,062
-145,789	800,000	0,029	0,088
-144,775	800,000	-0,078	0,182
-143,760	63,135	0,098	0,071
-142,745	800,000	-0,045	0,119
-141,731	800,000	0,053	0,138
-140,716	-200,000	0,044	0,187
-139,702	-107,592	-0,120	-0,019
-138,687	-140,585	-0,065	0,005
-137,672	800,000	-0,024	-0,068
-136,658	372,884	0,083	-0,122
-135,643	507,214	-0,095	-0,159
-134,629	800,000	0,009	0,029
-133,614	376,757	0,088	0,129
-132,599	-114,650	0,028	0,004
-131,585	-174,047	-0,142	-0,003
-130,570	21,755	0,117	0,068
-129,556	46,449	-0,163	0,108
-128,541	-49,043	0,054	-0,018
-127,526	-200,000	0,002	-0,071
-126,512	1,449	0,042	-0,022
-125,497	800,000	-0,063	0,132
-124,483	-59,256	-0,086	0,026
-123,468	136,429	0,016	0,015
-122,453	800,000	-0,050	0,129
-121,439	-134,058	0,051	-0,004
-120,424	-65,667	-0,164	-0,047
-119,410	2,869	-0,091	-0,047
-118,395	-200,000	-0,027	-0,110
-117,380	29,277	0,090	-0,055
-116,366	-3,318	-0,070	-0,035
-115,351	-200,000	-0,003	0,028
-114,337	519,823	-0,020	-0,034
-113,322	800,000	-0,048	-0,100
-112,307	-127,777	-0,107	0,011
-111,293	800,000	0,051	0,105
-110,278	800,000	0,031	0,092
-109,264	800,000	-0,054	0,121
-108,249	800,000	0,012	0,026
-107,234	78,044	-0,074	0,057
-106,220	153,764	0,043	-0,042
-105,205	800,000	-0,058	0,118
-104,191	300,713	-0,134	0,178
-103,176	800,000	-0,036	0,101
-102,162	-64,699	0,112	-0,032
-101,147	-200,000	0,009	-0,172
-100,132	-200,000	0,001	0,004
-99,118	-200,000	-0,028	0,129
-98,103	54,184	0,073	0,050
-97,089	-93,406	0,089	0,017
-96,074	-68,678	0,047	0,013
-95,059	128,709	-0,024	0,022
-94,045	101,228	-0,093	-0,077
-93,030	325,398	-0,049	-0,067
-92,016	181,037	0,068	-0,072
-91,001	-200,000	-0,002	0,040
-89,986	229,724	0,024	0,028
-88,972	102,357	0,102	0,085
-87,957	422,126	0,059	-0,091
-86,943	133,866	0,131	-0,122
-85,928	487,482	-0,017	-0,029
-84,913	-159,613	-0,092	-0,004
-83,899	-124,712	-0,019	0,002
-82,884	-87,079	0,192	-0,042
-81,870	122,176	-0,047	-0,042
-80,855	-127,334	-0,157	0,016
-79,840	-9,113	-0,042	-0,020
-78,826	106,869	0,103	-0,088
-77,811	-111,173	0,051	0,007
-76,797	159,834	-0,051	-0,051
-75,782	-42,512	0,067	-0,024
-74,767	82,399	0,062	-0,048
-73,753	-200,000	0,005	0,088
-72,738	595,124	-0,002	0,004
-71,724	-200,000	-0,023	0,078
-70,709	112,007	-0,081	-0,070
-69,694	797,573	0,021	-0,041
-68,680	800,000	0,034	0,088
-67,665	-191,796	0,079	0,001
-66,651	-200,000	-0,026	-0,083
-65,636	800,000	-0,047	-0,102
-64,622	-93,663	0,109	0,021
-63,607	-33,320	-0,069	-0,027
-62,592	128,641	-0,040	-0,037
-61,578	-179,471	-0,084	-0,001
-60,563	61,049	0,044	0,031
-59,549	800,000	-0,044	0,130
-58,534	31,247	-2,163	-1,326
-57,519	-200,000	-0,049	-0,581
-56,505	-200,000	-1,305	-5,198
-55,490	118,941	0,882	0,780
-54,476	800,000	5,268	12,150
-53,461	-200,000	18,825	322,520
-52,446	800,000	743,317	2331,428
-51,432	553,543	1656,518	2861,618
-50,417	112,644	1639,697	1420,556
-49,403	77,241	1289,821	980,458
-48,388	30,423	1030,028	628,505
-47,373	19,720	992,750	570,405
-46,359	16,830	980,773	554,012
-45,344	13,501	977,120	541,001
-44,330	13,838	975,543	541,212
-43,315	13,157	973,641	537,904
-42,300	13,168	972,399	537,234
-41,286	13,143	971,434	536,597
-40,271	13,098	970,601	535,969
-39,257	13,095	969,835	535,516
-38,242	13,138	968,772	535,047
-37,227	13,115	968,051	534,553
-36,213	13,154	967,087	534,127
-35,198	13,075	966,237	533,378
-34,184	13,085	965,624	533,053
-33,169	13,086	964,555	532,444
-32,154	13,171	963,586	532,165
-31,140	13,148	962,741	531,600
-30,125	13,167	962,114	531,294
-29,111	13,146	961,062	530,625
-28,096	13,164	960,306	530,244
-27,082	13,161	959,734	529,897
-26,067	13,171	959,054	529,534
-25,052	13,162	958,168	528,997
-24,038	13,076	957,704	528,440
-23,023	13,085	957,099	528,116
-22,009	13,220	956,166	528,014
-20,994	13,126	955,691	527,428
-19,979	13,123	955,140	527,092
-18,965	13,184	954,569	526,953
-17,950	13,181	953,821	526,511
-16,936	13,069	953,315	525,850
-15,921	13,081	952,509	525,424
-14,906	13,027	951,923	524,907
-13,892	13,069	951,182	524,611
-12,877	13,063	950,474	524,182
-11,863	12,971	949,929	523,566
-10,848	13,040	949,472	523,514
-9,833	13,158	948,800	523,497
-8,819	13,088	948,128	522,885
-7,804	13,049	947,635	522,466
-6,790	13,009	946,917	521,922
-5,775	13,107	946,402	521,929
-4,760	13,030	945,824	521,346
-3,746	13,026	945,266	521,004
-2,731	12,919	944,663	520,311
-1,717	12,879	943,863	519,724
-0,702	12,900	943,110	519,356
0,313	12,694	942,647	519,231
1,327	16,081	940,160	528,514
2,342	25,162	793,736	470,229
3,356	21,548	457,333	265,409
4,371	-5,299	314,864	154,181
5,386	-9,138	296,894	141,483
6,400	-10,810	290,805	136,909
7,415	-11,140	288,217	135,353
8,429	-11,528	286,680	134,239
9,444	-11,625	285,740	133,692
10,459	-11,494	285,193	133,552
11,473	-11,599	284,517	133,122
12,488	-11,441	283,886	132,968
13,502	-11,712	283,524	132,525
14,517	-11,649	283,077	132,365
15,531	-11,666	282,588	132,107
16,546	-11,465	282,321	132,165
17,561	-11,443	281,893	131,973
18,575	-11,401	281,496	131,817
19,590	-11,446	281,248	131,646
20,604	-11,456	280,902	131,462
21,619	-11,525	280,580	131,233
22,634	-11,337	280,109	131,181
23,648	-11,440	279,861	130,955
24,663	-11,591	279,624	130,688
25,677	-11,528	279,377	130,621
26,692	-11,323	279,026	130,640
27,707	-11,465	278,838	130,406
28,721	-11,452	278,402	130,203
29,736	-11,491	278,180	130,050
30,750	-11,415	277,750	129,910
31,765	-11,563	277,426	129,607
32,780	-11,563	277,461	129,611
33,794	-11,457	277,073	129,519
34,809	-11,477	276,948	129,430
35,823	-11,443	276,649	129,311
36,838	-11,437	276,222	129,106
37,853	-11,621	276,176	128,900
38,867	-11,637	275,912	128,749
39,882	-11,484	275,731	128,797
40,896	-11,447	275,399	128,666
41,911	-11,719	275,209	128,310
42,926	-11,632	275,020	128,292
43,940	-11,686	274,758	128,108
44,955	-11,416	274,343	128,154
45,969	-11,578	274,347	127,994
46,984	-11,673	274,166	127,809
47,999	-11,557	273,739	127,707
49,013	-11,662	273,716	127,588
50,028	-11,816	273,420	127,295
51,042	-11,721	273,110	127,227
52,057	-11,802	272,868	127,028
53,071	-11,727	272,591	126,958
54,086	-11,777	272,407	126,814
55,101	-11,601	272,139	126,841
56,115	-11,636	271,968	126,717
57,130	-11,587	271,775	126,662
58,144	-11,461	271,523	126,650
59,159	-11,597	271,216	126,369
60,174	-11,527	271,136	126,385
61,188	-11,431	270,935	126,368
62,203	-11,604	270,638	126,060
63,217	-11,599	270,490	125,985
64,232	-11,707	270,126	125,704
65,247	-11,620	270,013	125,720
66,261	-11,558	269,696	125,618
67,276	-11,717	269,584	125,410
68,290	-11,668	269,332	125,326
69,305	-11,574	269,027	125,258
70,320	-11,475	268,741	125,205
71,334	-11,663	268,752	125,027
72,349	-11,575	268,537	124,996
73,363	-11,429	268,028	124,881
74,378	-11,274	267,778	124,894
75,393	-11,535	267,677	124,599
76,407	-11,630	267,658	124,493
77,422	-11,465	267,308	124,468
78,436	-11,611	266,989	124,176
79,451	-11,524	266,834	124,172
80,466	-11,374	266,419	124,103
81,480	-11,679	266,426	123,819
82,495	-11,659	266,205	123,724
83,509	-11,549	265,987	123,711
84,524	-11,662	265,906	123,561
85,539	-11,729	265,575	123,335
86,553	-11,704	265,340	123,237
87,568	-11,554	265,150	123,273
88,582	-11,669	264,918	123,051
89,597	-11,612	264,716	122,997
90,611	-11,492	264,428	122,960
91,626	-11,354	264,330	123,027
92,641	-11,631	264,277	122,744
93,655	-11,633	263,976	122,591
94,670	-11,594	263,767	122,518
95,684	-11,680	263,532	122,321
96,699	-11,656	263,305	122,226
97,714	-11,738	263,265	122,123
98,728	-11,477	262,920	122,185
99,743	-11,629	262,622	121,900
100,757	-11,659	262,508	121,810
101,772	-11,357	262,152	121,902
102,787	-11,781	262,188	121,531
103,801	-11,431	261,779	121,642
104,816	-11,678	261,703	121,376
105,830	-11,571	261,545	121,387
106,845	-11,659	261,364	121,214
107,860	-11,581	261,191	121,193
108,874	-11,652	260,924	120,994
109,889	-11,642	260,663	120,872
110,903	-11,622	260,404	120,758
111,918	-11,774	260,351	120,590
112,933	-11,649	260,141	120,591
113,947	-11,686	259,989	120,478
114,962	-11,543	259,631	120,426
115,976	-11,654	259,659	120,331
116,991	-11,532	259,216	120,222
118,006	-11,611	259,240	120,154
119,020	-11,531	259,033	120,116
120,035	-11,717	258,983	119,920
121,049	-11,574	258,667	119,888
122,064	-11,658	258,505	119,729
123,079	-11,655	258,393	119,669
124,093	-11,751	258,128	119,452
125,108	-11,546	257,925	119,526
126,122	-11,538	257,678	119,408
127,137	-11,595	257,517	119,273
128,151	-11,610	257,244	119,123
129,166	-11,417	257,050	119,189
130,181	-11,475	256,738	118,984
131,195	-11,579	256,620	118,829
132,210	-11,467	256,430	118,828
133,224	-11,609	256,313	118,639
134,239	-11,435	256,030	118,648
135,254	-11,722	255,934	118,345
136,268	-11,558	255,690	118,363
137,283	-11,695	255,540	118,165
138,297	-11,767	255,316	117,989
139,312	-11,926	255,144	117,762
140,327	-11,564	254,953	117,975
141,341	-11,398	254,747	118,012
142,356	-11,509	254,691	117,880
143,370	-11,587	254,346	117,643
144,385	-11,332	254,313	117,836
145,400	-11,455	254,020	117,584
146,414	-11,557	253,840	117,403
147,429	-11,749	253,659	117,144
148,443	-11,505	253,456	117,250
149,458	-11,554	253,250	117,101
150,473	-11,404	253,033	117,118
151,487	-11,563	252,872	116,899
152,502	-11,443	252,777	116,946
153,516	-11,186	252,411	116,985
154,531	-11,443	252,374	116,739
155,546	-11,277	252,098	116,742
156,560	-11,411	251,889	116,521
157,575	-11,391	251,629	116,407
158,589	-11,595	251,449	116,140
159,604	-11,561	251,434	116,152
160,619	-11,229	251,151	116,292
161,633	-11,112	251,109	116,362
162,648	-11,209	250,986	116,211
163,662	-11,611	250,733	115,745
164,677	-11,386	250,521	115,826
165,692	-11,365	250,213	115,691
166,706	-11,212	250,177	115,793
167,721	-11,229	250,033	115,702
168,735	-11,299	250,061	115,646
169,750	-11,441	249,789	115,390
170,764	-11,481	249,688	115,300
171,779	-11,576	249,524	115,134
172,794	-11,322	249,362	115,262
173,808	-11,400	249,044	115,039
174,823	-11,479	248,879	114,887
175,837	-11,652	248,678	114,639
176,852	-11,606	248,461	114,567
177,867	-11,473	248,269	114,579
178,881	-11,556	248,289	114,509
179,896	-11,465	247,964	114,425
180,910	-11,325	247,827	114,468
181,925	-11,397	247,580	114,284
182,940	-11,454	247,450	114,166
183,954	-11,389	247,361	114,169
184,969	-11,490	247,289	114,041
185,983	-11,122	247,041	114,223
186,998	-11,108	247,033	114,220
188,013	-11,129	246,570	113,979
189,027	-11,365	246,488	113,735
190,042	-11,367	246,259	113,618
191,056	-11,416	246,100	113,494
192,071	-11,596	246,022	113,299
193,086	-11,520	245,752	113,227
194,100	-11,537	245,731	113,194
195,115	-11,321	245,533	113,270
196,129	-11,174	245,255	113,253
197,144	-11,388	244,994	112,946
198,159	-11,571	244,878	112,732
199,173	-11,493	244,594	112,656
200,188	-11,680	244,448	112,425
201,202	-11,841	244,346	112,236
202,217	-11,584	244,021	112,288
203,232	-11,576	243,876	112,217
204,246	-11,693	243,640	112,002
205,261	-11,266	243,751	112,393
206,275	-11,756	243,421	111,830
207,290	-10,830	243,527	112,626
208,304	-6,456	245,031	116,903
209,319	-3,682	245,801	119,542
210,334	-2,468	245,912	120,583
211,348	-1,769	246,060	121,220
212,363	-1,441	246,128	121,511
213,377	-0,947	246,187	121,936
214,392	-0,536	246,159	122,248
215,407	-0,457	245,920	122,183
216,421	-0,349	245,784	122,194
217,436	-0,397	245,555	122,029
218,450	-0,633	245,415	121,756
219,465	-0,496	245,232	121,766
220,480	-0,536	245,100	121,657
221,494	-0,415	244,787	121,590
222,509	-0,689	244,721	121,323
223,523	-0,771	244,656	121,213
224,538	-0,651	244,337	121,141
225,553	-0,708	244,235	121,034
226,567	-0,931	244,117	120,783
227,582	-0,830	243,849	120,722
228,596	-0,800	243,755	120,689
229,611	-0,795	243,724	120,667
230,626	-0,860	243,500	120,493
231,640	-0,598	243,186	120,539
232,655	-0,543	243,076	120,518
233,669	-0,763	242,863	120,223
234,684	-0,721	242,793	120,212
235,699	-1,007	242,695	119,922
236,713	-0,686	242,402	120,026
237,728	-0,667	242,282	119,970
238,742	-0,651	242,002	119,834
239,757	-0,867	241,873	119,586
240,772	-0,794	241,829	119,612
241,786	-0,701	241,561	119,544
242,801	-0,728	241,396	119,430
243,815	-0,751	241,276	119,341
244,830	-0,699	241,156	119,313
245,844	-1,003	241,100	119,031
246,859	-0,743	240,725	119,043
247,874	-0,846	240,543	118,860
248,888	-0,839	240,466	118,817
249,903	-0,792	240,329	118,776
250,917	-0,732	240,227	118,763
251,932	-0,829	240,060	118,592
252,947	-0,680	239,802	118,573
253,961	-0,652	239,704	118,537
254,976	-0,820	239,709	118,394
255,990	-0,672	239,390	118,344
257,005	-0,550	239,185	118,329
258,020	-0,585	239,058	118,228
259,034	-0,548	238,857	118,147
260,049	-0,618	238,836	118,071
261,063	-0,683	238,523	117,855
262,078	-0,667	238,454	117,822
263,093	-0,534	238,137	117,761
264,107	-0,703	238,191	117,643
265,122	-0,769	238,010	117,491
266,136	-0,639	237,921	117,539
267,151	-0,681	237,768	117,420
268,166	-0,681	237,566	117,310
269,180	-0,760	237,341	117,126
270,195	-0,894	237,146	116,914
271,209	-0,790	237,110	116,967
272,224	-0,619	236,894	116,984
273,239	-0,721	236,817	116,856
274,253	-0,402	236,639	117,008
275,268	-0,517	236,497	116,837
276,282	-0,693	236,331	116,607
277,297	-0,382	236,032	116,693
278,312	-0,632	236,085	116,512
279,326	-0,501	235,851	116,489
280,341	-0,433	235,745	116,480
281,355	-0,735	235,647	116,185
282,370	-0,599	235,420	116,169
283,384	-0,510	235,226	116,132
284,399	-0,839	235,225	115,865
285,414	-0,718	235,097	115,885
286,428	-0,408	234,896	116,017
287,443	-0,489	234,826	115,909
288,457	-0,562	234,575	115,719
289,472	-0,648	234,426	115,568
290,487	-0,531	234,310	115,591
291,501	-0,423	234,082	115,552
292,516	-0,584	233,917	115,336
293,530	-0,269	233,676	115,450
294,545	-0,471	233,670	115,281
295,560	-0,378	233,422	115,220
296,574	-0,604	233,419	115,033
297,589	-0,370	233,050	115,022
298,603	-0,672	233,003	114,755
299,618	-0,545	232,852	114,769
300,633	-0,490	232,917	114,834
301,647	-0,628	232,724	114,622
302,662	-0,507	232,386	114,538
303,676	-0,542	232,336	114,476
304,691	-0,670	232,291	114,346
305,706	-0,403	232,002	114,398
306,720	-0,393	231,874	114,333
307,735	-0,517	231,787	114,184
308,749	-0,449	231,695	114,181
309,764	-0,329	231,420	114,127
310,779	-0,393	231,314	114,015
311,793	-0,283	231,101	113,984
312,808	-0,543	230,996	113,724
313,822	-0,451	230,844	113,709
314,837	-0,380	230,661	113,664
315,852	-0,240	230,659	113,759
316,866	-0,312	230,382	113,557
317,881	-0,183	230,198	113,555
318,895	-0,505	230,082	113,243
319,910	-0,586	229,922	113,092
320,925	-0,594	229,778	113,004
321,939	-0,367	229,510	113,035
322,954	-0,019	229,639	113,352
323,968	-0,182	229,414	113,108
324,983	-0,103	229,312	113,107
325,997	-0,225	229,125	112,913
327,012	-0,156	228,887	112,837
328,027	-0,061	228,817	112,865
329,041	-0,231	228,661	112,649
330,056	-0,311	228,553	112,526
331,070	-0,160	228,376	112,542
332,085	-0,114	228,271	112,515
333,100	-0,374	228,151	112,250
334,114	-0,080	227,977	112,376
335,129	-0,266	227,811	112,144
336,143	-0,336	227,583	111,969
337,158	-0,083	227,482	112,100
338,173	-0,145	227,412	112,008
339,187	-0,162	227,159	111,861
340,202	-0,096	227,184	111,913
341,216	-0,020	226,996	111,868
342,231	-0,061	226,871	111,765
343,246	-0,084	226,699	111,653
344,260	-0,045	226,475	111,562
345,275	0,200	226,411	111,703
346,289	0,156	226,277	111,595
347,304	-0,200	226,160	111,261
348,319	0,040	225,930	111,317
349,333	-0,033	225,880	111,228
350,348	-0,027	225,781	111,174
351,362	-0,131	225,585	110,990
352,377	0,060	225,387	111,025
353,392	0,085	225,267	110,974
354,406	0,066	225,132	110,884
355,421	196,339	1319,294	1394,634
356,435	157,394	1452,563	1394,588
