DTS Sentinel unit serial number:	SN410029Multiplexer serial number:	ORYXHardware model number:	OX2-SRSoftware version number:	ORYX F/W v4,00 Oryx Data Collector v3.7.2.0data status	okinstallation	B5 Nyhavnadifferential loss correction	single-endedforward channel	channel 2reverse channel	N/Adate	2023/12/14time	07:32:13forward acquisition time	300,00reverse acquisition time	0,00gamma	499,1914k internal	0,3159k external	0,3159temperature offset calibration	1,0000default loss term (dB/km)	0,3820temperature slope calibration	1,0000multiplexer offset coefficient	1,0000multiplexer slope coefficient	1,0000fibre end	0,00T internal ref (°C)	7,16T ext. ref 1 (°C)	-9,29T ext. ref 2 (°C)	-9,38length (m)	temperature (°C)	Stokes	anti-Stokes-744,400	-66,849	0,187	0,054
-743,385	-19,355	-0,291	-0,132
-742,371	800,000	0,042	0,106
-741,356	-84,718	-0,235	-0,054
-740,342	158,915	0,117	0,120
-739,327	-153,710	-0,288	-0,014
-738,312	58,460	0,099	-0,072
-737,298	-122,379	-0,405	-0,048
-736,283	190,010	0,091	0,101
-735,269	-122,787	-0,372	-0,044
-734,254	-166,936	0,162	0,005
-733,239	-54,138	-0,558	-0,186
-732,225	-28,973	0,261	0,110
-731,210	295,739	0,053	0,071
-730,196	-63,656	-0,125	0,037
-729,181	-97,022	-0,053	-0,010
-728,167	519,238	-0,028	0,048
-727,152	-10,596	-0,086	-0,042
-726,137	38,236	0,063	0,041
-725,123	490,575	0,019	0,031
-724,108	-200,000	0,003	-0,131
-723,094	-200,000	-0,011	-0,060
-722,079	800,000	-0,004	-0,010
-721,064	-200,000	-0,016	0,096
-720,050	800,000	0,023	0,054
-719,035	642,069	0,075	-0,142
-718,021	-111,382	-0,138	-0,020
-717,006	-17,293	-0,074	-0,034
-715,991	-82,276	-0,098	-0,023
-714,977	800,000	-0,024	-0,057
-713,962	-200,000	0,031	-0,164
-712,948	142,129	-0,023	-0,022
-711,933	800,000	0,039	-0,108
-710,918	597,199	-0,057	-0,105
-709,904	-61,944	0,045	0,014
-708,889	328,802	0,021	-0,030
-707,875	311,039	-0,028	-0,038
-706,860	269,247	-0,098	-0,127
-705,845	23,187	-0,092	0,056
-704,831	487,980	-0,004	-0,007
-703,816	-27,260	-0,093	-0,040
-702,802	-75,404	-0,233	-0,061
-701,787	-103,375	0,047	0,008
-700,772	800,000	0,040	-0,087
-699,758	800,000	-0,022	0,056
-698,743	-200,000	0,017	0,077
-697,729	440,859	-0,022	-0,035
-696,714	800,000	0,038	0,107
-695,699	-154,288	0,079	-0,004
-694,685	-200,000	0,015	0,128
-693,670	176,648	-0,097	-0,104
-692,656	-200,000	0,002	-0,114
-691,641	800,000	-0,035	-0,082
-690,627	-200,000	-0,002	-0,045
-689,612	292,221	0,047	0,062
-688,597	2,391	0,140	-0,074
-687,583	-104,457	-0,083	-0,014
-686,568	152,029	0,092	-0,092
-685,554	-122,743	0,083	0,010
-684,539	800,000	-0,085	0,191
-683,524	463,944	-0,023	0,039
-682,510	607,643	-0,063	-0,116
-681,495	61,951	0,033	-0,024
-680,481	-200,000	0,028	-0,127
-679,466	800,000	0,038	0,087
-678,451	-130,855	-0,092	0,009
-677,437	-200,000	0,001	0,040
-676,422	-200,000	-0,025	0,099
-675,408	-84,963	0,126	0,029
-674,393	21,717	-0,062	-0,037
-673,378	375,414	-0,053	0,080
-672,364	-200,000	0,000	0,072
-671,349	-38,439	0,052	0,020
-670,335	227,202	0,037	-0,045
-669,320	-200,000	-0,009	0,106
-668,305	800,000	0,022	-0,063
-667,291	-200,000	-0,015	0,056
-666,276	-200,000	0,002	-0,123
-665,262	800,000	-0,029	0,076
-664,247	800,000	0,045	0,121
-663,232	-17,235	-0,059	0,027
-662,218	180,052	0,055	0,060
-661,203	-74,949	-0,158	0,041
-660,189	38,967	-0,096	-0,063
-659,174	45,487	0,044	-0,030
-658,159	313,991	-0,034	-0,047
-657,145	800,000	-0,034	0,099
-656,130	800,000	0,031	-0,067
-655,116	102,091	-0,070	0,060
-654,101	800,000	-0,047	0,096
-653,086	800,000	0,024	0,068
-652,072	-117,073	-0,059	-0,008
-651,057	-45,458	-0,074	0,027
-650,043	122,751	-0,030	-0,028
-649,028	-104,190	-0,085	0,014
-648,014	339,400	0,037	0,054
-646,999	800,000	-0,013	-0,039
-645,984	-132,120	0,028	-0,003
-644,970	-144,850	-0,172	-0,011
-643,955	-101,983	0,068	0,012
-642,941	800,000	0,065	-0,146
-641,926	66,585	0,056	-0,042
-640,911	-200,000	-0,028	0,122
-639,897	193,069	0,047	0,052
-638,882	71,633	-0,132	0,101
-637,868	800,000	-0,018	-0,052
-636,853	424,967	0,063	-0,100
-635,838	317,047	-0,049	-0,068
-634,824	13,730	-0,024	-0,013
-633,809	-43,046	0,028	-0,010
-632,795	-93,910	0,082	0,016
-631,780	530,122	-0,036	0,063
-630,765	-106,509	-0,132	0,021
-629,751	-92,425	-0,114	0,023
-628,736	262,600	0,045	0,057
-627,722	88,969	0,035	0,028
-626,707	206,191	-0,050	0,057
-625,692	-115,848	0,142	0,019
-624,678	-187,232	-0,097	-0,001
-623,663	80,911	-0,039	0,031
-622,649	28,561	-0,125	-0,077
-621,634	-113,443	-0,044	-0,006
-620,619	-73,035	0,023	0,006
-619,605	-43,712	0,037	0,013
-618,590	-93,649	0,028	0,006
-617,576	-200,000	0,014	0,057
-616,561	243,806	0,062	-0,076
-615,546	388,442	0,029	-0,043
-614,532	-161,305	-0,120	0,004
-613,517	684,607	-0,046	-0,088
-612,503	29,856	0,099	0,062
-611,488	419,314	0,065	0,102
-610,474	27,031	-0,061	0,038
-609,459	-39,159	0,066	0,025
-608,444	-200,000	-0,001	0,080
-607,430	800,000	-0,042	0,101
-606,415	800,000	0,063	-0,138
-605,401	-200,000	-0,004	0,043
-604,386	-17,435	-0,115	0,053
-603,371	188,034	-0,037	0,041
-602,357	318,487	0,068	0,095
-601,342	-200,000	0,004	-0,098
-600,328	-200,000	-0,012	-0,045
-599,313	329,737	-0,143	-0,202
-598,298	-200,000	-0,046	0,233
-597,284	31,675	0,161	0,101
-596,269	430,378	0,039	-0,062
-595,255	-1,378	0,052	-0,027
-594,240	-139,501	0,038	0,003
-593,225	184,074	-0,037	-0,040
-592,211	132,031	0,107	-0,101
-591,196	561,097	-0,035	-0,063
-590,182	779,688	0,011	-0,021
-589,167	-200,000	0,021	0,111
-588,152	-171,800	-0,095	-0,002
-587,138	-64,558	-0,149	-0,044
-586,123	698,541	-0,011	-0,022
-585,109	-200,000	0,006	0,029
-584,094	321,074	0,083	0,116
-583,079	86,414	0,074	0,059
-582,065	800,000	0,038	-0,123
-581,050	-200,000	0,000	-0,123
-580,036	20,589	0,004	-0,002
-579,021	25,687	-0,129	0,078
-578,006	800,000	0,029	-0,082
-576,992	127,283	0,082	-0,077
-575,977	800,000	-0,019	-0,041
-574,963	-6,781	0,085	0,042
-573,948	159,779	0,057	0,058
-572,934	-200,000	-0,040	0,174
-571,919	-200,000	-0,006	-0,039
-570,904	-93,563	0,076	0,015
-569,890	68,024	-0,044	-0,033
-568,875	-132,274	0,074	0,007
-567,861	-200,000	-0,041	0,154
-566,846	-82,493	-0,096	-0,023
-565,831	-200,000	-0,010	0,034
-564,817	-80,017	0,022	-0,005
-563,802	-200,000	0,053	-0,246
-562,788	-113,020	0,177	-0,025
-561,773	-200,000	-0,032	0,136
-560,758	53,881	0,106	-0,074
-559,744	-16,646	0,147	-0,068
-558,729	-200,000	0,010	-0,132
-557,715	400,721	0,041	-0,063
-556,700	-74,322	-0,090	0,024
-555,685	-200,000	0,012	-0,058
-554,671	-200,000	0,011	-0,056
-553,656	42,866	-0,073	-0,048
-552,642	58,168	0,133	0,095
-551,627	800,000	0,035	-0,089
-550,612	105,918	-0,103	0,089
-549,598	-200,000	-0,006	-0,067
-548,583	189,193	0,043	0,048
-547,569	-20,956	0,134	0,060
-546,554	-74,058	0,033	-0,009
-545,539	-200,000	0,002	-0,025
-544,525	-200,000	-0,028	0,133
-543,510	480,687	0,031	0,052
-542,496	-184,843	-0,095	-0,001
-541,481	0,106	-0,070	0,037
-540,466	800,000	-0,032	0,072
-539,452	800,000	0,045	0,125
-538,437	692,033	0,067	0,129
-537,423	-200,000	-0,004	0,106
-536,408	-200,000	0,000	-0,027
-535,393	287,072	-0,065	-0,086
-534,379	-70,388	-0,045	-0,012
-533,364	-200,000	-0,019	-0,070
-532,350	-18,179	0,058	0,027
-531,335	-84,796	-0,136	0,031
-530,321	424,120	0,037	0,058
-529,306	48,324	0,059	-0,040
-528,291	-200,000	-0,017	-0,105
-527,277	-154,929	0,036	-0,002
-526,262	173,309	-0,040	-0,042
-525,248	-50,072	0,024	0,008
-524,233	-54,900	0,150	0,049
-523,218	213,424	-0,057	0,066
-522,204	-200,000	0,044	0,158
-521,189	-200,000	-0,014	-0,113
-520,175	800,000	-0,061	-0,154
-519,160	204,001	0,058	-0,066
-518,145	256,040	0,056	0,071
-517,131	-135,188	0,130	0,011
-516,116	9,884	0,006	-0,003
-515,102	-8,198	0,045	-0,022
-514,087	452,409	-0,100	-0,161
-513,072	-200,000	-0,017	0,072
-512,058	-135,894	0,028	-0,002
-511,043	330,142	-0,024	0,034
-510,029	37,419	0,088	0,057
-509,014	-72,361	-0,177	0,047
-507,999	85,925	0,076	-0,061
-506,985	335,326	-0,094	-0,133
-505,970	94,704	-0,039	-0,032
-504,956	97,765	0,064	-0,054
-503,941	359,284	0,017	0,025
-502,926	-200,000	-0,015	0,065
-501,912	-100,715	0,096	-0,017
-500,897	-89,821	-0,039	-0,008
-499,883	800,000	-0,064	0,173
-498,868	243,630	0,122	0,150
-497,853	800,000	-0,008	0,024
-496,839	-95,690	0,050	-0,010
-495,824	-28,767	0,028	0,012
-494,810	-200,000	0,009	-0,150
-493,795	-105,440	0,096	0,016
-492,781	5,327	-0,231	0,124
-491,766	-200,000	-0,008	-0,059
-490,751	-105,414	-0,026	0,004
-489,737	-200,000	-0,012	-0,170
-488,722	428,952	-0,047	-0,074
-487,708	-200,000	-0,029	-0,116
-486,693	171,300	0,060	0,063
-485,678	-200,000	0,001	0,025
-484,664	782,350	-0,078	-0,157
-483,649	-54,816	0,066	0,022
-482,635	-200,000	-0,003	0,090
-481,620	141,513	0,035	-0,034
-480,605	-200,000	0,015	0,099
-479,591	268,327	0,081	-0,104
-478,576	-200,000	-0,006	-0,168
-477,562	293,166	-0,046	-0,061
-476,547	20,850	-0,015	-0,009
-475,532	-25,733	0,041	0,017
-474,518	-84,822	0,084	-0,019
-473,503	800,000	-0,007	0,016
-472,489	61,446	-0,046	-0,033
-471,474	-101,317	-0,044	0,008
-470,459	-200,000	0,002	-0,065
-469,445	693,170	-0,015	-0,028
-468,430	-60,508	0,095	0,029
-467,416	-200,000	-0,017	-0,071
-466,401	-200,000	0,010	0,053
-465,386	-200,000	-0,016	0,082
-464,372	225,794	0,041	0,049
-463,357	-157,905	-0,071	0,003
-462,343	59,013	-0,098	0,070
-461,328	130,406	-0,078	0,073
-460,313	255,057	-0,087	0,108
-459,299	-35,985	0,148	0,058
-458,284	-18,928	0,020	0,009
-457,270	-29,504	-0,061	0,025
-456,255	800,000	0,033	-0,081
-455,241	-97,336	-0,129	-0,024
-454,226	-99,476	-0,238	-0,043
-453,211	800,000	0,071	-0,157
-452,197	-200,000	-0,019	0,099
-451,182	177,397	0,073	-0,077
-450,168	229,536	0,020	0,023
-449,153	568,646	0,055	-0,098
-448,138	800,000	-0,039	-0,106
-447,124	-82,639	-0,096	0,023
-446,109	-183,928	-0,048	0,001
-445,095	-200,000	-0,002	0,073
-444,080	128,463	-0,114	0,105
-443,065	9,253	-0,071	-0,039
-442,051	-200,000	0,005	0,177
-441,036	767,993	-0,033	-0,065
-440,022	59,093	0,167	-0,120
-439,007	92,855	0,089	-0,073
-437,992	71,015	-0,053	0,040
-436,978	387,272	-0,024	0,036
-435,963	-70,598	-0,025	-0,007
-434,949	107,971	0,042	-0,037
-433,934	183,580	-0,069	-0,074
-432,919	-200,000	0,005	0,096
-431,905	677,941	-0,050	-0,096
-430,890	45,135	-0,014	0,009
-429,876	345,186	0,069	0,098
-428,861	62,276	-0,048	-0,035
-427,846	-79,024	0,015	0,004
-426,832	141,630	-0,064	0,061
-425,817	176,369	-0,060	-0,063
-424,803	-65,090	-0,049	-0,014
-423,788	69,828	0,057	0,042
-422,773	-200,000	0,032	0,252
-421,759	-13,574	0,123	-0,058
-420,744	149,346	0,046	0,045
-419,730	-106,526	-0,170	0,027
-418,715	-66,493	-0,027	-0,008
-417,701	346,834	-0,047	0,067
-416,686	788,550	-0,032	0,065
-415,671	-200,000	-0,009	-0,109
-414,657	-200,000	0,008	0,147
-413,642	101,131	0,085	0,072
-412,628	-200,000	0,002	-0,010
-411,613	-200,000	-0,032	0,104
-410,598	-96,825	-0,131	-0,025
-409,584	-200,000	-0,001	0,017
-408,569	-59,464	0,107	0,033
-407,555	-103,347	0,064	0,011
-406,540	-85,288	0,092	0,021
-405,525	14,227	0,044	0,025
-404,511	58,325	0,032	-0,022
-403,496	-24,797	0,068	0,029
-402,482	-119,866	-0,030	-0,004
-401,467	-29,776	-0,062	0,026
-400,452	345,877	-0,043	-0,061
-399,438	-6,443	-0,077	0,038
-398,423	-81,487	0,049	0,012
-397,409	231,518	-0,045	0,054
-396,394	-72,828	0,102	0,027
-395,379	0,319	0,090	-0,047
-394,365	-200,000	0,002	-0,021
-393,350	-54,843	0,103	0,034
-392,336	-148,185	-0,166	-0,010
-391,321	-135,648	-0,120	-0,010
-390,306	174,296	-0,103	-0,108
-389,292	-83,784	0,168	-0,039
-388,277	800,000	-0,032	-0,071
-387,263	-200,000	-0,022	0,108
-386,248	-64,662	-0,011	0,003
-385,233	-200,000	-0,009	-0,052
-384,219	-75,487	-0,061	-0,016
-383,204	-200,000	0,001	-0,043
-382,190	-49,234	-0,089	-0,031
-381,175	800,000	-0,067	-0,137
-380,160	17,164	0,079	-0,046
-379,146	13,511	-0,077	-0,043
-378,131	434,902	0,067	-0,107
-377,117	-200,000	-0,014	0,101
-376,102	-200,000	0,001	-0,068
-375,088	-200,000	-0,003	-0,126
-374,073	368,732	0,043	0,063
-373,058	48,401	0,102	-0,069
-372,044	47,552	0,056	-0,038
-371,029	800,000	-0,005	0,016
-370,015	254,161	0,080	0,100
-369,000	-129,079	-0,102	-0,010
-367,985	-200,000	0,003	-0,105
-366,971	8,136	0,030	0,016
-365,956	-200,000	-0,020	-0,149
-364,942	161,530	-0,048	-0,049
-363,927	149,394	0,080	0,078
-362,912	32,442	-0,050	-0,031
-361,898	800,000	0,010	-0,025
-360,883	76,367	-0,107	-0,082
-359,869	-78,922	-0,102	0,025
-358,854	189,442	0,013	0,014
-357,839	344,765	0,131	0,187
-356,825	800,000	-0,033	0,078
-355,810	-84,701	0,035	-0,008
-354,796	306,818	0,108	0,147
-353,781	-200,000	-0,006	0,135
-352,766	764,773	0,074	0,146
-351,752	800,000	0,040	0,095
-350,737	-200,000	0,002	0,029
-349,723	800,000	0,034	-0,076
-348,708	-26,990	-0,035	0,015
-347,693	469,615	-0,112	-0,183
-346,679	800,000	-0,048	-0,100
-345,664	800,000	-0,041	-0,120
-344,650	18,744	-0,073	0,042
-343,635	-104,274	0,097	-0,016
-342,620	-200,000	0,007	0,126
-341,606	123,849	-0,039	0,035
-340,591	86,876	-0,065	0,052
-339,577	-58,945	-0,100	0,031
-338,562	-52,421	-0,089	-0,030
-337,548	-103,416	0,139	0,024
-336,533	31,299	0,108	-0,067
-335,518	-46,741	0,073	0,026
-334,504	-200,000	-0,005	-0,055
-333,489	13,596	-0,047	0,027
-332,475	800,000	0,049	-0,112
-331,460	777,966	0,050	0,100
-330,445	-88,442	0,090	-0,019
-329,431	800,000	-0,034	-0,091
-328,416	283,615	0,051	0,067
-327,402	233,840	-0,090	0,108
-326,387	-68,345	-0,012	-0,003
-325,372	196,673	0,108	-0,119
-324,358	165,290	-0,019	-0,019
-323,343	452,371	-0,017	0,027
-322,329	800,000	-0,023	-0,073
-321,314	137,461	0,091	-0,086
-320,299	-119,690	0,065	-0,008
-319,285	-187,401	-0,057	-0,001
-318,270	800,000	-0,062	0,154
-317,256	-200,000	0,012	-0,072
-316,241	-200,000	0,002	-0,113
-315,226	271,548	-0,063	0,081
-314,212	192,833	0,029	0,032
-313,197	-200,000	0,003	0,129
-312,183	-114,626	0,078	0,011
-311,168	68,387	0,046	-0,034
-310,153	-200,000	0,003	0,028
-309,139	-22,717	0,153	-0,067
-308,124	710,792	-0,038	0,074
-307,110	800,000	0,056	0,144
-306,095	104,815	-0,071	0,060
-305,080	800,000	0,032	0,074
-304,066	800,000	0,011	-0,027
-303,051	-115,461	-0,134	0,018
-302,037	-200,000	-0,009	-0,161
-301,022	-200,000	0,029	0,150
-300,008	800,000	0,051	0,146
-298,993	-33,732	-0,066	0,026
-297,978	-74,375	-0,010	-0,003
-296,964	800,000	0,034	-0,080
-295,949	-200,000	0,012	-0,065
-294,935	43,527	-0,018	-0,012
-293,920	-77,337	0,114	-0,028
-292,905	-200,000	-0,010	0,054
-291,891	26,014	-0,022	-0,013
-290,876	413,626	-0,025	0,039
-289,862	0,755	0,077	-0,040
-288,847	800,000	-0,063	-0,168
-287,832	-200,000	-0,020	-0,186
-286,818	-186,461	-0,171	-0,002
-285,803	-200,000	-0,011	-0,065
-284,789	110,121	-0,062	0,054
-283,774	-122,234	-0,072	-0,008
-282,759	800,000	0,061	-0,123
-281,745	-61,357	-0,129	0,039
-280,730	92,648	-0,083	-0,068
-279,716	68,896	0,016	-0,012
-278,701	150,572	0,020	0,020
-277,686	23,078	0,160	-0,095
-276,672	57,601	-0,051	-0,036
-275,657	-58,153	0,091	-0,029
-274,643	-111,440	-0,200	-0,029
-273,628	662,529	0,020	0,037
-272,613	-200,000	-0,021	0,070
-271,599	26,781	0,094	-0,057
-270,584	365,595	0,039	-0,056
-269,570	226,020	0,070	0,082
-268,555	800,000	-0,031	0,086
-267,540	261,802	0,041	-0,052
-266,526	317,728	-0,120	-0,165
-265,511	-200,000	-0,007	-0,123
-264,497	-200,000	0,014	0,112
-263,482	481,766	0,085	0,140
-262,467	389,202	-0,066	0,098
-261,453	-65,173	-0,029	-0,008
-260,438	-69,801	-0,145	0,040
-259,424	56,389	-0,011	-0,008
-258,409	579,118	0,066	-0,117
-257,395	800,000	-0,022	0,065
-256,380	-200,000	-0,001	0,045
-255,365	579,447	-0,056	0,100
-254,351	800,000	-0,045	-0,120
-253,336	-200,000	-0,014	-0,119
-252,322	800,000	-0,033	0,078
-251,307	-0,593	-0,045	0,023
-250,292	-54,728	-0,037	0,012
-249,278	-200,000	0,010	0,050
-248,263	800,000	0,046	-0,114
-247,249	-158,995	-0,111	0,004
-246,234	-200,000	-0,001	-0,011
-245,219	12,650	0,073	-0,041
-244,205	-96,958	-0,126	0,024
-243,190	-200,000	-0,003	-0,100
-242,176	-200,000	-0,003	0,067
-241,161	-87,102	0,119	0,026
-240,146	43,055	0,108	0,071
-239,132	-32,445	-0,131	-0,052
-238,117	-200,000	-0,033	-0,110
-237,103	8,075	-0,079	0,043
-236,088	160,720	-0,093	0,094
-235,073	-200,000	-0,012	-0,042
-234,059	-200,000	0,004	-0,047
-233,044	-106,203	0,145	0,023
-232,030	285,043	0,043	-0,056
-231,015	800,000	0,025	0,063
-230,000	-96,808	-0,079	-0,015
-228,986	227,870	0,034	-0,040
-227,971	218,309	0,019	0,022
-226,957	800,000	0,029	0,064
-225,942	-77,050	-0,059	0,015
-224,927	-61,313	-0,110	0,033
-223,913	-180,132	0,058	-0,001
-222,898	94,181	-0,088	0,072
-221,884	800,000	-0,037	-0,076
-220,869	366,146	0,083	-0,122
-219,855	35,953	0,081	0,051
-218,840	-200,000	-0,009	-0,041
-217,825	-200,000	-0,017	-0,086
-216,811	-31,944	-0,018	0,007
-215,796	61,342	-0,077	-0,055
-214,782	-70,070	0,076	-0,021
-213,767	-172,029	0,099	0,002
-212,752	-200,000	-0,001	0,116
-211,738	132,616	0,116	0,108
-210,723	-179,204	-0,092	0,001
-209,709	37,434	-0,072	0,046
-208,694	-76,044	0,099	0,025
-207,679	700,276	0,088	-0,168
-206,665	-200,000	0,014	-0,045
-205,650	-151,274	0,149	0,008
-204,636	800,000	-0,063	0,182
-203,621	60,678	-0,050	-0,036
-202,606	-111,852	0,083	0,012
-201,592	-200,000	-0,017	-0,174
-200,577	800,000	-0,026	-0,082
-199,563	725,232	0,033	0,065
-198,548	118,427	0,075	-0,066
-197,533	-107,533	-0,101	0,016
-196,519	-97,960	0,087	-0,016
-195,504	-40,538	0,053	0,020
-194,490	-200,000	-0,023	-0,082
-193,475	-200,000	-0,006	-0,107
-192,460	-133,363	-0,064	0,006
-191,446	484,806	-0,022	-0,037
-190,431	-200,000	-0,036	0,125
-189,417	800,000	-0,029	0,084
-188,402	800,000	0,025	0,078
-187,387	-19,309	-0,061	0,027
-186,373	52,886	-0,044	-0,030
-185,358	-200,000	0,017	0,080
-184,344	-200,000	-0,011	0,039
-183,329	-25,043	-0,067	0,028
-182,315	-90,991	-0,053	0,011
-181,300	368,190	-0,023	0,034
-180,285	800,000	0,038	-0,100
-179,271	-121,372	-0,154	-0,018
-178,256	442,033	0,119	-0,189
-177,242	-39,857	0,111	0,042
-176,227	800,000	0,018	0,052
-175,212	-200,000	0,011	-0,050
-174,198	-200,000	0,011	0,046
-173,183	800,000	-0,015	-0,031
-172,169	-81,726	0,094	-0,022
-171,154	-2,982	-0,042	0,021
-170,139	353,974	-0,049	-0,070
-169,125	-167,382	0,080	-0,002
-168,110	160,320	-0,058	0,058
-167,096	-41,174	-0,059	0,022
-166,081	9,722	-0,091	0,050
-165,066	-30,303	-0,055	0,022
-164,052	356,747	0,042	-0,060
-163,037	-200,000	-0,006	0,035
-162,023	-18,781	0,262	0,117
-161,008	-55,801	0,134	0,043
-159,993	37,596	0,066	0,042
-158,979	-200,000	-0,011	0,090
-157,964	-200,000	0,003	0,021
-156,950	-200,000	0,023	-0,094
-155,935	46,564	0,034	0,022
-154,920	-0,266	0,052	-0,026
-153,906	473,443	0,044	0,071
-152,891	-86,562	-0,092	-0,020
-151,877	-200,000	-0,024	-0,076
-150,862	800,000	-0,019	-0,051
-149,847	-200,000	-0,038	-0,194
-148,833	-200,000	-0,007	-0,045
-147,818	800,000	-0,027	0,058
-146,804	83,973	-0,075	0,059
-145,789	-90,392	-0,050	0,010
-144,775	665,521	0,065	-0,122
-143,760	-200,000	0,025	-0,138
-142,745	-200,000	-0,014	-0,126
-141,731	98,524	0,060	0,050
-140,716	-200,000	-0,025	0,158
-139,702	-200,000	-0,009	0,062
-138,687	-103,803	-0,154	0,026
-137,672	261,695	0,014	0,017
-136,658	-34,480	0,116	-0,046
-135,643	800,000	0,012	-0,032
-134,629	474,356	-0,035	-0,057
-133,614	39,960	0,082	-0,053
-132,599	2,369	0,040	0,021
-131,585	-86,349	-0,126	0,028
-130,570	-20,274	-0,061	-0,027
-129,556	800,000	0,020	0,042
-128,541	366,966	-0,133	-0,193
-127,526	-91,097	-0,015	-0,003
-126,512	164,554	0,035	-0,035
-125,497	800,000	0,008	-0,017
-124,483	-71,775	-0,142	0,038
-123,468	-200,000	-0,000	0,039
-122,453	-57,467	0,019	-0,006
-121,439	417,811	0,065	-0,100
-120,424	-48,671	-0,173	-0,059
-119,410	6,666	0,050	-0,027
-118,395	11,220	0,122	0,067
-117,380	-15,262	-0,022	-0,010
-116,366	-200,000	0,007	-0,072
-115,351	-50,809	0,090	0,030
-114,337	-200,000	-0,011	-0,074
-113,322	-111,083	0,146	0,021
-112,307	-106,821	0,127	-0,020
-111,293	590,494	0,094	0,167
-110,278	-89,956	-0,027	-0,006
-109,264	-69,083	0,042	0,011
-108,249	-196,819	0,047	0,000
-107,234	800,000	-0,025	-0,053
-106,220	36,623	0,123	0,078
-105,205	-160,892	0,083	-0,003
-104,191	91,589	0,084	0,067
-103,176	-200,000	0,054	-0,188
-102,162	-100,042	-0,033	-0,006
-101,147	407,397	-0,047	0,072
-100,132	136,959	-0,092	-0,087
-99,118	800,000	0,041	0,084
-98,103	135,257	-0,039	-0,037
-97,089	31,459	0,052	0,032
-96,074	-200,000	0,006	-0,028
-95,059	75,068	-0,124	0,094
-94,045	-45,742	-0,096	-0,034
-93,030	-200,000	-0,005	-0,058
-92,016	762,867	-0,042	-0,082
-91,001	800,000	-0,062	-0,148
-89,986	-81,328	0,092	-0,022
-88,972	800,000	-0,039	0,091
-87,957	-147,609	0,127	0,008
-86,943	315,081	0,056	-0,076
-85,928	187,387	-0,082	0,088
-84,913	800,000	-0,051	0,144
-83,899	23,018	0,156	-0,092
-82,884	252,712	-0,104	0,127
-81,870	376,326	-0,131	0,192
-80,855	-73,404	0,159	0,041
-79,840	377,690	0,063	-0,092
-78,826	-72,089	0,017	-0,004
-77,811	151,616	0,031	0,030
-76,797	184,376	-0,042	-0,045
-75,782	457,680	0,083	0,133
-74,767	-200,000	-0,009	0,180
-73,753	-125,423	-0,096	0,010
-72,738	-200,000	-0,003	0,013
-71,724	-68,613	0,043	-0,012
-70,709	-200,000	0,001	-0,080
-69,694	6,266	-0,178	-0,095
-68,680	800,000	-0,027	-0,078
-67,665	-200,000	0,022	0,214
-66,651	112,983	0,104	0,090
-65,636	-51,864	-0,078	0,026
-64,622	9,032	0,122	-0,066
-63,607	36,653	0,054	-0,034
-62,592	-85,956	0,052	-0,012
-61,578	341,589	0,049	0,069
-60,563	-53,196	-0,051	0,017
-59,549	-200,000	0,004	0,058
-58,534	111,732	-2,662	-2,304
-57,519	-99,975	0,480	-0,085
-56,505	800,000	-1,790	-5,567
-55,490	505,139	1,278	2,131
-54,476	800,000	5,215	11,224
-53,461	-200,000	23,022	348,585
-52,446	800,000	765,419	2266,280
-51,432	497,650	1643,690	2723,626
-50,417	93,396	1600,442	1298,240
-49,403	61,189	1255,893	893,459
-48,388	21,289	1008,106	585,787
-47,373	18,493	975,793	557,850
-46,359	11,973	962,688	529,210
-45,344	7,796	959,523	513,898
-44,330	8,175	957,263	513,895
-43,315	7,227	955,366	509,789
-42,300	7,181	954,513	509,163
-41,286	7,221	953,573	508,771
-40,271	7,194	952,456	508,070
-39,257	7,213	951,604	507,655
-38,242	7,238	950,663	507,214
-37,227	7,167	949,975	506,597
-36,213	7,249	948,953	506,297
-35,198	7,185	948,367	505,756
-34,184	7,199	947,447	505,294
-33,169	7,204	946,559	504,815
-32,154	7,222	945,860	504,481
-31,140	7,221	944,910	503,950
-30,125	7,241	944,254	503,643
-29,111	7,216	943,367	503,070
-28,096	7,244	942,824	502,850
-27,082	7,234	942,192	502,460
-26,067	7,191	941,320	501,840
-25,052	7,155	940,644	501,344
-24,038	7,173	939,987	501,031
-23,023	7,197	939,173	500,654
-22,009	7,180	938,561	500,254
-20,994	7,233	937,998	500,104
-19,979	7,170	937,462	499,597
-18,965	7,157	936,837	499,202
-17,950	7,161	936,121	498,815
-16,936	7,097	935,574	498,301
-15,921	7,152	934,917	498,103
-14,906	7,099	934,120	497,491
-13,892	7,105	933,640	497,236
-12,877	7,069	933,001	496,763
-11,863	7,026	932,446	496,311
-10,848	7,031	931,962	496,050
-9,833	7,115	931,381	495,986
-8,819	7,098	930,749	495,576
-7,804	7,078	930,035	495,114
-6,790	7,078	929,405	494,759
-5,775	7,160	928,862	494,705
-4,760	7,189	928,187	494,419
-3,746	7,115	927,640	493,877
-2,731	6,991	927,021	493,139
-1,717	6,982	926,372	492,744
-0,702	6,991	925,655	492,372
0,313	6,791	925,151	492,219
1,327	10,148	922,694	501,353
2,342	18,621	771,196	440,995
3,356	13,640	442,557	245,638
4,371	-12,545	309,416	144,169
5,386	-16,276	292,241	132,419
6,400	-18,334	286,084	127,599
7,415	-18,191	283,534	126,590
8,429	-18,992	281,622	124,952
9,444	-18,899	280,638	124,594
10,459	-18,993	280,096	124,251
11,473	-18,926	279,572	124,072
12,488	-18,867	279,034	123,878
13,502	-19,090	278,607	123,465
14,517	-18,969	278,305	123,436
15,531	-18,893	277,914	123,324
16,546	-18,773	277,413	123,205
17,561	-18,693	276,997	123,084
18,575	-18,652	276,586	122,930
19,590	-18,807	276,418	122,697
20,604	-18,538	275,945	122,730
21,619	-18,691	275,549	122,399
22,634	-18,668	275,315	122,306
23,648	-18,896	274,974	121,928
24,663	-18,761	274,716	121,931
25,677	-18,857	274,444	121,709
26,692	-18,781	274,286	121,700
27,707	-18,568	273,939	121,734
28,721	-18,795	273,687	121,398
29,736	-18,614	273,219	121,350
30,750	-18,683	273,071	121,208
31,765	-19,014	273,023	120,867
32,780	-18,620	272,565	121,021
33,794	-18,785	272,378	120,774
34,809	-18,774	272,094	120,647
35,823	-18,584	271,667	120,624
36,838	-18,684	271,622	120,501
37,853	-18,756	271,515	120,375
38,867	-18,801	271,171	120,170
39,882	-18,631	270,913	120,203
40,896	-18,731	270,708	120,008
41,911	-18,594	270,285	119,937
42,926	-18,489	270,129	119,954
43,940	-18,765	269,921	119,596
44,955	-18,679	269,653	119,546
45,969	-18,662	269,444	119,458
46,984	-18,612	269,420	119,483
47,999	-18,644	269,130	119,314
49,013	-18,408	268,986	119,457
50,028	-18,375	268,508	119,264
51,042	-18,480	268,443	119,128
52,057	-18,480	268,225	119,021
53,071	-18,468	268,122	118,975
54,086	-18,560	267,695	118,691
55,101	-18,523	267,529	118,641
56,115	-18,685	267,302	118,382
57,130	-18,653	267,056	118,291
58,144	-18,699	266,727	118,093
59,159	-18,720	266,524	117,974
60,174	-18,751	266,213	117,797
61,188	-18,664	266,019	117,780
62,203	-18,722	265,986	117,702
63,217	-18,506	265,553	117,696
64,232	-18,715	265,446	117,448
65,247	-18,737	265,162	117,293
66,261	-18,642	264,856	117,233
67,276	-18,654	264,812	117,192
68,290	-18,641	264,484	117,048
69,305	-18,721	264,275	116,873
70,320	-18,584	264,057	116,889
71,334	-18,720	263,822	116,653
72,349	-18,628	263,555	116,607
73,363	-18,672	263,333	116,459
74,378	-18,828	263,175	116,238
75,393	-18,804	262,929	116,141
76,407	-18,808	262,805	116,073
77,422	-18,616	262,464	116,083
78,436	-18,572	262,018	115,915
79,451	-18,669	262,052	115,833
80,466	-18,706	261,676	115,623
81,480	-18,715	261,723	115,626
82,495	-18,516	261,247	115,582
83,509	-18,429	261,128	115,597
84,524	-18,396	260,853	115,494
85,539	-18,545	260,737	115,300
86,553	-18,613	260,434	115,096
87,568	-18,777	260,340	114,898
88,582	-18,637	260,091	114,902
89,597	-18,582	259,895	114,854
90,611	-18,607	259,642	114,710
91,626	-18,556	259,549	114,704
92,641	-18,781	259,363	114,413
93,655	-18,759	258,984	114,254
94,670	-18,632	258,815	114,281
95,684	-18,743	258,720	114,131
96,699	-18,776	258,559	114,022
97,714	-18,523	258,189	114,071
98,728	-18,573	258,009	113,937
99,743	-18,599	257,755	113,792
100,757	-18,575	257,622	113,744
101,772	-18,572	257,496	113,681
102,787	-18,592	257,153	113,502
103,801	-18,513	256,779	113,396
104,816	-18,724	256,707	113,170
105,830	-18,557	256,604	113,259
106,845	-18,516	256,216	113,114
107,860	-18,520	256,235	113,109
108,874	-18,630	255,903	112,856
109,889	-18,653	255,736	112,753
110,903	-18,492	255,534	112,793
111,918	-18,478	255,232	112,662
112,933	-18,473	255,110	112,603
113,947	-18,592	254,849	112,374
114,962	-18,587	254,680	112,294
115,976	-18,761	254,657	112,124
116,991	-18,667	254,251	112,016
118,006	-18,629	254,202	112,017
119,020	-18,537	254,072	112,029
120,035	-18,730	253,990	111,817
121,049	-18,829	253,680	111,585
122,064	-18,605	253,526	111,700
123,079	-18,584	253,225	111,576
124,093	-18,737	253,107	111,382
125,108	-18,651	252,954	111,379
126,122	-18,615	252,753	111,311
127,137	-18,335	252,424	111,396
128,151	-18,448	252,308	111,238
129,166	-18,519	252,032	111,046
130,181	-18,560	251,949	110,964
131,195	-18,554	251,709	110,855
132,210	-18,731	251,575	110,634
133,224	-18,582	251,159	110,568
134,239	-18,690	251,087	110,435
135,254	-18,628	250,871	110,383
136,268	-18,561	250,775	110,387
137,283	-18,709	250,508	110,134
138,297	-18,349	250,224	110,305
139,312	-18,541	250,162	110,105
140,327	-18,540	249,940	109,998
141,341	-18,427	249,746	109,999
142,356	-18,569	249,459	109,742
143,370	-18,432	249,207	109,738
144,385	-18,583	249,020	109,519
145,400	-18,539	249,040	109,555
146,414	-18,507	248,784	109,459
147,429	-18,451	248,537	109,388
148,443	-18,563	248,330	109,192
149,458	-18,426	248,238	109,257
150,473	-18,514	247,902	109,026
151,487	-18,685	247,933	108,887
152,502	-18,521	247,588	108,863
153,516	-18,533	247,270	108,703
154,531	-18,630	247,161	108,564
155,546	-18,508	246,937	108,558
156,560	-18,568	246,931	108,495
157,575	-18,474	246,660	108,445
158,589	-18,396	246,393	108,383
159,604	-18,570	246,149	108,121
160,619	-18,534	246,001	108,077
161,633	-18,518	245,799	107,992
162,648	-18,521	245,752	107,959
163,662	-18,668	245,665	107,789
164,677	-18,425	245,521	107,918
165,692	-18,508	245,231	107,712
166,706	-18,378	244,968	107,695
167,721	-18,702	244,909	107,391
168,735	-18,806	244,854	107,271
169,750	-18,610	244,513	107,274
170,764	-18,625	244,522	107,257
171,779	-18,468	244,329	107,291
172,794	-18,312	244,087	107,304
173,808	-18,409	243,890	107,128
174,823	-18,395	243,752	107,069
175,837	-18,365	243,535	106,989
176,852	-18,479	243,390	106,822
177,867	-18,556	243,329	106,722
178,881	-18,490	242,975	106,612
179,896	-18,428	242,818	106,584
180,910	-18,668	242,765	106,355
181,925	-18,540	242,495	106,332
182,940	-18,670	242,295	106,128
183,954	-18,601	242,074	106,079
184,969	-18,620	242,051	106,043
185,983	-18,468	241,862	106,076
186,998	-18,457	241,685	105,997
188,013	-18,420	241,517	105,945
189,027	-18,366	241,166	105,824
190,042	-18,536	241,141	105,666
191,056	-18,533	240,873	105,542
192,071	-18,515	240,714	105,478
193,086	-18,674	240,764	105,361
194,100	-18,511	240,280	105,271
195,115	-18,611	240,091	105,098
196,129	-18,589	239,896	105,022
197,144	-18,687	239,829	104,904
198,159	-18,492	239,443	104,882
199,173	-18,527	239,412	104,832
200,188	-18,661	239,277	104,656
201,202	-18,490	239,206	104,753
202,217	-18,536	239,003	104,618
203,232	-18,304	238,848	104,727
204,246	-18,519	238,549	104,414
205,261	-18,377	238,359	104,435
206,275	-16,816	238,776	105,864
207,290	-12,111	240,555	110,453
208,304	-5,907	242,642	116,459
209,319	-2,170	243,496	119,907
210,334	-1,025	243,715	120,938
211,348	-0,438	243,933	121,514
212,363	0,060	243,872	121,879
213,377	0,316	243,709	121,995
214,392	0,496	243,739	122,146
215,407	1,029	243,583	122,491
216,421	1,155	243,540	122,561
217,436	1,255	243,333	122,527
218,450	1,182	243,266	122,423
219,465	1,107	243,167	122,301
220,480	0,993	242,996	122,112
221,494	1,108	242,672	122,032
222,509	0,794	242,394	121,626
223,523	0,656	242,276	121,445
224,538	0,423	242,108	121,161
225,553	0,570	241,966	121,198
226,567	0,401	241,719	120,928
227,582	0,531	241,593	120,958
228,596	0,381	241,473	120,767
229,611	0,471	241,299	120,741
230,626	0,518	241,113	120,676
231,640	0,401	240,898	120,463
232,655	0,554	240,657	120,454
233,669	0,129	240,743	120,145
234,684	0,503	240,547	120,337
235,699	0,398	240,295	120,116
236,713	0,680	239,993	120,180
237,728	0,471	240,086	120,049
238,742	0,575	239,713	119,935
239,757	0,706	239,509	119,926
240,772	0,434	239,528	119,708
241,786	0,568	239,334	119,707
242,801	0,317	239,238	119,449
243,815	0,387	239,154	119,451
244,830	0,463	238,865	119,357
245,844	0,611	238,806	119,435
246,859	0,423	238,593	119,168
247,874	0,687	238,412	119,276
248,888	0,502	238,314	119,070
249,903	0,478	238,110	118,939
250,917	0,582	237,964	118,937
251,932	0,644	237,656	118,822
252,947	0,664	237,745	118,872
253,961	0,552	237,500	118,650
254,976	0,521	237,330	118,530
255,990	0,588	237,157	118,486
257,005	0,604	236,998	118,409
258,020	0,499	236,897	118,265
259,034	0,499	236,652	118,132
260,049	0,555	236,470	118,075
261,063	0,522	236,368	117,988
262,078	0,498	236,160	117,854
263,093	0,337	236,127	117,701
264,107	0,467	235,912	117,685
265,122	0,392	235,709	117,514
266,136	0,549	235,642	117,593
267,151	0,468	235,465	117,431
268,166	0,625	235,281	117,452
269,180	0,499	235,047	117,226
270,195	0,440	235,044	117,168
271,209	0,477	234,800	117,065
272,224	0,381	234,706	116,933
273,239	0,481	234,573	116,935
274,253	0,430	234,446	116,821
275,268	0,473	234,246	116,744
276,282	0,757	234,042	116,852
277,297	0,555	233,816	116,572
278,312	0,422	233,859	116,480
279,326	0,582	233,597	116,464
280,341	0,601	233,485	116,412
281,355	0,740	233,337	116,436
282,370	0,518	233,348	116,258
283,384	0,480	233,202	116,146
284,399	0,516	232,884	116,005
285,414	0,635	232,669	115,980
286,428	0,573	232,455	115,815
287,443	0,432	232,532	115,734
288,457	0,616	232,293	115,746
289,472	0,718	232,142	115,740
290,487	0,408	232,008	115,424
291,501	0,568	231,879	115,472
292,516	0,672	231,720	115,463
293,530	0,553	231,616	115,309
294,545	0,709	231,430	115,326
295,560	0,775	231,168	115,236
296,574	0,538	231,223	115,071
297,589	0,734	231,007	115,104
298,603	0,506	230,847	114,839
299,618	0,848	230,643	114,989
300,633	0,623	230,525	114,748
301,647	0,783	230,338	114,767
302,662	0,763	230,361	114,753
303,676	0,554	230,069	114,438
304,691	0,778	230,032	114,580
305,706	0,487	229,847	114,256
306,720	0,683	229,636	114,290
307,735	0,849	229,405	114,291
308,749	0,954	229,374	114,345
309,764	0,834	229,244	114,179
310,779	0,987	229,145	114,236
311,793	0,672	228,864	113,847
312,808	0,579	228,777	113,723
313,822	0,924	228,536	113,854
314,837	0,935	228,392	113,780
315,852	0,868	228,369	113,708
316,866	0,838	228,274	113,628
317,881	0,954	227,856	113,497
318,895	1,040	227,857	113,552
319,910	0,806	227,803	113,339
320,925	0,747	227,499	113,134
321,939	0,819	227,428	113,142
322,954	0,895	227,434	113,192
323,968	0,844	227,303	113,079
324,983	1,091	227,099	113,152
325,997	0,884	226,973	112,924
327,012	0,780	226,880	112,790
328,027	0,804	226,674	112,695
329,041	0,703	226,560	112,553
330,056	0,780	226,338	112,490
331,070	0,770	226,242	112,425
332,085	0,843	226,144	112,420
333,100	0,848	225,975	112,330
334,114	0,734	225,613	112,055
335,129	0,798	225,577	112,075
336,143	0,804	225,428	111,996
337,158	1,034	225,288	112,088
338,173	0,997	225,170	111,992
339,187	1,110	225,026	111,994
340,202	0,932	224,955	111,817
341,216	1,020	224,696	111,742
342,231	0,994	224,685	111,708
343,246	1,063	224,423	111,619
344,260	1,062	224,226	111,510
345,275	1,136	224,154	111,519
346,289	0,804	224,091	111,232
347,304	1,005	223,814	111,233
348,319	0,845	223,758	111,077
349,333	0,777	223,714	110,995
350,348	0,809	223,492	110,899
351,362	0,879	223,415	110,903
352,377	0,956	223,356	110,920
353,392	0,838	223,175	110,733
354,406	1,061	222,881	110,742
355,421	192,211	1311,786	1376,618
356,435	153,888	1444,288	1376,442
