DTS Sentinel unit serial number:	SN410029Multiplexer serial number:	ORYXHardware model number:	OX2-SRSoftware version number:	ORYX F/W v4,00 Oryx Data Collector v3.7.2.0data status	okinstallation	B5 Nyhavnadifferential loss correction	single-endedforward channel	channel 2reverse channel	N/Adate	2023/12/14time	13:37:13forward acquisition time	300,00reverse acquisition time	0,00gamma	499,1914k internal	0,3157k external	0,3157temperature offset calibration	1,0000default loss term (dB/km)	0,3820temperature slope calibration	1,0000multiplexer offset coefficient	1,0000multiplexer slope coefficient	1,0000fibre end	0,00T internal ref (°C)	8,06T ext. ref 1 (°C)	-7,77T ext. ref 2 (°C)	-7,83length (m)	temperature (°C)	Stokes	anti-Stokes-744,400	-181,486	0,098	-0,001
-743,385	-88,437	-0,384	-0,084
-742,371	-133,556	0,337	-0,031
-741,356	-190,444	-0,389	0,003
-740,342	-21,602	0,151	0,067
-739,327	175,272	-0,262	-0,280
-738,312	-76,878	0,115	0,029
-737,298	-25,749	-0,340	-0,147
-736,283	271,406	0,155	0,202
-735,269	-93,092	-0,423	-0,086
-734,254	5,196	0,124	0,067
-733,239	-19,295	-0,461	-0,210
-732,225	-62,001	0,189	0,058
-731,210	71,762	0,060	0,046
-730,196	-174,878	-0,036	-0,001
-729,181	304,209	0,055	-0,075
-728,167	800,000	0,038	-0,084
-727,152	45,919	-0,115	0,078
-726,137	800,000	-0,011	-0,032
-725,123	201,669	0,047	0,054
-724,108	-69,303	-0,174	-0,049
-723,094	35,142	-0,052	0,033
-722,079	-200,000	0,022	-0,105
-721,064	-5,165	0,128	-0,064
-720,050	754,915	-0,047	0,094
-719,035	78,130	-0,071	0,055
-718,021	722,037	-0,078	-0,153
-717,006	-76,918	-0,061	-0,016
-715,991	-133,510	-0,057	0,005
-714,977	-87,056	-0,062	0,014
-713,962	83,886	-0,128	-0,103
-712,948	322,499	-0,036	0,050
-711,933	407,023	0,029	0,045
-710,918	-200,000	0,007	0,042
-709,904	453,878	-0,091	-0,149
-708,889	350,983	-0,072	-0,106
-707,875	800,000	0,013	-0,037
-706,860	431,881	0,053	0,085
-705,845	-200,000	-0,013	0,141
-704,831	2,079	0,047	-0,025
-703,816	-34,127	-0,019	-0,008
-702,802	-200,000	0,000	0,088
-701,787	-51,890	-0,100	-0,034
-700,772	-200,000	-0,004	0,030
-699,758	151,967	0,045	-0,045
-698,743	-200,000	-0,008	-0,054
-697,729	282,484	0,032	0,042
-696,714	61,497	0,094	0,069
-695,699	280,868	-0,045	-0,059
-694,685	-200,000	0,008	-0,077
-693,670	800,000	0,043	0,089
-692,656	36,710	-0,065	0,042
-691,641	-18,730	0,084	-0,038
-690,627	-69,823	-0,135	0,038
-689,612	-200,000	0,044	0,147
-688,597	-38,056	-0,138	0,054
-687,583	-39,092	0,073	0,028
-686,568	800,000	-0,018	0,040
-685,554	-200,000	0,006	0,086
-684,539	9,141	0,075	-0,041
-683,524	-10,394	0,090	-0,044
-682,510	800,000	-0,045	0,094
-681,495	-15,936	0,147	-0,069
-680,481	-56,864	-0,096	-0,031
-679,466	492,184	-0,065	-0,109
-678,451	26,283	-0,047	0,029
-677,437	-200,000	-0,025	0,081
-676,422	-200,000	0,014	0,053
-675,408	-174,113	-0,160	0,003
-674,393	-200,000	0,010	0,081
-673,378	195,439	-0,083	0,092
-672,364	127,403	-0,164	-0,153
-671,349	-200,000	0,017	-0,068
-670,335	-200,000	-0,011	-0,041
-669,320	-73,914	-0,157	0,042
-668,305	-70,818	0,114	0,031
-667,291	140,113	-0,045	-0,044
-666,276	-200,000	-0,017	0,057
-665,262	-15,835	-0,090	-0,042
-664,247	289,107	-0,030	-0,040
-663,232	-62,080	-0,087	-0,027
-662,218	-106,615	0,075	0,012
-661,203	-200,000	0,000	-0,020
-660,189	594,828	-0,056	0,102
-659,174	-200,000	-0,036	-0,165
-658,159	-200,000	-0,036	-0,227
-657,145	25,210	0,014	0,008
-656,130	-200,000	-0,029	-0,187
-655,116	107,495	0,079	0,069
-654,101	265,109	0,054	0,069
-653,086	106,183	-0,130	-0,113
-652,072	800,000	-0,065	-0,197
-651,057	104,554	0,022	-0,019
-650,043	-82,376	-0,091	0,022
-649,028	-200,000	0,025	-0,118
-648,014	127,342	-0,042	0,039
-646,999	265,580	-0,034	0,043
-645,984	3,226	-0,123	0,066
-644,970	-47,983	-0,085	0,030
-643,955	282,477	0,091	-0,121
-642,941	40,518	-0,099	-0,066
-641,926	-200,000	0,014	-0,064
-640,911	800,000	-0,012	0,032
-639,897	-49,299	0,169	0,059
-638,882	800,000	-0,036	-0,074
-637,868	800,000	-0,052	-0,114
-636,853	800,000	-0,019	-0,040
-635,838	-200,000	-0,010	-0,061
-634,824	-200,000	-0,007	0,030
-633,809	153,332	-0,035	0,036
-632,795	-52,232	0,046	-0,015
-631,780	154,950	-0,019	-0,019
-630,765	-53,478	0,113	-0,038
-629,751	-200,000	0,006	0,026
-628,736	371,647	-0,032	0,047
-627,722	800,000	-0,043	-0,132
-626,707	-186,423	0,050	-0,001
-625,692	-200,000	0,012	0,122
-624,678	-200,000	-0,003	0,019
-623,663	52,660	0,057	0,040
-622,649	140,614	-0,077	-0,074
-621,634	-200,000	0,001	0,041
-620,619	800,000	0,023	-0,066
-619,605	50,969	-0,109	0,076
-618,590	-200,000	0,001	0,042
-617,576	181,354	0,135	0,145
-616,561	12,893	-0,088	0,050
-615,546	-43,692	-0,013	-0,005
-614,532	-12,459	-0,100	-0,048
-613,517	78,060	-0,035	-0,027
-612,503	800,000	0,039	-0,105
-611,488	-200,000	-0,010	0,035
-610,474	45,876	-0,048	0,032
-609,459	-138,953	0,242	-0,019
-608,444	-200,000	-0,009	0,000
-607,430	-200,000	0,006	0,036
-606,415	-132,551	0,112	0,010
-605,401	-200,000	0,010	-0,056
-604,386	-45,102	0,120	-0,044
-603,371	240,452	0,086	0,106
-602,357	-200,000	0,016	0,110
-601,342	-200,000	0,004	0,065
-600,328	-34,274	-0,086	-0,034
-599,313	-4,814	-0,165	0,083
-598,298	-200,000	0,018	0,122
-597,284	-200,000	-0,045	0,151
-596,269	-0,148	0,021	-0,011
-595,255	-200,000	0,017	0,179
-594,240	-99,978	-0,103	-0,019
-593,225	-200,000	-0,010	-0,138
-592,211	34,829	-0,125	-0,080
-591,196	138,498	0,069	0,066
-590,182	54,813	0,090	0,063
-589,167	-200,000	0,014	-0,159
-588,152	-200,000	0,001	0,056
-587,138	-70,158	0,112	-0,031
-586,123	800,000	0,055	-0,166
-585,109	318,971	-0,066	0,091
-584,094	-126,588	0,057	0,006
-583,079	86,728	-0,074	0,060
-582,065	800,000	0,010	0,032
-581,050	-200,000	0,004	0,051
-580,036	10,541	-0,029	0,016
-579,021	-121,434	-0,035	-0,004
-578,006	800,000	0,078	-0,192
-576,992	800,000	-0,054	-0,149
-575,977	241,901	-0,077	0,095
-574,963	2,110	-0,066	-0,035
-573,948	72,558	-0,142	0,108
-572,934	401,603	0,095	0,146
-571,919	521,975	-0,051	-0,088
-570,904	-107,510	0,056	-0,009
-569,890	-125,641	-0,069	-0,008
-568,875	8,659	0,121	0,067
-567,861	551,404	0,027	0,047
-566,846	493,718	-0,040	-0,067
-565,831	52,936	-0,077	-0,054
-564,817	-59,820	-0,092	0,029
-563,802	105,640	-0,091	-0,079
-562,788	89,187	-0,024	-0,020
-561,773	-36,297	-0,068	0,027
-560,758	-88,317	0,066	0,014
-559,744	-4,469	0,071	-0,036
-558,729	282,812	-0,039	0,051
-557,715	-8,794	-0,089	0,043
-556,700	-200,000	-0,010	0,058
-555,685	800,000	-0,026	-0,068
-554,671	7,266	0,032	0,017
-553,656	568,512	-0,026	0,046
-552,642	-200,000	0,017	-0,104
-551,627	190,959	-0,059	0,065
-550,612	-200,000	-0,056	-0,190
-549,598	32,450	-0,104	-0,066
-548,583	800,000	-0,008	-0,021
-547,569	-200,000	0,010	0,041
-546,554	-200,000	-0,009	0,090
-545,539	-200,000	0,007	0,030
-544,525	69,725	0,099	0,075
-543,510	800,000	0,009	-0,028
-542,496	800,000	-0,042	0,094
-541,481	-16,041	0,063	0,029
-540,466	405,420	0,057	0,088
-539,452	-200,000	-0,013	0,096
-538,437	800,000	0,072	-0,161
-537,423	73,892	-0,064	-0,049
-536,408	-68,341	0,086	-0,024
-535,393	184,087	-0,091	0,099
-534,379	513,178	0,043	-0,073
-533,364	138,950	0,105	-0,101
-532,350	-104,788	0,027	-0,005
-531,335	-91,886	0,128	0,026
-530,321	-32,139	-0,133	0,054
-529,306	-130,628	0,112	0,011
-528,291	-200,000	-0,030	-0,137
-527,277	800,000	-0,024	-0,062
-526,262	-90,423	-0,095	-0,020
-525,248	193,522	0,106	0,117
-524,233	487,682	0,083	-0,139
-523,218	-49,217	-0,201	0,070
-522,204	-148,038	-0,034	0,002
-521,189	-124,412	0,092	-0,010
-520,175	-81,576	-0,071	-0,017
-519,160	-80,906	-0,126	-0,030
-518,145	135,180	0,096	-0,091
-517,131	800,000	0,058	0,155
-516,116	-200,000	-0,011	0,100
-515,102	156,596	0,032	-0,032
-514,087	-49,913	-0,155	-0,053
-513,072	800,000	-0,049	-0,124
-512,058	3,911	0,075	-0,040
-511,043	-200,000	-0,017	-0,162
-510,029	482,164	-0,077	-0,129
-509,014	249,069	0,080	0,099
-507,999	800,000	-0,022	0,053
-506,985	800,000	-0,019	0,042
-505,970	9,877	-0,113	-0,062
-504,956	-28,263	-0,044	0,018
-503,941	32,709	0,057	-0,036
-502,926	-34,993	-0,067	-0,026
-501,912	25,458	0,077	-0,047
-500,897	405,033	-0,041	-0,063
-499,883	-200,000	-0,025	0,093
-498,868	235,571	0,078	0,094
-497,853	380,173	0,063	0,095
-496,839	253,559	-0,048	-0,060
-495,824	-114,751	0,144	0,020
-494,810	800,000	0,053	0,158
-493,795	-200,000	0,034	0,120
-492,781	277,861	-0,043	0,056
-491,766	51,997	0,122	-0,084
-490,751	-200,000	-0,009	0,096
-489,737	0,799	-0,109	0,057
-488,722	532,655	-0,059	-0,102
-487,708	-46,373	0,114	0,041
-486,693	-200,000	0,003	0,122
-485,678	-200,000	0,011	-0,050
-484,664	656,033	-0,066	-0,124
-483,649	-8,577	0,038	-0,018
-482,635	77,506	-0,094	-0,073
-481,620	-62,123	0,074	0,022
-480,605	-13,725	0,057	0,027
-479,591	800,000	0,010	-0,029
-478,576	800,000	-0,082	-0,196
-477,562	59,579	-0,084	-0,060
-476,547	800,000	0,015	-0,044
-475,532	800,000	0,023	-0,061
-474,518	506,879	-0,031	-0,053
-473,503	-200,000	0,054	0,243
-472,489	198,438	0,081	0,091
-471,474	-32,093	-0,174	0,071
-470,459	-101,308	-0,130	-0,023
-469,445	288,319	0,069	-0,092
-468,430	-200,000	0,010	-0,199
-467,416	-200,000	0,021	-0,096
-466,401	-200,000	-0,045	0,193
-465,386	185,348	0,046	-0,050
-464,372	216,236	-0,051	-0,059
-463,357	-200,000	-0,040	-0,130
-462,343	-60,155	0,051	-0,016
-461,328	-200,000	0,002	0,034
-460,313	-200,000	0,028	-0,092
-459,299	-18,920	0,054	-0,024
-458,284	-49,084	0,028	-0,010
-457,270	267,793	0,010	-0,013
-456,255	-113,885	-0,072	0,010
-455,241	800,000	-0,030	0,066
-454,226	-13,958	-0,096	0,045
-453,211	-200,000	0,035	0,147
-452,197	800,000	0,048	-0,126
-451,182	165,508	-0,058	0,060
-450,168	-91,416	-0,070	0,014
-449,153	800,000	-0,022	0,048
-448,138	7,046	0,027	-0,014
-447,124	332,485	-0,096	-0,135
-446,109	-200,000	0,003	-0,089
-445,095	-94,432	-0,055	-0,011
-444,080	30,479	0,038	0,024
-443,065	-200,000	0,009	0,177
-442,051	-15,248	-0,053	0,025
-441,036	800,000	0,042	-0,115
-440,022	280,815	0,008	-0,011
-439,007	-165,952	-0,074	-0,002
-437,992	115,001	-0,059	0,053
-436,978	-30,767	-0,116	-0,048
-435,963	-158,731	0,110	-0,005
-434,949	145,637	-0,043	-0,042
-433,934	287,516	0,054	-0,071
-432,919	-21,727	-0,192	-0,085
-431,905	11,694	0,088	0,049
-430,890	-41,641	-0,046	-0,017
-429,876	19,047	0,042	0,024
-428,861	189,332	0,066	-0,072
-427,846	-6,279	0,123	0,061
-426,832	185,672	-0,059	-0,064
-425,817	-23,816	0,115	0,050
-424,803	287,987	-0,082	-0,109
-423,788	368,537	-0,045	0,067
-422,773	393,556	0,094	0,144
-421,759	-82,839	0,074	-0,017
-420,744	-79,300	0,116	-0,028
-419,730	1,671	-0,164	-0,086
-418,715	25,715	0,020	0,012
-417,701	800,000	0,025	-0,059
-416,686	-100,964	0,048	-0,009
-415,671	-200,000	0,002	0,047
-414,657	4,372	0,090	0,048
-413,642	206,894	0,045	0,051
-412,628	585,534	-0,074	0,132
-411,613	-119,456	-0,128	-0,016
-410,598	-36,880	0,083	-0,032
-409,584	-200,000	0,018	0,070
-408,569	-49,491	-0,105	-0,036
-407,555	-200,000	0,024	0,135
-406,540	405,349	0,058	0,089
-405,525	800,000	-0,022	-0,054
-404,511	-13,221	-0,060	-0,028
-403,496	-175,195	-0,204	0,004
-402,482	141,106	-0,026	0,025
-401,467	67,639	0,078	-0,058
-400,452	-102,324	-0,149	-0,026
-399,438	-43,324	-0,203	-0,074
-398,423	800,000	-0,020	-0,055
-397,409	24,207	0,066	-0,040
-396,394	578,629	0,011	-0,019
-395,379	-23,811	0,102	-0,044
-394,365	-200,000	0,015	0,107
-393,350	-2,698	0,102	0,052
-392,336	-112,564	-0,109	0,016
-391,321	-61,725	0,081	0,024
-390,306	146,649	0,083	-0,081
-389,292	28,892	-0,131	-0,080
-388,277	331,970	-0,015	0,022
-387,263	142,585	-0,095	-0,092
-386,248	-200,000	0,004	0,060
-385,233	-200,000	-0,026	0,104
-384,219	-200,000	0,015	0,056
-383,204	-54,083	0,033	0,011
-382,190	151,941	0,054	-0,054
-381,175	-200,000	0,010	0,046
-380,160	-3,517	0,148	0,075
-379,146	64,504	0,116	0,085
-378,131	18,470	-0,106	0,061
-377,117	-52,700	-0,120	0,040
-376,102	-200,000	0,039	0,132
-375,088	8,015	-0,067	0,036
-374,073	-200,000	-0,031	-0,143
-373,058	-21,183	0,099	0,044
-372,044	690,395	-0,025	0,047
-371,029	-200,000	0,077	0,000
-370,015	-5,010	0,042	-0,021
-369,000	295,242	0,071	-0,095
-367,985	126,884	-0,050	-0,046
-366,971	15,603	0,056	-0,032
-365,956	800,000	-0,059	-0,135
-364,942	800,000	0,038	0,112
-363,927	666,138	0,030	0,056
-362,912	-10,757	0,031	-0,015
-361,898	70,858	0,075	0,056
-360,883	800,000	0,028	0,069
-359,869	800,000	-0,031	-0,068
-358,854	127,024	0,038	0,035
-357,839	-157,369	0,158	-0,007
-356,825	-200,000	-0,019	0,086
-355,810	-200,000	0,009	-0,080
-354,796	379,817	0,039	-0,058
-353,781	800,000	-0,022	0,061
-352,766	-200,000	-0,025	-0,133
-351,752	800,000	0,006	-0,016
-350,737	-34,245	0,053	-0,021
-349,723	29,027	-0,015	0,009
-348,708	-200,000	0,013	0,042
-347,693	-200,000	-0,010	0,089
-346,679	800,000	-0,016	-0,046
-345,664	418,997	-0,052	-0,081
-344,650	125,580	0,045	-0,042
-343,635	-200,000	-0,007	0,103
-342,620	84,498	0,064	0,051
-341,606	90,240	-0,056	0,045
-340,591	-200,000	-0,003	0,029
-339,577	55,803	-0,110	-0,077
-338,562	150,419	0,040	-0,039
-337,548	350,401	0,001	-0,002
-336,533	-200,000	0,008	0,120
-335,518	-200,000	0,001	0,044
-334,504	-200,000	-0,028	0,166
-333,489	151,466	-0,061	-0,060
-332,475	-186,183	-0,102	-0,001
-331,460	107,170	0,049	-0,042
-330,445	-109,887	-0,052	-0,008
-329,431	800,000	-0,017	-0,047
-328,416	464,105	0,055	-0,089
-327,402	-34,740	0,178	0,070
-326,387	-96,814	-0,054	0,010
-325,372	113,285	-0,022	0,019
-324,358	-200,000	-0,026	-0,137
-323,343	-200,000	0,003	-0,050
-322,329	18,672	-0,053	0,031
-321,314	662,042	0,037	0,069
-320,299	177,185	0,047	-0,050
-319,285	25,391	0,089	0,053
-318,270	258,452	-0,086	-0,108
-317,256	-105,378	-0,043	0,007
-316,241	-18,890	-0,031	-0,014
-315,226	37,389	0,109	-0,070
-314,212	571,152	-0,036	-0,065
-313,197	42,651	-0,109	0,072
-312,183	-112,005	0,035	0,005
-311,168	161,818	-0,066	0,067
-310,153	-148,624	-0,120	-0,007
-309,139	-14,671	0,059	-0,027
-308,124	-200,000	0,026	0,167
-307,110	503,753	0,013	0,021
-306,095	-200,000	0,012	-0,048
-305,080	353,017	-0,030	-0,044
-304,066	-50,344	0,109	0,037
-303,051	-120,287	-0,123	-0,015
-302,037	-52,489	0,040	0,013
-301,022	-135,884	0,232	0,020
-300,008	257,840	-0,035	0,044
-298,993	800,000	0,029	-0,090
-297,978	-80,105	0,099	-0,024
-296,964	-200,000	-0,032	-0,110
-295,949	-25,310	0,017	0,007
-294,935	75,075	-0,131	-0,100
-293,920	38,136	-0,035	0,023
-292,905	48,055	0,077	0,052
-291,891	401,271	-0,113	0,173
-290,876	77,187	0,107	-0,082
-289,862	800,000	0,032	0,067
-288,847	-91,407	-0,023	-0,005
-287,832	-19,182	0,052	0,023
-286,818	800,000	-0,053	-0,132
-285,803	-17,109	0,063	-0,029
-284,789	84,860	-0,061	0,048
-283,774	-77,472	0,143	0,036
-282,759	35,743	-0,100	-0,063
-281,745	-73,121	-0,152	-0,040
-280,730	-200,000	0,030	-0,151
-279,716	116,983	-0,046	-0,041
-278,701	191,007	0,070	0,077
-277,686	648,632	0,008	-0,016
-276,672	800,000	-0,019	0,045
-275,657	-200,000	-0,000	-0,112
-274,643	4,714	0,009	-0,005
-273,628	5,446	-0,165	-0,088
-272,613	20,633	0,033	-0,019
-271,599	353,920	0,084	-0,121
-270,584	-19,555	0,159	-0,071
-269,570	-200,000	0,027	0,166
-268,555	800,000	0,013	0,031
-267,540	-200,000	0,018	-0,085
-266,526	-76,517	-0,074	-0,019
-265,511	-42,131	0,049	0,018
-264,497	154,427	0,073	0,073
-263,482	-200,000	0,000	-0,067
-262,467	-54,414	-0,067	-0,022
-261,453	-47,512	0,144	-0,050
-260,438	209,850	-0,037	-0,042
-259,424	223,221	-0,045	-0,052
-258,409	14,502	-0,088	-0,050
-257,395	-200,000	0,006	0,044
-256,380	800,000	-0,012	0,024
-255,365	66,295	0,108	0,079
-254,351	-139,631	0,071	0,005
-253,336	-38,656	0,033	0,013
-252,322	48,320	-0,114	0,077
-251,307	34,216	0,057	-0,036
-250,292	75,174	-0,079	-0,061
-249,278	161,813	0,059	0,059
-248,263	440,064	0,030	0,048
-247,249	-110,840	0,059	-0,009
-246,234	23,711	0,018	-0,011
-245,219	9,484	-0,025	0,014
-244,205	-120,645	-0,076	-0,009
-243,190	-62,484	0,163	-0,049
-242,176	24,627	-0,171	-0,102
-241,161	-107,883	0,089	-0,014
-240,146	-200,000	-0,021	0,105
-239,132	-101,883	-0,084	0,015
-238,117	373,207	-0,016	0,023
-237,103	-200,000	-0,032	0,111
-236,088	-35,252	0,087	-0,034
-235,073	390,958	0,020	0,031
-234,059	10,530	0,071	-0,039
-233,044	-133,279	-0,173	0,016
-232,030	275,497	0,067	0,086
-231,015	73,655	0,120	0,091
-230,000	107,585	0,063	-0,054
-228,986	-55,113	0,055	0,018
-227,971	246,199	0,040	0,049
-226,957	800,000	-0,006	0,011
-225,942	-61,257	0,119	0,036
-224,927	-166,535	-0,162	0,005
-223,913	47,537	-0,047	0,031
-222,898	-142,162	-0,134	-0,009
-221,884	800,000	-0,039	0,092
-220,869	38,037	0,142	-0,091
-219,855	18,158	-0,074	0,043
-218,840	-90,162	-0,051	0,011
-217,825	800,000	-0,045	0,119
-216,811	-53,788	0,067	-0,022
-215,796	-36,257	-0,072	-0,028
-214,782	-200,000	0,008	-0,076
-213,767	222,524	0,015	-0,018
-212,752	109,888	-0,025	-0,022
-211,738	517,346	0,096	-0,163
-210,723	-200,000	-0,000	-0,013
-209,709	140,342	0,072	-0,069
-208,694	-29,928	-0,146	-0,060
-207,679	322,612	-0,059	-0,082
-206,665	28,779	0,114	0,070
-205,650	25,969	-0,092	0,055
-204,636	210,506	0,081	0,092
-203,621	800,000	-0,033	0,077
-202,606	-51,765	-0,017	0,006
-201,592	-78,589	0,058	0,014
-200,577	246,570	-0,153	-0,187
-199,563	-200,000	0,047	0,180
-198,548	344,844	0,081	0,115
-197,533	-200,000	-0,003	0,046
-196,519	132,261	0,182	0,170
-195,504	-123,578	-0,154	-0,017
-194,490	-31,677	-0,036	-0,015
-193,475	468,041	0,045	-0,074
-192,460	138,527	-0,068	0,065
-191,446	-96,431	0,054	0,010
-190,431	800,000	0,022	-0,049
-189,417	-200,000	0,022	0,133
-188,402	-200,000	0,012	0,049
-187,387	321,110	-0,076	0,105
-186,373	85,825	0,063	0,050
-185,358	800,000	-0,014	-0,034
-184,344	516,352	-0,040	-0,068
-183,329	398,930	-0,040	0,061
-182,315	-59,526	0,191	-0,059
-181,300	577,874	0,045	0,079
-180,285	-199,507	0,096	0,000
-179,271	-200,000	-0,024	-0,191
-178,256	214,240	0,112	0,128
-177,242	30,017	-0,033	0,020
-176,227	-77,944	-0,037	0,009
-175,212	-46,674	0,080	-0,028
-174,198	-75,965	-0,113	0,029
-173,183	-63,166	0,075	-0,022
-172,169	-200,000	0,001	-0,057
-171,154	-107,630	-0,074	0,012
-170,139	35,970	0,174	0,110
-169,125	-83,585	0,085	0,019
-168,110	375,896	-0,071	0,104
-167,096	-97,435	0,076	0,014
-166,081	-105,907	-0,030	-0,005
-165,066	800,000	-0,043	-0,088
-164,052	-200,000	-0,014	0,084
-163,037	0,811	0,044	-0,023
-162,023	-17,542	-0,080	-0,036
-161,008	800,000	-0,021	-0,047
-159,993	-200,000	-0,001	-0,039
-158,979	-16,261	-0,128	-0,058
-157,964	761,920	0,067	-0,132
-156,950	-13,929	-0,107	-0,049
-155,935	-200,000	-0,038	-0,134
-154,920	-110,997	0,029	-0,004
-153,906	-21,995	0,069	0,030
-152,891	43,154	0,102	0,067
-151,877	-148,709	-0,195	0,011
-150,862	-43,142	0,098	0,036
-149,847	-200,000	0,016	-0,075
-148,833	584,005	0,053	-0,094
-147,818	381,618	0,065	0,096
-146,804	-50,274	0,049	0,017
-145,789	-30,607	-0,055	0,022
-144,775	-171,199	-0,122	-0,003
-143,760	-9,338	-0,065	-0,031
-142,745	472,609	-0,043	-0,071
-141,731	96,224	0,107	-0,088
-140,716	800,000	-0,030	0,086
-139,702	-46,245	0,068	0,024
-138,687	240,117	0,032	-0,038
-137,672	24,502	-0,057	-0,034
-136,658	-107,447	0,028	-0,004
-135,643	53,257	-0,042	-0,029
-134,629	-107,221	0,083	0,013
-133,614	800,000	-0,030	0,067
-132,599	-52,298	0,232	0,077
-131,585	94,771	0,028	0,023
-130,570	231,369	0,038	0,045
-129,556	424,607	0,063	-0,097
-128,541	-31,664	-0,133	0,054
-127,526	352,986	-0,100	0,143
-126,512	-75,394	0,046	-0,012
-125,497	-200,000	-0,001	-0,121
-124,483	198,985	0,021	-0,023
-123,468	-200,000	-0,034	0,136
-122,453	4,026	-0,086	-0,045
-121,439	420,873	-0,043	-0,066
-120,424	-9,845	0,081	-0,039
-119,410	-131,230	-0,073	-0,007
-118,395	105,106	0,080	0,068
-117,380	59,185	0,047	-0,033
-116,366	48,653	-0,140	0,095
-115,351	715,033	-0,059	0,113
-114,337	-200,000	-0,020	-0,094
-113,322	800,000	0,028	0,059
-112,307	79,322	0,105	-0,081
-111,293	-38,010	0,186	0,071
-110,278	132,422	-0,037	0,035
-109,264	-31,830	-0,069	-0,028
-108,249	800,000	0,013	-0,038
-107,234	792,772	-0,034	-0,067
-106,220	155,608	0,035	0,035
-105,205	170,442	0,056	-0,058
-104,191	199,320	0,142	-0,157
-103,176	-200,000	-0,020	0,084
-102,162	-101,656	-0,111	0,019
-101,147	22,388	0,076	-0,045
-100,132	-200,000	-0,016	-0,099
-99,118	800,000	-0,067	-0,136
-98,103	-6,866	0,087	0,042
-97,089	299,825	-0,041	-0,054
-96,074	-8,936	0,065	-0,031
-95,059	-42,113	0,028	0,010
-94,045	-200,000	0,007	-0,030
-93,030	158,525	0,004	-0,004
-92,016	-137,848	0,102	-0,008
-91,001	421,256	0,062	-0,097
-89,986	331,847	-0,022	-0,031
-88,972	89,005	0,115	0,092
-87,957	76,664	0,118	0,090
-86,943	-200,000	-0,005	-0,038
-85,928	800,000	-0,041	0,098
-84,913	-89,342	0,063	-0,013
-83,899	388,625	0,077	-0,115
-82,884	717,361	0,051	0,098
-81,870	-125,954	0,110	-0,012
-80,855	-200,000	-0,005	0,086
-79,840	-115,829	0,104	0,014
-78,826	183,674	-0,044	0,047
-77,811	800,000	0,035	-0,082
-76,797	-200,000	-0,010	-0,075
-75,782	800,000	-0,024	-0,063
-74,767	800,000	0,048	0,132
-73,753	-200,000	0,009	0,041
-72,738	-200,000	-0,043	0,168
-71,724	-71,682	-0,088	-0,023
-70,709	-161,654	0,055	0,002
-69,694	18,850	0,051	-0,029
-68,680	-165,306	-0,118	-0,004
-67,665	472,980	0,055	0,090
-66,651	550,008	0,080	0,139
-65,636	-200,000	0,002	0,032
-64,622	36,943	-0,118	-0,075
-63,607	20,743	0,047	-0,027
-62,592	-84,159	-0,079	-0,018
-61,578	65,903	0,108	-0,079
-60,563	-134,074	-0,055	0,005
-59,549	800,000	-0,059	0,152
-58,534	91,917	-2,603	-2,103
-57,519	40,282	0,410	-0,265
-56,505	-200,000	-1,686	-5,433
-55,490	443,246	1,154	1,823
-54,476	800,000	5,193	11,177
-53,461	-200,000	22,179	347,844
-52,446	800,000	759,866	2301,392
-51,432	516,006	1646,776	2772,582
-50,417	98,805	1611,327	1334,382
-49,403	66,774	1267,987	925,275
-48,388	23,457	1018,427	599,691
-47,373	19,272	985,439	566,433
-46,359	12,980	972,582	538,426
-45,344	8,705	969,409	522,632
-44,330	9,234	967,075	523,085
-43,315	8,144	965,694	518,751
-42,300	8,110	964,468	517,964
-41,286	8,181	963,292	517,542
-40,271	8,121	962,326	516,808
-39,257	8,102	961,413	516,236
-38,242	8,156	960,531	515,916
-37,227	8,092	959,871	515,332
-36,213	8,099	959,034	514,887
-35,198	8,097	958,090	514,352
-34,184	8,097	957,500	514,016
-33,169	8,038	956,549	513,293
-32,154	8,209	955,301	513,156
-31,140	8,119	954,690	512,515
-30,125	8,180	953,831	512,232
-29,111	8,096	953,156	511,579
-28,096	8,125	952,447	511,272
-27,082	8,102	951,718	510,786
-26,067	8,073	951,056	510,317
-25,052	8,066	950,215	509,822
-24,038	8,070	949,268	509,307
-23,023	8,034	948,889	508,968
-22,009	8,128	948,119	508,835
-20,994	8,100	947,556	508,423
-19,979	8,078	947,028	508,051
-18,965	8,067	946,523	507,723
-17,950	8,073	945,757	507,311
-16,936	8,008	945,324	506,851
-15,921	8,017	944,462	506,397
-14,906	7,964	943,638	505,767
-13,892	8,026	943,123	505,667
-12,877	7,978	942,511	505,166
-11,863	7,964	941,738	504,687
-10,848	7,901	941,548	504,366
-9,833	8,068	940,860	504,507
-8,819	8,028	940,092	503,948
-7,804	8,055	939,567	503,732
-6,790	7,989	938,959	503,179
-5,775	8,058	938,259	503,002
-4,760	8,017	937,717	502,561
-3,746	7,956	937,199	502,071
-2,731	7,914	936,344	501,459
-1,717	7,846	935,729	500,895
-0,702	7,845	935,171	500,574
0,313	7,737	934,553	500,658
1,327	11,083	932,235	509,927
2,342	19,892	780,545	450,060
3,356	14,936	448,867	251,319
4,371	-11,269	313,223	147,441
5,386	-15,138	295,696	135,256
6,400	-17,245	289,592	130,359
7,415	-17,213	286,964	129,197
8,429	-18,049	285,060	127,510
9,444	-18,189	284,231	126,991
10,459	-18,143	283,602	126,744
11,473	-18,165	282,908	126,401
12,488	-18,095	282,463	126,259
13,502	-18,049	281,908	126,044
14,517	-18,065	281,611	125,884
15,531	-18,199	281,082	125,508
16,546	-17,934	280,624	125,547
17,561	-18,161	280,301	125,172
18,575	-17,973	280,138	125,270
19,590	-18,118	279,559	124,861
20,604	-18,044	279,298	124,804
21,619	-18,172	279,073	124,570
22,634	-17,944	278,619	124,573
23,648	-18,032	278,249	124,314
24,663	-18,255	278,272	124,100
25,677	-18,010	277,705	124,069
26,692	-17,997	277,572	124,011
27,707	-18,033	277,120	123,763
28,721	-18,123	276,938	123,585
29,736	-18,033	276,565	123,494
30,750	-18,043	276,344	123,374
31,765	-18,183	276,241	123,185
32,780	-18,046	275,881	123,143
33,794	-18,101	275,602	122,956
34,809	-18,049	275,273	122,847
35,823	-18,120	275,202	122,737
36,838	-18,082	274,790	122,579
37,853	-18,206	274,545	122,341
38,867	-18,000	274,294	122,413
39,882	-18,068	274,059	122,233
40,896	-18,018	273,870	122,184
41,911	-17,950	273,541	122,090
42,926	-18,116	273,422	121,871
43,940	-17,919	273,088	121,895
44,955	-17,956	272,944	121,785
45,969	-18,009	272,622	121,582
46,984	-18,028	272,425	121,465
47,999	-18,054	272,481	121,455
49,013	-18,052	272,200	121,321
50,028	-17,938	271,862	121,265
51,042	-18,012	271,522	121,035
52,057	-18,020	271,385	120,955
53,071	-17,851	271,088	120,969
54,086	-18,041	270,881	120,689
55,101	-17,885	270,789	120,782
56,115	-18,037	270,424	120,468
57,130	-17,978	270,102	120,369
58,144	-18,085	269,913	120,174
59,159	-17,942	269,591	120,152
60,174	-18,077	269,545	119,997
61,188	-18,083	269,263	119,855
62,203	-18,049	268,942	119,732
63,217	-17,882	268,852	119,835
64,232	-17,953	268,459	119,584
65,247	-18,050	268,266	119,399
66,261	-17,969	267,973	119,332
67,276	-18,052	267,902	119,214
68,290	-17,881	267,670	119,255
69,305	-17,864	267,467	119,171
70,320	-18,045	267,303	118,922
71,334	-18,095	266,975	118,719
72,349	-17,893	266,642	118,745
73,363	-18,182	266,557	118,434
74,378	-18,026	266,343	118,470
75,393	-18,019	266,148	118,379
76,407	-17,962	265,828	118,277
77,422	-18,020	265,478	118,058
78,436	-17,991	265,379	118,031
79,451	-17,890	265,001	117,943
80,466	-18,127	264,925	117,684
81,480	-17,955	264,484	117,634
82,495	-17,758	264,328	117,731
83,509	-17,884	264,245	117,570
84,524	-18,178	264,166	117,259
85,539	-18,177	263,912	117,138
86,553	-18,032	263,687	117,158
87,568	-18,049	263,484	117,041
88,582	-18,077	263,266	116,909
89,597	-18,073	262,984	116,777
90,611	-17,927	262,700	116,771
91,626	-18,147	262,845	116,628
92,641	-17,971	262,393	116,574
93,655	-17,932	262,162	116,496
94,670	-17,944	261,856	116,339
95,684	-18,062	261,695	116,152
96,699	-17,987	261,654	116,190
97,714	-17,860	261,318	116,144
98,728	-17,914	261,165	116,017
99,743	-18,040	260,915	115,784
100,757	-17,905	260,848	115,864
101,772	-17,919	260,647	115,752
102,787	-18,030	260,202	115,446
103,801	-17,893	260,123	115,522
104,816	-17,982	259,944	115,353
105,830	-17,864	259,685	115,332
106,845	-17,976	259,453	115,120
107,860	-17,922	259,208	115,049
108,874	-17,898	259,118	115,019
109,889	-18,044	258,969	114,815
110,903	-18,013	258,635	114,683
111,918	-18,003	258,406	114,580
112,933	-17,784	258,246	114,692
113,947	-17,958	258,181	114,500
114,962	-17,944	257,887	114,372
115,976	-17,830	257,586	114,327
116,991	-18,006	257,588	114,164
118,006	-18,113	257,332	113,947
119,020	-18,007	257,161	113,954
120,035	-18,016	257,035	113,880
121,049	-17,836	256,736	113,894
122,064	-17,764	256,531	113,856
123,079	-17,973	256,459	113,632
124,093	-17,789	256,063	113,606
125,108	-18,003	255,995	113,380
126,122	-18,022	255,797	113,265
127,137	-18,038	255,794	113,240
128,151	-17,689	255,327	113,326
129,166	-17,974	255,232	113,027
130,181	-17,823	254,965	113,029
131,195	-17,918	254,764	112,848
132,210	-18,014	254,542	112,656
133,224	-17,910	254,366	112,658
134,239	-17,934	254,306	112,601
135,254	-17,799	254,003	112,573
136,268	-17,698	253,972	112,636
137,283	-17,631	253,488	112,469
138,297	-18,081	253,569	112,109
139,312	-17,912	253,182	112,072
140,327	-17,930	253,013	111,972
141,341	-17,999	252,837	111,825
142,356	-17,978	252,683	111,764
143,370	-17,889	252,400	111,706
144,385	-17,777	252,172	111,691
145,400	-17,955	251,961	111,435
146,414	-17,820	251,772	111,457
147,429	-18,031	251,794	111,277
148,443	-17,685	251,413	111,393
149,458	-17,917	251,329	111,148
150,473	-17,733	251,090	111,189
151,487	-17,845	250,894	110,997
152,502	-17,933	250,733	110,842
153,516	-17,788	250,474	110,840
154,531	-17,930	250,359	110,659
155,546	-17,844	250,099	110,607
156,560	-17,791	250,032	110,613
157,575	-17,804	249,823	110,499
158,589	-18,088	249,798	110,238
159,604	-17,796	249,323	110,265
160,619	-17,984	249,210	110,046
161,633	-17,917	249,009	110,005
162,648	-17,700	248,787	110,080
163,662	-17,882	248,845	109,942
164,677	-17,675	248,475	109,943
165,692	-17,898	248,336	109,685
166,706	-17,796	248,273	109,732
167,721	-17,949	248,101	109,518
168,735	-17,766	247,881	109,564
169,750	-18,027	247,833	109,314
170,764	-17,723	247,632	109,471
171,779	-17,806	247,342	109,263
172,794	-17,865	247,233	109,156
173,808	-17,638	246,973	109,221
174,823	-17,819	246,892	109,025
175,837	-17,873	246,651	108,864
176,852	-18,069	246,548	108,645
177,867	-17,902	246,377	108,699
178,881	-17,739	246,198	108,746
179,896	-17,753	245,972	108,624
180,910	-17,933	245,965	108,462
181,925	-17,811	245,657	108,418
182,940	-17,929	245,426	108,209
183,954	-17,775	245,377	108,305
184,969	-17,878	245,141	108,107
185,983	-17,900	244,995	108,013
186,998	-17,734	244,596	107,965
188,013	-17,563	244,639	108,116
189,027	-17,988	244,462	107,678
190,042	-17,663	244,188	107,815
191,056	-17,777	244,044	107,648
192,071	-17,890	244,039	107,543
193,086	-17,954	243,722	107,341
194,100	-17,751	243,452	107,379
195,115	-17,696	243,296	107,346
196,129	-17,792	243,049	107,149
197,144	-17,890	242,861	106,976
198,159	-17,753	242,659	106,989
199,173	-17,801	242,551	106,894
200,188	-17,694	242,468	106,935
201,202	-17,668	242,252	106,851
202,217	-17,544	242,025	106,843
203,232	-17,693	241,914	106,663
204,246	-17,626	241,715	106,620
205,261	-17,655	241,424	106,459
206,275	-16,211	242,008	107,885
207,290	-11,264	244,005	112,831
208,304	-5,024	245,593	118,706
209,319	-3,185	246,104	120,460
210,334	-2,712	246,278	120,926
211,348	-1,924	246,327	121,589
212,363	-1,273	246,482	122,192
213,377	-0,730	246,302	122,539
214,392	-0,133	246,544	123,141
215,407	0,567	246,458	123,664
216,421	0,586	246,380	123,630
217,436	0,722	246,040	123,560
218,450	0,489	246,072	123,373
219,465	0,752	245,713	123,399
220,480	0,429	245,856	123,194
221,494	0,584	245,511	123,137
222,509	0,390	245,288	122,855
223,523	0,150	245,093	122,550
224,538	0,163	244,758	122,382
225,553	-0,015	244,724	122,208
226,567	0,088	244,522	122,181
227,582	0,181	244,423	122,197
228,596	0,092	244,253	122,028
229,611	0,044	244,012	121,858
230,626	-0,030	243,980	121,770
231,640	0,165	243,805	121,831
232,655	0,056	243,495	121,577
233,669	-0,173	243,409	121,337
234,684	-0,014	243,317	121,410
235,699	0,020	242,993	121,264
236,713	0,049	243,040	121,301
237,728	0,159	242,717	121,218
238,742	-0,087	242,459	120,879
239,757	0,316	242,523	121,227
240,772	0,007	242,411	120,909
241,786	0,037	242,234	120,835
242,801	0,096	241,939	120,724
243,815	0,060	241,774	120,602
244,830	0,106	241,641	120,562
245,844	0,053	241,476	120,427
246,859	0,030	241,258	120,289
247,874	0,144	241,169	120,325
248,888	0,079	241,062	120,208
249,903	0,117	240,838	120,117
250,917	0,070	240,892	120,095
251,932	0,131	240,596	119,986
252,947	0,307	240,410	120,024
253,961	0,202	240,220	119,834
254,976	0,161	240,056	119,708
255,990	0,203	239,999	119,703
257,005	-0,066	239,784	119,370
258,020	0,060	239,749	119,443
259,034	0,125	239,446	119,333
260,049	0,155	239,330	119,288
261,063	-0,150	239,267	119,003
262,078	0,081	239,109	119,098
263,093	-0,072	238,774	118,799
264,107	0,004	238,727	118,825
265,122	0,164	238,469	118,813
266,136	0,226	238,306	118,771
267,151	-0,042	238,248	118,519
268,166	0,190	237,950	118,544
269,180	0,029	237,933	118,397
270,195	0,064	237,771	118,334
271,209	0,061	237,608	118,240
272,224	0,214	237,345	118,219
273,239	0,217	237,338	118,207
274,253	0,276	237,067	118,109
275,268	0,065	237,010	117,903
276,282	-0,023	236,945	117,792
277,297	0,193	236,719	117,838
278,312	0,161	236,547	117,717
279,326	0,208	236,389	117,665
280,341	0,175	236,237	117,553
281,355	0,289	236,051	117,539
282,370	0,198	235,961	117,412
283,384	0,221	235,720	117,300
284,399	0,124	235,578	117,143
285,414	0,317	235,358	117,174
286,428	0,039	235,295	116,915
287,443	0,170	235,204	116,962
288,457	0,161	235,097	116,891
289,472	0,096	234,962	116,763
290,487	0,172	234,852	116,757
291,501	0,323	234,573	116,725
292,516	0,400	234,378	116,678
293,530	0,275	234,406	116,585
294,545	0,390	234,053	116,488
295,560	0,308	233,986	116,380
296,574	0,208	233,971	116,285
297,589	0,190	233,834	116,192
298,603	0,351	233,539	116,160
299,618	0,460	233,572	116,251
300,633	0,168	233,459	115,958
301,647	0,250	233,202	115,883
302,662	0,514	232,994	115,974
303,676	0,379	232,929	115,827
304,691	0,269	232,715	115,625
305,706	0,568	232,442	115,709
306,720	0,293	232,403	115,468
307,735	0,523	232,319	115,593
308,749	0,493	232,190	115,496
309,764	0,253	231,961	115,186
310,779	0,298	231,908	115,185
311,793	0,436	231,718	115,186
312,808	0,190	231,563	114,910
313,822	0,527	231,261	115,008
314,837	0,522	231,214	114,970
315,852	0,305	231,056	114,716
316,866	0,429	231,005	114,775
317,881	0,473	230,867	114,730
318,895	0,478	230,722	114,652
319,910	0,511	230,457	114,535
320,925	0,463	230,309	114,415
321,939	0,382	230,209	114,293
322,954	0,537	230,006	114,300
323,968	0,439	230,009	114,216
324,983	0,401	229,747	114,047
325,997	0,407	229,604	113,970
327,012	0,712	229,395	114,089
328,027	0,490	229,352	113,889
329,041	0,306	229,322	113,723
330,056	0,335	229,215	113,682
331,070	0,681	228,913	113,785
332,085	0,680	228,654	113,645
333,100	0,690	228,607	113,619
334,114	0,662	228,434	113,501
335,129	0,560	228,313	113,354
336,143	0,751	228,166	113,416
337,158	0,609	228,101	113,266
338,173	0,503	227,959	113,105
339,187	0,631	227,782	113,104
340,202	0,485	227,716	112,951
341,216	0,631	227,541	112,964
342,231	0,579	227,358	112,824
343,246	0,561	227,217	112,730
344,260	0,853	226,912	112,788
345,275	0,549	226,801	112,495
346,289	0,761	226,860	112,673
347,304	0,646	226,573	112,434
348,319	0,725	226,487	112,441
349,333	0,483	226,399	112,206
350,348	0,501	226,297	112,159
351,362	0,625	226,103	112,146
352,377	0,539	225,934	111,987
353,392	0,700	225,756	112,010
354,406	0,469	225,654	111,777
355,421	192,436	1311,905	1378,665
356,435	154,164	1444,110	1378,517
