DTS Sentinel unit serial number:	SN410029Multiplexer serial number:	ORYXHardware model number:	OX2-SRSoftware version number:	ORYX F/W v4,00 Oryx Data Collector v3.7.2.0data status	okinstallation	B5 Nyhavnadifferential loss correction	single-endedforward channel	channel 2reverse channel	N/Adate	2023/12/12time	08:02:13forward acquisition time	300,00reverse acquisition time	0,00gamma	499,1914k internal	0,3158k external	0,3158temperature offset calibration	1,0000default loss term (dB/km)	0,3820temperature slope calibration	1,0000multiplexer offset coefficient	1,0000multiplexer slope coefficient	1,0000fibre end	0,00T internal ref (°C)	15,12T ext. ref 1 (°C)	-1,19T ext. ref 2 (°C)	-1,49length (m)	temperature (°C)	Stokes	anti-Stokes-744,400	62,066	-0,055	-0,040
-743,385	-136,142	-0,403	-0,034
-742,371	-56,183	0,168	0,055
-741,356	-53,035	-0,227	0,077
-740,342	-191,881	0,060	-0,000
-739,327	-67,672	-0,230	0,066
-738,312	-123,168	-0,075	0,009
-737,298	-67,127	-0,261	-0,075
-736,283	800,000	0,013	0,030
-735,269	-98,599	-0,314	0,059
-734,254	35,371	0,080	0,052
-733,239	1,647	-0,331	-0,175
-732,225	-60,323	0,107	-0,033
-731,210	-200,000	-0,008	0,057
-730,196	-60,642	-0,123	0,038
-729,181	640,887	-0,020	-0,038
-728,167	-31,935	0,098	0,040
-727,152	213,509	-0,048	0,056
-726,137	-84,426	-0,089	0,021
-725,123	-200,000	0,003	-0,082
-724,108	-53,674	-0,192	-0,064
-723,094	800,000	-0,057	-0,152
-722,079	8,324	-0,067	0,037
-721,064	34,709	0,036	-0,023
-720,050	-52,630	-0,169	-0,057
-719,035	-108,065	0,106	-0,017
-718,021	-200,000	-0,016	-0,108
-717,006	-59,261	-0,122	0,039
-715,991	-12,901	0,051	-0,024
-714,977	800,000	0,019	-0,044
-713,962	85,517	-0,110	0,089
-712,948	-200,000	0,011	0,079
-711,933	8,506	-0,100	-0,055
-710,918	-200,000	0,001	0,122
-709,904	-26,907	0,077	0,033
-708,889	-200,000	-0,025	-0,146
-707,875	269,535	-0,124	-0,161
-706,860	-200,000	-0,034	-0,209
-705,845	461,670	0,060	0,099
-704,831	-200,000	-0,001	-0,008
-703,816	-156,203	-0,114	0,005
-702,802	61,441	-0,118	-0,086
-701,787	391,855	-0,069	-0,105
-700,772	255,841	-0,054	0,068
-699,758	-2,056	0,138	0,071
-698,743	-158,903	0,138	-0,006
-697,729	101,162	-0,032	0,028
-696,714	-113,721	-0,065	-0,009
-695,699	54,710	-0,063	-0,044
-694,685	-157,505	-0,088	0,004
-693,670	-98,139	-0,022	-0,004
-692,656	259,369	0,024	0,030
-691,641	166,779	-0,056	0,058
-690,627	189,508	-0,057	-0,063
-689,612	-50,286	-0,068	-0,023
-688,597	49,993	0,054	0,037
-687,583	11,699	-0,207	-0,116
-686,568	106,371	0,181	-0,157
-685,554	800,000	-0,020	-0,045
-684,539	504,517	0,064	-0,109
-683,524	-200,000	-0,011	0,044
-682,510	11,447	0,046	0,026
-681,495	800,000	0,047	-0,101
-680,481	192,981	0,072	-0,080
-679,466	-200,000	0,004	0,044
-678,451	-97,785	-0,070	-0,013
-677,437	800,000	0,052	0,123
-676,422	800,000	-0,055	-0,126
-675,408	800,000	0,022	0,051
-674,393	800,000	-0,025	-0,067
-673,378	-200,000	-0,030	-0,149
-672,364	-3,880	-0,075	0,038
-671,349	-73,792	-0,080	-0,021
-670,335	-200,000	-0,014	-0,120
-669,320	-200,000	-0,017	0,093
-668,305	-131,482	0,107	-0,010
-667,291	-61,322	-0,171	-0,052
-666,276	-200,000	-0,022	-0,178
-665,262	248,649	-0,083	-0,104
-664,247	11,505	-0,068	-0,038
-663,232	28,996	-0,075	-0,047
-662,218	22,833	0,076	-0,045
-661,203	-200,000	-0,013	0,122
-660,189	118,579	0,112	-0,102
-659,174	-200,000	-0,029	-0,253
-658,159	58,311	0,088	-0,063
-657,145	100,391	-0,110	-0,094
-656,130	19,150	-0,220	-0,129
-655,116	-34,800	-0,076	-0,030
-654,101	118,698	0,086	-0,078
-653,086	-200,000	0,027	0,139
-652,072	-151,692	-0,056	-0,003
-651,057	-200,000	-0,007	0,035
-650,043	17,546	0,055	0,032
-649,028	-200,000	-0,016	-0,098
-648,014	-2,054	0,090	0,046
-646,999	26,122	-0,041	-0,025
-645,984	-200,000	-0,046	0,154
-644,970	-200,000	-0,017	-0,066
-643,955	130,493	-0,064	-0,060
-642,941	-101,289	-0,049	0,009
-641,926	-54,364	-0,086	-0,029
-640,911	800,000	0,026	-0,067
-639,897	-200,000	-0,004	0,026
-638,882	-35,451	0,166	0,066
-637,868	800,000	0,025	-0,052
-636,853	800,000	-0,064	-0,149
-635,838	-200,000	0,003	-0,028
-634,824	78,101	-0,053	-0,042
-633,809	237,883	0,030	-0,036
-632,795	75,706	-0,058	0,045
-631,780	-73,911	-0,051	0,014
-630,765	30,306	-0,139	-0,087
-629,751	777,111	0,062	0,124
-628,736	-200,000	0,004	-0,228
-627,722	160,990	0,089	-0,091
-626,707	-11,965	0,072	0,035
-625,692	-137,837	0,023	-0,002
-624,678	230,504	-0,050	0,060
-623,663	358,822	-0,048	-0,070
-622,649	-36,406	0,066	0,026
-621,634	-167,172	-0,083	0,002
-620,619	74,080	-0,037	-0,028
-619,605	245,927	-0,041	-0,051
-618,590	81,765	-0,067	0,054
-617,576	61,405	0,054	0,040
-616,561	383,144	0,029	0,044
-615,546	800,000	0,011	0,028
-614,532	132,894	-0,121	0,114
-613,517	-200,000	0,038	0,175
-612,503	-24,685	0,061	0,027
-611,488	27,079	0,054	0,033
-610,474	143,435	0,089	0,087
-609,459	-18,689	0,145	0,066
-608,444	388,968	0,025	-0,038
-607,430	179,833	-0,069	-0,074
-606,415	800,000	0,031	-0,071
-605,401	195,679	0,035	-0,039
-604,386	-3,624	0,093	-0,047
-603,371	800,000	-0,034	0,096
-602,357	39,049	-0,025	-0,016
-601,342	-200,000	0,017	-0,063
-600,328	-41,200	-0,123	0,046
-599,313	-200,000	0,027	0,119
-598,298	18,679	-0,114	0,067
-597,284	-200,000	0,003	0,024
-596,269	-122,443	0,101	-0,012
-595,255	-76,787	-0,101	0,026
-594,240	-121,689	0,049	-0,006
-593,225	293,082	-0,058	0,078
-592,211	800,000	-0,035	-0,074
-591,196	746,198	0,002	-0,004
-590,182	-200,000	0,013	0,054
-589,167	-200,000	-0,013	0,059
-588,152	169,023	0,052	0,054
-587,138	652,416	0,042	0,080
-586,123	437,448	-0,039	-0,063
-585,109	-200,000	-0,034	-0,145
-584,094	287,820	0,039	-0,052
-583,079	-200,000	-0,004	-0,057
-582,065	-103,907	-0,041	-0,007
-581,050	6,962	0,143	0,078
-580,036	141,733	0,034	-0,033
-579,021	-23,966	0,082	-0,036
-578,006	-200,000	0,001	-0,111
-576,992	-200,000	0,008	-0,095
-575,977	800,000	-0,023	-0,072
-574,963	-200,000	0,002	-0,025
-573,948	307,092	-0,056	0,077
-572,934	14,216	-0,113	0,064
-571,919	401,401	-0,060	-0,093
-570,904	263,165	-0,101	0,128
-569,890	-200,000	-0,006	-0,110
-568,875	-200,000	-0,002	0,036
-567,861	-200,000	-0,003	0,018
-566,846	-41,729	-0,045	-0,017
-565,831	597,376	0,027	-0,049
-564,817	-6,072	0,075	-0,038
-563,802	800,000	0,008	-0,017
-562,788	-200,000	-0,033	0,143
-561,773	691,218	-0,025	-0,049
-560,758	-152,637	0,070	0,004
-559,744	-128,818	0,064	0,006
-558,729	-200,000	-0,005	0,022
-557,715	235,065	-0,091	-0,110
-556,700	63,442	-0,019	-0,014
-555,685	-200,000	-0,014	0,068
-554,671	-12,068	0,069	-0,033
-553,656	192,785	0,110	0,122
-552,642	-200,000	0,015	-0,090
-551,627	64,835	0,075	-0,056
-550,612	44,800	-0,106	0,071
-549,598	767,514	-0,024	0,047
-548,583	800,000	0,032	-0,092
-547,569	339,574	0,043	-0,061
-546,554	-120,262	0,078	-0,010
-545,539	570,618	-0,021	0,038
-544,525	398,331	0,077	0,118
-543,510	-200,000	-0,002	0,038
-542,496	-25,397	0,141	-0,061
-541,481	65,739	0,079	0,059
-540,466	-83,850	0,122	0,028
-539,452	-78,735	-0,126	-0,031
-538,437	-34,964	0,126	0,050
-537,423	21,855	0,065	0,038
-536,408	447,067	-0,013	0,021
-535,393	-200,000	-0,026	-0,087
-534,379	-80,323	0,075	-0,018
-533,364	59,433	-0,087	-0,063
-532,350	13,541	0,082	-0,046
-531,335	-113,801	0,057	-0,008
-530,321	16,882	0,072	0,042
-529,306	388,485	-0,095	0,145
-528,291	800,000	0,020	-0,048
-527,277	800,000	-0,091	-0,210
-526,262	800,000	-0,060	-0,138
-525,248	205,960	0,052	-0,059
-524,233	-20,035	0,118	0,053
-523,218	107,210	0,062	0,053
-522,204	-128,615	0,096	0,010
-521,189	-51,424	-0,032	-0,011
-520,175	13,374	-0,121	0,068
-519,160	416,208	-0,102	-0,160
-518,145	-77,514	-0,092	-0,023
-517,131	341,677	0,077	0,111
-516,116	-53,279	-0,099	-0,033
-515,102	800,000	0,043	-0,128
-514,087	7,137	0,067	0,036
-513,072	647,980	-0,064	0,120
-512,058	-200,000	0,020	-0,118
-511,043	800,000	-0,058	0,162
-510,029	800,000	0,037	-0,083
-509,014	-86,699	-0,081	0,018
-507,999	-200,000	-0,007	0,036
-506,985	97,609	-0,095	-0,080
-505,970	218,171	0,085	-0,099
-504,956	32,261	-0,218	-0,137
-503,941	-50,489	0,041	-0,014
-502,926	43,080	-0,110	-0,073
-501,912	800,000	0,030	-0,083
-500,897	-120,509	0,098	0,012
-499,883	122,261	0,054	0,049
-498,868	-200,000	0,005	0,025
-497,853	76,923	0,104	-0,081
-496,839	-200,000	0,065	0,000
-495,824	-200,000	0,014	0,098
-494,810	647,451	0,026	0,048
-493,795	-35,258	-0,090	-0,036
-492,781	149,459	0,039	0,038
-491,766	-200,000	-0,031	-0,150
-490,751	-200,000	-0,052	-0,190
-489,737	-200,000	0,004	-0,116
-488,722	-200,000	0,023	0,124
-487,708	-88,317	-0,061	0,013
-486,693	-112,720	-0,027	-0,004
-485,678	675,504	-0,044	0,083
-484,664	-22,022	-0,119	0,052
-483,649	-200,000	0,031	-0,131
-482,635	114,689	0,063	-0,056
-481,620	800,000	-0,050	0,109
-480,605	-200,000	0,007	0,072
-479,591	-47,312	0,026	0,009
-478,576	-200,000	0,003	-0,028
-477,562	-111,904	0,080	-0,012
-476,547	558,544	-0,049	-0,086
-475,532	-15,046	-0,034	-0,016
-474,518	-200,000	-0,010	0,058
-473,503	84,082	0,108	-0,086
-472,489	487,977	-0,035	0,059
-471,474	800,000	-0,042	-0,097
-470,459	-200,000	-0,021	-0,116
-469,445	-46,564	-0,073	-0,026
-468,430	-200,000	-0,001	-0,052
-467,416	297,959	-0,030	-0,040
-466,401	297,883	-0,039	0,052
-465,386	800,000	0,086	0,240
-464,372	66,392	0,136	0,101
-463,357	267,946	0,060	0,077
-462,343	15,294	-0,009	0,005
-461,328	-134,866	0,029	0,003
-460,313	-18,094	0,092	-0,042
-459,299	800,000	0,034	0,076
-458,284	-200,000	-0,004	0,079
-457,270	-139,732	0,093	0,007
-456,255	-18,667	-0,094	-0,043
-455,241	403,953	-0,101	0,155
-454,226	-59,765	-0,131	0,040
-453,211	-157,159	0,130	0,006
-452,197	800,000	0,034	0,095
-451,182	-136,026	0,120	-0,010
-450,168	29,669	-0,037	-0,023
-449,153	-101,557	0,173	0,030
-448,138	226,780	0,015	-0,018
-447,124	353,088	-0,049	-0,070
-446,109	530,832	-0,017	0,030
-445,095	360,731	0,081	0,118
-444,080	3,096	0,104	0,055
-443,065	9,473	0,168	0,092
-442,051	104,475	-0,080	0,068
-441,036	330,608	-0,068	0,095
-440,022	-200,000	-0,020	-0,090
-439,007	-200,000	-0,003	0,051
-437,992	274,706	-0,058	-0,075
-436,978	-137,705	-0,058	-0,005
-435,963	800,000	0,062	0,132
-434,949	501,579	-0,075	-0,126
-433,934	800,000	-0,066	-0,194
-432,919	-200,000	0,007	0,072
-431,905	41,162	-0,081	0,053
-430,890	146,461	0,079	0,077
-429,876	-28,058	0,136	0,057
-428,861	800,000	0,030	0,087
-427,846	-200,000	-0,023	0,080
-426,832	-94,520	-0,102	-0,020
-425,817	800,000	0,023	-0,052
-424,803	800,000	0,014	-0,043
-423,788	-200,000	0,010	0,047
-422,773	237,098	0,026	0,032
-421,759	-67,527	0,098	0,028
-420,744	-90,144	0,042	-0,009
-419,730	-115,475	-0,139	-0,019
-418,715	-122,668	0,018	-0,002
-417,701	-153,445	-0,061	0,003
-416,686	800,000	-0,040	-0,096
-415,671	-200,000	-0,007	0,040
-414,657	-124,613	0,052	0,006
-413,642	458,744	-0,048	-0,078
-412,628	-200,000	-0,031	0,131
-411,613	-33,379	0,116	-0,047
-410,598	-200,000	-0,048	-0,221
-409,584	-200,000	0,026	-0,095
-408,569	-8,283	-0,040	-0,019
-407,555	-200,000	-0,038	0,129
-406,540	800,000	0,006	0,019
-405,525	800,000	-0,014	-0,044
-404,511	800,000	0,037	-0,088
-403,496	-200,000	0,003	-0,059
-402,482	-120,373	-0,138	0,017
-401,467	-21,904	0,071	0,031
-400,452	800,000	-0,048	0,131
-399,438	-67,326	-0,079	0,023
-398,423	800,000	-0,030	0,095
-397,409	-200,000	0,009	-0,048
-396,394	307,674	-0,046	-0,062
-395,379	-200,000	-0,040	0,138
-394,365	800,000	0,027	0,061
-393,350	797,743	-0,020	-0,040
-392,336	753,211	-0,019	-0,037
-391,321	-200,000	-0,007	-0,053
-390,306	-200,000	-0,010	-0,156
-389,292	-200,000	-0,001	0,024
-388,277	263,334	0,046	-0,058
-387,263	29,932	0,168	-0,104
-386,248	-14,448	-0,009	-0,004
-385,233	-200,000	-0,011	0,040
-384,219	90,340	-0,156	-0,127
-383,204	180,375	-0,056	-0,059
-382,190	-67,720	-0,089	-0,025
-381,175	-99,802	0,031	-0,006
-380,160	275,778	0,061	0,078
-379,146	469,604	0,017	-0,027
-378,131	-97,963	0,049	-0,009
-377,117	32,855	-0,031	-0,020
-376,102	64,659	0,084	-0,061
-375,088	-161,027	-0,089	-0,003
-374,073	-112,284	0,075	0,011
-373,058	-58,616	0,012	0,004
-372,044	-200,000	-0,021	0,084
-371,029	44,461	0,163	0,109
-370,015	800,000	-0,032	-0,086
-369,000	-80,928	-0,070	-0,017
-367,985	64,078	-0,067	-0,049
-366,971	539,142	-0,081	-0,141
-365,956	-22,118	-0,095	0,042
-364,942	-101,082	0,031	0,006
-363,927	352,670	0,036	0,052
-362,912	-200,000	0,018	-0,076
-361,898	-200,000	0,022	-0,199
-360,883	192,466	0,067	-0,074
-359,869	-200,000	0,005	-0,211
-358,854	-109,642	0,073	-0,011
-357,839	131,417	0,049	-0,046
-356,825	-138,126	-0,043	-0,003
-355,810	19,145	-0,039	-0,023
-354,796	544,724	0,003	0,006
-353,781	106,396	0,024	-0,020
-352,766	-200,000	0,006	0,108
-351,752	-47,747	0,075	-0,026
-350,737	-75,930	0,093	0,024
-349,723	-200,000	0,006	-0,072
-348,708	-200,000	0,005	0,038
-347,693	21,358	0,098	-0,058
-346,679	-1,733	0,093	0,047
-345,664	-49,155	-0,199	0,069
-344,650	0,856	0,088	-0,046
-343,635	215,134	0,103	-0,119
-342,620	-31,352	0,169	0,069
-341,606	161,764	0,073	0,074
-340,591	-43,825	0,081	-0,029
-339,577	422,737	-0,095	-0,148
-338,562	375,327	-0,084	0,124
-337,548	176,887	-0,035	0,037
-336,533	-129,199	0,239	0,024
-335,518	-85,446	-0,078	-0,018
-334,504	-200,000	-0,003	0,072
-333,489	10,072	-0,131	0,072
-332,475	63,904	-0,174	-0,127
-331,460	109,240	-0,045	-0,039
-330,445	128,108	-0,045	-0,042
-329,431	-169,304	0,147	-0,004
-328,416	86,170	-0,011	-0,009
-327,402	145,243	0,058	-0,056
-326,387	-145,271	-0,144	0,009
-325,372	-200,000	-0,008	0,047
-324,358	800,000	0,010	-0,021
-323,343	-2,873	-0,172	-0,087
-322,329	254,135	-0,025	0,031
-321,314	-161,459	0,128	-0,005
-320,299	-105,095	0,017	0,003
-319,285	-116,889	0,060	0,008
-318,270	-41,681	-0,079	0,029
-317,256	47,216	-0,021	0,014
-316,241	-200,000	0,010	-0,114
-315,226	-35,317	0,137	0,054
-314,212	628,598	0,039	-0,072
-313,197	656,190	-0,051	-0,095
-312,183	-200,000	-0,000	0,061
-311,168	800,000	-0,022	0,066
-310,153	-106,587	0,124	0,020
-309,139	-200,000	-0,008	-0,073
-308,124	-34,755	0,205	-0,081
-307,110	63,069	0,080	0,058
-306,095	-3,638	0,060	0,030
-305,080	233,790	-0,121	0,145
-304,066	412,749	0,072	-0,112
-303,051	69,068	-0,081	-0,060
-302,037	-110,064	0,047	-0,007
-301,022	-200,000	-0,002	-0,033
-300,008	55,224	-0,095	0,067
-298,993	332,299	-0,062	0,087
-297,978	-200,000	-0,034	0,113
-296,964	-61,342	0,120	0,036
-295,949	-114,063	-0,212	0,029
-294,935	70,300	-0,070	-0,052
-293,920	257,270	0,043	-0,053
-292,905	800,000	0,032	-0,079
-291,891	-200,000	0,014	0,074
-290,876	-200,000	0,015	-0,052
-289,862	182,791	-0,015	-0,016
-288,847	800,000	-0,051	0,103
-287,832	-200,000	-0,014	0,075
-286,818	-142,297	-0,065	-0,005
-285,803	-135,859	0,083	-0,007
-284,789	478,448	-0,033	0,053
-283,774	-200,000	0,018	0,101
-282,759	60,589	0,052	0,037
-281,745	561,266	-0,028	-0,050
-280,730	-109,960	-0,141	0,021
-279,716	-101,867	-0,052	-0,009
-278,701	-129,357	-0,100	-0,010
-277,686	800,000	0,025	-0,060
-276,672	-174,658	0,143	-0,003
-275,657	800,000	0,020	0,056
-274,643	-200,000	-0,018	-0,077
-273,628	73,511	-0,065	-0,049
-272,613	-200,000	-0,006	-0,052
-271,599	597,803	-0,010	-0,018
-270,584	-200,000	-0,006	0,070
-269,570	800,000	0,043	0,129
-268,555	-163,030	0,036	-0,001
-267,540	-104,577	-0,158	0,026
-266,526	-34,512	-0,058	0,023
-265,511	75,749	0,036	-0,028
-264,497	40,981	-0,028	-0,018
-263,482	-200,000	-0,001	0,051
-262,467	-200,000	0,001	0,060
-261,453	-149,164	0,121	-0,007
-260,438	-106,402	-0,050	0,008
-259,424	604,785	-0,036	0,064
-258,409	-95,601	0,081	-0,016
-257,395	800,000	0,030	-0,068
-256,380	800,000	-0,088	0,207
-255,365	-16,363	-0,039	-0,018
-254,351	725,008	0,028	-0,054
-253,336	-116,671	-0,079	0,010
-252,322	155,218	0,065	0,064
-251,307	-40,101	-0,035	-0,013
-250,292	-65,106	-0,093	0,027
-249,278	-142,717	-0,099	-0,007
-248,263	167,444	-0,082	0,084
-247,249	-200,000	0,006	0,074
-246,234	-200,000	-0,004	-0,065
-245,219	404,399	-0,006	0,009
-244,205	-106,766	-0,106	-0,017
-243,190	-61,757	0,158	0,047
-242,176	424,512	-0,061	-0,096
-241,161	-200,000	-0,014	0,168
-240,146	-52,552	-0,081	0,027
-239,132	291,634	0,047	-0,062
-238,117	-200,000	0,010	-0,040
-237,103	-200,000	-0,011	0,044
-236,088	-7,522	-0,116	0,056
-235,073	800,000	0,038	-0,095
-234,059	800,000	0,043	-0,088
-233,044	130,641	0,066	0,061
-232,030	59,984	-0,104	0,074
-231,015	-36,974	-0,102	0,039
-230,000	60,882	0,031	-0,022
-228,986	82,929	0,079	0,062
-227,971	105,359	-0,084	-0,072
-226,957	-51,947	-0,014	0,005
-225,942	786,257	0,093	-0,185
-224,927	449,135	0,022	0,036
-223,913	11,974	-0,074	0,041
-222,898	384,244	0,048	0,072
-221,884	80,677	-0,036	-0,028
-220,869	800,000	0,066	0,162
-219,855	-200,000	-0,006	0,148
-218,840	-28,921	0,090	0,037
-217,825	291,026	0,068	-0,090
-216,811	97,201	0,045	-0,038
-215,796	1,633	0,068	-0,035
-214,782	-90,024	0,026	-0,005
-213,767	-102,221	0,081	-0,014
-212,752	16,130	0,062	0,035
-211,738	188,590	-0,052	0,056
-210,723	669,233	-0,042	0,079
-209,709	90,238	0,024	-0,020
-208,694	-200,000	-0,020	-0,106
-207,679	111,655	-0,062	-0,054
-206,665	-48,186	0,119	-0,041
-205,650	388,161	0,035	0,053
-204,636	2,980	0,173	-0,090
-203,621	-76,248	0,140	-0,035
-202,606	-104,433	-0,121	-0,020
-201,592	49,471	-0,089	-0,060
-200,577	23,228	-0,113	-0,067
-199,563	153,974	0,073	0,072
-198,548	-200,000	0,000	-0,002
-197,533	29,305	-0,085	0,052
-196,519	-82,667	-0,143	-0,033
-195,504	-42,087	0,148	-0,054
-194,490	-51,132	-0,090	-0,030
-193,475	-119,635	-0,148	-0,018
-192,460	-99,859	0,181	-0,032
-191,446	-106,499	-0,019	-0,003
-190,431	-68,868	-0,029	-0,008
-189,417	-200,000	-0,015	0,073
-188,402	26,131	0,069	0,042
-187,387	614,046	-0,079	-0,143
-186,373	544,816	0,102	-0,177
-185,358	-4,453	-0,003	0,002
-184,344	-79,342	0,069	-0,017
-183,329	800,000	0,097	0,213
-182,315	-200,000	0,012	0,161
-181,300	800,000	-0,037	0,091
-180,285	-43,176	-0,039	0,014
-179,271	-64,387	-0,132	0,038
-178,256	-200,000	-0,015	0,075
-177,242	222,692	0,035	0,040
-176,227	107,189	0,103	-0,089
-175,212	115,346	-0,118	-0,104
-174,198	10,168	-0,046	0,025
-173,183	314,799	-0,050	-0,068
-172,169	38,911	-0,072	-0,046
-171,154	800,000	-0,035	0,102
-170,139	405,980	-0,023	0,034
-169,125	-36,159	0,135	-0,052
-168,110	71,885	-0,074	-0,055
-167,096	331,259	-0,060	0,084
-166,081	800,000	0,018	0,050
-165,066	-92,744	-0,148	0,030
-164,052	-200,000	0,027	0,109
-163,037	74,724	0,116	-0,088
-162,023	-200,000	-0,039	0,179
-161,008	-96,312	-0,061	0,012
-159,993	65,961	0,041	0,030
-158,979	-200,000	-0,001	0,063
-157,964	-90,693	-0,022	-0,005
-156,950	-200,000	0,000	-0,064
-155,935	-200,000	-0,006	0,070
-154,920	575,072	-0,038	0,067
-153,906	800,000	-0,037	0,078
-152,891	118,280	-0,103	0,092
-151,877	-32,908	-0,009	-0,003
-150,862	-200,000	0,012	-0,123
-149,847	775,714	0,063	-0,125
-148,833	16,762	0,134	-0,076
-147,818	321,108	-0,085	-0,116
-146,804	-57,839	-0,052	-0,016
-145,789	-116,400	-0,040	0,005
-144,775	158,589	-0,065	0,065
-143,760	364,279	-0,035	0,050
-142,745	-5,668	0,054	0,027
-141,731	-151,699	-0,048	0,002
-140,716	-28,554	0,057	0,023
-139,702	800,000	0,015	0,041
-138,687	366,541	0,012	-0,018
-137,672	86,146	-0,028	0,022
-136,658	-101,832	-0,050	-0,009
-135,643	800,000	0,020	-0,040
-134,629	232,430	-0,033	0,039
-133,614	-200,000	-0,013	0,052
-132,599	155,290	-0,032	0,032
-131,585	800,000	0,035	-0,080
-130,570	-30,777	-0,061	-0,025
-129,556	800,000	0,037	0,083
-128,541	59,258	-0,116	-0,082
-127,526	663,153	-0,017	-0,032
-126,512	538,552	0,043	0,074
-125,497	-200,000	0,013	0,136
-124,483	381,086	0,088	0,130
-123,468	-129,534	-0,019	0,002
-122,453	-183,315	-0,074	0,001
-121,439	10,477	-0,063	-0,035
-120,424	36,724	-0,041	-0,026
-119,410	-200,000	-0,021	0,101
-118,395	46,913	-0,021	-0,014
-117,380	-200,000	0,004	-0,049
-116,366	-79,298	-0,086	-0,021
-115,351	365,033	0,017	-0,025
-114,337	117,195	-0,094	-0,083
-113,322	15,804	-0,063	0,036
-112,307	58,554	0,083	0,058
-111,293	17,342	0,137	-0,078
-110,278	-101,071	-0,078	-0,014
-109,264	-62,430	0,026	-0,008
-108,249	109,011	0,065	-0,056
-107,234	73,041	0,088	-0,066
-106,220	-200,000	-0,026	-0,158
-105,205	104,202	0,032	-0,027
-104,191	-129,648	-0,030	0,003
-103,176	-200,000	-0,001	0,095
-102,162	-200,000	0,003	-0,126
-101,147	12,481	-0,038	-0,021
-100,132	800,000	0,019	0,051
-99,118	29,083	-0,033	-0,020
-98,103	-200,000	0,010	0,057
-97,089	-200,000	-0,007	-0,029
-96,074	254,206	0,074	0,091
-95,059	-200,000	-0,001	-0,061
-94,045	-200,000	0,044	-0,145
-93,030	301,651	0,071	0,094
-92,016	45,238	-0,120	0,079
-91,001	47,611	0,047	0,032
-89,986	563,115	-0,017	-0,029
-88,972	45,924	0,019	0,013
-87,957	-112,366	0,077	0,011
-86,943	-110,705	0,057	0,008
-85,928	681,435	-0,029	-0,054
-84,913	-143,095	-0,098	-0,007
-83,899	-43,005	0,033	-0,012
-82,884	800,000	-0,040	0,102
-81,870	66,413	0,066	-0,048
-80,855	161,092	0,071	0,072
-79,840	144,716	-0,040	0,038
-78,826	198,183	-0,065	0,071
-77,811	-51,279	0,085	0,028
-76,797	-200,000	-0,009	-0,074
-75,782	349,209	0,030	0,042
-74,767	78,174	0,054	0,041
-73,753	28,066	-0,120	-0,073
-72,738	5,847	0,159	-0,084
-71,724	-67,748	0,030	-0,008
-70,709	800,000	0,026	-0,058
-69,694	23,423	-0,081	-0,048
-68,680	-129,434	0,173	-0,017
-67,665	-144,538	0,182	0,012
-66,651	424,396	0,091	-0,141
-65,636	67,749	-0,145	-0,106
-64,622	462,306	-0,029	0,047
-63,607	664,805	-0,076	-0,142
-62,592	-97,816	-0,112	-0,021
-61,578	800,000	0,050	-0,108
-60,563	800,000	-0,041	0,120
-59,549	800,000	-0,036	-0,095
-58,534	6,902	-1,888	-1,007
-57,519	-200,000	-0,215	-1,024
-56,505	-200,000	-1,260	-4,928
-55,490	15,541	0,884	0,497
-54,476	800,000	5,256	12,231
-53,461	-200,000	17,660	287,530
-52,446	800,000	728,770	2226,070
-51,432	536,756	1644,829	2813,723
-50,417	109,895	1635,160	1407,354
-49,403	75,819	1287,052	975,339
-48,388	31,898	1027,437	633,651
-47,373	20,138	989,095	571,241
-46,359	18,325	977,097	558,345
-45,344	15,501	972,825	546,644
-44,330	15,683	971,449	546,446
-43,315	15,134	969,646	543,617
-42,300	15,140	968,584	543,021
-41,286	15,107	967,655	542,372
-40,271	15,100	966,610	541,741
-39,257	15,143	965,703	541,349
-38,242	15,135	964,789	540,791
-37,227	15,187	963,892	540,435
-36,213	15,186	962,956	539,885
-35,198	15,152	962,111	539,279
-34,184	15,183	961,335	538,924
-33,169	15,107	960,382	538,124
-32,154	15,180	959,334	537,752
-31,140	15,186	958,506	537,285
-30,125	15,136	957,823	536,718
-29,111	15,130	957,112	536,280
-28,096	15,140	956,376	535,877
-27,082	15,157	955,845	535,613
-26,067	15,181	954,897	535,140
-25,052	15,177	954,207	534,718
-24,038	15,127	953,577	534,185
-23,023	15,135	952,812	533,761
-22,009	15,202	952,285	533,658
-20,994	15,200	951,617	533,256
-19,979	15,171	951,109	532,857
-18,965	15,198	950,481	532,570
-17,950	15,163	949,670	531,984
-16,936	15,073	949,176	531,399
-15,921	15,112	948,438	531,087
-14,906	15,055	947,592	530,412
-13,892	15,022	947,014	529,963
-12,877	14,999	946,437	529,545
-11,863	15,042	945,787	529,298
-10,848	15,037	945,291	528,981
-9,833	15,170	944,650	529,024
-8,819	15,071	944,357	528,526
-7,804	15,105	943,514	528,142
-6,790	15,049	942,790	527,536
-5,775	15,099	942,368	527,437
-4,760	15,061	941,741	526,947
-3,746	15,022	941,327	526,572
-2,731	14,923	940,474	525,760
-1,717	14,866	939,658	525,100
-0,702	14,878	939,057	524,784
0,313	14,694	938,625	524,752
1,327	17,987	936,247	533,745
2,342	27,227	793,188	476,636
3,356	23,739	458,655	270,258
4,371	-3,686	314,801	156,305
5,386	-7,622	296,471	143,203
6,400	-9,650	290,316	138,203
7,415	-9,891	287,937	136,821
8,429	-10,140	286,336	135,803
9,444	-10,246	285,457	135,271
10,459	-10,133	284,883	135,097
11,473	-10,268	284,170	134,617
12,488	-10,186	283,732	134,476
13,502	-10,209	283,171	134,176
14,517	-10,076	282,763	134,100
15,531	-10,121	282,282	133,816
16,546	-10,055	281,850	133,663
17,561	-10,251	281,559	133,324
18,575	-10,116	281,158	133,252
19,590	-10,390	280,868	132,840
20,604	-9,967	280,450	133,036
21,619	-10,210	280,049	132,602
22,634	-10,320	279,848	132,389
23,648	-10,171	279,447	132,330
24,663	-10,025	279,085	132,286
25,677	-10,375	279,012	131,905
26,692	-10,162	278,541	131,874
27,707	-10,143	278,475	131,849
28,721	-9,966	278,013	131,786
29,736	-10,233	277,856	131,447
30,750	-10,182	277,580	131,353
31,765	-10,144	277,266	131,229
32,780	-10,204	277,136	131,099
33,794	-10,138	276,888	131,033
34,809	-10,236	276,673	130,826
35,823	-10,114	276,293	130,750
36,838	-10,183	276,056	130,561
37,853	-10,172	275,826	130,451
38,867	-10,250	275,638	130,277
39,882	-10,162	275,336	130,205
40,896	-10,017	275,082	130,210
41,911	-10,397	274,980	129,794
42,926	-10,295	274,551	129,675
43,940	-10,206	274,364	129,658
44,955	-10,231	274,178	129,535
45,969	-10,237	273,856	129,367
46,984	-10,225	273,642	129,265
47,999	-10,514	273,434	128,886
49,013	-10,631	273,138	128,625
50,028	-10,817	272,755	128,261
51,042	-10,839	272,529	128,123
52,057	-10,890	272,341	127,975
53,071	-10,892	272,068	127,833
54,086	-10,640	271,947	127,999
55,101	-10,484	271,827	128,075
56,115	-10,539	271,767	127,985
57,130	-10,006	271,485	128,334
58,144	-9,978	271,255	128,240
59,159	-9,998	270,963	128,072
60,174	-10,054	270,717	127,892
61,188	-10,013	270,615	127,870
62,203	-10,128	270,402	127,652
63,217	-10,137	270,116	127,498
64,232	-10,166	269,988	127,400
65,247	-10,071	269,760	127,368
66,261	-9,988	269,328	127,229
67,276	-10,186	269,160	126,957
68,290	-10,502	268,932	126,548
69,305	-10,472	268,747	126,478
70,320	-10,444	268,485	126,368
71,334	-10,166	268,250	126,501
72,349	-10,111	268,130	126,482
73,363	-10,048	267,947	126,442
74,378	-10,213	267,756	126,191
75,393	-10,073	267,438	126,157
76,407	-10,259	267,407	125,962
77,422	-9,866	266,972	126,102
78,436	-10,178	266,999	125,821
79,451	-9,910	266,575	125,853
80,466	-9,997	266,318	125,642
81,480	-10,169	266,107	125,375
82,495	-10,223	265,818	125,179
83,509	-10,160	265,669	125,154
84,524	-10,093	265,475	125,112
85,539	-10,293	265,118	124,753
86,553	-10,384	265,186	124,692
87,568	-10,152	264,835	124,725
88,582	-10,350	264,740	124,491
89,597	-10,416	264,618	124,362
90,611	-10,235	264,418	124,420
91,626	-10,128	264,155	124,382
92,641	-10,029	263,858	124,319
93,655	-9,991	263,702	124,268
94,670	-9,993	263,512	124,166
95,684	-10,086	263,221	123,935
96,699	-9,966	263,056	123,953
97,714	-10,190	263,021	123,725
98,728	-10,352	262,647	123,394
99,743	-10,198	262,411	123,409
100,757	-10,332	262,146	123,154
101,772	-10,265	262,081	123,172
102,787	-10,272	261,877	123,060
103,801	-10,153	261,646	123,046
104,816	-10,071	261,526	123,051
105,830	-9,962	261,385	123,071
106,845	-10,000	261,041	122,863
107,860	-10,121	261,026	122,739
108,874	-10,103	260,752	122,615
109,889	-10,145	260,568	122,480
110,903	-9,993	260,263	122,460
111,918	-10,265	260,189	122,175
112,933	-10,001	259,887	122,255
113,947	-10,148	259,804	122,075
114,962	-10,227	259,668	121,930
115,976	-10,023	259,384	121,966
116,991	-10,120	259,181	121,774
118,006	-10,146	259,138	121,720
119,020	-10,070	258,929	121,678
120,035	-9,932	258,764	121,710
121,049	-10,022	258,594	121,541
122,064	-9,986	258,379	121,460
123,079	-10,099	258,064	121,203
124,093	-10,053	257,830	121,122
125,108	-10,225	257,592	120,850
126,122	-10,252	257,402	120,726
127,137	-10,263	257,148	120,587
128,151	-10,339	257,093	120,484
129,166	-10,291	256,943	120,445
130,181	-10,391	256,664	120,216
131,195	-10,385	256,399	120,087
132,210	-10,266	256,334	120,149
133,224	-10,144	256,309	120,232
134,239	-9,975	255,995	120,221
135,254	-9,937	255,862	120,180
136,268	-10,237	255,536	119,758
137,283	-10,375	255,366	119,547
138,297	-10,389	255,114	119,407
139,312	-10,507	254,845	119,168
140,327	-10,212	254,762	119,373
141,341	-9,828	254,689	119,659
142,356	-10,138	254,609	119,344
143,370	-9,893	254,285	119,392
144,385	-9,947	254,299	119,342
145,400	-9,823	253,987	119,291
146,414	-9,921	253,759	119,089
147,429	-9,995	253,709	118,992
148,443	-9,926	253,549	118,965
149,458	-9,823	253,243	118,900
150,473	-9,806	253,004	118,791
151,487	-9,822	252,914	118,724
152,502	-10,056	252,754	118,439
153,516	-9,880	252,438	118,431
154,531	-9,821	252,262	118,387
155,546	-9,924	252,114	118,220
156,560	-9,934	251,942	118,120
157,575	-10,041	251,652	117,883
158,589	-9,802	251,505	118,006
159,604	-10,017	251,360	117,745
160,619	-9,931	251,166	117,717
161,633	-10,030	251,131	117,606
162,648	-9,899	250,934	117,614
163,662	-9,970	250,615	117,394
164,677	-9,910	250,568	117,412
165,692	-9,910	250,424	117,335
166,706	-9,795	250,230	117,330
167,721	-9,845	250,056	117,196
168,735	-9,889	249,923	117,086
169,750	-10,075	249,816	116,869
170,764	-9,737	249,532	117,010
171,779	-9,892	249,395	116,805
172,794	-9,803	249,127	116,744
173,808	-9,938	249,025	116,573
174,823	-10,337	248,917	116,176
175,837	-10,353	248,514	115,964
176,852	-10,095	248,459	116,145
177,867	-9,883	248,399	116,283
178,881	-9,899	248,131	116,134
179,896	-9,837	248,125	116,173
180,910	-9,774	247,826	116,075
181,925	-9,942	247,670	115,852
182,940	-9,971	247,618	115,793
183,954	-9,851	247,372	115,767
184,969	-10,013	247,123	115,506
185,983	-9,692	246,859	115,639
186,998	-9,632	246,806	115,654
188,013	-9,842	246,726	115,431
189,027	-9,890	246,601	115,323
190,042	-9,962	246,373	115,146
191,056	-9,826	246,108	115,125
192,071	-9,741	245,972	115,121
193,086	-9,877	245,864	114,948
194,100	-9,766	245,595	114,904
195,115	-9,723	245,530	114,898
196,129	-9,852	245,378	114,711
197,144	-9,857	245,080	114,557
198,159	-9,895	244,816	114,392
199,173	-9,897	244,759	114,353
200,188	-10,075	244,494	114,074
201,202	-10,300	244,390	113,829
202,217	-10,305	244,021	113,643
203,232	-10,475	243,897	113,436
204,246	-10,153	243,926	113,704
205,261	-9,806	243,688	113,866
206,275	-10,773	243,357	112,910
207,290	-7,261	244,717	116,420
208,304	0,055	246,871	123,490
209,319	3,379	247,731	126,661
210,334	3,549	247,821	126,836
211,348	3,823	247,616	126,945
212,363	4,106	247,577	127,149
213,377	4,119	247,523	127,120
214,392	4,307	247,331	127,165
215,407	4,174	247,138	126,945
216,421	4,219	246,937	126,867
217,436	4,445	246,863	127,004
218,450	4,435	246,670	126,885
219,465	4,017	246,406	126,395
220,480	3,892	246,096	126,122
221,494	3,828	246,183	126,103
222,509	3,921	245,985	126,066
223,523	3,890	245,672	125,869
224,538	3,614	245,581	125,586
225,553	3,618	245,335	125,451
226,567	3,737	245,207	125,472
227,582	3,869	244,914	125,419
228,596	3,922	244,819	125,402
229,611	3,566	244,621	125,000
230,626	3,489	244,454	124,840
231,640	3,769	244,365	125,011
232,655	3,777	244,138	124,891
233,669	3,644	244,023	124,712
234,684	3,263	243,787	124,272
235,699	3,781	243,771	124,673
236,713	4,077	243,711	124,871
237,728	3,765	243,371	124,433
238,742	3,573	243,087	124,122
239,757	3,535	243,055	124,064
240,772	3,661	242,833	124,041
241,786	3,714	242,768	124,040
242,801	3,419	242,628	123,719
243,815	3,254	242,631	123,576
244,830	3,574	242,359	123,685
245,844	3,767	242,256	123,776
246,859	3,828	241,936	123,651
247,874	3,429	241,823	123,261
248,888	3,751	241,543	123,366
249,903	3,718	241,599	123,358
250,917	3,775	241,513	123,349
251,932	3,981	241,374	123,432
252,947	3,850	240,988	123,118
253,961	3,610	240,767	122,803
254,976	3,725	240,744	122,872
255,990	4,161	240,562	123,117
257,005	3,801	240,293	122,680
258,020	3,587	240,301	122,503
259,034	3,487	240,095	122,307
260,049	3,655	239,988	122,375
261,063	3,440	239,844	122,119
262,078	3,506	239,626	122,050
263,093	3,742	239,584	122,206
264,107	3,781	239,463	122,164
265,122	3,846	239,192	122,067
266,136	3,845	239,023	121,969
267,151	3,876	239,016	121,979
268,166	3,612	238,755	121,625
269,180	3,419	238,474	121,319
270,195	4,189	238,508	121,935
271,209	4,325	238,511	122,033
272,224	3,608	238,120	121,256
273,239	3,381	237,827	120,916
274,253	3,567	237,602	120,938
275,268	3,470	237,661	120,881
276,282	3,652	237,571	120,968
277,297	3,532	237,248	120,698
278,312	3,572	237,274	120,732
279,326	3,539	237,244	120,680
280,341	3,641	236,904	120,576
281,355	3,687	236,939	120,619
282,370	3,762	236,872	120,633
283,384	3,739	236,499	120,415
284,399	3,492	236,338	120,128
285,414	3,310	236,167	119,888
286,428	3,626	235,999	120,040
287,443	3,642	235,842	119,962
288,457	3,753	235,724	119,978
289,472	4,108	235,557	120,159
290,487	3,700	235,481	119,791
291,501	3,596	235,301	119,607
292,516	3,483	234,990	119,351
293,530	3,261	235,019	119,182
294,545	3,692	234,884	119,439
295,560	3,702	234,693	119,338
296,574	3,425	234,412	118,970
297,589	3,637	234,330	119,082
298,603	3,780	234,396	119,216
299,618	3,822	234,129	119,102
300,633	3,834	234,038	119,055
301,647	4,117	233,854	119,169
302,662	4,292	233,819	119,277
303,676	4,100	233,521	118,965
304,691	3,988	233,506	118,860
305,706	4,140	233,228	118,826
306,720	3,837	233,282	118,609
307,735	3,979	233,019	118,574
308,749	3,857	232,746	118,331
309,764	3,543	232,653	118,032
310,779	3,495	232,424	117,867
311,793	3,354	232,114	117,592
312,808	3,407	232,038	117,583
313,822	3,460	231,908	117,548
314,837	3,327	231,875	117,418
315,852	3,427	231,646	117,369
316,866	3,727	231,555	117,542
317,881	4,068	231,364	117,695
318,895	4,192	231,175	117,683
319,910	3,941	231,137	117,462
320,925	3,638	230,919	117,109
321,939	3,358	230,642	116,745
322,954	3,425	230,695	116,812
323,968	3,744	230,539	116,966
324,983	3,818	230,444	116,963
325,997	3,929	230,405	117,017
327,012	3,795	230,130	116,766
328,027	3,611	229,818	116,457
329,041	3,555	229,886	116,438
330,056	4,300	229,951	117,027
331,070	4,316	229,790	116,947
332,085	4,166	229,390	116,619
333,100	3,905	229,261	116,346
334,114	3,946	229,012	116,240
335,129	4,004	229,103	116,319
336,143	4,298	228,938	116,448
337,158	4,242	228,933	116,392
338,173	3,947	228,467	115,923
339,187	3,960	228,451	115,914
340,202	3,963	228,300	115,829
341,216	3,924	228,141	115,709
342,231	3,794	228,011	115,535
343,246	3,803	227,725	115,387
344,260	3,930	227,739	115,479
345,275	4,122	227,637	115,561
346,289	4,154	227,443	115,476
347,304	4,224	227,405	115,499
348,319	4,261	227,180	115,402
349,333	3,953	226,940	115,039
350,348	3,886	226,791	114,904
351,362	3,952	226,766	114,930
352,377	3,801	226,465	114,655
353,392	3,615	226,295	114,420
354,406	3,629	226,151	114,347
355,421	194,566	1323,362	1397,102
356,435	155,914	1457,035	1397,089
