DTS Sentinel unit serial number:	SN410029Multiplexer serial number:	ORYXHardware model number:	OX2-SRSoftware version number:	ORYX F/W v4,00 Oryx Data Collector v3.7.2.0data status	okinstallation	B5 Nyhavnadifferential loss correction	single-endedforward channel	channel 2reverse channel	N/Adate	2023/12/14time	17:52:13forward acquisition time	300,00reverse acquisition time	0,00gamma	499,1914k internal	0,3156k external	0,3156temperature offset calibration	1,0000default loss term (dB/km)	0,3820temperature slope calibration	1,0000multiplexer offset coefficient	1,0000multiplexer slope coefficient	1,0000fibre end	0,00T internal ref (°C)	8,31T ext. ref 1 (°C)	-7,14T ext. ref 2 (°C)	-7,19length (m)	temperature (°C)	Stokes	anti-Stokes-744,400	-32,631	0,117	-0,048
-743,385	-160,960	-0,224	0,009
-742,371	-96,435	0,270	0,052
-741,356	-124,910	-0,365	-0,041
-740,342	26,637	0,181	0,111
-739,327	-67,513	-0,375	-0,108
-738,312	5,375	0,135	0,073
-737,298	-65,625	-0,393	-0,116
-736,283	46,175	0,169	0,115
-735,269	-183,725	-0,307	0,004
-734,254	-166,582	0,064	0,002
-733,239	-13,353	-0,538	-0,256
-732,225	-175,104	0,232	-0,005
-731,210	800,000	-0,041	0,103
-730,196	-47,494	-0,031	0,011
-729,181	-182,234	-0,089	-0,001
-728,167	800,000	0,024	-0,055
-727,152	-162,335	-0,153	0,005
-726,137	353,762	-0,050	0,074
-725,123	-200,000	0,038	-0,128
-724,108	-200,000	0,007	-0,103
-723,094	800,000	-0,034	-0,076
-722,079	-200,000	0,005	-0,139
-721,064	-68,585	0,062	-0,018
-720,050	17,952	-0,072	0,042
-719,035	800,000	-0,032	0,105
-718,021	-200,000	0,016	-0,086
-717,006	118,595	0,033	-0,030
-715,991	16,705	-0,128	-0,074
-714,977	-200,000	-0,000	-0,108
-713,962	45,246	-0,097	-0,066
-712,948	-200,000	-0,001	-0,052
-711,933	161,240	-0,176	-0,181
-710,918	-52,810	0,122	0,041
-709,904	-84,002	0,192	-0,045
-708,889	218,136	-0,085	-0,101
-707,875	117,765	-0,080	-0,073
-706,860	-11,642	-0,105	0,051
-705,845	13,987	-0,063	0,036
-704,831	131,719	-0,095	0,090
-703,816	799,160	-0,044	0,091
-702,802	132,421	-0,111	-0,105
-701,787	-200,000	-0,009	0,062
-700,772	-200,000	-0,008	0,038
-699,758	-200,000	0,090	0,000
-698,743	228,910	-0,039	0,048
-697,729	-200,000	0,140	0,000
-696,714	-200,000	0,017	0,089
-695,699	38,562	-0,112	0,073
-694,685	-35,181	-0,126	0,050
-693,670	-138,042	-0,132	-0,011
-692,656	800,000	-0,063	0,191
-691,641	191,380	0,067	0,074
-690,627	-200,000	0,030	0,142
-689,612	-200,000	0,006	0,024
-688,597	-111,895	0,043	-0,006
-687,583	396,602	0,052	-0,081
-686,568	800,000	-0,026	-0,057
-685,554	-118,782	0,085	-0,011
-684,539	2,939	-0,060	-0,032
-683,524	-111,041	0,078	-0,012
-682,510	-106,669	-0,052	0,008
-681,495	800,000	-0,010	-0,025
-680,481	-5,070	-0,162	0,082
-679,466	379,885	-0,074	-0,112
-678,451	800,000	-0,055	-0,146
-677,437	800,000	-0,030	-0,094
-676,422	-200,000	0,008	0,125
-675,408	-41,266	0,170	-0,064
-674,393	221,731	0,034	-0,040
-673,378	800,000	0,015	-0,045
-672,364	-200,000	-0,018	-0,158
-671,349	-110,062	0,105	-0,016
-670,335	0,663	0,181	0,095
-669,320	800,000	-0,014	0,035
-668,305	-88,820	-0,128	0,028
-667,291	-200,000	0,002	0,086
-666,276	-24,384	-0,046	-0,020
-665,262	-33,377	-0,073	-0,029
-664,247	-69,834	0,037	-0,010
-663,232	160,130	-0,017	0,017
-662,218	-171,293	0,157	-0,004
-661,203	-108,230	-0,165	-0,026
-660,189	-200,000	0,002	0,033
-659,174	-113,051	0,065	-0,009
-658,159	372,865	-0,014	0,021
-657,145	478,226	0,066	0,111
-656,130	-67,757	0,121	-0,035
-655,116	-138,790	-0,026	-0,002
-654,101	-200,000	-0,008	0,049
-653,086	553,332	-0,031	0,054
-652,072	-200,000	0,001	-0,076
-651,057	-102,539	-0,192	-0,033
-650,043	185,036	-0,110	-0,120
-649,028	-56,678	0,231	-0,075
-648,014	677,274	-0,046	0,088
-646,999	548,263	0,100	0,176
-645,984	-148,725	0,027	0,002
-644,970	-200,000	0,005	0,108
-643,955	-200,000	0,037	0,124
-642,941	2,221	-0,186	-0,098
-641,926	-39,179	-0,081	-0,031
-640,911	-87,662	0,039	0,009
-639,897	-58,128	0,100	-0,032
-638,882	-200,000	-0,034	-0,111
-637,868	413,698	-0,052	0,082
-636,853	106,592	-0,102	-0,089
-635,838	-200,000	-0,015	-0,101
-634,824	52,781	-0,124	-0,087
-633,809	-177,374	0,013	-0,000
-632,795	800,000	-0,015	-0,043
-631,780	800,000	-0,018	0,057
-630,765	175,436	0,102	0,109
-629,751	-107,215	-0,022	-0,003
-628,736	59,571	-0,063	-0,046
-627,722	-200,000	-0,005	0,024
-626,707	509,229	-0,086	-0,147
-625,692	-200,000	0,003	0,048
-624,678	201,986	-0,084	0,095
-623,663	-57,844	-0,083	0,027
-622,649	-192,815	-0,149	0,001
-621,634	-200,000	-0,013	0,075
-620,619	-139,179	-0,163	0,013
-619,605	800,000	-0,023	-0,055
-618,590	-40,012	0,121	0,046
-617,576	-200,000	-0,003	0,014
-616,561	57,837	0,101	-0,073
-615,546	145,014	0,043	-0,043
-614,532	471,119	-0,021	-0,035
-613,517	-200,000	-0,036	-0,145
-612,503	329,550	-0,059	0,084
-611,488	326,649	-0,046	0,065
-610,474	-200,000	-0,026	0,096
-609,459	360,114	-0,069	-0,102
-608,444	-200,000	-0,031	-0,117
-607,430	800,000	-0,002	-0,005
-606,415	340,647	-0,049	-0,070
-605,401	-200,000	-0,001	-0,096
-604,386	-83,437	0,143	0,033
-603,371	-14,594	-0,044	-0,021
-602,357	800,000	0,013	-0,043
-601,342	-55,806	0,085	-0,028
-600,328	-139,885	-0,103	0,008
-599,313	112,021	-0,088	-0,078
-598,298	145,923	0,061	-0,060
-597,284	-200,000	0,002	0,114
-596,269	-71,153	0,113	0,031
-595,255	-200,000	-0,008	0,056
-594,240	60,377	-0,074	-0,053
-593,225	49,583	-0,033	-0,023
-592,211	-140,089	0,097	-0,007
-591,196	-41,730	-0,075	-0,028
-590,182	-200,000	0,002	0,011
-589,167	-200,000	0,010	-0,065
-588,152	356,495	-0,058	-0,085
-587,138	-200,000	-0,013	0,086
-586,123	800,000	-0,029	-0,080
-585,109	354,589	0,047	-0,069
-584,094	180,492	0,073	-0,079
-583,079	46,426	-0,015	-0,010
-582,065	-128,541	0,134	-0,014
-581,050	194,722	0,108	-0,121
-580,036	-200,000	-0,027	0,118
-579,021	220,778	-0,102	-0,120
-578,006	669,001	-0,018	-0,034
-576,992	-144,506	0,091	-0,006
-575,977	-44,368	-0,096	-0,035
-574,963	-200,000	0,013	0,115
-573,948	-34,828	0,114	-0,045
-572,934	109,128	-0,080	-0,070
-571,919	-200,000	0,002	-0,075
-570,904	22,785	-0,066	0,040
-569,890	-172,865	-0,082	0,002
-568,875	-134,609	0,076	0,007
-567,861	19,788	0,023	0,014
-566,846	-200,000	0,004	0,074
-565,831	465,676	-0,023	-0,039
-564,817	136,368	-0,104	-0,099
-563,802	800,000	-0,060	-0,146
-562,788	800,000	-0,031	-0,097
-561,773	597,543	0,098	0,178
-560,758	12,221	0,109	-0,061
-559,744	635,602	-0,033	-0,062
-558,729	-200,000	0,005	-0,034
-557,715	197,264	0,094	-0,106
-556,700	-47,541	-0,248	-0,088
-555,685	-152,306	-0,023	0,001
-554,671	63,794	-0,092	0,067
-553,656	-200,000	0,024	0,088
-552,642	-59,271	0,039	-0,012
-551,627	96,187	-0,035	-0,029
-550,612	-200,000	0,004	-0,092
-549,598	-145,164	0,140	0,009
-548,583	800,000	0,057	-0,144
-547,569	85,926	0,134	-0,108
-546,554	800,000	0,042	0,087
-545,539	-187,474	0,057	-0,001
-544,525	800,000	0,008	0,025
-543,510	-181,969	-0,143	0,002
-542,496	800,000	-0,039	0,082
-541,481	800,000	-0,045	-0,120
-540,466	-200,000	-0,005	-0,042
-539,452	199,871	0,059	0,066
-538,437	390,258	-0,022	-0,034
-537,423	-200,000	0,005	0,092
-536,408	800,000	0,038	-0,079
-535,393	-60,025	0,096	0,030
-534,379	-23,993	-0,039	-0,017
-533,364	-200,000	-0,014	0,054
-532,350	77,072	-0,007	-0,005
-531,335	208,174	-0,045	0,052
-530,321	-99,823	0,075	0,014
-529,306	221,040	0,069	0,081
-528,291	2,979	-0,113	0,060
-527,277	116,252	0,111	0,100
-526,262	30,334	0,112	0,070
-525,248	-43,068	-0,049	0,018
-524,233	42,068	0,119	-0,079
-523,218	800,000	-0,037	-0,082
-522,204	51,817	-0,088	0,061
-521,189	115,827	-0,140	-0,126
-520,175	-200,000	-0,005	-0,132
-519,160	355,719	-0,085	-0,125
-518,145	-200,000	0,030	0,192
-517,131	76,856	0,064	0,050
-516,116	800,000	0,032	0,067
-515,102	35,327	0,075	-0,048
-514,087	273,345	-0,069	-0,090
-513,072	800,000	-0,050	-0,131
-512,058	-200,000	-0,006	-0,131
-511,043	-135,760	-0,039	-0,003
-510,029	50,620	-0,038	0,026
-509,014	-5,731	0,116	0,058
-507,999	21,834	0,061	0,036
-506,985	800,000	0,035	-0,080
-505,970	187,569	0,044	-0,049
-504,956	595,157	-0,121	0,219
-503,941	82,693	-0,092	0,073
-502,926	113,126	-0,044	-0,039
-501,912	-94,708	-0,020	-0,004
-500,897	-101,585	0,061	-0,011
-499,883	244,424	-0,114	-0,140
-498,868	-200,000	-0,002	-0,032
-497,853	303,933	0,084	-0,115
-496,839	-200,000	0,010	-0,080
-495,824	102,142	0,069	0,059
-494,810	-98,431	-0,022	-0,004
-493,795	-102,390	0,122	-0,021
-492,781	-200,000	0,017	-0,059
-491,766	-200,000	-0,031	-0,121
-490,751	740,287	0,004	0,008
-489,737	143,407	0,038	0,036
-488,722	800,000	0,023	-0,048
-487,708	-85,789	0,068	0,015
-486,693	-200,000	-0,011	0,069
-485,678	335,962	-0,013	0,019
-484,664	71,410	-0,095	-0,072
-483,649	24,675	0,025	-0,015
-482,635	-40,201	-0,029	0,011
-481,620	-111,027	-0,052	0,008
-480,605	800,000	-0,013	0,033
-479,591	-159,529	0,168	0,007
-478,576	79,433	0,032	0,025
-477,562	-200,000	-0,036	0,145
-476,547	-200,000	-0,004	0,104
-475,532	-22,632	-0,069	0,030
-474,518	279,100	-0,025	-0,033
-473,503	-125,589	0,141	-0,015
-472,489	191,780	0,043	-0,047
-471,474	415,296	-0,044	0,069
-470,459	42,354	0,042	0,028
-469,445	-200,000	-0,014	0,052
-468,430	-200,000	0,001	0,007
-467,416	-35,047	0,101	0,040
-466,401	269,930	-0,059	0,075
-465,386	66,659	-0,109	0,081
-464,372	-200,000	0,001	-0,010
-463,357	523,240	-0,040	0,070
-462,343	-47,357	-0,027	0,010
-461,328	-200,000	-0,009	0,129
-460,313	28,670	0,111	0,068
-459,299	-57,111	0,062	-0,020
-458,284	-92,285	0,184	0,038
-457,270	800,000	-0,065	0,154
-456,255	-200,000	-0,003	-0,025
-455,241	-28,463	-0,072	-0,030
-454,226	410,149	0,003	-0,005
-453,211	-58,830	0,164	-0,051
-452,197	800,000	-0,017	0,037
-451,182	12,004	0,121	-0,068
-450,168	-200,000	0,000	0,098
-449,153	-200,000	-0,040	-0,133
-448,138	-108,108	0,113	0,018
-447,124	800,000	-0,061	0,155
-446,109	-3,140	0,032	-0,016
-445,095	30,351	-0,074	0,046
-444,080	83,434	-0,035	0,028
-443,065	229,947	-0,040	-0,048
-442,051	-50,261	0,038	-0,013
-441,036	161,404	-0,091	0,093
-440,022	105,942	0,105	0,091
-439,007	-200,000	-0,009	0,133
-437,992	-200,000	-0,006	0,199
-436,978	-200,000	-0,030	0,097
-435,963	-200,000	-0,006	-0,023
-434,949	800,000	-0,081	-0,201
-433,934	-200,000	-0,013	-0,050
-432,919	-41,712	-0,082	0,031
-431,905	800,000	-0,032	0,066
-430,890	16,530	0,126	0,072
-429,876	377,618	0,064	0,095
-428,861	800,000	0,050	0,137
-427,846	191,800	0,071	-0,078
-426,832	-124,097	0,062	0,007
-425,817	-40,453	-0,044	0,017
-424,803	-200,000	-0,013	-0,049
-423,788	-72,006	0,083	-0,022
-422,773	-130,357	-0,117	0,011
-421,759	-83,415	0,025	-0,006
-420,744	-200,000	0,006	0,064
-419,730	-104,225	0,073	-0,012
-418,715	800,000	0,039	0,090
-417,701	-89,114	0,051	0,011
-416,686	-41,901	0,044	-0,016
-415,671	43,703	0,057	0,038
-414,657	-171,672	0,056	-0,001
-413,642	-40,341	0,082	-0,031
-412,628	-73,946	-0,192	0,050
-411,613	462,971	0,072	-0,118
-410,598	-200,000	-0,135	-0,000
-409,584	130,655	-0,016	0,015
-408,569	-200,000	0,003	0,067
-407,555	-200,000	0,011	0,050
-406,540	-200,000	-0,006	0,021
-405,525	800,000	-0,025	-0,056
-404,511	226,143	0,004	-0,005
-403,496	-187,853	-0,059	-0,001
-402,482	16,156	0,134	-0,076
-401,467	-200,000	0,010	-0,067
-400,452	62,222	-0,095	0,069
-399,438	10,146	-0,112	0,062
-398,423	70,004	-0,077	-0,058
-397,409	-22,891	-0,114	-0,050
-396,394	-104,326	-0,056	-0,009
-395,379	-200,000	0,014	0,078
-394,365	179,807	0,115	0,123
-393,350	-120,345	0,056	0,007
-392,336	228,260	0,067	-0,079
-391,321	94,057	-0,142	-0,118
-390,306	7,886	0,099	-0,054
-389,292	-200,000	0,019	-0,083
-388,277	-18,661	0,084	-0,038
-387,263	27,264	0,066	0,040
-386,248	132,366	-0,065	-0,061
-385,233	-81,224	0,100	0,024
-384,219	-200,000	-0,029	0,111
-383,204	800,000	0,029	-0,075
-382,190	-200,000	-0,061	-0,248
-381,175	335,077	-0,084	-0,119
-380,160	152,519	0,043	0,042
-379,146	-200,000	0,027	0,088
-378,131	9,447	0,055	0,030
-377,117	103,399	0,045	-0,039
-376,102	196,377	-0,070	0,077
-375,088	-102,186	-0,112	-0,019
-374,073	-200,000	0,009	0,090
-373,058	170,048	-0,043	-0,044
-372,044	-200,000	0,018	0,074
-371,029	230,062	-0,131	0,155
-370,015	800,000	0,026	0,070
-369,000	-59,130	-0,023	0,007
-367,985	800,000	0,041	-0,114
-366,971	481,195	-0,065	-0,107
-365,956	88,646	0,167	0,135
-364,942	-31,308	0,061	0,025
-363,927	198,875	-0,040	0,044
-362,912	800,000	-0,046	-0,109
-361,898	-25,965	-0,091	-0,039
-360,883	505,686	-0,045	-0,076
-359,869	-47,254	-0,048	-0,017
-358,854	800,000	0,041	0,098
-357,839	-200,000	0,001	0,051
-356,825	167,369	0,072	0,074
-355,810	-153,371	0,031	-0,002
-354,796	44,044	-0,020	0,013
-353,781	65,587	-0,067	-0,049
-352,766	800,000	-0,007	0,024
-351,752	104,975	0,177	-0,152
-350,737	-200,000	0,006	0,083
-349,723	-47,755	0,121	0,042
-348,708	796,175	-0,031	0,062
-347,693	-200,000	0,015	0,080
-346,679	501,858	0,063	-0,105
-345,664	86,894	-0,042	-0,034
-344,650	-143,338	0,090	0,006
-343,635	-162,945	0,053	-0,002
-342,620	325,917	-0,036	0,050
-341,606	800,000	0,025	0,059
-340,591	-103,353	-0,024	0,004
-339,577	268,420	-0,113	-0,144
-338,562	-74,106	-0,034	0,009
-337,548	-43,398	-0,130	0,047
-336,533	316,900	0,108	-0,149
-335,518	496,848	0,041	-0,069
-334,504	-43,355	0,062	-0,023
-333,489	539,644	-0,053	0,093
-332,475	-67,498	-0,211	-0,060
-331,460	-22,376	-0,072	-0,031
-330,445	524,742	-0,039	-0,067
-329,431	752,831	0,021	0,041
-328,416	800,000	0,030	0,060
-327,402	256,217	-0,038	-0,047
-326,387	200,904	-0,036	0,040
-325,372	50,540	0,036	-0,025
-324,358	368,205	-0,067	0,099
-323,343	-31,539	0,117	0,048
-322,329	-24,596	0,081	-0,035
-321,314	76,312	0,136	-0,104
-320,299	-200,000	-0,015	0,117
-319,285	-31,283	0,065	-0,026
-318,270	800,000	0,008	0,021
-317,256	46,697	-0,104	-0,070
-316,241	800,000	-0,027	-0,075
-315,226	-37,671	0,050	-0,019
-314,212	-21,652	0,096	0,042
-313,197	-200,000	0,028	0,090
-312,183	-73,529	0,124	-0,033
-311,168	228,445	0,012	-0,014
-310,153	79,225	-0,051	0,039
-309,139	-200,000	-0,019	0,071
-308,124	-150,346	0,063	-0,003
-307,110	232,143	-0,013	0,016
-306,095	-193,432	0,229	0,001
-305,080	-200,000	0,017	-0,081
-304,066	122,166	-0,070	-0,063
-303,051	-200,000	0,020	0,167
-302,037	-87,381	-0,048	0,010
-301,022	-184,295	0,082	0,001
-300,008	-200,000	-0,024	0,110
-298,993	800,000	0,048	0,131
-297,978	-200,000	0,022	0,095
-296,964	-4,462	-0,069	0,035
-295,949	213,926	-0,053	0,061
-294,935	-200,000	0,026	0,101
-293,920	34,378	-0,151	0,096
-292,905	349,175	-0,058	-0,083
-291,891	419,758	0,134	0,208
-290,876	-134,194	0,122	-0,011
-289,862	13,413	-0,119	-0,067
-288,847	-15,392	0,122	0,056
-287,832	-123,027	-0,126	-0,014
-286,818	248,014	-0,071	-0,087
-285,803	-200,000	0,006	0,023
-284,789	250,127	-0,014	0,017
-283,774	800,000	-0,027	0,066
-282,759	-200,000	0,014	-0,106
-281,745	-200,000	-0,020	0,080
-280,730	-77,152	-0,152	-0,038
-279,716	-74,024	-0,119	-0,031
-278,701	-200,000	0,005	0,037
-277,686	-77,080	0,068	0,017
-276,672	322,934	0,045	-0,063
-275,657	-200,000	0,004	0,033
-274,643	-84,176	0,145	-0,033
-273,628	-200,000	-0,018	0,127
-272,613	-19,353	-0,077	0,034
-271,599	41,032	0,036	-0,024
-270,584	23,494	0,177	0,105
-269,570	34,763	-0,168	0,106
-268,555	65,182	0,005	-0,004
-267,540	800,000	-0,034	-0,087
-266,526	301,394	-0,061	-0,082
-265,511	-200,000	-0,030	-0,129
-264,497	-200,000	0,001	-0,160
-263,482	-104,988	0,112	0,018
-262,467	-85,493	0,130	0,029
-261,453	-200,000	-0,006	0,060
-260,438	-3,975	-0,132	-0,066
-259,424	-6,871	0,139	0,068
-258,409	57,202	-0,224	0,158
-257,395	67,892	0,145	0,107
-256,380	-200,000	-0,022	0,103
-255,365	35,011	-0,030	-0,019
-254,351	-200,000	0,006	0,063
-253,336	800,000	-0,065	-0,146
-252,322	-109,048	-0,074	-0,011
-251,307	-153,829	-0,082	0,004
-250,292	60,025	0,157	-0,112
-249,278	-200,000	0,003	0,087
-248,263	34,449	-0,050	-0,031
-247,249	-4,808	-0,057	0,028
-246,234	-19,233	-0,031	0,014
-245,219	-127,992	0,110	0,011
-244,205	199,367	0,041	0,045
-243,190	-200,000	-0,010	-0,037
-242,176	-200,000	-0,020	0,134
-241,161	-11,474	0,054	0,026
-240,146	248,850	-0,022	0,028
-239,132	351,936	0,053	0,076
-238,117	-200,000	-0,017	-0,062
-237,103	-200,000	-0,007	0,075
-236,088	800,000	-0,015	-0,039
-235,073	-72,068	0,160	-0,043
-234,059	-200,000	-0,003	-0,047
-233,044	800,000	-0,048	0,138
-232,030	-3,360	-0,047	-0,024
-231,015	-161,025	-0,096	0,004
-230,000	800,000	-0,007	-0,015
-228,986	-200,000	0,008	-0,110
-227,971	87,332	-0,053	-0,042
-226,957	17,996	-0,062	0,036
-225,942	-51,051	0,059	0,020
-224,927	-200,000	0,008	-0,101
-223,913	-167,659	0,093	-0,003
-222,898	-149,907	-0,122	0,007
-221,884	-200,000	-0,015	-0,050
-220,869	-200,000	-0,002	-0,033
-219,855	-96,015	-0,211	0,040
-218,840	-116,255	0,146	0,019
-217,825	-140,273	-0,108	0,008
-216,811	800,000	-0,024	0,055
-215,796	-105,603	0,133	-0,022
-214,782	30,640	-0,120	-0,074
-213,767	16,751	0,072	0,041
-212,752	223,976	-0,010	0,011
-211,738	-200,000	0,008	0,092
-210,723	180,922	-0,064	0,068
-209,709	124,359	0,111	0,101
-208,694	-200,000	-0,020	-0,098
-207,679	-150,998	-0,042	0,002
-206,665	-91,345	-0,045	0,009
-205,650	99,802	0,151	0,126
-204,636	237,229	0,083	0,100
-203,621	308,648	-0,048	0,065
-202,606	185,312	-0,050	-0,054
-201,592	140,257	-0,098	-0,094
-200,577	135,689	-0,054	0,051
-199,563	800,000	-0,049	0,125
-198,548	800,000	0,034	-0,078
-197,533	800,000	0,018	-0,048
-196,519	-13,689	-0,152	0,071
-195,504	-31,134	0,062	-0,025
-194,490	317,480	0,077	-0,105
-193,475	-29,384	0,060	-0,025
-192,460	63,178	0,086	0,062
-191,446	-200,000	0,015	0,074
-190,431	277,653	0,032	-0,041
-189,417	800,000	0,025	0,055
-188,402	-200,000	0,006	-0,049
-187,387	-200,000	-0,022	-0,095
-186,373	-200,000	0,005	0,120
-185,358	800,000	-0,023	-0,057
-184,344	-118,322	0,134	0,017
-183,329	109,349	0,037	0,032
-182,315	-68,345	0,061	-0,017
-181,300	163,167	-0,084	-0,085
-180,285	198,579	-0,072	-0,079
-179,271	-59,934	-0,106	0,032
-178,256	-18,637	-0,071	-0,032
-177,242	60,984	0,127	-0,091
-176,227	800,000	-0,042	0,091
-175,212	-50,905	-0,085	-0,029
-174,198	454,406	-0,032	-0,051
-173,183	-200,000	0,008	-0,079
-172,169	-22,234	-0,032	-0,014
-171,154	40,764	0,035	0,023
-170,139	-200,000	0,043	0,151
-169,125	257,324	-0,077	-0,095
-168,110	172,160	-0,108	-0,113
-167,096	177,152	0,087	-0,091
-166,081	-191,479	-0,076	0,001
-165,066	-200,000	0,043	-0,203
-164,052	800,000	-0,058	-0,136
-163,037	800,000	0,014	-0,044
-162,023	200,648	-0,047	-0,052
-161,008	-200,000	-0,005	-0,062
-159,993	327,843	0,044	-0,061
-158,979	-200,000	0,015	0,098
-157,964	-33,528	-0,117	-0,046
-156,950	330,425	0,035	0,048
-155,935	99,053	0,077	-0,064
-154,920	751,758	0,052	-0,102
-153,906	-169,150	0,058	-0,002
-152,891	145,116	-0,023	-0,022
-151,877	-116,121	-0,187	-0,025
-150,862	800,000	0,011	-0,032
-149,847	800,000	0,023	-0,048
-148,833	-200,000	-0,016	0,072
-147,818	215,595	0,087	0,100
-146,804	-14,369	0,066	-0,030
-145,789	-124,272	-0,097	-0,011
-144,775	561,852	-0,034	-0,059
-143,760	536,266	-0,057	-0,098
-142,745	-200,000	-0,001	-0,091
-141,731	-23,840	0,124	0,053
-140,716	-9,844	0,101	0,048
-139,702	166,127	0,021	-0,021
-138,687	58,565	0,091	0,064
-137,672	727,547	0,027	-0,052
-136,658	800,000	-0,040	-0,103
-135,643	144,836	0,050	-0,048
-134,629	-200,000	-0,027	-0,152
-133,614	291,209	0,056	0,073
-132,599	-200,000	0,033	0,107
-131,585	363,506	0,055	0,080
-130,570	66,114	0,056	-0,041
-129,556	-119,625	-0,104	-0,013
-128,541	-109,392	0,135	0,020
-127,526	800,000	-0,070	-0,163
-126,512	77,523	0,104	0,080
-125,497	-200,000	-0,020	0,067
-124,483	-200,000	-0,023	-0,084
-123,468	80,883	-0,063	0,049
-122,453	409,102	-0,023	-0,034
-121,439	74,646	-0,028	0,021
-120,424	380,374	-0,067	-0,099
-119,410	70,425	-0,069	0,051
-118,395	-7,988	0,167	0,081
-117,380	3,779	-0,048	-0,025
-116,366	800,000	0,022	-0,063
-115,351	-21,421	-0,078	-0,034
-114,337	303,250	-0,032	0,043
-113,322	82,157	0,078	0,061
-112,307	-173,054	0,200	-0,004
-111,293	800,000	0,002	-0,006
-110,278	800,000	-0,029	0,090
-109,264	573,319	0,062	0,109
-108,249	-200,000	0,018	-0,116
-107,234	-200,000	-0,011	-0,044
-106,220	-4,711	-0,127	-0,063
-105,205	46,456	-0,065	-0,043
-104,191	323,460	0,044	0,061
-103,176	800,000	0,029	-0,059
-102,162	-14,693	-0,073	-0,033
-101,147	-93,183	-0,039	0,008
-100,132	800,000	-0,008	-0,019
-99,118	200,328	0,083	0,092
-98,103	-200,000	0,036	-0,308
-97,089	592,230	-0,034	0,060
-96,074	-200,000	0,002	0,048
-95,059	139,335	-0,113	-0,107
-94,045	251,380	0,075	-0,092
-93,030	410,745	-0,076	-0,116
-92,016	2,394	0,108	0,056
-91,001	-200,000	-0,019	-0,116
-89,986	-22,294	0,169	-0,073
-88,972	177,504	0,018	0,018
-87,957	-200,000	0,031	0,183
-86,943	-85,982	-0,091	0,020
-85,928	26,042	-0,061	-0,036
-84,913	-200,000	0,024	-0,119
-83,899	800,000	-0,034	0,094
-82,884	-64,811	0,146	0,042
-81,870	-43,489	-0,107	-0,039
-80,855	-34,243	0,175	-0,069
-79,840	-21,761	-0,111	-0,048
-78,826	793,073	0,082	-0,164
-77,811	-200,000	0,022	-0,069
-76,797	-30,327	-0,091	0,037
-75,782	-46,758	-0,065	0,023
-74,767	32,763	0,094	0,059
-73,753	330,412	-0,086	-0,120
-72,738	-106,956	-0,018	0,003
-71,724	337,047	-0,026	-0,036
-70,709	800,000	0,010	-0,024
-69,694	402,575	0,068	-0,103
-68,680	-131,632	0,156	-0,015
-67,665	180,980	0,123	0,130
-66,651	-30,199	0,124	0,050
-65,636	-188,173	0,095	0,001
-64,622	500,853	0,069	-0,114
-63,607	-200,000	-0,003	0,010
-62,592	5,552	0,035	0,019
-61,578	-200,000	-0,012	0,154
-60,563	79,234	-0,052	0,040
-59,549	-200,000	-0,017	0,067
-58,534	82,230	-2,534	-1,972
-57,519	75,887	0,366	-0,278
-56,505	-200,000	-1,679	-5,389
-55,490	438,457	1,249	1,963
-54,476	800,000	5,185	11,166
-53,461	-200,000	22,064	345,717
-52,446	800,000	761,614	2306,413
-51,432	516,235	1651,395	2781,250
-50,417	102,011	1615,293	1353,278
-49,403	71,369	1270,805	945,802
-48,388	24,576	1020,800	604,984
-47,373	18,982	987,071	566,487
-46,359	13,099	974,288	539,835
-45,344	8,987	971,004	524,493
-44,330	9,449	968,985	524,895
-43,315	8,415	967,204	520,523
-42,300	8,414	965,831	519,759
-41,286	8,325	965,011	519,009
-40,271	8,337	964,048	518,508
-39,257	8,326	963,181	517,984
-38,242	8,314	962,407	517,510
-37,227	8,367	961,305	517,067
-36,213	8,339	960,633	516,597
-35,198	8,304	959,705	515,964
-34,184	8,387	958,900	515,781
-33,169	8,361	957,950	515,162
-32,154	8,412	956,906	514,748
-31,140	8,330	956,415	514,195
-30,125	8,405	955,560	513,958
-29,111	8,366	954,626	513,311
-28,096	8,387	954,002	513,023
-27,082	8,418	953,229	512,688
-26,067	8,380	952,421	512,107
-25,052	8,297	951,888	511,534
-24,038	8,321	951,077	511,157
-23,023	8,250	950,606	510,653
-22,009	8,359	949,846	510,576
-20,994	8,389	949,107	510,255
-19,979	8,373	948,734	509,983
-18,965	8,337	947,944	509,422
-17,950	8,344	947,460	509,163
-16,936	8,316	946,634	508,609
-15,921	8,320	945,881	508,199
-14,906	8,209	945,413	507,571
-13,892	8,269	944,734	507,380
-12,877	8,220	944,105	506,863
-11,863	8,192	943,395	506,374
-10,848	8,241	942,841	506,213
-9,833	8,287	942,568	506,191
-8,819	8,235	941,733	505,558
-7,804	8,202	941,014	505,046
-6,790	8,205	940,344	504,676
-5,775	8,297	939,892	504,708
-4,760	8,240	939,400	504,242
-3,746	8,218	938,720	503,788
-2,731	8,052	938,078	502,894
-1,717	8,071	937,337	502,538
-0,702	8,025	936,771	502,068
0,313	7,862	936,208	502,010
1,327	11,432	933,850	511,984
2,342	20,161	781,992	451,662
3,356	15,546	448,721	252,193
4,371	-10,791	312,447	147,607
5,386	-14,530	294,976	135,561
6,400	-16,472	288,655	130,721
7,415	-17,019	285,942	128,945
8,429	-17,743	284,116	127,404
9,444	-17,863	283,278	126,900
10,459	-17,841	282,637	126,622
11,473	-17,881	282,080	126,323
12,488	-17,705	281,498	126,221
13,502	-17,594	280,980	126,085
14,517	-17,808	280,543	125,671
15,531	-17,860	280,171	125,443
16,546	-17,736	279,674	125,329
17,561	-17,887	279,316	125,012
18,575	-17,932	279,135	124,878
19,590	-17,813	278,575	124,729
20,604	-17,710	278,444	124,758
21,619	-17,744	277,850	124,449
22,634	-17,693	277,565	124,358
23,648	-17,814	277,184	124,062
24,663	-17,947	277,120	123,896
25,677	-17,828	276,792	123,851
26,692	-17,760	276,515	123,780
27,707	-17,783	276,268	123,637
28,721	-17,921	276,037	123,392
29,736	-17,938	275,662	123,198
30,750	-17,777	275,567	123,295
31,765	-17,680	275,122	123,177
32,780	-17,864	275,032	122,952
33,794	-17,789	274,696	122,862
34,809	-17,803	274,451	122,728
35,823	-17,878	274,170	122,521
36,838	-17,881	273,983	122,423
37,853	-17,851	273,729	122,327
38,867	-17,820	273,452	122,222
39,882	-17,802	273,203	122,117
40,896	-17,796	272,982	122,013
41,911	-17,853	272,819	121,876
42,926	-17,686	272,382	121,825
43,940	-17,758	272,188	121,660
44,955	-17,699	272,015	121,627
45,969	-17,996	271,941	121,307
46,984	-17,915	271,506	121,177
47,999	-17,640	271,475	121,408
49,013	-17,538	271,187	121,362
50,028	-17,628	270,996	121,183
51,042	-17,696	270,713	120,983
52,057	-17,659	270,477	120,900
53,071	-17,663	270,259	120,789
54,086	-17,751	270,102	120,627
55,101	-17,575	269,699	120,598
56,115	-17,721	269,557	120,389
57,130	-17,697	269,253	120,265
58,144	-17,865	269,043	120,006
59,159	-17,972	268,857	119,814
60,174	-17,841	268,387	119,713
61,188	-17,882	268,447	119,693
62,203	-17,628	268,190	119,800
63,217	-17,613	267,843	119,648
64,232	-17,783	267,747	119,439
65,247	-17,831	267,460	119,256
66,261	-17,745	266,983	119,112
67,276	-18,065	267,144	118,881
68,290	-17,753	266,828	119,014
69,305	-17,573	266,609	119,069
70,320	-17,449	266,183	118,981
71,334	-17,688	266,068	118,702
72,349	-17,616	265,834	118,652
73,363	-17,636	265,522	118,484
74,378	-17,792	265,509	118,327
75,393	-17,743	265,227	118,235
76,407	-17,543	264,830	118,227
77,422	-17,671	264,743	118,063
78,436	-17,691	264,431	117,896
79,451	-17,687	264,358	117,856
80,466	-17,858	263,931	117,502
81,480	-17,665	263,803	117,607
82,495	-17,620	263,595	117,544
83,509	-17,719	263,422	117,368
84,524	-17,675	263,108	117,257
85,539	-17,671	262,997	117,201
86,553	-17,838	262,830	116,966
87,568	-17,717	262,511	116,923
88,582	-17,498	262,294	117,010
89,597	-17,800	262,191	116,685
90,611	-17,815	262,103	116,622
91,626	-17,690	261,753	116,567
92,641	-17,617	261,608	116,557
93,655	-17,586	261,276	116,427
94,670	-17,592	261,024	116,298
95,684	-17,686	260,894	116,147
96,699	-17,507	260,701	116,210
97,714	-17,731	260,428	115,878
98,728	-17,638	260,246	115,869
99,743	-17,653	260,016	115,743
100,757	-17,658	259,875	115,666
101,772	-17,597	259,611	115,592
102,787	-17,623	259,451	115,487
103,801	-17,710	259,233	115,304
104,816	-17,585	259,051	115,323
105,830	-17,664	258,908	115,179
106,845	-17,537	258,554	115,123
107,860	-17,601	258,394	114,986
108,874	-17,472	258,217	115,009
109,889	-17,577	258,029	114,824
110,903	-17,541	257,874	114,776
111,918	-17,533	257,583	114,643
112,933	-17,713	257,540	114,456
113,947	-17,605	257,236	114,405
114,962	-17,551	257,049	114,359
115,976	-17,742	256,941	114,133
116,991	-17,592	256,578	114,093
118,006	-17,724	256,574	113,966
119,020	-17,537	256,448	114,063
120,035	-17,637	256,153	113,835
121,049	-17,547	255,949	113,812
122,064	-17,641	255,887	113,693
123,079	-17,661	255,758	113,608
124,093	-17,680	255,317	113,385
125,108	-17,705	255,215	113,308
126,122	-17,761	254,980	113,146
127,137	-17,784	254,922	113,090
128,151	-17,629	254,502	113,027
129,166	-17,508	254,520	113,130
130,181	-17,729	254,287	112,826
131,195	-17,548	254,038	112,861
132,210	-17,547	253,860	112,772
133,224	-17,663	253,539	112,520
134,239	-17,716	253,391	112,399
135,254	-17,461	253,220	112,532
136,268	-17,707	253,095	112,255
137,283	-17,599	252,875	112,240
138,297	-17,545	252,615	112,161
139,312	-17,609	252,561	112,072
140,327	-17,588	252,263	111,947
141,341	-17,533	252,016	111,875
142,356	-17,553	251,913	111,803
143,370	-17,351	251,649	111,848
144,385	-17,341	251,465	111,764
145,400	-17,503	251,283	111,536
146,414	-17,576	250,983	111,331
147,429	-17,674	250,950	111,223
148,443	-17,656	250,716	111,124
149,458	-17,463	250,611	111,231
150,473	-17,298	250,231	111,193
151,487	-17,546	250,309	111,008
152,502	-17,638	249,979	110,773
153,516	-17,585	249,746	110,705
154,531	-17,691	249,579	110,531
155,546	-17,628	249,402	110,496
156,560	-17,505	249,167	110,486
157,575	-17,618	249,201	110,396
158,589	-17,422	248,821	110,383
159,604	-17,507	248,617	110,211
160,619	-17,506	248,409	110,109
161,633	-17,619	248,188	109,907
162,648	-17,577	248,107	109,897
163,662	-17,639	247,750	109,677
164,677	-17,516	247,896	109,835
165,692	-17,592	247,663	109,658
166,706	-17,377	247,423	109,722
167,721	-17,607	247,302	109,466
168,735	-17,576	247,131	109,407
169,750	-17,356	247,004	109,525
170,764	-17,527	246,883	109,318
171,779	-17,486	246,633	109,232
172,794	-17,757	246,626	108,993
173,808	-17,391	246,161	109,083
174,823	-17,473	246,212	109,027
175,837	-17,557	246,094	108,895
176,852	-17,343	245,724	108,900
177,867	-17,403	245,493	108,738
178,881	-17,509	245,537	108,660
179,896	-17,464	245,119	108,502
180,910	-17,440	244,963	108,444
181,925	-17,431	244,750	108,347
182,940	-17,414	244,702	108,330
183,954	-17,567	244,727	108,205
184,969	-17,398	244,430	108,204
185,983	-17,447	244,409	108,145
186,998	-17,448	244,047	107,974
188,013	-17,464	243,760	107,824
189,027	-17,313	243,750	107,934
190,042	-17,383	243,479	107,747
191,056	-17,435	243,387	107,654
192,071	-17,541	243,271	107,506
193,086	-17,271	242,990	107,594
194,100	-17,475	242,776	107,322
195,115	-17,295	242,689	107,421
196,129	-17,416	242,368	107,171
197,144	-17,544	242,225	106,993
198,159	-17,542	242,050	106,909
199,173	-17,519	241,983	106,888
200,188	-17,251	241,701	106,972
201,202	-17,314	241,530	106,835
202,217	-17,390	241,426	106,718
203,232	-17,264	241,154	106,691
204,246	-17,567	241,147	106,432
205,261	-17,026	240,812	106,714
206,275	-15,661	241,442	108,094
207,290	-11,747	242,809	111,899
208,304	-5,783	244,642	117,639
209,319	-3,175	245,504	120,191
210,334	-2,318	245,425	120,848
211,348	-1,778	245,465	121,300
212,363	-1,273	245,534	121,739
213,377	-0,886	245,477	122,018
214,392	-0,257	245,634	122,602
215,407	0,129	245,507	122,844
216,421	0,324	245,394	122,937
217,436	0,480	245,249	122,981
218,450	0,417	245,092	122,840
219,465	0,542	244,961	122,866
220,480	0,617	244,930	122,900
221,494	0,680	244,734	122,843
222,509	0,270	244,321	122,290
223,523	0,194	244,034	122,073
224,538	0,044	244,026	121,936
225,553	0,180	243,801	121,923
226,567	-0,040	243,659	121,662
227,582	-0,102	243,582	121,563
228,596	0,182	243,447	121,716
229,611	0,228	243,281	121,659
230,626	-0,014	243,193	121,408
231,640	-0,169	243,029	121,189
232,655	-0,028	242,844	121,200
233,669	-0,035	242,544	121,034
234,684	-0,196	242,448	120,845
235,699	0,035	242,261	120,928
236,713	-0,105	242,221	120,784
237,728	0,118	241,882	120,784
238,742	-0,052	241,811	120,601
239,757	0,046	241,657	120,592
240,772	-0,147	241,460	120,328
241,786	-0,254	241,403	120,203
242,801	-0,102	241,208	120,217
243,815	-0,062	241,005	120,138
244,830	-0,148	240,861	119,986
245,844	-0,136	240,667	119,888
246,859	0,024	240,553	119,949
247,874	-0,028	240,391	119,816
248,888	0,012	240,237	119,760
249,903	0,018	240,181	119,726
250,917	-0,041	239,999	119,578
251,932	0,048	239,872	119,575
252,947	0,117	239,527	119,448
253,961	-0,007	239,413	119,281
254,976	0,171	239,166	119,289
255,990	-0,100	239,179	119,069
257,005	0,115	238,963	119,122
258,020	-0,045	238,855	118,931
259,034	0,267	238,635	119,058
260,049	-0,066	238,568	118,749
261,063	0,019	238,317	118,682
262,078	0,098	238,099	118,625
263,093	0,232	237,840	118,591
264,107	0,249	237,874	118,611
265,122	-0,149	237,827	118,262
266,136	-0,061	237,686	118,251
267,151	0,171	237,387	118,275
268,166	0,046	237,281	118,113
269,180	0,099	236,981	117,995
270,195	0,117	236,875	117,946
271,209	-0,098	236,982	117,819
272,224	0,091	236,731	117,833
273,239	0,039	236,488	117,661
274,253	-0,065	236,271	117,460
275,268	0,309	236,160	117,688
276,282	0,135	235,944	117,433
277,297	0,071	235,834	117,318
278,312	0,096	235,719	117,270
279,326	0,115	235,594	117,213
280,341	-0,045	235,460	117,010
281,355	0,270	235,234	117,134
282,370	0,127	235,211	116,999
283,384	0,144	234,975	116,886
284,399	0,158	234,909	116,853
285,414	0,162	234,794	116,788
286,428	0,101	234,646	116,657
287,443	0,166	234,395	116,572
288,457	0,119	234,259	116,457
289,472	-0,046	234,179	116,279
290,487	0,149	234,035	116,349
291,501	0,270	233,753	116,292
292,516	0,118	233,615	116,095
293,530	0,489	233,423	116,277
294,545	-0,050	233,479	115,877
295,560	0,218	233,199	115,935
296,574	0,280	233,062	115,904
297,589	0,149	233,093	115,808
298,603	0,118	232,862	115,659
299,618	0,106	232,652	115,535
300,633	0,414	232,504	115,689
301,647	0,182	232,494	115,494
302,662	0,451	232,260	115,576
303,676	0,455	232,140	115,508
304,691	0,395	231,870	115,318
305,706	0,613	231,716	115,398
306,720	0,411	231,636	115,194
307,735	0,256	231,589	115,041
308,749	0,237	231,506	114,974
309,764	0,484	231,235	115,019
310,779	0,389	231,137	114,887
311,793	0,300	230,848	114,665
312,808	0,416	230,631	114,636
313,822	0,379	230,612	114,588
314,837	0,414	230,374	114,486
315,852	0,428	230,262	114,431
316,866	0,391	230,169	114,346
317,881	0,457	229,994	114,300
318,895	0,675	229,798	114,358
319,910	0,200	229,744	113,959
320,925	0,372	229,652	114,034
321,939	0,247	229,438	113,823
322,954	0,465	229,309	113,914
323,968	0,336	229,239	113,771
324,983	0,555	229,022	113,819
325,997	0,397	228,747	113,554
327,012	0,483	228,629	113,550
328,027	0,555	228,590	113,575
329,041	0,430	228,368	113,359
330,056	0,461	228,270	113,325
331,070	0,225	228,195	113,098
332,085	0,452	228,044	113,185
333,100	0,279	227,817	112,932
334,114	0,551	227,700	113,069
335,129	0,438	227,415	112,832
336,143	0,371	227,300	112,715
337,158	0,558	227,223	112,807
338,173	0,533	227,145	112,740
339,187	0,563	227,047	112,703
340,202	0,522	226,822	112,550
341,216	0,594	226,723	112,545
342,231	0,473	226,519	112,343
343,246	0,667	226,401	112,420
344,260	0,650	226,174	112,285
345,275	0,688	226,088	112,260
346,289	0,528	226,018	112,096
347,304	0,669	225,858	112,113
348,319	0,540	225,671	111,913
349,333	0,797	225,513	112,016
350,348	0,472	225,448	111,732
351,362	0,708	225,199	111,774
352,377	0,614	225,229	111,709
353,392	0,558	225,177	111,632
354,406	0,698	224,772	111,525
355,421	192,696	1312,044	1379,825
356,435	154,353	1444,379	1379,677
