DTS Sentinel unit serial number:	SN410029Multiplexer serial number:	ORYXHardware model number:	OX2-SRSoftware version number:	ORYX F/W v4,00 Oryx Data Collector v3.7.2.0data status	okinstallation	B5 Nyhavnadifferential loss correction	single-endedforward channel	channel 2reverse channel	N/Adate	2023/12/14time	02:12:13forward acquisition time	300,00reverse acquisition time	0,00gamma	499,1914k internal	0,3154k external	0,3154temperature offset calibration	1,0000default loss term (dB/km)	0,3820temperature slope calibration	1,0000multiplexer offset coefficient	1,0000multiplexer slope coefficient	1,0000fibre end	0,00T internal ref (°C)	8,60T ext. ref 1 (°C)	-7,65T ext. ref 2 (°C)	-7,69length (m)	temperature (°C)	Stokes	anti-Stokes-744,400	32,823	0,047	0,030
-743,385	-97,373	-0,370	-0,070
-742,371	-31,935	0,238	-0,098
-741,356	-114,505	-0,234	-0,033
-740,342	188,885	0,070	0,078
-739,327	-141,708	-0,337	0,025
-738,312	-85,236	0,224	0,051
-737,298	-111,960	-0,450	-0,066
-736,283	-130,001	0,190	0,019
-735,269	-47,308	-0,317	-0,113
-734,254	106,470	0,133	0,117
-733,239	-5,141	-0,539	-0,273
-732,225	-74,738	0,370	0,097
-731,210	-44,272	0,070	0,026
-730,196	-125,801	-0,030	-0,003
-729,181	-172,374	-0,191	-0,004
-728,167	-104,253	0,139	0,024
-727,152	68,636	-0,130	0,098
-726,137	-12,494	-0,102	0,049
-725,123	22,521	-0,088	0,053
-724,108	-96,888	-0,050	-0,010
-723,094	96,751	-0,053	0,045
-722,079	106,622	0,054	-0,047
-721,064	608,054	0,051	-0,094
-720,050	-121,113	-0,044	0,005
-719,035	729,507	-0,079	0,157
-718,021	56,363	0,017	0,012
-717,006	-101,492	-0,277	0,049
-715,991	-200,000	0,004	0,028
-714,977	-200,000	0,010	-0,096
-713,962	397,027	-0,035	-0,054
-712,948	-44,682	0,051	-0,019
-711,933	-52,166	-0,146	-0,050
-710,918	-200,000	-0,002	0,134
-709,904	-10,709	0,015	0,007
-708,889	107,892	0,105	-0,092
-707,875	-200,000	-0,012	0,087
-706,860	-200,000	-0,004	-0,016
-705,845	-90,589	0,041	-0,009
-704,831	297,545	0,038	0,051
-703,816	-71,020	-0,050	0,014
-702,802	-117,084	-0,066	-0,009
-701,787	176,603	-0,048	0,051
-700,772	-200,000	-0,040	0,147
-699,758	800,000	-0,062	-0,137
-698,743	800,000	-0,069	0,148
-697,729	170,812	0,096	-0,101
-696,714	-200,000	-0,023	0,076
-695,699	-73,828	0,081	-0,021
-694,685	-200,000	0,011	0,083
-693,670	661,620	-0,071	-0,135
-692,656	424,142	0,116	0,184
-691,641	-200,000	-0,022	0,096
-690,627	-200,000	0,029	0,133
-689,612	-103,210	-0,133	-0,023
-688,597	65,247	-0,012	0,009
-687,583	-113,404	-0,144	-0,021
-686,568	557,320	0,019	-0,033
-685,554	155,636	-0,122	-0,124
-684,539	300,207	0,090	0,122
-683,524	148,525	0,018	-0,018
-682,510	175,343	0,073	0,078
-681,495	261,320	-0,056	-0,072
-680,481	49,241	-0,103	0,071
-679,466	54,890	0,009	0,006
-678,451	716,200	0,070	-0,138
-677,437	94,269	-0,049	-0,041
-676,422	-118,100	0,021	-0,003
-675,408	240,870	-0,043	-0,052
-674,393	-200,000	-0,005	-0,095
-673,378	800,000	-0,033	-0,072
-672,364	91,256	0,034	-0,028
-671,349	-51,209	-0,042	-0,014
-670,335	-3,075	0,066	0,034
-669,320	-66,199	-0,039	-0,011
-668,305	90,610	0,118	-0,097
-667,291	30,874	-0,114	0,072
-666,276	232,402	0,075	0,091
-665,262	800,000	-0,032	-0,073
-664,247	525,244	0,055	-0,096
-663,232	243,067	0,050	0,061
-662,218	47,558	0,060	0,041
-661,203	243,894	-0,039	0,048
-660,189	-200,000	0,023	-0,081
-659,174	152,821	-0,104	-0,104
-658,159	-114,596	0,035	-0,005
-657,145	409,700	-0,060	0,094
-656,130	-200,000	-0,005	0,096
-655,116	207,249	-0,089	0,102
-654,101	-110,418	0,090	-0,014
-653,086	-115,216	-0,059	-0,008
-652,072	-8,988	-0,083	0,041
-651,057	578,059	-0,050	0,090
-650,043	-147,760	-0,038	0,002
-649,028	-86,581	0,113	-0,025
-648,014	-117,228	0,091	0,012
-646,999	-200,000	-0,003	-0,066
-645,984	-200,000	0,002	0,138
-644,970	98,441	-0,059	0,050
-643,955	9,893	0,142	-0,079
-642,941	-200,000	-0,022	-0,148
-641,926	-44,656	-0,097	0,035
-640,911	111,100	-0,032	0,029
-639,897	151,638	0,136	-0,136
-638,882	122,178	-0,077	0,070
-637,868	800,000	0,039	-0,091
-636,853	-80,646	-0,068	0,016
-635,838	-90,742	-0,030	0,006
-634,824	-43,781	0,074	0,027
-633,809	-171,404	-0,105	0,003
-632,795	-158,722	0,084	-0,003
-631,780	800,000	-0,055	0,161
-630,765	800,000	0,051	-0,109
-629,751	224,566	0,043	0,052
-628,736	-200,000	-0,015	0,203
-627,722	126,271	0,102	0,095
-626,707	-200,000	-0,010	-0,127
-625,692	287,982	-0,039	0,052
-624,678	-162,917	-0,105	-0,004
-623,663	-140,456	-0,034	-0,003
-622,649	-122,901	-0,033	-0,004
-621,634	185,790	-0,054	0,059
-620,619	101,192	0,024	-0,020
-619,605	-200,000	0,004	-0,051
-618,590	800,000	0,031	0,091
-617,576	-38,981	0,019	-0,007
-616,561	236,434	0,042	0,051
-615,546	-176,309	-0,120	-0,002
-614,532	-200,000	0,007	-0,035
-613,517	150,010	-0,052	0,052
-612,503	-200,000	-0,014	0,127
-611,488	210,008	0,096	0,110
-610,474	-141,631	0,107	0,008
-609,459	347,810	-0,061	0,088
-608,444	4,328	-0,099	-0,053
-607,430	-200,000	0,004	-0,035
-606,415	800,000	-0,010	-0,028
-605,401	-82,306	0,046	-0,011
-604,386	-25,278	-0,096	-0,042
-603,371	636,234	-0,046	-0,085
-602,357	800,000	-0,024	-0,062
-601,342	-84,034	-0,098	-0,023
-600,328	-53,518	-0,126	0,042
-599,313	-91,013	-0,139	0,029
-598,298	-1,265	0,108	-0,056
-597,284	-47,828	-0,057	0,020
-596,269	-200,000	0,024	-0,118
-595,255	36,549	-0,101	-0,065
-594,240	-105,000	-0,064	-0,011
-593,225	-200,000	-0,038	-0,141
-592,211	800,000	0,026	-0,054
-591,196	800,000	-0,038	0,113
-590,182	256,091	0,046	-0,057
-589,167	800,000	-0,039	-0,116
-588,152	-139,070	-0,045	0,004
-587,138	-200,000	0,023	0,107
-586,123	-86,635	0,075	0,017
-585,109	40,409	0,071	-0,047
-584,094	524,765	0,030	-0,052
-583,079	232,522	-0,035	0,042
-582,065	488,696	0,030	0,051
-581,050	454,627	-0,016	-0,027
-580,036	-54,414	-0,038	-0,013
-579,021	27,349	-0,029	-0,018
-578,006	-63,199	-0,093	-0,028
-576,992	25,869	0,071	-0,044
-575,977	-200,000	0,004	-0,131
-574,963	61,574	0,129	-0,094
-573,948	216,252	-0,078	0,091
-572,934	-109,334	-0,083	-0,013
-571,919	42,406	-0,120	-0,080
-570,904	-200,000	0,013	-0,067
-569,890	-200,000	-0,037	-0,189
-568,875	-200,000	0,005	0,089
-567,861	210,256	0,094	0,109
-566,846	-122,341	-0,181	0,021
-565,831	-138,351	0,031	0,002
-564,817	-200,000	-0,012	-0,067
-563,802	-138,683	-0,156	0,012
-562,788	-158,358	0,046	-0,002
-561,773	-114,213	-0,057	-0,008
-560,758	578,332	0,059	0,107
-559,744	-100,114	0,074	-0,013
-558,729	66,353	0,047	0,035
-557,715	733,959	0,036	-0,070
-556,700	62,821	-0,119	0,087
-555,685	53,744	-0,105	-0,074
-554,671	-200,000	0,007	-0,031
-553,656	800,000	-0,040	-0,103
-552,642	-119,846	-0,066	0,008
-551,627	-180,057	0,193	-0,003
-550,612	800,000	-0,051	-0,108
-549,598	-200,000	-0,025	-0,159
-548,583	20,022	-0,105	0,062
-547,569	-10,210	-0,094	-0,045
-546,554	-153,036	0,166	-0,008
-545,539	-51,355	0,100	0,034
-544,525	103,467	0,060	0,051
-543,510	800,000	-0,019	0,051
-542,496	-200,000	-0,008	0,059
-541,481	-200,000	0,008	0,070
-540,466	-200,000	-0,004	-0,052
-539,452	47,664	0,104	0,071
-538,437	-28,545	0,015	-0,006
-537,423	-45,620	-0,057	0,021
-536,408	15,582	-0,072	-0,041
-535,393	-200,000	0,000	-0,104
-534,379	800,000	0,015	0,038
-533,364	800,000	-0,015	0,042
-532,350	16,460	-0,123	0,071
-531,335	557,031	-0,065	-0,115
-530,321	-200,000	-0,020	0,113
-529,306	800,000	-0,033	0,104
-528,291	-34,449	-0,055	-0,022
-527,277	108,129	0,116	-0,101
-526,262	-25,765	-0,087	-0,037
-525,248	-61,277	0,145	0,044
-524,233	164,924	0,028	-0,029
-523,218	344,318	-0,071	-0,102
-522,204	88,049	-0,070	0,056
-521,189	199,049	0,051	0,058
-520,175	-200,000	-0,008	-0,055
-519,160	-82,743	-0,017	0,004
-518,145	-78,867	0,032	-0,008
-517,131	-56,771	0,122	0,039
-516,116	546,946	0,036	0,062
-515,102	187,824	-0,043	-0,047
-514,087	82,007	-0,114	0,090
-513,072	-145,549	0,090	-0,006
-512,058	547,316	0,030	-0,054
-511,043	-200,000	0,005	-0,035
-510,029	-200,000	0,024	0,089
-509,014	226,490	-0,026	0,030
-507,999	169,522	-0,027	0,028
-506,985	48,955	0,112	-0,077
-505,970	-182,291	-0,165	0,002
-504,956	-200,000	0,006	0,109
-503,941	800,000	0,027	0,065
-502,926	288,671	0,047	0,063
-501,912	49,596	0,110	0,076
-500,897	-43,242	-0,088	-0,032
-499,883	300,241	-0,041	-0,055
-498,868	345,841	-0,073	-0,106
-497,853	-128,836	0,058	-0,006
-496,839	-92,346	0,106	0,022
-495,824	-200,000	0,015	-0,064
-494,810	391,320	-0,064	0,097
-493,795	800,000	0,072	-0,175
-492,781	150,265	-0,075	0,075
-491,766	-129,478	-0,059	0,006
-490,751	800,000	0,048	-0,140
-489,737	-200,000	0,004	-0,017
-488,722	55,471	0,069	-0,049
-487,708	-83,909	-0,031	-0,007
-486,693	174,467	0,032	0,034
-485,678	-112,607	-0,083	0,012
-484,664	672,154	-0,044	0,083
-483,649	-200,000	-0,003	-0,159
-482,635	55,442	0,124	0,088
-481,620	-94,993	0,151	0,030
-480,605	-32,661	0,056	0,023
-479,591	5,184	0,085	-0,045
-478,576	-145,640	-0,168	0,011
-477,562	27,654	-0,060	0,037
-476,547	77,302	-0,115	-0,089
-475,532	252,490	-0,059	0,074
-474,518	800,000	-0,031	0,070
-473,503	39,061	0,096	-0,063
-472,489	338,808	0,113	0,161
-471,474	316,426	0,050	0,069
-470,459	287,795	0,044	-0,058
-469,445	528,368	0,039	-0,067
-468,430	11,386	-0,048	0,027
-467,416	-200,000	0,003	0,021
-466,401	696,235	0,017	0,033
-465,386	223,407	-0,090	-0,106
-464,372	560,570	0,069	0,122
-463,357	334,542	-0,057	-0,081
-462,343	239,119	0,034	0,041
-461,328	-16,680	0,067	-0,031
-460,313	-86,789	0,214	0,047
-459,299	384,862	0,013	0,020
-458,284	-200,000	-0,034	0,112
-457,270	800,000	0,023	0,059
-456,255	203,342	0,023	-0,025
-455,241	-200,000	0,022	-0,133
-454,226	-21,012	-0,094	-0,042
-453,211	-131,096	0,144	0,014
-452,197	-200,000	0,000	0,166
-451,182	-26,787	0,025	0,011
-450,168	673,755	0,046	-0,087
-449,153	800,000	-0,032	0,097
-448,138	-81,064	-0,047	0,011
-447,124	-16,544	-0,081	0,037
-446,109	800,000	0,032	0,101
-445,095	43,124	0,049	-0,033
-444,080	-98,011	0,064	-0,012
-443,065	-200,000	0,026	0,100
-442,051	429,880	-0,031	-0,049
-441,036	-200,000	0,020	0,082
-440,022	467,583	-0,037	0,060
-439,007	800,000	0,070	0,142
-437,992	-107,076	0,112	-0,018
-436,978	-66,369	0,079	0,023
-435,963	54,608	0,141	-0,099
-434,949	26,547	-0,044	-0,027
-433,934	-120,286	0,055	-0,007
-432,919	511,412	0,025	-0,043
-431,905	-73,214	0,143	0,038
-430,890	-200,000	-0,027	0,205
-429,876	45,096	0,131	-0,088
-428,861	-200,000	-0,007	-0,054
-427,846	-200,000	-0,003	-0,085
-426,832	199,582	-0,040	0,045
-425,817	-170,833	-0,141	-0,003
-424,803	274,502	0,062	-0,081
-423,788	800,000	0,039	0,122
-422,773	46,974	0,074	0,050
-421,759	800,000	0,070	0,164
-420,744	-200,000	-0,009	-0,033
-419,730	648,447	0,037	-0,069
-418,715	800,000	0,047	-0,128
-417,701	800,000	0,055	-0,143
-416,686	13,253	0,026	-0,015
-415,671	-200,000	-0,015	0,053
-414,657	224,817	0,087	0,103
-413,642	-58,381	-0,184	-0,058
-412,628	356,686	-0,015	-0,022
-411,613	800,000	0,038	0,097
-410,598	58,828	0,110	0,079
-409,584	800,000	0,041	0,110
-408,569	-20,124	-0,095	-0,042
-407,555	-200,000	0,001	-0,039
-406,540	-29,677	-0,054	-0,022
-405,525	-42,521	-0,142	-0,053
-404,511	105,522	0,021	-0,018
-403,496	-200,000	-0,011	-0,119
-402,482	116,166	0,022	0,019
-401,467	15,758	-0,079	0,045
-400,452	722,297	-0,034	0,066
-399,438	-200,000	0,045	0,207
-398,423	356,610	-0,065	0,095
-397,409	122,566	-0,047	0,043
-396,394	-117,934	-0,151	-0,019
-395,379	8,979	0,151	0,083
-394,365	-134,158	0,211	-0,019
-393,350	187,053	0,080	0,087
-392,336	28,342	0,138	0,085
-391,321	44,524	-0,120	0,080
-390,306	130,797	-0,080	0,074
-389,292	-200,000	0,010	-0,053
-388,277	-144,339	-0,128	-0,009
-387,263	-200,000	0,005	0,045
-386,248	-57,917	0,114	-0,036
-385,233	196,559	0,088	0,098
-384,219	152,442	-0,031	0,031
-383,204	506,003	-0,036	-0,061
-382,190	-200,000	0,022	0,081
-381,175	-158,443	-0,131	-0,005
-380,160	-14,930	0,053	0,025
-379,146	800,000	0,050	0,109
-378,131	-28,335	0,124	0,052
-377,117	-20,178	-0,081	-0,036
-376,102	800,000	-0,035	-0,084
-375,088	528,974	0,024	-0,042
-374,073	800,000	0,009	-0,020
-373,058	-30,304	0,070	0,029
-372,044	800,000	-0,023	-0,048
-371,029	234,738	-0,080	0,096
-370,015	-89,935	0,075	-0,016
-369,000	800,000	-0,050	-0,114
-367,985	-200,000	0,011	0,083
-366,971	-25,765	0,128	-0,055
-365,956	-92,566	0,208	-0,042
-364,942	64,250	0,034	0,025
-363,927	-88,821	0,073	0,016
-362,912	733,309	-0,068	0,133
-361,898	58,818	0,031	-0,022
-360,883	-200,000	-0,003	-0,011
-359,869	-77,209	0,084	-0,021
-358,854	15,466	0,138	-0,079
-357,839	800,000	0,037	-0,078
-356,825	800,000	0,030	0,089
-355,810	767,041	0,038	0,076
-354,796	-147,443	0,107	0,006
-353,781	-200,000	-0,003	-0,108
-352,766	-115,442	-0,156	-0,021
-351,752	206,045	-0,157	0,178
-350,737	-16,734	0,157	-0,072
-349,723	-150,155	0,014	0,001
-348,708	-24,912	-0,030	-0,013
-347,693	-72,454	0,061	0,016
-346,679	212,669	0,020	0,023
-345,664	-85,881	-0,110	0,025
-344,650	-200,000	-0,015	0,098
-343,635	88,923	0,051	-0,042
-342,620	-200,000	0,005	0,105
-341,606	800,000	-0,001	-0,003
-340,591	74,436	0,070	0,053
-339,577	292,830	-0,096	0,128
-338,562	800,000	0,041	-0,124
-337,548	447,091	-0,089	-0,143
-336,533	-200,000	-0,006	0,132
-335,518	800,000	0,052	0,124
-334,504	94,780	-0,100	0,082
-333,489	47,359	0,075	0,051
-332,475	-200,000	0,010	0,036
-331,460	125,461	0,057	0,052
-330,445	-56,145	-0,153	-0,049
-329,431	-71,015	0,196	0,053
-328,416	54,594	0,073	-0,051
-327,402	159,280	0,057	-0,058
-326,387	-200,000	0,013	-0,153
-325,372	-200,000	-0,013	-0,138
-324,358	81,480	0,062	0,049
-323,343	800,000	0,028	-0,074
-322,329	-150,785	-0,036	0,002
-321,314	214,201	-0,053	0,061
-320,299	-200,000	-0,016	-0,113
-319,285	-137,453	-0,181	-0,015
-318,270	-200,000	-0,005	-0,039
-317,256	601,293	0,066	-0,119
-316,241	-106,347	-0,118	-0,019
-315,226	-200,000	0,014	-0,063
-314,212	-14,140	0,053	-0,025
-313,197	38,967	-0,058	0,037
-312,183	239,556	0,023	0,027
-311,168	353,271	-0,010	-0,014
-310,153	189,174	-0,046	-0,050
-309,139	522,966	0,036	-0,062
-308,124	123,375	0,066	-0,060
-307,110	-74,429	0,110	-0,028
-306,095	268,611	0,027	-0,035
-305,080	364,451	-0,059	0,086
-304,066	-79,375	0,034	0,008
-303,051	-71,444	-0,182	-0,049
-302,037	-32,168	-0,088	0,036
-301,022	425,492	0,031	-0,048
-300,008	-56,876	0,050	-0,016
-298,993	-200,000	-0,004	-0,079
-297,978	-163,935	-0,130	-0,004
-296,964	-200,000	-0,011	-0,087
-295,949	93,119	-0,070	0,057
-294,935	405,319	-0,042	0,065
-293,920	175,714	-0,055	0,058
-292,905	739,481	-0,054	-0,105
-291,891	800,000	0,046	0,104
-290,876	-109,253	0,223	-0,034
-289,862	-100,101	-0,033	-0,006
-288,847	87,008	0,144	-0,115
-287,832	8,170	-0,039	0,021
-286,818	236,787	0,040	0,048
-285,803	191,142	-0,027	-0,029
-284,789	800,000	0,017	0,041
-283,774	194,604	0,039	-0,043
-282,759	-200,000	-0,011	-0,061
-281,745	317,602	-0,059	-0,081
-280,730	-46,965	0,092	-0,032
-279,716	364,229	-0,043	-0,063
-278,701	141,621	0,025	-0,024
-277,686	54,929	0,030	-0,021
-276,672	50,083	0,050	0,034
-275,657	-27,328	-0,091	0,038
-274,643	-59,258	-0,145	-0,045
-273,628	800,000	-0,054	-0,116
-272,613	-22,329	0,008	0,004
-271,599	-87,548	-0,057	0,012
-270,584	-200,000	0,011	-0,083
-269,570	-50,333	-0,061	-0,021
-268,555	-70,592	-0,027	0,007
-267,540	-200,000	-0,014	0,103
-266,526	496,108	-0,035	-0,058
-265,511	9,262	0,054	-0,030
-264,497	-200,000	-0,013	-0,054
-263,482	-75,678	0,077	0,020
-262,467	271,330	0,068	0,087
-261,453	-47,859	-0,058	-0,020
-260,438	-106,904	-0,270	0,043
-259,424	-200,000	0,026	-0,126
-258,409	57,075	-0,126	-0,089
-257,395	30,273	-0,100	0,061
-256,380	-179,043	0,148	-0,002
-255,365	550,759	0,022	-0,039
-254,351	-200,000	0,026	0,129
-253,336	-6,435	-0,095	0,047
-252,322	800,000	-0,040	-0,084
-251,307	-102,441	-0,211	0,036
-250,292	0,028	0,063	-0,032
-249,278	49,868	0,159	-0,108
-248,263	-66,517	0,049	-0,014
-247,249	304,167	-0,021	-0,029
-246,234	800,000	-0,013	0,042
-245,219	-200,000	-0,008	-0,075
-244,205	-200,000	0,003	-0,034
-243,190	288,592	-0,085	0,112
-242,176	-163,564	0,139	0,005
-241,161	185,674	-0,101	0,109
-240,146	-94,079	-0,015	-0,003
-239,132	800,000	0,040	0,090
-238,117	39,514	0,056	-0,036
-237,103	-162,300	-0,134	-0,005
-236,088	-50,553	0,013	-0,004
-235,073	-200,000	-0,001	0,036
-234,059	-200,000	-0,021	-0,088
-233,044	-83,276	-0,053	0,012
-232,030	33,350	-0,145	0,091
-231,015	17,289	-0,090	0,051
-230,000	365,784	0,051	-0,075
-228,986	110,050	0,049	0,043
-227,971	212,162	-0,060	0,069
-226,957	-200,000	-0,001	0,032
-225,942	310,207	-0,010	-0,013
-224,927	800,000	-0,011	0,028
-223,913	-200,000	-0,031	-0,138
-222,898	-17,044	0,208	-0,095
-221,884	43,107	-0,030	-0,020
-220,869	-62,512	0,121	0,036
-219,855	-200,000	-0,002	-0,061
-218,840	423,334	-0,022	0,035
-217,825	-46,282	-0,108	0,038
-216,811	-36,791	-0,049	0,019
-215,796	-200,000	0,014	-0,051
-214,782	800,000	0,035	-0,084
-213,767	546,721	-0,038	0,066
-212,752	-54,911	0,109	0,035
-211,738	169,799	-0,093	0,096
-210,723	-200,000	-0,001	-0,066
-209,709	-200,000	0,008	-0,050
-208,694	800,000	-0,068	-0,162
-207,679	180,480	0,028	0,030
-206,665	-7,015	0,078	0,038
-205,650	-200,000	-0,028	0,197
-204,636	-200,000	-0,012	0,177
-203,621	411,634	0,075	-0,115
-202,606	-73,994	0,082	0,021
-201,592	48,906	-0,108	-0,073
-200,577	-200,000	-0,019	-0,130
-199,563	144,978	0,035	0,034
-198,548	-200,000	0,008	0,089
-197,533	308,398	0,055	0,074
-196,519	-135,520	-0,104	0,009
-195,504	16,432	-0,053	-0,030
-194,490	372,387	-0,057	0,083
-193,475	304,835	-0,059	-0,080
-192,460	93,922	0,022	-0,018
-191,446	450,460	0,030	0,048
-190,431	-125,546	-0,020	0,002
-189,417	-119,552	0,149	0,018
-188,402	219,522	0,093	-0,107
-187,387	-26,767	-0,109	-0,046
-186,373	-141,163	-0,088	-0,006
-185,358	-29,554	0,081	-0,033
-184,344	-200,000	0,046	0,192
-183,329	800,000	0,048	0,106
-182,315	335,389	0,044	-0,062
-181,300	-200,000	0,032	-0,137
-180,285	-200,000	0,010	-0,051
-179,271	280,149	-0,052	-0,068
-178,256	55,509	-0,060	-0,042
-177,242	-43,900	-0,135	-0,049
-176,227	-200,000	-0,007	-0,130
-175,212	125,560	0,010	-0,009
-174,198	-200,000	0,008	-0,183
-173,183	-200,000	0,039	0,124
-172,169	210,191	-0,077	-0,087
-171,154	-57,866	-0,079	-0,025
-170,139	110,147	0,049	-0,043
-169,125	-200,000	0,000	-0,068
-168,110	-41,114	0,059	-0,022
-167,096	97,359	0,031	0,025
-166,081	-98,564	-0,196	0,036
-165,066	800,000	-0,070	0,175
-164,052	-200,000	0,032	-0,118
-163,037	491,563	0,037	0,062
-162,023	800,000	0,031	0,082
-161,008	-74,938	-0,121	-0,031
-159,993	195,286	0,019	-0,021
-158,979	5,262	-0,128	-0,068
-157,964	-101,298	-0,042	-0,007
-156,950	-136,257	-0,056	0,005
-155,935	100,571	0,042	0,035
-154,920	110,430	0,043	0,037
-153,906	392,623	0,065	0,098
-152,891	-58,366	0,098	-0,030
-151,877	-200,000	0,001	-0,005
-150,862	224,071	-0,074	-0,086
-149,847	106,549	-0,034	-0,029
-148,833	674,146	-0,041	-0,078
-147,818	-119,014	-0,046	0,006
-146,804	763,361	-0,020	-0,039
-145,789	-200,000	0,032	0,153
-144,775	-54,739	0,039	0,013
-143,760	-200,000	0,025	-0,162
-142,745	-200,000	0,012	-0,051
-141,731	-200,000	0,041	0,190
-140,716	-5,550	-0,025	0,012
-139,702	-114,375	-0,162	0,022
-138,687	-109,915	-0,090	0,014
-137,672	-78,620	0,030	0,007
-136,658	46,883	0,101	-0,068
-135,643	-200,000	-0,033	-0,138
-134,629	20,123	0,120	-0,069
-133,614	483,642	-0,081	-0,134
-132,599	15,936	0,079	0,045
-131,585	-16,152	0,128	0,058
-130,570	-200,000	0,010	0,208
-129,556	800,000	-0,021	-0,066
-128,541	217,998	0,067	-0,077
-127,526	353,776	-0,004	-0,006
-126,512	-200,000	0,020	-0,085
-125,497	102,924	-0,155	0,130
-124,483	-200,000	-0,005	-0,065
-123,468	69,771	-0,055	0,041
-122,453	407,072	-0,098	-0,150
-121,439	-35,782	0,117	-0,045
-120,424	3,592	0,051	0,027
-119,410	281,508	0,054	0,070
-118,395	99,779	0,079	0,065
-117,380	-200,000	0,000	0,082
-116,366	-45,980	0,115	0,041
-115,351	800,000	0,009	0,027
-114,337	800,000	0,013	-0,028
-113,322	-200,000	-0,039	0,203
-112,307	157,053	0,081	0,081
-111,293	129,058	0,053	-0,049
-110,278	-149,744	0,069	-0,004
-109,264	800,000	0,053	0,142
-108,249	-45,503	0,124	0,044
-107,234	324,047	-0,014	0,019
-106,220	-200,000	0,016	0,119
-105,205	128,706	0,080	0,073
-104,191	126,883	-0,069	-0,063
-103,176	109,535	0,100	-0,086
-102,162	92,651	-0,053	-0,043
-101,147	-128,021	0,049	0,005
-100,132	-44,363	-0,183	-0,066
-99,118	-36,678	-0,029	-0,011
-98,103	4,531	0,124	0,065
-97,089	-75,597	0,100	-0,025
-96,074	29,774	-0,040	-0,024
-95,059	800,000	0,053	0,156
-94,045	-200,000	-0,078	0,000
-93,030	-200,000	0,038	-0,141
-92,016	-200,000	-0,003	-0,014
-91,001	800,000	0,021	0,045
-89,986	-200,000	0,001	0,089
-88,972	31,202	0,127	0,078
-87,957	155,035	-0,060	0,060
-86,943	423,821	-0,047	-0,072
-85,928	-200,000	0,006	0,123
-84,913	19,781	-0,151	0,087
-83,899	53,803	0,054	-0,038
-82,884	44,056	-0,061	0,040
-81,870	-28,887	-0,096	0,039
-80,855	-200,000	0,013	0,068
-79,840	800,000	0,022	-0,053
-78,826	800,000	-0,055	0,143
-77,811	-78,488	-0,052	-0,013
-76,797	800,000	0,044	-0,115
-75,782	117,676	0,083	0,073
-74,767	-200,000	-0,005	0,043
-73,753	17,162	0,088	0,050
-72,738	-159,683	-0,138	0,005
-71,724	296,171	-0,024	-0,032
-70,709	50,334	-0,082	0,056
-69,694	-139,962	0,073	0,005
-68,680	800,000	-0,032	0,081
-67,665	129,858	0,092	0,085
-66,651	800,000	-0,012	-0,030
-65,636	-75,047	0,025	0,006
-64,622	117,282	-0,161	0,142
-63,607	-200,000	-0,004	-0,028
-62,592	161,579	0,103	0,104
-61,578	55,298	-0,040	-0,028
-60,563	-200,000	-0,012	-0,038
-59,549	-151,711	-0,092	0,005
-58,534	87,840	-2,482	-1,976
-57,519	106,203	0,378	-0,321
-56,505	-200,000	-1,554	-5,479
-55,490	708,706	1,058	2,018
-54,476	800,000	5,307	11,340
-53,461	-200,000	21,864	346,149
-52,446	800,000	761,187	2314,264
-51,432	519,542	1651,979	2791,155
-50,417	103,358	1616,411	1361,447
-49,403	72,892	1272,044	953,318
-48,388	25,182	1021,127	607,586
-47,373	19,225	987,740	567,996
-46,359	13,405	974,699	541,373
-45,344	9,225	971,642	525,917
-44,330	9,775	969,390	526,481
-43,315	8,718	967,834	522,150
-42,300	8,659	966,526	521,231
-41,286	8,672	965,487	520,692
-40,271	8,672	964,308	520,034
-39,257	8,587	963,857	519,493
-38,242	8,588	962,885	518,951
-37,227	8,654	962,052	518,698
-36,213	8,625	961,141	518,093
-35,198	8,586	960,508	517,604
-34,184	8,703	959,683	517,519
-33,169	8,627	958,555	516,643
-32,154	8,628	957,785	516,210
-31,140	8,638	956,818	515,703
-30,125	8,719	955,878	515,438
-29,111	8,588	955,348	514,707
-28,096	8,697	954,572	514,620
-27,082	8,654	953,771	514,030
-26,067	8,626	953,010	513,509
-25,052	8,579	952,462	513,040
-24,038	8,615	951,520	512,631
-23,023	8,606	950,882	512,236
-22,009	8,621	950,474	512,043
-20,994	8,653	949,903	511,820
-19,979	8,681	949,218	511,519
-18,965	8,630	948,598	511,001
-17,950	8,654	948,005	510,740
-16,936	8,583	947,514	510,226
-15,921	8,553	946,667	509,653
-14,906	8,603	945,828	509,341
-13,892	8,533	945,378	508,856
-12,877	8,595	944,520	508,570
-11,863	8,461	944,191	507,946
-10,848	8,453	943,694	507,633
-9,833	8,583	942,875	507,589
-8,819	8,537	942,392	507,161
-7,804	8,557	941,554	506,753
-6,790	8,482	941,144	506,274
-5,775	8,539	940,661	506,176
-4,760	8,532	940,022	505,789
-3,746	8,568	939,224	505,455
-2,731	8,364	938,503	504,397
-1,717	8,375	937,900	504,089
-0,702	8,348	937,388	503,707
0,313	8,198	936,451	503,489
1,327	11,465	934,313	512,630
2,342	19,764	782,680	451,271
3,356	14,757	449,509	251,584
4,371	-11,318	312,639	147,216
5,386	-14,880	295,034	135,310
6,400	-16,829	288,844	130,527
7,415	-17,175	286,357	129,051
8,429	-17,601	284,608	127,835
9,444	-17,579	283,660	127,419
10,459	-17,570	283,051	127,143
11,473	-17,841	282,606	126,669
12,488	-17,642	281,978	126,569
13,502	-17,540	281,463	126,424
14,517	-17,683	281,091	126,109
15,531	-17,391	280,709	126,207
16,546	-17,399	280,352	126,028
17,561	-17,513	279,865	125,689
18,575	-17,367	279,553	125,677
19,590	-17,463	279,198	125,414
20,604	-17,305	278,934	125,436
21,619	-17,222	278,521	125,318
22,634	-17,200	278,258	125,210
23,648	-17,342	277,942	124,921
24,663	-17,179	277,731	124,970
25,677	-17,523	277,549	124,550
26,692	-17,364	277,266	124,562
27,707	-17,401	276,783	124,299
28,721	-17,364	276,577	124,231
29,736	-17,358	276,203	124,058
30,750	-17,294	276,220	124,114
31,765	-17,236	275,807	123,973
32,780	-17,507	275,622	123,622
33,794	-17,322	275,349	123,663
34,809	-17,235	275,083	123,616
35,823	-17,412	274,907	123,358
36,838	-17,399	274,713	123,272
37,853	-17,439	274,263	123,022
38,867	-17,305	274,076	123,054
39,882	-17,327	273,779	122,888
40,896	-17,322	273,459	122,738
41,911	-17,314	273,360	122,690
42,926	-17,366	273,133	122,529
43,940	-17,174	272,766	122,532
44,955	-17,211	272,538	122,384
45,969	-17,386	272,479	122,184
46,984	-17,095	272,067	122,259
47,999	-17,198	271,956	122,103
49,013	-17,134	271,851	122,104
50,028	-16,978	271,417	122,043
51,042	-17,092	271,486	121,957
52,057	-17,164	271,170	121,738
53,071	-17,363	271,034	121,481
54,086	-17,230	270,716	121,451
55,101	-17,135	270,538	121,449
56,115	-17,116	270,188	121,298
57,130	-17,272	269,968	121,045
58,144	-17,399	269,686	120,791
59,159	-17,383	269,439	120,684
60,174	-17,262	269,175	120,665
61,188	-17,115	268,941	120,685
62,203	-17,462	268,704	120,249
63,217	-17,351	268,624	120,305
64,232	-17,216	268,280	120,264
65,247	-17,140	267,909	120,156
66,261	-17,374	267,846	119,903
67,276	-17,294	267,530	119,824
68,290	-17,381	267,496	119,718
69,305	-17,201	267,059	119,677
70,320	-17,440	267,190	119,507
71,334	-17,254	266,649	119,424
72,349	-17,330	266,431	119,246
73,363	-17,449	266,278	119,059
74,378	-17,320	266,003	119,042
75,393	-17,344	265,867	118,949
76,407	-17,217	265,451	118,868
77,422	-17,182	265,339	118,838
78,436	-17,218	265,050	118,666
79,451	-17,267	264,687	118,449
80,466	-17,295	264,491	118,325
81,480	-17,389	264,361	118,172
82,495	-17,367	264,193	118,106
83,509	-17,169	263,838	118,114
84,524	-17,238	263,794	118,022
85,539	-17,143	263,455	117,945
86,553	-17,350	263,464	117,753
87,568	-17,240	263,154	117,702
88,582	-17,272	262,960	117,576
89,597	-17,314	262,571	117,355
90,611	-17,084	262,499	117,518
91,626	-17,396	262,378	117,175
92,641	-17,220	262,104	117,199
93,655	-17,149	261,966	117,190
94,670	-17,170	261,593	116,994
95,684	-17,225	261,357	116,829
96,699	-17,152	261,289	116,853
97,714	-17,210	261,135	116,722
98,728	-17,207	260,966	116,639
99,743	-16,994	260,708	116,702
100,757	-17,250	260,481	116,363
101,772	-17,223	260,248	116,272
102,787	-17,216	260,078	116,192
103,801	-17,279	259,825	116,013
104,816	-17,390	259,739	115,866
105,830	-17,200	259,419	115,881
106,845	-17,305	259,259	115,707
107,860	-17,309	258,973	115,565
108,874	-17,187	258,797	115,584
109,889	-17,296	258,619	115,398
110,903	-17,382	258,307	115,173
111,918	-17,343	258,320	115,202
112,933	-17,411	258,147	115,055
113,947	-17,324	257,904	115,013
114,962	-17,200	257,644	114,996
115,976	-17,095	257,360	114,951
116,991	-17,323	257,229	114,683
118,006	-17,354	257,050	114,565
119,020	-17,261	256,925	114,581
120,035	-17,206	256,756	114,543
121,049	-17,285	256,614	114,400
122,064	-17,125	256,421	114,444
123,079	-17,209	255,985	114,166
124,093	-17,122	255,989	114,233
125,108	-17,232	255,746	114,019
126,122	-17,132	255,433	113,956
127,137	-17,205	255,343	113,843
128,151	-17,085	255,068	113,813
129,166	-17,148	254,961	113,701
130,181	-17,015	254,719	113,698
131,195	-17,156	254,503	113,470
132,210	-17,088	254,324	113,438
133,224	-17,134	254,036	113,260
134,239	-17,179	253,950	113,173
135,254	-17,154	253,651	113,051
136,268	-17,148	253,609	113,027
137,283	-17,179	253,308	112,857
138,297	-17,242	253,144	112,720
139,312	-17,287	253,011	112,611
140,327	-17,253	252,756	112,518
141,341	-17,106	252,520	112,528
142,356	-17,197	252,278	112,332
143,370	-17,307	252,215	112,200
144,385	-17,137	251,932	112,210
145,400	-17,023	251,691	112,190
146,414	-17,109	251,353	111,955
147,429	-17,058	251,529	112,067
148,443	-17,208	251,350	111,850
149,458	-16,977	250,980	111,871
150,473	-17,172	250,879	111,651
151,487	-17,055	250,621	111,626
152,502	-17,241	250,602	111,449
153,516	-17,014	250,154	111,432
154,531	-17,068	250,142	111,371
155,546	-16,899	249,969	111,428
156,560	-17,239	249,845	111,075
157,575	-17,268	249,524	110,898
158,589	-17,197	249,222	110,813
159,604	-16,909	249,012	110,953
160,619	-16,959	248,975	110,884
161,633	-17,173	248,852	110,640
162,648	-17,017	248,555	110,629
163,662	-17,065	248,488	110,549
164,677	-17,227	248,439	110,381
165,692	-17,235	248,092	110,210
166,706	-17,046	247,952	110,296
167,721	-17,123	247,714	110,116
168,735	-17,073	247,603	110,099
169,750	-17,104	247,336	109,945
170,764	-16,950	247,187	109,997
171,779	-17,096	247,164	109,855
172,794	-17,177	247,098	109,749
173,808	-17,305	246,792	109,496
174,823	-17,141	246,620	109,547
175,837	-17,053	246,462	109,540
176,852	-16,986	246,185	109,463
177,867	-17,064	246,030	109,319
178,881	-17,223	245,944	109,139
179,896	-17,188	245,704	109,051
180,910	-17,252	245,575	108,932
181,925	-17,065	245,368	108,985
182,940	-17,143	245,179	108,827
183,954	-17,010	245,011	108,853
184,969	-17,239	244,991	108,644
185,983	-17,087	244,788	108,671
186,998	-17,111	244,543	108,532
188,013	-17,107	244,400	108,463
189,027	-17,051	244,168	108,396
190,042	-17,180	243,889	108,157
191,056	-17,123	243,685	108,103
192,071	-17,003	243,475	108,099
193,086	-17,034	243,320	107,996
194,100	-17,196	243,159	107,781
195,115	-17,226	243,048	107,697
196,129	-17,241	242,903	107,612
197,144	-17,137	242,637	107,569
198,159	-17,003	242,467	107,594
199,173	-17,097	242,334	107,448
200,188	-17,190	242,086	107,253
201,202	-17,005	241,922	107,322
202,217	-17,081	241,821	107,205
203,232	-16,883	241,550	107,237
204,246	-17,012	241,328	107,024
205,261	-17,579	241,128	106,464
206,275	-16,119	241,441	107,782
207,290	-11,466	243,260	112,399
208,304	-4,879	245,380	118,806
209,319	-2,155	245,964	121,326
210,334	-0,999	246,267	122,418
211,348	-0,092	246,388	123,217
212,363	0,533	246,455	123,755
213,377	0,900	246,472	124,055
214,392	0,997	246,350	124,062
215,407	1,487	246,225	124,391
216,421	1,609	246,093	124,414
217,436	1,642	245,848	124,306
218,450	1,612	245,788	124,240
219,465	1,716	245,648	124,244
220,480	1,654	245,571	124,143
221,494	1,628	245,354	124,001
222,509	1,221	245,106	123,531
223,523	0,941	244,818	123,146
224,538	0,648	244,643	122,807
225,553	0,930	244,379	122,894
226,567	0,548	244,190	122,476
227,582	0,727	244,133	122,583
228,596	0,819	243,974	122,567
229,611	0,550	243,941	122,320
230,626	0,797	243,605	122,342
231,640	0,695	243,353	122,122
232,655	0,899	243,190	122,194
233,669	0,680	243,037	121,929
234,684	0,670	243,065	121,924
235,699	0,734	242,796	121,830
236,713	0,870	242,672	121,868
237,728	0,669	242,447	121,581
238,742	0,723	242,372	121,576
239,757	0,912	242,129	121,596
240,772	0,459	241,991	121,150
241,786	0,802	241,745	121,293
242,801	0,732	241,665	121,185
243,815	0,703	241,582	121,109
244,830	0,695	241,389	120,996
245,844	0,705	241,146	120,871
246,859	0,660	240,953	120,727
247,874	0,767	240,829	120,741
248,888	0,822	240,735	120,726
249,903	0,972	240,659	120,798
250,917	0,766	240,447	120,515
251,932	1,094	240,180	120,634
252,947	0,971	240,156	120,512
253,961	0,811	239,929	120,259
254,976	0,707	239,846	120,125
255,990	1,076	239,481	120,225
257,005	0,714	239,588	119,980
258,020	0,813	239,407	119,957
259,034	0,879	239,128	119,859
260,049	0,799	239,080	119,760
261,063	0,708	239,005	119,640
262,078	0,714	238,608	119,436
263,093	0,758	238,461	119,386
264,107	0,676	238,442	119,301
265,122	0,576	238,248	119,114
266,136	0,773	238,096	119,183
267,151	0,926	237,996	119,244
268,166	0,820	237,789	119,045
269,180	0,766	237,529	118,862
270,195	0,880	237,426	118,890
271,209	0,962	237,339	118,901
272,224	0,779	237,158	118,655
273,239	0,545	237,074	118,418
274,253	0,959	236,884	118,639
275,268	0,738	236,586	118,305
276,282	0,870	236,623	118,417
277,297	0,786	236,451	118,254
278,312	0,742	236,280	118,123
279,326	0,898	236,045	118,118
280,341	0,727	236,062	117,981
281,355	0,951	235,735	117,983
282,370	0,850	235,623	117,837
283,384	0,989	235,516	117,882
284,399	0,856	235,312	117,666
285,414	1,001	235,139	117,682
286,428	0,872	235,117	117,560
287,443	0,604	234,882	117,223
288,457	0,738	234,870	117,310
289,472	0,854	234,658	117,284
290,487	0,929	234,390	117,198
291,501	0,963	234,164	117,102
292,516	0,831	234,164	116,989
293,530	0,927	234,032	116,987
294,545	1,030	233,786	116,933
295,560	1,066	233,672	116,894
296,574	0,823	233,528	116,623
297,589	0,886	233,405	116,600
298,603	1,072	233,164	116,613
299,618	1,086	233,153	116,608
300,633	0,763	233,047	116,295
301,647	0,796	233,016	116,294
302,662	0,925	232,753	116,252
303,676	0,846	232,600	116,105
304,691	0,976	232,417	116,103
305,706	1,148	232,202	116,118
306,720	0,971	232,209	115,975
307,735	1,039	232,015	115,920
308,749	0,969	231,976	115,837
309,764	1,075	231,617	115,728
310,779	1,162	231,533	115,742
311,793	1,125	231,391	115,633
312,808	1,045	231,118	115,425
313,822	0,967	231,102	115,347
314,837	0,804	230,971	115,146
315,852	1,067	230,819	115,261
316,866	1,044	230,636	115,143
317,881	1,075	230,451	115,063
318,895	1,007	230,380	114,965
319,910	1,174	230,034	114,910
320,925	0,861	230,082	114,685
321,939	0,904	230,062	114,698
322,954	1,117	229,729	114,683
323,968	0,950	229,617	114,490
324,983	1,039	229,529	114,504
325,997	0,912	229,319	114,293
327,012	1,105	229,225	114,382
328,027	1,036	228,897	114,156
329,041	0,904	228,957	114,076
330,056	0,917	228,798	113,996
331,070	0,968	228,670	113,961
332,085	0,945	228,608	113,902
333,100	1,000	228,203	113,732
334,114	1,020	228,081	113,676
335,129	1,137	227,870	113,649
336,143	1,106	227,726	113,543
337,158	1,163	227,667	113,547
338,173	1,185	227,576	113,508
339,187	1,187	227,443	113,433
340,202	1,299	227,346	113,459
341,216	1,330	227,114	113,356
342,231	1,061	226,948	113,061
343,246	1,072	226,882	113,026
344,260	1,215	226,725	113,045
345,275	1,308	226,497	112,992
346,289	1,020	226,444	112,739
347,304	1,165	226,272	112,752
348,319	1,162	226,086	112,647
349,333	1,049	225,973	112,496
350,348	1,122	225,876	112,492
351,362	1,221	225,819	112,528
352,377	1,188	225,680	112,424
353,392	1,261	225,499	112,379
354,406	1,180	225,223	112,170
355,421	192,678	1312,050	1380,550
356,435	154,350	1444,347	1380,412
