DTS Sentinel unit serial number:	SN410029Multiplexer serial number:	ORYXHardware model number:	OX2-SRSoftware version number:	ORYX F/W v4,00 Oryx Data Collector v3.7.2.0data status	okinstallation	B5 Nyhavnadifferential loss correction	single-endedforward channel	channel 2reverse channel	N/Adate	2023/12/14time	11:37:13forward acquisition time	300,00reverse acquisition time	0,00gamma	499,1914k internal	0,3159k external	0,3159temperature offset calibration	1,0000default loss term (dB/km)	0,3820temperature slope calibration	1,0000multiplexer offset coefficient	1,0000multiplexer slope coefficient	1,0000fibre end	0,00T internal ref (°C)	7,48T ext. ref 1 (°C)	-7,95T ext. ref 2 (°C)	-7,98length (m)	temperature (°C)	Stokes	anti-Stokes-744,400	-16,162	0,138	0,064
-743,385	-178,527	-0,396	0,007
-742,371	250,681	0,117	0,146
-741,356	-57,217	-0,419	-0,135
-740,342	70,177	0,131	0,100
-739,327	87,225	-0,176	-0,143
-738,312	90,707	0,093	0,076
-737,298	-39,158	-0,273	-0,105
-736,283	-107,128	0,189	0,030
-735,269	-52,241	-0,287	-0,097
-734,254	117,200	0,224	0,203
-733,239	-45,073	-0,603	-0,220
-732,225	-20,445	0,278	0,125
-731,210	46,449	-0,051	-0,035
-730,196	125,110	0,007	-0,006
-729,181	-165,048	-0,030	-0,001
-728,167	371,997	-0,048	-0,073
-727,152	652,791	0,068	-0,129
-726,137	-187,526	-0,099	-0,001
-725,123	800,000	-0,030	-0,064
-724,108	-200,000	-0,020	-0,093
-723,094	-78,619	0,085	-0,021
-722,079	800,000	0,067	-0,166
-721,064	93,145	-0,023	-0,019
-720,050	85,471	0,059	-0,048
-719,035	97,664	-0,068	-0,057
-718,021	8,933	0,092	0,051
-717,006	-200,000	-0,016	-0,072
-715,991	-17,200	-0,118	0,055
-714,977	-54,026	0,082	-0,027
-713,962	36,567	-0,048	-0,031
-712,948	-160,194	0,075	0,003
-711,933	-200,000	0,012	0,056
-710,918	104,929	-0,098	0,085
-709,904	376,355	0,073	-0,109
-708,889	-87,551	-0,171	-0,038
-707,875	647,615	-0,072	-0,136
-706,860	-86,350	0,115	-0,026
-705,845	-200,000	0,011	0,104
-704,831	-200,000	0,010	0,195
-703,816	207,010	-0,044	0,050
-702,802	-81,428	-0,094	0,023
-701,787	355,609	-0,050	-0,073
-700,772	-200,000	-0,005	-0,017
-699,758	11,757	0,095	0,053
-698,743	800,000	0,050	-0,104
-697,729	356,871	-0,085	-0,124
-696,714	17,660	-0,061	0,036
-695,699	78,645	-0,100	0,078
-694,685	-200,000	0,034	-0,125
-693,670	-57,066	-0,174	0,056
-692,656	800,000	-0,031	-0,065
-691,641	800,000	-0,035	0,081
-690,627	-200,000	0,005	0,086
-689,612	-143,008	-0,120	-0,008
-688,597	125,846	0,068	0,063
-687,583	27,658	-0,031	-0,019
-686,568	43,060	0,048	-0,032
-685,554	-200,000	0,001	0,158
-684,539	-200,000	0,030	-0,153
-683,524	98,908	-0,080	0,068
-682,510	-43,594	-0,122	-0,045
-681,495	800,000	0,035	-0,082
-680,481	13,717	-0,079	-0,045
-679,466	-68,038	-0,122	0,035
-678,451	560,835	0,026	0,046
-677,437	253,160	-0,044	0,056
-676,422	-200,000	0,000	-0,092
-675,408	800,000	-0,041	0,084
-674,393	149,638	-0,076	-0,076
-673,378	-200,000	0,016	-0,079
-672,364	-200,000	-0,004	-0,090
-671,349	43,377	-0,047	-0,031
-670,335	800,000	0,062	0,175
-669,320	-31,738	0,142	0,058
-668,305	170,002	-0,093	0,098
-667,291	209,474	0,027	-0,031
-666,276	192,775	-0,045	0,050
-665,262	296,334	0,083	-0,112
-664,247	-200,000	0,009	-0,035
-663,232	86,137	-0,102	0,082
-662,218	257,150	-0,054	0,068
-661,203	-28,685	0,050	-0,021
-660,189	300,002	-0,030	-0,040
-659,174	358,215	-0,076	-0,112
-658,159	-19,887	-0,120	-0,054
-657,145	-2,254	-0,082	-0,042
-656,130	30,296	-0,037	-0,023
-655,116	-192,241	0,035	0,000
-654,101	248,260	0,085	0,106
-653,086	-200,000	-0,039	-0,142
-652,072	800,000	0,026	-0,067
-651,057	-92,707	-0,129	0,026
-650,043	-88,015	-0,030	0,006
-649,028	-130,971	0,130	-0,013
-648,014	-187,493	0,090	-0,001
-646,999	-200,000	-0,021	0,076
-645,984	51,549	-0,034	0,023
-644,970	-200,000	0,036	-0,173
-643,955	276,637	0,008	0,011
-642,941	-200,000	-0,004	-0,065
-641,926	259,738	0,100	-0,127
-640,911	800,000	0,048	-0,098
-639,897	244,786	0,065	0,081
-638,882	749,786	0,035	-0,070
-637,868	-96,758	-0,216	-0,041
-636,853	171,142	-0,020	-0,021
-635,838	757,045	0,052	0,104
-634,824	222,874	-0,051	0,061
-633,809	394,939	0,015	-0,022
-632,795	-200,000	-0,004	-0,097
-631,780	800,000	-0,020	-0,058
-630,765	-81,122	-0,128	0,031
-629,751	213,619	-0,026	0,031
-628,736	199,495	-0,153	0,172
-627,722	617,428	0,041	-0,076
-626,707	248,396	0,033	-0,041
-625,692	373,511	-0,042	-0,063
-624,678	-200,000	-0,009	0,032
-623,663	-9,736	-0,067	0,033
-622,649	-98,543	-0,162	0,030
-621,634	800,000	0,024	-0,066
-620,619	48,156	0,064	-0,043
-619,605	-200,000	-0,018	-0,072
-618,590	-200,000	0,022	0,138
-617,576	-200,000	0,003	-0,059
-616,561	42,213	0,035	0,024
-615,546	800,000	-0,010	-0,026
-614,532	-37,126	-0,036	0,014
-613,517	-200,000	-0,028	-0,120
-612,503	97,594	0,026	-0,022
-611,488	800,000	0,023	0,068
-610,474	468,657	-0,047	0,077
-609,459	23,885	0,019	0,012
-608,444	-63,498	-0,240	-0,072
-607,430	-67,902	0,147	-0,042
-606,415	18,419	-0,204	-0,119
-605,401	122,112	0,082	0,075
-604,386	133,616	0,072	-0,068
-603,371	145,041	-0,037	-0,036
-602,357	-57,778	0,033	0,011
-601,342	-200,000	0,011	-0,203
-600,328	-200,000	-0,032	-0,184
-599,313	800,000	-0,018	-0,038
-598,298	611,576	0,021	-0,038
-597,284	800,000	-0,015	0,035
-596,269	-200,000	0,022	0,076
-595,255	66,957	-0,021	-0,016
-594,240	-200,000	0,016	-0,096
-593,225	132,497	0,023	-0,021
-592,211	-161,787	0,058	-0,002
-591,196	408,148	-0,068	0,105
-590,182	34,785	-0,037	0,024
-589,167	-200,000	0,004	0,143
-588,152	-178,627	-0,034	0,001
-587,138	282,845	0,099	0,131
-586,123	-133,100	-0,097	0,009
-585,109	278,447	0,016	-0,021
-584,094	121,592	0,067	-0,062
-583,079	352,338	-0,046	0,066
-582,065	-200,000	-0,046	-0,164
-581,050	800,000	-0,012	-0,034
-580,036	9,498	0,062	0,034
-579,021	-69,844	-0,083	-0,023
-578,006	60,546	-0,084	0,061
-576,992	6,518	0,137	-0,074
-575,977	-138,092	-0,149	-0,012
-574,963	11,617	0,099	-0,056
-573,948	-200,000	0,010	0,216
-572,934	-61,714	0,076	0,023
-571,919	237,554	-0,077	-0,094
-570,904	121,126	-0,130	-0,118
-569,890	-106,549	0,014	0,002
-568,875	761,439	-0,021	-0,041
-567,861	36,466	0,060	-0,039
-566,846	-200,000	-0,003	-0,094
-565,831	771,137	-0,034	-0,068
-564,817	-25,924	-0,086	-0,037
-563,802	202,496	-0,063	0,071
-562,788	-120,935	-0,045	0,006
-561,773	281,442	0,125	0,164
-560,758	108,443	-0,045	-0,039
-559,744	800,000	-0,046	0,131
-558,729	-200,000	-0,008	0,053
-557,715	648,633	0,006	-0,011
-556,700	-200,000	0,007	0,185
-555,685	46,570	0,058	-0,039
-554,671	-128,045	-0,124	0,013
-553,656	800,000	0,024	0,056
-552,642	-200,000	-0,006	-0,074
-551,627	-9,565	-0,021	0,010
-550,612	800,000	0,018	0,056
-549,598	192,026	-0,015	0,016
-548,583	59,907	-0,149	0,108
-547,569	800,000	0,017	0,043
-546,554	10,977	0,069	0,039
-545,539	-88,288	0,098	0,021
-544,525	-97,928	-0,102	0,019
-543,510	-31,874	0,074	-0,030
-542,496	87,074	0,080	-0,065
-541,481	-70,006	-0,138	0,038
-540,466	146,853	-0,016	0,016
-539,452	30,284	0,153	0,095
-538,437	218,282	0,029	0,034
-537,423	-138,790	-0,020	0,002
-536,408	370,945	0,007	-0,010
-535,393	800,000	0,032	0,079
-534,379	121,774	-0,116	-0,105
-533,364	-71,907	-0,068	0,018
-532,350	-200,000	0,002	-0,112
-531,335	-200,000	0,001	0,119
-530,321	371,887	-0,034	0,051
-529,306	56,933	-0,063	0,045
-528,291	412,612	-0,032	-0,050
-527,277	-200,000	0,002	-0,094
-526,262	140,898	0,050	0,048
-525,248	696,593	0,021	0,041
-524,233	800,000	0,032	-0,082
-523,218	-117,876	-0,087	-0,011
-522,204	-200,000	-0,004	-0,077
-521,189	-5,800	0,210	-0,105
-520,175	-19,809	0,076	-0,034
-519,160	-37,563	0,077	-0,030
-518,145	-92,206	-0,036	-0,007
-517,131	-200,000	0,006	-0,069
-516,116	666,446	0,051	0,096
-515,102	800,000	-0,036	0,074
-514,087	-141,489	0,080	0,006
-513,072	-200,000	0,002	-0,074
-512,058	-43,912	-0,064	0,023
-511,043	-153,886	0,048	-0,002
-510,029	251,812	-0,022	0,027
-509,014	800,000	0,017	0,048
-507,999	-76,034	0,090	0,023
-506,985	153,310	0,114	0,114
-505,970	171,185	0,019	-0,020
-504,956	-30,851	0,017	-0,007
-503,941	-171,761	0,032	-0,001
-502,926	56,481	0,088	-0,062
-501,912	40,340	0,093	-0,061
-500,897	54,309	-0,037	0,026
-499,883	-149,956	-0,062	0,003
-498,868	88,865	0,028	-0,023
-497,853	-200,000	-0,010	-0,111
-496,839	190,044	0,059	-0,064
-495,824	800,000	0,033	0,084
-494,810	132,216	0,077	-0,072
-493,795	44,906	0,106	-0,071
-492,781	-93,096	-0,111	0,022
-491,766	-11,872	-0,036	-0,017
-490,751	-119,829	0,031	-0,004
-489,737	603,179	0,052	-0,094
-488,722	39,544	-0,057	0,037
-487,708	-32,802	0,059	0,024
-486,693	-200,000	-0,007	0,107
-485,678	595,214	-0,042	0,075
-484,664	-200,000	-0,005	0,050
-483,649	-200,000	-0,004	-0,091
-482,635	800,000	0,067	0,178
-481,620	-28,578	0,141	-0,059
-480,605	-200,000	-0,036	-0,127
-479,591	640,537	0,022	-0,042
-478,576	-161,179	-0,119	0,004
-477,562	-200,000	0,003	-0,027
-476,547	516,112	-0,064	-0,109
-475,532	-113,835	-0,082	-0,012
-474,518	-200,000	-0,008	-0,049
-473,503	-36,733	0,101	0,039
-472,489	558,206	0,026	0,047
-471,474	-71,904	0,066	-0,018
-470,459	187,046	-0,073	0,079
-469,445	36,884	0,043	-0,028
-468,430	800,000	-0,028	0,072
-467,416	362,952	-0,059	0,087
-466,401	-79,599	0,046	-0,011
-465,386	90,947	0,089	0,073
-464,372	211,600	-0,035	-0,041
-463,357	-200,000	-0,024	-0,100
-462,343	-12,271	-0,016	0,008
-461,328	58,368	-0,160	-0,114
-460,313	160,883	0,006	0,006
-459,299	-109,519	0,174	0,027
-458,284	177,764	0,068	0,072
-457,270	-200,000	-0,012	0,052
-456,255	800,000	-0,023	0,074
-455,241	130,268	0,071	-0,066
-454,226	86,337	-0,075	-0,061
-453,211	-40,985	0,014	0,005
-452,197	242,499	0,092	0,112
-451,182	-58,447	0,053	-0,017
-450,168	51,562	-0,067	0,046
-449,153	101,691	-0,071	-0,060
-448,138	67,645	0,046	-0,035
-447,124	-155,393	-0,095	-0,004
-446,109	-7,140	0,105	0,052
-445,095	-108,796	0,127	0,020
-444,080	-21,270	0,063	-0,028
-443,065	800,000	-0,024	-0,072
-442,051	-46,323	-0,128	-0,045
-441,036	800,000	-0,050	-0,136
-440,022	-200,000	0,000	-0,158
-439,007	-200,000	-0,022	-0,084
-437,992	-200,000	0,029	0,154
-436,978	-200,000	-0,033	0,120
-435,963	271,223	0,046	0,059
-434,949	310,730	-0,036	-0,049
-433,934	-38,182	-0,137	-0,053
-432,919	67,668	-0,037	-0,028
-431,905	800,000	0,028	-0,069
-430,890	-200,000	0,007	0,112
-429,876	800,000	0,014	0,045
-428,861	-55,796	-0,092	-0,030
-427,846	-200,000	0,014	-0,070
-426,832	800,000	-0,041	-0,125
-425,817	-178,684	0,091	-0,001
-424,803	173,721	-0,143	0,151
-423,788	-55,750	0,038	0,012
-422,773	505,203	-0,004	-0,006
-421,759	-200,000	0,025	0,166
-420,744	-200,000	-0,033	0,227
-419,730	673,133	-0,101	-0,192
-418,715	-200,000	-0,004	-0,070
-417,701	92,843	-0,053	-0,044
-416,686	-62,547	0,132	0,040
-415,671	800,000	0,044	0,099
-414,657	600,209	-0,101	0,184
-413,642	105,059	-0,095	-0,082
-412,628	800,000	0,033	-0,067
-411,613	376,307	0,054	-0,081
-410,598	-98,703	0,034	0,006
-409,584	73,473	-0,014	-0,011
-408,569	-200,000	0,018	0,154
-407,555	-200,000	-0,001	-0,003
-406,540	31,546	-0,029	0,018
-405,525	800,000	0,031	0,064
-404,511	-68,305	0,022	-0,006
-403,496	-200,000	0,021	0,119
-402,482	33,061	0,090	-0,056
-401,467	-200,000	-0,003	-0,029
-400,452	-80,424	0,019	0,005
-399,438	-200,000	0,009	0,161
-398,423	4,565	0,046	0,025
-397,409	88,004	0,002	0,001
-396,394	10,604	-0,143	0,079
-395,379	191,117	0,116	0,127
-394,365	133,982	0,118	0,111
-393,350	800,000	-0,019	-0,051
-392,336	24,057	-0,049	-0,029
-391,321	-81,354	0,031	-0,007
-390,306	260,125	-0,072	0,090
-389,292	-57,556	-0,171	-0,054
-388,277	-62,427	0,118	-0,036
-387,263	6,017	-0,192	-0,103
-386,248	198,345	-0,026	0,029
-385,233	83,267	0,055	-0,044
-384,219	-200,000	0,005	-0,105
-383,204	-17,004	-0,058	-0,027
-382,190	-128,380	-0,078	0,008
-381,175	-89,310	-0,170	-0,036
-380,160	-23,993	0,117	0,050
-379,146	-149,128	0,061	0,003
-378,131	-7,204	-0,032	0,016
-377,117	43,173	0,051	0,034
-376,102	-200,000	-0,098	0,000
-375,088	-200,000	-0,010	-0,094
-374,073	-200,000	0,006	-0,106
-373,058	131,315	0,052	0,048
-372,044	-200,000	-0,042	0,137
-371,029	194,284	-0,009	0,010
-370,015	-200,000	0,020	-0,100
-369,000	-200,000	0,025	0,095
-367,985	800,000	-0,020	0,059
-366,971	-58,682	0,026	-0,008
-365,956	236,904	0,000	0,000
-364,942	-42,158	-0,069	0,025
-363,927	48,477	0,099	0,067
-362,912	15,382	-0,117	-0,066
-361,898	290,534	0,091	-0,121
-360,883	67,533	-0,042	0,031
-359,869	260,248	-0,025	0,031
-358,854	-13,790	0,083	0,039
-357,839	800,000	0,049	0,104
-356,825	-26,116	0,021	-0,009
-355,810	800,000	-0,020	-0,041
-354,796	-9,843	-0,044	-0,021
-353,781	309,542	-0,068	0,092
-352,766	-29,196	0,119	0,049
-351,752	-129,189	0,066	0,007
-350,737	180,059	0,113	0,120
-349,723	264,605	0,082	0,103
-348,708	-200,000	-0,011	0,081
-347,693	800,000	-0,040	0,119
-346,679	63,959	0,021	0,015
-345,664	351,114	-0,017	0,024
-344,650	-114,608	0,068	0,009
-343,635	328,484	0,042	0,059
-342,620	666,247	-0,018	-0,035
-341,606	-64,021	0,093	0,027
-340,591	800,000	0,035	-0,088
-339,577	-111,929	-0,163	0,024
-338,562	3,262	0,058	-0,031
-337,548	-200,000	-0,006	0,145
-336,533	-33,136	-0,054	0,022
-335,518	151,939	0,026	0,026
-334,504	800,000	-0,029	-0,066
-333,489	359,522	0,040	-0,058
-332,475	800,000	-0,102	-0,284
-331,460	-96,900	-0,211	0,040
-330,445	106,532	0,062	0,053
-329,431	339,876	0,065	0,092
-328,416	800,000	0,067	-0,144
-327,402	-200,000	-0,035	-0,175
-326,387	-200,000	-0,020	0,065
-325,372	672,000	0,018	-0,035
-324,358	448,675	-0,052	0,084
-323,343	800,000	0,018	0,050
-322,329	639,458	-0,039	0,072
-321,314	-200,000	-0,013	0,061
-320,299	-12,527	0,075	0,035
-319,285	-200,000	0,017	0,059
-318,270	-200,000	0,000	0,140
-317,256	-200,000	0,019	0,080
-316,241	36,519	-0,032	0,020
-315,226	-100,960	-0,028	0,005
-314,212	800,000	0,052	0,128
-313,197	-98,429	-0,009	-0,002
-312,183	420,491	-0,059	-0,092
-311,168	469,611	-0,086	-0,140
-310,153	492,817	-0,069	-0,115
-309,139	-187,964	0,071	0,001
-308,124	-200,000	0,001	-0,108
-307,110	800,000	-0,025	0,070
-306,095	543,241	0,067	-0,116
-305,080	-200,000	-0,042	0,150
-304,066	-66,151	-0,151	0,043
-303,051	-200,000	-0,038	-0,149
-302,037	800,000	-0,015	-0,035
-301,022	-104,651	-0,113	-0,019
-300,008	20,537	0,065	0,038
-298,993	-33,378	0,168	0,067
-297,978	603,885	0,043	-0,078
-296,964	-52,591	-0,019	0,006
-295,949	-32,732	-0,100	-0,040
-294,935	143,906	0,068	-0,066
-293,920	-121,249	0,017	-0,002
-292,905	74,113	0,068	0,052
-291,891	800,000	-0,023	-0,059
-290,876	167,512	0,093	0,095
-289,862	257,677	0,054	-0,068
-288,847	-26,592	-0,248	-0,105
-287,832	-200,000	-0,001	-0,115
-286,818	-200,000	-0,007	-0,095
-285,803	66,700	0,086	0,063
-284,789	-200,000	0,004	0,240
-283,774	800,000	-0,020	-0,047
-282,759	-137,148	0,033	0,003
-281,745	49,001	-0,078	0,053
-280,730	317,385	0,081	-0,112
-279,716	-200,000	0,018	0,074
-278,701	118,172	0,049	-0,043
-277,686	-71,846	0,069	-0,018
-276,672	224,597	-0,033	0,039
-275,657	800,000	-0,003	0,007
-274,643	-185,877	-0,196	0,002
-273,628	-121,257	0,082	-0,010
-272,613	28,019	-0,079	-0,048
-271,599	-200,000	0,005	0,042
-270,584	81,073	0,107	0,083
-269,570	189,111	-0,033	-0,036
-268,555	-76,832	0,166	-0,042
-267,540	-27,378	0,045	-0,019
-266,526	-200,000	-0,012	-0,122
-265,511	-73,530	-0,082	-0,021
-264,497	800,000	0,049	-0,155
-263,482	115,137	0,063	0,055
-262,467	56,428	0,034	0,024
-261,453	-200,000	-0,008	-0,039
-260,438	71,747	0,044	0,033
-259,424	-200,000	-0,016	0,059
-258,409	506,338	0,048	-0,080
-257,395	197,442	0,044	0,049
-256,380	26,264	-0,020	-0,012
-255,365	88,779	0,066	-0,053
-254,351	-94,017	-0,096	-0,019
-253,336	800,000	0,013	-0,028
-252,322	-145,048	-0,090	0,006
-251,307	310,091	0,058	0,079
-250,292	-200,000	-0,019	0,077
-249,278	-51,866	0,107	-0,036
-248,263	-200,000	0,042	-0,185
-247,249	172,526	-0,039	-0,041
-246,234	-63,341	0,100	0,030
-245,219	-53,659	0,155	-0,051
-244,205	243,965	0,059	0,072
-243,190	256,327	-0,047	0,059
-242,176	16,372	0,061	0,035
-241,161	800,000	0,025	0,061
-240,146	125,913	0,067	0,061
-239,132	202,832	0,072	0,081
-238,117	121,288	-0,057	-0,051
-237,103	451,092	-0,055	-0,089
-236,088	-200,000	0,009	0,052
-235,073	312,359	0,048	-0,066
-234,059	-200,000	0,026	0,130
-233,044	223,067	-0,037	0,043
-232,030	564,135	0,017	0,030
-231,015	40,791	-0,071	0,046
-230,000	-118,087	-0,238	-0,030
-228,986	-74,001	-0,132	0,034
-227,971	73,007	0,166	-0,125
-226,957	264,697	-0,056	-0,071
-225,942	800,000	0,028	-0,085
-224,927	-37,396	-0,128	-0,049
-223,913	-123,120	0,106	-0,012
-222,898	800,000	-0,024	-0,059
-221,884	50,000	-0,133	-0,090
-220,869	-73,187	-0,056	-0,015
-219,855	-30,114	-0,059	-0,024
-218,840	800,000	-0,037	0,088
-217,825	345,435	0,057	0,081
-216,811	59,570	0,011	-0,008
-215,796	-200,000	-0,028	-0,102
-214,782	-137,874	-0,065	0,005
-213,767	33,570	0,151	-0,094
-212,752	-121,035	0,089	-0,011
-211,738	-200,000	0,002	-0,029
-210,723	302,115	0,028	-0,038
-209,709	101,081	-0,060	-0,050
-208,694	-200,000	-0,021	-0,121
-207,679	-24,957	0,026	-0,011
-206,665	223,419	0,115	-0,134
-205,650	-200,000	-0,004	-0,138
-204,636	-35,116	0,031	-0,012
-203,621	-200,000	-0,034	0,107
-202,606	-200,000	0,010	-0,051
-201,592	-200,000	-0,046	-0,151
-200,577	-200,000	-0,034	-0,143
-199,563	800,000	-0,008	0,020
-198,548	-200,000	0,013	0,083
-197,533	392,776	-0,059	0,089
-196,519	1,096	0,123	-0,064
-195,504	-55,318	-0,122	-0,039
-194,490	-200,000	0,010	-0,087
-193,475	-43,409	0,072	0,026
-192,460	-106,291	0,096	-0,015
-191,446	-87,706	-0,043	-0,009
-190,431	-54,440	0,071	0,023
-189,417	-50,012	0,057	0,020
-188,402	39,577	0,054	-0,035
-187,387	55,525	-0,024	0,017
-186,373	-162,542	0,158	0,006
-185,358	-156,190	-0,126	0,006
-184,344	800,000	-0,013	0,032
-183,329	-121,686	0,107	0,013
-182,315	32,458	-0,061	0,038
-181,300	223,607	-0,094	0,109
-180,285	800,000	-0,010	-0,023
-179,271	162,134	-0,093	0,094
-178,256	-200,000	0,014	-0,163
-177,242	490,487	-0,084	0,138
-176,227	-152,283	-0,011	0,001
-175,212	-200,000	0,007	-0,084
-174,198	-200,000	-0,015	0,050
-173,183	-108,326	-0,102	0,016
-172,169	800,000	0,027	0,071
-171,154	-200,000	0,002	-0,088
-170,139	416,949	-0,076	0,117
-169,125	-114,130	0,094	-0,013
-168,110	-200,000	0,010	0,078
-167,096	383,145	-0,022	0,033
-166,081	17,162	-0,030	0,017
-165,066	-52,390	0,069	0,023
-164,052	-135,047	-0,049	-0,004
-163,037	-200,000	0,009	0,034
-162,023	-77,467	-0,071	0,018
-161,008	301,884	-0,024	0,032
-159,993	-200,000	0,011	0,117
-158,979	61,513	-0,091	0,065
-157,964	800,000	-0,045	-0,117
-156,950	800,000	-0,023	-0,060
-155,935	-200,000	0,032	0,127
-154,920	-58,268	0,029	0,009
-153,906	696,211	0,110	0,209
-152,891	-200,000	0,019	0,111
-151,877	-179,256	-0,047	-0,001
-150,862	-102,473	0,020	-0,003
-149,847	31,131	-0,094	0,058
-148,833	261,099	0,079	0,099
-147,818	155,157	0,048	0,047
-146,804	800,000	0,043	0,087
-145,789	-200,000	0,016	0,200
-144,775	136,248	0,135	0,127
-143,760	40,148	-0,207	0,134
-142,745	-168,563	0,068	0,002
-141,731	99,141	0,053	0,044
-140,716	-132,807	0,108	-0,010
-139,702	242,911	0,041	-0,049
-138,687	-200,000	-0,012	0,062
-137,672	-200,000	0,010	0,044
-136,658	-135,945	0,031	0,003
-135,643	257,919	-0,059	-0,073
-134,629	665,415	0,062	0,116
-133,614	161,775	0,027	0,027
-132,599	227,511	0,132	0,155
-131,585	447,865	-0,016	0,026
-130,570	-200,000	-0,021	0,109
-129,556	159,536	-0,019	0,019
-128,541	334,564	-0,033	-0,047
-127,526	-4,836	0,166	0,082
-126,512	800,000	-0,039	-0,112
-125,497	696,230	-0,020	0,037
-124,483	34,270	-0,052	-0,032
-123,468	362,254	-0,023	-0,033
-122,453	-200,000	-0,005	0,137
-121,439	-125,850	-0,124	-0,013
-120,424	103,026	0,031	-0,026
-119,410	-200,000	-0,007	0,119
-118,395	221,082	-0,045	0,052
-117,380	256,440	0,094	0,116
-116,366	-200,000	-0,013	-0,117
-115,351	466,355	0,015	-0,025
-114,337	129,001	-0,024	-0,022
-113,322	-200,000	-0,031	-0,184
-112,307	91,132	0,108	0,087
-111,293	-200,000	-0,005	0,135
-110,278	22,637	-0,090	-0,053
-109,264	139,892	0,059	-0,056
-108,249	125,365	0,053	-0,048
-107,234	-58,614	-0,089	0,028
-106,220	148,314	0,095	0,092
-105,205	-200,000	-0,011	0,036
-104,191	168,817	-0,158	0,162
-103,176	-200,000	-0,018	0,065
-102,162	-200,000	-0,061	0,211
-101,147	79,124	0,092	0,071
-100,132	800,000	-0,007	0,015
-99,118	250,931	-0,051	0,063
-98,103	48,630	-0,068	0,046
-97,089	-200,000	0,022	0,130
-96,074	-27,939	0,041	-0,017
-95,059	800,000	0,038	0,107
-94,045	220,230	0,016	-0,018
-93,030	-200,000	-0,031	-0,171
-92,016	-153,295	-0,088	0,004
-91,001	-200,000	-0,003	-0,091
-89,986	-127,724	-0,124	-0,013
-88,972	104,936	-0,065	0,055
-87,957	95,151	0,054	0,044
-86,943	-120,130	-0,046	0,006
-85,928	-200,000	-0,003	0,067
-84,913	255,443	0,060	0,074
-83,899	-8,628	-0,120	-0,058
-82,884	514,498	-0,028	0,048
-81,870	-161,069	0,076	0,003
-80,855	89,929	0,142	0,114
-79,840	-200,000	0,017	-0,097
-78,826	334,740	-0,109	0,152
-77,811	-71,518	-0,081	0,021
-76,797	8,013	-0,059	0,032
-75,782	232,818	0,013	-0,016
-74,767	54,195	0,080	0,055
-73,753	167,703	0,058	0,059
-72,738	-23,714	-0,100	0,043
-71,724	120,166	-0,068	-0,060
-70,709	-72,702	-0,049	0,013
-69,694	-52,395	-0,146	0,048
-68,680	-140,655	0,149	0,011
-67,665	373,099	-0,063	-0,093
-66,651	-17,523	0,066	0,030
-65,636	-156,885	0,047	-0,002
-64,622	48,853	0,089	-0,060
-63,607	253,504	0,092	-0,113
-62,592	-110,770	-0,119	-0,017
-61,578	-155,808	0,055	-0,002
-60,563	-42,231	0,143	0,052
-59,549	351,241	-0,073	0,104
-58,534	94,172	-2,725	-2,218
-57,519	-6,137	0,493	-0,241
-56,505	800,000	-1,736	-5,355
-55,490	560,772	1,246	2,169
-54,476	800,000	5,204	11,259
-53,461	-200,000	22,543	348,817
-52,446	800,000	763,401	2279,643
-51,432	504,458	1645,768	2742,909
-50,417	94,927	1605,485	1309,885
-49,403	63,256	1262,139	906,288
-48,388	22,135	1014,466	592,425
-47,373	19,006	982,121	563,224
-46,359	12,412	968,913	534,131
-45,344	8,105	965,931	518,403
-44,330	8,565	963,729	518,703
-43,315	7,582	962,000	514,549
-42,300	7,513	961,096	513,819
-41,286	7,524	959,796	513,141
-40,271	7,509	958,852	512,565
-39,257	7,521	958,128	512,197
-38,242	7,523	957,234	511,705
-37,227	7,487	956,415	511,130
-36,213	7,500	955,551	510,690
-35,198	7,543	954,549	510,273
-34,184	7,585	953,765	509,971
-33,169	7,466	953,004	509,158
-32,154	7,553	952,089	508,929
-31,140	7,558	951,321	508,517
-30,125	7,605	950,353	508,128
-29,111	7,542	949,690	507,553
-28,096	7,542	949,180	507,261
-27,082	7,554	948,367	506,844
-26,067	7,480	947,844	506,306
-25,052	7,466	946,987	505,783
-24,038	7,467	946,239	505,368
-23,023	7,472	945,369	504,899
-22,009	7,481	944,954	504,685
-20,994	7,521	944,428	504,514
-19,979	7,558	943,597	504,166
-18,965	7,516	942,863	503,619
-17,950	7,558	942,484	503,532
-16,936	7,502	941,710	502,919
-15,921	7,410	941,264	502,370
-14,906	7,458	940,455	502,071
-13,892	7,367	939,913	501,472
-12,877	7,374	939,176	501,081
-11,863	7,323	938,743	500,667
-10,848	7,382	938,069	500,475
-9,833	7,498	937,486	500,511
-8,819	7,431	936,875	499,954
-7,804	7,396	936,189	499,459
-6,790	7,402	935,771	499,235
-5,775	7,468	935,099	499,063
-4,760	7,477	934,497	498,752
-3,746	7,427	933,937	498,276
-2,731	7,293	933,180	497,427
-1,717	7,271	932,700	497,082
-0,702	7,248	932,016	496,626
0,313	7,096	931,478	496,610
1,327	10,372	929,059	505,574
2,342	18,971	776,997	445,280
3,356	14,132	445,992	248,314
4,371	-11,387	311,163	146,236
5,386	-14,972	293,817	134,462
6,400	-17,103	287,671	129,537
7,415	-17,523	285,005	127,915
8,429	-18,270	283,174	126,356
9,444	-18,349	282,118	125,797
10,459	-18,153	281,616	125,752
11,473	-18,301	281,056	125,348
12,488	-18,166	280,456	125,199
13,502	-18,406	280,054	124,778
14,517	-18,405	279,505	124,523
15,531	-18,412	278,974	124,269
16,546	-18,338	278,581	124,153
17,561	-18,252	278,246	124,075
18,575	-18,284	277,906	123,882
19,590	-18,643	277,448	123,325
20,604	-18,327	277,297	123,548
21,619	-18,429	276,919	123,272
22,634	-18,328	276,455	123,150
23,648	-18,450	276,270	122,940
24,663	-18,455	275,949	122,782
25,677	-18,497	275,831	122,679
26,692	-18,393	275,488	122,614
27,707	-18,512	275,120	122,327
28,721	-18,309	274,781	122,356
29,736	-18,505	274,610	122,085
30,750	-18,466	274,500	122,061
31,765	-18,444	274,014	121,855
32,780	-18,570	273,938	121,692
33,794	-18,340	273,573	121,734
34,809	-18,305	273,321	121,644
35,823	-18,457	273,113	121,400
36,838	-18,420	272,813	121,289
37,853	-18,383	272,398	121,129
38,867	-18,239	272,208	121,168
39,882	-18,545	272,113	120,829
40,896	-18,365	271,932	120,906
41,911	-18,499	271,384	120,527
42,926	-18,496	271,386	120,520
43,940	-18,258	271,039	120,576
44,955	-18,434	270,934	120,355
45,969	-18,541	270,664	120,125
46,984	-18,439	270,419	120,101
47,999	-18,274	270,185	120,138
49,013	-18,348	270,049	119,998
50,028	-18,378	269,704	119,807
51,042	-18,405	269,621	119,735
52,057	-18,387	269,251	119,576
53,071	-18,396	269,116	119,498
54,086	-18,445	268,992	119,386
55,101	-18,456	268,618	119,200
56,115	-18,225	268,371	119,291
57,130	-18,133	268,175	119,278
58,144	-18,300	267,993	119,034
59,159	-18,425	267,625	118,745
60,174	-18,261	267,482	118,821
61,188	-18,336	267,106	118,575
62,203	-18,148	267,001	118,689
63,217	-18,385	266,814	118,379
64,232	-18,496	266,575	118,161
65,247	-18,315	266,416	118,245
66,261	-18,362	266,039	118,025
67,276	-18,458	265,967	117,895
68,290	-18,312	265,453	117,789
69,305	-18,216	265,385	117,835
70,320	-18,186	265,126	117,736
71,334	-18,219	264,924	117,607
72,349	-18,265	264,746	117,476
73,363	-18,362	264,543	117,288
74,378	-18,129	264,191	117,331
75,393	-18,361	264,247	117,136
76,407	-18,334	263,722	116,918
77,422	-18,320	263,645	116,886
78,436	-18,238	263,292	116,793
79,451	-18,245	263,051	116,669
80,466	-18,227	262,762	116,546
81,480	-18,319	262,689	116,421
82,495	-18,231	262,438	116,378
83,509	-18,281	262,316	116,269
84,524	-18,163	261,883	116,172
85,539	-18,307	261,959	116,066
86,553	-18,219	261,649	115,998
87,568	-18,156	261,395	115,930
88,582	-18,351	261,259	115,687
89,597	-18,270	261,010	115,638
90,611	-18,246	260,692	115,508
91,626	-18,300	260,645	115,429
92,641	-18,409	260,621	115,312
93,655	-18,235	260,252	115,292
94,670	-18,233	259,915	115,134
95,684	-18,326	259,756	114,972
96,699	-18,382	259,622	114,852
97,714	-18,222	259,467	114,914
98,728	-18,241	259,147	114,746
99,743	-18,285	259,040	114,649
100,757	-18,164	258,681	114,587
101,772	-18,291	258,616	114,437
102,787	-18,285	258,371	114,323
103,801	-18,350	258,169	114,166
104,816	-18,359	258,048	114,095
105,830	-18,203	257,807	114,115
106,845	-18,195	257,593	114,017
107,860	-18,108	257,363	113,981
108,874	-18,304	257,082	113,676
109,889	-18,248	256,900	113,634
110,903	-18,116	256,753	113,673
111,918	-18,161	256,594	113,553
112,933	-18,154	256,354	113,443
113,947	-18,239	256,308	113,339
114,962	-18,187	256,002	113,238
115,976	-18,269	255,950	113,134
116,991	-18,239	255,684	113,032
118,006	-18,172	255,463	112,983
119,020	-18,240	255,178	112,788
120,035	-18,250	255,238	112,796
121,049	-18,127	254,857	112,724
122,064	-18,160	254,687	112,610
123,079	-18,253	254,548	112,458
124,093	-18,125	254,158	112,386
125,108	-18,286	254,048	112,189
126,122	-18,110	253,821	112,230
127,137	-18,248	253,655	112,027
128,151	-18,047	253,532	112,137
129,166	-18,176	253,343	111,932
130,181	-18,212	253,160	111,810
131,195	-18,230	252,855	111,650
132,210	-18,397	252,772	111,460
133,224	-18,342	252,624	111,433
134,239	-18,288	252,411	111,375
135,254	-18,207	252,193	111,338
136,268	-18,207	251,915	111,205
137,283	-18,054	251,739	111,248
138,297	-18,026	251,358	111,094
139,312	-18,414	251,382	110,764
140,327	-18,318	251,064	110,695
141,341	-18,261	251,038	110,722
142,356	-18,122	250,733	110,696
143,370	-18,246	250,596	110,520
144,385	-17,978	250,231	110,577
145,400	-17,973	250,045	110,489
146,414	-18,061	250,066	110,414
147,429	-18,095	249,904	110,304
148,443	-18,134	249,651	110,149
149,458	-18,205	249,327	109,936
150,473	-18,134	249,329	109,988
151,487	-18,136	249,104	109,877
152,502	-18,078	248,802	109,783
153,516	-18,107	248,646	109,680
154,531	-17,926	248,429	109,726
155,546	-18,170	248,343	109,474
156,560	-17,876	248,048	109,581
157,575	-18,155	247,890	109,267
158,589	-18,065	247,728	109,261
159,604	-17,993	247,522	109,221
160,619	-18,100	247,469	109,098
161,633	-18,280	247,158	108,801
162,648	-18,075	247,111	108,942
163,662	-17,969	246,754	108,864
164,677	-17,996	246,680	108,799
165,692	-17,935	246,505	108,762
166,706	-17,934	246,296	108,661
167,721	-18,095	246,126	108,442
168,735	-18,178	246,001	108,309
169,750	-18,062	245,925	108,362
170,764	-18,025	245,731	108,298
171,779	-18,031	245,505	108,184
172,794	-18,110	245,413	108,068
173,808	-18,189	245,123	107,865
174,823	-17,989	244,900	107,923
175,837	-18,165	244,797	107,722
176,852	-17,998	244,580	107,755
177,867	-18,142	244,405	107,549
178,881	-18,087	244,391	107,579
179,896	-18,084	244,133	107,458
180,910	-18,335	244,062	107,211
181,925	-18,227	243,835	107,190
182,940	-18,043	243,590	107,225
183,954	-18,048	243,374	107,116
184,969	-18,005	243,295	107,107
185,983	-18,015	243,136	107,019
186,998	-17,925	243,036	107,040
188,013	-18,002	242,810	106,867
189,027	-18,051	242,607	106,728
190,042	-18,004	242,409	106,670
191,056	-18,086	242,439	106,607
192,071	-17,984	241,977	106,477
193,086	-17,903	241,829	106,469
194,100	-17,896	241,677	106,398
195,115	-18,053	241,584	106,220
196,129	-17,976	241,382	106,184
197,144	-17,930	241,197	106,131
198,159	-17,990	241,035	106,001
199,173	-18,064	240,903	105,874
200,188	-17,853	240,663	105,930
201,202	-17,774	240,467	105,898
202,217	-18,040	240,225	105,566
203,232	-18,016	240,152	105,545
204,246	-18,010	240,037	105,489
205,261	-17,672	239,918	105,701
206,275	-15,874	240,506	107,407
207,290	-10,542	242,340	112,564
208,304	-4,858	244,070	118,017
209,319	-3,045	244,526	119,713
210,334	-2,107	244,521	120,468
211,348	-1,415	244,708	121,115
212,363	-0,962	244,892	121,566
213,377	-0,545	244,918	121,910
214,392	0,304	244,799	122,536
215,407	0,576	244,829	122,762
216,421	0,627	244,708	122,731
217,436	0,713	244,502	122,688
218,450	0,809	244,443	122,725
219,465	0,888	244,299	122,707
220,480	0,925	243,918	122,535
221,494	0,591	244,078	122,331
222,509	0,678	243,696	122,200
223,523	0,361	243,431	121,799
224,538	0,095	243,305	121,509
225,553	0,125	243,139	121,440
226,567	0,179	242,839	121,323
227,582	0,314	242,714	121,359
228,596	0,385	242,547	121,322
229,611	0,398	242,448	121,272
230,626	0,295	242,148	121,028
231,640	0,217	242,162	120,962
232,655	0,049	241,856	120,662
233,669	0,101	241,879	120,705
234,684	0,106	241,682	120,600
235,699	0,129	241,454	120,493
236,713	0,045	241,387	120,382
237,728	0,332	241,171	120,494
238,742	0,198	241,023	120,302
239,757	0,336	240,846	120,314
240,772	0,118	240,798	120,104
241,786	0,205	240,549	120,038
242,801	0,193	240,489	119,989
243,815	0,081	240,262	119,774
244,830	0,191	240,107	119,775
245,844	0,167	240,020	119,701
246,859	0,317	239,797	119,699
247,874	0,269	239,623	119,564
248,888	0,081	239,463	119,323
249,903	0,227	239,380	119,387
250,917	0,347	239,051	119,308
251,932	0,613	239,031	119,500
252,947	0,358	238,832	119,186
253,961	0,304	238,637	119,036
254,976	0,363	238,567	119,037
255,990	0,334	238,398	118,919
257,005	0,284	238,301	118,821
258,020	0,115	238,086	118,569
259,034	0,360	237,950	118,684
260,049	0,280	237,684	118,478
261,063	0,318	237,489	118,400
262,078	0,221	237,387	118,262
263,093	0,115	237,190	118,070
264,107	0,453	236,980	118,221
265,122	0,306	236,974	118,092
266,136	0,319	236,912	118,061
267,151	0,540	236,520	118,029
268,166	0,404	236,522	117,912
269,180	0,214	236,367	117,675
270,195	0,103	236,306	117,547
271,209	0,347	235,975	117,563
272,224	0,271	235,944	117,478
273,239	0,161	235,798	117,308
274,253	0,550	235,533	117,471
275,268	0,415	235,351	117,264
276,282	0,407	235,226	117,185
277,297	0,286	235,094	117,014
278,312	0,292	235,024	116,974
279,326	0,504	234,795	117,015
280,341	0,298	234,739	116,815
281,355	0,435	234,553	116,819
282,370	0,273	234,344	116,578
283,384	0,349	234,249	116,580
284,399	0,154	234,078	116,333
285,414	0,352	233,822	116,349
286,428	0,213	233,852	116,246
287,443	0,367	233,588	116,223
288,457	0,511	233,459	116,260
289,472	0,239	233,343	115,982
290,487	0,343	233,226	115,994
291,501	0,222	233,220	115,887
292,516	0,457	232,848	115,873
293,530	0,268	232,774	115,680
294,545	0,501	232,730	115,828
295,560	0,338	232,678	115,665
296,574	0,429	232,229	115,503
297,589	0,545	232,238	115,586
298,603	0,459	232,018	115,400
299,618	0,536	231,769	115,325
300,633	0,402	231,824	115,238
301,647	0,577	231,625	115,265
302,662	0,652	231,387	115,193
303,676	0,769	231,277	115,218
304,691	0,718	231,078	115,069
305,706	0,224	231,048	114,666
306,720	0,528	230,976	114,852
307,735	0,484	230,684	114,663
308,749	0,654	230,642	114,762
309,764	0,277	230,535	114,411
310,779	0,473	230,382	114,474
311,793	0,646	230,077	114,444
312,808	0,565	229,860	114,264
313,822	0,506	229,905	114,232
314,837	0,630	229,741	114,234
315,852	0,635	229,458	114,087
316,866	0,797	229,411	114,177
317,881	0,866	229,180	114,104
318,895	0,630	229,025	113,838
319,910	0,689	228,977	113,849
320,925	0,659	228,824	113,740
321,939	0,671	228,541	113,598
322,954	0,635	228,525	113,552
323,968	0,543	228,462	113,441
324,983	0,436	228,282	113,261
325,997	0,711	228,075	113,355
327,012	0,683	227,909	113,242
328,027	0,830	227,716	113,247
329,041	0,526	227,746	113,022
330,056	0,768	227,464	113,054
331,070	0,623	227,417	112,912
332,085	0,980	227,241	113,083
333,100	0,644	227,041	112,721
334,114	0,549	226,856	112,548
335,129	0,629	226,767	112,554
336,143	0,751	226,626	112,565
337,158	0,572	226,531	112,374
338,173	0,770	226,345	112,419
339,187	0,916	226,243	112,468
340,202	0,949	226,107	112,415
341,216	0,835	225,875	112,204
342,231	0,726	225,705	112,029
343,246	0,664	225,677	111,959
344,260	0,902	225,506	112,041
345,275	0,988	225,313	111,999
346,289	0,971	225,199	111,920
347,304	0,891	225,093	111,798
348,319	0,836	224,905	111,653
349,333	0,629	224,870	111,473
350,348	0,605	224,717	111,369
351,362	0,961	224,568	111,549
352,377	0,980	224,404	111,472
353,392	1,001	224,235	111,394
354,406	0,721	224,099	111,109
355,421	191,750	1311,758	1375,293
356,435	153,537	1444,109	1375,117
