DTS Sentinel unit serial number:	SN410029Multiplexer serial number:	ORYXHardware model number:	OX2-SRSoftware version number:	ORYX F/W v4,00 Oryx Data Collector v3.7.2.0data status	okinstallation	B5 Nyhavnadifferential loss correction	single-endedforward channel	channel 2reverse channel	N/Adate	2023/12/13time	09:47:13forward acquisition time	300,00reverse acquisition time	0,00gamma	499,1914k internal	0,3160k external	0,3160temperature offset calibration	1,0000default loss term (dB/km)	0,3820temperature slope calibration	1,0000multiplexer offset coefficient	1,0000multiplexer slope coefficient	1,0000fibre end	0,00T internal ref (°C)	13,65T ext. ref 1 (°C)	-2,73T ext. ref 2 (°C)	-3,03length (m)	temperature (°C)	Stokes	anti-Stokes-744,400	64,857	0,090	0,067
-743,385	-187,656	-0,328	0,003
-742,371	11,627	0,168	0,095
-741,356	-65,597	-0,336	0,099
-740,342	-119,979	0,134	0,017
-739,327	-117,103	-0,324	-0,043
-738,312	-62,861	0,118	0,036
-737,298	-99,733	-0,323	-0,059
-736,283	599,568	-0,082	-0,150
-735,269	-19,116	-0,179	-0,081
-734,254	-125,123	0,105	0,012
-733,239	-12,208	-0,458	-0,220
-732,225	-24,068	0,281	0,123
-731,210	102,150	-0,133	0,114
-730,196	-76,096	-0,009	0,002
-729,181	-27,906	-0,137	0,058
-728,167	-200,000	0,003	-0,080
-727,152	800,000	-0,039	-0,103
-726,137	-13,151	-0,013	0,006
-725,123	-200,000	-0,009	-0,030
-724,108	-188,573	-0,136	0,001
-723,094	-95,159	-0,016	0,003
-722,079	123,839	-0,103	-0,095
-721,064	800,000	0,068	-0,146
-720,050	571,485	-0,091	-0,163
-719,035	135,553	0,026	0,025
-718,021	-200,000	0,001	0,053
-717,006	-2,363	-0,107	0,055
-715,991	-19,513	-0,034	0,015
-714,977	646,849	0,048	-0,091
-713,962	-149,999	-0,083	0,005
-712,948	40,320	0,094	-0,062
-711,933	64,727	0,095	0,070
-710,918	-22,652	-0,074	-0,033
-709,904	26,674	0,064	0,039
-708,889	88,486	-0,124	-0,101
-707,875	-141,312	-0,124	-0,009
-706,860	-199,282	0,193	0,001
-705,845	800,000	-0,041	0,111
-704,831	291,123	0,076	-0,103
-703,816	800,000	0,057	0,168
-702,802	243,819	-0,061	-0,075
-701,787	34,331	-0,097	-0,062
-700,772	800,000	-0,053	-0,119
-699,758	-163,477	-0,180	0,006
-698,743	800,000	0,057	-0,125
-697,729	-114,476	0,066	-0,009
-696,714	800,000	0,040	0,084
-695,699	800,000	-0,066	-0,184
-694,685	-200,000	0,015	-0,090
-693,670	800,000	-0,061	-0,184
-692,656	-200,000	0,023	-0,083
-691,641	-90,612	0,155	0,033
-690,627	320,985	-0,016	-0,022
-689,612	800,000	-0,032	0,091
-688,597	800,000	-0,038	-0,080
-687,583	-43,757	-0,185	0,068
-686,568	285,515	0,031	0,041
-685,554	350,391	-0,063	0,092
-684,539	-122,757	0,036	0,004
-683,524	-48,931	0,110	0,039
-682,510	-200,000	-0,008	0,079
-681,495	-75,989	0,104	0,027
-680,481	-200,000	-0,010	-0,129
-679,466	65,915	-0,081	-0,060
-678,451	-150,232	0,101	-0,006
-677,437	-200,000	-0,045	-0,168
-676,422	125,577	0,073	-0,067
-675,408	-200,000	-0,012	0,042
-674,393	-122,346	-0,018	-0,002
-673,378	-200,000	0,003	0,047
-672,364	-200,000	0,006	-0,049
-671,349	723,711	-0,033	-0,064
-670,335	-82,698	-0,164	-0,039
-669,320	-0,791	0,159	0,083
-668,305	-14,637	-0,021	0,010
-667,291	-26,240	-0,196	0,084
-666,276	-200,000	-0,019	0,063
-665,262	-39,028	-0,151	0,058
-664,247	-3,092	-0,048	-0,024
-663,232	61,521	-0,045	0,033
-662,218	-133,077	0,092	-0,008
-661,203	800,000	-0,057	0,140
-660,189	51,691	0,078	0,054
-659,174	7,876	-0,045	0,025
-658,159	344,404	-0,048	0,070
-657,145	62,193	-0,174	-0,127
-656,130	687,302	0,035	0,067
-655,116	-14,055	0,059	-0,028
-654,101	-106,313	-0,065	-0,011
-653,086	-200,000	-0,034	0,125
-652,072	800,000	-0,016	-0,044
-651,057	-173,900	-0,121	-0,003
-650,043	727,819	-0,044	-0,086
-649,028	-89,818	-0,033	-0,007
-648,014	-65,957	0,087	0,025
-646,999	310,622	0,073	0,101
-645,984	-170,889	0,080	-0,002
-644,970	-200,000	-0,003	-0,012
-643,955	-42,814	-0,081	-0,030
-642,941	73,873	-0,034	0,026
-641,926	202,869	-0,081	-0,092
-640,911	-83,512	-0,117	-0,027
-639,897	-129,890	0,109	0,011
-638,882	167,750	-0,108	0,113
-637,868	55,190	0,052	0,037
-636,853	-200,000	-0,020	-0,105
-635,838	101,962	-0,076	-0,065
-634,824	-151,628	-0,081	-0,004
-633,809	800,000	0,042	0,101
-632,795	-107,726	-0,063	0,010
-631,780	800,000	-0,017	0,047
-630,765	800,000	-0,017	-0,051
-629,751	800,000	-0,037	0,094
-628,736	572,850	0,007	-0,012
-627,722	-200,000	-0,011	0,149
-626,707	173,526	0,041	0,043
-625,692	159,091	0,036	0,037
-624,678	302,188	0,024	0,033
-623,663	690,284	-0,015	-0,029
-622,649	-200,000	-0,011	-0,058
-621,634	-91,114	-0,154	-0,032
-620,619	-200,000	-0,003	0,014
-619,605	-132,652	0,094	0,009
-618,590	800,000	0,039	-0,092
-617,576	-36,956	0,103	-0,040
-616,561	-21,919	-0,128	-0,057
-615,546	217,826	0,064	-0,075
-614,532	-95,952	-0,069	0,013
-613,517	-200,000	0,018	-0,067
-612,503	38,518	0,028	0,018
-611,488	535,950	-0,010	-0,018
-610,474	-200,000	-0,025	0,104
-609,459	27,624	0,142	-0,087
-608,444	-123,757	-0,078	0,009
-607,430	-89,665	-0,132	0,028
-606,415	-44,526	-0,084	0,031
-605,401	303,697	0,046	-0,062
-604,386	50,668	0,121	0,084
-603,371	-200,000	0,017	0,058
-602,357	-108,522	0,017	-0,003
-601,342	210,676	-0,060	0,069
-600,328	-199,431	-0,035	0,000
-599,313	59,245	-0,147	-0,106
-598,298	-200,000	0,073	0,000
-597,284	333,075	-0,046	-0,065
-596,269	-93,412	0,057	0,011
-595,255	-200,000	-0,002	0,009
-594,240	195,025	-0,044	0,049
-593,225	-149,460	-0,089	-0,005
-592,211	800,000	0,023	-0,059
-591,196	-200,000	-0,006	-0,024
-590,182	-85,306	0,074	0,017
-589,167	313,867	0,078	0,107
-588,152	131,885	-0,036	-0,034
-587,138	800,000	-0,008	-0,022
-586,123	800,000	-0,056	0,151
-585,109	-58,447	-0,065	-0,021
-584,094	-147,508	-0,167	-0,010
-583,079	-54,697	0,067	-0,022
-582,065	800,000	-0,006	-0,017
-581,050	202,933	-0,039	-0,044
-580,036	-74,317	0,016	-0,004
-579,021	549,411	0,043	-0,076
-578,006	495,403	-0,019	-0,032
-576,992	30,759	-0,125	0,078
-575,977	-72,314	-0,106	0,028
-574,963	66,064	0,124	-0,092
-573,948	354,824	-0,071	0,104
-572,934	81,648	0,109	0,086
-571,919	-121,274	0,020	0,002
-570,904	415,663	0,073	-0,115
-569,890	-112,813	0,114	0,016
-568,875	-86,786	-0,104	0,023
-567,861	593,075	0,094	0,171
-566,846	-200,000	0,028	0,101
-565,831	-106,391	0,100	0,016
-564,817	-74,523	-0,062	0,016
-563,802	800,000	-0,044	0,109
-562,788	-200,000	0,007	-0,100
-561,773	256,402	-0,042	-0,053
-560,758	800,000	-0,025	0,059
-559,744	87,617	0,069	-0,056
-558,729	-200,000	0,009	-0,042
-557,715	-200,000	0,009	0,094
-556,700	8,644	-0,083	0,045
-555,685	158,335	0,062	-0,063
-554,671	-200,000	-0,022	0,074
-553,656	319,086	0,050	0,070
-552,642	235,813	0,067	0,081
-551,627	-39,476	-0,051	0,019
-550,612	800,000	-0,008	-0,027
-549,598	-7,598	-0,064	0,031
-548,583	513,363	0,070	0,120
-547,569	331,362	0,050	0,071
-546,554	800,000	-0,003	-0,010
-545,539	-200,000	0,015	0,166
-544,525	569,363	-0,055	0,098
-543,510	800,000	-0,060	-0,135
-542,496	110,784	-0,104	-0,091
-541,481	800,000	-0,030	-0,065
-540,466	800,000	-0,028	0,085
-539,452	768,199	0,093	0,185
-538,437	134,139	-0,098	-0,093
-537,423	-6,266	0,044	-0,022
-536,408	-200,000	0,009	0,114
-535,393	18,188	-0,165	-0,096
-534,379	-58,597	-0,098	-0,031
-533,364	-58,123	0,142	0,045
-532,350	-200,000	0,035	0,148
-531,335	81,459	0,018	-0,014
-530,321	-9,515	0,133	0,065
-529,306	199,728	-0,095	-0,107
-528,291	145,397	-0,065	-0,063
-527,277	-47,359	0,029	-0,010
-526,262	51,263	-0,073	0,051
-525,248	800,000	-0,051	-0,132
-524,233	645,728	0,031	0,058
-523,218	395,212	-0,070	0,107
-522,204	76,087	-0,028	0,021
-521,189	577,297	-0,053	-0,096
-520,175	225,047	-0,034	0,041
-519,160	403,041	-0,095	-0,147
-518,145	-63,740	-0,141	-0,042
-517,131	-200,000	-0,008	0,186
-516,116	167,819	0,004	-0,004
-515,102	156,231	-0,043	0,043
-514,087	-61,243	-0,082	0,025
-513,072	72,737	-0,062	-0,047
-512,058	232,056	0,055	0,066
-511,043	263,349	0,032	0,041
-510,029	471,511	-0,051	0,083
-509,014	434,494	0,012	0,019
-507,999	448,758	-0,048	-0,078
-506,985	800,000	0,077	-0,192
-505,970	35,265	0,083	0,053
-504,956	163,709	-0,104	-0,106
-503,941	-200,000	-0,003	0,029
-502,926	800,000	-0,041	0,084
-501,912	-61,573	-0,088	0,027
-500,897	357,826	0,026	-0,039
-499,883	493,093	0,013	0,022
-498,868	-200,000	-0,013	-0,124
-497,853	587,874	-0,024	-0,043
-496,839	-25,581	-0,106	0,045
-495,824	-200,000	-0,012	-0,067
-494,810	-51,857	0,117	0,039
-493,795	369,872	-0,050	-0,074
-492,781	382,864	0,030	-0,045
-491,766	-119,094	0,085	0,011
-490,751	-40,992	-0,085	0,032
-489,737	36,129	0,117	-0,075
-488,722	289,418	0,047	-0,062
-487,708	14,727	0,107	0,061
-486,693	800,000	0,038	0,117
-485,678	169,485	0,016	-0,017
-484,664	96,815	-0,102	-0,086
-483,649	-129,737	0,090	-0,009
-482,635	-135,123	-0,123	0,011
-481,620	268,884	0,121	0,155
-480,605	800,000	-0,055	0,146
-479,591	-200,000	0,005	-0,030
-478,576	800,000	0,024	-0,059
-477,562	800,000	-0,043	-0,091
-476,547	800,000	-0,051	-0,154
-475,532	800,000	0,024	-0,060
-474,518	-200,000	0,008	0,129
-473,503	-66,822	0,054	0,016
-472,489	114,155	-0,101	-0,089
-471,474	-161,771	0,119	-0,004
-470,459	-4,093	0,124	-0,062
-469,445	800,000	-0,053	-0,128
-468,430	277,946	-0,090	-0,118
-467,416	398,543	0,028	-0,043
-466,401	-3,186	-0,063	-0,032
-465,386	-16,023	0,135	0,062
-464,372	-200,000	-0,006	0,061
-463,357	365,112	0,029	-0,043
-462,343	329,222	-0,081	-0,114
-461,328	-34,028	-0,123	0,049
-460,313	-103,005	0,078	0,013
-459,299	-200,000	0,007	-0,024
-458,284	-48,327	0,094	0,033
-457,270	-13,003	-0,020	-0,010
-456,255	-200,000	-0,026	-0,147
-455,241	-200,000	0,001	0,057
-454,226	42,327	-0,073	-0,048
-453,211	800,000	-0,013	-0,032
-452,197	-200,000	-0,019	-0,149
-451,182	128,328	0,046	0,043
-450,168	20,370	-0,042	0,025
-449,153	14,327	0,079	-0,045
-448,138	200,904	-0,102	-0,114
-447,124	370,789	-0,079	-0,116
-446,109	-200,000	0,014	-0,086
-445,095	-200,000	0,010	0,086
-444,080	266,624	0,055	0,070
-443,065	432,648	-0,046	-0,073
-442,051	-109,471	-0,107	0,016
-441,036	1,456	-0,087	0,045
-440,022	212,435	0,071	-0,081
-439,007	-200,000	-0,015	-0,069
-437,992	-200,000	0,023	0,140
-436,978	-142,670	0,104	-0,007
-435,963	-119,880	-0,080	0,010
-434,949	-26,883	-0,016	-0,007
-433,934	-200,000	-0,010	-0,038
-432,919	-200,000	-0,007	-0,129
-431,905	479,607	-0,057	0,095
-430,890	-27,885	0,073	0,031
-429,876	12,040	0,034	-0,019
-428,861	-200,000	-0,006	0,056
-427,846	-39,888	0,137	-0,052
-426,832	-161,210	-0,150	0,006
-425,817	310,820	0,038	0,052
-424,803	59,202	0,079	0,056
-423,788	52,960	0,146	-0,102
-422,773	466,263	0,063	0,102
-421,759	-200,000	0,040	0,150
-420,744	381,939	0,015	-0,023
-419,730	304,764	0,022	0,030
-418,715	699,163	0,029	0,056
-417,701	131,186	0,085	0,080
-416,686	87,626	0,029	-0,023
-415,671	-29,217	0,108	0,045
-414,657	-105,857	0,203	-0,033
-413,642	800,000	0,019	-0,051
-412,628	-26,785	-0,071	-0,030
-411,613	136,113	0,055	-0,052
-410,598	-104,166	-0,142	-0,024
-409,584	-200,000	-0,010	-0,089
-408,569	-7,348	-0,009	0,005
-407,555	110,386	-0,053	0,046
-406,540	-138,801	-0,201	-0,016
-405,525	31,303	-0,049	0,030
-404,511	33,212	0,102	-0,064
-403,496	800,000	0,054	-0,164
-402,482	80,294	-0,120	-0,094
-401,467	297,063	-0,010	-0,014
-400,452	-132,808	-0,124	0,011
-399,438	45,783	-0,070	-0,047
-398,423	317,420	0,025	0,034
-397,409	800,000	-0,037	-0,082
-396,394	163,827	0,108	0,110
-395,379	-5,087	-0,021	0,011
-394,365	-66,824	0,134	-0,038
-393,350	-21,205	0,133	-0,059
-392,336	148,372	-0,049	0,048
-391,321	-135,137	-0,049	-0,004
-390,306	-200,000	-0,001	-0,004
-389,292	364,503	-0,057	-0,084
-388,277	185,179	-0,028	0,030
-387,263	800,000	-0,016	-0,033
-386,248	671,867	0,051	-0,097
-385,233	198,078	-0,049	-0,054
-384,219	-200,000	-0,002	0,079
-383,204	-108,464	0,034	0,005
-382,190	-200,000	0,012	-0,104
-381,175	-86,146	-0,111	-0,025
-380,160	-52,273	0,147	0,049
-379,146	-1,825	-0,140	0,072
-378,131	-66,203	0,059	0,017
-377,117	-200,000	0,001	0,128
-376,102	-200,000	0,017	-0,076
-375,088	12,933	-0,040	-0,022
-374,073	800,000	0,011	-0,035
-373,058	34,848	-0,015	-0,010
-372,044	-20,478	0,098	0,043
-371,029	-200,000	0,007	-0,054
-370,015	82,284	-0,103	-0,081
-369,000	-200,000	0,006	-0,130
-367,985	-130,778	0,101	0,010
-366,971	-92,578	0,033	-0,007
-365,956	140,772	-0,064	-0,061
-364,942	58,903	0,102	0,073
-363,927	-200,000	0,005	0,110
-362,912	-79,025	0,036	-0,009
-361,898	800,000	-0,033	0,087
-360,883	-200,000	0,021	-0,097
-359,869	800,000	0,027	0,070
-358,854	318,958	-0,081	0,111
-357,839	188,816	0,017	0,019
-356,825	-200,000	-0,018	0,087
-355,810	-43,968	0,072	-0,026
-354,796	-130,593	0,079	-0,008
-353,781	404,986	0,031	-0,048
-352,766	800,000	-0,024	-0,073
-351,752	76,890	0,032	0,025
-350,737	800,000	-0,035	0,102
-349,723	800,000	-0,057	-0,142
-348,708	800,000	0,059	0,156
-347,693	-115,001	0,155	-0,021
-346,679	800,000	-0,036	0,115
-345,664	47,021	-0,092	-0,062
-344,650	643,721	0,023	-0,043
-343,635	188,797	-0,057	-0,062
-342,620	9,170	-0,024	-0,013
-341,606	-99,126	0,103	-0,019
-340,591	-102,763	0,047	0,008
-339,577	170,341	-0,073	-0,076
-338,562	653,555	0,007	0,013
-337,548	-200,000	0,018	0,139
-336,533	-9,084	0,129	0,062
-335,518	-200,000	-0,023	-0,124
-334,504	-63,518	0,092	-0,027
-333,489	299,866	-0,044	-0,058
-332,475	-200,000	-0,029	-0,110
-331,460	800,000	-0,082	-0,178
-330,445	-141,591	-0,067	-0,005
-329,431	549,129	0,066	0,116
-328,416	-163,485	-0,134	-0,005
-327,402	-200,000	-0,022	-0,075
-326,387	-200,000	-0,040	-0,152
-325,372	-84,689	-0,103	0,023
-324,358	-200,000	0,003	0,032
-323,343	115,920	-0,132	-0,117
-322,329	-113,490	0,114	0,016
-321,314	-68,617	0,208	0,058
-320,299	-200,000	0,030	-0,190
-319,285	-200,000	-0,029	0,118
-318,270	-200,000	-0,021	0,129
-317,256	169,991	-0,025	0,026
-316,241	77,197	0,025	-0,020
-315,226	-200,000	-0,009	0,112
-314,212	800,000	-0,050	0,143
-313,197	-125,678	0,046	-0,005
-312,183	179,027	-0,030	-0,032
-311,168	-200,000	0,002	-0,020
-310,153	-49,943	-0,144	-0,049
-309,139	-200,000	-0,009	-0,171
-308,124	-113,221	0,222	0,031
-307,110	-50,296	-0,085	-0,029
-306,095	7,625	0,088	0,047
-305,080	-70,841	0,179	-0,049
-304,066	-77,350	-0,109	-0,027
-303,051	-200,000	-0,011	-0,091
-302,037	-95,404	0,068	0,013
-301,022	-200,000	-0,015	0,098
-300,008	-157,862	0,085	0,004
-298,993	96,951	-0,034	0,029
-297,978	211,279	-0,048	0,055
-296,964	400,669	0,040	0,061
-295,949	90,654	-0,150	0,122
-294,935	-43,885	-0,103	-0,037
-293,920	-176,443	0,054	0,001
-292,905	-200,000	-0,001	-0,090
-291,891	-200,000	0,014	0,074
-290,876	-28,154	-0,039	0,016
-289,862	-2,070	-0,020	-0,010
-288,847	800,000	0,047	0,110
-287,832	168,072	-0,024	-0,024
-286,818	-200,000	0,012	0,081
-285,803	46,406	-0,014	-0,009
-284,789	-200,000	0,036	0,128
-283,774	660,833	-0,011	-0,021
-282,759	-46,376	-0,108	-0,038
-281,745	421,718	0,043	-0,067
-280,730	199,704	-0,082	-0,091
-279,716	-200,000	0,031	0,115
-278,701	58,755	-0,025	0,018
-277,686	-200,000	-0,047	0,239
-276,672	115,543	0,120	0,107
-275,657	1,755	-0,117	0,061
-274,643	-200,000	0,020	-0,138
-273,628	800,000	-0,009	0,018
-272,613	-200,000	-0,131	0,000
-271,599	349,082	0,036	-0,051
-270,584	-200,000	0,041	0,135
-269,570	-138,686	0,130	-0,010
-268,555	159,327	0,070	-0,070
-267,540	-48,502	-0,137	-0,047
-266,526	-200,000	0,013	-0,118
-265,511	54,603	0,041	-0,028
-264,497	-90,773	0,130	-0,027
-263,482	683,397	0,073	-0,138
-262,467	-63,793	-0,070	0,020
-261,453	148,691	-0,129	0,126
-260,438	185,639	0,062	-0,067
-259,424	-200,000	0,024	-0,104
-258,409	800,000	-0,029	0,061
-257,395	800,000	0,041	0,125
-256,380	-123,056	0,119	0,014
-255,365	800,000	0,048	-0,101
-254,351	-103,041	-0,148	0,025
-253,336	-9,245	0,076	-0,037
-252,322	-200,000	0,001	0,178
-251,307	800,000	-0,018	-0,051
-250,292	119,057	-0,025	-0,022
-249,278	-137,701	0,048	0,004
-248,263	-87,070	0,063	-0,014
-247,249	-97,103	0,181	0,034
-246,234	290,221	-0,064	-0,085
-245,219	-200,000	-0,034	-0,123
-244,205	436,960	0,032	-0,051
-243,190	578,516	-0,068	-0,120
-242,176	461,357	0,036	-0,059
-241,161	-121,153	0,040	0,005
-240,146	723,232	-0,026	0,051
-239,132	322,517	-0,050	-0,069
-238,117	-6,011	-0,066	0,033
-237,103	-62,667	-0,024	-0,007
-236,088	361,221	-0,025	-0,037
-235,073	-62,141	0,046	0,014
-234,059	800,000	-0,042	0,088
-233,044	401,196	0,028	-0,042
-232,030	-200,000	0,006	-0,055
-231,015	-104,853	-0,144	0,024
-230,000	-200,000	-0,002	-0,093
-228,986	-146,808	0,111	0,007
-227,971	-200,000	-0,003	0,045
-226,957	-96,130	0,104	0,020
-225,942	33,870	0,055	-0,034
-224,927	77,636	0,075	-0,058
-223,913	800,000	-0,053	0,125
-222,898	5,327	0,010	0,005
-221,884	800,000	-0,051	0,109
-220,869	762,938	0,050	0,099
-219,855	130,174	-0,075	-0,070
-218,840	192,665	0,082	0,089
-217,825	161,731	-0,074	0,075
-216,811	-179,844	-0,077	-0,001
-215,796	20,523	-0,074	-0,043
-214,782	-32,453	0,100	0,040
-213,767	-115,141	0,187	0,025
-212,752	-117,343	0,083	0,011
-211,738	800,000	-0,007	-0,016
-210,723	31,482	0,132	0,082
-209,709	-187,197	-0,211	0,002
-208,694	187,110	-0,104	-0,112
-207,679	-5,455	0,062	0,031
-206,665	179,823	-0,037	0,040
-205,650	-83,293	-0,039	-0,009
-204,636	-200,000	0,043	0,147
-203,621	-200,000	-0,009	0,063
-202,606	100,054	0,230	-0,193
-201,592	800,000	-0,006	-0,013
-200,577	-127,121	-0,062	-0,006
-199,563	587,827	-0,030	0,053
-198,548	64,169	-0,032	-0,023
-197,533	800,000	0,064	0,145
-196,519	-200,000	-0,011	-0,051
-195,504	313,779	0,044	0,059
-194,490	-142,483	0,164	0,011
-193,475	261,936	-0,041	-0,052
-192,460	55,485	-0,026	0,018
-191,446	-200,000	0,013	-0,118
-190,431	-4,703	0,134	0,066
-189,417	-75,643	-0,083	-0,021
-188,402	175,423	0,045	0,047
-187,387	69,792	0,095	-0,071
-186,373	505,706	0,053	-0,089
-185,358	-86,681	-0,076	0,017
-184,344	-200,000	-0,014	-0,056
-183,329	-21,944	-0,105	0,046
-182,315	-200,000	0,000	0,108
-181,300	-66,641	-0,131	0,037
-180,285	24,892	-0,050	0,030
-179,271	-41,111	0,071	-0,026
-178,256	463,927	-0,116	0,188
-177,242	302,467	-0,072	-0,096
-176,227	-159,294	0,136	-0,005
-175,212	800,000	0,045	0,094
-174,198	-200,000	-0,004	-0,053
-173,183	-162,999	-0,051	-0,002
-172,169	-160,391	-0,042	-0,002
-171,154	-41,888	0,098	-0,036
-170,139	-100,848	0,080	0,014
-169,125	15,839	0,115	0,065
-168,110	114,370	0,007	0,006
-167,096	-74,202	-0,065	0,017
-166,081	51,402	-0,067	0,046
-165,066	-77,528	0,025	0,006
-164,052	-14,501	0,032	0,015
-163,037	-200,000	0,033	-0,116
-162,023	-200,000	-0,028	-0,090
-161,008	-200,000	-0,036	-0,142
-159,993	800,000	-0,042	0,130
-158,979	-144,957	0,190	0,012
-157,964	-200,000	0,016	-0,092
-156,950	290,201	-0,050	-0,065
-155,935	210,663	-0,025	0,028
-154,920	-200,000	0,033	0,128
-153,906	-97,103	0,038	0,007
-152,891	800,000	0,030	0,076
-151,877	-200,000	-0,033	-0,200
-150,862	-21,322	0,071	0,031
-149,847	800,000	-0,037	-0,113
-148,833	-63,177	0,132	0,039
-147,818	323,015	-0,075	0,104
-146,804	-39,006	-0,091	0,034
-145,789	104,971	0,039	-0,033
-144,775	800,000	0,069	0,142
-143,760	0,092	-0,102	0,052
-142,745	-151,480	-0,047	0,002
-141,731	525,392	-0,070	0,119
-140,716	480,630	-0,053	-0,087
-139,702	800,000	0,055	0,111
-138,687	20,792	-0,048	0,028
-137,672	-162,686	0,085	0,003
-136,658	-200,000	-0,051	-0,191
-135,643	458,327	0,030	-0,048
-134,629	-145,918	0,087	0,005
-133,614	-130,319	0,159	-0,015
-132,599	800,000	-0,023	0,066
-131,585	-94,934	0,073	0,014
-130,570	-56,234	-0,113	-0,036
-129,556	668,007	-0,113	-0,212
-128,541	-93,696	-0,196	0,039
-127,526	97,313	-0,129	0,106
-126,512	-200,000	0,031	0,132
-125,497	2,163	0,113	0,058
-124,483	-115,676	0,065	0,009
-123,468	-200,000	0,026	0,135
-122,453	-200,000	-0,011	-0,148
-121,439	800,000	0,040	-0,107
-120,424	800,000	0,042	0,086
-119,410	789,842	0,061	0,122
-118,395	-56,462	0,047	-0,015
-117,380	800,000	-0,014	0,037
-116,366	-200,000	-0,016	0,072
-115,351	-118,742	0,056	0,007
-114,337	-67,595	-0,095	-0,027
-113,322	-145,305	-0,101	-0,006
-112,307	-200,000	0,024	-0,104
-111,293	-200,000	0,004	-0,052
-110,278	-200,000	-0,001	-0,059
-109,264	800,000	0,017	0,051
-108,249	-83,328	0,030	-0,007
-107,234	425,808	-0,047	-0,073
-106,220	108,179	-0,064	0,055
-105,205	48,999	-0,058	-0,039
-104,191	87,275	0,033	0,026
-103,176	36,001	0,092	-0,058
-102,162	-66,662	-0,101	-0,029
-101,147	-44,060	0,088	-0,032
-100,132	800,000	-0,038	-0,109
-99,118	800,000	-0,042	0,106
-98,103	43,656	-0,049	-0,032
-97,089	43,604	0,075	-0,049
-96,074	6,016	-0,095	0,050
-95,059	800,000	-0,043	0,093
-94,045	112,260	-0,026	0,022
-93,030	345,162	-0,053	-0,075
-92,016	-200,000	-0,003	-0,038
-91,001	379,804	-0,056	-0,082
-89,986	-200,000	0,000	0,058
-88,972	-64,361	-0,096	0,028
-87,957	-200,000	0,001	-0,022
-86,943	789,599	0,019	-0,037
-85,928	119,687	-0,034	0,030
-84,913	-118,191	-0,125	0,016
-83,899	-200,000	0,010	0,032
-82,884	49,241	0,087	-0,059
-81,870	-25,735	-0,074	0,031
-80,855	-80,203	0,114	-0,027
-79,840	-173,749	0,061	0,001
-78,826	-200,000	-0,021	-0,074
-77,811	-200,000	-0,003	-0,050
-76,797	800,000	-0,024	0,069
-75,782	-200,000	-0,024	0,092
-74,767	35,311	0,068	0,043
-73,753	-200,000	0,013	0,089
-72,738	-200,000	0,016	0,103
-71,724	135,369	-0,113	-0,106
-70,709	-122,816	-0,067	0,008
-69,694	-200,000	0,002	-0,084
-68,680	-200,000	-0,040	0,144
-67,665	153,485	-0,066	0,065
-66,651	-116,895	0,165	0,021
-65,636	-30,896	-0,041	0,016
-64,622	58,849	-0,093	-0,066
-63,607	207,201	0,060	0,067
-62,592	83,928	0,098	-0,077
-61,578	-200,000	-0,004	-0,112
-60,563	800,000	0,048	0,108
-59,549	-200,000	-0,023	0,135
-58,534	13,587	-2,046	-1,136
-57,519	800,000	-0,272	-0,833
-56,505	-200,000	-1,386	-5,171
-55,490	109,467	0,964	0,828
-54,476	800,000	5,190	12,059
-53,461	-200,000	18,666	317,847
-52,446	800,000	741,940	2334,046
-51,432	557,409	1657,434	2876,775
-50,417	110,987	1641,071	1416,553
-49,403	75,359	1290,995	975,700
-48,388	30,250	1031,711	630,152
-47,373	19,769	994,638	572,753
-46,359	17,369	981,812	557,442
-45,344	13,997	978,156	544,250
-44,330	14,345	976,563	544,486
-43,315	13,717	974,655	541,339
-42,300	13,675	973,577	540,582
-41,286	13,639	972,734	539,974
-40,271	13,689	971,827	539,613
-39,257	13,657	970,979	539,015
-38,242	13,691	969,909	538,512
-37,227	13,673	969,155	538,014
-36,213	13,694	968,241	537,553
-35,198	13,610	967,459	536,824
-34,184	13,684	966,445	536,480
-33,169	13,596	965,751	535,788
-32,154	13,715	964,539	535,481
-31,140	13,639	963,724	534,760
-30,125	13,675	963,194	534,563
-29,111	13,669	962,199	533,968
-28,096	13,655	961,449	533,485
-27,082	13,719	960,698	533,254
-26,067	13,688	960,036	532,767
-25,052	13,705	959,303	532,392
-24,038	13,654	958,575	531,804
-23,023	13,620	958,326	531,534
-22,009	13,705	957,534	531,348
-20,994	13,757	956,715	531,039
-19,979	13,707	956,025	530,475
-18,965	13,725	955,366	530,146
-17,950	13,695	954,969	529,808
-16,936	13,638	954,320	529,243
-15,921	13,598	953,541	528,664
-14,906	13,620	952,716	528,256
-13,892	13,632	952,148	527,957
-12,877	13,536	951,580	527,314
-11,863	13,506	950,983	526,867
-10,848	13,568	950,302	526,666
-9,833	13,631	950,129	526,752
-8,819	13,632	949,178	526,206
-7,804	13,613	948,448	525,719
-6,790	13,607	948,021	525,445
-5,775	13,632	947,402	525,161
-4,760	13,605	946,890	524,768
-3,746	13,595	946,216	524,343
-2,731	13,424	945,558	523,413
-1,717	13,383	944,877	522,883
-0,702	13,409	944,275	522,615
0,313	13,255	943,502	522,486
1,327	16,524	941,048	531,432
2,342	25,626	795,583	473,459
3,356	21,923	460,385	268,270
4,371	-4,905	317,304	156,101
5,386	-8,845	299,232	143,170
6,400	-10,874	293,302	138,285
7,415	-11,119	290,679	136,792
8,429	-11,392	288,943	135,694
9,444	-11,512	288,136	135,184
10,459	-11,325	287,438	135,029
11,473	-11,482	286,961	134,638
12,488	-11,381	286,416	134,469
13,502	-11,494	285,978	134,141
14,517	-11,305	285,464	134,073
15,531	-11,374	284,911	133,733
16,546	-11,457	284,595	133,493
17,561	-11,240	284,101	133,460
18,575	-11,417	284,079	133,266
19,590	-11,333	283,398	133,017
20,604	-11,325	283,257	132,946
21,619	-11,515	282,950	132,606
22,634	-11,353	282,444	132,514
23,648	-11,411	282,166	132,315
24,663	-11,532	281,934	132,078
25,677	-11,473	281,493	131,916
26,692	-11,450	281,449	131,907
27,707	-11,527	281,085	131,650
28,721	-11,414	280,807	131,617
29,736	-11,499	280,484	131,372
30,750	-11,523	280,286	131,244
31,765	-11,552	279,941	131,044
32,780	-11,511	279,813	131,011
33,794	-11,611	279,594	130,801
34,809	-11,482	279,352	130,799
35,823	-11,476	278,855	130,561
36,838	-11,589	278,700	130,369
37,853	-11,545	278,530	130,320
38,867	-11,527	278,368	130,249
39,882	-11,557	278,024	130,049
40,896	-11,496	277,836	130,007
41,911	-11,483	277,563	129,880
42,926	-11,499	277,270	129,716
43,940	-11,536	277,035	129,559
44,955	-11,602	276,955	129,448
45,969	-11,637	276,532	129,206
46,984	-11,694	276,374	129,067
47,999	-11,782	275,971	128,784
49,013	-11,981	275,780	128,497
50,028	-12,148	275,474	128,186
51,042	-12,339	275,365	127,944
52,057	-12,310	274,967	127,775
53,071	-12,151	274,862	127,863
54,086	-12,035	274,616	127,847
55,101	-12,112	274,511	127,714
56,115	-11,582	274,208	128,057
57,130	-11,439	274,015	128,089
58,144	-11,311	273,845	128,118
59,159	-11,349	273,620	127,966
60,174	-11,592	273,557	127,698
61,188	-11,255	273,312	127,887
62,203	-11,330	273,014	127,666
63,217	-11,282	272,806	127,602
64,232	-11,424	272,509	127,319
65,247	-11,240	272,309	127,385
66,261	-11,435	272,163	127,124
67,276	-11,610	271,812	126,787
68,290	-11,713	271,549	126,558
69,305	-11,741	271,385	126,445
70,320	-11,586	271,071	126,430
71,334	-11,607	271,025	126,378
72,349	-11,508	270,649	126,283
73,363	-11,278	270,511	126,419
74,378	-11,451	270,410	126,201
75,393	-11,392	270,166	126,130
76,407	-11,389	269,801	125,952
77,422	-11,307	269,660	125,949
78,436	-11,144	269,407	125,970
79,451	-11,212	269,196	125,797
80,466	-11,609	269,043	125,352
81,480	-11,422	268,643	125,324
82,495	-11,444	268,536	125,243
83,509	-11,673	268,347	124,935
84,524	-11,539	268,016	124,893
85,539	-11,674	267,819	124,666
86,553	-11,778	267,652	124,483
87,568	-11,441	267,455	124,686
88,582	-11,484	267,202	124,519
89,597	-11,606	267,121	124,359
90,611	-11,458	266,877	124,369
91,626	-11,424	266,759	124,333
92,641	-11,459	266,540	124,188
93,655	-11,329	266,151	124,113
94,670	-11,653	266,007	123,742
95,684	-11,491	265,968	123,860
96,699	-11,500	265,774	123,750
97,714	-11,462	265,461	123,628
98,728	-11,621	265,302	123,400
99,743	-11,736	265,080	123,181
100,757	-11,614	264,802	123,151
101,772	-11,606	264,630	123,067
102,787	-11,712	264,590	122,943
103,801	-11,707	264,358	122,828
104,816	-11,416	264,032	122,926
105,830	-11,327	263,896	122,932
106,845	-11,399	263,800	122,811
107,860	-11,223	263,445	122,792
108,874	-11,543	263,341	122,448
109,889	-11,328	263,112	122,522
110,903	-11,293	262,839	122,415
111,918	-11,387	262,600	122,209
112,933	-11,450	262,474	122,084
113,947	-11,282	262,383	122,180
114,962	-11,379	262,040	121,923
115,976	-11,509	262,033	121,794
116,991	-11,290	261,663	121,805
118,006	-11,399	261,534	121,637
119,020	-11,472	261,389	121,494
120,035	-11,406	261,465	121,577
121,049	-11,399	261,285	121,489
122,064	-11,501	260,808	121,166
123,079	-11,348	260,650	121,217
124,093	-11,468	260,465	121,014
125,108	-11,685	260,080	120,634
126,122	-11,752	259,989	120,522
127,137	-11,871	259,587	120,220
128,151	-12,011	259,609	120,096
129,166	-11,556	259,383	120,380
130,181	-11,546	259,028	120,214
131,195	-11,633	258,841	120,040
132,210	-11,457	258,786	120,158
133,224	-11,420	258,525	120,059
134,239	-11,424	258,448	120,009
135,254	-11,470	258,261	119,871
136,268	-11,568	257,971	119,640
137,283	-11,800	257,788	119,342
138,297	-11,914	257,465	119,083
139,312	-11,887	257,174	118,961
140,327	-11,537	257,072	119,208
141,341	-11,364	257,214	119,413
142,356	-11,198	256,908	119,405
143,370	-11,246	256,721	119,266
144,385	-11,117	256,623	119,321
145,400	-11,361	256,449	119,019
146,414	-11,268	256,091	118,923
147,429	-11,196	255,849	118,861
148,443	-10,921	255,754	119,044
149,458	-11,111	255,611	118,803
150,473	-11,127	255,393	118,677
151,487	-11,431	255,136	118,285
152,502	-11,257	255,086	118,402
153,516	-11,236	254,853	118,301
154,531	-11,068	254,616	118,325
155,546	-11,326	254,451	118,016
156,560	-11,414	254,389	117,901
157,575	-11,376	254,203	117,837
158,589	-11,292	253,842	117,731
159,604	-11,204	253,764	117,759
160,619	-11,171	253,519	117,664
161,633	-11,432	253,416	117,383
162,648	-11,388	253,338	117,373
163,662	-11,255	253,192	117,409
164,677	-11,165	252,846	117,314
165,692	-11,070	252,770	117,350
166,706	-11,213	252,582	117,131
167,721	-11,276	252,394	116,978
168,735	-11,346	252,173	116,806
169,750	-11,254	252,193	116,883
170,764	-11,102	251,877	116,855
171,779	-11,096	251,779	116,805
172,794	-11,169	251,461	116,585
173,808	-11,398	251,301	116,307
174,823	-11,468	251,087	116,138
175,837	-11,924	250,943	115,675
176,852	-11,475	250,918	116,033
177,867	-11,326	250,642	116,021
178,881	-11,155	250,547	116,111
179,896	-11,074	250,386	116,094
180,910	-11,006	250,197	116,054
181,925	-11,185	249,875	115,743
182,940	-11,010	249,809	115,849
183,954	-11,172	249,826	115,711
184,969	-11,289	249,517	115,459
185,983	-11,276	249,492	115,448
186,998	-11,104	249,171	115,434
188,013	-11,128	248,859	115,259
189,027	-11,104	248,717	115,203
190,042	-11,254	248,755	115,085
191,056	-11,279	248,605	114,983
192,071	-11,096	248,263	114,969
193,086	-11,093	248,108	114,889
194,100	-10,992	247,703	114,775
195,115	-10,821	247,718	114,915
196,129	-11,103	247,476	114,558
197,144	-10,867	247,206	114,618
198,159	-11,195	247,242	114,352
199,173	-11,098	246,985	114,304
200,188	-11,237	246,822	114,103
201,202	-11,315	246,556	113,905
202,217	-11,438	246,288	113,669
203,232	-11,830	246,078	113,238
204,246	-11,245	246,103	113,723
205,261	-10,877	245,958	113,950
206,275	-11,742	245,622	113,070
207,290	-7,124	247,511	117,770
208,304	1,019	250,017	125,769
209,319	4,271	250,927	128,939
210,334	4,699	250,854	129,247
211,348	4,935	250,756	129,382
212,363	5,064	250,653	129,425
213,377	5,154	250,630	129,477
214,392	5,064	250,529	129,338
215,407	5,017	250,310	129,174
216,421	5,011	249,990	128,992
217,436	5,122	249,931	129,043
218,450	5,260	249,770	129,063
219,465	5,209	249,372	128,803
220,480	4,765	249,462	128,470
221,494	4,725	249,296	128,340
222,509	4,701	249,173	128,245
223,523	4,699	248,800	128,039
224,538	4,385	248,434	127,581
225,553	4,501	248,416	127,656
226,567	4,863	248,286	127,877
227,582	4,650	248,118	127,603
228,596	4,724	248,032	127,608
229,611	4,251	247,926	127,152
230,626	4,330	247,443	126,959
231,640	4,359	247,444	126,972
232,655	4,515	247,285	127,007
233,669	4,417	247,000	126,768
234,684	4,101	246,898	126,445
235,699	4,591	246,955	126,866
236,713	4,752	246,711	126,861
237,728	4,525	246,415	126,511
238,742	4,502	246,327	126,436
239,757	4,339	246,067	126,158
240,772	4,274	245,889	126,003
241,786	4,506	245,825	126,148
242,801	4,328	245,761	125,959
243,815	4,291	245,467	125,767
244,830	4,417	245,507	125,879
245,844	4,634	245,231	125,903
246,859	4,211	245,009	125,434
247,874	4,305	244,890	125,438
248,888	4,420	244,575	125,358
249,903	4,517	244,552	125,414
250,917	4,854	244,366	125,581
251,932	4,964	244,261	125,605
252,947	4,839	244,110	125,415
253,961	4,505	244,035	125,095
254,976	4,357	243,710	124,797
255,990	4,888	243,585	125,152
257,005	4,467	243,307	124,658
258,020	4,234	243,248	124,428
259,034	4,325	243,077	124,403
260,049	4,439	242,975	124,431
261,063	4,345	242,728	124,219
262,078	4,301	242,598	124,106
263,093	4,589	242,538	124,296
264,107	4,748	242,422	124,352
265,122	4,370	242,168	123,908
266,136	4,565	242,059	123,997
267,151	4,643	242,045	124,042
268,166	4,252	241,697	123,539
269,180	4,138	241,631	123,403
270,195	5,111	241,563	124,136
271,209	5,150	241,401	124,073
272,224	4,639	241,128	123,514
273,239	4,083	240,788	122,885
274,253	4,310	240,641	122,980
275,268	4,415	240,759	123,113
276,282	4,600	240,383	123,057
277,297	4,368	240,230	122,783
278,312	4,220	240,107	122,591
279,326	4,555	240,006	122,795
280,341	4,488	239,939	122,697
281,355	4,360	239,830	122,529
282,370	4,536	239,722	122,602
283,384	4,450	239,424	122,371
284,399	4,331	239,165	122,133
285,414	4,309	239,020	122,030
286,428	4,284	239,077	122,028
287,443	4,340	238,836	121,940
288,457	4,491	238,720	121,988
289,472	4,731	238,534	122,072
290,487	4,455	238,330	121,739
291,501	4,284	238,271	121,563
292,516	4,239	238,038	121,398
293,530	4,254	237,954	121,356
294,545	4,309	237,717	121,268
295,560	4,687	237,544	121,466
296,574	4,103	237,352	120,898
297,589	4,405	237,241	121,068
298,603	4,675	237,210	121,253
299,618	4,693	237,030	121,164
300,633	4,615	236,947	121,050
301,647	4,707	236,869	121,071
302,662	4,872	236,758	121,133
303,676	5,067	236,455	121,120
304,691	4,681	236,492	120,826
305,706	4,969	236,321	120,953
306,720	5,048	236,093	120,887
307,735	4,645	235,946	120,487
308,749	4,601	235,741	120,337
309,764	4,465	235,444	120,069
310,779	4,331	235,186	119,823
311,793	4,250	234,959	119,633
312,808	4,232	234,930	119,594
313,822	4,073	234,697	119,341
314,837	4,069	234,642	119,299
315,852	4,062	234,528	119,226
316,866	4,609	234,575	119,662
317,881	4,832	234,492	119,782
318,895	4,914	234,434	119,805
319,910	5,002	234,233	119,760
320,925	4,565	233,917	119,251
321,939	4,126	233,606	118,743
322,954	4,399	233,769	119,026
323,968	4,615	233,511	119,051
324,983	4,579	233,430	118,971
325,997	4,789	233,295	119,052
327,012	4,673	233,078	118,842
328,027	4,750	232,791	118,745
329,041	4,857	232,804	118,822
330,056	5,341	232,707	119,133
331,070	5,085	232,691	118,918
332,085	4,894	232,321	118,573
333,100	4,548	232,218	118,245
334,114	4,545	232,171	118,208
335,129	4,865	232,067	118,389
336,143	4,893	231,757	118,242
337,158	4,880	231,611	118,146
338,173	4,461	231,528	117,774
339,187	4,495	231,241	117,644
340,202	4,691	231,177	117,750
341,216	4,555	230,950	117,520
342,231	4,474	230,854	117,399
343,246	4,299	230,706	117,181
344,260	4,642	230,658	117,406
345,275	4,791	230,480	117,418
346,289	4,860	230,334	117,386
347,304	5,016	230,128	117,388
348,319	4,966	230,110	117,331
349,333	4,673	229,742	116,912
350,348	4,515	229,669	116,744
351,362	4,623	229,520	116,740
352,377	4,486	229,358	116,544
353,392	4,390	229,122	116,341
354,406	4,144	229,097	116,132
355,421	193,955	1319,178	1389,628
356,435	155,510	1451,951	1389,577
