DTS Sentinel unit serial number:	SN410029Multiplexer serial number:	ORYXHardware model number:	OX2-SRSoftware version number:	ORYX F/W v4,00 Oryx Data Collector v3.7.2.0data status	okinstallation	B5 Nyhavnadifferential loss correction	single-endedforward channel	channel 2reverse channel	N/Adate	2023/12/14time	03:52:13forward acquisition time	300,00reverse acquisition time	0,00gamma	499,1914k internal	0,3156k external	0,3156temperature offset calibration	1,0000default loss term (dB/km)	0,3820temperature slope calibration	1,0000multiplexer offset coefficient	1,0000multiplexer slope coefficient	1,0000fibre end	0,00T internal ref (°C)	8,06T ext. ref 1 (°C)	-8,36T ext. ref 2 (°C)	-8,44length (m)	temperature (°C)	Stokes	anti-Stokes-744,400	9,199	0,107	0,060
-743,385	-169,250	-0,327	0,009
-742,371	-17,474	0,283	0,131
-741,356	-29,565	-0,454	-0,190
-740,342	201,778	0,124	0,141
-739,327	-50,952	-0,399	-0,137
-738,312	-200,000	0,002	-0,008
-737,298	-36,883	-0,476	-0,187
-736,283	800,000	-0,039	0,119
-735,269	-171,802	-0,429	0,010
-734,254	256,032	0,100	0,127
-733,239	51,442	-0,454	-0,317
-732,225	-51,494	0,279	0,095
-731,210	140,685	-0,154	-0,150
-730,196	-165,364	-0,090	0,003
-729,181	-110,823	-0,221	-0,033
-728,167	-45,941	-0,071	0,026
-727,152	800,000	0,053	0,126
-726,137	-200,000	-0,013	-0,065
-725,123	-200,000	-0,001	-0,037
-724,108	298,495	-0,051	-0,069
-723,094	-200,000	-0,016	-0,143
-722,079	579,329	-0,023	-0,041
-721,064	-200,000	0,016	-0,073
-720,050	-200,000	-0,000	-0,057
-719,035	100,615	-0,086	0,074
-718,021	476,651	-0,094	-0,157
-717,006	-200,000	-0,034	-0,113
-715,991	-200,000	0,013	-0,093
-714,977	-200,000	-0,009	0,101
-713,962	2,295	0,020	-0,011
-712,948	141,657	-0,054	0,053
-711,933	-104,945	-0,060	0,010
-710,918	216,054	-0,028	0,032
-709,904	-13,082	0,024	0,011
-708,889	-17,070	0,034	-0,016
-707,875	-119,177	-0,025	-0,003
-706,860	41,418	-0,119	0,079
-705,845	-89,333	-0,128	0,027
-704,831	18,683	0,078	0,046
-703,816	28,776	0,032	-0,020
-702,802	800,000	0,027	-0,069
-701,787	-39,849	-0,210	-0,080
-700,772	464,268	-0,046	0,077
-699,758	-126,037	0,062	0,007
-698,743	48,320	-0,106	-0,073
-697,729	256,877	0,034	0,043
-696,714	-200,000	0,017	0,075
-695,699	351,176	-0,033	0,049
-694,685	-173,724	-0,121	-0,003
-693,670	757,557	-0,050	-0,100
-692,656	29,719	0,072	-0,045
-691,641	-200,000	0,001	-0,029
-690,627	1,975	0,098	-0,052
-689,612	137,208	-0,093	0,089
-688,597	-49,085	-0,090	0,031
-687,583	-200,000	0,017	-0,093
-686,568	-182,469	-0,056	0,001
-685,554	226,441	-0,041	-0,050
-684,539	187,090	0,150	0,165
-683,524	-28,040	-0,070	-0,030
-682,510	800,000	0,046	-0,105
-681,495	-100,551	-0,068	-0,012
-680,481	52,854	-0,072	-0,051
-679,466	34,512	0,062	-0,040
-678,451	-117,168	0,100	-0,013
-677,437	641,956	-0,072	-0,136
-676,422	220,675	-0,031	-0,036
-675,408	-113,123	-0,101	0,015
-674,393	-200,000	-0,007	0,122
-673,378	800,000	-0,053	-0,120
-672,364	-148,837	-0,020	-0,001
-671,349	229,376	0,096	-0,116
-670,335	216,290	-0,128	-0,150
-669,320	-37,817	0,078	-0,030
-668,305	461,861	-0,033	0,055
-667,291	-9,050	0,148	0,073
-666,276	-172,229	-0,032	0,001
-665,262	-32,468	0,044	-0,018
-664,247	-80,719	0,076	-0,018
-663,232	66,120	0,006	0,005
-662,218	-149,089	-0,147	0,009
-661,203	-137,711	0,132	-0,011
-660,189	74,241	0,121	0,094
-659,174	-100,410	-0,046	0,008
-658,159	-200,000	-0,036	-0,163
-657,145	-46,762	-0,044	-0,016
-656,130	20,636	-0,100	-0,060
-655,116	-76,630	0,089	0,023
-654,101	338,403	0,047	-0,068
-653,086	103,296	0,126	0,109
-652,072	-25,449	-0,079	0,034
-651,057	318,974	-0,060	-0,083
-650,043	800,000	0,046	0,112
-649,028	800,000	0,027	-0,061
-648,014	800,000	0,067	-0,201
-646,999	-77,921	0,029	-0,007
-645,984	-98,782	0,208	-0,039
-644,970	-31,565	0,079	0,033
-643,955	800,000	-0,047	-0,123
-642,941	-200,000	0,006	-0,087
-641,926	-200,000	0,028	0,153
-640,911	-200,000	-0,002	-0,092
-639,897	-200,000	-0,007	0,045
-638,882	-127,889	-0,065	-0,007
-637,868	800,000	-0,019	-0,044
-636,853	341,073	-0,059	0,085
-635,838	-116,689	-0,175	0,023
-634,824	115,854	-0,046	-0,042
-633,809	246,326	-0,071	-0,088
-632,795	40,312	0,168	-0,111
-631,780	-200,000	-0,029	0,106
-630,765	800,000	0,028	0,071
-629,751	-103,023	-0,132	-0,023
-628,736	381,951	0,048	-0,073
-627,722	-131,550	-0,047	-0,004
-626,707	-138,227	0,111	-0,009
-625,692	-200,000	0,019	0,118
-624,678	-71,815	-0,133	0,036
-623,663	-171,821	0,050	0,001
-622,649	-116,368	-0,177	0,024
-621,634	-49,056	0,086	0,030
-620,619	-200,000	0,009	0,036
-619,605	-200,000	0,022	0,107
-618,590	-200,000	-0,004	-0,018
-617,576	123,200	-0,041	-0,038
-616,561	-200,000	-0,010	-0,042
-615,546	201,646	0,048	-0,054
-614,532	-200,000	0,017	-0,146
-613,517	182,392	-0,054	-0,058
-612,503	-78,322	0,111	-0,028
-611,488	-55,619	-0,074	0,024
-610,474	-11,504	0,065	0,031
-609,459	-56,483	-0,062	0,020
-608,444	-200,000	-0,008	-0,084
-607,430	10,317	-0,142	-0,079
-606,415	74,357	-0,073	0,056
-605,401	28,019	-0,069	-0,042
-604,386	466,414	-0,075	-0,123
-603,371	-200,000	-0,013	0,088
-602,357	-60,888	-0,087	0,027
-601,342	155,361	0,039	-0,039
-600,328	-200,000	-0,040	-0,182
-599,313	-164,660	-0,063	-0,002
-598,298	38,897	0,110	-0,072
-597,284	17,486	-0,177	-0,103
-596,269	-200,000	0,001	0,125
-595,255	265,333	0,011	0,014
-594,240	164,456	-0,057	-0,059
-593,225	300,507	0,022	-0,029
-592,211	-73,764	0,027	0,007
-591,196	293,559	-0,043	0,058
-590,182	150,661	0,077	-0,077
-589,167	-200,000	-0,018	0,093
-588,152	159,109	0,116	0,118
-587,138	179,748	-0,035	-0,038
-586,123	-200,000	0,017	0,113
-585,109	-200,000	0,028	-0,117
-584,094	152,610	-0,024	-0,024
-583,079	-57,509	0,074	-0,024
-582,065	-51,360	-0,032	-0,011
-581,050	-51,922	-0,104	0,035
-580,036	19,095	-0,063	-0,037
-579,021	135,878	-0,035	-0,033
-578,006	30,919	-0,076	-0,048
-576,992	-200,000	-0,032	-0,123
-575,977	-63,565	0,049	0,015
-574,963	-200,000	0,008	0,027
-573,948	35,320	0,133	0,085
-572,934	-24,409	0,123	0,054
-571,919	-137,143	-0,100	-0,008
-570,904	-56,581	-0,096	-0,031
-569,890	-38,203	-0,039	0,015
-568,875	-200,000	0,004	-0,144
-567,861	-22,142	-0,038	0,017
-566,846	800,000	-0,023	-0,052
-565,831	15,899	0,059	-0,034
-564,817	800,000	-0,016	0,036
-563,802	-60,420	0,043	0,013
-562,788	800,000	0,018	0,048
-561,773	437,655	-0,023	0,037
-560,758	-12,321	0,141	-0,067
-559,744	-200,000	0,001	0,102
-558,729	800,000	0,064	0,142
-557,715	107,474	-0,070	-0,061
-556,700	-200,000	0,012	-0,078
-555,685	394,928	0,072	0,111
-554,671	-91,402	0,167	0,035
-553,656	-98,484	0,067	0,012
-552,642	222,276	-0,051	-0,060
-551,627	-200,000	0,006	-0,063
-550,612	800,000	-0,030	-0,076
-549,598	-200,000	-0,004	-0,021
-548,583	800,000	0,028	0,075
-547,569	347,219	-0,066	0,096
-546,554	-200,000	-0,008	0,091
-545,539	305,582	-0,091	0,123
-544,525	234,029	-0,038	0,046
-543,510	-119,053	-0,105	0,013
-542,496	800,000	-0,016	-0,049
-541,481	145,044	0,023	0,023
-540,466	-200,000	0,039	-0,152
-539,452	800,000	-0,015	0,035
-538,437	562,873	-0,040	-0,071
-537,423	-200,000	-0,039	0,141
-536,408	-104,185	0,064	0,011
-535,393	-200,000	0,029	-0,135
-534,379	800,000	0,021	-0,067
-533,364	101,172	-0,062	-0,053
-532,350	-200,000	0,009	0,046
-531,335	-200,000	-0,027	0,095
-530,321	-200,000	-0,037	0,160
-529,306	96,473	-0,068	0,057
-528,291	105,344	-0,080	-0,069
-527,277	46,429	-0,090	-0,061
-526,262	-120,769	-0,053	-0,006
-525,248	60,129	-0,052	0,038
-524,233	-200,000	0,022	0,076
-523,218	800,000	0,024	-0,052
-522,204	578,430	0,077	-0,138
-521,189	800,000	-0,032	-0,091
-520,175	348,127	0,042	0,061
-519,160	-103,813	-0,126	-0,021
-518,145	800,000	-0,009	-0,019
-517,131	615,205	-0,026	0,047
-516,116	162,291	0,037	-0,037
-515,102	333,719	-0,114	-0,161
-514,087	800,000	0,058	0,137
-513,072	-19,798	0,043	0,019
-512,058	-200,000	-0,026	-0,102
-511,043	-61,802	-0,083	-0,025
-510,029	-99,726	-0,029	-0,005
-509,014	734,120	-0,035	0,069
-507,999	-128,504	0,091	0,009
-506,985	515,164	0,018	-0,030
-505,970	393,053	0,139	-0,212
-504,956	115,523	-0,092	-0,082
-503,941	114,921	0,099	-0,088
-502,926	800,000	0,050	0,110
-501,912	-200,000	0,026	-0,100
-500,897	212,879	-0,077	0,089
-499,883	-200,000	0,002	0,026
-498,868	-85,155	-0,127	-0,029
-497,853	-200,000	-0,002	-0,034
-496,839	677,244	-0,055	-0,104
-495,824	-200,000	-0,012	-0,152
-494,810	152,057	-0,020	-0,020
-493,795	-200,000	-0,010	0,206
-492,781	598,918	0,086	-0,157
-491,766	440,310	-0,101	-0,161
-490,751	92,987	-0,090	-0,074
-489,737	-200,000	-0,025	-0,139
-488,722	800,000	0,026	-0,055
-487,708	-63,973	0,059	0,018
-486,693	716,102	-0,075	0,146
-485,678	-200,000	-0,017	-0,104
-484,664	-200,000	-0,024	-0,081
-483,649	20,144	-0,078	-0,046
-482,635	800,000	0,052	0,150
-481,620	132,835	0,059	-0,056
-480,605	-200,000	-0,025	0,087
-479,591	-200,000	-0,004	0,121
-478,576	747,144	0,015	0,029
-477,562	-18,014	-0,199	-0,091
-476,547	-200,000	-0,003	-0,115
-475,532	69,524	0,072	0,054
-474,518	32,168	-0,091	-0,057
-473,503	-63,002	0,090	-0,027
-472,489	-200,000	-0,010	-0,082
-471,474	91,765	0,023	0,019
-470,459	-200,000	0,005	0,101
-469,445	145,673	-0,054	0,053
-468,430	-200,000	0,009	-0,043
-467,416	65,532	0,068	0,050
-466,401	504,097	0,051	0,086
-465,386	83,620	-0,027	0,021
-464,372	353,004	-0,016	-0,023
-463,357	800,000	-0,039	-0,115
-462,343	-110,485	-0,127	-0,019
-461,328	-137,982	0,082	0,007
-460,313	282,123	0,029	-0,039
-459,299	555,116	0,100	0,177
-458,284	-102,833	-0,090	-0,015
-457,270	800,000	0,027	0,063
-456,255	21,376	-0,086	-0,051
-455,241	309,111	-0,080	-0,110
-454,226	-88,752	0,149	0,032
-453,211	-200,000	0,030	0,112
-452,197	400,019	0,020	-0,031
-451,182	-200,000	0,044	0,143
-450,168	114,247	-0,061	-0,054
-449,153	800,000	0,038	0,082
-448,138	800,000	0,014	-0,038
-447,124	234,145	0,008	-0,010
-446,109	161,499	0,159	-0,163
-445,095	-97,135	-0,076	-0,014
-444,080	-200,000	-0,032	-0,134
-443,065	-32,930	0,153	0,062
-442,051	79,147	-0,083	0,064
-441,036	800,000	-0,016	-0,037
-440,022	-200,000	0,009	-0,119
-439,007	97,201	0,129	-0,108
-437,992	-37,686	0,063	0,024
-436,978	-45,379	0,040	0,014
-435,963	195,447	0,048	-0,054
-434,949	91,852	0,127	0,104
-433,934	667,176	-0,079	-0,149
-432,919	-185,675	-0,110	0,001
-431,905	-67,940	-0,023	0,007
-430,890	800,000	0,003	-0,008
-429,876	-134,515	0,099	0,009
-428,861	25,492	0,085	-0,051
-427,846	800,000	-0,043	-0,105
-426,832	-3,889	-0,121	-0,061
-425,817	150,918	0,043	0,042
-424,803	-200,000	0,042	-0,177
-423,788	-200,000	-0,000	0,040
-422,773	-101,065	0,048	-0,009
-421,759	-91,238	-0,030	0,006
-420,744	389,594	-0,062	-0,093
-419,730	-62,884	-0,017	0,005
-418,715	-59,686	0,112	0,035
-417,701	-54,912	0,052	-0,017
-416,686	-93,078	0,063	0,013
-415,671	800,000	-0,025	0,058
-414,657	13,188	0,103	-0,058
-413,642	222,883	-0,035	0,041
-412,628	137,666	0,085	-0,081
-411,613	63,193	-0,055	0,040
-410,598	546,138	0,083	-0,145
-409,584	-200,000	-0,001	-0,034
-408,569	-200,000	-0,013	0,085
-407,555	100,701	0,076	0,064
-406,540	305,993	0,010	-0,014
-405,525	-200,000	-0,001	-0,046
-404,511	201,845	-0,059	-0,066
-403,496	-102,681	-0,075	-0,013
-402,482	-200,000	-0,022	0,122
-401,467	186,166	0,084	0,091
-400,452	394,155	0,035	0,054
-399,438	-92,218	0,078	0,016
-398,423	39,554	-0,062	0,040
-397,409	725,452	-0,047	0,091
-396,394	-46,031	-0,152	-0,054
-395,379	796,578	0,064	0,128
-394,365	-200,000	0,006	0,024
-393,350	-54,326	0,069	-0,023
-392,336	-200,000	0,015	-0,087
-391,321	-81,620	0,049	0,012
-390,306	27,198	0,126	-0,077
-389,292	-200,000	0,003	-0,039
-388,277	-145,891	0,069	0,004
-387,263	87,920	0,104	-0,084
-386,248	-193,086	-0,067	0,000
-385,233	-151,992	0,048	0,003
-384,219	-200,000	0,053	0,172
-383,204	-92,342	-0,011	0,002
-382,190	-117,438	0,070	0,009
-381,175	-200,000	0,026	0,235
-380,160	141,557	0,129	0,124
-379,146	236,292	0,136	0,164
-378,131	-200,000	-0,043	0,261
-377,117	-200,000	0,036	-0,123
-376,102	354,598	-0,066	-0,096
-375,088	168,369	0,068	-0,070
-374,073	-200,000	0,045	0,144
-373,058	-200,000	0,020	0,068
-372,044	-54,535	0,083	-0,027
-371,029	565,847	-0,015	-0,026
-370,015	-65,726	0,065	-0,019
-369,000	396,790	0,012	0,018
-367,985	469,357	-0,043	0,070
-366,971	113,987	0,027	0,024
-365,956	800,000	0,026	0,052
-364,942	800,000	-0,045	-0,119
-363,927	-137,617	-0,066	-0,005
-362,912	140,624	0,113	0,108
-361,898	-194,819	-0,120	-0,001
-360,883	-200,000	0,016	0,138
-359,869	800,000	-0,063	0,142
-358,854	209,637	-0,061	0,069
-357,839	-40,156	0,125	0,047
-356,825	-76,646	0,033	0,008
-355,810	-200,000	-0,016	0,080
-354,796	-200,000	-0,024	0,078
-353,781	-101,133	-0,053	0,009
-352,766	-200,000	-0,026	-0,149
-351,752	800,000	0,003	-0,009
-350,737	3,403	-0,058	0,031
-349,723	-32,168	0,146	-0,059
-348,708	800,000	-0,015	0,044
-347,693	278,435	-0,114	0,148
-346,679	-200,000	0,025	-0,102
-345,664	-200,000	-0,010	-0,084
-344,650	-122,156	0,052	-0,006
-343,635	-51,289	0,080	0,027
-342,620	-200,000	0,032	-0,133
-341,606	254,419	-0,049	-0,061
-340,591	570,626	-0,028	-0,050
-339,577	159,418	-0,122	-0,123
-338,562	347,545	-0,055	-0,079
-337,548	-113,094	-0,140	0,020
-336,533	-18,831	0,249	0,112
-335,518	334,947	0,025	-0,035
-334,504	-200,000	-0,051	0,206
-333,489	800,000	-0,016	0,039
-332,475	519,773	-0,058	-0,099
-331,460	-9,739	-0,035	0,017
-330,445	-200,000	-0,009	0,084
-329,431	16,071	0,057	-0,032
-328,416	-200,000	0,013	-0,061
-327,402	8,582	-0,113	-0,061
-326,387	174,659	0,063	-0,066
-325,372	800,000	-0,052	-0,155
-324,358	800,000	0,032	-0,069
-323,343	116,197	0,016	-0,014
-322,329	-65,974	0,155	-0,045
-321,314	-6,180	-0,034	0,017
-320,299	800,000	0,050	0,136
-319,285	249,295	0,074	0,091
-318,270	-80,419	-0,091	-0,022
-317,256	1,642	-0,043	-0,022
-316,241	-200,000	-0,008	0,108
-315,226	-200,000	0,023	0,114
-314,212	18,695	-0,026	-0,015
-313,197	649,417	0,036	0,067
-312,183	7,520	-0,123	-0,067
-311,168	21,121	-0,140	0,082
-310,153	800,000	0,020	0,052
-309,139	174,630	0,083	0,087
-308,124	-176,635	0,109	0,002
-307,110	800,000	0,007	-0,023
-306,095	-96,639	-0,053	0,010
-305,080	565,381	0,065	0,115
-304,066	-107,252	-0,056	-0,009
-303,051	-101,812	-0,073	0,013
-302,037	35,445	-0,097	0,062
-301,022	564,220	-0,046	-0,081
-300,008	25,772	0,112	0,067
-298,993	17,036	0,076	0,043
-297,978	800,000	-0,023	0,053
-296,964	-86,139	-0,035	0,008
-295,949	-200,000	-0,024	-0,102
-294,935	-197,384	0,120	0,001
-293,920	-133,774	-0,112	-0,010
-292,905	657,335	0,020	0,037
-291,891	-200,000	0,022	0,155
-290,876	-54,715	-0,131	-0,043
-289,862	-200,000	-0,006	-0,079
-288,847	-122,289	-0,124	-0,014
-287,832	800,000	-0,061	0,147
-286,818	-107,392	-0,088	-0,014
-285,803	288,237	0,127	-0,167
-284,789	205,920	-0,057	0,064
-283,774	197,018	0,086	0,095
-282,759	-200,000	0,030	0,102
-281,745	-200,000	-0,015	-0,087
-280,730	-105,412	0,095	-0,015
-279,716	54,635	0,095	0,066
-278,701	800,000	-0,036	-0,076
-277,686	139,455	0,029	0,028
-276,672	340,652	0,020	-0,029
-275,657	43,870	-0,036	-0,024
-274,643	177,827	-0,065	-0,069
-273,628	82,565	-0,044	-0,034
-272,613	-77,161	-0,053	-0,013
-271,599	-157,605	0,153	0,007
-270,584	-200,000	-0,010	0,142
-269,570	-74,346	0,089	0,023
-268,555	800,000	-0,031	0,082
-267,540	800,000	-0,026	0,078
-266,526	521,656	0,097	0,166
-265,511	800,000	-0,052	-0,157
-264,497	800,000	-0,035	0,101
-263,482	152,898	-0,043	0,042
-262,467	-200,000	0,001	-0,039
-261,453	800,000	0,029	-0,066
-260,438	-62,803	-0,073	-0,022
-259,424	-78,683	0,014	0,003
-258,409	800,000	0,048	-0,110
-257,395	-200,000	-0,028	0,145
-256,380	800,000	0,035	0,094
-255,365	-179,921	0,074	0,001
-254,351	-58,566	0,108	0,034
-253,336	-140,209	-0,115	-0,009
-252,322	-200,000	0,028	-0,147
-251,307	14,802	-0,064	-0,036
-250,292	-200,000	-0,002	0,037
-249,278	-34,723	0,056	-0,022
-248,263	-200,000	-0,010	-0,040
-247,249	-200,000	-0,007	0,095
-246,234	43,276	-0,058	0,038
-245,219	141,522	-0,064	0,062
-244,205	-95,631	-0,030	0,006
-243,190	279,520	-0,030	-0,039
-242,176	20,401	-0,050	-0,029
-241,161	-200,000	0,005	0,070
-240,146	524,648	0,073	0,124
-239,132	800,000	0,043	-0,098
-238,117	-200,000	0,006	0,058
-237,103	359,516	-0,054	-0,078
-236,088	285,538	-0,049	-0,064
-235,073	-73,209	0,116	0,030
-234,059	100,505	-0,052	-0,044
-233,044	-3,966	0,022	0,011
-232,030	-4,490	-0,115	-0,057
-231,015	-74,405	-0,058	-0,015
-230,000	-33,937	0,112	0,044
-228,986	-200,000	-0,055	-0,180
-227,971	-132,129	-0,007	0,001
-226,957	-200,000	-0,027	-0,109
-225,942	800,000	-0,021	0,061
-224,927	65,172	-0,037	-0,027
-223,913	275,160	-0,028	-0,036
-222,898	-200,000	-0,032	-0,113
-221,884	284,976	-0,034	0,044
-220,869	-86,101	-0,045	-0,010
-219,855	800,000	0,099	-0,210
-218,840	-16,691	-0,087	0,040
-217,825	-200,000	0,009	-0,077
-216,811	-71,385	0,080	-0,022
-215,796	-88,815	-0,041	-0,009
-214,782	-200,000	0,007	0,026
-213,767	206,246	-0,026	-0,029
-212,752	198,493	0,092	0,102
-211,738	800,000	-0,017	-0,050
-210,723	-200,000	-0,029	0,119
-209,709	139,898	-0,043	0,041
-208,694	103,068	-0,063	-0,053
-207,679	334,103	0,047	-0,065
-206,665	28,034	0,033	0,020
-205,650	800,000	-0,019	0,041
-204,636	12,445	0,047	0,026
-203,621	112,544	0,093	0,081
-202,606	800,000	0,046	0,108
-201,592	-54,236	-0,090	-0,029
-200,577	86,503	-0,087	0,069
-199,563	800,000	-0,031	0,093
-198,548	-23,722	0,033	-0,014
-197,533	214,590	0,102	0,117
-196,519	-17,558	0,033	-0,015
-195,504	-200,000	0,005	-0,033
-194,490	-200,000	-0,009	0,102
-193,475	-181,079	0,091	0,001
-192,460	521,975	-0,101	0,172
-191,446	268,329	0,078	0,099
-190,431	-146,861	-0,080	0,005
-189,417	-167,542	-0,157	-0,004
-188,402	393,086	0,077	0,115
-187,387	-167,333	0,057	-0,002
-186,373	-178,866	0,079	-0,001
-185,358	-200,000	0,030	0,099
-184,344	-42,804	0,213	0,078
-183,329	66,967	0,011	-0,008
-182,315	568,982	-0,036	0,064
-181,300	161,771	-0,090	0,091
-180,285	-4,122	0,122	0,061
-179,271	-34,705	-0,038	0,015
-178,256	-1,209	-0,023	0,012
-177,242	22,968	0,090	-0,053
-176,227	279,409	0,059	0,076
-175,212	221,766	0,143	0,166
-174,198	-117,550	0,115	-0,015
-173,183	-117,340	0,033	-0,004
-172,169	800,000	0,059	-0,137
-171,154	-200,000	0,000	-0,015
-170,139	-21,077	0,039	0,017
-169,125	800,000	-0,027	-0,079
-168,110	-77,269	-0,049	0,012
-167,096	192,049	-0,043	0,047
-166,081	-13,436	-0,183	-0,085
-165,066	-200,000	-0,003	-0,147
-164,052	800,000	0,014	-0,029
-163,037	43,350	0,041	-0,027
-162,023	-200,000	0,006	-0,037
-161,008	353,790	-0,024	-0,035
-159,993	-200,000	-0,008	-0,030
-158,979	12,880	-0,128	-0,071
-157,964	-200,000	0,001	-0,028
-156,950	-15,067	-0,069	0,032
-155,935	258,057	0,054	-0,067
-154,920	-132,806	-0,125	-0,011
-153,906	44,923	-0,072	0,048
-152,891	-120,735	0,030	0,004
-151,877	173,915	0,152	-0,158
-150,862	658,318	-0,061	-0,114
-149,847	184,122	-0,009	-0,009
-148,833	-24,172	-0,040	-0,017
-147,818	-27,737	0,103	-0,043
-146,804	-93,472	0,113	-0,022
-145,789	-87,939	0,076	-0,016
-144,775	49,440	0,079	-0,053
-143,760	-37,857	-0,113	-0,043
-142,745	19,495	0,045	0,026
-141,731	290,797	0,056	0,074
-140,716	800,000	-0,074	0,158
-139,702	800,000	-0,024	-0,075
-138,687	-200,000	0,034	0,147
-137,672	-107,942	0,052	0,008
-136,658	-200,000	-0,007	-0,080
-135,643	-150,169	-0,117	-0,006
-134,629	-91,358	0,064	-0,013
-133,614	155,864	-0,025	-0,025
-132,599	32,452	-0,079	0,049
-131,585	800,000	-0,018	0,040
-130,570	44,583	-0,135	-0,089
-129,556	800,000	0,016	-0,037
-128,541	-200,000	0,007	0,088
-127,526	800,000	0,017	0,044
-126,512	-74,071	-0,110	-0,029
-125,497	-200,000	0,016	0,136
-124,483	-2,638	0,060	0,030
-123,468	-48,828	0,026	0,009
-122,453	190,028	-0,089	-0,096
-121,439	-200,000	0,003	-0,065
-120,424	511,196	-0,029	-0,048
-119,410	397,970	0,042	0,063
-118,395	159,268	0,098	-0,098
-117,380	-113,913	-0,066	-0,009
-116,366	-200,000	0,016	0,132
-115,351	222,776	-0,104	-0,121
-114,337	185,414	-0,076	-0,082
-113,322	123,787	0,123	-0,111
-112,307	415,616	-0,078	0,120
-111,293	-77,266	0,078	0,019
-110,278	800,000	0,059	0,141
-109,264	16,256	0,084	0,048
-108,249	-200,000	-0,017	0,080
-107,234	107,281	0,080	-0,068
-106,220	138,608	0,084	0,079
-105,205	117,330	-0,060	0,053
-104,191	800,000	-0,061	0,135
-103,176	35,745	0,042	-0,027
-102,162	73,832	-0,043	0,033
-101,147	138,472	-0,128	-0,120
-100,132	-200,000	0,009	0,048
-99,118	-200,000	0,004	-0,054
-98,103	800,000	0,042	0,117
-97,089	800,000	0,039	-0,085
-96,074	-22,361	-0,024	0,011
-95,059	-200,000	0,023	0,088
-94,045	86,181	0,061	-0,048
-93,030	-200,000	-0,005	-0,140
-92,016	267,860	-0,094	-0,118
-91,001	-200,000	0,002	-0,072
-89,986	800,000	-0,042	0,102
-88,972	393,622	0,043	0,065
-87,957	800,000	-0,074	0,177
-86,943	59,847	-0,093	0,066
-85,928	-200,000	0,042	0,228
-84,913	367,668	-0,046	-0,067
-83,899	288,787	-0,013	-0,017
-82,884	-86,649	-0,073	-0,016
-81,870	72,488	0,054	0,041
-80,855	-200,000	-0,008	0,150
-79,840	800,000	-0,041	-0,094
-78,826	-169,364	-0,149	-0,004
-77,811	-200,000	0,009	0,044
-76,797	253,199	-0,072	0,088
-75,782	-200,000	0,018	-0,058
-74,767	800,000	-0,013	-0,037
-73,753	-200,000	-0,001	0,015
-72,738	-200,000	0,000	-0,066
-71,724	-200,000	-0,011	-0,068
-70,709	800,000	0,005	-0,017
-69,694	319,416	-0,079	0,108
-68,680	360,230	-0,068	0,098
-67,665	173,938	0,050	-0,052
-66,651	388,744	-0,076	-0,113
-65,636	303,908	0,104	-0,138
-64,622	-180,849	0,071	0,001
-63,607	121,529	0,081	-0,072
-62,592	-200,000	-0,010	0,084
-61,578	121,509	0,079	-0,070
-60,563	-200,000	-0,039	-0,167
-59,549	-200,000	0,045	0,258
-58,534	96,186	-2,619	-2,150
-57,519	-60,384	0,500	-0,152
-56,505	800,000	-1,807	-5,455
-55,490	362,733	1,370	1,982
-54,476	800,000	5,100	11,473
-53,461	-200,000	22,215	347,732
-52,446	800,000	759,416	2297,641
-51,432	515,532	1644,293	2767,873
-50,417	97,691	1607,896	1326,430
-49,403	65,354	1265,297	917,814
-48,388	23,112	1017,287	597,959
-47,373	19,505	984,612	566,834
-46,359	13,030	971,773	538,244
-45,344	8,744	968,429	522,329
-44,330	9,167	966,508	522,660
-43,315	8,156	964,702	518,356
-42,300	8,125	963,696	517,693
-41,286	8,108	962,527	516,991
-40,271	8,129	961,607	516,544
-39,257	8,119	960,505	515,899
-38,242	8,053	959,653	515,206
-37,227	8,106	958,962	514,988
-36,213	8,102	958,140	514,514
-35,198	8,102	957,250	514,014
-34,184	8,145	956,458	513,709
-33,169	8,110	955,637	513,133
-32,154	8,132	954,738	512,701
-31,140	8,115	953,769	512,105
-30,125	8,206	952,935	511,930
-29,111	8,121	952,191	511,237
-28,096	8,170	951,633	511,075
-27,082	8,079	950,909	510,374
-26,067	8,102	950,248	510,074
-25,052	8,052	949,434	509,453
-24,038	8,101	948,552	509,118
-23,023	8,014	948,157	508,606
-22,009	8,095	947,621	508,558
-20,994	8,077	946,915	508,101
-19,979	8,079	946,174	507,690
-18,965	8,005	945,572	507,111
-17,950	8,034	945,118	506,940
-16,936	8,016	944,305	506,425
-15,921	8,060	943,629	506,184
-14,906	7,970	942,906	505,490
-13,892	7,994	942,205	505,169
-12,877	8,009	941,738	504,948
-11,863	7,907	941,214	504,320
-10,848	7,925	940,567	504,010
-9,833	8,028	940,100	504,068
-8,819	8,047	939,396	503,733
-7,804	8,020	938,613	503,206
-6,790	7,975	938,131	502,786
-5,775	8,084	937,547	502,798
-4,760	7,965	936,983	502,098
-3,746	7,926	936,432	501,660
-2,731	7,824	935,739	500,945
-1,717	7,827	935,162	500,625
-0,702	7,825	934,328	500,153
0,313	7,756	933,453	500,221
1,327	11,015	931,838	509,591
2,342	19,790	779,501	449,276
3,356	14,761	447,214	250,177
4,371	-11,730	311,555	146,191
5,386	-15,577	294,153	134,133
6,400	-17,610	287,996	129,305
7,415	-17,800	285,562	128,015
8,429	-18,254	283,637	126,698
9,444	-18,066	282,721	126,460
10,459	-18,209	282,209	126,081
11,473	-18,338	281,743	125,737
12,488	-18,214	281,111	125,564
13,502	-18,299	280,639	125,260
14,517	-18,208	280,515	125,281
15,531	-18,065	279,766	125,072
16,546	-18,037	279,650	125,036
17,561	-17,876	278,973	124,876
18,575	-18,040	278,850	124,654
19,590	-18,063	278,371	124,406
20,604	-17,813	278,200	124,557
21,619	-17,938	277,789	124,242
22,634	-17,966	277,546	124,096
23,648	-17,958	277,205	123,940
24,663	-17,725	276,735	123,941
25,677	-17,933	276,587	123,666
26,692	-17,936	276,227	123,491
27,707	-17,902	276,077	123,445
28,721	-18,006	275,838	123,228
29,736	-17,887	275,376	123,124
30,750	-17,921	275,255	123,027
31,765	-17,930	275,025	122,904
32,780	-17,927	274,689	122,746
33,794	-17,915	274,505	122,665
34,809	-17,858	274,163	122,554
35,823	-17,911	273,856	122,356
36,838	-17,790	273,612	122,350
37,853	-17,780	273,270	122,195
38,867	-17,917	273,311	122,074
39,882	-17,852	272,934	121,956
40,896	-17,824	272,668	121,852
41,911	-17,817	272,635	121,833
42,926	-17,700	272,139	121,710
43,940	-17,921	271,899	121,386
44,955	-17,855	271,754	121,372
45,969	-17,793	271,560	121,331
46,984	-17,792	271,279	121,196
47,999	-17,799	271,165	121,128
49,013	-17,720	271,016	121,124
50,028	-17,757	270,767	120,968
51,042	-17,827	270,507	120,776
52,057	-17,677	270,175	120,756
53,071	-17,842	270,100	120,559
54,086	-17,783	269,799	120,468
55,101	-17,842	269,573	120,302
56,115	-17,801	269,503	120,298
57,130	-18,018	269,141	119,926
58,144	-17,832	268,652	119,868
59,159	-18,001	268,577	119,669
60,174	-18,034	268,302	119,506
61,188	-17,838	268,131	119,598
62,203	-17,824	267,803	119,454
63,217	-17,777	267,671	119,428
64,232	-17,929	267,367	119,142
65,247	-17,845	266,975	119,033
66,261	-17,855	266,774	118,925
67,276	-17,813	266,821	118,973
68,290	-17,806	266,574	118,858
69,305	-17,866	266,259	118,654
70,320	-17,720	266,087	118,698
71,334	-17,826	266,042	118,571
72,349	-17,941	265,601	118,260
73,363	-18,018	265,330	118,059
74,378	-18,038	265,113	117,935
75,393	-17,729	265,055	118,177
76,407	-17,714	264,743	118,041
77,422	-17,828	264,460	117,801
78,436	-17,855	264,203	117,652
79,451	-17,685	263,709	117,574
80,466	-17,717	263,783	117,568
81,480	-17,934	263,752	117,349
82,495	-17,876	263,470	117,265
83,509	-17,723	263,223	117,282
84,524	-17,822	263,024	117,094
85,539	-17,810	262,854	117,019
86,553	-17,682	262,607	117,013
87,568	-17,706	262,338	116,861
88,582	-17,764	262,152	116,716
89,597	-17,909	262,011	116,513
90,611	-17,841	261,685	116,418
91,626	-17,695	261,514	116,462
92,641	-17,715	261,148	116,271
93,655	-17,879	261,049	116,071
94,670	-17,631	260,701	116,126
95,684	-17,829	260,768	115,970
96,699	-17,944	260,460	115,721
97,714	-17,953	260,410	115,680
98,728	-17,794	260,060	115,655
99,743	-17,697	260,068	115,734
100,757	-17,770	259,698	115,494
101,772	-17,700	259,484	115,450
102,787	-17,929	259,273	115,145
103,801	-17,832	258,931	115,068
104,816	-17,891	258,923	115,002
105,830	-17,719	258,655	115,025
106,845	-17,716	258,603	114,994
107,860	-17,806	258,161	114,707
108,874	-17,756	257,895	114,622
109,889	-17,956	257,840	114,413
110,903	-17,688	257,435	114,458
111,918	-17,736	257,443	114,409
112,933	-17,850	257,285	114,229
113,947	-17,774	257,076	114,192
114,962	-17,806	256,860	114,058
115,976	-17,595	256,536	114,088
116,991	-17,797	256,366	113,826
118,006	-17,766	256,227	113,781
119,020	-17,812	255,888	113,580
120,035	-17,900	255,926	113,511
121,049	-17,927	255,741	113,395
122,064	-17,716	255,476	113,451
123,079	-17,658	255,210	113,373
124,093	-17,673	254,948	113,233
125,108	-17,699	254,850	113,158
126,122	-17,588	254,863	113,249
127,137	-17,663	254,608	113,061
128,151	-17,619	254,367	112,982
129,166	-17,769	254,122	112,733
130,181	-17,600	253,907	112,774
131,195	-17,669	253,648	112,589
132,210	-17,767	253,597	112,473
133,224	-17,808	253,163	112,235
134,239	-17,817	253,074	112,178
135,254	-17,755	252,956	112,168
136,268	-17,664	252,754	112,146
137,283	-17,690	252,565	112,030
138,297	-17,531	252,260	112,021
139,312	-17,484	252,084	111,973
140,327	-17,711	251,894	111,685
141,341	-17,642	251,740	111,665
142,356	-17,822	251,394	111,349
143,370	-17,930	251,274	111,194
144,385	-17,681	251,173	111,351
145,400	-17,721	250,908	111,190
146,414	-17,423	250,641	111,315
147,429	-17,909	250,589	110,869
148,443	-17,576	250,314	111,020
149,458	-17,689	250,085	110,812
150,473	-17,631	250,021	110,824
151,487	-17,973	249,768	110,412
152,502	-17,736	249,607	110,531
153,516	-17,634	249,413	110,522
154,531	-17,701	249,196	110,359
155,546	-17,743	249,018	110,235
156,560	-17,842	248,882	110,082
157,575	-17,778	248,600	110,001
158,589	-17,815	248,409	109,876
159,604	-17,656	248,177	109,897
160,619	-17,823	248,160	109,739
161,633	-17,776	247,768	109,595
162,648	-17,670	247,699	109,644
163,662	-17,754	247,587	109,514
164,677	-17,678	247,406	109,487
165,692	-17,673	247,208	109,395
166,706	-17,844	247,001	109,150
167,721	-17,593	246,769	109,247
168,735	-17,874	246,636	108,945
169,750	-17,660	246,512	109,059
170,764	-17,668	246,330	108,962
171,779	-17,641	246,207	108,920
172,794	-17,793	246,042	108,711
173,808	-17,662	245,920	108,756
174,823	-17,715	245,767	108,634
175,837	-17,810	245,617	108,480
176,852	-17,647	245,388	108,504
177,867	-17,744	245,231	108,345
178,881	-17,579	245,164	108,442
179,896	-17,757	244,801	108,124
180,910	-17,683	244,577	108,078
181,925	-17,670	244,420	108,009
182,940	-17,681	244,276	107,927
183,954	-17,698	244,148	107,847
184,969	-17,610	243,993	107,841
185,983	-17,619	243,842	107,757
186,998	-17,464	243,628	107,781
188,013	-17,774	243,532	107,474
189,027	-17,569	243,154	107,465
190,042	-17,852	243,144	107,219
191,056	-17,684	242,854	107,220
192,071	-18,045	242,775	106,879
193,086	-17,860	242,671	106,975
194,100	-17,810	242,193	106,796
195,115	-17,612	242,111	106,912
196,129	-17,598	241,887	106,815
197,144	-17,747	241,637	106,573
198,159	-17,707	241,571	106,568
199,173	-17,842	241,486	106,411
200,188	-17,846	241,223	106,282
201,202	-17,557	241,022	106,419
202,217	-17,753	240,979	106,231
203,232	-17,612	240,755	106,238
204,246	-17,719	240,418	105,993
205,261	-18,059	240,231	105,625
206,275	-16,808	240,548	106,770
207,290	-11,868	242,394	111,614
208,304	-5,583	244,384	117,686
209,319	-2,185	245,119	120,823
210,334	-1,342	245,402	121,644
211,348	-0,369	245,641	122,552
212,363	0,333	245,655	123,125
213,377	0,586	245,704	123,347
214,392	0,962	245,493	123,538
215,407	1,046	245,608	123,654
216,421	1,150	245,397	123,622
217,436	1,097	245,257	123,497
218,450	1,258	245,105	123,542
219,465	1,437	244,959	123,604
220,480	1,322	244,806	123,421
221,494	1,226	244,625	123,241
222,509	1,038	244,274	122,900
223,523	0,659	243,988	122,435
224,538	0,596	243,759	122,259
225,553	0,442	243,718	122,102
226,567	0,729	243,415	122,172
227,582	0,653	243,184	121,984
228,596	0,551	243,225	121,910
229,611	0,357	243,146	121,702
230,626	0,515	242,917	121,706
231,640	0,511	242,700	121,583
232,655	0,454	242,563	121,457
233,669	0,367	242,497	121,343
234,684	0,284	242,283	121,158
235,699	0,724	242,011	121,366
236,713	0,523	241,902	121,138
237,728	0,380	241,852	120,987
238,742	0,453	241,453	120,836
239,757	0,615	241,389	120,923
240,772	0,672	241,178	120,852
241,786	0,447	241,163	120,653
242,801	0,572	240,939	120,631
243,815	0,758	240,591	120,595
244,830	0,478	240,612	120,370
245,844	0,720	240,330	120,413
246,859	0,489	240,271	120,187
247,874	0,624	240,112	120,205
248,888	0,623	239,955	120,114
249,903	0,344	239,936	119,871
250,917	0,707	239,790	120,078
251,932	0,506	239,752	119,887
252,947	0,614	239,491	119,832
253,961	0,782	239,200	119,810
254,976	0,618	239,105	119,621
255,990	0,608	239,015	119,557
257,005	0,516	238,848	119,390
258,020	0,690	238,732	119,460
259,034	0,606	238,473	119,253
260,049	0,727	238,353	119,278
261,063	0,755	238,019	119,123
262,078	0,528	237,916	118,881
263,093	0,364	237,984	118,775
264,107	0,594	237,794	118,851
265,122	0,474	237,538	118,618
266,136	0,794	237,319	118,750
267,151	0,359	237,332	118,402
268,166	0,617	236,984	118,422
269,180	0,547	236,884	118,306
270,195	0,364	236,894	118,156
271,209	0,557	236,634	118,168
272,224	0,364	236,501	117,940
273,239	0,560	236,343	118,004
274,253	0,660	236,015	117,908
275,268	0,490	236,035	117,774
276,282	0,438	236,001	117,706
277,297	0,772	235,653	117,783
278,312	0,516	235,491	117,492
279,326	0,634	235,480	117,568
280,341	0,726	235,195	117,488
281,355	0,639	235,113	117,368
282,370	0,650	234,877	117,249
283,384	0,488	234,840	117,092
284,399	0,597	234,503	116,999
285,414	0,558	234,506	116,960
286,428	0,654	234,387	116,965
287,443	0,584	234,263	116,838
288,457	0,433	234,183	116,670
289,472	0,773	233,788	116,727
290,487	0,598	233,675	116,525
291,501	0,429	233,658	116,374
292,516	0,442	233,518	116,305
293,530	0,512	233,310	116,245
294,545	0,720	233,329	116,405
295,560	0,752	233,056	116,283
296,574	0,796	232,726	116,142
297,589	0,629	232,705	115,993
298,603	0,571	232,441	115,806
299,618	0,585	232,503	115,837
300,633	0,792	232,375	115,922
301,647	0,807	232,129	115,800
302,662	0,973	232,007	115,858
303,676	1,031	231,853	115,815
304,691	0,745	231,632	115,474
305,706	0,679	231,543	115,369
306,720	0,668	231,496	115,327
307,735	0,611	231,218	115,135
308,749	1,006	231,103	115,370
309,764	0,690	230,951	115,041
310,779	0,681	230,716	114,907
311,793	0,939	230,635	115,054
312,808	0,651	230,544	114,778
313,822	0,728	230,379	114,745
314,837	0,939	230,180	114,796
315,852	0,720	230,160	114,609
316,866	0,862	229,927	114,591
317,881	0,963	229,753	114,571
318,895	0,876	229,606	114,421
319,910	0,774	229,525	114,294
320,925	0,687	229,298	114,104
321,939	0,862	229,149	114,152
322,954	0,825	229,090	114,084
323,968	0,585	228,973	113,834
324,983	0,835	228,856	113,955
325,997	0,982	228,616	113,937
327,012	1,005	228,549	113,911
328,027	0,886	228,322	113,697
329,041	0,715	228,309	113,552
330,056	0,952	228,006	113,569
331,070	1,050	227,873	113,568
332,085	0,890	227,710	113,355
333,100	0,612	227,557	113,060
334,114	0,846	227,378	113,137
335,129	0,828	227,291	113,070
336,143	0,890	227,121	113,022
337,158	0,984	226,910	112,977
338,173	0,846	226,949	112,883
339,187	1,063	226,780	112,951
340,202	1,082	226,670	112,900
341,216	0,921	226,454	112,663
342,231	0,770	226,362	112,494
343,246	1,052	226,218	112,623
344,260	0,810	226,246	112,446
345,275	1,174	225,885	112,528
346,289	0,990	225,795	112,337
347,304	1,042	225,575	112,256
348,319	0,774	225,529	112,023
349,333	1,018	225,348	112,105
350,348	1,015	225,079	111,959
351,362	0,874	225,104	111,856
352,377	1,172	224,782	111,907
353,392	0,941	224,807	111,738
354,406	1,021	224,585	111,677
355,421	191,511	1310,538	1374,552
356,435	153,357	1442,705	1374,398
