DTS Sentinel unit serial number:	SN410029Multiplexer serial number:	ORYXHardware model number:	OX2-SRSoftware version number:	ORYX F/W v4,00 Oryx Data Collector v3.7.2.0data status	okinstallation	B5 Nyhavnadifferential loss correction	single-endedforward channel	channel 2reverse channel	N/Adate	2023/12/14time	13:27:13forward acquisition time	300,00reverse acquisition time	0,00gamma	499,1914k internal	0,3157k external	0,3157temperature offset calibration	1,0000default loss term (dB/km)	0,3820temperature slope calibration	1,0000multiplexer offset coefficient	1,0000multiplexer slope coefficient	1,0000fibre end	0,00T internal ref (°C)	8,07T ext. ref 1 (°C)	-7,75T ext. ref 2 (°C)	-7,82length (m)	temperature (°C)	Stokes	anti-Stokes-744,400	-115,308	0,179	0,025
-743,385	-91,170	-0,315	-0,066
-742,371	-49,624	0,159	0,056
-741,356	-135,968	-0,415	-0,036
-740,342	192,302	0,230	0,256
-739,327	-27,431	-0,378	-0,161
-738,312	59,822	0,128	0,093
-737,298	-157,768	-0,459	-0,020
-736,283	-151,441	0,156	0,008
-735,269	-84,358	-0,257	-0,060
-734,254	-119,079	0,223	0,028
-733,239	33,949	-0,506	-0,324
-732,225	-33,433	0,348	0,141
-731,210	-200,000	-0,019	0,100
-730,196	-42,965	0,050	-0,019
-729,181	115,461	-0,103	-0,093
-728,167	-200,000	-0,010	-0,098
-727,152	800,000	-0,040	-0,084
-726,137	-200,000	0,002	-0,128
-725,123	-200,000	-0,022	-0,091
-724,108	403,097	-0,046	0,072
-723,094	-116,678	-0,088	-0,012
-722,079	-31,363	-0,150	0,062
-721,064	92,679	-0,047	-0,039
-720,050	-41,321	0,039	0,015
-719,035	-200,000	-0,015	0,085
-718,021	-61,828	0,036	-0,011
-717,006	800,000	-0,021	-0,061
-715,991	22,161	-0,201	-0,120
-714,977	-200,000	-0,004	0,091
-713,962	-200,000	-0,001	-0,117
-712,948	177,105	-0,049	0,052
-711,933	-22,614	0,053	0,024
-710,918	-13,833	0,078	0,037
-709,904	233,386	-0,089	-0,107
-708,889	133,378	-0,097	-0,093
-707,875	-129,883	-0,093	-0,009
-706,860	-200,000	0,002	-0,027
-705,845	568,766	0,017	0,031
-704,831	432,948	0,122	0,195
-703,816	379,732	-0,106	0,161
-702,802	422,246	-0,067	-0,107
-701,787	6,279	-0,088	-0,048
-700,772	-16,428	0,091	-0,042
-699,758	-2,567	-0,092	0,047
-698,743	800,000	0,064	0,135
-697,729	-200,000	0,003	-0,038
-696,714	332,203	0,066	-0,093
-695,699	92,918	-0,108	-0,090
-694,685	180,910	0,021	-0,023
-693,670	-200,000	0,003	-0,081
-692,656	-57,724	0,154	0,049
-691,641	800,000	0,013	0,026
-690,627	-200,000	-0,011	0,066
-689,612	292,732	-0,038	0,051
-688,597	584,488	0,052	-0,095
-687,583	-200,000	0,017	-0,086
-686,568	151,842	0,056	-0,056
-685,554	800,000	-0,059	-0,126
-684,539	-200,000	0,000	0,123
-683,524	-8,712	-0,077	0,038
-682,510	-2,590	-0,033	0,017
-681,495	800,000	0,029	0,085
-680,481	35,477	-0,068	0,044
-679,466	4,263	-0,120	0,064
-678,451	57,138	0,025	-0,018
-677,437	800,000	-0,057	0,132
-676,422	-148,586	0,090	0,005
-675,408	117,334	0,041	-0,038
-674,393	-200,000	0,001	0,061
-673,378	139,054	-0,075	-0,073
-672,364	224,206	-0,117	-0,139
-671,349	296,742	-0,042	0,057
-670,335	44,414	-0,116	0,078
-669,320	209,864	-0,094	0,108
-668,305	-200,000	0,005	-0,068
-667,291	90,785	-0,053	0,043
-666,276	-91,992	0,105	-0,022
-665,262	-200,000	0,010	-0,178
-664,247	308,150	-0,081	-0,111
-663,232	74,580	-0,053	-0,041
-662,218	166,315	0,043	0,045
-661,203	800,000	0,041	-0,085
-660,189	-166,162	-0,067	-0,002
-659,174	201,221	-0,071	-0,080
-658,159	-95,311	-0,096	0,019
-657,145	-128,780	0,055	0,006
-656,130	-57,183	0,080	0,026
-655,116	-200,000	0,019	0,089
-654,101	-200,000	0,026	0,102
-653,086	307,924	-0,086	-0,118
-652,072	9,885	-0,113	-0,063
-651,057	260,322	0,010	-0,012
-650,043	-200,000	-0,017	-0,115
-649,028	-55,625	-0,111	0,036
-648,014	623,710	0,036	0,067
-646,999	-22,694	0,137	0,060
-645,984	17,794	-0,104	0,061
-644,970	38,041	-0,131	0,086
-643,955	124,270	-0,045	0,042
-642,941	-89,839	0,069	0,015
-641,926	800,000	0,051	-0,108
-640,911	316,586	0,081	-0,113
-639,897	301,389	0,006	-0,009
-638,882	-24,074	0,053	-0,023
-637,868	-123,966	-0,148	-0,017
-636,853	-200,000	0,032	-0,126
-635,838	-200,000	-0,020	-0,117
-634,824	724,365	-0,021	-0,042
-633,809	190,739	-0,075	0,083
-632,795	-148,707	-0,019	-0,001
-631,780	800,000	0,032	0,086
-630,765	-36,919	-0,110	-0,043
-629,751	-200,000	0,040	-0,135
-628,736	800,000	-0,025	-0,059
-627,722	251,445	-0,058	0,072
-626,707	-200,000	-0,005	0,038
-625,692	164,182	0,037	0,038
-624,678	344,593	-0,072	0,103
-623,663	0,509	-0,078	-0,041
-622,649	173,828	-0,088	-0,093
-621,634	109,380	0,095	0,083
-620,619	-72,624	0,050	-0,014
-619,605	800,000	0,021	-0,058
-618,590	223,104	0,106	-0,125
-617,576	128,610	0,074	-0,069
-616,561	141,385	0,043	0,042
-615,546	68,258	-0,076	-0,057
-614,532	-134,092	-0,073	-0,007
-613,517	695,309	0,023	-0,045
-612,503	-51,885	0,091	0,031
-611,488	-31,866	-0,033	0,014
-610,474	-18,953	0,010	0,005
-609,459	81,261	0,068	0,054
-608,444	125,695	0,045	-0,042
-607,430	-200,000	0,020	-0,076
-606,415	701,398	0,030	-0,059
-605,401	-54,966	-0,152	0,050
-604,386	63,031	0,087	-0,064
-603,371	-41,651	0,092	0,034
-602,357	-121,612	0,027	-0,003
-601,342	-200,000	0,002	0,025
-600,328	34,711	-0,045	0,029
-599,313	-93,769	0,070	0,014
-598,298	-200,000	-0,015	0,226
-597,284	-200,000	-0,011	-0,037
-596,269	-146,078	-0,049	0,003
-595,255	211,531	-0,039	-0,045
-594,240	-16,890	-0,069	-0,032
-593,225	4,560	-0,119	-0,064
-592,211	800,000	0,042	-0,119
-591,196	144,797	-0,033	-0,032
-590,182	389,205	-0,027	0,040
-589,167	-199,068	0,141	-0,001
-588,152	-46,627	-0,051	-0,018
-587,138	-200,000	0,008	-0,157
-586,123	4,555	-0,125	-0,067
-585,109	105,499	0,181	-0,157
-584,094	638,783	0,054	-0,100
-583,079	66,261	0,107	0,080
-582,065	53,933	-0,035	-0,025
-581,050	57,947	0,034	0,024
-580,036	-200,000	-0,017	-0,065
-579,021	209,761	0,056	0,064
-578,006	-21,058	-0,121	-0,054
-576,992	-200,000	0,002	0,056
-575,977	43,834	0,072	0,048
-574,963	-121,151	0,121	0,015
-573,948	117,511	0,060	0,055
-572,934	142,797	0,075	-0,073
-571,919	-19,829	-0,094	0,042
-570,904	523,819	0,088	-0,153
-569,890	-200,000	-0,006	-0,152
-568,875	-200,000	-0,017	-0,065
-567,861	51,335	0,107	0,074
-566,846	135,302	0,012	0,011
-565,831	-137,552	-0,113	-0,009
-564,817	25,546	-0,042	0,025
-563,802	-119,398	-0,038	-0,005
-562,788	-104,758	-0,158	0,026
-561,773	-32,677	0,208	0,084
-560,758	-200,000	-0,024	0,085
-559,744	6,592	-0,011	-0,006
-558,729	11,348	0,076	0,042
-557,715	712,611	-0,033	-0,064
-556,700	-13,811	0,059	-0,028
-555,685	-82,756	0,066	-0,015
-554,671	-200,000	0,047	0,167
-553,656	-200,000	0,003	-0,048
-552,642	-200,000	0,015	0,077
-551,627	89,097	0,077	-0,063
-550,612	-200,000	0,012	-0,107
-549,598	694,932	0,025	0,048
-548,583	-200,000	0,021	0,116
-547,569	207,697	0,056	-0,065
-546,554	-200,000	-0,021	0,121
-545,539	-200,000	0,020	0,085
-544,525	-122,227	-0,054	0,006
-543,510	42,295	-0,027	-0,018
-542,496	-200,000	0,018	-0,102
-541,481	286,227	0,073	-0,097
-540,466	-83,931	0,034	-0,008
-539,452	-200,000	0,019	0,098
-538,437	-200,000	0,004	-0,051
-537,423	-167,403	-0,039	-0,001
-536,408	113,944	-0,057	-0,050
-535,393	-9,234	-0,074	0,036
-534,379	800,000	-0,034	-0,080
-533,364	-166,904	0,137	-0,004
-532,350	-58,533	-0,099	-0,031
-531,335	-120,221	0,076	-0,009
-530,321	-200,000	-0,039	0,128
-529,306	-53,351	0,053	-0,018
-528,291	111,014	0,021	-0,018
-527,277	-76,571	-0,074	-0,019
-526,262	-155,110	-0,103	0,005
-525,248	-200,000	0,048	0,156
-524,233	800,000	0,013	0,040
-523,218	111,255	-0,208	-0,183
-522,204	-200,000	0,002	0,021
-521,189	-200,000	-0,013	0,047
-520,175	-200,000	-0,006	-0,085
-519,160	-55,701	-0,051	0,017
-518,145	18,798	-0,083	-0,048
-517,131	53,800	0,124	0,087
-516,116	-19,654	0,164	0,074
-515,102	726,392	-0,014	0,027
-514,087	800,000	0,026	-0,074
-513,072	800,000	-0,065	-0,138
-512,058	164,141	0,064	-0,066
-511,043	800,000	0,031	0,068
-510,029	456,366	0,010	0,017
-509,014	-200,000	-0,005	0,035
-507,999	447,900	-0,101	0,163
-506,985	-66,168	-0,056	-0,016
-505,970	-106,940	-0,090	0,014
-504,956	-76,897	0,022	0,006
-503,941	145,003	0,063	-0,062
-502,926	-200,000	-0,009	0,161
-501,912	-200,000	-0,008	0,029
-500,897	800,000	-0,025	0,081
-499,883	-60,129	-0,100	-0,031
-498,868	330,908	0,084	-0,119
-497,853	-98,472	-0,078	-0,014
-496,839	80,338	-0,076	-0,060
-495,824	61,334	0,046	0,033
-494,810	293,633	0,078	-0,104
-493,795	800,000	0,014	0,033
-492,781	577,224	-0,017	-0,030
-491,766	19,694	-0,111	-0,065
-490,751	-200,000	0,032	-0,192
-489,737	800,000	-0,023	0,063
-488,722	-107,286	-0,134	-0,021
-487,708	-105,064	0,044	-0,007
-486,693	271,766	-0,067	0,086
-485,678	-200,000	0,003	0,018
-484,664	-43,334	0,033	-0,012
-483,649	41,981	-0,052	-0,034
-482,635	156,719	-0,039	-0,039
-481,620	-137,358	0,199	-0,016
-480,605	-112,363	0,085	0,012
-479,591	205,156	-0,034	-0,038
-478,576	-121,149	-0,115	0,014
-477,562	196,222	-0,157	0,174
-476,547	1,155	-0,101	-0,053
-475,532	-200,000	0,052	-0,209
-474,518	-200,000	0,091	0,000
-473,503	-57,761	-0,045	0,014
-472,489	800,000	0,012	0,034
-471,474	-53,030	0,149	0,050
-470,459	71,816	-0,131	-0,099
-469,445	800,000	-0,054	-0,111
-468,430	25,399	0,032	0,019
-467,416	800,000	-0,085	0,218
-466,401	-116,781	0,097	-0,013
-465,386	-200,000	0,010	-0,052
-464,372	781,239	-0,023	-0,046
-463,357	-108,110	0,086	0,014
-462,343	70,985	0,070	0,053
-461,328	-88,181	0,070	-0,015
-460,313	-15,575	0,076	-0,035
-459,299	411,288	0,096	0,149
-458,284	75,325	0,091	0,070
-457,270	151,232	-0,092	0,092
-456,255	54,342	0,012	0,008
-455,241	369,702	0,043	-0,064
-454,226	-68,394	-0,078	0,022
-453,211	480,242	0,017	0,029
-452,197	-149,667	0,070	0,004
-451,182	800,000	0,056	0,174
-450,168	-200,000	-0,014	0,102
-449,153	-29,762	-0,071	0,030
-448,138	-200,000	-0,019	0,105
-447,124	800,000	-0,017	0,040
-446,109	-101,815	-0,146	0,026
-445,095	-124,573	0,084	-0,009
-444,080	-48,411	-0,183	0,064
-443,065	-200,000	0,009	-0,063
-442,051	-200,000	-0,001	0,203
-441,036	-200,000	-0,005	-0,136
-440,022	-69,601	-0,136	0,038
-439,007	17,972	0,073	0,042
-437,992	-47,205	-0,089	0,032
-436,978	-167,371	0,248	-0,007
-435,963	-130,119	0,056	0,005
-434,949	21,979	-0,112	0,067
-433,934	-161,713	0,054	-0,002
-432,919	32,875	-0,082	-0,052
-431,905	-200,000	-0,005	-0,026
-430,890	-27,633	0,066	-0,028
-429,876	-200,000	-0,001	0,043
-428,861	-200,000	-0,029	0,214
-427,846	65,590	-0,053	-0,039
-426,832	-110,889	0,175	0,026
-425,817	-200,000	-0,002	0,079
-424,803	-151,593	0,145	-0,008
-423,788	146,987	0,056	0,055
-422,773	-70,353	0,156	0,043
-421,759	800,000	0,063	-0,127
-420,744	312,008	-0,130	-0,178
-419,730	576,471	-0,028	0,050
-418,715	-83,399	-0,035	0,008
-417,701	261,916	0,040	0,051
-416,686	-54,196	0,185	0,061
-415,671	183,516	-0,042	-0,045
-414,657	-188,835	0,063	0,001
-413,642	111,203	0,071	0,062
-412,628	14,315	-0,104	-0,059
-411,613	85,258	0,094	0,075
-410,598	128,361	0,074	0,069
-409,584	-173,386	-0,091	-0,002
-408,569	800,000	-0,029	0,064
-407,555	-30,659	0,175	-0,072
-406,540	800,000	0,030	0,087
-405,525	-1,586	-0,079	-0,041
-404,511	-200,000	-0,011	0,080
-403,496	-48,623	0,122	0,043
-402,482	539,417	-0,113	0,196
-401,467	126,821	0,046	0,043
-400,452	121,595	-0,016	-0,015
-399,438	-200,000	0,000	0,052
-398,423	-200,000	-0,019	0,125
-397,409	396,816	-0,095	-0,144
-396,394	800,000	-0,035	-0,083
-395,379	800,000	-0,021	-0,055
-394,365	-129,096	-0,108	0,011
-393,350	37,603	0,068	-0,044
-392,336	-124,883	0,081	-0,009
-391,321	37,589	-0,086	0,056
-390,306	24,460	-0,046	0,028
-389,292	800,000	-0,062	-0,137
-388,277	-3,201	-0,082	-0,041
-387,263	-106,438	0,118	0,019
-386,248	-200,000	0,008	0,046
-385,233	800,000	0,061	0,127
-384,219	-200,000	0,000	-0,131
-383,204	800,000	0,038	-0,082
-382,190	-200,000	-0,022	-0,119
-381,175	231,256	0,053	-0,064
-380,160	12,963	0,093	-0,052
-379,146	95,368	-0,035	0,029
-378,131	488,959	0,033	-0,056
-377,117	-200,000	0,007	-0,037
-376,102	800,000	-0,055	-0,170
-375,088	-200,000	-0,001	-0,129
-374,073	-45,160	-0,061	0,022
-373,058	800,000	0,081	0,165
-372,044	-200,000	0,026	-0,122
-371,029	-200,000	-0,017	-0,081
-370,015	216,536	-0,056	0,064
-369,000	-95,706	0,002	-0,000
-367,985	8,958	-0,172	0,094
-366,971	13,930	0,050	0,028
-365,956	-111,044	0,270	0,040
-364,942	-96,633	-0,115	-0,022
-363,927	494,663	-0,011	-0,018
-362,912	774,928	0,061	0,121
-361,898	245,151	-0,032	0,040
-360,883	800,000	0,039	-0,106
-359,869	-200,000	-0,001	-0,014
-358,854	800,000	0,042	-0,099
-357,839	16,323	0,032	-0,018
-356,825	-111,329	0,100	-0,015
-355,810	18,913	-0,046	-0,027
-354,796	-200,000	0,002	-0,060
-353,781	92,834	-0,107	-0,088
-352,766	43,671	-0,108	0,072
-351,752	-38,767	0,096	-0,037
-350,737	-200,000	-0,007	-0,030
-349,723	271,525	-0,041	0,053
-348,708	-4,366	-0,049	0,024
-347,693	66,315	-0,071	-0,052
-346,679	337,160	-0,060	-0,085
-345,664	-200,000	-0,004	-0,083
-344,650	-33,944	0,006	-0,002
-343,635	-101,644	-0,064	-0,011
-342,620	175,585	-0,024	0,025
-341,606	800,000	0,022	-0,053
-340,591	-200,000	-0,002	0,029
-339,577	26,610	-0,106	0,064
-338,562	141,044	0,138	-0,132
-337,548	-200,000	-0,035	0,136
-336,533	800,000	0,026	0,062
-335,518	-57,716	-0,076	-0,024
-334,504	-200,000	0,006	0,079
-333,489	149,655	0,075	-0,073
-332,475	-165,590	-0,107	0,003
-331,460	-0,719	-0,110	-0,057
-330,445	96,291	-0,054	-0,045
-329,431	800,000	0,046	0,105
-328,416	-200,000	0,002	0,139
-327,402	-200,000	-0,001	0,143
-326,387	487,238	-0,057	-0,094
-325,372	87,255	0,057	-0,045
-324,358	133,734	-0,078	-0,073
-323,343	-200,000	-0,037	-0,181
-322,329	-93,239	0,150	-0,030
-321,314	207,105	0,078	0,088
-320,299	-59,276	-0,090	-0,028
-319,285	36,666	0,131	0,083
-318,270	33,776	-0,107	-0,068
-317,256	-200,000	-0,000	-0,022
-316,241	-146,500	0,077	-0,005
-315,226	225,785	0,107	0,126
-314,212	-200,000	-0,006	0,090
-313,197	-200,000	-0,004	-0,017
-312,183	116,795	0,038	0,033
-311,168	-200,000	-0,018	0,065
-310,153	73,553	-0,047	-0,036
-309,139	-81,906	0,100	0,023
-308,124	357,381	-0,058	-0,084
-307,110	800,000	0,020	0,054
-306,095	800,000	-0,039	0,108
-305,080	-109,679	0,121	0,018
-304,066	-200,000	0,027	-0,093
-303,051	-26,337	0,034	0,014
-302,037	57,666	-0,126	0,090
-301,022	74,713	-0,066	-0,050
-300,008	268,504	0,096	0,123
-298,993	-200,000	-0,005	0,023
-297,978	-83,850	-0,169	0,039
-296,964	-200,000	-0,022	-0,129
-295,949	65,210	0,077	-0,056
-294,935	800,000	0,023	-0,046
-293,920	162,712	-0,150	0,153
-292,905	-200,000	-0,004	-0,052
-291,891	-200,000	0,005	0,132
-290,876	131,674	-0,041	-0,038
-289,862	-181,638	0,061	0,001
-288,847	800,000	-0,044	0,127
-287,832	425,299	0,044	-0,069
-286,818	103,652	0,028	-0,024
-285,803	-200,000	0,023	0,147
-284,789	800,000	-0,027	0,067
-283,774	226,824	0,090	0,106
-282,759	-200,000	0,018	-0,111
-281,745	-200,000	0,015	-0,148
-280,730	213,424	-0,062	-0,071
-279,716	-200,000	-0,017	0,061
-278,701	800,000	0,081	0,209
-277,686	-200,000	0,011	0,106
-276,672	800,000	0,058	0,133
-275,657	-49,808	-0,086	-0,030
-274,643	-175,147	-0,083	0,002
-273,628	143,897	0,043	-0,042
-272,613	32,991	0,052	0,033
-271,599	-200,000	0,024	-0,078
-270,584	737,773	-0,015	0,029
-269,570	-200,000	0,006	-0,028
-268,555	-174,639	-0,070	0,001
-267,540	722,833	-0,051	0,099
-266,526	-200,000	0,007	-0,075
-265,511	-200,000	-0,013	0,108
-264,497	55,239	0,042	-0,030
-263,482	-90,980	0,194	-0,040
-262,467	-200,000	0,026	0,112
-261,453	-200,000	-0,035	0,207
-260,438	93,984	0,061	-0,050
-259,424	-200,000	-0,002	0,025
-258,409	399,655	-0,016	-0,024
-257,395	50,491	0,146	0,100
-256,380	26,905	0,078	-0,047
-255,365	187,036	-0,038	0,041
-254,351	-71,328	0,146	-0,039
-253,336	89,849	-0,111	-0,090
-252,322	-73,366	0,123	0,032
-251,307	-62,852	0,146	-0,043
-250,292	800,000	0,052	0,120
-249,278	-34,045	0,061	-0,024
-248,263	-200,000	-0,000	-0,009
-247,249	800,000	-0,023	-0,058
-246,234	237,751	-0,048	-0,058
-245,219	120,194	0,081	-0,073
-244,205	-10,349	-0,109	-0,052
-243,190	-200,000	-0,007	-0,055
-242,176	86,236	0,040	0,032
-241,161	-94,808	-0,074	0,014
-240,146	192,220	0,008	-0,009
-239,132	-71,811	-0,041	0,011
-238,117	-72,319	-0,041	-0,011
-237,103	-160,514	0,041	-0,002
-236,088	143,456	0,027	0,026
-235,073	639,817	-0,051	0,095
-234,059	-73,598	0,128	0,033
-233,044	312,537	0,086	0,117
-232,030	459,352	-0,031	0,050
-231,015	267,391	-0,041	-0,051
-230,000	-200,000	-0,025	-0,095
-228,986	800,000	-0,025	-0,052
-227,971	52,897	0,052	-0,036
-226,957	180,704	0,049	-0,052
-225,942	-22,524	-0,068	0,030
-224,927	800,000	0,042	0,133
-223,913	142,201	-0,151	-0,145
-222,898	317,865	0,050	-0,068
-221,884	-61,465	-0,092	-0,028
-220,869	800,000	0,044	-0,127
-219,855	-200,000	-0,007	0,128
-218,840	-56,105	0,107	-0,034
-217,825	353,571	-0,068	-0,098
-216,811	212,426	0,058	-0,066
-215,796	-200,000	0,007	-0,065
-214,782	-88,805	-0,086	-0,018
-213,767	-111,331	0,128	0,019
-212,752	-200,000	-0,014	0,060
-211,738	800,000	0,030	0,085
-210,723	194,622	-0,036	-0,039
-209,709	-175,424	-0,034	-0,001
-208,694	800,000	0,022	0,055
-207,679	93,460	0,066	-0,054
-206,665	-20,962	-0,092	-0,041
-205,650	184,866	0,084	-0,090
-204,636	119,092	0,058	0,052
-203,621	-200,000	-0,027	0,101
-202,606	-200,000	-0,006	-0,082
-201,592	-36,971	-0,095	-0,037
-200,577	800,000	0,009	-0,027
-199,563	41,524	-0,100	0,065
-198,548	331,978	0,025	-0,035
-197,533	-46,924	-0,134	0,047
-196,519	-122,237	-0,142	0,017
-195,504	-200,000	0,010	-0,102
-194,490	96,337	-0,052	-0,043
-193,475	800,000	-0,040	-0,106
-192,460	-35,549	-0,107	0,042
-191,446	144,183	0,048	-0,046
-190,431	-92,072	-0,022	-0,004
-189,417	-101,094	-0,182	0,032
-188,402	-200,000	0,010	0,040
-187,387	-200,000	-0,003	-0,036
-186,373	350,495	-0,075	0,107
-185,358	-200,000	-0,019	-0,083
-184,344	-200,000	0,005	0,039
-183,329	800,000	-0,030	-0,077
-182,315	202,227	-0,016	0,018
-181,300	82,142	0,094	-0,073
-180,285	114,471	-0,078	-0,069
-179,271	800,000	-0,024	-0,049
-178,256	68,163	0,077	-0,057
-177,242	355,865	-0,078	0,113
-176,227	86,674	0,117	0,093
-175,212	-40,429	-0,090	-0,034
-174,198	-122,061	0,070	-0,008
-173,183	-0,052	-0,050	0,026
-172,169	-200,000	-0,001	-0,098
-171,154	89,434	-0,145	-0,117
-170,139	-150,265	0,048	-0,003
-169,125	800,000	-0,009	0,028
-168,110	-124,553	-0,040	-0,004
-167,096	139,977	0,033	-0,032
-166,081	-27,972	-0,080	-0,033
-165,066	732,502	0,023	0,044
-164,052	21,278	-0,086	0,050
-163,037	527,875	-0,037	0,063
-162,023	40,308	0,047	-0,030
-161,008	168,758	-0,087	0,090
-159,993	800,000	-0,039	-0,093
-158,979	35,209	-0,118	-0,075
-157,964	-10,161	0,006	-0,003
-156,950	358,859	-0,041	-0,059
-155,935	800,000	0,017	0,046
-154,920	146,136	-0,043	0,041
-153,906	-200,000	0,010	0,102
-152,891	-179,920	0,079	-0,001
-151,877	-98,437	-0,120	0,022
-150,862	306,201	-0,025	-0,033
-149,847	733,148	0,032	-0,062
-148,833	505,615	0,002	-0,004
-147,818	266,908	0,075	0,094
-146,804	-88,460	0,064	-0,014
-145,789	-200,000	-0,014	0,126
-144,775	-83,038	-0,059	-0,013
-143,760	-96,014	0,059	-0,011
-142,745	-126,398	-0,105	-0,011
-141,731	-200,000	0,001	0,048
-140,716	-46,708	0,113	0,040
-139,702	-200,000	0,017	0,078
-138,687	240,908	0,086	0,104
-137,672	-200,000	0,021	0,074
-136,658	-200,000	-0,011	-0,085
-135,643	596,723	0,031	-0,055
-134,629	378,308	-0,067	0,099
-133,614	194,419	0,054	-0,059
-132,599	-17,301	0,073	0,033
-131,585	-92,887	-0,046	0,009
-130,570	-200,000	0,004	-0,018
-129,556	0,348	-0,112	-0,057
-128,541	226,447	-0,121	-0,142
-127,526	655,146	-0,046	-0,086
-126,512	-3,695	0,073	0,036
-125,497	-98,287	-0,043	-0,008
-124,483	-136,058	0,175	-0,015
-123,468	-5,827	-0,094	0,046
-122,453	81,110	-0,044	-0,034
-121,439	800,000	0,021	-0,042
-120,424	366,287	0,059	-0,086
-119,410	-200,000	0,034	0,118
-118,395	-0,433	-0,046	-0,023
-117,380	800,000	0,037	-0,087
-116,366	173,578	-0,025	-0,026
-115,351	-101,973	-0,035	0,006
-114,337	178,437	-0,017	-0,018
-113,322	116,610	-0,094	0,083
-112,307	-200,000	-0,007	0,142
-111,293	-15,801	0,019	-0,009
-110,278	180,946	-0,063	-0,067
-109,264	-79,436	0,103	-0,025
-108,249	-98,365	-0,015	0,003
-107,234	-200,000	0,004	-0,097
-106,220	-200,000	-0,013	-0,081
-105,205	800,000	-0,031	-0,085
-104,191	-200,000	-0,014	-0,060
-103,176	170,187	-0,033	-0,034
-102,162	71,242	0,030	-0,022
-101,147	-161,107	-0,121	-0,004
-100,132	59,972	0,060	-0,042
-99,118	-9,188	0,063	-0,030
-98,103	55,392	-0,080	0,055
-97,089	800,000	0,019	0,050
-96,074	-49,545	-0,086	0,029
-95,059	-127,608	-0,035	0,004
-94,045	287,506	0,031	-0,041
-93,030	3,388	-0,146	-0,076
-92,016	274,646	0,089	-0,113
-91,001	-117,676	0,109	-0,014
-89,986	259,723	0,045	-0,056
-88,972	-2,019	0,101	0,051
-87,957	50,278	0,053	-0,036
-86,943	-200,000	-0,014	0,051
-85,928	-200,000	-0,056	-0,201
-84,913	-1,884	-0,078	-0,039
-83,899	-17,986	-0,082	-0,037
-82,884	-4,573	0,036	0,018
-81,870	800,000	-0,031	0,063
-80,855	235,206	-0,042	0,050
-79,840	800,000	-0,021	0,065
-78,826	377,699	-0,003	0,005
-77,811	-106,895	-0,077	-0,012
-76,797	-38,496	-0,137	-0,052
-75,782	-155,931	0,125	-0,006
-74,767	-200,000	0,004	0,079
-73,753	-59,619	0,114	-0,035
-72,738	-22,539	-0,107	-0,046
-71,724	365,692	0,052	-0,075
-70,709	-200,000	0,017	-0,106
-69,694	-200,000	0,013	0,133
-68,680	800,000	-0,025	0,054
-67,665	800,000	-0,055	0,161
-66,651	421,410	0,039	0,060
-65,636	-200,000	0,016	-0,120
-64,622	-0,910	0,020	-0,010
-63,607	420,746	-0,069	-0,106
-62,592	-49,671	-0,045	-0,015
-61,578	345,282	-0,072	-0,101
-60,563	-200,000	0,001	-0,113
-59,549	-200,000	-0,014	0,082
-58,534	101,316	-2,474	-2,068
-57,519	51,061	0,399	-0,271
-56,505	-200,000	-1,715	-5,532
-55,490	560,991	1,254	2,185
-54,476	800,000	5,225	11,277
-53,461	-200,000	22,083	347,515
-52,446	800,000	760,455	2300,357
-51,432	515,212	1646,759	2770,549
-50,417	98,644	1610,440	1332,754
-49,403	66,727	1267,237	924,460
-48,388	23,408	1018,174	599,321
-47,373	19,254	985,349	566,273
-46,359	12,942	972,319	538,107
-45,344	8,733	969,108	522,519
-44,330	9,201	967,075	522,932
-43,315	8,252	965,107	518,747
-42,300	8,137	964,085	517,801
-41,286	8,123	962,975	517,137
-40,271	8,154	961,899	516,642
-39,257	8,111	961,320	516,169
-38,242	8,099	960,232	515,525
-37,227	8,055	959,585	515,016
-36,213	8,062	958,680	514,531
-35,198	8,070	957,758	514,043
-34,184	8,144	957,099	513,907
-33,169	8,056	956,131	513,084
-32,154	8,126	955,209	512,793
-31,140	8,143	954,360	512,372
-30,125	8,163	953,520	511,966
-29,111	8,172	952,679	511,525
-28,096	8,155	952,152	511,165
-27,082	8,139	951,526	510,758
-26,067	8,146	950,656	510,293
-25,052	8,038	950,011	509,578
-24,038	8,057	949,372	509,275
-23,023	8,038	948,648	508,807
-22,009	8,090	948,068	508,644
-20,994	8,078	947,457	508,257
-19,979	8,092	946,836	507,950
-18,965	8,100	946,104	507,560
-17,950	8,136	945,654	507,415
-16,936	8,097	944,864	506,847
-15,921	8,047	943,996	506,200
-14,906	7,987	943,464	505,703
-13,892	8,024	942,771	505,429
-12,877	7,951	942,264	504,905
-11,863	7,917	941,674	504,460
-10,848	7,987	941,106	504,358
-9,833	8,051	940,732	504,341
-8,819	8,028	939,941	503,825
-7,804	8,038	939,141	503,408
-6,790	7,942	938,842	502,922
-5,775	8,028	938,217	502,841
-4,760	7,986	937,512	502,311
-3,746	7,933	936,815	501,749
-2,731	7,859	936,211	501,171
-1,717	7,838	935,595	500,756
-0,702	7,794	935,119	500,340
0,313	7,681	934,209	500,252
1,327	11,099	932,001	509,806
2,342	19,847	780,147	449,675
3,356	14,928	448,504	251,082
4,371	-11,306	313,342	147,445
5,386	-15,149	295,750	135,259
6,400	-17,166	289,646	130,451
7,415	-17,308	286,938	129,080
8,429	-18,203	285,118	127,375
9,444	-18,249	284,101	126,864
10,459	-18,210	283,717	126,719
11,473	-18,004	282,823	126,509
12,488	-18,099	282,425	126,227
13,502	-18,170	281,962	125,940
14,517	-18,144	281,380	125,694
15,531	-18,113	281,002	125,544
16,546	-18,000	280,642	125,481
17,561	-17,975	280,159	125,278
18,575	-18,119	279,997	125,056
19,590	-18,233	279,444	124,688
20,604	-18,047	279,136	124,717
21,619	-18,218	278,912	124,443
22,634	-18,084	278,491	124,372
23,648	-18,158	278,207	124,163
24,663	-17,973	277,936	124,207
25,677	-18,139	277,686	123,927
26,692	-18,174	277,406	123,758
27,707	-17,959	277,052	123,792
28,721	-18,099	276,834	123,552
29,736	-18,241	276,692	123,343
30,750	-18,194	276,314	123,208
31,765	-18,103	275,890	123,094
32,780	-18,114	275,884	123,070
33,794	-18,092	275,552	122,931
34,809	-18,212	275,254	122,674
35,823	-18,147	275,003	122,613
36,838	-18,088	274,861	122,594
37,853	-18,297	274,539	122,244
38,867	-18,170	274,242	122,219
39,882	-17,949	273,903	122,264
40,896	-18,153	273,959	122,087
41,911	-18,079	273,590	121,981
42,926	-18,107	273,368	121,845
43,940	-18,022	273,007	121,753
44,955	-18,115	272,900	121,607
45,969	-18,061	272,570	121,499
46,984	-18,105	272,463	121,400
47,999	-18,004	272,146	121,342
49,013	-18,064	272,082	121,247
50,028	-18,007	271,594	121,071
51,042	-17,995	271,516	121,037
52,057	-18,017	271,396	120,952
53,071	-18,080	271,045	120,727
54,086	-18,025	270,931	120,716
55,101	-18,005	270,590	120,572
56,115	-18,021	270,233	120,387
57,130	-18,101	270,195	120,286
58,144	-18,149	269,832	120,070
59,159	-18,102	269,539	119,972
60,174	-17,866	269,421	120,126
61,188	-17,998	269,212	119,900
62,203	-17,975	268,823	119,737
63,217	-17,923	268,711	119,724
64,232	-18,017	268,533	119,548
65,247	-18,128	268,193	119,285
66,261	-18,065	267,980	119,237
67,276	-18,119	267,694	119,050
68,290	-18,022	267,505	119,044
69,305	-17,868	267,476	119,161
70,320	-17,924	267,159	118,958
71,334	-17,940	266,945	118,838
72,349	-18,023	266,561	118,580
73,363	-18,105	266,482	118,460
74,378	-18,002	266,086	118,367
75,393	-17,969	266,035	118,364
76,407	-17,812	265,652	118,325
77,422	-18,018	265,575	118,093
78,436	-17,976	265,270	117,985
79,451	-18,087	265,053	117,778
80,466	-18,033	264,927	117,760
81,480	-18,028	264,675	117,642
82,495	-17,968	264,415	117,570
83,509	-17,875	264,294	117,590
84,524	-17,975	264,136	117,419
85,539	-18,041	263,764	117,183
86,553	-18,268	263,771	116,972
87,568	-17,980	263,401	117,057
88,582	-18,140	263,198	116,812
89,597	-17,937	263,002	116,897
90,611	-18,159	262,806	116,600
91,626	-18,013	262,432	116,554
92,641	-18,131	262,316	116,387
93,655	-18,215	262,219	116,259
94,670	-17,978	261,869	116,305
95,684	-17,896	261,737	116,309
96,699	-18,064	261,579	116,079
97,714	-17,932	261,356	116,087
98,728	-17,935	261,189	116,000
99,743	-18,011	261,009	115,842
100,757	-18,085	260,760	115,655
101,772	-18,103	260,494	115,511
102,787	-18,103	260,243	115,389
103,801	-17,974	259,979	115,376
104,816	-17,978	259,893	115,324
105,830	-18,067	259,714	115,156
106,845	-18,203	259,558	114,956
107,860	-17,810	259,156	115,114
108,874	-17,868	259,046	115,004
109,889	-18,146	258,753	114,619
110,903	-18,059	258,777	114,697
111,918	-17,944	258,379	114,611
112,933	-18,099	258,220	114,393
113,947	-17,930	258,045	114,455
114,962	-17,921	257,785	114,337
115,976	-18,076	257,585	114,102
116,991	-18,071	257,493	114,056
118,006	-17,992	257,228	113,997
119,020	-17,908	257,086	113,997
120,035	-17,858	256,776	113,894
121,049	-17,833	256,626	113,838
122,064	-18,042	256,593	113,631
123,079	-17,869	256,279	113,633
124,093	-17,906	256,120	113,520
125,108	-17,807	255,777	113,444
126,122	-18,103	255,828	113,199
127,137	-18,099	255,578	113,082
128,151	-17,941	255,385	113,124
129,166	-17,920	254,980	112,952
130,181	-17,781	254,874	113,015
131,195	-17,878	254,510	112,760
132,210	-17,969	254,428	112,635
133,224	-17,843	254,206	112,636
134,239	-17,771	254,040	112,614
135,254	-17,962	253,965	112,406
136,268	-17,841	253,756	112,408
137,283	-17,747	253,586	112,403
138,297	-18,004	253,246	112,022
139,312	-17,685	253,029	112,189
140,327	-17,836	253,005	112,039
141,341	-17,768	252,731	111,967
142,356	-17,845	252,558	111,814
143,370	-17,707	252,435	111,868
144,385	-17,771	252,095	111,652
145,400	-17,735	251,846	111,563
146,414	-17,974	251,765	111,312
147,429	-17,854	251,489	111,283
148,443	-17,793	251,465	111,314
149,458	-17,994	251,209	111,020
150,473	-17,829	251,063	111,087
151,487	-17,950	250,833	110,872
152,502	-17,888	250,610	110,816
153,516	-18,023	250,433	110,613
154,531	-17,854	250,219	110,652
155,546	-17,819	249,936	110,547
156,560	-17,858	249,821	110,453
157,575	-17,616	249,655	110,574
158,589	-17,810	249,319	110,251
159,604	-17,960	249,334	110,122
160,619	-17,764	249,123	110,184
161,633	-17,860	249,032	110,054
162,648	-17,830	248,808	109,970
163,662	-17,954	248,789	109,847
164,677	-17,872	248,475	109,768
165,692	-17,905	248,151	109,587
166,706	-17,946	248,152	109,543
167,721	-18,007	247,953	109,394
168,735	-18,017	247,683	109,257
169,750	-17,706	247,626	109,483
170,764	-17,777	247,562	109,385
171,779	-17,947	247,439	109,179
172,794	-17,742	247,066	109,176
173,808	-17,602	246,977	109,244
174,823	-17,980	246,808	108,844
175,837	-17,833	246,550	108,843
176,852	-17,914	246,425	108,710
177,867	-17,855	246,290	108,690
178,881	-17,971	246,294	108,586
179,896	-17,972	245,849	108,379
180,910	-17,813	245,604	108,393
181,925	-17,828	245,518	108,334
182,940	-17,822	245,397	108,276
183,954	-17,884	245,268	108,157
184,969	-17,743	245,064	108,175
185,983	-17,707	244,979	108,157
186,998	-17,825	244,679	107,918
188,013	-17,894	244,507	107,775
189,027	-17,785	244,432	107,822
190,042	-17,831	244,120	107,637
191,056	-17,737	243,987	107,646
192,071	-17,758	243,769	107,524
193,086	-17,644	243,610	107,537
194,100	-17,741	243,505	107,402
195,115	-17,746	243,263	107,281
196,129	-17,826	243,055	107,115
197,144	-17,846	242,881	107,012
198,159	-17,816	242,684	106,940
199,173	-17,895	242,594	106,826
200,188	-17,916	242,421	106,723
201,202	-17,469	242,157	106,963
202,217	-17,649	241,996	106,736
203,232	-17,821	241,880	106,534
204,246	-17,892	241,664	106,372
205,261	-17,568	241,504	106,556
206,275	-16,294	242,123	107,859
207,290	-11,077	243,793	112,876
208,304	-5,190	245,524	118,525
209,319	-3,234	246,079	120,398
210,334	-2,315	246,158	121,183
211,348	-1,919	246,226	121,532
212,363	-1,331	246,337	122,062
213,377	-0,547	246,315	122,686
214,392	0,006	246,483	123,215
215,407	0,342	246,449	123,464
216,421	0,535	246,256	123,515
217,436	0,637	246,152	123,535
218,450	0,707	245,897	123,454
219,465	0,519	245,768	123,224
220,480	0,473	245,742	123,163
221,494	0,443	245,470	122,991
222,509	0,149	245,239	122,623
223,523	0,344	244,926	122,615
224,538	0,089	244,726	122,295
225,553	0,186	244,576	122,289
226,567	0,075	244,587	122,192
227,582	0,155	244,365	122,136
228,596	0,197	244,099	122,026
229,611	0,152	244,148	122,004
230,626	-0,014	243,757	121,662
231,640	-0,072	243,710	121,581
232,655	0,023	243,468	121,527
233,669	0,048	243,279	121,442
234,684	0,070	243,142	121,380
235,699	0,043	243,008	121,280
236,713	0,078	242,922	121,255
237,728	-0,016	242,726	121,070
238,742	0,207	242,507	121,131
239,757	0,271	242,295	121,066
240,772	-0,072	242,342	120,801
241,786	-0,005	242,101	120,724
242,801	0,063	241,897	120,666
243,815	0,016	241,912	120,626
244,830	-0,064	241,617	120,402
245,844	0,137	241,379	120,435
246,859	0,046	241,203	120,263
247,874	0,033	241,159	120,221
248,888	0,033	240,966	120,114
249,903	-0,169	240,983	119,949
250,917	0,142	240,688	120,041
251,932	0,154	240,633	120,013
252,947	0,211	240,277	119,870
253,961	0,129	240,350	119,830
254,976	0,334	240,023	119,820
255,990	0,020	239,934	119,514
257,005	0,130	239,718	119,484
258,020	0,227	239,685	119,534
259,034	0,216	239,395	119,370
260,049	0,058	239,361	119,216
261,063	0,030	239,232	119,120
262,078	-0,005	238,950	118,940
263,093	0,001	238,818	118,869
264,107	-0,058	238,638	118,722
265,122	0,160	238,417	118,775
266,136	0,180	238,303	118,723
267,151	0,032	238,113	118,500
268,166	0,061	238,068	118,490
269,180	0,117	237,869	118,425
270,195	0,036	237,696	118,264
271,209	0,254	237,440	118,299
272,224	-0,055	237,468	118,057
273,239	0,126	237,242	118,078
274,253	0,268	237,046	118,082
275,268	0,014	236,948	117,822
276,282	0,197	236,692	117,828
277,297	-0,027	236,548	117,570
278,312	0,216	236,356	117,655
279,326	0,206	236,281	117,599
280,341	0,353	236,115	117,622
281,355	0,249	236,002	117,473
282,370	0,138	235,991	117,370
283,384	0,162	235,794	117,280
284,399	-0,081	235,766	117,066
285,414	0,198	235,445	117,115
286,428	0,205	235,341	117,058
287,443	0,061	235,207	116,868
288,457	-0,036	235,074	116,716
289,472	0,254	234,772	116,782
290,487	0,253	234,761	116,765
291,501	0,158	234,550	116,575
292,516	0,082	234,425	116,444
293,530	-0,056	234,343	116,286
294,545	-0,110	234,272	116,198
295,560	0,327	233,955	116,369
296,574	0,266	233,621	116,146
297,589	0,188	233,624	116,077
298,603	0,218	233,557	116,056
299,618	0,337	233,443	116,081
300,633	0,311	233,239	115,950
301,647	0,325	233,189	115,925
302,662	0,545	232,974	115,977
303,676	0,468	232,887	115,864
304,691	0,364	232,702	115,682
305,706	0,395	232,410	115,550
306,720	0,485	232,447	115,628
307,735	0,449	232,161	115,448
308,749	0,408	232,143	115,397
309,764	0,415	232,049	115,345
310,779	0,300	231,884	115,164
311,793	0,586	231,506	115,185
312,808	0,344	231,441	114,957
313,822	0,133	231,451	114,791
314,837	0,495	231,124	114,895
315,852	0,574	231,046	114,907
316,866	0,612	230,846	114,826
317,881	0,349	230,655	114,520
318,895	0,398	230,571	114,505
319,910	0,382	230,428	114,412
320,925	0,483	230,154	114,343
321,939	0,458	230,183	114,328
322,954	0,391	229,918	114,135
323,968	0,307	230,088	114,145
324,983	0,494	229,668	114,069
325,997	0,409	229,549	113,935
327,012	0,451	229,405	113,885
328,027	0,511	229,212	113,825
329,041	0,371	229,186	113,695
330,056	0,267	229,022	113,525
331,070	0,320	228,886	113,488
332,085	0,514	228,667	113,516
333,100	0,593	228,465	113,466
334,114	0,471	228,449	113,355
335,129	0,641	228,149	113,325
336,143	0,430	228,117	113,139
337,158	0,710	227,868	113,217
338,173	0,376	227,961	113,001
339,187	0,609	227,676	113,025
340,202	0,504	227,497	112,847
341,216	0,606	227,367	112,849
342,231	0,643	227,254	112,811
343,246	0,589	227,103	112,685
344,260	0,852	226,959	112,801
345,275	0,862	226,894	112,766
346,289	0,850	226,688	112,644
347,304	0,675	226,567	112,443
348,319	0,817	226,302	112,408
349,333	0,813	226,091	112,291
350,348	0,699	226,021	112,161
351,362	0,725	225,976	112,147
352,377	0,632	225,824	111,993
353,392	0,663	225,640	111,914
354,406	0,682	225,706	111,951
355,421	192,860	1311,863	1379,848
356,435	154,520	1444,057	1379,692
