DTS Sentinel unit serial number:	SN410029Multiplexer serial number:	ORYXHardware model number:	OX2-SRSoftware version number:	ORYX F/W v4,00 Oryx Data Collector v3.7.2.0data status	okinstallation	B5 Nyhavnadifferential loss correction	single-endedforward channel	channel 2reverse channel	N/Adate	2023/12/12time	12:27:13forward acquisition time	300,00reverse acquisition time	0,00gamma	499,1914k internal	0,3158k external	0,3158temperature offset calibration	1,0000default loss term (dB/km)	0,3820temperature slope calibration	1,0000multiplexer offset coefficient	1,0000multiplexer slope coefficient	1,0000fibre end	0,00T internal ref (°C)	15,30T ext. ref 1 (°C)	-0,62T ext. ref 2 (°C)	-0,88length (m)	temperature (°C)	Stokes	anti-Stokes-744,400	345,973	0,088	-0,128
-743,385	-20,211	-0,049	-0,022
-742,371	-200,000	-0,014	0,058
-741,356	-176,986	-0,217	0,004
-740,342	800,000	0,045	0,093
-739,327	-76,447	-0,197	-0,051
-738,312	71,207	0,032	0,025
-737,298	-111,891	-0,312	-0,046
-736,283	1,608	0,101	0,054
-735,269	-20,181	-0,275	0,124
-734,254	411,644	0,110	0,173
-733,239	-169,568	-0,507	0,013
-732,225	153,090	0,107	0,108
-731,210	199,710	0,157	0,178
-730,196	567,783	-0,021	0,037
-729,181	-200,000	0,004	-0,026
-728,167	305,568	-0,065	-0,090
-727,152	246,895	-0,030	-0,037
-726,137	800,000	-0,043	-0,091
-725,123	-30,210	-0,081	-0,034
-724,108	450,511	-0,071	-0,115
-723,094	-23,343	-0,130	-0,057
-722,079	-200,000	-0,001	0,019
-721,064	68,703	-0,113	-0,085
-720,050	73,254	0,134	-0,103
-719,035	560,042	0,057	-0,101
-718,021	441,409	-0,158	-0,255
-717,006	680,200	-0,076	-0,147
-715,991	-72,830	-0,207	0,056
-714,977	-106,444	0,093	-0,015
-713,962	800,000	-0,023	0,051
-712,948	63,238	0,058	0,043
-711,933	-43,864	-0,042	0,016
-710,918	-22,634	-0,172	0,076
-709,904	7,936	0,057	0,031
-708,889	-67,254	-0,074	0,021
-707,875	-200,000	0,006	-0,037
-706,860	400,912	0,069	-0,108
-705,845	-0,686	0,049	-0,025
-704,831	353,641	-0,063	0,092
-703,816	-87,659	-0,026	-0,006
-702,802	-200,000	0,018	-0,077
-701,787	-10,678	-0,196	-0,095
-700,772	100,374	0,028	-0,024
-699,758	800,000	0,025	-0,061
-698,743	-92,898	-0,081	0,016
-697,729	-45,856	0,082	-0,030
-696,714	-117,118	-0,054	-0,007
-695,699	72,617	-0,146	-0,112
-694,685	-78,222	-0,106	0,026
-693,670	-9,552	-0,103	-0,050
-692,656	-200,000	0,008	-0,073
-691,641	-99,015	-0,074	-0,014
-690,627	20,071	0,024	-0,014
-689,612	-200,000	-0,009	0,051
-688,597	488,510	-0,012	-0,020
-687,583	42,741	-0,047	0,031
-686,568	-52,310	0,073	0,025
-685,554	-55,132	-0,082	-0,027
-684,539	580,293	-0,044	0,079
-683,524	800,000	0,028	0,072
-682,510	800,000	-0,006	0,015
-681,495	344,602	-0,061	0,088
-680,481	32,873	-0,147	-0,093
-679,466	-100,597	-0,095	-0,017
-678,451	-13,704	-0,053	-0,025
-677,437	268,907	0,051	-0,066
-676,422	-200,000	-0,010	-0,058
-675,408	800,000	-0,028	-0,063
-674,393	66,399	-0,044	-0,032
-673,378	-54,276	-0,136	-0,045
-672,364	230,967	-0,044	-0,054
-671,349	800,000	-0,035	0,077
-670,335	64,906	-0,065	-0,048
-669,320	-200,000	0,010	0,046
-668,305	515,751	-0,048	-0,082
-667,291	-38,586	-0,100	-0,039
-666,276	61,538	-0,109	0,080
-665,262	-200,000	0,009	0,032
-664,247	-95,399	0,121	0,024
-663,232	16,250	-0,044	0,025
-662,218	800,000	0,021	0,045
-661,203	-200,000	-0,003	0,025
-660,189	253,495	-0,093	-0,116
-659,174	-66,006	0,039	-0,011
-658,159	-59,793	0,083	-0,026
-657,145	-107,301	-0,161	0,026
-656,130	-145,929	-0,111	-0,007
-655,116	-200,000	0,020	0,150
-654,101	9,952	0,085	-0,047
-653,086	265,359	-0,011	0,015
-652,072	602,341	0,038	-0,070
-651,057	217,473	-0,070	-0,083
-650,043	146,310	-0,106	-0,104
-649,028	-200,000	0,030	0,110
-648,014	218,880	-0,008	0,009
-646,999	53,158	0,032	0,023
-645,984	42,084	0,034	0,022
-644,970	-81,066	-0,090	0,022
-643,955	-200,000	-0,007	-0,096
-642,941	800,000	0,047	0,149
-641,926	800,000	-0,037	-0,077
-640,911	228,442	-0,060	0,072
-639,897	-200,000	-0,010	0,082
-638,882	-200,000	-0,000	-0,122
-637,868	23,719	0,061	-0,037
-636,853	-141,270	-0,061	-0,004
-635,838	164,233	-0,116	-0,120
-634,824	-141,606	0,141	-0,010
-633,809	225,478	-0,025	0,030
-632,795	-90,279	0,123	-0,026
-631,780	627,055	-0,084	0,156
-630,765	114,752	-0,050	0,045
-629,751	259,200	-0,052	0,066
-628,736	-43,736	0,041	0,015
-627,722	132,456	-0,019	0,018
-626,707	800,000	-0,079	0,172
-625,692	243,294	-0,085	-0,105
-624,678	-200,000	0,015	0,224
-623,663	490,539	0,056	0,095
-622,649	54,366	-0,047	0,033
-621,634	-42,938	-0,032	0,012
-620,619	47,995	0,040	0,027
-619,605	168,843	-0,089	-0,093
-618,590	243,921	-0,086	0,106
-617,576	-200,000	-0,006	-0,061
-616,561	-61,099	-0,049	-0,015
-615,546	-115,688	-0,127	-0,017
-614,532	1,470	-0,160	-0,084
-613,517	-200,000	-0,012	-0,214
-612,503	19,993	-0,127	-0,075
-611,488	133,413	0,074	-0,070
-610,474	-37,471	-0,109	0,043
-609,459	-200,000	-0,024	-0,127
-608,444	-153,856	-0,094	0,005
-607,430	-86,131	0,111	0,025
-606,415	-200,000	0,001	-0,068
-605,401	-142,694	0,035	-0,002
-604,386	-200,000	0,008	-0,067
-603,371	-37,495	-0,042	0,016
-602,357	-19,555	0,025	0,011
-601,342	-200,000	0,042	0,170
-600,328	-16,695	-0,090	-0,042
-599,313	234,163	0,008	-0,010
-598,298	574,921	-0,037	0,066
-597,284	-200,000	-0,005	0,029
-596,269	-200,000	-0,043	0,176
-595,255	75,366	0,026	0,020
-594,240	-167,838	-0,156	0,004
-593,225	-24,827	-0,101	-0,044
-592,211	-200,000	0,033	-0,142
-591,196	-51,668	-0,091	-0,031
-590,182	800,000	0,054	-0,146
-589,167	339,198	0,067	0,096
-588,152	800,000	-0,017	-0,054
-587,138	-200,000	0,045	-0,151
-586,123	-200,000	-0,022	-0,113
-585,109	109,979	-0,064	-0,057
-584,094	-160,814	-0,100	-0,004
-583,079	8,309	-0,092	-0,050
-582,065	176,757	0,066	0,070
-581,050	114,562	0,052	0,046
-580,036	800,000	-0,066	-0,181
-579,021	-144,709	0,032	-0,002
-578,006	-54,685	-0,153	-0,050
-576,992	715,889	-0,090	-0,176
-575,977	-200,000	0,020	-0,105
-574,963	-49,453	0,033	-0,012
-573,948	-200,000	-0,027	0,146
-572,934	120,405	0,037	-0,034
-571,919	-96,780	-0,096	0,018
-570,904	-129,853	-0,105	-0,010
-569,890	-90,580	0,115	-0,024
-568,875	-29,405	0,037	-0,015
-567,861	-48,141	-0,089	-0,031
-566,846	170,192	0,101	0,106
-565,831	-2,209	-0,021	-0,011
-564,817	177,431	-0,078	0,083
-563,802	-77,449	-0,115	0,029
-562,788	800,000	0,074	0,178
-561,773	520,404	-0,042	0,072
-560,758	-193,363	0,093	0,001
-559,744	-148,972	0,061	0,004
-558,729	-200,000	-0,005	-0,066
-557,715	-25,326	0,150	0,065
-556,700	378,178	-0,103	-0,154
-555,685	674,088	-0,059	-0,112
-554,671	799,664	-0,033	-0,067
-553,656	373,674	0,073	0,110
-552,642	-200,000	0,010	-0,035
-551,627	39,143	0,052	0,034
-550,612	14,947	-0,104	0,059
-549,598	800,000	0,034	0,096
-548,583	-26,363	0,022	0,009
-547,569	-49,384	-0,079	-0,027
-546,554	-200,000	0,006	0,068
-545,539	-18,083	-0,025	0,011
-544,525	560,790	0,071	0,127
-543,510	-55,817	0,034	0,011
-542,496	-200,000	-0,013	0,059
-541,481	93,911	-0,072	-0,060
-540,466	54,990	-0,131	0,092
-539,452	217,295	0,081	0,094
-538,437	-27,117	-0,042	0,018
-537,423	-63,086	-0,060	-0,018
-536,408	-113,926	0,073	0,010
-535,393	-91,767	-0,214	0,044
-534,379	-200,000	-0,017	-0,162
-533,364	800,000	-0,025	-0,080
-532,350	-91,317	0,151	-0,031
-531,335	800,000	0,020	-0,048
-530,321	58,058	-0,062	-0,044
-529,306	-200,000	0,021	0,074
-528,291	-132,124	-0,083	-0,008
-527,277	-200,000	-0,005	-0,034
-526,262	648,212	-0,010	-0,018
-525,248	-18,640	0,052	-0,024
-524,233	800,000	-0,020	0,046
-523,218	800,000	0,044	-0,135
-522,204	-200,000	-0,032	0,128
-521,189	-43,885	-0,053	0,019
-520,175	-134,984	-0,078	-0,007
-519,160	-200,000	0,013	-0,120
-518,145	-200,000	0,005	-0,112
-517,131	30,498	0,072	-0,045
-516,116	-118,483	0,102	-0,013
-515,102	-145,600	0,023	0,001
-514,087	-67,238	0,091	-0,026
-513,072	-31,533	-0,052	-0,021
-512,058	-200,000	0,005	0,072
-511,043	-7,103	0,051	-0,025
-510,029	548,884	0,063	0,111
-509,014	-78,944	-0,039	-0,010
-507,999	16,763	0,044	-0,025
-506,985	-200,000	-0,015	0,064
-505,970	800,000	0,041	0,132
-504,956	-200,000	-0,009	0,038
-503,941	39,846	0,036	-0,023
-502,926	-200,000	0,000	-0,055
-501,912	800,000	0,036	0,107
-500,897	-129,611	-0,057	0,006
-499,883	-200,000	0,028	0,156
-498,868	-87,492	-0,119	0,026
-497,853	460,207	-0,061	-0,099
-496,839	-170,604	0,158	-0,004
-495,824	76,896	-0,107	0,083
-494,810	374,888	-0,085	0,127
-493,795	37,266	-0,024	-0,015
-492,781	800,000	-0,064	-0,146
-491,766	-200,000	-0,014	-0,079
-490,751	323,811	0,034	-0,047
-489,737	34,131	0,030	-0,019
-488,722	14,531	-0,069	0,039
-487,708	-0,723	0,087	-0,045
-486,693	165,273	0,085	-0,087
-485,678	-200,000	-0,002	-0,100
-484,664	-200,000	-0,027	-0,125
-483,649	-3,697	-0,014	-0,007
-482,635	31,765	-0,016	0,010
-481,620	-96,985	0,184	0,035
-480,605	-200,000	0,024	-0,092
-479,591	800,000	0,046	0,119
-478,576	-200,000	0,004	0,022
-477,562	348,822	-0,047	0,068
-476,547	-47,017	0,170	-0,060
-475,532	-200,000	-0,020	0,128
-474,518	-172,360	-0,101	-0,002
-473,503	390,657	0,045	-0,068
-472,489	-72,772	0,027	-0,007
-471,474	-92,334	0,081	0,016
-470,459	-36,675	-0,193	-0,075
-469,445	-200,000	0,007	-0,029
-468,430	343,214	-0,056	-0,080
-467,416	-200,000	-0,023	-0,092
-466,401	-156,510	0,135	0,006
-465,386	-200,000	-0,004	-0,067
-464,372	47,011	-0,113	0,077
-463,357	-2,149	0,162	0,082
-462,343	156,085	0,018	-0,018
-461,328	-26,095	0,007	0,003
-460,313	197,217	-0,028	0,031
-459,299	724,839	-0,035	0,068
-458,284	1,132	0,074	-0,038
-457,270	-200,000	-0,023	0,102
-456,255	220,206	0,063	0,073
-455,241	472,806	-0,059	-0,098
-454,226	148,251	0,034	-0,034
-453,211	-200,000	-0,012	0,077
-452,197	800,000	0,047	0,098
-451,182	256,426	-0,029	0,037
-450,168	-125,008	0,102	0,011
-449,153	3,068	0,058	-0,031
-448,138	133,135	-0,006	0,005
-447,124	-200,000	-0,000	0,054
-446,109	-200,000	-0,012	-0,138
-445,095	25,600	0,008	-0,005
-444,080	-89,375	-0,087	0,018
-443,065	800,000	0,034	0,098
-442,051	-137,543	-0,096	-0,008
-441,036	800,000	-0,028	-0,066
-440,022	-200,000	-0,009	0,114
-439,007	-103,511	0,141	-0,024
-437,992	-97,700	0,076	-0,014
-436,978	162,165	-0,029	-0,029
-435,963	-94,931	0,137	0,027
-434,949	-178,089	0,041	0,001
-433,934	800,000	-0,065	0,184
-432,919	-200,000	-0,017	-0,079
-431,905	-27,244	0,163	0,069
-430,890	-121,749	0,029	-0,003
-429,876	149,753	-0,065	-0,064
-428,861	-93,748	0,079	-0,016
-427,846	350,126	0,035	-0,051
-426,832	-200,000	-0,008	-0,077
-425,817	-37,989	-0,138	-0,053
-424,803	-89,639	-0,139	-0,029
-423,788	-200,000	-0,027	0,088
-422,773	38,846	0,051	0,033
-421,759	-200,000	-0,001	0,087
-420,744	-188,275	0,016	0,000
-419,730	-200,000	0,000	-0,046
-418,715	214,616	0,051	0,059
-417,701	-200,000	0,030	-0,151
-416,686	-190,705	-0,109	-0,001
-415,671	-10,206	0,161	-0,078
-414,657	414,604	0,064	-0,099
-413,642	-9,557	0,042	0,020
-412,628	237,235	-0,063	-0,076
-411,613	-99,472	-0,078	0,014
-410,598	-87,659	-0,119	0,026
-409,584	729,427	0,019	-0,037
-408,569	-96,292	0,092	0,018
-407,555	190,837	-0,046	0,051
-406,540	-50,865	-0,114	-0,039
-405,525	9,770	-0,083	0,045
-404,511	27,304	-0,052	-0,032
-403,496	-93,430	-0,085	0,017
-402,482	-79,110	-0,041	-0,010
-401,467	800,000	0,031	0,064
-400,452	19,360	0,118	-0,069
-399,438	84,979	0,114	0,091
-398,423	-33,050	-0,014	0,006
-397,409	678,786	0,056	-0,106
-396,394	-77,418	0,021	-0,005
-395,379	36,813	-0,030	0,020
-394,365	-105,378	0,198	-0,032
-393,350	195,624	0,129	-0,143
-392,336	-27,344	0,025	0,011
-391,321	800,000	0,059	-0,158
-390,306	116,253	-0,055	-0,049
-389,292	-200,000	-0,048	-0,172
-388,277	-17,480	0,105	-0,048
-387,263	-21,532	-0,022	-0,010
-386,248	-167,856	-0,041	-0,001
-385,233	-200,000	0,000	-0,015
-384,219	146,128	-0,109	0,107
-383,204	-51,000	0,049	0,016
-382,190	800,000	-0,069	0,142
-381,175	-174,668	-0,124	-0,003
-380,160	-58,966	0,187	-0,058
-379,146	79,097	0,201	0,157
-378,131	402,215	0,018	0,027
-377,117	800,000	-0,056	0,140
-376,102	-200,000	0,010	-0,137
-375,088	105,344	0,065	-0,055
-374,073	15,462	-0,087	-0,050
-373,058	-73,923	0,031	0,008
-372,044	-200,000	0,008	-0,062
-371,029	-200,000	-0,009	0,074
-370,015	-200,000	-0,008	-0,028
-369,000	-200,000	0,003	-0,023
-367,985	-200,000	0,001	-0,119
-366,971	-200,000	-0,001	-0,033
-365,956	800,000	-0,059	-0,133
-364,942	17,979	0,027	0,015
-363,927	-200,000	0,033	0,178
-362,912	800,000	0,040	0,116
-361,898	332,892	-0,009	-0,013
-360,883	-200,000	-0,033	0,142
-359,869	175,935	0,115	-0,121
-358,854	18,508	0,099	0,057
-357,839	-2,466	-0,052	0,026
-356,825	-200,000	0,129	-0,000
-355,810	19,165	-0,086	0,050
-354,796	480,151	-0,078	-0,129
-353,781	-200,000	0,040	0,130
-352,766	800,000	-0,027	-0,077
-351,752	-58,124	0,149	0,047
-350,737	-144,403	0,053	0,004
-349,723	-167,366	0,150	-0,004
-348,708	-200,000	0,017	0,116
-347,693	473,971	-0,054	0,088
-346,679	176,365	-0,091	0,096
-345,664	-200,000	-0,001	0,007
-344,650	-200,000	0,014	0,088
-343,635	-200,000	0,009	0,034
-342,620	-200,000	-0,006	0,057
-341,606	41,788	-0,035	-0,023
-340,591	800,000	0,018	-0,045
-339,577	800,000	0,009	-0,020
-338,562	118,547	0,060	0,053
-337,548	800,000	0,014	-0,030
-336,533	-200,000	-0,020	0,170
-335,518	-106,302	-0,124	0,020
-334,504	-200,000	-0,027	0,113
-333,489	105,566	-0,015	0,013
-332,475	-200,000	-0,016	-0,125
-331,460	-78,989	-0,223	-0,054
-330,445	639,797	0,040	0,074
-329,431	800,000	0,039	0,115
-328,416	96,782	-0,116	0,096
-327,402	-200,000	0,023	0,101
-326,387	-111,856	0,123	0,018
-325,372	800,000	0,026	-0,082
-324,358	-130,613	0,075	-0,007
-323,343	233,405	-0,071	-0,085
-322,329	800,000	-0,019	-0,047
-321,314	268,799	0,028	-0,035
-320,299	166,123	-0,027	0,028
-319,285	85,587	0,114	0,091
-318,270	63,550	0,135	0,098
-317,256	-11,140	-0,047	-0,022
-316,241	-200,000	0,042	-0,185
-315,226	397,554	0,068	-0,104
-314,212	-200,000	-0,048	0,210
-313,197	355,608	0,046	0,067
-312,183	-200,000	-0,013	-0,093
-311,168	75,950	-0,095	-0,073
-310,153	284,312	-0,122	-0,159
-309,139	62,879	0,037	0,027
-308,124	208,216	0,050	0,057
-307,110	672,084	0,038	0,072
-306,095	-200,000	-0,031	-0,102
-305,080	-141,150	-0,132	0,010
-304,066	800,000	-0,010	0,023
-303,051	131,719	-0,110	-0,103
-302,037	-54,647	0,066	0,022
-301,022	206,432	-0,060	0,068
-300,008	63,522	-0,036	-0,026
-298,993	-166,305	0,176	-0,005
-297,978	800,000	-0,007	-0,016
-296,964	56,420	0,089	0,063
-295,949	-200,000	-0,001	-0,032
-294,935	-189,785	-0,018	0,000
-293,920	155,618	0,061	-0,061
-292,905	53,543	0,070	0,049
-291,891	-200,000	-0,008	-0,139
-290,876	4,834	0,092	0,049
-289,862	-20,978	-0,084	0,037
-288,847	42,918	-0,140	-0,092
-287,832	-200,000	-0,002	-0,109
-286,818	566,703	0,024	0,042
-285,803	1,856	0,074	0,039
-284,789	118,724	0,098	-0,087
-283,774	71,449	0,098	0,074
-282,759	306,433	0,085	-0,115
-281,745	122,729	-0,025	0,023
-280,730	174,551	0,057	0,059
-279,716	-200,000	-0,018	0,064
-278,701	722,032	-0,068	0,131
-277,686	90,927	0,059	0,048
-276,672	323,271	0,023	0,031
-275,657	-200,000	-0,021	0,101
-274,643	18,490	-0,069	-0,040
-273,628	154,747	0,022	-0,022
-272,613	-200,000	-0,016	0,060
-271,599	-89,502	0,155	-0,033
-270,584	-57,724	-0,074	-0,023
-269,570	800,000	-0,072	-0,174
-268,555	-200,000	0,006	0,089
-267,540	-200,000	-0,009	0,061
-266,526	330,784	0,057	0,079
-265,511	-103,422	0,073	0,012
-264,497	-106,048	-0,083	0,013
-263,482	206,666	-0,074	-0,083
-262,467	48,957	-0,048	0,033
-261,453	247,497	-0,029	0,036
-260,438	4,250	-0,139	-0,073
-259,424	-200,000	0,003	0,029
-258,409	59,518	0,130	-0,093
-257,395	-200,000	-0,003	-0,013
-256,380	241,644	-0,032	0,039
-255,365	84,481	0,094	0,074
-254,351	144,719	-0,038	0,036
-253,336	-144,272	0,079	0,005
-252,322	-200,000	-0,015	-0,048
-251,307	-100,786	-0,090	0,016
-250,292	48,701	0,063	0,042
-249,278	-112,581	0,199	0,028
-248,263	-149,055	0,081	-0,005
-247,249	94,006	-0,063	-0,052
-246,234	93,512	-0,088	-0,072
-245,219	370,397	-0,083	-0,122
-244,205	800,000	0,041	-0,130
-243,190	800,000	0,027	0,070
-242,176	-200,000	-0,013	0,086
-241,161	-200,000	-0,017	0,093
-240,146	-192,117	-0,054	0,000
-239,132	248,210	0,163	-0,199
-238,117	-69,951	0,046	-0,013
-237,103	-200,000	0,007	-0,121
-236,088	-132,562	-0,105	-0,010
-235,073	-176,626	0,043	-0,001
-234,059	324,699	0,029	0,040
-233,044	87,247	0,126	-0,101
-232,030	-75,220	-0,121	0,031
-231,015	153,134	0,079	-0,078
-230,000	433,672	-0,031	-0,049
-228,986	687,927	-0,022	0,042
-227,971	128,436	0,090	-0,083
-226,957	800,000	0,047	-0,119
-225,942	-200,000	-0,019	0,077
-224,927	37,653	-0,072	-0,046
-223,913	-192,648	0,190	0,001
-222,898	143,956	-0,028	-0,027
-221,884	800,000	-0,019	0,056
-220,869	-200,000	-0,039	0,169
-219,855	190,296	-0,027	-0,030
-218,840	688,499	0,059	0,111
-217,825	-101,966	0,133	0,023
-216,811	108,594	0,056	0,048
-215,796	85,848	-0,025	-0,020
-214,782	-58,320	-0,079	0,025
-213,767	-181,054	0,043	-0,001
-212,752	237,295	-0,054	0,065
-211,738	106,920	-0,064	0,055
-210,723	753,970	0,010	0,020
-209,709	88,530	-0,045	-0,036
-208,694	-200,000	-0,030	-0,113
-207,679	24,785	0,124	-0,074
-206,665	-200,000	-0,006	-0,026
-205,650	-200,000	0,034	0,127
-204,636	-199,743	0,099	-0,000
-203,621	662,804	-0,048	0,089
-202,606	115,462	-0,044	-0,039
-201,592	-200,000	0,006	-0,041
-200,577	-200,000	0,016	0,108
-199,563	800,000	0,068	0,148
-198,548	-113,287	0,061	0,009
-197,533	54,168	0,119	-0,082
-196,519	-200,000	-0,008	-0,030
-195,504	39,124	0,026	-0,017
-194,490	281,505	0,032	-0,042
-193,475	-20,318	-0,132	-0,058
-192,460	9,826	-0,073	-0,040
-191,446	800,000	-0,032	-0,085
-190,431	-77,498	0,119	0,029
-189,417	74,103	0,064	-0,048
-188,402	135,490	-0,106	0,099
-187,387	-149,379	0,149	-0,008
-186,373	-200,000	-0,021	-0,070
-185,358	-200,000	0,006	0,033
-184,344	-200,000	0,021	0,103
-183,329	-51,938	-0,105	0,035
-182,315	8,121	-0,059	0,032
-181,300	83,755	-0,035	-0,027
-180,285	-17,266	-0,089	-0,040
-179,271	-101,063	0,045	0,008
-178,256	352,719	0,036	-0,052
-177,242	-200,000	-0,008	-0,038
-176,227	12,052	0,196	-0,108
-175,212	-28,892	-0,124	0,051
-174,198	-200,000	-0,006	0,033
-173,183	-200,000	-0,002	-0,071
-172,169	-200,000	-0,014	-0,053
-171,154	-200,000	-0,004	-0,046
-170,139	-18,558	-0,095	0,042
-169,125	186,104	-0,110	0,118
-168,110	-34,044	-0,083	-0,033
-167,096	800,000	0,009	-0,024
-166,081	-121,772	-0,014	0,002
-165,066	-130,386	0,041	-0,004
-164,052	-81,984	-0,029	-0,007
-163,037	120,333	-0,089	0,079
-162,023	-200,000	0,002	0,042
-161,008	-200,000	0,007	0,087
-159,993	196,307	-0,064	0,070
-158,979	-136,698	0,063	-0,005
-157,964	322,609	-0,067	0,092
-156,950	0,390	-0,149	-0,076
-155,935	718,601	0,095	-0,183
-154,920	-200,000	-0,000	0,025
-153,906	-129,602	0,095	-0,009
-152,891	110,005	-0,059	0,051
-151,877	215,015	-0,018	0,021
-150,862	-164,986	-0,054	-0,002
-149,847	-200,000	-0,001	-0,130
-148,833	134,006	-0,101	-0,094
-147,818	-200,000	0,022	-0,140
-146,804	274,235	-0,047	0,060
-145,789	-107,209	-0,008	-0,001
-144,775	-200,000	0,028	-0,119
-143,760	-67,114	-0,066	0,019
-142,745	-82,580	0,105	-0,024
-141,731	-119,335	0,036	-0,004
-140,716	116,823	-0,123	-0,109
-139,702	206,148	0,120	-0,134
-138,687	129,653	-0,040	-0,037
-137,672	-5,686	0,024	-0,012
-136,658	280,435	-0,067	-0,086
-135,643	269,211	-0,121	0,154
-134,629	126,733	-0,036	0,033
-133,614	404,524	-0,069	0,105
-132,599	17,770	-0,032	0,019
-131,585	297,923	-0,095	0,126
-130,570	-0,538	-0,129	0,066
-129,556	800,000	-0,057	-0,115
-128,541	186,486	-0,077	0,082
-127,526	-28,452	-0,119	0,049
-126,512	-200,000	-0,021	0,099
-125,497	800,000	0,044	0,117
-124,483	389,618	-0,078	0,116
-123,468	-30,677	-0,153	0,062
-122,453	-156,323	-0,042	0,002
-121,439	191,535	-0,071	-0,077
-120,424	-200,000	0,009	0,076
-119,410	51,121	0,131	-0,089
-118,395	-57,269	0,060	-0,019
-117,380	-114,167	0,161	0,022
-116,366	319,979	0,041	-0,056
-115,351	11,730	-0,129	-0,071
-114,337	-200,000	-0,009	-0,069
-113,322	-88,395	-0,090	0,019
-112,307	235,263	-0,032	0,038
-111,293	95,008	0,095	0,078
-110,278	-40,667	-0,067	-0,025
-109,264	-81,771	0,059	0,014
-108,249	166,698	0,050	-0,051
-107,234	296,705	-0,022	0,029
-106,220	-72,054	-0,054	-0,014
-105,205	-200,000	0,012	0,097
-104,191	123,220	-0,085	-0,077
-103,176	-176,714	-0,065	0,001
-102,162	-135,098	0,059	0,005
-101,147	-70,401	-0,139	-0,038
-100,132	166,789	-0,082	0,083
-99,118	30,928	-0,049	-0,030
-98,103	-200,000	-0,008	-0,029
-97,089	-200,000	-0,004	0,050
-96,074	-129,169	0,007	-0,001
-95,059	800,000	0,037	0,094
-94,045	52,075	0,023	-0,016
-93,030	-200,000	-0,031	-0,135
-92,016	532,595	-0,014	-0,025
-91,001	311,321	0,018	-0,025
-89,986	158,771	-0,111	-0,111
-88,972	-45,071	0,104	0,037
-87,957	-200,000	-0,011	0,190
-86,943	346,337	0,082	0,116
-85,928	42,090	-0,115	0,075
-84,913	-119,373	-0,051	0,006
-83,899	395,338	-0,062	-0,093
-82,884	-80,586	-0,096	0,023
-81,870	800,000	0,027	-0,077
-80,855	233,486	0,045	0,054
-79,840	608,558	-0,114	0,205
-78,826	28,474	-0,083	-0,051
-77,811	-106,627	-0,043	-0,007
-76,797	605,861	-0,037	0,066
-75,782	-0,452	0,124	-0,063
-74,767	-200,000	0,017	-0,101
-73,753	149,479	-0,062	0,061
-72,738	-131,795	-0,144	0,013
-71,724	800,000	-0,028	-0,061
-70,709	-200,000	-0,003	-0,077
-69,694	-86,837	0,153	-0,033
-68,680	29,110	0,140	0,085
-67,665	113,950	0,083	0,072
-66,651	132,109	-0,118	0,109
-65,636	341,526	-0,065	-0,091
-64,622	-155,081	-0,203	0,009
-63,607	71,767	-0,143	-0,106
-62,592	726,568	0,098	-0,188
-61,578	351,963	0,015	-0,021
-60,563	185,106	-0,029	-0,030
-59,549	322,619	-0,026	0,036
-58,534	-1,376	-1,891	-0,955
-57,519	800,000	-0,358	-0,975
-56,505	-200,000	-1,214	-4,975
-55,490	16,471	0,805	0,455
-54,476	800,000	5,352	12,192
-53,461	-200,000	17,527	283,204
-52,446	800,000	727,193	2214,287
-51,432	535,318	1643,121	2807,115
-50,417	109,963	1633,725	1406,138
-49,403	75,484	1286,204	973,146
-48,388	32,060	1027,260	633,955
-47,373	20,128	989,335	571,221
-46,359	18,498	977,146	558,820
-45,344	15,633	972,999	547,058
-44,330	15,812	971,662	546,870
-43,315	15,378	969,881	544,428
-42,300	15,359	968,540	543,592
-41,286	15,257	967,803	542,823
-40,271	15,283	966,934	542,401
-39,257	15,349	965,860	541,991
-38,242	15,277	965,037	541,273
-37,227	15,340	964,069	540,913
-36,213	15,339	963,313	540,467
-35,198	15,371	962,382	540,026
-34,184	15,351	961,653	539,531
-33,169	15,271	960,710	538,719
-32,154	15,362	959,765	538,464
-31,140	15,337	958,871	537,861
-30,125	15,329	958,409	537,553
-29,111	15,331	957,351	536,946
-28,096	15,417	956,666	536,817
-27,082	15,381	955,988	536,299
-26,067	15,380	955,134	535,795
-25,052	15,349	954,491	535,315
-24,038	15,320	953,848	534,839
-23,023	15,292	953,090	534,304
-22,009	15,388	952,441	534,225
-20,994	15,372	952,005	533,909
-19,979	15,280	951,389	533,247
-18,965	15,327	950,641	532,958
-17,950	15,356	950,043	532,692
-16,936	15,274	949,355	532,025
-15,921	15,314	948,454	531,625
-14,906	15,251	948,022	531,163
-13,892	15,202	947,392	530,631
-12,877	15,201	946,632	530,183
-11,863	15,193	946,077	529,825
-10,848	15,187	945,706	529,576
-9,833	15,306	945,141	529,619
-8,819	15,230	944,515	529,003
-7,804	15,308	943,690	528,768
-6,790	15,197	943,346	528,203
-5,775	15,270	942,643	528,019
-4,760	15,292	941,978	527,697
-3,746	15,182	941,532	527,077
-2,731	15,101	940,806	526,394
-1,717	15,068	940,043	525,840
-0,702	15,080	939,426	525,515
0,313	14,916	938,776	525,425
1,327	18,108	936,543	534,179
2,342	26,941	794,366	476,487
3,356	23,811	459,534	270,828
4,371	-2,945	315,277	157,304
5,386	-6,975	297,118	144,141
6,400	-8,810	291,035	139,352
7,415	-9,385	288,499	137,558
8,429	-9,359	286,948	136,832
9,444	-9,508	286,013	136,228
10,459	-9,542	285,427	135,903
11,473	-9,747	284,753	135,371
12,488	-9,581	284,292	135,301
13,502	-9,519	283,779	135,105
14,517	-9,734	283,490	134,747
15,531	-9,860	282,994	134,378
16,546	-9,643	282,480	134,330
17,561	-9,724	282,198	134,106
18,575	-9,637	281,764	133,972
19,590	-9,763	281,339	133,636
20,604	-9,746	281,071	133,514
21,619	-9,944	280,734	133,152
22,634	-9,736	280,240	133,105
23,648	-9,870	280,083	132,890
24,663	-9,930	279,932	132,749
25,677	-9,648	279,547	132,825
26,692	-9,623	279,122	132,635
27,707	-9,742	279,071	132,485
28,721	-9,929	278,721	132,129
29,736	-9,741	278,440	132,162
30,750	-9,783	278,089	131,944
31,765	-10,011	277,907	131,630
32,780	-9,967	277,814	131,616
33,794	-9,770	277,454	131,620
34,809	-9,886	277,210	131,383
35,823	-9,926	276,911	131,192
36,838	-9,746	276,593	131,199
37,853	-9,939	276,536	130,979
38,867	-9,833	276,275	130,943
39,882	-9,775	275,848	130,783
40,896	-9,883	275,716	130,608
41,911	-9,928	275,394	130,401
42,926	-9,860	275,116	130,322
43,940	-9,884	274,698	130,090
44,955	-9,843	274,716	130,125
45,969	-9,982	274,522	129,891
46,984	-10,120	274,255	129,624
47,999	-10,233	274,053	129,412
49,013	-10,418	273,707	129,064
50,028	-10,718	273,368	128,613
51,042	-10,559	273,118	128,632
52,057	-10,477	272,944	128,615
53,071	-10,658	272,742	128,340
54,086	-10,495	272,655	128,439
55,101	-10,141	272,317	128,597
56,115	-10,266	272,267	128,446
57,130	-9,895	272,107	128,703
58,144	-9,617	271,804	128,806
59,159	-9,498	271,680	128,846
60,174	-9,625	271,546	128,653
61,188	-9,628	271,181	128,466
62,203	-9,780	271,027	128,241
63,217	-9,735	270,759	128,144
64,232	-9,651	270,535	128,104
65,247	-9,576	270,552	128,170
66,261	-9,675	270,121	127,864
67,276	-9,857	269,776	127,522
68,290	-9,917	269,460	127,306
69,305	-10,163	269,357	127,021
70,320	-10,012	269,003	126,980
71,334	-9,933	268,982	127,031
72,349	-9,870	268,908	127,042
73,363	-9,616	268,683	127,157
74,378	-9,624	268,375	126,993
75,393	-9,818	268,134	126,691
76,407	-9,704	267,863	126,655
77,422	-9,677	267,690	126,586
78,436	-9,575	267,395	126,529
79,451	-9,487	267,303	126,553
80,466	-9,743	267,044	126,187
81,480	-9,853	266,902	126,009
82,495	-9,647	266,431	125,962
83,509	-9,861	266,530	125,804
84,524	-9,888	266,128	125,579
85,539	-9,922	265,965	125,460
86,553	-10,035	265,720	125,231
87,568	-9,837	265,587	125,335
88,582	-9,794	265,386	125,268
89,597	-10,016	265,233	124,985
90,611	-9,766	264,989	125,084
91,626	-9,621	264,742	125,086
92,641	-9,811	264,688	124,879
93,655	-9,793	264,366	124,732
94,670	-9,723	264,108	124,662
95,684	-9,861	263,934	124,445
96,699	-9,864	263,708	124,325
97,714	-9,681	263,578	124,416
98,728	-9,912	263,176	124,009
99,743	-9,925	263,048	123,927
100,757	-9,981	262,878	123,785
101,772	-9,971	262,720	123,708
102,787	-9,788	262,553	123,782
103,801	-9,667	262,398	123,805
104,816	-9,662	262,237	123,723
105,830	-9,408	262,074	123,861
106,845	-9,825	262,005	123,446
107,860	-9,604	261,698	123,487
108,874	-9,716	261,439	123,254
109,889	-9,757	261,173	123,082
110,903	-10,035	261,087	122,784
111,918	-9,738	260,819	122,909
112,933	-9,673	260,594	122,850
113,947	-9,569	260,364	122,822
114,962	-9,506	260,117	122,750
115,976	-9,608	260,096	122,640
116,991	-9,649	259,814	122,460
118,006	-9,753	259,704	122,305
119,020	-9,519	259,505	122,406
120,035	-9,495	259,445	122,389
121,049	-9,623	259,229	122,164
122,064	-9,669	259,080	122,042
123,079	-9,478	258,875	122,102
124,093	-9,714	258,528	121,720
125,108	-9,966	258,360	121,410
126,122	-10,016	258,016	121,194
127,137	-10,154	257,847	120,983
128,151	-9,896	257,704	121,131
129,166	-9,913	257,504	121,011
130,181	-9,966	257,463	120,935
131,195	-10,066	257,054	120,645
132,210	-10,032	257,035	120,655
133,224	-9,701	256,656	120,754
134,239	-9,623	256,603	120,786
135,254	-9,699	256,617	120,716
136,268	-9,902	256,273	120,367
137,283	-9,823	255,921	120,260
138,297	-10,031	255,644	119,938
139,312	-10,238	255,553	119,706
140,327	-9,849	255,428	119,973
141,341	-9,670	255,416	120,112
142,356	-9,575	255,188	120,076
143,370	-9,650	255,078	119,948
144,385	-9,450	254,880	120,017
145,400	-9,486	254,696	119,888
146,414	-9,408	254,590	119,895
147,429	-9,560	254,315	119,624
148,443	-9,395	254,073	119,641
149,458	-9,466	253,832	119,456
150,473	-9,457	253,717	119,399
151,487	-9,557	253,660	119,275
152,502	-9,498	253,299	119,146
153,516	-9,521	253,102	119,023
154,531	-9,598	252,929	118,865
155,546	-9,636	252,833	118,777
156,560	-9,510	252,615	118,771
157,575	-9,607	252,332	118,545
158,589	-9,590	252,201	118,488
159,604	-9,385	251,977	118,547
160,619	-9,558	251,914	118,359
161,633	-9,505	251,667	118,277
162,648	-9,691	251,562	118,060
163,662	-9,468	251,428	118,175
164,677	-9,466	251,191	118,055
165,692	-9,406	251,210	118,104
166,706	-9,240	250,960	118,117
167,721	-9,487	250,758	117,803
168,735	-9,332	250,584	117,841
169,750	-9,577	250,614	117,638
170,764	-9,412	250,373	117,653
171,779	-9,429	250,050	117,476
172,794	-9,440	250,068	117,465
173,808	-9,382	249,849	117,401
174,823	-9,880	249,533	116,823
175,837	-10,030	249,356	116,603
176,852	-9,627	249,239	116,877
177,867	-9,228	249,026	117,102
178,881	-9,381	248,957	116,930
179,896	-9,347	248,874	116,909
180,910	-9,292	248,525	116,781
181,925	-9,247	248,478	116,787
182,940	-9,514	248,289	116,463
183,954	-9,582	248,238	116,373
184,969	-9,584	247,958	116,229
185,983	-9,539	247,788	116,177
186,998	-9,438	247,577	116,152
188,013	-9,394	247,438	116,113
189,027	-9,409	247,206	115,981
190,042	-9,264	247,030	116,008
191,056	-9,366	246,944	115,873
192,071	-9,318	246,879	115,873
193,086	-9,338	246,610	115,719
194,100	-9,193	246,417	115,738
195,115	-9,235	246,421	115,695
196,129	-9,268	245,900	115,413
197,144	-9,357	245,796	115,280
198,159	-9,132	245,588	115,359
199,173	-9,165	245,392	115,229
200,188	-9,370	245,462	115,082
201,202	-9,385	245,056	114,869
202,217	-9,811	244,677	114,331
203,232	-9,945	244,563	114,157
204,246	-9,309	244,613	114,694
205,261	-9,046	244,745	114,962
206,275	-9,484	244,255	114,362
207,290	-5,846	245,721	118,041
208,304	0,632	247,864	124,438
209,319	3,587	248,475	127,185
210,334	3,984	248,532	127,533
211,348	3,993	248,495	127,510
212,363	4,464	248,442	127,862
213,377	4,582	248,193	127,820
214,392	4,474	248,069	127,655
215,407	4,365	247,965	127,500
216,421	4,465	247,601	127,384
217,436	4,551	247,672	127,480
218,450	4,466	247,561	127,341
219,465	4,474	247,173	127,137
220,480	4,271	247,057	126,899
221,494	4,236	246,746	126,699
222,509	4,010	246,734	126,496
223,523	4,120	246,503	126,456
224,538	3,642	246,140	125,867
225,553	3,715	246,021	125,855
226,567	3,977	245,941	126,017
227,582	3,914	245,807	125,886
228,596	3,992	245,715	125,891
229,611	3,735	245,389	125,503
230,626	3,830	245,138	125,441
231,640	3,786	245,095	125,372
232,655	4,092	244,974	125,548
233,669	3,757	244,704	125,126
234,684	3,960	244,442	125,146
235,699	4,142	244,461	125,293
236,713	4,338	244,453	125,437
237,728	4,008	244,212	125,034
238,742	3,798	243,845	124,665
239,757	3,788	243,764	124,603
240,772	3,821	243,604	124,538
241,786	3,839	243,545	124,511
242,801	3,760	243,275	124,298
243,815	3,781	243,163	124,246
244,830	3,646	243,101	124,095
245,844	3,779	242,945	124,112
246,859	3,849	242,697	124,030
247,874	3,863	242,528	123,944
248,888	3,819	242,293	123,777
249,903	3,993	242,270	123,895
250,917	4,065	242,160	123,885
251,932	4,019	242,143	123,829
252,947	4,109	241,780	123,704
253,961	3,859	241,656	123,429
254,976	3,823	241,600	123,360
255,990	4,077	241,325	123,413
257,005	4,003	241,012	123,182
258,020	3,975	240,932	123,109
259,034	3,817	240,823	122,915
260,049	3,965	240,761	122,991
261,063	3,953	240,459	122,816
262,078	3,727	240,395	122,592
263,093	4,022	240,305	122,770
264,107	4,084	240,147	122,728
265,122	3,890	239,885	122,429
266,136	4,002	239,804	122,466
267,151	4,076	239,740	122,481
268,166	3,881	239,483	122,184
269,180	3,689	239,176	121,864
270,195	4,454	239,216	122,480
271,209	4,468	239,201	122,473
272,224	4,198	238,827	122,057
273,239	3,500	238,583	121,369
274,253	3,526	238,491	121,331
275,268	3,973	238,375	121,615
276,282	4,010	238,192	121,540
277,297	3,565	238,145	121,154
278,312	3,723	237,892	121,140
279,326	3,801	237,867	121,177
280,341	3,941	237,614	121,148
281,355	4,060	237,518	121,182
282,370	3,966	237,402	121,038
283,384	3,980	237,162	120,916
284,399	4,071	236,855	120,820
285,414	3,801	236,820	120,579
286,428	3,846	236,716	120,551
287,443	3,829	236,509	120,421
288,457	4,006	236,393	120,490
289,472	4,059	236,334	120,491
290,487	4,152	236,076	120,421
291,501	3,669	235,953	119,970
292,516	3,576	235,658	119,737
293,530	3,533	235,654	119,691
294,545	3,643	235,530	119,703
295,560	4,025	235,334	119,890
296,574	3,688	235,141	119,519
297,589	3,776	235,069	119,540
298,603	4,155	235,005	119,792
299,618	4,164	234,807	119,688
300,633	3,954	234,731	119,475
301,647	4,059	234,576	119,467
302,662	4,459	234,552	119,754
303,676	4,459	234,390	119,661
304,691	4,116	234,065	119,219
305,706	4,523	233,893	119,435
306,720	4,413	233,810	119,297
307,735	4,147	233,640	118,994
308,749	4,130	233,417	118,856
309,764	3,832	233,350	118,583
310,779	3,831	233,052	118,420
311,793	3,759	232,894	118,273
312,808	3,475	232,822	118,007
313,822	3,464	232,564	117,858
314,837	3,590	232,355	117,838
315,852	3,610	232,389	117,860
316,866	4,034	232,235	118,097
317,881	4,193	232,004	118,091
318,895	4,186	232,027	118,087
319,910	4,062	231,788	117,859
320,925	3,988	231,690	117,743
321,939	4,140	231,479	117,741
322,954	4,102	231,503	117,713
323,968	4,005	231,462	117,608
324,983	3,718	231,034	117,162
325,997	3,731	230,930	117,108
327,012	3,921	230,870	117,212
328,027	4,149	230,736	117,308
329,041	4,340	230,649	117,398
330,056	4,666	230,651	117,636
331,070	4,541	230,411	117,409
332,085	4,364	230,203	117,157
333,100	4,366	229,992	117,042
334,114	4,018	229,717	116,627
335,129	4,413	229,656	116,885
336,143	4,380	229,628	116,836
337,158	4,363	229,491	116,743
338,173	4,184	229,261	116,480
339,187	4,037	229,074	116,263
340,202	4,115	228,991	116,269
341,216	4,287	228,754	116,269
342,231	4,119	228,609	116,058
343,246	4,016	228,411	115,870
344,260	4,263	228,311	115,995
345,275	4,281	228,302	115,993
346,289	4,327	228,257	115,994
347,304	4,487	228,008	115,978
348,319	4,354	227,807	115,766
349,333	4,384	227,594	115,669
350,348	3,952	227,437	115,255
351,362	4,062	227,270	115,243
352,377	4,074	227,094	115,153
353,392	3,713	226,973	114,811
354,406	3,896	226,873	114,887
355,421	194,890	1321,960	1396,350
356,435	156,216	1455,376	1396,340
