DTS Sentinel unit serial number:	SN410029Multiplexer serial number:	ORYXHardware model number:	OX2-SRSoftware version number:	ORYX F/W v4,00 Oryx Data Collector v3.7.2.0data status	okinstallation	B5 Nyhavnadifferential loss correction	single-endedforward channel	channel 2reverse channel	N/Adate	2023/12/13time	14:27:13forward acquisition time	300,00reverse acquisition time	0,00gamma	499,1914k internal	0,3160k external	0,3160temperature offset calibration	1,0000default loss term (dB/km)	0,3820temperature slope calibration	1,0000multiplexer offset coefficient	1,0000multiplexer slope coefficient	1,0000fibre end	0,00T internal ref (°C)	14,94T ext. ref 1 (°C)	-1,21T ext. ref 2 (°C)	-1,51length (m)	temperature (°C)	Stokes	anti-Stokes-744,400	529,071	0,045	0,079
-743,385	43,766	-0,230	0,155
-742,371	800,000	0,033	0,077
-741,356	22,823	-0,100	0,060
-740,342	-12,132	0,066	-0,032
-739,327	-27,001	-0,308	0,132
-738,312	57,284	0,041	-0,030
-737,298	-89,661	-0,311	-0,067
-736,283	-162,070	0,108	-0,004
-735,269	-55,057	-0,253	0,083
-734,254	-142,771	0,133	0,009
-733,239	-92,267	-0,522	-0,107
-732,225	-118,663	0,143	-0,018
-731,210	93,268	-0,045	0,037
-730,196	-132,341	0,144	0,013
-729,181	-40,694	-0,074	-0,028
-728,167	98,299	-0,093	-0,079
-727,152	-23,442	-0,133	-0,059
-726,137	-200,000	-0,007	0,063
-725,123	-200,000	0,007	0,035
-724,108	-49,490	0,105	-0,037
-723,094	-200,000	-0,035	-0,214
-722,079	221,576	-0,061	-0,072
-721,064	716,367	0,020	-0,038
-720,050	-200,000	-0,004	-0,039
-719,035	800,000	-0,012	0,028
-718,021	244,279	-0,058	-0,072
-717,006	70,104	-0,112	-0,085
-715,991	-45,556	-0,136	-0,049
-714,977	342,068	-0,034	0,049
-713,962	386,361	0,050	-0,076
-712,948	800,000	0,012	0,033
-711,933	-150,072	0,094	0,005
-710,918	-110,454	-0,197	0,030
-709,904	494,518	-0,013	-0,023
-708,889	420,161	-0,031	-0,049
-707,875	-96,165	-0,126	0,024
-706,860	-85,286	0,122	-0,028
-705,845	800,000	0,060	-0,164
-704,831	155,387	0,068	0,069
-703,816	-141,024	-0,098	-0,007
-702,802	43,890	-0,081	-0,054
-701,787	-200,000	-0,012	0,050
-700,772	70,671	-0,102	-0,078
-699,758	800,000	-0,063	-0,169
-698,743	99,488	0,078	0,066
-697,729	-200,000	-0,006	-0,068
-696,714	-57,023	-0,134	0,043
-695,699	-158,961	-0,196	-0,008
-694,685	-200,000	-0,006	-0,041
-693,670	-92,302	-0,168	0,035
-692,656	243,199	0,035	-0,043
-691,641	402,640	0,061	0,094
-690,627	56,767	0,017	0,012
-689,612	800,000	0,028	-0,085
-688,597	682,719	0,045	-0,086
-687,583	-175,758	-0,013	-0,000
-686,568	64,293	-0,086	0,063
-685,554	-200,000	-0,040	-0,192
-684,539	179,838	-0,085	-0,092
-683,524	-50,927	0,068	0,023
-682,510	-46,218	-0,104	0,037
-681,495	-200,000	0,008	0,031
-680,481	108,835	-0,049	0,043
-679,466	-200,000	0,021	0,108
-678,451	31,275	-0,111	0,070
-677,437	-78,825	0,104	-0,026
-676,422	239,774	-0,053	-0,065
-675,408	42,050	-0,093	-0,062
-674,393	56,043	0,085	0,061
-673,378	432,036	-0,067	-0,107
-672,364	122,025	-0,127	-0,116
-671,349	139,237	0,113	0,109
-670,335	-16,848	-0,063	0,029
-669,320	157,336	0,065	0,066
-668,305	-200,000	-0,002	0,087
-667,291	-70,940	-0,115	-0,032
-666,276	-200,000	-0,021	0,141
-665,262	-131,648	-0,145	-0,014
-664,247	524,956	0,029	-0,051
-663,232	-200,000	0,010	-0,090
-662,218	83,546	-0,060	0,048
-661,203	-16,248	0,074	0,035
-660,189	-44,050	-0,107	0,039
-659,174	-127,085	-0,041	-0,004
-658,159	800,000	-0,034	-0,071
-657,145	-53,637	-0,108	0,036
-656,130	-18,453	0,057	0,026
-655,116	-164,657	-0,074	-0,002
-654,101	-200,000	-0,029	0,134
-653,086	800,000	-0,030	0,067
-652,072	-125,734	-0,092	0,010
-651,057	800,000	0,030	-0,087
-650,043	-12,565	-0,105	-0,050
-649,028	615,302	-0,074	-0,136
-648,014	722,757	0,046	0,089
-646,999	-200,000	-0,005	-0,038
-645,984	-16,679	-0,055	0,025
-644,970	89,093	-0,275	-0,225
-643,955	56,749	-0,053	-0,038
-642,941	-200,000	0,016	-0,067
-641,926	21,427	-0,128	-0,076
-640,911	734,899	-0,031	0,062
-639,897	800,000	0,029	0,085
-638,882	14,125	0,039	-0,022
-637,868	207,453	0,064	0,074
-636,853	274,525	0,018	-0,024
-635,838	800,000	-0,030	-0,098
-634,824	800,000	0,025	-0,073
-633,809	74,467	0,050	0,039
-632,795	-53,789	-0,020	0,007
-631,780	-28,253	-0,054	0,023
-630,765	-200,000	0,034	0,169
-629,751	498,141	-0,067	0,114
-628,736	800,000	0,035	0,102
-627,722	-200,000	-0,004	-0,071
-626,707	39,634	0,042	-0,028
-625,692	800,000	-0,010	-0,030
-624,678	-200,000	-0,022	0,116
-623,663	-200,000	-0,016	-0,072
-622,649	161,387	0,127	-0,130
-621,634	-47,850	-0,073	0,026
-620,619	461,567	0,075	0,123
-619,605	-200,000	-0,005	0,022
-618,590	-0,979	-0,053	-0,028
-617,576	-18,425	-0,136	-0,062
-616,561	-200,000	0,027	0,124
-615,546	-200,000	0,008	0,051
-614,532	-152,668	-0,152	-0,008
-613,517	256,845	-0,116	0,146
-612,503	-200,000	0,037	-0,166
-611,488	-32,085	0,091	0,037
-610,474	-200,000	0,011	-0,080
-609,459	-38,442	-0,071	-0,027
-608,444	190,057	-0,095	0,105
-607,430	746,224	-0,065	-0,130
-606,415	-41,433	-0,010	-0,004
-605,401	-137,700	0,034	-0,003
-604,386	381,823	0,052	0,078
-603,371	-150,727	-0,057	0,003
-602,357	-42,403	-0,147	-0,055
-601,342	577,767	-0,050	-0,090
-600,328	589,982	-0,024	-0,044
-599,313	-200,000	0,021	-0,087
-598,298	800,000	0,046	0,135
-597,284	31,192	0,102	0,064
-596,269	800,000	0,068	0,174
-595,255	611,568	0,006	-0,011
-594,240	364,733	0,037	0,055
-593,225	800,000	-0,063	-0,191
-592,211	-200,000	0,002	-0,053
-591,196	800,000	0,054	0,115
-590,182	-118,174	0,172	0,022
-589,167	-200,000	0,008	0,091
-588,152	89,509	-0,150	-0,122
-587,138	-200,000	-0,010	-0,074
-586,123	-119,412	-0,026	-0,003
-585,109	-200,000	0,006	-0,075
-584,094	-71,556	-0,138	-0,038
-583,079	290,919	0,048	0,064
-582,065	95,423	0,048	0,040
-581,050	800,000	0,060	0,140
-580,036	162,653	-0,031	0,032
-579,021	5,294	-0,039	-0,021
-578,006	-200,000	0,004	-0,055
-576,992	60,802	0,042	0,030
-575,977	800,000	0,023	0,074
-574,963	15,493	0,074	0,042
-573,948	-150,576	0,046	-0,003
-572,934	-73,336	0,099	0,026
-571,919	800,000	-0,013	-0,032
-570,904	-200,000	-0,001	-0,095
-569,890	-63,907	-0,162	-0,048
-568,875	44,581	-0,079	-0,053
-567,861	-9,852	-0,150	0,073
-566,846	62,146	0,090	-0,065
-565,831	-127,426	-0,121	0,013
-564,817	87,579	-0,066	0,053
-563,802	-8,951	-0,092	0,045
-562,788	-200,000	0,015	-0,142
-561,773	-131,084	0,167	0,016
-560,758	-200,000	0,003	-0,090
-559,744	-200,000	0,007	-0,074
-558,729	-96,445	-0,019	0,004
-557,715	24,774	-0,055	-0,033
-556,700	-200,000	-0,002	-0,041
-555,685	-200,000	-0,003	-0,057
-554,671	800,000	0,016	-0,035
-553,656	-200,000	0,005	0,063
-552,642	-200,000	0,006	0,059
-551,627	-158,804	-0,081	0,003
-550,612	-200,000	-0,001	0,082
-549,598	-56,184	-0,128	0,041
-548,583	247,715	-0,037	-0,045
-547,569	10,957	0,102	-0,057
-546,554	-200,000	0,009	-0,062
-545,539	-104,225	-0,062	-0,011
-544,525	-200,000	-0,015	0,102
-543,510	-42,017	-0,034	0,013
-542,496	-6,431	0,113	-0,056
-541,481	55,002	-0,086	0,060
-540,466	103,078	-0,066	0,057
-539,452	-1,851	0,061	-0,031
-538,437	424,047	0,067	-0,105
-537,423	105,075	0,023	-0,020
-536,408	121,310	-0,018	-0,017
-535,393	153,377	-0,070	-0,070
-534,379	-200,000	0,009	0,073
-533,364	112,318	0,011	-0,010
-532,350	-200,000	-0,018	-0,133
-531,335	-78,063	-0,049	0,012
-530,321	-149,837	0,115	0,006
-529,306	-5,217	0,103	0,052
-528,291	-200,000	0,028	-0,191
-527,277	57,680	-0,113	-0,081
-526,262	-32,730	0,106	-0,043
-525,248	-200,000	0,010	0,101
-524,233	30,005	0,186	0,116
-523,218	109,184	-0,041	-0,035
-522,204	21,289	0,063	0,037
-521,189	-68,529	-0,017	0,005
-520,175	-129,169	0,007	0,001
-519,160	151,816	-0,106	0,106
-518,145	-94,614	0,106	-0,021
-517,131	-57,828	0,068	0,022
-516,116	423,458	0,048	-0,075
-515,102	48,646	0,052	-0,035
-514,087	219,498	-0,105	-0,123
-513,072	800,000	0,037	0,097
-512,058	365,916	0,067	-0,099
-511,043	-200,000	0,011	-0,060
-510,029	800,000	-0,029	-0,061
-509,014	-90,606	-0,100	-0,021
-507,999	-200,000	-0,003	-0,051
-506,985	83,021	0,158	-0,125
-505,970	800,000	0,040	-0,112
-504,956	530,603	-0,078	-0,136
-503,941	237,364	-0,067	-0,081
-502,926	800,000	0,068	0,140
-501,912	-200,000	0,012	0,127
-500,897	351,820	-0,082	0,118
-499,883	800,000	0,023	-0,062
-498,868	-200,000	-0,032	0,107
-497,853	-132,462	-0,063	-0,006
-496,839	99,606	0,093	0,079
-495,824	-13,343	-0,122	0,057
-494,810	41,327	0,094	-0,062
-493,795	800,000	0,042	0,091
-492,781	-200,000	-0,037	0,123
-491,766	136,510	-0,086	0,082
-490,751	-65,810	-0,154	-0,045
-489,737	-200,000	0,007	0,046
-488,722	140,961	0,098	-0,095
-487,708	253,463	-0,101	0,126
-486,693	116,028	0,038	-0,034
-485,678	213,542	0,020	-0,023
-484,664	54,741	-0,124	0,087
-483,649	-200,000	-0,004	0,070
-482,635	-52,036	-0,148	-0,050
-481,620	326,206	0,047	0,066
-480,605	-200,000	0,028	0,133
-479,591	-33,415	0,116	0,047
-478,576	82,161	0,101	0,079
-477,562	-200,000	0,000	0,044
-476,547	-6,110	-0,077	0,038
-475,532	-60,347	0,072	-0,022
-474,518	800,000	0,089	0,190
-473,503	25,151	0,108	0,065
-472,489	-105,280	0,116	0,019
-471,474	99,511	0,024	-0,020
-470,459	800,000	0,077	-0,190
-469,445	-200,000	0,006	-0,052
-468,430	-46,487	-0,052	-0,018
-467,416	185,268	0,043	0,047
-466,401	-48,368	0,033	-0,011
-465,386	255,797	0,028	0,036
-464,372	30,339	-0,049	-0,030
-463,357	95,811	0,025	0,021
-462,343	-200,000	0,024	-0,150
-461,328	-200,000	0,011	0,133
-460,313	-200,000	0,002	0,143
-459,299	-42,483	0,125	-0,046
-458,284	-200,000	0,003	0,081
-457,270	-10,324	-0,116	0,056
-456,255	274,652	-0,060	-0,077
-455,241	68,144	-0,021	-0,016
-454,226	-91,954	-0,109	0,022
-453,211	-115,589	-0,089	0,012
-452,197	303,265	0,105	0,143
-451,182	-200,000	-0,014	0,124
-450,168	225,904	-0,088	0,104
-449,153	396,206	-0,011	-0,017
-448,138	-200,000	0,035	0,143
-447,124	-200,000	-0,001	0,113
-446,109	-200,000	-0,016	0,089
-445,095	-15,992	0,072	-0,033
-444,080	182,745	0,059	0,064
-443,065	-35,429	-0,086	-0,034
-442,051	49,203	-0,093	0,064
-441,036	800,000	0,025	0,066
-440,022	273,289	-0,096	-0,124
-439,007	-200,000	0,011	0,045
-437,992	337,528	0,025	-0,036
-436,978	412,739	0,053	0,083
-435,963	-200,000	0,016	-0,055
-434,949	24,998	0,119	0,072
-433,934	800,000	-0,037	-0,091
-432,919	158,363	-0,099	-0,100
-431,905	-82,456	-0,185	-0,043
-430,890	450,311	0,090	-0,145
-429,876	289,809	0,086	-0,114
-428,861	116,853	-0,034	0,031
-427,846	800,000	0,019	0,056
-426,832	-200,000	-0,019	-0,167
-425,817	0,297	-0,110	0,057
-424,803	-64,495	0,082	0,024
-423,788	755,504	-0,052	-0,103
-422,773	-200,000	0,002	0,117
-421,759	-95,686	-0,045	0,009
-420,744	800,000	-0,024	0,073
-419,730	628,972	-0,045	-0,083
-418,715	182,828	0,061	-0,065
-417,701	542,529	0,025	-0,043
-416,686	167,510	-0,116	0,120
-415,671	800,000	-0,022	0,053
-414,657	-114,274	0,063	0,009
-413,642	-200,000	-0,016	0,114
-412,628	-200,000	0,010	0,114
-411,613	800,000	-0,030	-0,093
-410,598	513,523	-0,079	-0,134
-409,584	-200,000	-0,012	0,054
-408,569	74,901	0,083	0,063
-407,555	-49,501	0,161	0,055
-406,540	-80,316	-0,057	-0,014
-405,525	-33,448	-0,089	-0,036
-404,511	800,000	0,084	-0,176
-403,496	398,492	-0,046	-0,071
-402,482	-200,000	-0,004	0,019
-401,467	-41,153	0,070	-0,026
-400,452	628,352	0,117	0,216
-399,438	800,000	-0,044	-0,141
-398,423	800,000	-0,027	-0,073
-397,409	367,283	-0,037	-0,054
-396,394	-200,000	0,044	-0,165
-395,379	78,821	0,080	-0,062
-394,365	800,000	0,029	-0,092
-393,350	800,000	-0,043	0,106
-392,336	-5,363	-0,102	0,051
-391,321	95,637	-0,060	0,050
-390,306	93,057	-0,083	-0,068
-389,292	-74,662	-0,104	0,027
-388,277	59,328	-0,044	-0,032
-387,263	-36,961	0,068	0,026
-386,248	-121,778	0,077	-0,009
-385,233	66,246	0,021	-0,015
-384,219	-122,485	-0,030	0,003
-383,204	162,563	0,154	0,157
-382,190	-200,000	-0,034	0,137
-381,175	-200,000	0,002	0,057
-380,160	189,653	-0,041	0,044
-379,146	-49,438	0,062	0,021
-378,131	-119,587	0,050	-0,006
-377,117	440,222	0,004	0,007
-376,102	-200,000	0,012	-0,136
-375,088	93,784	-0,169	-0,139
-374,073	800,000	0,042	-0,110
-373,058	253,421	0,078	0,097
-372,044	-158,666	0,087	0,004
-371,029	-76,107	-0,026	-0,007
-370,015	149,483	0,078	0,077
-369,000	-200,000	-0,007	0,027
-367,985	223,022	-0,037	-0,044
-366,971	800,000	-0,032	0,075
-365,956	302,858	0,072	0,097
-364,942	-9,835	-0,081	-0,039
-363,927	430,884	0,046	-0,072
-362,912	167,100	0,110	-0,114
-361,898	27,309	-0,038	-0,023
-360,883	-46,511	0,089	-0,031
-359,869	-200,000	0,009	-0,063
-358,854	-200,000	0,008	-0,141
-357,839	-200,000	0,005	-0,038
-356,825	800,000	-0,008	-0,019
-355,810	800,000	-0,024	-0,065
-354,796	190,544	-0,068	-0,074
-353,781	-200,000	-0,026	0,108
-352,766	800,000	-0,042	-0,096
-351,752	-26,950	-0,080	-0,034
-350,737	-200,000	0,025	0,139
-349,723	71,581	0,038	0,029
-348,708	-106,313	0,039	-0,006
-347,693	64,294	-0,032	-0,023
-346,679	-200,000	0,014	-0,075
-345,664	-200,000	-0,035	-0,123
-344,650	156,987	0,059	-0,060
-343,635	-200,000	-0,026	0,110
-342,620	-200,000	-0,012	0,084
-341,606	-200,000	-0,039	0,212
-340,591	435,847	-0,116	0,183
-339,577	800,000	-0,036	-0,077
-338,562	-82,558	-0,054	-0,013
-337,548	112,761	-0,072	-0,063
-336,533	-73,032	0,028	0,007
-335,518	308,419	0,067	0,091
-334,504	-73,899	-0,077	-0,020
-333,489	-200,000	-0,004	0,098
-332,475	-200,000	-0,002	-0,056
-331,460	800,000	0,054	-0,126
-330,445	44,676	0,031	-0,021
-329,431	-147,850	0,062	0,004
-328,416	-200,000	-0,037	0,185
-327,402	-34,800	0,060	-0,024
-326,387	294,642	0,021	-0,028
-325,372	-200,000	0,009	-0,049
-324,358	-157,492	-0,074	-0,003
-323,343	99,598	0,042	-0,035
-322,329	-123,012	0,057	-0,007
-321,314	196,689	0,068	0,075
-320,299	208,545	0,041	0,047
-319,285	232,030	0,078	-0,093
-318,270	559,590	-0,052	-0,091
-317,256	-5,707	0,109	0,054
-316,241	-92,911	0,076	-0,015
-315,226	-42,309	-0,036	0,013
-314,212	800,000	0,047	0,121
-313,197	800,000	0,030	-0,089
-312,183	-98,570	0,043	0,008
-311,168	79,908	-0,043	0,033
-310,153	-200,000	0,015	0,091
-309,139	395,241	0,061	-0,092
-308,124	-200,000	0,001	0,048
-307,110	-200,000	0,036	0,130
-306,095	-66,417	0,105	-0,030
-305,080	711,583	-0,059	-0,114
-304,066	-86,773	-0,081	-0,018
-303,051	-143,150	0,017	0,001
-302,037	19,110	0,038	0,022
-301,022	55,823	-0,055	0,038
-300,008	791,955	-0,008	-0,016
-298,993	-71,994	-0,066	-0,018
-297,978	-101,280	-0,100	-0,018
-296,964	-200,000	-0,011	0,134
-295,949	189,870	-0,042	-0,045
-294,935	725,371	-0,039	0,076
-293,920	-183,952	0,244	0,003
-292,905	-96,168	0,111	-0,021
-291,891	114,929	0,082	0,072
-290,876	762,195	0,030	0,060
-289,862	66,437	-0,129	-0,095
-288,847	80,521	-0,096	-0,075
-287,832	84,967	0,035	0,028
-286,818	-200,000	-0,016	-0,096
-285,803	-200,000	0,018	-0,075
-284,789	166,609	-0,039	-0,040
-283,774	46,980	0,074	0,049
-282,759	286,114	0,033	0,044
-281,745	105,955	0,071	-0,061
-280,730	-200,000	-0,042	-0,152
-279,716	298,082	0,045	0,060
-278,701	-1,930	-0,101	0,051
-277,686	800,000	0,073	0,163
-276,672	-52,135	0,047	0,016
-275,657	-5,568	0,047	-0,023
-274,643	189,447	-0,051	-0,056
-273,628	-99,843	0,062	0,011
-272,613	-34,775	-0,139	0,055
-271,599	148,474	0,036	0,036
-270,584	-200,000	0,014	0,087
-269,570	333,433	0,070	0,098
-268,555	-26,493	-0,054	-0,023
-267,540	-42,224	-0,047	0,017
-266,526	-83,125	-0,021	0,005
-265,511	-200,000	0,023	0,117
-264,497	800,000	-0,044	0,132
-263,482	313,681	0,022	-0,030
-262,467	72,598	-0,047	0,036
-261,453	800,000	0,025	-0,065
-260,438	35,918	-0,089	0,056
-259,424	800,000	0,096	-0,207
-258,409	-200,000	-0,018	0,079
-257,395	-48,796	-0,167	0,058
-256,380	-200,000	0,018	0,059
-255,365	-200,000	0,008	0,143
-254,351	-105,761	0,104	-0,017
-253,336	-96,651	0,112	-0,021
-252,322	-134,663	-0,058	-0,005
-251,307	105,918	0,106	-0,091
-250,292	-49,510	-0,038	-0,013
-249,278	61,422	0,053	0,038
-248,263	441,723	0,023	0,037
-247,249	-200,000	-0,004	0,081
-246,234	-107,808	-0,022	0,003
-245,219	746,725	0,067	-0,130
-244,205	-200,000	-0,003	-0,137
-243,190	606,290	-0,030	0,054
-242,176	800,000	0,019	0,047
-241,161	280,843	0,120	0,155
-240,146	274,559	-0,055	-0,070
-239,132	-200,000	-0,025	-0,122
-238,117	90,748	0,007	-0,006
-237,103	-200,000	-0,013	-0,129
-236,088	552,505	-0,060	-0,104
-235,073	147,263	-0,039	0,038
-234,059	800,000	0,013	0,032
-233,044	136,770	0,078	0,073
-232,030	-77,689	-0,182	-0,045
-231,015	-200,000	-0,004	-0,021
-230,000	784,798	0,027	-0,054
-228,986	500,875	-0,052	-0,087
-227,971	640,676	-0,052	-0,095
-226,957	134,874	0,091	-0,085
-225,942	-200,000	-0,009	0,075
-224,927	367,030	0,049	-0,071
-223,913	-74,824	0,163	0,042
-222,898	-73,353	-0,091	-0,024
-221,884	382,584	-0,025	0,037
-220,869	-200,000	-0,005	0,020
-219,855	11,104	0,128	0,070
-218,840	-200,000	-0,002	0,118
-217,825	-93,794	-0,084	0,017
-216,811	800,000	-0,009	0,022
-215,796	295,152	-0,098	-0,129
-214,782	14,490	0,155	-0,087
-213,767	-200,000	-0,004	0,019
-212,752	-200,000	-0,013	-0,051
-211,738	392,378	-0,043	0,064
-210,723	174,821	-0,083	-0,086
-209,709	-200,000	0,009	0,044
-208,694	729,785	-0,036	-0,069
-207,679	2,308	0,035	-0,018
-206,665	1,227	0,037	0,019
-205,650	240,919	0,051	0,062
-204,636	800,000	0,040	-0,087
-203,621	312,710	0,051	-0,069
-202,606	-200,000	-0,003	0,056
-201,592	-200,000	0,007	0,044
-200,577	197,866	-0,031	-0,034
-199,563	800,000	-0,040	0,115
-198,548	-32,683	-0,091	0,036
-197,533	-200,000	0,013	0,091
-196,519	296,740	-0,028	-0,037
-195,504	-200,000	-0,001	-0,028
-194,490	-200,000	-0,001	0,012
-193,475	88,859	-0,099	0,079
-192,460	144,105	0,095	-0,091
-191,446	199,774	0,044	0,049
-190,431	284,364	0,098	0,127
-189,417	-200,000	-0,014	0,052
-188,402	61,855	0,048	0,034
-187,387	29,221	-0,111	-0,068
-186,373	800,000	-0,040	-0,086
-185,358	13,526	0,040	-0,022
-184,344	217,577	0,083	0,095
-183,329	-200,000	0,006	-0,028
-182,315	-200,000	0,007	-0,053
-181,300	-200,000	-0,009	-0,040
-180,285	48,179	-0,060	-0,041
-179,271	800,000	0,031	-0,076
-178,256	-200,000	-0,009	-0,196
-177,242	-33,051	-0,128	-0,051
-176,227	388,152	0,044	-0,066
-175,212	160,890	-0,045	0,045
-174,198	-60,285	-0,055	0,017
-173,183	162,387	-0,046	-0,046
-172,169	22,159	-0,050	0,030
-171,154	124,607	-0,108	-0,098
-170,139	157,531	0,062	-0,062
-169,125	-15,584	-0,200	0,092
-168,110	-200,000	0,001	0,075
-167,096	-123,234	0,175	-0,020
-166,081	60,318	0,056	-0,040
-165,066	800,000	0,020	-0,062
-164,052	407,232	-0,018	-0,027
-163,037	204,162	0,019	0,021
-162,023	64,948	0,058	-0,042
-161,008	-200,000	0,028	0,107
-159,993	-184,149	0,197	-0,002
-158,979	-141,723	0,175	0,012
-157,964	800,000	-0,059	-0,135
-156,950	67,367	-0,141	-0,103
-155,935	-82,334	-0,053	0,012
-154,920	-31,611	0,088	0,036
-153,906	35,863	0,076	0,048
-152,891	-23,400	-0,010	0,004
-151,877	11,378	-0,059	0,033
-150,862	77,243	0,101	-0,078
-149,847	19,790	0,040	0,023
-148,833	77,797	0,096	0,074
-147,818	25,993	0,009	0,006
-146,804	94,757	-0,080	0,065
-145,789	26,506	0,053	0,032
-144,775	319,569	-0,062	0,085
-143,760	-138,784	0,081	0,006
-142,745	-24,232	-0,010	0,004
-141,731	60,483	-0,041	-0,029
-140,716	-136,149	0,236	-0,020
-139,702	-51,753	0,064	0,021
-138,687	437,870	-0,028	0,044
-137,672	-45,397	-0,086	0,031
-136,658	370,421	0,071	0,104
-135,643	-200,000	0,002	0,118
-134,629	0,463	-0,083	0,043
-133,614	123,985	-0,039	0,035
-132,599	-116,599	-0,145	0,019
-131,585	109,803	0,050	-0,043
-130,570	-92,196	-0,072	-0,015
-129,556	-109,171	-0,087	-0,013
-128,541	423,190	-0,041	-0,063
-127,526	103,246	0,089	-0,075
-126,512	177,265	0,010	0,010
-125,497	785,285	-0,037	0,073
-124,483	88,120	0,056	-0,045
-123,468	-24,856	0,093	-0,040
-122,453	-186,149	0,051	-0,001
-121,439	800,000	0,017	0,035
-120,424	173,230	-0,028	-0,029
-119,410	-61,408	0,078	-0,024
-118,395	35,671	0,052	0,033
-117,380	800,000	-0,056	0,123
-116,366	-200,000	0,001	0,105
-115,351	800,000	0,025	0,050
-114,337	-194,623	-0,061	0,000
-113,322	621,224	0,025	-0,045
-112,307	6,720	0,049	0,026
-111,293	-200,000	-0,013	-0,112
-110,278	277,541	-0,022	0,028
-109,264	774,315	-0,058	-0,114
-108,249	44,165	-0,032	-0,021
-107,234	-105,457	0,122	0,020
-106,220	800,000	0,029	0,072
-105,205	800,000	0,037	-0,107
-104,191	398,491	0,060	0,091
-103,176	800,000	0,068	0,161
-102,162	188,642	0,024	0,026
-101,147	33,808	-0,069	0,043
-100,132	205,220	0,039	0,044
-99,118	153,747	-0,075	-0,074
-98,103	262,137	0,040	0,050
-97,089	140,186	0,038	-0,036
-96,074	188,078	-0,043	0,047
-95,059	-200,000	-0,000	-0,061
-94,045	210,063	0,079	0,089
-93,030	-200,000	0,019	0,061
-92,016	728,030	-0,028	0,054
-91,001	800,000	-0,049	-0,102
-89,986	-200,000	-0,010	0,142
-88,972	-200,000	-0,001	-0,023
-87,957	-82,399	0,113	0,026
-86,943	800,000	0,061	-0,142
-85,928	-96,518	-0,058	-0,011
-84,913	-200,000	-0,030	-0,105
-83,899	-200,000	-0,029	0,104
-82,884	-200,000	-0,009	0,038
-81,870	243,616	0,021	-0,026
-80,855	151,056	-0,072	-0,071
-79,840	165,237	-0,029	0,029
-78,826	26,790	0,087	-0,052
-77,811	-92,673	-0,055	0,011
-76,797	63,789	0,057	0,041
-75,782	167,280	0,044	0,045
-74,767	-200,000	0,089	0,000
-73,753	-191,559	0,017	0,000
-72,738	-109,890	0,110	-0,016
-71,724	-200,000	-0,025	0,114
-70,709	-77,432	-0,065	0,016
-69,694	-83,907	-0,060	-0,013
-68,680	800,000	0,027	-0,055
-67,665	-200,000	-0,025	0,104
-66,651	23,538	-0,056	0,033
-65,636	130,980	0,040	-0,036
-64,622	200,282	-0,076	-0,084
-63,607	-200,000	-0,006	0,097
-62,592	111,602	-0,042	0,037
-61,578	800,000	-0,043	-0,086
-60,563	-200,000	0,007	0,102
-59,549	-200,000	0,046	0,181
-58,534	-26,902	-2,106	-0,878
-57,519	-200,000	-0,199	-0,872
-56,505	-200,000	-1,329	-5,074
-55,490	113,381	0,803	0,699
-54,476	800,000	5,256	11,987
-53,461	-200,000	17,820	288,515
-52,446	800,000	729,299	2227,982
-51,432	535,443	1644,885	2808,740
-50,417	109,492	1634,731	1403,922
-49,403	75,184	1286,662	971,718
-48,388	31,636	1027,200	632,103
-47,373	20,129	988,951	570,665
-46,359	18,281	976,725	557,539
-45,344	15,257	972,807	545,398
-44,330	15,540	971,115	545,352
-43,315	14,962	969,326	542,441
-42,300	15,000	968,313	541,976
-41,286	14,969	967,335	541,307
-40,271	15,001	966,236	540,773
-39,257	14,957	965,327	540,100
-38,242	14,977	964,606	539,739
-37,227	14,976	963,741	539,232
-36,213	15,003	962,808	538,774
-35,198	14,905	962,028	538,000
-34,184	15,001	961,399	537,938
-33,169	14,928	960,187	537,002
-32,154	14,935	959,216	536,461
-31,140	14,990	958,329	536,121
-30,125	14,985	957,829	535,803
-29,111	14,942	956,980	535,168
-28,096	15,009	956,182	534,917
-27,082	14,999	955,527	534,497
-26,067	15,014	954,725	534,076
-25,052	14,949	954,008	533,443
-24,038	14,947	953,278	533,008
-23,023	14,965	952,822	532,791
-22,009	14,972	952,237	532,464
-20,994	14,972	951,371	531,961
-19,979	15,040	950,621	531,737
-18,965	14,969	949,969	531,124
-17,950	14,992	949,490	530,908
-16,936	14,943	948,969	530,439
-15,921	14,894	948,158	529,807
-14,906	14,887	947,446	529,367
-13,892	14,905	946,751	529,016
-12,877	14,891	946,212	528,648
-11,863	14,808	945,678	528,067
-10,848	14,924	944,893	527,975
-9,833	14,931	944,704	527,872
-8,819	14,941	944,024	527,500
-7,804	14,894	943,426	526,997
-6,790	14,872	942,749	526,529
-5,775	14,914	942,113	526,285
-4,760	14,925	941,431	525,918
-3,746	14,845	941,031	525,422
-2,731	14,744	940,072	524,544
-1,717	14,635	939,668	523,955
-0,702	14,729	938,741	523,715
0,313	14,569	938,212	523,704
1,327	17,698	936,143	532,346
2,342	26,523	792,555	474,017
3,356	23,292	457,596	268,735
4,371	-3,527	313,919	155,911
5,386	-7,486	295,751	142,877
6,400	-9,483	289,729	137,978
7,415	-9,841	287,190	136,405
8,429	-10,184	285,852	135,422
9,444	-10,103	284,733	134,959
10,459	-10,185	284,312	134,667
11,473	-10,376	283,635	134,150
12,488	-10,305	283,115	133,960
13,502	-10,320	282,711	133,743
14,517	-10,197	282,105	133,563
15,531	-10,376	281,682	133,178
16,546	-10,214	281,250	133,118
17,561	-10,436	280,779	132,670
18,575	-10,048	280,399	132,851
19,590	-10,150	280,077	132,588
20,604	-10,073	279,764	132,503
21,619	-10,255	279,459	132,172
22,634	-10,214	279,110	132,034
23,648	-10,203	278,778	131,876
24,663	-10,289	278,620	131,708
25,677	-10,481	278,337	131,380
26,692	-10,363	278,154	131,393
27,707	-10,219	277,629	131,271
28,721	-10,350	277,519	131,083
29,736	-10,494	277,204	130,786
30,750	-10,456	276,937	130,684
31,765	-10,237	276,491	130,669
32,780	-10,399	276,531	130,523
33,794	-10,341	276,388	130,499
34,809	-10,341	275,806	130,212
35,823	-10,572	275,748	129,955
36,838	-10,276	275,276	130,000
37,853	-10,518	275,211	129,731
38,867	-10,383	275,026	129,758
39,882	-10,452	274,759	129,556
40,896	-10,478	274,621	129,455
41,911	-10,274	274,287	129,477
42,926	-10,208	273,873	129,332
43,940	-10,313	273,707	129,144
44,955	-10,355	273,506	128,999
45,969	-10,450	273,329	128,815
46,984	-10,572	273,088	128,576
47,999	-10,758	272,658	128,189
49,013	-10,866	272,453	127,981
50,028	-11,087	272,354	127,718
51,042	-11,131	272,073	127,535
52,057	-11,148	271,785	127,372
53,071	-11,116	271,551	127,281
54,086	-10,977	271,370	127,313
55,101	-10,860	271,232	127,346
56,115	-10,604	271,068	127,493
57,130	-10,439	270,948	127,577
58,144	-10,152	270,828	127,774
59,159	-10,036	270,381	127,659
60,174	-10,073	270,206	127,530
61,188	-10,217	270,023	127,301
62,203	-10,169	269,973	127,309
63,217	-10,108	269,649	127,202
64,232	-10,270	269,370	126,910
65,247	-10,127	269,184	126,943
66,261	-10,216	268,952	126,740
67,276	-10,407	268,535	126,357
68,290	-10,510	268,297	126,141
69,305	-10,606	268,236	126,012
70,320	-10,629	268,020	125,879
71,334	-10,331	267,737	126,006
72,349	-10,120	267,652	126,147
73,363	-10,062	267,353	126,047
74,378	-10,334	267,236	125,734
75,393	-10,215	267,007	125,723
76,407	-10,239	266,668	125,531
77,422	-10,226	266,488	125,447
78,436	-10,145	266,357	125,447
79,451	-10,140	266,080	125,310
80,466	-10,247	265,864	125,100
81,480	-10,602	265,658	124,672
82,495	-10,405	265,396	124,715
83,509	-10,470	265,259	124,582
84,524	-10,425	264,889	124,437
85,539	-10,557	264,738	124,237
86,553	-10,588	264,557	124,113
87,568	-10,416	264,250	124,112
88,582	-10,568	264,173	123,928
89,597	-10,503	263,977	123,883
90,611	-10,218	263,903	124,093
91,626	-10,144	263,636	124,023
92,641	-10,245	263,403	123,812
93,655	-10,169	263,144	123,747
94,670	-10,438	262,972	123,415
95,684	-9,989	262,592	123,626
96,699	-10,131	262,609	123,496
97,714	-10,430	262,359	123,101
98,728	-10,380	262,134	123,029
99,743	-10,545	261,816	122,722
100,757	-10,397	261,620	122,751
101,772	-10,398	261,566	122,714
102,787	-10,352	261,271	122,605
103,801	-10,368	261,265	122,578
104,816	-10,156	261,033	122,645
105,830	-10,208	260,873	122,513
106,845	-10,035	260,697	122,572
107,860	-10,078	260,467	122,415
108,874	-10,095	260,453	122,383
109,889	-10,480	260,171	121,900
110,903	-10,217	259,775	121,935
111,918	-10,236	259,537	121,796
112,933	-10,424	259,449	121,578
113,947	-10,429	259,362	121,522
114,962	-10,301	259,173	121,535
115,976	-10,187	258,837	121,467
116,991	-10,250	258,830	121,397
118,006	-10,124	258,482	121,334
119,020	-10,370	258,412	121,074
120,035	-10,064	258,158	121,212
121,049	-10,346	258,131	120,943
122,064	-10,180	257,848	120,944
123,079	-10,386	257,591	120,633
124,093	-10,123	257,466	120,793
125,108	-10,497	257,221	120,341
126,122	-10,525	256,884	120,148
127,137	-10,638	256,550	119,883
128,151	-10,591	256,617	119,945
129,166	-10,428	256,464	120,005
130,181	-10,469	256,189	119,829
131,195	-10,367	255,976	119,808
132,210	-10,342	255,803	119,737
133,224	-10,209	255,714	119,800
134,239	-10,131	255,469	119,742
135,254	-10,301	255,315	119,512
136,268	-10,246	255,059	119,430
137,283	-10,483	254,650	119,023
138,297	-10,505	254,484	118,916
139,312	-10,765	254,488	118,684
140,327	-10,367	254,372	118,961
141,341	-10,082	254,264	119,145
142,356	-10,137	254,025	118,975
143,370	-10,049	253,866	118,966
144,385	-9,877	253,683	119,017
145,400	-9,980	253,470	118,817
146,414	-10,009	253,336	118,720
147,429	-10,357	253,222	118,358
148,443	-10,079	253,002	118,482
149,458	-10,091	252,830	118,381
150,473	-9,947	252,570	118,371
151,487	-9,923	252,269	118,240
152,502	-10,024	252,196	118,109
153,516	-10,017	252,039	118,032
154,531	-9,948	251,872	118,001
155,546	-9,907	251,628	117,912
156,560	-9,896	251,456	117,830
157,575	-10,257	251,370	117,472
158,589	-10,032	251,066	117,511
159,604	-9,954	251,013	117,541
160,619	-9,987	250,772	117,390
161,633	-10,224	250,676	117,134
162,648	-9,902	250,434	117,283
163,662	-9,953	250,302	117,167
164,677	-9,847	250,209	117,202
165,692	-10,012	249,851	116,886
166,706	-10,124	249,842	116,777
167,721	-9,926	249,589	116,815
168,735	-9,978	249,497	116,717
169,750	-9,956	249,312	116,638
170,764	-9,954	249,259	116,606
171,779	-10,078	249,059	116,397
172,794	-9,882	248,833	116,445
173,808	-10,122	248,732	116,187
174,823	-10,368	248,279	115,759
175,837	-10,426	247,942	115,543
176,852	-10,065	248,071	115,895
177,867	-9,806	247,888	116,015
178,881	-10,100	247,895	115,763
179,896	-9,730	247,559	115,904
180,910	-9,815	247,419	115,758
181,925	-10,065	247,260	115,464
182,940	-9,908	247,248	115,579
183,954	-9,923	246,908	115,397
184,969	-9,979	246,959	115,364
185,983	-9,737	246,578	115,377
186,998	-9,685	246,354	115,305
188,013	-9,746	246,323	115,230
189,027	-9,967	246,147	114,954
190,042	-10,015	245,911	114,793
191,056	-9,993	245,781	114,741
192,071	-9,855	245,593	114,758
193,086	-9,993	245,421	114,552
194,100	-9,875	245,116	114,498
195,115	-9,915	245,142	114,466
196,129	-9,865	244,917	114,392
197,144	-9,718	244,505	114,311
198,159	-10,070	244,504	114,010
199,173	-10,056	244,426	113,976
200,188	-10,019	244,089	113,838
201,202	-10,175	243,805	113,568
202,217	-10,290	243,516	113,329
203,232	-10,545	243,451	113,080
204,246	-10,086	243,364	113,405
205,261	-9,584	243,179	113,719
206,275	-10,579	243,054	112,838
207,290	-6,366	244,652	117,031
208,304	1,112	246,939	124,296
209,319	4,547	247,897	127,608
210,334	4,776	247,736	127,703
211,348	5,178	247,740	128,026
212,363	5,474	247,525	128,147
213,377	5,250	247,530	127,953
214,392	5,226	247,283	127,795
215,407	5,029	247,045	127,498
216,421	5,111	246,843	127,450
217,436	5,370	246,876	127,669
218,450	5,463	246,691	127,637
219,465	5,163	246,554	127,309
220,480	5,103	246,288	127,112
221,494	4,790	246,122	126,758
222,509	4,834	245,809	126,621
223,523	5,007	245,708	126,700
224,538	4,703	245,336	126,248
225,553	4,785	245,375	126,324
226,567	4,944	245,368	126,439
227,582	4,850	245,124	126,225
228,596	4,673	244,956	125,984
229,611	4,686	244,715	125,859
230,626	4,401	244,410	125,459
231,640	4,521	244,298	125,488
232,655	4,542	244,284	125,486
233,669	4,543	244,088	125,376
234,684	4,642	243,750	125,271
235,699	4,745	243,851	125,395
236,713	4,656	243,761	125,266
237,728	4,584	243,533	125,079
238,742	4,573	243,128	124,851
239,757	4,447	243,130	124,739
240,772	4,484	242,865	124,622
241,786	4,560	242,711	124,593
242,801	4,180	242,751	124,296
243,815	4,420	242,546	124,373
244,830	4,849	242,369	124,617
245,844	4,776	242,194	124,457
246,859	4,722	241,997	124,301
247,874	4,696	241,798	124,167
248,888	4,903	241,574	124,206
249,903	4,729	241,609	124,074
250,917	4,615	241,482	123,907
251,932	4,911	241,302	124,040
252,947	5,022	240,951	123,938
253,961	4,476	240,866	123,446
254,976	4,798	240,858	123,688
255,990	4,713	240,845	123,603
257,005	4,812	240,397	123,441
258,020	4,557	240,255	123,154
259,034	4,530	240,184	123,085
260,049	4,721	240,018	123,141
261,063	4,539	239,676	122,810
262,078	4,362	239,608	122,623
263,093	4,627	239,612	122,825
264,107	4,887	239,370	122,896
265,122	4,532	239,256	122,545
266,136	4,761	239,144	122,659
267,151	4,825	238,962	122,606
268,166	4,622	238,707	122,303
269,180	4,471	238,549	122,091
270,195	4,970	238,712	122,559
271,209	5,247	238,582	122,700
272,224	4,934	238,069	122,178
273,239	4,143	237,867	121,441
274,253	4,300	237,742	121,490
275,268	4,598	237,679	121,681
276,282	4,701	237,560	121,691
277,297	4,393	237,311	121,310
278,312	4,610	237,223	121,424
279,326	4,741	237,111	121,459
280,341	4,640	236,975	121,299
281,355	4,645	236,781	121,194
282,370	4,668	236,726	121,172
283,384	4,680	236,473	121,041
284,399	4,333	236,386	120,715
285,414	4,432	236,042	120,605
286,428	4,506	235,979	120,620
287,443	4,323	235,874	120,413
288,457	4,685	235,715	120,603
289,472	4,934	235,636	120,746
290,487	4,572	235,390	120,328
291,501	4,589	235,218	120,242
292,516	4,076	235,119	119,782
293,530	4,282	234,842	119,790
294,545	4,430	234,984	119,967
295,560	4,763	234,652	120,046
296,574	4,381	234,497	119,658
297,589	4,270	234,258	119,441
298,603	4,907	234,408	120,000
299,618	4,845	234,209	119,839
300,633	4,808	233,852	119,617
301,647	4,865	233,888	119,669
302,662	5,125	233,833	119,831
303,676	4,930	233,649	119,576
304,691	4,820	233,468	119,388
305,706	5,036	233,361	119,488
306,720	4,940	233,222	119,333
307,735	4,709	233,036	119,049
308,749	4,708	232,688	118,860
309,764	4,447	232,663	118,636
310,779	4,268	232,415	118,362
311,793	4,278	232,075	118,186
312,808	3,982	231,991	117,906
313,822	4,529	231,877	118,256
314,837	4,679	231,939	118,392
315,852	4,464	231,773	118,132
316,866	4,760	231,710	118,316
317,881	4,907	231,450	118,284
318,895	4,749	231,393	118,124
319,910	5,164	231,214	118,340
320,925	4,641	231,027	117,834
321,939	4,406	230,605	117,430
322,954	4,558	230,655	117,560
323,968	4,557	230,511	117,476
324,983	4,774	230,390	117,568
325,997	4,944	230,402	117,693
327,012	4,792	230,174	117,451
328,027	4,620	229,931	117,186
329,041	4,868	229,918	117,357
330,056	5,083	230,012	117,557
331,070	5,303	229,868	117,640
332,085	4,798	229,588	117,104
333,100	4,913	229,165	116,965
334,114	4,880	229,026	116,859
335,129	5,080	229,087	117,030
336,143	5,106	229,052	117,021
337,158	5,007	228,862	116,839
338,173	4,982	228,587	116,669
339,187	4,671	228,430	116,345
340,202	4,835	228,310	116,397
341,216	4,694	228,136	116,192
342,231	4,628	228,020	116,073
343,246	4,763	227,875	116,090
344,260	4,764	227,921	116,103
345,275	5,030	227,703	116,182
346,289	5,172	227,531	116,190
347,304	5,255	227,416	116,183
348,319	5,060	227,238	115,936
349,333	4,876	226,944	115,638
350,348	4,664	226,908	115,451
351,362	4,801	226,701	115,438
352,377	4,529	226,562	115,154
353,392	4,393	226,473	114,998
354,406	4,529	226,235	114,967
355,421	195,240	1317,643	1392,078
356,435	156,517	1450,605	1392,075
