DTS Sentinel unit serial number:	SN410029Multiplexer serial number:	ORYXHardware model number:	OX2-SRSoftware version number:	ORYX F/W v4,00 Oryx Data Collector v3.7.2.0data status	okinstallation	B5 Nyhavnadifferential loss correction	single-endedforward channel	channel 2reverse channel	N/Adate	2023/12/14time	08:37:13forward acquisition time	300,00reverse acquisition time	0,00gamma	499,1914k internal	0,3160k external	0,3160temperature offset calibration	1,0000default loss term (dB/km)	0,3820temperature slope calibration	1,0000multiplexer offset coefficient	1,0000multiplexer slope coefficient	1,0000fibre end	0,00T internal ref (°C)	7,03T ext. ref 1 (°C)	-9,19T ext. ref 2 (°C)	-9,26length (m)	temperature (°C)	Stokes	anti-Stokes-744,400	172,802	0,074	0,079
-743,385	107,721	-0,262	-0,230
-742,371	73,980	0,166	0,128
-741,356	-160,692	-0,384	0,015
-740,342	-45,368	0,208	0,076
-739,327	35,237	-0,330	-0,213
-738,312	-57,642	0,241	0,077
-737,298	-87,817	-0,455	-0,100
-736,283	-71,111	0,204	0,056
-735,269	-74,051	-0,399	-0,106
-734,254	57,079	0,097	0,069
-733,239	-58,052	-0,692	-0,221
-732,225	-59,351	0,237	0,075
-731,210	116,560	-0,044	-0,040
-730,196	2,742	0,012	0,006
-729,181	-12,210	-0,049	-0,024
-728,167	800,000	0,031	-0,069
-727,152	42,336	-0,081	-0,054
-726,137	23,451	-0,078	-0,047
-725,123	52,650	0,031	0,022
-724,108	52,011	-0,066	-0,046
-723,094	800,000	-0,029	0,068
-722,079	-200,000	0,001	0,043
-721,064	-36,138	-0,011	0,004
-720,050	17,477	-0,078	0,045
-719,035	40,558	-0,052	-0,034
-718,021	-200,000	0,000	-0,100
-717,006	800,000	-0,025	-0,070
-715,991	-200,000	-0,009	-0,104
-714,977	-57,766	-0,081	-0,026
-713,962	-200,000	0,025	0,109
-712,948	-200,000	-0,003	0,129
-711,933	-200,000	-0,015	0,054
-710,918	74,832	-0,049	0,038
-709,904	65,877	-0,064	0,048
-708,889	-200,000	-0,003	-0,104
-707,875	-3,697	0,053	0,027
-706,860	-11,737	-0,079	0,038
-705,845	-154,976	0,133	0,006
-704,831	-73,159	0,087	-0,023
-703,816	-37,836	0,068	-0,026
-702,802	-200,000	0,014	-0,095
-701,787	-53,855	-0,193	-0,064
-700,772	460,149	-0,023	-0,038
-699,758	326,947	0,073	-0,104
-698,743	-140,797	-0,084	-0,006
-697,729	-15,453	0,203	0,095
-696,714	-200,000	0,003	0,068
-695,699	-200,000	0,019	-0,094
-694,685	800,000	0,012	0,034
-693,670	800,000	-0,103	0,211
-692,656	-200,000	0,024	-0,180
-691,641	-69,692	-0,112	0,031
-690,627	800,000	0,034	0,101
-689,612	412,714	-0,044	0,069
-688,597	-93,848	-0,100	-0,020
-687,583	-200,000	0,015	-0,071
-686,568	-46,105	-0,038	-0,014
-685,554	-200,000	0,009	-0,189
-684,539	53,270	0,143	-0,100
-683,524	800,000	0,024	0,071
-682,510	800,000	0,004	-0,011
-681,495	-93,857	-0,088	-0,018
-680,481	246,465	-0,116	-0,143
-679,466	800,000	-0,047	-0,148
-678,451	64,238	-0,174	-0,128
-677,437	250,174	-0,037	0,046
-676,422	729,383	-0,071	-0,140
-675,408	6,674	-0,042	0,023
-674,393	-61,119	-0,044	0,013
-673,378	269,981	0,052	-0,067
-672,364	800,000	-0,058	-0,130
-671,349	19,667	0,040	0,024
-670,335	16,564	-0,070	0,041
-669,320	434,090	-0,038	0,061
-668,305	-51,299	0,101	-0,035
-667,291	127,745	-0,050	-0,046
-666,276	8,844	-0,076	-0,042
-665,262	50,829	0,153	-0,106
-664,247	-200,000	-0,008	0,128
-663,232	52,804	-0,184	0,129
-662,218	665,735	0,059	0,112
-661,203	75,806	0,138	0,107
-660,189	150,193	0,103	-0,103
-659,174	178,724	-0,072	-0,078
-658,159	-200,000	-0,022	-0,117
-657,145	469,659	-0,096	-0,159
-656,130	57,975	0,037	0,027
-655,116	595,321	0,015	0,027
-654,101	55,086	-0,027	0,019
-653,086	-144,404	0,092	-0,006
-652,072	-200,000	-0,001	-0,076
-651,057	800,000	-0,060	-0,143
-650,043	214,264	-0,012	0,014
-649,028	92,847	-0,011	0,009
-648,014	185,355	0,115	0,125
-646,999	229,358	-0,066	-0,079
-645,984	586,206	0,045	-0,082
-644,970	-3,903	-0,079	-0,040
-643,955	-200,000	0,013	-0,144
-642,941	-200,000	-0,016	-0,172
-641,926	-132,471	-0,073	-0,007
-640,911	-139,610	0,145	-0,011
-639,897	163,799	-0,101	-0,104
-638,882	-200,000	0,007	0,090
-637,868	-83,798	-0,033	-0,008
-636,853	67,494	-0,030	-0,023
-635,838	215,445	-0,125	-0,145
-634,824	800,000	0,012	-0,027
-633,809	-0,464	0,007	-0,004
-632,795	165,308	-0,017	0,018
-631,780	365,116	0,069	0,103
-630,765	43,078	-0,205	-0,137
-629,751	-200,000	0,020	-0,088
-628,736	46,600	-0,018	0,012
-627,722	65,088	-0,130	-0,096
-626,707	55,746	-0,041	0,029
-625,692	466,189	0,085	-0,140
-624,678	89,474	0,134	0,110
-623,663	-61,994	-0,069	0,021
-622,649	-6,581	0,126	-0,063
-621,634	15,841	0,006	-0,003
-620,619	-47,131	-0,131	-0,047
-619,605	-66,107	-0,116	0,034
-618,590	32,373	0,129	0,082
-617,576	-52,171	-0,189	-0,064
-616,561	584,929	-0,028	-0,050
-615,546	140,349	-0,093	-0,090
-614,532	-200,000	0,011	-0,074
-613,517	-200,000	0,006	0,077
-612,503	-2,134	0,109	0,056
-611,488	51,680	-0,064	0,045
-610,474	478,223	-0,068	0,113
-609,459	-200,000	-0,010	0,072
-608,444	513,864	0,057	-0,098
-607,430	526,198	0,017	0,029
-606,415	163,052	-0,084	-0,087
-605,401	7,941	-0,136	-0,075
-604,386	-200,000	-0,001	-0,011
-603,371	-200,000	-0,006	-0,022
-602,357	-74,007	-0,070	-0,018
-601,342	40,508	0,157	0,103
-600,328	-200,000	-0,035	-0,151
-599,313	99,125	-0,089	-0,075
-598,298	-156,039	0,046	-0,002
-597,284	-136,520	-0,059	0,005
-596,269	6,706	-0,108	0,059
-595,255	-200,000	-0,002	0,008
-594,240	-94,589	-0,105	-0,021
-593,225	297,266	0,048	-0,065
-592,211	-85,712	-0,054	0,012
-591,196	143,972	-0,088	-0,086
-590,182	30,484	-0,086	-0,054
-589,167	-200,000	0,006	0,060
-588,152	221,218	0,020	0,024
-587,138	-17,259	0,089	-0,041
-586,123	115,148	-0,080	-0,071
-585,109	28,527	-0,047	0,029
-584,094	-53,056	-0,007	0,002
-583,079	-48,025	0,104	-0,037
-582,065	46,666	-0,107	0,073
-581,050	-92,002	0,137	0,028
-580,036	800,000	-0,044	-0,117
-579,021	-94,842	0,016	0,003
-578,006	-52,851	-0,062	0,021
-576,992	-149,525	0,134	0,008
-575,977	39,440	0,089	-0,058
-574,963	800,000	0,020	0,062
-573,948	-129,413	0,066	0,007
-572,934	-200,000	-0,016	0,084
-571,919	13,885	-0,098	0,056
-570,904	-129,462	-0,122	0,012
-569,890	-200,000	-0,013	0,045
-568,875	800,000	0,017	0,035
-567,861	120,193	-0,093	-0,085
-566,846	372,194	-0,058	0,086
-565,831	284,863	0,086	0,113
-564,817	-113,003	-0,086	-0,012
-563,802	511,313	-0,035	-0,059
-562,788	-16,053	0,058	0,027
-561,773	-55,693	-0,021	-0,007
-560,758	800,000	0,023	0,057
-559,744	-134,259	-0,034	0,003
-558,729	-147,007	-0,003	0,000
-557,715	-32,647	0,080	-0,032
-556,700	24,133	-0,188	0,113
-555,685	-49,579	0,167	-0,058
-554,671	350,515	0,030	-0,044
-553,656	300,699	0,115	0,156
-552,642	-7,921	0,139	0,068
-551,627	-54,903	0,066	0,022
-550,612	-96,946	-0,089	0,017
-549,598	-200,000	-0,027	-0,173
-548,583	217,936	0,065	-0,076
-547,569	-200,000	-0,015	0,052
-546,554	100,518	0,086	0,073
-545,539	39,009	0,180	0,117
-544,525	-200,000	0,033	0,120
-543,510	378,359	-0,021	0,031
-542,496	176,049	0,044	-0,046
-541,481	-180,935	0,123	-0,002
-540,466	-200,000	-0,039	-0,173
-539,452	352,878	-0,101	-0,147
-538,437	-126,106	0,074	0,008
-537,423	550,074	-0,040	0,071
-536,408	-200,000	-0,006	-0,022
-535,393	-4,618	-0,154	-0,077
-534,379	97,200	-0,007	0,006
-533,364	48,333	-0,034	0,024
-532,350	-119,946	0,131	0,016
-531,335	290,868	-0,020	-0,027
-530,321	-17,819	0,084	-0,038
-529,306	62,771	-0,050	0,037
-528,291	27,643	0,072	-0,044
-527,277	-58,952	-0,179	-0,056
-526,262	800,000	0,047	-0,102
-525,248	44,953	-0,079	0,053
-524,233	-133,057	0,075	0,007
-523,218	-200,000	-0,023	0,082
-522,204	-200,000	-0,006	0,052
-521,189	-134,559	-0,047	0,004
-520,175	-200,000	0,009	-0,032
-519,160	-107,650	-0,115	-0,018
-518,145	-200,000	-0,003	-0,061
-517,131	800,000	0,048	-0,145
-516,116	-175,428	0,115	0,002
-515,102	-30,587	0,107	0,044
-514,087	-200,000	0,003	-0,128
-513,072	-200,000	0,004	0,051
-512,058	367,134	0,054	0,080
-511,043	-61,149	0,099	-0,030
-510,029	108,134	-0,053	0,047
-509,014	-92,253	0,113	-0,023
-507,999	-158,318	0,023	0,001
-506,985	28,749	0,058	-0,036
-505,970	28,069	-0,092	-0,057
-504,956	-200,000	0,023	-0,172
-503,941	-126,492	0,023	0,002
-502,926	6,934	0,071	0,038
-501,912	227,483	0,107	0,128
-500,897	-30,194	0,059	-0,024
-499,883	-200,000	-0,005	-0,042
-498,868	-200,000	0,002	-0,010
-497,853	800,000	0,017	-0,051
-496,839	-66,809	-0,076	-0,022
-495,824	173,930	-0,156	0,164
-494,810	-7,169	0,038	0,019
-493,795	405,493	-0,050	0,078
-492,781	144,110	0,027	0,026
-491,766	-200,000	-0,021	-0,089
-490,751	-76,790	-0,133	0,034
-489,737	-200,000	0,010	-0,037
-488,722	-200,000	-0,011	0,084
-487,708	-34,925	0,059	0,023
-486,693	800,000	-0,020	-0,056
-485,678	-102,637	-0,099	0,017
-484,664	181,848	-0,089	-0,095
-483,649	6,338	0,116	-0,063
-482,635	19,915	0,134	0,078
-481,620	-64,525	-0,070	0,020
-480,605	-175,519	-0,046	-0,001
-479,591	420,120	0,037	0,058
-478,576	-74,099	-0,151	0,039
-477,562	-116,586	0,012	-0,002
-476,547	-200,000	-0,053	-0,194
-475,532	-95,218	0,148	-0,029
-474,518	-105,266	0,207	0,034
-473,503	340,753	0,034	0,049
-472,489	-47,411	-0,055	-0,019
-471,474	17,473	-0,078	0,045
-470,459	322,685	-0,110	0,154
-469,445	52,220	0,079	-0,055
-468,430	-65,200	0,018	-0,005
-467,416	214,078	-0,007	-0,008
-466,401	139,004	0,139	0,133
-465,386	104,313	-0,037	-0,032
-464,372	-200,000	-0,002	0,158
-463,357	-200,000	-0,002	-0,125
-462,343	195,842	0,010	-0,011
-461,328	-82,802	-0,090	-0,021
-460,313	202,643	0,130	0,147
-459,299	-144,427	0,062	-0,004
-458,284	-200,000	0,002	0,050
-457,270	36,528	-0,053	-0,034
-456,255	543,935	-0,001	-0,002
-455,241	47,386	-0,046	-0,031
-454,226	184,911	0,058	0,062
-453,211	-200,000	-0,005	-0,134
-452,197	-15,570	0,083	-0,038
-451,182	-109,374	0,065	0,010
-450,168	-200,000	-0,021	-0,082
-449,153	48,291	0,044	-0,030
-448,138	-200,000	0,026	-0,084
-447,124	-200,000	0,008	0,061
-446,109	-166,003	0,020	0,001
-445,095	-6,840	0,086	0,042
-444,080	128,234	0,116	0,108
-443,065	-38,641	-0,103	-0,039
-442,051	227,459	-0,039	0,046
-441,036	800,000	-0,023	-0,067
-440,022	63,061	0,103	-0,075
-439,007	226,755	0,068	-0,081
-437,992	70,612	0,083	0,062
-436,978	97,925	-0,047	0,039
-435,963	-200,000	0,025	0,131
-434,949	800,000	-0,035	-0,100
-433,934	800,000	0,058	0,121
-432,919	-200,000	0,000	-0,034
-431,905	31,876	0,129	0,081
-430,890	-145,797	0,162	0,010
-429,876	-200,000	0,001	0,075
-428,861	181,817	0,028	0,030
-427,846	-200,000	-0,011	0,104
-426,832	412,490	-0,025	-0,039
-425,817	488,199	-0,043	0,071
-424,803	-200,000	-0,004	0,049
-423,788	800,000	-0,053	-0,128
-422,773	-200,000	-0,001	-0,038
-421,759	-32,322	-0,108	0,044
-420,744	8,516	-0,042	-0,023
-419,730	83,637	-0,050	0,039
-418,715	-39,586	-0,061	-0,023
-417,701	26,403	-0,062	-0,038
-416,686	229,107	-0,068	-0,081
-415,671	-200,000	0,013	-0,054
-414,657	-105,116	-0,160	-0,026
-413,642	648,052	-0,023	0,043
-412,628	-200,000	0,014	0,055
-411,613	23,229	-0,102	-0,061
-410,598	394,357	-0,038	-0,057
-409,584	-105,925	0,078	-0,013
-408,569	225,881	0,092	0,109
-407,555	-200,000	0,009	0,039
-406,540	-175,026	0,051	-0,001
-405,525	93,599	-0,090	-0,074
-404,511	800,000	-0,035	-0,093
-403,496	230,665	-0,031	-0,037
-402,482	424,760	0,052	0,082
-401,467	148,056	-0,035	0,034
-400,452	-134,528	-0,056	-0,005
-399,438	800,000	-0,018	-0,049
-398,423	392,798	-0,042	0,063
-397,409	-129,667	0,036	0,004
-396,394	-44,929	0,111	-0,040
-395,379	-26,747	-0,064	0,027
-394,365	-200,000	0,012	0,097
-393,350	243,839	-0,054	0,065
-392,336	246,462	-0,042	0,051
-391,321	800,000	0,049	0,147
-390,306	-30,063	-0,016	-0,007
-389,292	296,091	-0,105	-0,140
-388,277	-200,000	-0,013	-0,054
-387,263	-200,000	0,000	0,065
-386,248	-51,053	0,024	-0,008
-385,233	225,040	0,049	-0,057
-384,219	39,708	0,058	0,037
-383,204	-200,000	-0,012	-0,057
-382,190	800,000	-0,025	-0,078
-381,175	-75,029	0,027	-0,007
-380,160	-200,000	0,030	-0,112
-379,146	250,972	-0,049	0,060
-378,131	-200,000	-0,008	0,162
-377,117	265,786	-0,045	-0,058
-376,102	333,502	0,029	0,041
-375,088	-165,206	-0,080	-0,003
-374,073	-36,775	0,114	0,044
-373,058	-200,000	-0,015	0,093
-372,044	124,777	0,067	0,062
-371,029	-94,127	0,068	0,013
-370,015	67,233	0,055	0,041
-369,000	19,285	0,060	0,035
-367,985	163,809	-0,011	-0,012
-366,971	-68,829	-0,086	-0,024
-365,956	345,903	-0,053	0,075
-364,942	-200,000	0,007	-0,045
-363,927	800,000	-0,029	0,068
-362,912	369,303	-0,133	-0,196
-361,898	-80,838	-0,081	0,019
-360,883	369,291	-0,109	0,161
-359,869	800,000	-0,022	0,070
-358,854	-64,873	-0,100	0,029
-357,839	-161,456	0,163	-0,006
-356,825	32,266	-0,099	0,062
-355,810	-66,830	0,092	0,026
-354,796	36,450	-0,191	0,122
-353,781	-75,014	0,068	0,017
-352,766	800,000	0,062	-0,129
-351,752	-200,000	0,032	-0,105
-350,737	800,000	0,014	0,035
-349,723	-200,000	-0,009	0,109
-348,708	70,732	0,030	0,023
-347,693	-7,149	-0,098	0,048
-346,679	-200,000	0,015	-0,100
-345,664	736,492	-0,047	-0,093
-344,650	-80,268	0,055	-0,013
-343,635	-23,116	0,031	0,014
-342,620	-103,744	0,022	0,004
-341,606	117,941	-0,137	-0,123
-340,591	28,348	-0,009	0,006
-339,577	800,000	-0,005	-0,014
-338,562	-200,000	0,018	-0,121
-337,548	267,442	0,057	0,073
-336,533	66,185	0,104	0,077
-335,518	166,305	0,060	0,062
-334,504	-200,000	-0,014	-0,095
-333,489	2,182	0,106	-0,055
-332,475	-4,089	-0,076	-0,038
-331,460	-76,798	-0,103	0,026
-330,445	800,000	-0,067	0,136
-329,431	-43,826	0,090	0,033
-328,416	78,041	0,145	-0,112
-327,402	-34,244	0,031	-0,012
-326,387	464,125	-0,020	-0,033
-325,372	-200,000	-0,004	0,025
-324,358	-158,805	-0,132	0,005
-323,343	144,720	-0,021	0,021
-322,329	-200,000	0,007	0,043
-321,314	85,356	0,080	0,064
-320,299	-59,920	-0,121	-0,037
-319,285	329,140	0,045	0,063
-318,270	-8,404	0,033	0,016
-317,256	-28,312	-0,043	-0,018
-316,241	394,859	0,017	0,026
-315,226	-126,483	0,070	0,007
-314,212	800,000	0,022	0,066
-313,197	-23,963	-0,072	0,031
-312,183	-134,928	-0,042	-0,004
-311,168	153,512	-0,105	0,104
-310,153	-91,052	0,081	-0,017
-309,139	-37,924	-0,062	-0,024
-308,124	-200,000	-0,011	-0,136
-307,110	-200,000	0,013	-0,062
-306,095	-4,004	0,061	-0,031
-305,080	91,920	-0,025	0,020
-304,066	3,118	-0,100	-0,052
-303,051	-200,000	-0,033	-0,110
-302,037	800,000	0,006	0,016
-301,022	234,500	0,057	-0,069
-300,008	86,033	0,057	0,045
-298,993	22,018	-0,048	-0,028
-297,978	-82,367	0,073	0,017
-296,964	35,038	0,036	-0,023
-295,949	800,000	-0,042	-0,096
-294,935	179,493	-0,040	0,043
-293,920	-7,724	0,117	-0,057
-292,905	800,000	-0,015	-0,038
-291,891	-200,000	-0,009	-0,062
-290,876	-106,505	0,096	0,015
-289,862	28,937	-0,070	-0,043
-288,847	800,000	0,043	-0,109
-287,832	93,584	0,027	0,022
-286,818	159,591	0,069	-0,070
-285,803	800,000	0,032	0,079
-284,789	-49,166	0,179	0,062
-283,774	-63,329	0,128	-0,038
-282,759	-24,275	-0,212	0,091
-281,745	19,962	0,077	0,045
-280,730	800,000	0,033	0,091
-279,716	-55,699	0,096	-0,031
-278,701	-200,000	-0,013	0,078
-277,686	800,000	0,042	0,089
-276,672	243,246	-0,097	-0,118
-275,657	-5,029	0,095	-0,047
-274,643	-154,088	-0,182	-0,009
-273,628	-73,146	0,093	0,024
-272,613	-105,902	0,075	0,012
-271,599	231,671	0,051	0,061
-270,584	99,609	0,069	-0,058
-269,570	800,000	0,067	0,148
-268,555	-82,313	0,070	-0,016
-267,540	-55,724	-0,117	-0,038
-266,526	800,000	0,075	-0,164
-265,511	311,438	-0,018	-0,024
-264,497	64,886	0,018	-0,013
-263,482	-88,384	0,128	0,028
-262,467	-200,000	-0,039	0,166
-261,453	-200,000	0,009	-0,077
-260,438	-65,085	-0,107	0,031
-259,424	-46,998	0,128	0,045
-258,409	-64,912	-0,078	0,023
-257,395	800,000	0,089	-0,189
-256,380	-125,932	0,045	0,005
-255,365	-80,379	0,073	0,018
-254,351	206,941	0,082	0,093
-253,336	565,188	-0,065	0,115
-252,322	-200,000	-0,004	-0,115
-251,307	-200,000	0,014	-0,194
-250,292	-41,182	-0,071	-0,026
-249,278	-200,000	0,026	-0,101
-248,263	184,296	0,101	0,108
-247,249	-115,257	-0,010	0,001
-246,234	224,346	-0,090	-0,105
-245,219	-200,000	0,012	0,046
-244,205	-6,848	-0,109	0,053
-243,190	-85,375	0,124	0,028
-242,176	-200,000	0,028	0,114
-241,161	770,903	-0,072	-0,143
-240,146	-142,623	0,038	0,003
-239,132	80,077	-0,109	0,085
-238,117	699,175	0,014	-0,027
-237,103	-162,556	-0,103	-0,004
-236,088	-200,000	-0,004	-0,045
-235,073	800,000	-0,031	0,093
-234,059	-10,314	-0,025	0,012
-233,044	108,163	-0,050	-0,043
-232,030	-200,000	-0,019	0,109
-231,015	-200,000	0,008	0,105
-230,000	560,334	-0,051	-0,089
-228,986	-200,000	-0,019	-0,074
-227,971	34,722	0,090	-0,056
-226,957	-100,330	0,207	-0,037
-225,942	16,947	-0,050	0,028
-224,927	800,000	-0,060	0,139
-223,913	800,000	0,044	-0,090
-222,898	305,237	-0,093	-0,125
-221,884	-200,000	-0,030	0,163
-220,869	-200,000	0,003	0,063
-219,855	-200,000	0,018	0,097
-218,840	53,980	-0,072	-0,050
-217,825	1,341	-0,008	-0,004
-216,811	551,744	0,052	0,090
-215,796	-29,556	-0,128	0,052
-214,782	260,271	0,040	0,051
-213,767	800,000	0,058	0,159
-212,752	800,000	0,052	0,125
-211,738	-200,000	-0,026	0,115
-210,723	-53,389	0,047	-0,016
-209,709	-124,112	-0,128	0,014
-208,694	-200,000	0,005	-0,054
-207,679	-192,153	-0,044	0,000
-206,665	-160,257	0,056	0,002
-205,650	-63,400	-0,050	-0,015
-204,636	9,578	0,030	0,016
-203,621	-191,976	-0,132	-0,001
-202,606	-164,176	-0,141	0,005
-201,592	-54,494	0,135	-0,044
-200,577	-164,557	0,048	-0,002
-199,563	-73,899	0,133	-0,034
-198,548	74,396	-0,015	-0,011
-197,533	221,878	0,057	0,066
-196,519	689,933	0,021	-0,040
-195,504	-142,588	-0,111	0,008
-194,490	-200,000	-0,028	-0,237
-193,475	-53,326	-0,168	-0,055
-192,460	-200,000	0,029	0,140
-191,446	-9,851	0,031	0,015
-190,431	800,000	-0,011	0,032
-189,417	-55,843	0,052	-0,017
-188,402	357,761	0,047	-0,068
-187,387	-45,038	-0,030	0,011
-186,373	254,404	0,043	0,054
-185,358	-80,743	0,145	-0,034
-184,344	267,641	0,076	-0,096
-183,329	252,883	0,008	-0,010
-182,315	165,512	-0,049	0,050
-181,300	93,625	-0,042	-0,034
-180,285	-200,000	-0,015	0,094
-179,271	687,998	0,022	0,041
-178,256	-114,565	0,130	0,018
-177,242	666,589	0,016	0,030
-176,227	-166,466	-0,104	-0,003
-175,212	-200,000	0,007	0,047
-174,198	-26,323	-0,059	-0,025
-173,183	-170,984	0,019	-0,000
-172,169	116,267	0,102	-0,090
-171,154	-200,000	-0,005	-0,113
-170,139	165,652	-0,053	-0,054
-169,125	-200,000	-0,002	0,047
-168,110	-103,625	-0,060	0,010
-167,096	-200,000	0,001	-0,113
-166,081	-68,045	-0,086	-0,024
-165,066	800,000	0,016	-0,044
-164,052	-152,570	-0,048	0,002
-163,037	288,553	-0,051	-0,067
-162,023	29,102	0,096	0,058
-161,008	114,025	0,072	0,063
-159,993	664,001	-0,040	0,074
-158,979	-102,830	-0,207	-0,035
-157,964	461,465	0,036	0,058
-156,950	33,239	0,002	-0,001
-155,935	227,043	-0,055	0,065
-154,920	25,208	0,023	0,013
-153,906	339,529	0,089	0,126
-152,891	800,000	-0,034	0,082
-151,877	-200,000	-0,013	-0,104
-150,862	-148,961	-0,197	-0,011
-149,847	6,171	-0,024	0,013
-148,833	-200,000	0,007	0,094
-147,818	528,858	-0,025	0,043
-146,804	-183,395	-0,033	0,000
-145,789	-200,000	0,013	0,161
-144,775	65,710	0,073	-0,053
-143,760	-127,260	-0,122	-0,013
-142,745	-200,000	-0,001	0,066
-141,731	-166,245	0,041	-0,001
-140,716	-72,082	0,060	-0,016
-139,702	56,788	-0,026	0,018
-138,687	-200,000	-0,028	-0,117
-137,672	-87,338	0,122	0,026
-136,658	-200,000	0,001	-0,040
-135,643	-200,000	-0,023	-0,109
-134,629	-80,987	0,187	-0,044
-133,614	-200,000	0,019	0,175
-132,599	148,586	0,114	0,111
-131,585	-100,938	-0,042	0,007
-130,570	-127,758	-0,058	0,006
-129,556	-27,667	0,033	0,014
-128,541	-200,000	-0,002	-0,041
-127,526	-19,397	0,084	-0,037
-126,512	-200,000	-0,009	-0,073
-125,497	-166,445	-0,041	-0,001
-124,483	-56,919	-0,099	0,031
-123,468	-107,285	-0,053	0,008
-122,453	800,000	0,031	0,088
-121,439	-35,357	0,019	-0,007
-120,424	102,939	-0,066	0,055
-119,410	200,416	-0,059	-0,065
-118,395	800,000	0,022	0,049
-117,380	395,167	0,150	0,226
-116,366	-200,000	-0,015	0,064
-115,351	74,520	0,073	-0,055
-114,337	10,255	-0,016	-0,009
-113,322	-60,448	-0,147	-0,045
-112,307	-157,459	-0,100	-0,004
-111,293	-156,653	-0,056	0,002
-110,278	34,348	-0,038	0,024
-109,264	-200,000	0,019	0,073
-108,249	38,695	0,183	-0,117
-107,234	800,000	-0,051	-0,140
-106,220	106,871	-0,123	-0,105
-105,205	71,658	0,048	-0,035
-104,191	20,891	0,129	-0,075
-103,176	-200,000	0,000	0,072
-102,162	-97,866	0,052	0,009
-101,147	135,870	0,072	-0,068
-100,132	9,077	-0,159	-0,086
-99,118	-200,000	-0,001	-0,117
-98,103	-23,595	0,142	-0,061
-97,089	403,803	0,015	0,023
-96,074	55,250	-0,069	0,048
-95,059	-200,000	0,003	0,029
-94,045	235,512	-0,043	-0,051
-93,030	-75,142	0,051	-0,013
-92,016	179,176	-0,080	-0,084
-91,001	-200,000	0,006	-0,069
-89,986	665,523	0,040	-0,075
-88,972	-22,911	0,044	-0,019
-87,957	800,000	0,055	-0,111
-86,943	800,000	-0,046	-0,099
-85,928	412,036	-0,016	-0,024
-84,913	142,285	-0,040	0,038
-83,899	247,191	0,101	-0,123
-82,884	201,978	0,077	0,085
-81,870	111,305	-0,045	-0,039
-80,855	-60,617	0,197	0,060
-79,840	-6,630	-0,106	0,051
-78,826	-86,295	-0,045	0,010
-77,811	-46,114	0,013	-0,005
-76,797	-51,161	0,025	-0,008
-75,782	-50,507	0,034	0,011
-74,767	-200,000	0,010	0,089
-73,753	-151,379	-0,073	0,004
-72,738	-81,290	0,101	0,024
-71,724	-50,140	-0,160	-0,054
-70,709	800,000	0,006	0,018
-69,694	800,000	-0,025	-0,076
-68,680	170,855	-0,020	-0,021
-67,665	-117,997	0,122	-0,015
-66,651	540,358	0,081	0,138
-65,636	800,000	-0,066	-0,133
-64,622	-200,000	0,010	-0,052
-63,607	-105,304	-0,058	0,009
-62,592	95,435	0,077	0,063
-61,578	394,052	0,035	0,052
-60,563	224,648	0,031	0,036
-59,549	-15,920	-0,143	0,065
-58,534	83,359	-2,754	-2,150
-57,519	-46,676	0,479	-0,167
-56,505	800,000	-1,780	-5,540
-55,490	584,354	1,200	2,123
-54,476	800,000	5,289	11,174
-53,461	-200,000	23,037	347,170
-52,446	800,000	765,491	2262,897
-51,432	496,927	1643,245	2720,512
-50,417	93,136	1599,262	1295,685
-49,403	60,946	1254,229	891,070
-48,388	21,193	1006,702	584,494
-47,373	18,359	974,421	556,477
-46,359	11,816	961,281	527,786
-45,344	7,696	958,109	512,678
-44,330	8,030	955,690	512,446
-43,315	7,129	953,981	508,598
-42,300	7,079	952,961	507,872
-41,286	7,116	951,924	507,418
-40,271	7,118	950,899	506,859
-39,257	7,081	950,039	506,262
-38,242	7,035	949,205	505,649
-37,227	7,018	948,493	505,196
-36,213	7,100	947,495	504,905
-35,198	7,068	946,795	504,412
-34,184	7,098	946,114	504,123
-33,169	6,971	945,325	503,278
-32,154	7,126	944,393	503,257
-31,140	7,090	943,431	502,608
-30,125	7,190	942,625	502,478
-29,111	7,077	941,876	501,699
-28,096	7,073	941,371	501,398
-27,082	7,109	940,694	501,130
-26,067	7,052	939,999	500,560
-25,052	7,058	939,077	500,067
-24,038	7,060	938,474	499,735
-23,023	7,055	937,787	499,332
-22,009	7,102	937,218	499,158
-20,994	7,047	936,426	498,543
-19,979	7,028	936,104	498,290
-18,965	7,021	935,209	497,774
-17,950	7,069	934,658	497,611
-16,936	7,050	934,022	497,192
-15,921	7,073	933,374	496,902
-14,906	6,901	932,882	496,075
-13,892	6,954	932,300	495,914
-12,877	6,896	931,588	495,333
-11,863	6,933	930,919	495,074
-10,848	6,956	930,321	494,810
-9,833	6,996	929,903	494,692
-8,819	7,049	929,117	494,423
-7,804	6,950	928,735	493,889
-6,790	6,951	927,941	493,448
-5,775	6,967	927,368	493,174
-4,760	6,994	926,789	492,932
-3,746	6,944	926,289	492,491
-2,731	6,873	925,389	491,769
-1,717	6,793	924,930	491,254
-0,702	6,831	924,208	490,972
0,313	6,644	923,646	490,830
1,327	10,114	921,119	500,260
2,342	18,695	769,796	440,270
3,356	13,643	442,503	245,546
4,371	-12,359	309,809	144,513
5,386	-16,131	292,597	132,690
6,400	-18,148	286,415	127,896
7,415	-18,193	284,085	126,800
8,429	-19,232	282,169	124,929
9,444	-19,060	281,243	124,673
10,459	-19,034	280,670	124,434
11,473	-18,918	280,001	124,237
12,488	-19,088	279,492	123,838
13,502	-18,973	279,134	123,778
14,517	-18,956	278,698	123,590
15,531	-18,926	278,181	123,378
16,546	-18,971	277,795	123,153
17,561	-18,859	277,367	123,059
18,575	-18,961	277,053	122,812
19,590	-18,781	276,708	122,818
20,604	-18,806	276,477	122,682
21,619	-18,762	276,053	122,523
22,634	-18,912	275,725	122,226
23,648	-19,002	275,417	121,993
24,663	-18,808	274,988	121,975
25,677	-18,902	274,989	121,876
26,692	-18,750	274,788	121,919
27,707	-18,786	274,432	121,717
28,721	-18,781	274,070	121,550
29,736	-18,808	273,805	121,396
30,750	-18,704	273,575	121,381
31,765	-18,771	273,345	121,205
32,780	-18,816	273,047	121,020
33,794	-18,830	272,886	120,925
34,809	-18,770	272,662	120,871
35,823	-19,159	272,439	120,399
36,838	-18,843	272,054	120,512
37,853	-18,738	271,706	120,444
38,867	-18,792	271,543	120,311
39,882	-18,835	271,273	120,141
40,896	-18,652	271,080	120,215
41,911	-18,657	270,703	120,032
42,926	-18,650	270,526	119,949
43,940	-18,793	270,387	119,745
44,955	-18,898	270,230	119,568
45,969	-18,777	269,928	119,535
46,984	-18,588	269,728	119,609
47,999	-18,761	269,611	119,388
49,013	-18,639	269,418	119,405
50,028	-18,459	269,199	119,462
51,042	-18,595	268,852	119,173
52,057	-18,678	268,662	119,002
53,071	-18,661	268,315	118,853
54,086	-18,613	268,185	118,828
55,101	-18,694	267,997	118,661
56,115	-18,707	267,780	118,542
57,130	-18,601	267,340	118,433
58,144	-18,846	267,114	118,099
59,159	-18,883	266,974	117,993
60,174	-18,928	266,769	117,851
61,188	-19,043	266,444	117,593
62,203	-18,797	266,112	117,659
63,217	-18,732	266,072	117,689
64,232	-18,784	265,802	117,513
65,247	-18,727	265,634	117,480
66,261	-18,793	265,281	117,253
67,276	-18,744	265,106	117,209
68,290	-18,867	264,966	117,026
69,305	-18,822	264,734	116,954
70,320	-18,750	264,477	116,895
71,334	-18,629	264,221	116,881
72,349	-18,687	263,858	116,657
73,363	-18,881	263,677	116,392
74,378	-18,757	263,453	116,395
75,393	-18,751	263,299	116,321
76,407	-18,808	263,118	116,180
77,422	-18,773	262,891	116,100
78,436	-18,662	262,517	116,024
79,451	-18,678	262,420	115,957
80,466	-18,714	262,025	115,740
81,480	-18,900	262,018	115,561
82,495	-18,905	261,780	115,441
83,509	-18,636	261,401	115,502
84,524	-18,750	261,287	115,341
85,539	-18,740	261,289	115,340
86,553	-18,588	260,937	115,310
87,568	-18,761	260,729	115,054
88,582	-18,735	260,506	114,968
89,597	-18,719	260,312	114,886
90,611	-18,819	260,031	114,664
91,626	-18,799	259,784	114,562
92,641	-18,696	259,683	114,599
93,655	-18,719	259,425	114,454
94,670	-18,697	259,091	114,316
95,684	-18,831	259,133	114,206
96,699	-18,820	258,868	114,089
97,714	-18,611	258,531	114,114
98,728	-18,810	258,405	113,873
99,743	-18,604	258,301	113,998
100,757	-18,725	258,158	113,819
101,772	-18,697	257,928	113,732
102,787	-18,748	257,656	113,557
103,801	-18,835	257,412	113,363
104,816	-18,841	257,362	113,326
105,830	-18,834	256,949	113,140
106,845	-18,836	256,719	113,027
107,860	-18,514	256,547	113,221
108,874	-18,501	256,303	113,115
109,889	-18,902	256,223	112,721
110,903	-18,805	256,068	112,727
111,918	-18,534	255,735	112,806
112,933	-18,698	255,582	112,586
113,947	-18,761	255,433	112,456
114,962	-18,608	255,137	112,447
115,976	-18,648	254,860	112,281
116,991	-18,719	254,661	112,122
118,006	-18,622	254,540	112,143
119,020	-18,648	254,410	112,053
120,035	-18,678	254,266	111,953
121,049	-18,615	253,960	111,863
122,064	-18,624	253,874	111,808
123,079	-18,668	253,690	111,678
124,093	-18,574	253,381	111,613
125,108	-18,536	253,193	111,553
126,122	-18,689	253,136	111,387
127,137	-18,600	252,928	111,362
128,151	-18,586	252,754	111,287
129,166	-18,548	252,380	111,145
130,181	-18,731	252,312	110,949
131,195	-18,596	252,073	110,949
132,210	-18,681	251,930	110,804
133,224	-18,605	251,649	110,735
134,239	-18,720	251,492	110,558
135,254	-18,620	251,380	110,585
136,268	-18,627	251,106	110,448
137,283	-18,369	250,771	110,510
138,297	-18,614	250,718	110,268
139,312	-18,521	250,577	110,275
140,327	-18,752	250,446	110,012
141,341	-18,667	250,186	109,961
142,356	-18,794	249,800	109,673
143,370	-18,576	249,707	109,806
144,385	-18,527	249,518	109,756
145,400	-18,825	249,351	109,421
146,414	-18,720	249,270	109,464
147,429	-18,648	249,064	109,424
148,443	-18,838	248,740	109,112
149,458	-18,611	248,468	109,174
150,473	-18,650	248,474	109,134
151,487	-18,543	248,101	109,050
152,502	-18,505	247,987	109,022
153,516	-18,626	247,734	108,800
154,531	-18,704	247,580	108,657
155,546	-18,517	247,354	108,705
156,560	-18,584	247,302	108,617
157,575	-18,639	246,934	108,399
158,589	-18,626	246,774	108,331
159,604	-18,687	246,622	108,202
160,619	-18,798	246,452	108,026
161,633	-18,720	246,354	108,038
162,648	-18,570	246,198	108,086
163,662	-18,586	246,073	108,007
164,677	-18,688	246,035	107,896
165,692	-18,528	245,665	107,858
166,706	-18,623	245,588	107,735
167,721	-18,571	245,332	107,657
168,735	-18,697	245,096	107,439
169,750	-18,748	244,998	107,344
170,764	-18,611	244,908	107,409
171,779	-18,480	244,643	107,391
172,794	-18,648	244,614	107,230
173,808	-18,834	244,494	107,014
174,823	-18,704	244,188	106,978
175,837	-18,386	244,088	107,187
176,852	-18,453	243,809	106,999
177,867	-18,567	243,559	106,786
178,881	-18,591	243,435	106,703
179,896	-18,421	243,285	106,767
180,910	-18,780	243,182	106,417
181,925	-18,728	243,049	106,393
182,940	-18,676	242,708	106,277
183,954	-18,693	242,546	106,182
184,969	-18,493	242,441	106,290
185,983	-18,482	242,320	106,237
186,998	-18,715	242,161	105,967
188,013	-18,640	241,856	105,886
189,027	-18,446	241,652	105,945
190,042	-18,663	241,541	105,710
191,056	-18,703	241,328	105,575
192,071	-18,746	241,261	105,501
193,086	-18,444	241,097	105,666
194,100	-18,497	240,727	105,451
195,115	-18,655	240,617	105,265
196,129	-18,731	240,401	105,099
197,144	-18,662	240,176	105,048
198,159	-18,628	239,978	104,979
199,173	-18,571	239,796	104,936
200,188	-18,680	239,582	104,745
201,202	-18,462	239,517	104,883
202,217	-18,405	239,455	104,893
203,232	-18,435	239,265	104,776
204,246	-18,542	239,038	104,581
205,261	-18,401	238,757	104,562
206,275	-16,958	239,272	105,942
207,290	-12,129	240,983	110,606
208,304	-5,655	243,176	116,889
209,319	-1,993	244,009	120,273
210,334	-0,991	244,252	121,200
211,348	-0,235	244,333	121,847
212,363	-0,004	244,452	122,085
213,377	0,306	244,209	122,205
214,392	0,451	244,188	122,302
215,407	0,998	244,067	122,677
216,421	0,857	244,035	122,534
217,436	0,840	244,008	122,497
218,450	0,853	243,684	122,333
219,465	1,194	243,500	122,507
220,480	1,071	243,378	122,335
221,494	0,983	243,236	122,181
222,509	0,786	242,901	121,842
223,523	0,531	242,675	121,512
224,538	0,412	242,519	121,326
225,553	0,421	242,320	121,223
226,567	0,360	242,117	121,061
227,582	0,426	242,038	121,065
228,596	0,436	241,874	120,980
229,611	0,169	241,853	120,743
230,626	0,343	241,579	120,736
231,640	0,504	241,344	120,737
232,655	0,461	241,168	120,604
233,669	0,255	241,076	120,381
234,684	0,347	240,888	120,350
235,699	0,291	240,748	120,224
236,713	0,265	240,553	120,096
237,728	0,510	240,612	120,311
238,742	0,474	240,314	120,123
239,757	0,493	240,065	120,003
240,772	0,379	239,916	119,827
241,786	0,496	239,798	119,851
242,801	0,454	239,534	119,674
243,815	0,453	239,437	119,614
244,830	0,566	239,266	119,608
245,844	0,394	239,201	119,428
246,859	0,481	239,001	119,386
247,874	0,509	238,790	119,293
248,888	0,484	238,667	119,201
249,903	0,471	238,705	119,198
250,917	0,335	238,493	118,974
251,932	0,634	238,328	119,119
252,947	0,685	237,983	118,976
253,961	0,497	237,806	118,728
254,976	0,481	237,717	118,660
255,990	0,415	237,543	118,511
257,005	0,358	237,493	118,430
258,020	0,298	237,377	118,314
259,034	0,373	237,160	118,255
260,049	0,491	237,062	118,288
261,063	0,561	236,873	118,239
262,078	0,509	236,654	118,078
263,093	0,511	236,474	117,979
264,107	0,603	236,397	118,003
265,122	0,517	236,151	117,802
266,136	0,457	236,166	117,752
267,151	0,627	235,902	117,743
268,166	0,411	235,699	117,462
269,180	0,453	235,551	117,411
270,195	0,352	235,442	117,267
271,209	0,226	235,321	117,097
272,224	0,396	235,236	117,178
273,239	0,400	235,026	117,066
274,253	0,546	234,783	117,048
275,268	0,449	234,717	116,930
276,282	0,428	234,472	116,780
277,297	0,410	234,270	116,655
278,312	0,371	234,170	116,564
279,326	0,375	234,179	116,562
280,341	0,524	234,040	116,598
281,355	0,546	233,802	116,486
282,370	0,632	233,783	116,533
283,384	0,471	233,541	116,277
284,399	0,357	233,415	116,115
285,414	0,478	233,085	116,035
286,428	0,518	233,159	116,093
287,443	0,517	233,039	116,021
288,457	0,693	232,832	116,044
289,472	0,665	232,573	115,883
290,487	0,492	232,446	115,676
291,501	0,515	232,290	115,605
292,516	0,605	232,165	115,603
293,530	0,649	232,075	115,581
294,545	0,595	231,906	115,445
295,560	0,555	231,680	115,292
296,574	0,704	231,623	115,367
297,589	0,767	231,483	115,336
298,603	0,679	231,347	115,190
299,618	0,592	231,139	115,010
300,633	0,498	231,094	114,905
301,647	0,544	230,996	114,881
302,662	0,860	230,729	114,980
303,676	0,708	230,605	114,792
304,691	0,662	230,477	114,683
305,706	0,668	230,300	114,589
306,720	0,963	230,037	114,673
307,735	0,791	230,079	114,552
308,749	0,827	229,813	114,437
309,764	0,853	229,548	114,315
310,779	0,857	229,454	114,260
311,793	0,853	229,361	114,201
312,808	0,749	229,180	114,022
313,822	0,728	229,059	113,935
314,837	0,902	228,913	113,985
315,852	0,660	229,026	113,848
316,866	0,767	228,789	113,801
317,881	0,749	228,430	113,598
318,895	0,736	228,321	113,524
319,910	0,823	228,122	113,480
320,925	0,671	228,063	113,326
321,939	0,812	227,909	113,347
322,954	0,955	227,751	113,365
323,968	0,626	227,889	113,176
324,983	1,044	227,369	113,221
325,997	0,832	227,401	113,068
327,012	0,931	227,092	112,978
328,027	0,706	227,114	112,811
329,041	0,754	226,921	112,741
330,056	0,667	226,925	112,667
331,070	0,747	226,699	112,605
332,085	0,780	226,438	112,490
333,100	0,930	226,267	112,507
334,114	0,742	226,211	112,329
335,129	0,819	226,005	112,274
336,143	0,937	226,038	112,369
337,158	0,873	225,885	112,235
338,173	0,765	225,739	112,071
339,187	0,978	225,572	112,138
340,202	0,762	225,438	111,900
341,216	0,959	225,296	111,966
342,231	0,776	225,123	111,734
343,246	0,861	224,965	111,709
344,260	0,999	224,830	111,734
345,275	1,062	224,680	111,697
346,289	1,154	224,571	111,701
347,304	1,042	224,416	111,531
348,319	0,991	224,063	111,307
349,333	0,991	224,057	111,294
350,348	1,017	223,842	111,197
351,362	1,037	223,902	111,232
352,377	0,884	223,845	111,081
353,392	0,966	223,553	110,986
354,406	1,019	223,271	110,875
355,421	192,503	1310,676	1376,016
356,435	154,151	1442,995	1375,835
