DTS Sentinel unit serial number:	SN410029Multiplexer serial number:	ORYXHardware model number:	OX2-SRSoftware version number:	ORYX F/W v4,00 Oryx Data Collector v3.7.2.0data status	okinstallation	B5 Nyhavnadifferential loss correction	single-endedforward channel	channel 2reverse channel	N/Adate	2023/12/13time	12:07:13forward acquisition time	300,00reverse acquisition time	0,00gamma	499,1914k internal	0,3162k external	0,3162temperature offset calibration	1,0000default loss term (dB/km)	0,3820temperature slope calibration	1,0000multiplexer offset coefficient	1,0000multiplexer slope coefficient	1,0000fibre end	0,00T internal ref (°C)	13,99T ext. ref 1 (°C)	-1,91T ext. ref 2 (°C)	-2,21length (m)	temperature (°C)	Stokes	anti-Stokes-744,400	306,008	0,125	0,171
-743,385	-154,828	-0,271	0,013
-742,371	178,224	0,080	0,086
-741,356	-122,707	-0,341	0,040
-740,342	-38,012	0,236	0,092
-739,327	-71,157	-0,349	0,096
-738,312	-200,000	0,012	-0,073
-737,298	-179,147	-0,309	0,005
-736,283	-38,540	0,112	0,043
-735,269	-62,618	-0,202	0,061
-734,254	800,000	0,077	0,235
-733,239	-53,603	-0,424	-0,142
-732,225	-35,420	0,076	-0,030
-731,210	-200,000	-0,007	0,127
-730,196	-94,868	0,087	0,017
-729,181	452,989	0,024	-0,040
-728,167	-200,000	0,006	-0,109
-727,152	-110,374	-0,087	0,013
-726,137	628,786	-0,102	0,190
-725,123	242,787	-0,045	0,056
-724,108	-93,511	-0,178	-0,036
-723,094	76,808	-0,029	-0,023
-722,079	800,000	-0,066	-0,149
-721,064	-116,537	-0,188	-0,025
-720,050	201,875	0,046	0,052
-719,035	144,442	-0,102	-0,100
-718,021	-28,800	-0,157	-0,066
-717,006	79,441	-0,090	-0,071
-715,991	-200,000	0,016	-0,101
-714,977	-15,662	0,015	-0,007
-713,962	-29,619	0,028	0,012
-712,948	82,545	-0,130	0,104
-711,933	-110,917	0,042	-0,006
-710,918	-77,703	-0,192	0,048
-709,904	-200,000	-0,004	-0,091
-708,889	249,831	-0,118	-0,147
-707,875	-157,834	-0,060	-0,003
-706,860	-154,171	-0,119	0,006
-705,845	-30,184	0,133	0,055
-704,831	688,359	0,014	0,026
-703,816	213,496	0,035	0,041
-702,802	-200,000	0,010	0,067
-701,787	-200,000	-0,016	-0,071
-700,772	274,976	0,068	0,089
-699,758	-200,000	-0,007	-0,069
-698,743	-25,416	0,137	-0,059
-697,729	230,266	0,071	0,085
-696,714	800,000	-0,018	-0,054
-695,699	-200,000	-0,005	-0,024
-694,685	372,354	-0,054	0,082
-693,670	-153,891	-0,210	-0,010
-692,656	-74,325	0,218	0,057
-691,641	-162,690	0,137	-0,005
-690,627	16,758	-0,123	-0,071
-689,612	-200,000	0,003	0,065
-688,597	-54,668	0,092	0,030
-687,583	-125,934	0,065	-0,007
-686,568	534,540	-0,112	-0,195
-685,554	392,787	-0,084	-0,128
-684,539	-145,829	0,076	-0,005
-683,524	-99,198	0,091	0,017
-682,510	287,430	0,078	0,103
-681,495	83,821	-0,033	0,026
-680,481	800,000	0,079	-0,172
-679,466	-68,442	-0,158	-0,045
-678,451	2,966	-0,122	-0,065
-677,437	99,304	0,087	0,074
-676,422	144,490	0,034	0,033
-675,408	60,281	-0,038	0,028
-674,393	160,180	0,119	0,122
-673,378	-89,509	0,068	-0,015
-672,364	38,602	-0,040	-0,026
-671,349	-200,000	-0,028	-0,147
-670,335	-200,000	-0,023	-0,094
-669,320	-42,075	0,072	0,027
-668,305	-135,328	-0,079	-0,007
-667,291	687,179	-0,047	-0,091
-666,276	-200,000	0,003	-0,084
-665,262	518,485	-0,086	-0,149
-664,247	-200,000	-0,028	-0,127
-663,232	793,505	-0,033	0,066
-662,218	-200,000	0,013	-0,083
-661,203	169,031	-0,089	-0,093
-660,189	101,216	-0,067	-0,057
-659,174	-11,004	-0,114	-0,055
-658,159	-200,000	0,022	-0,133
-657,145	-200,000	0,023	-0,096
-656,130	-200,000	-0,015	0,106
-655,116	800,000	0,060	0,135
-654,101	-200,000	-0,003	-0,079
-653,086	-127,271	-0,081	0,009
-652,072	800,000	0,050	-0,143
-651,057	-200,000	-0,019	-0,230
-650,043	41,608	-0,036	0,024
-649,028	-173,267	0,125	0,003
-648,014	-200,000	-0,001	0,079
-646,999	-77,591	0,135	-0,034
-645,984	458,846	-0,037	0,061
-644,970	-61,595	-0,106	-0,032
-643,955	24,088	0,085	-0,052
-642,941	-112,017	0,151	-0,022
-641,926	-113,222	-0,064	0,009
-640,911	-200,000	-0,014	0,161
-639,897	52,957	0,072	-0,051
-638,882	-23,038	0,096	0,042
-637,868	-85,279	-0,111	0,025
-636,853	3,608	-0,162	-0,086
-635,838	-200,000	0,021	-0,165
-634,824	800,000	0,023	0,050
-633,809	174,642	0,032	0,034
-632,795	800,000	-0,022	0,062
-631,780	800,000	0,034	0,073
-630,765	-197,959	-0,223	-0,001
-629,751	-21,979	-0,108	0,048
-628,736	346,672	-0,086	-0,124
-627,722	800,000	0,071	-0,145
-626,707	-107,652	0,063	0,010
-625,692	-200,000	0,002	-0,060
-624,678	15,264	0,053	0,030
-623,663	90,504	0,091	-0,075
-622,649	-200,000	-0,035	-0,128
-621,634	-127,329	-0,116	-0,012
-620,619	79,667	0,116	-0,091
-619,605	174,193	-0,048	-0,051
-618,590	125,652	0,035	-0,032
-617,576	-200,000	0,028	-0,094
-616,561	800,000	-0,041	0,112
-615,546	331,412	-0,017	0,023
-614,532	220,810	-0,067	-0,079
-613,517	-200,000	-0,003	-0,083
-612,503	800,000	0,022	0,047
-611,488	398,025	-0,053	0,081
-610,474	-79,637	-0,124	-0,030
-609,459	800,000	-0,041	-0,098
-608,444	227,215	-0,063	0,075
-607,430	-200,000	0,036	-0,172
-606,415	-200,000	0,000	-0,079
-605,401	-75,721	0,044	0,011
-604,386	-200,000	0,029	0,111
-603,371	800,000	0,103	0,227
-602,357	-21,000	-0,083	0,037
-601,342	-38,577	0,022	-0,009
-600,328	-126,937	0,055	0,006
-599,313	-200,000	0,013	0,065
-598,298	173,403	0,044	0,047
-597,284	153,615	-0,054	0,055
-596,269	43,359	-0,084	0,056
-595,255	-200,000	-0,034	0,167
-594,240	-200,000	0,039	-0,158
-593,225	158,618	-0,112	-0,114
-592,211	-200,000	0,006	-0,160
-591,196	-96,631	0,007	-0,001
-590,182	609,058	0,029	-0,053
-589,167	800,000	0,012	-0,033
-588,152	111,892	0,139	0,123
-587,138	-103,552	-0,055	-0,009
-586,123	106,545	0,067	-0,058
-585,109	145,565	-0,029	-0,029
-584,094	265,015	-0,063	-0,081
-583,079	-121,041	-0,116	0,014
-582,065	174,583	0,127	-0,134
-581,050	-200,000	0,039	0,134
-580,036	33,534	-0,094	-0,059
-579,021	-200,000	-0,009	-0,039
-578,006	-50,940	-0,102	0,035
-576,992	434,668	0,023	-0,037
-575,977	800,000	0,021	0,064
-574,963	-0,087	0,029	0,015
-573,948	191,035	0,064	0,071
-572,934	127,152	-0,060	-0,056
-571,919	409,240	0,036	0,056
-570,904	-200,000	0,015	0,079
-569,890	-200,000	-0,016	-0,197
-568,875	-200,000	0,021	0,135
-567,861	-200,000	0,022	0,080
-566,846	800,000	0,027	0,082
-565,831	800,000	-0,032	-0,084
-564,817	367,803	-0,046	0,068
-563,802	196,766	-0,066	0,074
-562,788	141,311	0,108	0,104
-561,773	-78,639	-0,094	-0,023
-560,758	110,122	0,068	0,060
-559,744	-200,000	-0,001	-0,064
-558,729	112,080	-0,090	0,079
-557,715	440,694	0,038	-0,061
-556,700	800,000	-0,035	-0,104
-555,685	720,370	-0,016	0,031
-554,671	-97,087	-0,137	-0,026
-553,656	251,404	0,056	-0,070
-552,642	135,918	-0,053	0,050
-551,627	-108,295	-0,041	-0,006
-550,612	16,336	-0,077	0,044
-549,598	-97,439	0,035	0,007
-548,583	-97,045	-0,168	0,032
-547,569	461,502	0,031	-0,051
-546,554	-50,179	-0,105	0,036
-545,539	-104,762	-0,051	0,009
-544,525	-17,733	0,044	0,020
-543,510	446,829	-0,022	-0,035
-542,496	-200,000	-0,007	-0,185
-541,481	300,274	-0,093	-0,125
-540,466	406,652	0,061	-0,094
-539,452	-62,690	0,090	0,027
-538,437	773,789	0,017	0,033
-537,423	499,113	0,042	-0,071
-536,408	-86,255	-0,117	-0,026
-535,393	-186,020	-0,121	-0,001
-534,379	5,350	-0,049	-0,026
-533,364	-200,000	-0,002	0,073
-532,350	169,325	0,134	-0,140
-531,335	-122,035	0,125	-0,015
-530,321	126,577	0,095	-0,087
-529,306	186,017	-0,115	0,126
-528,291	444,842	0,029	-0,046
-527,277	49,850	0,013	-0,009
-526,262	121,956	0,030	-0,028
-525,248	-74,661	-0,083	0,022
-524,233	-200,000	0,032	0,130
-523,218	-156,276	-0,032	0,001
-522,204	-200,000	0,008	0,048
-521,189	-200,000	-0,058	-0,192
-520,175	95,918	-0,090	-0,075
-519,160	800,000	0,037	0,078
-518,145	59,166	-0,100	0,072
-517,131	-145,074	0,115	-0,008
-516,116	102,944	-0,066	0,057
-515,102	146,699	-0,051	0,050
-514,087	162,743	0,087	-0,089
-513,072	425,134	-0,080	-0,126
-512,058	-200,000	-0,002	-0,137
-511,043	-200,000	-0,010	-0,058
-510,029	-167,116	0,085	0,002
-509,014	-200,000	0,003	0,043
-507,999	800,000	0,058	-0,120
-506,985	39,647	0,030	-0,020
-505,970	-130,124	-0,087	0,009
-504,956	218,593	-0,133	-0,156
-503,941	-39,814	-0,069	0,026
-502,926	-24,613	0,022	0,009
-501,912	115,355	0,040	-0,036
-500,897	-51,696	-0,093	-0,031
-499,883	277,214	-0,060	-0,079
-498,868	-56,843	-0,059	0,019
-497,853	-200,000	-0,001	-0,243
-496,839	73,899	0,127	-0,097
-495,824	62,247	0,062	-0,045
-494,810	330,379	0,038	0,054
-493,795	-163,141	-0,038	0,001
-492,781	800,000	0,043	-0,109
-491,766	-159,808	-0,110	0,004
-490,751	-31,286	0,013	-0,005
-489,737	30,736	0,050	0,031
-488,722	-200,000	-0,001	-0,016
-487,708	800,000	0,068	0,148
-486,693	-165,680	0,017	-0,001
-485,678	3,165	-0,104	-0,055
-484,664	123,862	-0,064	-0,059
-483,649	417,801	0,039	0,061
-482,635	800,000	0,037	0,105
-481,620	-200,000	0,003	0,171
-480,605	204,703	0,089	0,101
-479,591	800,000	0,054	0,135
-478,576	31,320	0,034	0,021
-477,562	610,986	0,103	-0,188
-476,547	-112,403	-0,101	0,015
-475,532	86,444	0,082	0,066
-474,518	-200,000	0,024	-0,080
-473,503	448,040	-0,040	-0,064
-472,489	104,804	0,104	0,090
-471,474	15,162	0,098	0,056
-470,459	-47,313	-0,053	0,019
-469,445	198,033	-0,133	-0,148
-468,430	-65,132	-0,064	0,019
-467,416	800,000	-0,052	0,121
-466,401	-17,467	0,072	0,033
-465,386	-200,000	0,018	-0,142
-464,372	-41,358	0,019	-0,007
-463,357	37,342	0,069	0,044
-462,343	-200,000	0,007	-0,055
-461,328	-200,000	-0,008	-0,031
-460,313	-200,000	0,002	0,029
-459,299	150,993	0,082	0,082
-458,284	13,192	0,108	0,061
-457,270	-5,204	-0,063	0,031
-456,255	298,129	-0,046	-0,061
-455,241	596,508	0,035	-0,064
-454,226	-66,328	0,060	-0,017
-453,211	70,748	0,052	-0,039
-452,197	260,637	0,101	0,127
-451,182	118,915	0,105	-0,095
-450,168	152,468	-0,059	0,059
-449,153	-97,856	-0,090	0,017
-448,138	-200,000	-0,022	-0,195
-447,124	31,031	0,101	-0,063
-446,109	36,173	0,143	0,091
-445,095	35,888	0,066	-0,042
-444,080	234,351	0,092	0,111
-443,065	-200,000	-0,012	0,045
-442,051	316,884	-0,091	-0,125
-441,036	-18,720	-0,050	-0,023
-440,022	241,717	0,079	-0,096
-439,007	-200,000	0,012	-0,046
-437,992	58,505	0,081	-0,058
-436,978	191,072	-0,063	0,069
-435,963	-200,000	-0,011	-0,063
-434,949	-144,876	-0,112	-0,007
-433,934	-74,118	0,059	0,015
-432,919	-24,310	-0,082	-0,035
-431,905	-123,247	-0,069	0,008
-430,890	4,471	0,195	0,104
-429,876	-200,000	0,014	0,107
-428,861	-30,979	0,067	-0,028
-427,846	-85,746	-0,075	0,017
-426,832	800,000	0,025	0,080
-425,817	-161,023	-0,076	0,003
-424,803	58,280	-0,054	-0,038
-423,788	-0,042	0,045	0,023
-422,773	-200,000	0,001	0,062
-421,759	-200,000	0,001	0,174
-420,744	-158,942	0,077	-0,003
-419,730	-88,765	0,065	-0,014
-418,715	380,169	-0,073	0,109
-417,701	353,470	0,068	-0,098
-416,686	123,341	0,062	0,056
-415,671	114,045	0,102	0,090
-414,657	-96,373	0,041	-0,008
-413,642	-124,578	-0,032	0,004
-412,628	68,794	-0,086	0,064
-411,613	47,963	0,084	-0,057
-410,598	395,986	-0,053	-0,081
-409,584	26,373	0,076	0,046
-408,569	565,472	-0,043	-0,076
-407,555	336,015	-0,090	0,127
-406,540	-200,000	-0,004	-0,180
-405,525	271,461	0,048	-0,062
-404,511	54,224	-0,039	-0,028
-403,496	-144,277	-0,097	-0,006
-402,482	-101,718	0,058	0,010
-401,467	26,580	-0,113	0,069
-400,452	77,090	0,070	0,054
-399,438	386,850	-0,049	-0,073
-398,423	-200,000	-0,021	-0,083
-397,409	800,000	-0,042	-0,101
-396,394	38,592	-0,127	-0,082
-395,379	-62,217	-0,153	0,046
-394,365	800,000	-0,029	0,064
-393,350	800,000	0,047	-0,147
-392,336	-92,560	0,094	-0,019
-391,321	-200,000	-0,022	-0,090
-390,306	-59,890	-0,064	-0,020
-389,292	-200,000	-0,007	-0,051
-388,277	71,586	-0,117	-0,088
-387,263	-71,354	-0,012	-0,003
-386,248	-200,000	-0,020	0,092
-385,233	-200,000	-0,055	-0,000
-384,219	-200,000	-0,007	0,066
-383,204	-200,000	-0,040	-0,171
-382,190	224,565	0,070	-0,082
-381,175	-200,000	-0,006	-0,169
-380,160	162,272	0,082	0,084
-379,146	800,000	0,021	0,059
-378,131	800,000	0,023	0,065
-377,117	-200,000	0,000	-0,079
-376,102	800,000	0,012	-0,029
-375,088	-48,838	-0,090	-0,031
-374,073	748,087	-0,023	0,045
-373,058	-200,000	0,031	0,104
-372,044	800,000	0,036	0,075
-371,029	-200,000	-0,003	0,106
-370,015	800,000	0,027	-0,062
-369,000	126,092	-0,050	0,046
-367,985	-26,440	-0,131	-0,055
-366,971	-49,736	0,052	0,018
-365,956	214,862	0,031	0,036
-364,942	-55,664	-0,032	0,010
-363,927	-200,000	-0,002	0,013
-362,912	-200,000	-0,065	0,292
-361,898	-200,000	0,030	0,123
-360,883	-200,000	0,028	-0,113
-359,869	-144,712	-0,053	-0,003
-358,854	-200,000	0,033	0,112
-357,839	185,600	0,129	0,139
-356,825	-200,000	0,012	0,068
-355,810	800,000	-0,045	0,127
-354,796	-128,124	0,104	-0,011
-353,781	-200,000	-0,009	-0,049
-352,766	-164,693	0,073	-0,002
-351,752	-181,007	0,046	-0,001
-350,737	-90,721	-0,196	0,041
-349,723	800,000	-0,005	0,012
-348,708	-200,000	0,010	-0,068
-347,693	718,190	0,069	-0,133
-346,679	201,343	-0,058	0,065
-345,664	-200,000	-0,016	-0,124
-344,650	7,817	0,106	-0,057
-343,635	-8,853	0,047	-0,023
-342,620	-24,637	0,032	-0,014
-341,606	49,341	-0,030	0,020
-340,591	-188,576	-0,059	-0,001
-339,577	-46,507	-0,026	-0,009
-338,562	161,359	0,010	0,011
-337,548	-35,992	0,051	0,020
-336,533	-200,000	0,004	0,075
-335,518	-89,893	0,024	0,005
-334,504	-64,837	-0,095	0,028
-333,489	152,725	-0,085	-0,084
-332,475	-200,000	-0,007	-0,051
-331,460	261,675	0,020	-0,025
-330,445	758,906	-0,027	0,054
-329,431	31,800	-0,057	0,036
-328,416	-116,569	0,074	0,010
-327,402	-9,860	0,063	-0,030
-326,387	136,166	-0,125	0,118
-325,372	-92,691	-0,053	-0,011
-324,358	-200,000	0,007	-0,105
-323,343	786,764	0,059	-0,117
-322,329	75,553	0,070	-0,053
-321,314	-37,825	0,181	0,070
-320,299	71,554	-0,065	-0,049
-319,285	-200,000	-0,011	-0,037
-318,270	-200,000	-0,018	0,107
-317,256	-200,000	0,013	-0,115
-316,241	160,759	-0,024	-0,024
-315,226	800,000	-0,026	0,074
-314,212	800,000	-0,051	0,129
-313,197	-3,113	0,019	-0,010
-312,183	18,302	-0,056	-0,032
-311,168	-0,335	0,097	0,050
-310,153	-200,000	0,006	0,048
-309,139	80,821	-0,024	0,018
-308,124	719,849	0,061	0,118
-307,110	244,445	0,079	0,096
-306,095	238,324	0,010	0,012
-305,080	230,340	-0,164	0,195
-304,066	18,652	0,033	0,019
-303,051	-200,000	0,017	-0,077
-302,037	16,482	-0,049	0,028
-301,022	-144,020	-0,019	0,001
-300,008	-200,000	0,000	-0,035
-298,993	800,000	-0,033	0,077
-297,978	154,349	-0,042	-0,042
-296,964	356,289	-0,084	0,121
-295,949	800,000	-0,070	-0,153
-294,935	-200,000	-0,025	-0,172
-293,920	800,000	-0,054	0,119
-292,905	-200,000	0,013	-0,050
-291,891	-200,000	0,015	0,086
-290,876	800,000	0,034	-0,096
-289,862	31,665	0,075	-0,047
-288,847	-94,415	-0,089	0,017
-287,832	-200,000	-0,011	-0,054
-286,818	532,711	0,073	-0,125
-285,803	31,066	0,043	0,027
-284,789	800,000	-0,044	0,112
-283,774	-63,470	0,104	0,031
-282,759	-200,000	0,016	-0,063
-281,745	-88,161	-0,052	-0,011
-280,730	430,697	0,038	-0,059
-279,716	122,138	0,052	-0,047
-278,701	50,499	-0,146	-0,100
-277,686	88,637	0,083	0,066
-276,672	452,501	0,030	-0,048
-275,657	800,000	-0,015	0,040
-274,643	800,000	0,009	-0,025
-273,628	-56,246	0,049	-0,016
-272,613	744,413	0,021	0,040
-271,599	-143,988	-0,064	-0,004
-270,584	-39,688	-0,029	-0,011
-269,570	-4,660	0,045	-0,022
-268,555	375,883	-0,024	-0,036
-267,540	-200,000	-0,014	-0,118
-266,526	522,488	-0,022	-0,038
-265,511	800,000	0,054	-0,131
-264,497	800,000	0,026	0,057
-263,482	143,426	0,074	0,071
-262,467	239,336	0,056	0,067
-261,453	-99,890	0,164	0,029
-260,438	-200,000	-0,013	-0,054
-259,424	-23,416	-0,046	-0,020
-258,409	-52,975	-0,154	-0,051
-257,395	178,933	0,068	0,072
-256,380	-22,514	-0,095	-0,041
-255,365	-200,000	0,000	0,009
-254,351	800,000	-0,017	0,053
-253,336	-184,673	0,060	0,001
-252,322	264,938	-0,036	0,046
-251,307	-146,648	0,127	0,008
-250,292	-64,833	-0,045	-0,013
-249,278	800,000	0,043	0,086
-248,263	-67,782	-0,013	0,004
-247,249	-200,000	-0,020	0,078
-246,234	25,210	0,074	0,044
-245,219	-140,216	-0,086	0,006
-244,205	-200,000	0,006	0,044
-243,190	-200,000	-0,010	-0,098
-242,176	-200,000	0,033	-0,122
-241,161	800,000	-0,046	0,136
-240,146	-200,000	0,001	0,179
-239,132	268,028	-0,068	0,086
-238,117	800,000	-0,014	0,039
-237,103	35,329	0,072	-0,045
-236,088	-138,951	-0,073	-0,006
-235,073	-200,000	0,005	0,077
-234,059	37,599	0,063	0,040
-233,044	306,919	0,135	0,182
-232,030	36,171	-0,045	0,029
-231,015	-92,445	-0,091	0,018
-230,000	193,604	-0,059	0,064
-228,986	800,000	0,033	0,070
-227,971	51,713	-0,022	0,015
-226,957	-140,399	-0,057	0,004
-225,942	261,648	-0,079	0,099
-224,927	-100,774	-0,049	-0,009
-223,913	-200,000	-0,005	-0,136
-222,898	79,641	0,049	0,038
-221,884	-68,344	-0,043	-0,012
-220,869	-84,237	0,082	-0,019
-219,855	-125,084	-0,049	-0,005
-218,840	370,554	-0,134	0,197
-217,825	-200,000	0,000	0,065
-216,811	800,000	-0,047	-0,138
-215,796	-114,016	-0,017	-0,002
-214,782	-43,454	0,041	-0,015
-213,767	-141,244	0,084	0,006
-212,752	800,000	-0,003	0,006
-211,738	206,868	0,061	-0,069
-210,723	75,486	0,027	-0,020
-209,709	-40,686	0,075	-0,028
-208,694	3,822	-0,046	-0,024
-207,679	30,102	0,093	-0,057
-206,665	380,544	-0,062	0,092
-205,650	290,933	-0,022	-0,028
-204,636	-200,000	-0,003	0,076
-203,621	-200,000	-0,003	-0,014
-202,606	-200,000	-0,034	0,142
-201,592	191,567	0,097	0,105
-200,577	-89,669	0,062	0,013
-199,563	-200,000	0,020	-0,090
-198,548	800,000	0,030	-0,073
-197,533	-200,000	-0,020	0,091
-196,519	-200,000	0,033	0,110
-195,504	44,663	0,090	0,060
-194,490	-139,050	-0,042	0,003
-193,475	-200,000	0,021	0,078
-192,460	-91,120	0,080	0,016
-191,446	608,493	0,005	-0,010
-190,431	-25,867	0,130	-0,055
-189,417	800,000	-0,027	0,058
-188,402	-62,491	-0,078	0,023
-187,387	38,371	0,124	-0,080
-186,373	-53,833	-0,126	0,041
-185,358	-44,992	0,119	-0,042
-184,344	-200,000	0,001	0,114
-183,329	-126,156	0,053	0,006
-182,315	78,890	0,107	-0,082
-181,300	202,593	0,052	0,058
-180,285	800,000	-0,020	-0,054
-179,271	56,909	-0,048	0,034
-178,256	214,576	-0,052	0,059
-177,242	260,858	0,126	0,157
-176,227	125,300	-0,028	0,026
-175,212	-200,000	-0,026	0,094
-174,198	109,959	-0,062	-0,054
-173,183	-200,000	-0,024	-0,076
-172,169	273,640	0,088	-0,112
-171,154	196,663	-0,024	0,026
-170,139	-164,983	-0,052	0,002
-169,125	74,988	0,098	0,075
-168,110	80,994	0,034	0,026
-167,096	354,379	0,052	-0,074
-166,081	-200,000	0,001	-0,091
-165,066	130,661	0,077	-0,071
-164,052	-200,000	-0,042	-0,142
-163,037	11,171	0,058	0,032
-162,023	-103,538	-0,141	-0,024
-161,008	-200,000	0,001	-0,037
-159,993	-31,543	-0,064	-0,026
-158,979	-200,000	0,003	-0,016
-157,964	294,725	-0,057	-0,075
-156,950	122,974	-0,090	0,081
-155,935	29,313	0,114	0,070
-154,920	116,072	-0,046	0,040
-153,906	225,649	0,053	-0,062
-152,891	-200,000	-0,035	0,132
-151,877	-7,099	0,066	0,032
-150,862	96,741	-0,049	-0,040
-149,847	-164,851	0,113	0,004
-148,833	-200,000	-0,016	0,083
-147,818	-200,000	0,011	-0,078
-146,804	24,610	-0,064	0,038
-145,789	-123,916	-0,055	0,006
-144,775	29,566	-0,059	-0,036
-143,760	-200,000	0,032	-0,128
-142,745	-200,000	0,047	-0,157
-141,731	-200,000	0,001	-0,112
-140,716	2,711	0,109	-0,057
-139,702	-78,603	-0,032	0,008
-138,687	-12,396	0,025	0,012
-137,672	-94,903	0,022	-0,004
-136,658	306,569	-0,063	-0,085
-135,643	166,966	-0,090	-0,091
-134,629	13,341	0,029	0,016
-133,614	800,000	-0,013	-0,038
-132,599	-141,197	0,136	0,010
-131,585	-91,959	0,163	0,033
-130,570	136,716	0,010	0,010
-129,556	-13,814	-0,081	-0,038
-128,541	-60,158	0,036	0,011
-127,526	-200,000	-0,017	0,071
-126,512	800,000	-0,043	-0,092
-125,497	-19,636	0,117	0,052
-124,483	-200,000	0,026	-0,100
-123,468	-47,756	-0,040	0,014
-122,453	63,857	-0,175	-0,126
-121,439	-130,247	-0,090	-0,009
-120,424	77,226	-0,066	0,050
-119,410	7,099	0,113	-0,060
-118,395	800,000	0,026	-0,066
-117,380	800,000	0,067	0,186
-116,366	-138,641	-0,052	-0,004
-115,351	-200,000	0,074	-0,244
-114,337	-84,656	0,081	-0,018
-113,322	-151,339	-0,041	-0,002
-112,307	800,000	-0,035	0,089
-111,293	-200,000	0,003	-0,087
-110,278	754,230	0,063	0,123
-109,264	800,000	-0,028	0,067
-108,249	-200,000	-0,003	0,143
-107,234	13,017	-0,057	0,032
-106,220	128,428	0,016	0,015
-105,205	16,828	0,070	-0,040
-104,191	-74,127	0,060	-0,016
-103,176	-107,645	0,062	-0,010
-102,162	385,656	0,041	0,061
-101,147	-21,561	-0,065	0,029
-100,132	800,000	-0,018	0,054
-99,118	-200,000	-0,003	0,074
-98,103	474,262	0,090	0,146
-97,089	-200,000	0,005	-0,045
-96,074	610,437	0,019	-0,035
-95,059	-200,000	0,037	-0,123
-94,045	112,370	-0,049	-0,042
-93,030	382,970	0,046	-0,068
-92,016	197,737	0,069	-0,075
-91,001	800,000	-0,037	0,079
-89,986	-6,597	0,016	-0,008
-88,972	332,134	0,085	0,118
-87,957	800,000	-0,041	-0,083
-86,943	-200,000	-0,011	0,055
-85,928	-7,833	-0,060	0,029
-84,913	-67,254	0,053	0,015
-83,899	-200,000	0,029	0,103
-82,884	476,473	0,079	0,129
-81,870	125,903	-0,051	0,046
-80,855	-107,691	0,119	0,018
-79,840	800,000	0,025	-0,076
-78,826	-33,527	0,129	-0,051
-77,811	18,436	0,071	0,040
-76,797	-73,758	-0,056	-0,015
-75,782	248,395	0,023	0,027
-74,767	84,150	0,077	0,060
-73,753	252,298	0,017	0,021
-72,738	-113,257	-0,074	-0,010
-71,724	-52,079	0,127	0,042
-70,709	76,640	-0,063	0,048
-69,694	-200,000	-0,018	-0,121
-68,680	-11,496	0,056	-0,026
-67,665	170,265	0,108	0,111
-66,651	278,812	0,095	0,122
-65,636	-63,607	0,087	-0,025
-64,622	-40,684	-0,176	-0,065
-63,607	-138,782	-0,092	-0,007
-62,592	90,558	0,069	0,056
-61,578	-179,456	0,028	-0,000
-60,563	-6,201	0,158	0,077
-59,549	-37,572	-0,143	0,054
-58,534	40,702	-2,039	-1,316
-57,519	-200,000	-0,056	-0,812
-56,505	-200,000	-1,303	-5,112
-55,490	72,590	0,889	0,664
-54,476	800,000	5,300	11,984
-53,461	-200,000	18,399	309,050
-52,446	800,000	739,080	2308,754
-51,432	554,626	1655,015	2865,417
-50,417	110,538	1639,859	1412,683
-49,403	74,669	1289,700	971,493
-48,388	30,486	1030,501	629,918
-47,373	20,017	992,725	572,205
-46,359	17,734	980,424	557,589
-45,344	14,365	976,558	544,313
-44,330	14,689	974,920	544,440
-43,315	14,114	973,097	541,517
-42,300	14,012	971,993	540,548
-41,286	13,989	971,219	540,022
-40,271	14,033	970,235	539,595
-39,257	14,039	969,499	539,186
-38,242	14,041	968,513	538,621
-37,227	14,010	967,590	537,986
-36,213	13,996	966,650	537,396
-35,198	13,962	965,840	536,815
-34,184	14,031	965,005	536,555
-33,169	13,957	964,124	535,804
-32,154	14,050	963,086	535,507
-31,140	14,083	962,153	535,073
-30,125	14,076	961,510	534,672
-29,111	13,982	960,841	533,974
-28,096	14,012	960,082	533,629
-27,082	14,063	959,495	533,445
-26,067	14,086	958,606	533,004
-25,052	14,037	957,755	532,351
-24,038	14,050	957,238	532,084
-23,023	14,015	956,691	531,646
-22,009	14,051	956,018	531,368
-20,994	13,987	955,217	530,694
-19,979	14,007	954,676	530,438
-18,965	14,043	954,035	530,178
-17,950	14,034	953,558	529,863
-16,936	14,006	952,889	529,380
-15,921	13,999	952,092	528,893
-14,906	13,973	951,357	528,379
-13,892	13,944	950,723	527,915
-12,877	13,859	950,215	527,339
-11,863	13,954	949,379	527,159
-10,848	13,919	948,973	526,802
-9,833	13,964	948,479	526,648
-8,819	13,971	947,947	526,354
-7,804	13,918	947,262	525,784
-6,790	13,889	946,664	525,339
-5,775	13,935	946,185	525,200
-4,760	13,974	945,461	524,902
-3,746	13,917	944,828	524,348
-2,731	13,782	944,278	523,594
-1,717	13,779	943,421	523,086
-0,702	13,766	942,829	522,699
0,313	13,534	942,345	522,482
1,327	16,891	939,837	531,653
2,342	26,023	795,296	474,112
3,356	22,603	460,303	269,140
4,371	-4,123	317,288	156,865
5,386	-7,967	299,138	143,954
6,400	-10,012	293,154	139,013
7,415	-10,487	290,563	137,301
8,429	-10,656	288,888	136,330
9,444	-10,866	288,104	135,742
10,459	-10,688	287,371	135,559
11,473	-10,781	286,767	135,171
12,488	-10,815	286,338	134,923
13,502	-10,800	285,760	134,653
14,517	-10,951	285,327	134,290
15,531	-10,864	284,825	134,127
16,546	-11,000	284,385	133,776
17,561	-10,983	283,949	133,575
18,575	-10,723	283,623	133,661
19,590	-10,916	283,278	133,300
20,604	-10,999	283,065	133,107
21,619	-11,142	282,716	132,793
22,634	-11,081	282,427	132,705
23,648	-11,068	281,984	132,497
24,663	-11,084	281,630	132,303
25,677	-11,142	281,419	132,137
26,692	-10,942	281,080	132,158
27,707	-11,011	280,921	132,006
28,721	-10,921	280,563	131,912
29,736	-10,841	280,187	131,800
30,750	-10,980	280,028	131,581
31,765	-10,997	279,710	131,403
32,780	-11,016	279,501	131,275
33,794	-11,122	279,298	131,067
34,809	-11,041	279,200	131,086
35,823	-11,113	278,814	130,825
36,838	-11,235	278,603	130,598
37,853	-11,151	278,372	130,558
38,867	-11,094	277,892	130,375
39,882	-11,006	277,843	130,424
40,896	-10,958	277,527	130,309
41,911	-10,929	277,226	130,184
42,926	-10,995	276,994	130,001
43,940	-11,067	276,708	129,788
44,955	-11,160	276,597	129,636
45,969	-11,151	276,240	129,466
46,984	-11,382	275,881	129,069
47,999	-11,529	275,708	128,838
49,013	-11,552	275,451	128,685
50,028	-11,826	275,226	128,311
51,042	-11,826	274,814	128,108
52,057	-11,897	274,626	127,942
53,071	-11,840	274,510	127,930
54,086	-11,652	274,310	128,002
55,101	-11,495	273,996	127,990
56,115	-11,393	273,968	128,061
57,130	-11,016	273,873	128,356
58,144	-10,801	273,579	128,408
59,159	-10,889	273,510	128,282
60,174	-10,778	273,239	128,246
61,188	-10,781	272,944	128,093
62,203	-10,856	272,631	127,865
63,217	-11,044	272,623	127,676
64,232	-11,133	272,445	127,499
65,247	-10,853	272,097	127,584
66,261	-10,989	271,883	127,347
67,276	-11,088	271,550	127,088
68,290	-11,220	271,241	126,809
69,305	-11,243	270,989	126,659
70,320	-11,190	270,940	126,675
71,334	-11,128	270,850	126,678
72,349	-10,931	270,585	126,724
73,363	-10,866	270,438	126,703
74,378	-10,841	270,166	126,588
75,393	-10,847	269,899	126,446
76,407	-10,870	269,681	126,311
77,422	-10,821	269,478	126,250
78,436	-10,793	269,236	126,151
79,451	-10,701	268,973	126,100
80,466	-11,128	268,771	125,605
81,480	-10,923	268,488	125,648
82,495	-11,178	268,363	125,345
83,509	-10,981	268,039	125,363
84,524	-11,141	267,838	125,112
85,539	-11,153	267,649	125,002
86,553	-11,098	267,430	124,938
87,568	-11,049	267,140	124,836
88,582	-11,060	267,014	124,757
89,597	-11,071	266,821	124,645
90,611	-10,982	266,816	124,712
91,626	-10,856	266,602	124,714
92,641	-10,894	266,314	124,534
93,655	-11,046	266,144	124,307
94,670	-11,172	266,006	124,117
95,684	-11,111	265,724	124,030
96,699	-10,953	265,418	124,018
97,714	-10,967	265,205	123,895
98,728	-11,181	265,031	123,610
99,743	-11,202	264,688	123,420
100,757	-11,277	264,549	123,277
101,772	-11,318	264,389	123,155
102,787	-11,147	264,142	123,182
103,801	-11,039	263,971	123,188
104,816	-10,852	263,892	123,308
105,830	-10,767	263,705	123,285
106,845	-10,753	263,408	123,148
107,860	-10,850	263,272	122,987
108,874	-10,912	263,088	122,835
109,889	-10,745	262,755	122,817
110,903	-10,984	262,667	122,552
111,918	-10,959	262,481	122,476
112,933	-10,857	262,213	122,431
113,947	-10,903	262,164	122,356
114,962	-10,824	261,836	122,263
115,976	-10,812	261,662	122,181
116,991	-10,809	261,340	122,023
118,006	-10,947	261,370	121,904
119,020	-10,878	261,288	121,915
120,035	-10,771	260,994	121,862
121,049	-10,790	260,993	121,834
122,064	-10,700	260,492	121,668
123,079	-10,809	260,380	121,509
124,093	-11,047	260,156	121,184
125,108	-10,904	259,882	121,171
126,122	-11,275	259,725	120,762
127,137	-11,390	259,352	120,476
128,151	-11,201	259,299	120,607
129,166	-11,148	259,092	120,547
130,181	-11,116	258,872	120,461
131,195	-11,115	258,765	120,401
132,210	-11,104	258,507	120,280
133,224	-10,814	258,383	120,465
134,239	-10,694	258,197	120,473
135,254	-10,863	257,909	120,180
136,268	-10,869	257,767	120,098
137,283	-11,107	257,523	119,767
138,297	-11,364	257,398	119,474
139,312	-11,276	257,081	119,393
140,327	-10,937	257,106	119,688
141,341	-10,758	256,919	119,745
142,356	-10,943	256,897	119,565
143,370	-10,558	256,638	119,767
144,385	-10,579	256,339	119,599
145,400	-10,624	256,137	119,454
146,414	-10,849	256,028	119,198
147,429	-10,648	255,726	119,221
148,443	-10,690	255,635	119,132
149,458	-10,496	255,438	119,197
150,473	-10,698	255,376	118,983
151,487	-10,592	254,981	118,879
152,502	-10,886	255,048	118,647
153,516	-10,828	254,680	118,516
154,531	-10,791	254,464	118,436
155,546	-10,774	254,356	118,390
156,560	-10,784	254,216	118,306
157,575	-10,933	254,070	118,099
158,589	-10,695	253,706	118,123
159,604	-10,626	253,510	118,080
160,619	-10,457	253,231	118,084
161,633	-10,867	253,197	117,708
162,648	-10,621	253,036	117,832
163,662	-10,632	253,022	117,806
164,677	-10,631	252,808	117,696
165,692	-10,665	252,643	117,580
166,706	-10,560	252,390	117,541
167,721	-10,609	252,219	117,410
168,735	-10,743	252,128	117,243
169,750	-10,539	251,949	117,322
170,764	-10,490	251,901	117,331
171,779	-10,450	251,613	117,220
172,794	-10,587	251,548	117,064
173,808	-10,570	251,143	116,879
174,823	-11,006	250,963	116,416
175,837	-11,299	250,840	116,101
176,852	-10,747	250,764	116,522
177,867	-10,808	250,590	116,379
178,881	-10,710	250,494	116,407
179,896	-10,572	250,246	116,397
180,910	-10,461	250,013	116,372
181,925	-10,499	249,846	116,252
182,940	-10,513	249,665	116,146
183,954	-10,491	249,552	116,102
184,969	-10,683	249,441	115,878
185,983	-10,606	249,242	115,840
186,998	-10,550	249,131	115,825
188,013	-10,483	248,988	115,804
189,027	-10,717	248,740	115,483
190,042	-10,596	248,506	115,465
191,056	-10,442	248,299	115,487
192,071	-10,349	248,112	115,468
193,086	-10,299	248,034	115,462
194,100	-10,463	247,872	115,240
195,115	-10,425	247,691	115,177
196,129	-10,448	247,349	114,989
197,144	-10,499	247,360	114,941
198,159	-10,628	246,990	114,653
199,173	-10,630	246,830	114,566
200,188	-10,583	246,786	114,574
201,202	-10,809	246,385	114,190
202,217	-10,966	246,045	113,894
203,232	-11,042	245,850	113,730
204,246	-10,678	245,914	114,050
205,261	-9,942	245,901	114,642
206,275	-10,467	245,875	114,186
207,290	-5,320	247,739	119,321
208,304	1,948	250,045	126,499
209,319	4,542	250,587	128,928
210,334	4,963	250,531	129,239
211,348	5,041	250,547	129,302
212,363	5,296	250,404	129,428
213,377	5,123	250,237	129,186
214,392	5,216	250,144	129,204
215,407	5,128	249,833	128,959
216,421	5,004	249,771	128,813
217,436	5,223	249,772	128,983
218,450	5,441	249,371	128,946
219,465	5,001	249,361	128,564
220,480	4,809	249,015	128,215
221,494	5,111	248,852	128,370
222,509	5,079	248,658	128,232
223,523	4,868	248,560	127,995
224,538	4,520	248,210	127,517
225,553	4,611	248,244	127,597
226,567	4,965	248,063	127,785
227,582	4,771	247,945	127,553
228,596	4,784	247,802	127,479
229,611	4,435	247,519	127,035
230,626	4,283	247,192	126,731
231,640	4,559	246,966	126,830
232,655	4,685	246,875	126,876
233,669	4,577	246,632	126,651
234,684	4,318	246,622	126,422
235,699	4,871	246,568	126,836
236,713	4,893	246,582	126,850
237,728	4,605	246,158	126,385
238,742	4,489	246,015	126,206
239,757	4,206	245,841	125,874
240,772	4,549	245,664	126,052
241,786	4,565	245,588	126,015
242,801	4,424	245,289	125,735
243,815	4,509	245,185	125,740
244,830	4,646	245,074	125,783
245,844	4,564	245,102	125,720
246,859	4,548	244,783	125,532
247,874	4,331	244,600	125,250
248,888	4,589	244,421	125,357
249,903	4,754	244,276	125,405
250,917	4,673	244,059	125,217
251,932	4,810	244,210	125,395
252,947	4,903	243,776	125,235
253,961	4,447	243,682	124,807
254,976	4,916	243,499	125,081
255,990	4,628	243,385	124,779
257,005	4,554	243,038	124,531
258,020	4,636	242,957	124,544
259,034	4,626	242,830	124,461
260,049	4,563	242,752	124,358
261,063	4,478	242,442	124,120
262,078	4,281	242,321	123,888
263,093	4,630	242,410	124,204
264,107	4,809	242,205	124,231
265,122	4,564	241,961	123,898
266,136	4,681	241,864	123,931
267,151	4,861	241,661	123,960
268,166	4,636	241,367	123,619
269,180	4,390	241,204	123,327
270,195	4,778	241,217	123,633
271,209	5,078	241,252	123,880
272,224	4,745	240,767	123,355
273,239	4,195	240,512	122,775
274,253	4,353	240,503	122,885
275,268	4,526	240,383	122,950
276,282	4,749	240,069	122,956
277,297	4,370	240,027	122,622
278,312	4,437	239,877	122,588
279,326	4,785	239,757	122,792
280,341	4,417	239,752	122,487
281,355	4,475	239,609	122,448
282,370	4,896	239,341	122,634
283,384	4,749	239,103	122,385
284,399	4,479	239,016	122,116
285,414	4,213	238,867	121,818
286,428	4,482	238,664	121,916
287,443	4,505	238,473	121,826
288,457	4,677	238,563	121,997
289,472	4,854	238,315	121,999
290,487	4,548	238,109	121,642
291,501	4,431	237,873	121,418
292,516	4,123	237,741	121,098
293,530	4,158	237,640	121,063
294,545	4,636	237,756	121,487
295,560	4,662	237,424	121,327
296,574	4,438	237,129	120,990
297,589	4,505	237,081	121,007
298,603	4,912	236,920	121,233
299,618	4,720	236,796	121,008
300,633	4,600	236,643	120,825
301,647	4,913	236,536	121,005
302,662	5,145	236,517	121,165
303,676	4,843	236,375	120,846
304,691	4,828	236,103	120,684
305,706	5,141	235,897	120,812
306,720	4,785	235,951	120,552
307,735	4,857	235,616	120,426
308,749	4,692	235,314	120,132
309,764	4,560	235,252	119,988
310,779	4,479	234,984	119,777
311,793	4,183	234,700	119,393
312,808	3,977	234,812	119,279
313,822	4,149	234,437	119,211
314,837	4,481	234,425	119,452
315,852	4,657	234,364	119,546
316,866	4,687	234,341	119,547
317,881	4,888	234,200	119,619
318,895	4,721	233,975	119,365
319,910	4,854	233,917	119,427
320,925	4,871	233,520	119,227
321,939	4,343	233,433	118,766
322,954	4,596	233,409	118,937
323,968	4,476	233,174	118,715
324,983	4,467	233,071	118,645
325,997	5,015	233,090	119,065
327,012	4,920	232,756	118,811
328,027	4,827	232,514	118,605
329,041	5,091	232,521	118,801
330,056	5,457	232,568	119,094
331,070	5,280	232,398	118,861
332,085	4,948	232,162	118,477
333,100	4,995	231,853	118,345
334,114	4,649	231,746	118,015
335,129	4,843	231,782	118,171
336,143	5,114	231,592	118,270
337,158	5,068	231,394	118,123
338,173	4,737	231,168	117,745
339,187	4,735	230,958	117,627
340,202	4,776	230,968	117,652
341,216	4,741	230,774	117,516
342,231	4,740	230,508	117,370
343,246	4,560	230,388	117,162
344,260	4,830	230,390	117,357
345,275	4,973	230,281	117,399
346,289	5,065	230,129	117,381
347,304	4,975	230,042	117,258
348,319	4,968	229,772	117,104
349,333	4,859	229,582	116,915
350,348	4,646	229,389	116,646
351,362	4,690	229,168	116,556
352,377	4,349	229,043	116,225
353,392	4,302	228,974	116,144
354,406	4,299	228,752	116,019
355,421	195,712	1319,262	1394,632
356,435	156,982	1452,096	1394,601
