DTS Sentinel unit serial number:	SN410029Multiplexer serial number:	ORYXHardware model number:	OX2-SRSoftware version number:	ORYX F/W v4,00 Oryx Data Collector v3.7.2.0data status	okinstallation	B5 Nyhavnadifferential loss correction	single-endedforward channel	channel 2reverse channel	N/Adate	2023/12/14time	15:12:13forward acquisition time	300,00reverse acquisition time	0,00gamma	499,1914k internal	0,3157k external	0,3157temperature offset calibration	1,0000default loss term (dB/km)	0,3820temperature slope calibration	1,0000multiplexer offset coefficient	1,0000multiplexer slope coefficient	1,0000fibre end	0,00T internal ref (°C)	7,92T ext. ref 1 (°C)	-8,24T ext. ref 2 (°C)	-8,29length (m)	temperature (°C)	Stokes	anti-Stokes-744,400	76,747	0,166	0,130
-743,385	-33,997	-0,258	-0,104
-742,371	800,000	0,074	0,159
-741,356	-97,145	-0,367	-0,070
-740,342	41,355	0,076	0,050
-739,327	-101,366	-0,283	-0,050
-738,312	-27,792	0,045	-0,019
-737,298	-48,815	-0,496	-0,174
-736,283	-171,715	0,083	-0,002
-735,269	-52,299	-0,251	-0,085
-734,254	233,032	0,163	0,198
-733,239	-41,175	-0,518	-0,196
-732,225	-116,306	0,224	0,030
-731,210	-200,000	0,019	0,117
-730,196	260,945	-0,009	-0,011
-729,181	-20,790	-0,140	-0,063
-728,167	-200,000	-0,013	-0,059
-727,152	-11,284	0,057	0,027
-726,137	-116,896	-0,164	0,022
-725,123	-37,690	0,038	0,015
-724,108	-200,000	0,015	-0,093
-723,094	-81,843	-0,177	0,042
-722,079	-200,000	0,035	-0,128
-721,064	-200,000	0,010	-0,080
-720,050	-172,760	-0,114	0,003
-719,035	-37,775	-0,093	-0,036
-718,021	-200,000	-0,050	-0,177
-717,006	381,748	-0,096	-0,146
-715,991	-44,824	-0,165	-0,060
-714,977	-200,000	-0,008	0,027
-713,962	-200,000	-0,002	0,019
-712,948	-73,378	-0,106	0,028
-711,933	-200,000	0,040	-0,153
-710,918	96,559	-0,064	-0,054
-709,904	-190,146	0,086	-0,001
-708,889	-159,945	0,127	0,005
-707,875	-95,425	-0,166	0,032
-706,860	319,420	-0,077	-0,107
-705,845	14,840	0,045	0,026
-704,831	226,890	-0,025	0,030
-703,816	-169,715	-0,068	-0,002
-702,802	-200,000	0,001	0,073
-701,787	188,941	0,064	-0,071
-700,772	-200,000	-0,014	-0,069
-699,758	693,600	-0,071	-0,138
-698,743	163,173	-0,128	0,133
-697,729	11,368	0,084	0,047
-696,714	262,858	-0,085	-0,108
-695,699	131,660	0,064	0,060
-694,685	800,000	0,055	-0,124
-693,670	407,912	-0,057	-0,088
-692,656	139,217	0,103	-0,099
-691,641	256,463	0,038	0,049
-690,627	-200,000	0,006	0,107
-689,612	339,936	-0,109	0,156
-688,597	-179,898	-0,067	0,001
-687,583	-200,000	0,012	-0,102
-686,568	-200,000	-0,012	-0,059
-685,554	-35,222	-0,057	0,023
-684,539	12,679	0,058	-0,033
-683,524	140,003	0,114	0,111
-682,510	-64,417	-0,082	0,024
-681,495	-113,934	-0,051	0,007
-680,481	-193,346	-0,076	-0,000
-679,466	783,038	-0,071	-0,143
-678,451	-200,000	-0,038	0,184
-677,437	214,157	0,048	-0,056
-676,422	-91,828	-0,044	0,009
-675,408	792,207	-0,098	0,199
-674,393	-119,246	0,101	-0,013
-673,378	89,231	0,025	0,020
-672,364	25,884	-0,083	-0,051
-671,349	6,077	-0,046	-0,025
-670,335	-87,112	0,047	0,010
-669,320	-50,226	-0,092	0,032
-668,305	37,631	0,081	-0,053
-667,291	-62,614	-0,023	0,007
-666,276	800,000	-0,065	-0,181
-665,262	-106,848	-0,102	-0,016
-664,247	378,199	-0,020	0,030
-663,232	413,930	0,024	0,037
-662,218	429,247	0,047	-0,074
-661,203	238,497	0,055	0,067
-660,189	-200,000	0,011	0,143
-659,174	252,275	-0,059	-0,073
-658,159	-200,000	-0,021	0,121
-657,145	-180,198	0,088	-0,001
-656,130	124,350	0,020	0,018
-655,116	-84,024	-0,079	0,018
-654,101	489,473	-0,059	0,100
-653,086	-70,838	-0,046	0,013
-652,072	-33,391	-0,027	-0,011
-651,057	-36,342	-0,127	-0,050
-650,043	0,952	-0,054	-0,028
-649,028	800,000	0,028	-0,073
-648,014	-8,235	0,099	0,049
-646,999	180,951	0,056	0,060
-645,984	7,434	-0,092	-0,050
-644,970	800,000	0,092	0,191
-643,955	4,783	-0,088	0,047
-642,941	-95,695	0,050	-0,010
-641,926	-131,563	0,093	-0,009
-640,911	-196,390	-0,126	0,001
-639,897	-24,358	0,074	-0,032
-638,882	84,878	-0,056	0,045
-637,868	-200,000	-0,022	-0,076
-636,853	42,406	-0,040	0,027
-635,838	-200,000	-0,012	0,092
-634,824	290,906	0,024	0,032
-633,809	-2,424	0,050	0,025
-632,795	287,548	0,059	-0,079
-631,780	-200,000	0,006	0,102
-630,765	-200,000	0,011	0,037
-629,751	-200,000	0,008	-0,106
-628,736	800,000	-0,028	-0,088
-627,722	133,349	0,025	0,024
-626,707	-200,000	0,009	0,083
-625,692	-200,000	-0,012	0,063
-624,678	-86,095	0,095	-0,021
-623,663	-115,081	0,070	0,010
-622,649	189,457	-0,065	-0,072
-621,634	87,227	0,031	-0,025
-620,619	-62,168	0,095	-0,029
-619,605	107,382	-0,037	0,032
-618,590	800,000	0,048	0,149
-617,576	-200,000	-0,006	0,037
-616,561	-200,000	-0,007	-0,034
-615,546	140,628	-0,097	-0,094
-614,532	172,791	0,037	0,039
-613,517	35,885	-0,099	-0,064
-612,503	244,691	-0,087	0,107
-611,488	-200,000	-0,039	-0,139
-610,474	-78,915	0,086	-0,021
-609,459	533,905	0,075	0,132
-608,444	800,000	0,010	-0,022
-607,430	-141,625	-0,151	0,011
-606,415	105,992	-0,080	-0,069
-605,401	-24,439	0,108	0,047
-604,386	800,000	0,036	0,113
-603,371	4,920	-0,031	0,016
-602,357	85,882	-0,042	0,034
-601,342	517,814	-0,068	0,117
-600,328	-85,514	-0,187	0,042
-599,313	-200,000	-0,023	-0,135
-598,298	523,172	0,041	-0,070
-597,284	-200,000	-0,031	0,122
-596,269	800,000	-0,069	0,172
-595,255	-0,224	-0,173	0,090
-594,240	800,000	0,058	-0,138
-593,225	540,540	-0,066	-0,116
-592,211	-129,311	-0,289	-0,029
-591,196	-12,604	0,042	0,020
-590,182	246,182	-0,057	0,070
-589,167	664,734	0,095	0,180
-588,152	-46,208	-0,040	-0,014
-587,138	213,321	-0,038	0,044
-586,123	179,555	-0,015	-0,016
-585,109	283,859	-0,076	-0,100
-584,094	418,770	-0,040	-0,064
-583,079	31,468	0,049	-0,031
-582,065	647,857	-0,003	-0,007
-581,050	-68,635	0,104	0,029
-580,036	108,474	-0,038	0,033
-579,021	113,263	0,049	-0,043
-578,006	-24,492	-0,103	-0,045
-576,992	122,390	-0,074	0,068
-575,977	-200,000	0,018	0,140
-574,963	-200,000	0,019	0,129
-573,948	29,321	0,028	-0,017
-572,934	-200,000	-0,019	-0,075
-571,919	473,708	-0,009	0,015
-570,904	161,406	0,039	-0,040
-569,890	136,865	-0,044	0,042
-568,875	12,097	0,056	0,031
-567,861	-27,408	0,027	-0,011
-566,846	-104,684	-0,041	0,007
-565,831	-200,000	-0,007	-0,036
-564,817	-46,715	-0,121	-0,043
-563,802	163,227	0,044	-0,046
-562,788	303,867	-0,092	-0,126
-561,773	128,115	0,017	-0,016
-560,758	-200,000	-0,041	0,149
-559,744	-200,000	-0,017	-0,116
-558,729	53,903	0,071	-0,050
-557,715	-53,706	0,037	-0,012
-556,700	80,800	-0,027	-0,021
-555,685	-200,000	-0,035	-0,211
-554,671	-16,525	-0,050	-0,023
-553,656	199,802	0,103	0,116
-552,642	800,000	0,042	0,098
-551,627	-127,953	-0,020	-0,002
-550,612	43,193	0,068	-0,046
-549,598	-200,000	0,019	0,071
-548,583	-200,000	-0,006	0,086
-547,569	-139,354	-0,080	-0,006
-546,554	159,361	0,132	-0,135
-545,539	-52,531	-0,097	-0,033
-544,525	226,849	0,068	0,081
-543,510	-111,803	-0,154	0,023
-542,496	-29,399	0,138	-0,058
-541,481	306,251	-0,028	0,039
-540,466	-52,885	0,120	0,040
-539,452	-106,674	0,058	-0,009
-538,437	72,022	0,017	-0,013
-537,423	-200,000	0,001	0,074
-536,408	800,000	-0,006	0,014
-535,393	129,262	-0,071	0,066
-534,379	-8,013	-0,024	-0,012
-533,364	39,740	0,071	-0,046
-532,350	-112,216	-0,099	-0,014
-531,335	189,143	0,040	0,044
-530,321	25,470	-0,088	0,053
-529,306	341,929	-0,082	-0,117
-528,291	800,000	0,015	0,039
-527,277	-200,000	-0,026	-0,153
-526,262	386,427	0,038	0,057
-525,248	-200,000	-0,007	-0,066
-524,233	109,136	-0,084	-0,073
-523,218	-13,651	0,137	-0,065
-522,204	-200,000	-0,011	-0,037
-521,189	-200,000	-0,012	-0,144
-520,175	-65,674	0,116	-0,034
-519,160	-109,808	0,164	-0,025
-518,145	181,685	0,023	0,025
-517,131	800,000	0,029	-0,067
-516,116	-200,000	-0,011	0,039
-515,102	800,000	-0,051	0,142
-514,087	93,829	0,051	-0,043
-513,072	-200,000	-0,011	-0,171
-512,058	395,161	0,028	-0,042
-511,043	84,631	0,145	0,116
-510,029	-141,707	-0,042	-0,003
-509,014	563,401	0,058	0,103
-507,999	-119,333	-0,100	0,013
-506,985	-83,830	-0,110	0,025
-505,970	606,557	0,097	-0,178
-504,956	71,904	-0,082	-0,063
-503,941	-32,509	0,055	0,022
-502,926	800,000	0,031	0,087
-501,912	-200,000	-0,004	0,017
-500,897	-16,876	0,048	-0,022
-499,883	-26,419	-0,105	-0,045
-498,868	800,000	0,009	-0,018
-497,853	-168,271	-0,166	-0,005
-496,839	800,000	0,009	0,022
-495,824	47,426	0,095	0,065
-494,810	-50,740	0,094	-0,032
-493,795	-200,000	-0,041	0,137
-492,781	306,207	-0,037	-0,050
-491,766	-200,000	0,023	-0,083
-490,751	-200,000	0,019	-0,075
-489,737	-200,000	0,032	0,122
-488,722	-69,095	-0,118	-0,033
-487,708	-79,285	0,072	0,018
-486,693	72,133	0,028	0,022
-485,678	-200,000	0,025	-0,095
-484,664	110,253	-0,056	0,049
-483,649	-200,000	0,004	-0,094
-482,635	-113,762	-0,117	-0,016
-481,620	782,280	0,038	0,077
-480,605	736,546	0,057	0,113
-479,591	566,089	0,041	0,073
-478,576	13,888	-0,071	0,040
-477,562	-64,344	-0,110	-0,032
-476,547	-200,000	-0,007	-0,030
-475,532	-95,508	0,144	-0,028
-474,518	162,115	-0,054	0,055
-473,503	-43,593	0,166	0,061
-472,489	-200,000	0,007	-0,042
-471,474	20,072	-0,057	-0,034
-470,459	756,727	-0,067	-0,132
-469,445	-200,000	-0,004	-0,030
-468,430	414,499	0,030	0,047
-467,416	195,904	0,041	-0,045
-466,401	-200,000	-0,014	-0,073
-465,386	684,449	0,064	0,123
-464,372	-200,000	-0,007	0,071
-463,357	498,994	-0,085	-0,144
-462,343	-200,000	0,002	0,090
-461,328	-200,000	-0,002	-0,259
-460,313	179,073	0,038	0,040
-459,299	800,000	0,041	0,116
-458,284	176,078	-0,138	0,146
-457,270	-175,618	0,086	-0,002
-456,255	295,662	-0,072	0,097
-455,241	-12,227	-0,047	0,022
-454,226	38,010	0,072	-0,047
-453,211	-170,102	0,049	0,001
-452,197	-11,389	0,095	0,046
-451,182	-108,670	-0,081	-0,012
-450,168	-73,995	0,068	-0,018
-449,153	-122,525	0,071	0,008
-448,138	50,081	-0,065	-0,045
-447,124	241,431	0,037	-0,045
-446,109	-200,000	0,035	0,125
-445,095	85,610	0,036	-0,029
-444,080	-200,000	0,034	-0,114
-443,065	140,632	-0,062	0,059
-442,051	-19,941	0,086	0,039
-441,036	-58,951	-0,048	-0,015
-440,022	61,614	-0,100	0,073
-439,007	-114,595	-0,135	0,019
-437,992	-107,881	0,190	0,030
-436,978	-200,000	0,004	0,044
-435,963	388,236	-0,057	0,086
-434,949	-200,000	0,007	-0,034
-433,934	800,000	0,073	-0,160
-432,919	-200,000	0,002	-0,140
-431,905	43,075	-0,093	-0,061
-430,890	56,197	-0,083	-0,059
-429,876	800,000	0,009	0,023
-428,861	-137,938	-0,048	-0,004
-427,846	-200,000	-0,002	-0,028
-426,832	-200,000	-0,018	-0,074
-425,817	800,000	-0,033	-0,074
-424,803	800,000	-0,042	0,129
-423,788	96,207	0,073	-0,060
-422,773	-66,597	0,111	-0,032
-421,759	287,405	0,092	-0,122
-420,744	462,514	-0,074	-0,120
-419,730	654,269	-0,061	-0,115
-418,715	-54,622	-0,076	-0,025
-417,701	800,000	-0,042	-0,096
-416,686	-200,000	0,044	-0,164
-415,671	696,435	-0,026	-0,049
-414,657	93,731	0,055	0,046
-413,642	393,080	0,060	0,091
-412,628	-185,710	0,116	-0,001
-411,613	38,156	0,135	0,087
-410,598	19,414	-0,004	-0,002
-409,584	-200,000	0,016	-0,075
-408,569	800,000	-0,025	0,065
-407,555	800,000	0,059	0,142
-406,540	-200,000	0,009	0,092
-405,525	-119,506	-0,078	0,010
-404,511	572,291	-0,062	-0,110
-403,496	-200,000	0,009	-0,067
-402,482	560,855	-0,028	0,050
-401,467	16,057	0,036	0,021
-400,452	-200,000	-0,008	0,131
-399,438	-161,128	0,135	0,005
-398,423	-8,616	-0,118	-0,057
-397,409	294,354	-0,016	0,021
-396,394	800,000	-0,046	-0,136
-395,379	-110,699	0,006	-0,001
-394,365	-41,390	0,045	-0,017
-393,350	-200,000	-0,016	0,102
-392,336	-200,000	-0,011	0,124
-391,321	568,600	-0,054	-0,096
-390,306	203,119	0,079	-0,089
-389,292	-60,814	0,058	0,018
-388,277	-116,584	0,084	-0,011
-387,263	331,552	0,029	0,041
-386,248	-200,000	-0,029	0,096
-385,233	578,574	-0,008	0,015
-384,219	-200,000	-0,008	0,072
-383,204	800,000	0,028	-0,058
-382,190	-44,968	-0,062	-0,023
-381,175	-200,000	-0,028	0,169
-380,160	186,601	0,049	0,053
-379,146	75,459	0,055	0,042
-378,131	800,000	-0,032	0,066
-377,117	800,000	-0,027	-0,060
-376,102	-121,224	-0,059	-0,007
-375,088	-62,871	-0,103	-0,031
-374,073	-21,163	0,149	0,066
-373,058	70,089	0,067	0,050
-372,044	800,000	0,039	0,091
-371,029	30,599	-0,043	-0,027
-370,015	-200,000	0,002	-0,051
-369,000	-82,226	-0,192	0,045
-367,985	384,354	0,027	-0,040
-366,971	-86,754	-0,173	-0,038
-365,956	59,342	-0,041	0,029
-364,942	800,000	0,031	0,088
-363,927	-16,474	-0,053	0,024
-362,912	-200,000	0,031	-0,120
-361,898	-200,000	0,003	0,015
-360,883	-157,104	-0,137	-0,006
-359,869	-69,671	-0,035	-0,010
-358,854	29,984	0,052	-0,032
-357,839	172,887	0,099	0,103
-356,825	279,204	-0,128	-0,166
-355,810	-47,472	-0,039	-0,014
-354,796	-150,704	-0,035	0,002
-353,781	-126,745	0,109	-0,012
-352,766	-134,915	0,176	-0,015
-351,752	800,000	0,034	0,099
-350,737	-100,315	0,120	0,021
-349,723	442,494	0,036	-0,058
-348,708	34,486	0,139	-0,088
-347,693	-114,107	0,057	-0,008
-346,679	800,000	0,033	-0,102
-345,664	559,085	-0,038	-0,067
-344,650	354,045	-0,064	-0,092
-343,635	-200,000	0,024	-0,094
-342,620	23,388	-0,036	0,022
-341,606	764,941	-0,070	0,138
-340,591	486,232	-0,008	0,013
-339,577	-11,135	-0,070	-0,033
-338,562	48,627	0,085	-0,058
-337,548	-79,375	-0,026	-0,006
-336,533	800,000	-0,028	0,081
-335,518	800,000	0,019	0,044
-334,504	194,861	-0,053	0,059
-333,489	-94,195	0,066	0,013
-332,475	61,811	-0,020	-0,015
-331,460	69,879	0,073	-0,054
-330,445	-123,426	-0,143	0,016
-329,431	800,000	-0,033	0,072
-328,416	800,000	0,027	-0,054
-327,402	42,745	-0,060	0,040
-326,387	-64,427	0,126	0,037
-325,372	644,350	0,014	-0,026
-324,358	493,788	-0,042	0,070
-323,343	473,685	-0,033	-0,055
-322,329	594,941	0,037	0,067
-321,314	258,018	0,016	0,020
-320,299	-200,000	0,017	-0,076
-319,285	390,612	0,072	-0,108
-318,270	-93,257	0,025	-0,005
-317,256	-200,000	0,001	-0,051
-316,241	-101,693	-0,077	0,013
-315,226	-5,886	0,035	-0,017
-314,212	800,000	0,032	0,066
-313,197	160,912	-0,023	0,023
-312,183	-200,000	-0,024	0,093
-311,168	242,030	0,054	-0,065
-310,153	-163,230	-0,112	-0,004
-309,139	-112,591	-0,046	-0,007
-308,124	94,920	0,125	0,103
-307,110	-200,000	0,000	0,029
-306,095	277,983	-0,057	0,074
-305,080	7,961	-0,100	-0,054
-304,066	190,865	0,035	0,038
-303,051	450,459	-0,064	-0,103
-302,037	107,273	-0,027	-0,023
-301,022	19,948	0,035	0,020
-300,008	-124,928	-0,178	-0,020
-298,993	-129,339	-0,035	0,004
-297,978	-73,336	-0,047	0,012
-296,964	171,827	0,100	-0,104
-295,949	-200,000	0,006	-0,105
-294,935	-200,000	-0,015	0,072
-293,920	-200,000	-0,001	-0,070
-292,905	-200,000	-0,008	0,116
-291,891	129,978	0,025	-0,023
-290,876	-51,566	-0,101	0,034
-289,862	232,580	0,025	-0,030
-288,847	-48,891	-0,070	-0,024
-287,832	-200,000	-0,001	0,021
-286,818	21,690	0,087	-0,051
-285,803	-2,327	0,191	0,097
-284,789	-200,000	0,008	-0,168
-283,774	-60,541	0,039	-0,012
-282,759	-86,567	-0,023	-0,005
-281,745	-200,000	0,053	-0,183
-280,730	-47,661	0,060	-0,021
-279,716	86,038	0,117	-0,093
-278,701	-6,621	0,095	0,047
-277,686	-200,000	-0,008	-0,046
-276,672	800,000	0,058	-0,127
-275,657	800,000	0,026	0,071
-274,643	-200,000	0,006	0,045
-273,628	624,195	-0,026	-0,047
-272,613	268,549	0,067	0,085
-271,599	-112,257	-0,024	-0,003
-270,584	-11,794	0,066	-0,031
-269,570	-46,977	-0,059	-0,021
-268,555	163,050	0,008	0,008
-267,540	-8,422	-0,062	-0,030
-266,526	-200,000	0,036	-0,194
-265,511	-43,652	-0,124	0,045
-264,497	-200,000	-0,016	0,086
-263,482	-102,169	0,172	-0,030
-262,467	57,640	-0,082	0,058
-261,453	583,386	0,099	0,177
-260,438	800,000	0,086	0,206
-259,424	-200,000	0,012	0,048
-258,409	-37,333	-0,078	-0,030
-257,395	-104,590	-0,026	0,004
-256,380	-200,000	-0,026	-0,099
-255,365	-62,073	0,076	0,023
-254,351	-200,000	-0,009	-0,075
-253,336	35,096	-0,101	-0,064
-252,322	19,003	-0,048	-0,028
-251,307	351,248	-0,131	-0,188
-250,292	61,726	-0,114	-0,082
-249,278	-102,998	0,185	0,031
-248,263	-128,868	-0,038	-0,004
-247,249	-200,000	-0,003	-0,054
-246,234	800,000	-0,057	0,119
-245,219	800,000	-0,081	-0,194
-244,205	-200,000	-0,014	0,066
-243,190	-44,638	0,042	-0,015
-242,176	-200,000	-0,009	-0,119
-241,161	-200,000	0,007	-0,146
-240,146	800,000	-0,040	-0,089
-239,132	111,310	0,069	0,060
-238,117	4,766	-0,057	-0,030
-237,103	668,036	-0,064	0,121
-236,088	147,490	-0,014	-0,013
-235,073	543,222	0,031	0,054
-234,059	32,306	0,023	0,014
-233,044	125,427	0,072	0,065
-232,030	550,479	-0,025	-0,043
-231,015	-200,000	-0,026	-0,140
-230,000	-16,708	-0,131	0,060
-228,986	-200,000	0,017	0,155
-227,971	165,604	0,085	-0,087
-226,957	-62,996	0,125	0,037
-225,942	19,571	0,064	0,037
-224,927	210,396	-0,035	0,040
-223,913	231,595	-0,061	-0,072
-222,898	-200,000	-0,014	0,114
-221,884	172,435	-0,042	-0,043
-220,869	-118,137	-0,102	0,013
-219,855	122,966	0,044	0,040
-218,840	800,000	-0,057	0,173
-217,825	-57,579	-0,084	0,026
-216,811	-152,713	-0,006	0,000
-215,796	415,523	-0,030	-0,046
-214,782	-200,000	0,012	-0,094
-213,767	-50,378	-0,106	-0,036
-212,752	81,645	0,098	-0,076
-211,738	-200,000	0,002	-0,119
-210,723	5,218	-0,080	0,042
-209,709	800,000	0,054	0,129
-208,694	275,425	-0,078	0,100
-207,679	-200,000	-0,004	0,034
-206,665	199,587	-0,041	-0,045
-205,650	-89,918	0,032	0,007
-204,636	-200,000	0,009	-0,082
-203,621	167,484	-0,052	0,053
-202,606	800,000	0,042	-0,130
-201,592	-132,314	-0,091	0,008
-200,577	470,203	0,030	-0,049
-199,563	-200,000	0,004	0,054
-198,548	385,323	0,087	0,130
-197,533	-7,679	0,014	-0,007
-196,519	-39,189	0,015	0,006
-195,504	116,247	0,054	0,048
-194,490	-73,214	0,071	0,019
-193,475	40,012	0,081	0,053
-192,460	4,107	0,044	-0,023
-191,446	-48,238	0,093	0,032
-190,431	41,130	0,114	0,074
-189,417	-200,000	0,035	0,140
-188,402	193,729	-0,054	-0,060
-187,387	-11,814	-0,025	-0,012
-186,373	209,102	-0,096	-0,109
-185,358	-145,032	0,180	0,012
-184,344	651,912	-0,056	0,103
-183,329	231,266	-0,079	0,094
-182,315	-2,517	0,111	0,056
-181,300	-128,250	-0,155	0,016
-180,285	447,818	0,126	0,201
-179,271	-200,000	0,030	-0,169
-178,256	-86,417	-0,116	0,025
-177,242	-200,000	0,013	0,165
-176,227	-200,000	0,001	-0,037
-175,212	219,293	0,081	0,093
-174,198	-200,000	-0,003	0,091
-173,183	200,414	-0,028	-0,031
-172,169	-200,000	-0,017	0,057
-171,154	80,785	0,108	-0,084
-170,139	-101,823	0,070	-0,012
-169,125	-134,717	0,099	-0,009
-168,110	-9,602	-0,114	-0,055
-167,096	-200,000	0,010	0,058
-166,081	486,061	0,027	0,044
-165,066	-189,072	-0,136	0,001
-164,052	-164,878	0,081	0,003
-163,037	-46,236	0,085	-0,030
-162,023	229,853	0,099	-0,116
-161,008	-200,000	0,007	-0,071
-159,993	-182,053	-0,051	-0,001
-158,979	-200,000	-0,028	0,115
-157,964	-19,258	0,037	0,017
-156,950	-159,616	-0,056	-0,002
-155,935	-70,415	-0,057	-0,016
-154,920	-127,601	-0,054	-0,006
-153,906	27,175	-0,049	-0,030
-152,891	800,000	-0,035	0,096
-151,877	189,274	-0,015	-0,016
-150,862	-96,455	0,096	0,018
-149,847	800,000	-0,071	-0,152
-148,833	148,809	0,016	0,015
-147,818	-119,337	0,105	0,013
-146,804	-200,000	0,006	0,050
-145,789	21,459	0,164	0,096
-144,775	-200,000	0,002	-0,142
-143,760	-136,174	0,080	0,007
-142,745	-95,500	0,036	0,007
-141,731	800,000	0,067	0,145
-140,716	-37,907	0,046	-0,018
-139,702	-200,000	0,035	0,133
-138,687	281,828	-0,061	0,078
-137,672	295,732	0,113	0,150
-136,658	710,817	-0,034	-0,065
-135,643	-110,088	0,075	-0,011
-134,629	-108,434	-0,080	-0,012
-133,614	800,000	-0,030	-0,091
-132,599	-200,000	0,002	-0,069
-131,585	-200,000	-0,009	-0,096
-130,570	37,453	-0,074	-0,047
-129,556	-200,000	0,009	-0,070
-128,541	138,223	-0,068	0,065
-127,526	800,000	0,024	0,053
-126,512	93,935	0,126	-0,103
-125,497	-200,000	0,033	0,128
-124,483	2,047	-0,034	0,018
-123,468	167,962	0,025	0,025
-122,453	498,446	-0,052	0,087
-121,439	683,583	-0,075	-0,141
-120,424	406,966	0,050	0,076
-119,410	158,506	0,091	0,091
-118,395	800,000	0,047	0,128
-117,380	-121,213	-0,134	0,016
-116,366	642,692	0,025	0,045
-115,351	-48,462	-0,103	0,036
-114,337	-74,903	0,097	0,025
-113,322	800,000	-0,051	0,106
-112,307	-200,000	-0,030	-0,197
-111,293	342,095	-0,033	-0,047
-110,278	12,199	0,037	-0,020
-109,264	529,992	-0,002	0,003
-108,249	-200,000	0,034	-0,149
-107,234	-3,690	-0,020	0,010
-106,220	800,000	0,034	-0,100
-105,205	57,487	0,060	-0,042
-104,191	-37,958	0,138	0,053
-103,176	-121,430	-0,073	-0,009
-102,162	-200,000	0,044	0,197
-101,147	-200,000	-0,013	-0,056
-100,132	-200,000	-0,009	-0,107
-99,118	-135,354	0,099	0,008
-98,103	-200,000	-0,004	0,118
-97,089	102,670	0,065	0,055
-96,074	145,291	0,028	0,027
-95,059	627,016	-0,026	0,047
-94,045	-61,206	0,067	-0,020
-93,030	124,321	-0,065	-0,059
-92,016	-157,715	-0,076	-0,003
-91,001	-77,043	-0,086	0,021
-89,986	42,952	0,049	0,032
-88,972	800,000	0,018	0,037
-87,957	-200,000	-0,008	-0,105
-86,943	71,969	0,048	0,035
-85,928	-150,888	-0,076	0,004
-84,913	34,369	-0,189	0,118
-83,899	800,000	0,062	-0,133
-82,884	212,018	0,080	0,091
-81,870	-143,485	0,188	0,013
-80,855	800,000	0,110	0,258
-79,840	141,830	-0,103	0,098
-78,826	10,025	-0,099	0,054
-77,811	-200,000	0,003	-0,071
-76,797	287,130	0,043	-0,056
-75,782	800,000	0,063	0,127
-74,767	-200,000	-0,008	0,176
-73,753	88,869	0,063	0,050
-72,738	-84,839	-0,086	0,019
-71,724	-10,720	-0,033	0,016
-70,709	31,986	-0,081	-0,050
-69,694	-70,929	0,047	-0,013
-68,680	124,393	0,104	0,094
-67,665	-72,938	-0,073	0,019
-66,651	800,000	0,050	0,143
-65,636	241,025	-0,081	0,097
-64,622	-200,000	0,009	0,142
-63,607	75,591	-0,030	-0,023
-62,592	-26,357	-0,076	-0,032
-61,578	367,860	0,024	-0,035
-60,563	-29,235	-0,051	0,021
-59,549	303,228	-0,014	0,019
-58,534	76,273	-2,665	-2,024
-57,519	-6,296	0,420	-0,205
-56,505	-200,000	-1,667	-5,299
-55,490	519,716	1,217	2,056
-54,476	800,000	5,293	11,210
-53,461	-200,000	22,105	347,136
-52,446	800,000	759,727	2292,757
-51,432	513,422	1644,965	2763,660
-50,417	97,142	1608,663	1324,111
-49,403	64,896	1265,779	916,119
-48,388	22,930	1017,482	597,316
-47,373	19,412	984,579	566,375
-46,359	12,826	971,724	537,422
-45,344	8,555	968,443	521,597
-44,330	9,027	966,442	522,045
-43,315	8,049	964,609	517,837
-42,300	7,956	963,458	516,896
-41,286	7,976	962,362	516,351
-40,271	7,983	961,398	515,837
-39,257	8,003	960,414	515,351
-38,242	7,909	959,853	514,725
-37,227	7,979	958,867	514,404
-36,213	7,963	957,892	513,809
-35,198	7,936	957,194	513,326
-34,184	7,949	956,714	513,089
-33,169	7,912	955,529	512,314
-32,154	7,987	954,515	511,993
-31,140	7,953	953,772	511,466
-30,125	8,032	952,923	511,245
-29,111	8,029	952,166	510,806
-28,096	7,997	951,553	510,357
-27,082	7,972	951,025	509,973
-26,067	7,926	950,350	509,442
-25,052	7,896	949,134	508,674
-24,038	7,887	948,777	508,433
-23,023	7,901	948,013	508,048
-22,009	7,954	947,349	507,842
-20,994	8,018	946,679	507,668
-19,979	7,955	946,115	507,143
-18,965	7,910	945,515	506,657
-17,950	7,945	944,825	506,380
-16,936	7,865	944,340	505,842
-15,921	7,861	943,523	505,373
-14,906	7,870	942,765	504,975
-13,892	7,807	942,258	504,482
-12,877	7,845	941,582	504,222
-11,863	7,812	941,075	503,825
-10,848	7,820	940,489	503,518
-9,833	7,987	939,944	503,736
-8,819	7,872	939,449	503,087
-7,804	7,819	938,673	502,482
-6,790	7,818	938,181	502,197
-5,775	7,882	937,565	502,049
-4,760	7,901	936,915	501,742
-3,746	7,911	936,231	501,387
-2,731	7,700	935,636	500,382
-1,717	7,697	935,073	500,050
-0,702	7,662	934,337	499,525
0,313	7,521	933,741	499,516
1,327	11,006	931,308	509,154
2,342	19,560	779,723	448,700
3,356	14,512	447,901	250,127
4,371	-11,746	312,295	146,488
5,386	-15,453	294,948	134,590
6,400	-17,455	288,686	129,738
7,415	-17,679	286,181	128,381
8,429	-18,369	284,347	126,873
9,444	-18,328	283,452	126,503
10,459	-18,229	282,696	126,250
11,473	-18,298	282,130	125,919
12,488	-18,287	281,795	125,769
13,502	-18,285	281,174	125,482
14,517	-18,008	280,655	125,507
15,531	-18,090	280,347	125,278
16,546	-17,934	280,081	125,299
17,561	-18,235	279,482	124,731
18,575	-18,083	279,040	124,668
19,590	-18,128	278,716	124,469
20,604	-17,916	278,436	124,535
21,619	-18,251	278,274	124,132
22,634	-18,191	277,975	124,045
23,648	-17,990	277,477	124,002
24,663	-18,209	277,353	123,728
25,677	-18,079	277,035	123,699
26,692	-18,024	276,584	123,539
27,707	-17,928	276,515	123,588
28,721	-18,249	276,281	123,168
29,736	-18,051	275,932	123,188
30,750	-18,189	275,819	122,997
31,765	-18,182	275,472	122,838
32,780	-18,141	275,102	122,701
33,794	-18,068	274,868	122,654
34,809	-18,112	274,538	122,454
35,823	-18,155	274,437	122,358
36,838	-18,153	274,089	122,194
37,853	-17,959	273,666	122,176
38,867	-17,967	273,658	122,154
39,882	-18,085	273,375	121,906
40,896	-18,237	273,331	121,733
41,911	-17,986	272,890	121,761
42,926	-17,977	272,617	121,636
43,940	-17,999	272,275	121,453
44,955	-18,103	272,119	121,275
45,969	-18,017	271,755	121,182
46,984	-17,928	271,794	121,272
47,999	-17,986	271,677	121,155
49,013	-17,965	271,338	121,013
50,028	-17,968	271,114	120,899
51,042	-17,922	270,948	120,857
52,057	-17,962	270,590	120,649
53,071	-17,962	270,486	120,592
54,086	-17,886	270,224	120,535
55,101	-17,953	270,022	120,372
56,115	-18,022	269,663	120,137
57,130	-17,961	269,390	120,062
58,144	-18,066	269,060	119,807
59,159	-18,024	268,878	119,753
60,174	-18,279	268,764	119,458
61,188	-18,137	268,520	119,470
62,203	-17,859	268,190	119,567
63,217	-18,076	268,035	119,288
64,232	-18,198	267,860	119,088
65,247	-18,049	267,520	119,063
66,261	-18,076	267,264	118,913
67,276	-17,955	267,226	118,996
68,290	-18,078	267,010	118,777
69,305	-17,879	266,721	118,819
70,320	-17,948	266,503	118,649
71,334	-18,118	266,291	118,389
72,349	-18,163	265,995	118,206
73,363	-17,994	265,563	118,157
74,378	-18,117	265,536	118,023
75,393	-18,198	265,315	117,841
76,407	-17,961	265,132	117,964
77,422	-18,142	264,945	117,706
78,436	-17,996	264,634	117,689
79,451	-18,014	264,487	117,597
80,466	-17,940	264,125	117,492
81,480	-18,066	264,075	117,346
82,495	-17,936	263,731	117,299
83,509	-17,924	263,412	117,158
84,524	-17,961	263,331	117,078
85,539	-17,896	263,163	117,051
86,553	-17,933	262,993	116,933
87,568	-17,984	262,823	116,801
88,582	-17,986	262,504	116,647
89,597	-18,033	262,286	116,498
90,611	-17,914	262,250	116,577
91,626	-18,079	261,902	116,265
92,641	-17,986	261,834	116,307
93,655	-18,108	261,671	116,116
94,670	-18,062	261,295	115,980
95,684	-18,030	260,962	115,850
96,699	-18,007	260,898	115,832
97,714	-18,073	260,706	115,678
98,728	-17,946	260,309	115,604
99,743	-17,946	260,296	115,588
100,757	-17,873	260,013	115,516
101,772	-17,891	259,746	115,372
102,787	-18,069	259,664	115,168
103,801	-17,745	259,330	115,295
104,816	-17,798	259,115	115,142
105,830	-17,858	258,971	115,015
106,845	-17,890	258,899	114,944
107,860	-18,130	258,556	114,572
108,874	-17,859	258,411	114,735
109,889	-18,039	258,167	114,458
110,903	-18,012	258,182	114,478
111,918	-18,012	257,798	114,298
112,933	-17,826	257,509	114,322
113,947	-17,779	257,404	114,307
114,962	-18,004	257,258	114,036
115,976	-17,977	257,053	113,957
116,991	-18,144	256,833	113,704
118,006	-18,081	256,629	113,659
119,020	-18,042	256,385	113,574
120,035	-17,765	256,187	113,718
121,049	-17,938	256,076	113,508
122,064	-18,000	255,930	113,379
123,079	-17,905	255,684	113,343
124,093	-17,942	255,424	113,185
125,108	-17,916	255,330	113,156
126,122	-17,949	255,219	113,068
127,137	-17,831	254,845	112,994
128,151	-17,659	254,722	113,079
129,166	-17,788	254,544	112,878
130,181	-17,785	254,307	112,766
131,195	-17,795	254,080	112,646
132,210	-17,693	253,872	112,631
133,224	-18,032	253,782	112,289
134,239	-17,900	253,625	112,324
135,254	-18,012	253,234	112,045
136,268	-17,798	252,976	112,104
137,283	-17,989	252,871	111,884
138,297	-17,781	252,624	111,943
139,312	-17,903	252,412	111,734
140,327	-17,765	252,198	111,747
141,341	-18,031	252,061	111,449
142,356	-17,949	251,849	111,416
143,370	-18,047	251,759	111,283
144,385	-18,035	251,549	111,190
145,400	-17,910	251,353	111,200
146,414	-18,155	251,094	110,867
147,429	-18,094	250,852	110,802
148,443	-17,795	250,680	110,970
149,458	-17,992	250,646	110,777
150,473	-17,819	250,303	110,763
151,487	-17,937	250,204	110,609
152,502	-17,998	250,021	110,466
153,516	-17,995	249,887	110,400
154,531	-18,042	249,593	110,221
155,546	-17,773	249,334	110,323
156,560	-17,764	249,270	110,293
157,575	-17,902	249,000	110,048
158,589	-17,907	248,912	109,994
159,604	-17,825	248,737	109,977
160,619	-17,912	248,508	109,792
161,633	-18,033	248,274	109,578
162,648	-17,812	248,187	109,715
163,662	-17,995	248,000	109,469
164,677	-17,729	247,821	109,603
165,692	-17,795	247,659	109,466
166,706	-17,769	247,454	109,388
167,721	-17,853	247,207	109,198
168,735	-17,869	247,231	109,186
169,750	-17,882	246,991	109,060
170,764	-17,884	246,847	108,985
171,779	-17,979	246,650	108,809
172,794	-17,948	246,600	108,803
173,808	-17,900	246,327	108,713
174,823	-17,865	246,160	108,658
175,837	-17,999	246,071	108,498
176,852	-17,903	245,817	108,456
177,867	-18,030	245,690	108,285
178,881	-18,117	245,537	108,136
179,896	-17,892	245,374	108,241
180,910	-17,764	245,053	108,195
181,925	-17,775	244,863	108,093
182,940	-17,965	244,780	107,889
183,954	-17,658	244,492	108,006
184,969	-17,817	244,541	107,887
185,983	-17,760	244,243	107,793
186,998	-17,997	243,994	107,478
188,013	-17,913	243,910	107,501
189,027	-17,822	243,683	107,466
190,042	-17,940	243,609	107,327
191,056	-17,726	243,292	107,354
192,071	-17,866	243,119	107,152
193,086	-18,005	243,070	107,007
194,100	-17,859	242,771	106,985
195,115	-17,859	242,646	106,921
196,129	-17,666	242,336	106,933
197,144	-17,864	242,075	106,647
198,159	-17,949	242,011	106,539
199,173	-17,682	241,802	106,656
200,188	-17,984	241,764	106,383
201,202	-17,916	241,698	106,400
202,217	-17,923	241,478	106,288
203,232	-17,727	241,215	106,322
204,246	-17,546	240,908	106,325
205,261	-17,879	240,870	106,028
206,275	-16,613	241,313	107,243
207,290	-11,362	243,016	112,289
208,304	-5,337	244,824	118,072
209,319	-3,198	245,449	120,123
210,334	-2,590	245,427	120,603
211,348	-2,027	245,637	121,158
212,363	-1,297	245,616	121,738
213,377	-0,720	245,590	122,188
214,392	-0,141	245,962	122,838
215,407	0,381	245,929	123,240
216,421	0,464	245,615	123,140
217,436	0,751	245,323	123,218
218,450	0,554	245,238	123,003
219,465	0,585	245,224	123,010
220,480	0,667	245,009	122,959
221,494	0,507	244,878	122,751
222,509	0,224	244,625	122,382
223,523	0,161	244,332	122,173
224,538	0,167	244,272	122,138
225,553	0,089	243,915	121,884
226,567	0,152	243,903	121,919
227,582	0,209	243,628	121,817
228,596	0,073	243,562	121,662
229,611	0,243	243,316	121,667
230,626	0,122	243,291	121,545
231,640	0,182	243,041	121,457
232,655	0,041	242,736	121,181
233,669	0,034	242,701	121,146
234,684	0,036	242,501	121,037
235,699	-0,018	242,456	120,961
236,713	0,189	242,210	120,994
237,728	0,066	242,161	120,860
238,742	0,216	241,888	120,834
239,757	0,082	241,759	120,651
240,772	0,118	241,622	120,600
241,786	-0,082	241,594	120,414
242,801	-0,019	241,378	120,347
243,815	0,193	241,077	120,356
244,830	0,149	240,939	120,242
245,844	0,147	240,832	120,176
246,859	0,038	240,611	119,968
247,874	0,003	240,541	119,894
248,888	0,233	240,341	119,968
249,903	0,265	240,161	119,893
250,917	0,293	240,144	119,895
251,932	0,402	239,883	119,842
252,947	0,305	239,791	119,708
253,961	0,052	239,704	119,451
254,976	0,148	239,430	119,381
255,990	0,299	239,273	119,412
257,005	0,080	239,223	119,202
258,020	-0,001	239,084	119,058
259,034	-0,062	238,943	118,928
260,049	0,195	238,693	118,997
261,063	0,044	238,484	118,762
262,078	0,234	238,310	118,816
263,093	0,106	238,123	118,611
264,107	0,056	237,985	118,492
265,122	-0,036	237,862	118,347
266,136	0,017	237,851	118,374
267,151	0,340	237,548	118,468
268,166	0,228	237,359	118,274
269,180	0,178	237,151	118,121
270,195	0,156	237,168	118,101
271,209	0,157	236,921	117,968
272,224	0,224	236,800	117,951
273,239	0,032	236,728	117,752
274,253	0,034	236,621	117,691
275,268	0,052	236,385	117,577
276,282	0,052	236,235	117,492
277,297	0,236	235,832	117,426
278,312	0,203	235,831	117,389
279,326	0,191	235,796	117,351
280,341	0,072	235,580	117,140
281,355	0,163	235,534	117,178
282,370	0,241	235,506	117,215
283,384	0,209	235,168	117,011
284,399	0,192	235,024	116,916
285,414	0,113	234,910	116,787
286,428	0,113	234,717	116,680
287,443	0,097	234,724	116,661
288,457	0,161	234,422	116,550
289,472	0,343	234,199	116,570
290,487	0,100	234,082	116,313
291,501	0,227	233,918	116,320
292,516	0,170	233,835	116,223
293,530	0,333	233,626	116,236
294,545	0,303	233,611	116,195
295,560	0,340	233,316	116,066
296,574	0,387	233,122	115,997
297,589	0,209	232,925	115,750
298,603	0,220	232,879	115,725
299,618	0,255	232,744	115,675
300,633	0,148	232,666	115,543
301,647	0,373	232,471	115,610
302,662	0,416	232,374	115,584
303,676	0,320	232,253	115,440
304,691	0,321	231,991	115,300
305,706	0,476	231,861	115,345
306,720	0,305	231,884	115,214
307,735	0,163	231,696	115,001
308,749	0,481	231,322	115,050
309,764	0,542	231,169	115,010
310,779	0,332	231,188	114,848
311,793	0,595	230,900	114,896
312,808	0,346	230,877	114,684
313,822	0,461	230,672	114,660
314,837	0,442	230,576	114,587
315,852	0,157	230,621	114,382
316,866	0,395	230,322	114,405
317,881	0,653	230,145	114,504
318,895	0,573	229,916	114,318
319,910	0,457	229,859	114,192
320,925	0,526	229,624	114,117
321,939	0,485	229,553	114,040
322,954	0,505	229,415	113,977
323,968	0,564	229,332	113,970
324,983	0,729	229,219	114,029
325,997	0,462	229,017	113,716
327,012	0,554	228,740	113,637
328,027	0,530	228,554	113,517
329,041	0,674	228,492	113,585
330,056	0,679	228,396	113,531
331,070	0,649	228,145	113,374
332,085	0,463	228,112	113,207
333,100	0,486	227,952	113,135
334,114	0,607	227,728	113,104
335,129	0,467	227,619	112,934
336,143	0,772	227,400	113,045
337,158	0,665	227,337	112,923
338,173	0,535	227,346	112,820
339,187	0,686	227,106	112,804
340,202	0,596	226,959	112,654
341,216	0,718	226,660	112,587
342,231	0,700	226,576	112,522
343,246	0,719	226,554	112,514
344,260	0,643	226,312	112,328
345,275	0,637	226,332	112,323
346,289	0,614	226,126	112,194
347,304	0,690	226,018	112,187
348,319	0,668	225,841	112,073
349,333	0,597	225,654	111,916
350,348	0,604	225,420	111,796
351,362	0,638	225,399	111,801
352,377	0,498	225,379	111,677
353,392	0,486	225,199	111,568
354,406	0,867	225,032	111,759
355,421	192,547	1311,254	1378,271
356,435	154,241	1443,447	1378,115
