DTS Sentinel unit serial number:	SN410029Multiplexer serial number:	ORYXHardware model number:	OX2-SRSoftware version number:	ORYX F/W v4,00 Oryx Data Collector v3.7.2.0data status	okinstallation	B5 Nyhavnadifferential loss correction	single-endedforward channel	channel 2reverse channel	N/Adate	2023/12/13time	09:27:14forward acquisition time	300,00reverse acquisition time	0,00gamma	499,1914k internal	0,3160k external	0,3160temperature offset calibration	1,0000default loss term (dB/km)	0,3820temperature slope calibration	1,0000multiplexer offset coefficient	1,0000multiplexer slope coefficient	1,0000fibre end	0,00T internal ref (°C)	13,65T ext. ref 1 (°C)	-2,75T ext. ref 2 (°C)	-3,05length (m)	temperature (°C)	Stokes	anti-Stokes-744,400	-200,000	0,044	-0,226
-743,385	-135,608	-0,328	0,028
-742,371	-200,000	0,013	0,097
-741,356	-84,385	-0,392	-0,090
-740,342	-91,030	0,116	-0,024
-739,327	-136,137	-0,263	-0,022
-738,312	319,336	0,095	0,133
-737,298	-107,661	-0,311	0,049
-736,283	121,531	-0,025	-0,023
-735,269	-18,554	-0,300	0,137
-734,254	-121,046	0,077	-0,009
-733,239	-104,590	-0,450	-0,076
-732,225	-18,968	0,119	0,054
-731,210	702,273	0,034	-0,066
-730,196	-142,307	-0,111	-0,008
-729,181	358,986	-0,080	0,118
-728,167	197,517	-0,028	-0,032
-727,152	-113,241	0,123	-0,018
-726,137	-52,681	-0,078	-0,026
-725,123	136,986	0,088	-0,084
-724,108	-200,000	-0,036	-0,157
-723,094	713,776	-0,060	-0,117
-722,079	-200,000	-0,004	-0,140
-721,064	-66,317	-0,104	0,030
-720,050	-200,000	-0,026	0,112
-719,035	-200,000	-0,018	-0,096
-718,021	-200,000	0,010	0,113
-717,006	37,787	-0,089	0,058
-715,991	-57,147	-0,145	0,047
-714,977	-59,547	0,079	0,025
-713,962	800,000	0,091	-0,210
-712,948	480,326	0,055	-0,092
-711,933	-106,883	-0,060	-0,010
-710,918	-26,815	0,013	-0,006
-709,904	-18,137	0,031	0,014
-708,889	800,000	0,021	-0,050
-707,875	-200,000	-0,013	-0,098
-706,860	716,250	-0,056	-0,110
-705,845	147,966	0,073	-0,073
-704,831	18,199	0,079	-0,046
-703,816	-154,623	-0,139	0,007
-702,802	-21,214	-0,168	-0,075
-701,787	-86,362	-0,142	-0,032
-700,772	-62,814	0,032	-0,010
-699,758	-200,000	-0,005	0,058
-698,743	-200,000	-0,022	-0,075
-697,729	-200,000	-0,046	0,181
-696,714	293,896	0,012	0,016
-695,699	148,012	-0,060	-0,059
-694,685	-200,000	0,034	-0,124
-693,670	-69,002	0,110	-0,031
-692,656	184,275	-0,094	-0,102
-691,641	-200,000	0,002	0,070
-690,627	141,005	0,076	0,074
-689,612	355,072	-0,059	-0,086
-688,597	-78,820	-0,055	0,014
-687,583	84,807	0,010	-0,008
-686,568	-76,675	-0,119	0,030
-685,554	-94,334	-0,098	-0,019
-684,539	55,553	0,154	-0,110
-683,524	-200,000	0,002	-0,096
-682,510	-50,164	0,039	0,013
-681,495	-97,342	-0,106	-0,020
-680,481	-116,873	-0,098	0,013
-679,466	97,251	0,111	-0,093
-678,451	-200,000	-0,015	-0,107
-677,437	85,245	-0,110	0,089
-676,422	647,382	0,074	0,140
-675,408	-92,072	-0,137	0,028
-674,393	-30,023	-0,143	-0,059
-673,378	800,000	-0,066	-0,150
-672,364	166,066	-0,125	-0,130
-671,349	-200,000	0,037	-0,130
-670,335	123,877	-0,121	-0,111
-669,320	-113,648	0,129	0,018
-668,305	-61,612	-0,145	-0,044
-667,291	181,260	-0,093	-0,100
-666,276	-200,000	-0,011	0,041
-665,262	123,549	-0,131	-0,121
-664,247	319,072	0,038	0,052
-663,232	-200,000	-0,012	-0,047
-662,218	272,962	-0,038	-0,049
-661,203	617,223	0,040	0,073
-660,189	-200,000	0,001	0,090
-659,174	800,000	-0,049	-0,120
-658,159	-200,000	-0,010	-0,039
-657,145	800,000	-0,016	-0,048
-656,130	-200,000	0,036	-0,175
-655,116	167,974	-0,088	0,092
-654,101	-200,000	0,008	0,115
-653,086	227,189	-0,038	0,046
-652,072	-99,144	0,095	-0,017
-651,057	-200,000	-0,005	-0,079
-650,043	-79,823	-0,167	-0,041
-649,028	223,191	-0,068	0,080
-648,014	409,509	0,033	0,052
-646,999	303,855	-0,069	0,095
-645,984	-12,410	0,016	-0,007
-644,970	427,535	0,039	-0,062
-643,955	-200,000	-0,000	0,013
-642,941	72,758	-0,037	0,028
-641,926	174,326	-0,079	-0,084
-640,911	800,000	-0,084	-0,237
-639,897	210,343	-0,052	-0,059
-638,882	800,000	-0,007	-0,016
-637,868	69,326	0,089	-0,067
-636,853	16,099	0,029	0,017
-635,838	95,102	0,008	-0,007
-634,824	800,000	-0,008	-0,024
-633,809	100,532	-0,035	0,029
-632,795	-200,000	-0,014	-0,109
-631,780	-65,896	-0,060	-0,018
-630,765	348,924	0,075	0,109
-629,751	-200,000	0,028	0,098
-628,736	800,000	-0,028	-0,086
-627,722	293,503	-0,007	0,010
-626,707	217,737	0,018	-0,021
-625,692	-115,678	-0,105	-0,014
-624,678	56,026	-0,065	0,046
-623,663	-200,000	-0,008	0,141
-622,649	-136,101	-0,127	0,011
-621,634	-200,000	-0,138	0,000
-620,619	-24,746	0,040	-0,017
-619,605	-97,765	-0,123	0,023
-618,590	128,422	-0,071	-0,066
-617,576	-96,056	0,128	-0,025
-616,561	-200,000	-0,003	-0,138
-615,546	-117,019	-0,147	0,019
-614,532	24,695	-0,193	-0,117
-613,517	-67,238	-0,107	0,031
-612,503	-132,280	0,081	0,008
-611,488	53,545	0,040	-0,028
-610,474	800,000	-0,008	-0,023
-609,459	-200,000	-0,008	-0,052
-608,444	-200,000	0,027	-0,190
-607,430	-42,550	-0,100	0,037
-606,415	800,000	-0,030	-0,085
-605,401	-6,075	-0,094	-0,047
-604,386	800,000	0,024	0,052
-603,371	800,000	-0,075	0,160
-602,357	293,861	-0,173	-0,232
-601,342	800,000	0,044	-0,109
-600,328	-200,000	-0,014	-0,115
-599,313	-200,000	0,011	-0,093
-598,298	88,653	0,049	0,040
-597,284	-10,973	-0,079	0,038
-596,269	457,382	-0,083	0,136
-595,255	-200,000	-0,012	0,125
-594,240	199,429	-0,054	0,060
-593,225	-103,464	-0,088	-0,015
-592,211	365,364	-0,063	-0,093
-591,196	10,843	-0,096	0,054
-590,182	-200,000	-0,006	0,095
-589,167	-22,470	0,109	0,048
-588,152	364,044	0,044	-0,065
-587,138	-200,000	-0,018	0,136
-586,123	800,000	-0,037	-0,077
-585,109	-70,683	0,205	0,056
-584,094	16,297	-0,064	0,037
-583,079	-42,149	0,096	-0,036
-582,065	227,848	-0,031	0,037
-581,050	-200,000	0,009	0,032
-580,036	800,000	-0,050	0,108
-579,021	676,301	0,019	-0,037
-578,006	-200,000	0,006	-0,020
-576,992	177,611	0,031	-0,033
-575,977	414,974	-0,040	-0,062
-574,963	-53,839	-0,131	0,043
-573,948	485,994	0,032	0,054
-572,934	-186,387	0,063	-0,001
-571,919	-200,000	0,006	-0,045
-570,904	-200,000	0,011	-0,080
-569,890	-124,550	0,096	-0,011
-568,875	800,000	0,038	0,083
-567,861	225,694	-0,060	0,072
-566,846	424,812	-0,064	0,102
-565,831	82,953	0,080	-0,063
-564,817	365,839	-0,045	-0,067
-563,802	54,073	-0,137	0,096
-562,788	-45,960	-0,089	0,032
-561,773	800,000	0,058	0,179
-560,758	800,000	-0,021	-0,047
-559,744	-131,133	-0,021	-0,002
-558,729	3,682	-0,103	0,055
-557,715	787,861	0,026	-0,052
-556,700	767,873	-0,016	-0,031
-555,685	-67,599	0,018	-0,005
-554,671	30,399	0,067	-0,042
-553,656	9,001	0,035	0,019
-552,642	-108,272	0,165	-0,026
-551,627	254,383	0,130	0,163
-550,612	-105,745	-0,129	-0,021
-549,598	-94,059	0,083	0,017
-548,583	800,000	0,017	-0,048
-547,569	800,000	0,026	0,074
-546,554	-165,065	0,098	0,003
-545,539	-200,000	-0,007	0,180
-544,525	800,000	0,015	0,040
-543,510	-110,243	-0,022	0,003
-542,496	44,589	0,125	0,084
-541,481	-200,000	-0,005	0,056
-540,466	204,419	0,035	-0,040
-539,452	800,000	-0,042	0,096
-538,437	-0,433	0,008	-0,004
-537,423	8,962	0,132	-0,073
-536,408	-29,822	0,114	0,047
-535,393	-11,477	-0,125	0,060
-534,379	-200,000	-0,032	-0,132
-533,364	-29,820	0,111	-0,046
-532,350	73,373	0,139	-0,106
-531,335	64,214	0,116	-0,085
-530,321	218,782	0,053	0,062
-529,306	-17,732	-0,115	0,053
-528,291	162,892	0,014	-0,015
-527,277	319,275	-0,053	-0,073
-526,262	308,268	-0,116	0,158
-525,248	51,895	0,076	0,053
-524,233	-150,418	0,063	-0,003
-523,218	28,045	0,077	0,047
-522,204	75,176	0,041	0,032
-521,189	-80,381	0,041	-0,010
-520,175	155,990	-0,049	0,049
-519,160	91,525	-0,019	-0,016
-518,145	623,295	0,048	0,089
-517,131	-97,888	0,108	0,020
-516,116	-200,000	0,040	0,000
-515,102	114,041	-0,102	0,091
-514,087	59,179	-0,066	0,047
-513,072	488,102	0,048	0,080
-512,058	333,959	0,079	-0,112
-511,043	-26,714	0,074	-0,031
-510,029	-200,000	0,006	0,107
-509,014	800,000	-0,063	0,130
-507,999	-113,636	-0,145	-0,020
-506,985	-45,758	0,092	-0,033
-505,970	-200,000	-0,019	-0,093
-504,956	171,679	-0,077	0,080
-503,941	-46,292	0,074	0,026
-502,926	55,381	0,147	0,104
-501,912	-30,640	-0,135	0,056
-500,897	-98,146	0,114	0,021
-499,883	94,513	-0,019	-0,016
-498,868	-200,000	0,018	0,096
-497,853	262,546	0,069	-0,087
-496,839	800,000	-0,053	0,114
-495,824	-26,414	0,146	-0,062
-494,810	800,000	0,018	0,050
-493,795	-200,000	-0,039	0,147
-492,781	-200,000	-0,114	0,000
-491,766	312,002	-0,156	-0,214
-490,751	-200,000	0,001	0,068
-489,737	800,000	0,022	0,048
-488,722	-200,000	-0,002	-0,049
-487,708	-200,000	-0,022	0,110
-486,693	109,539	-0,082	-0,072
-485,678	-200,000	-0,010	0,042
-484,664	-133,641	-0,048	-0,004
-483,649	-47,447	0,055	-0,019
-482,635	-200,000	-0,001	0,047
-481,620	-200,000	-0,028	-0,129
-480,605	48,956	0,150	0,103
-479,591	-127,873	0,014	-0,001
-478,576	-200,000	-0,013	-0,050
-477,562	-33,401	-0,063	-0,025
-476,547	-96,814	-0,105	-0,020
-475,532	36,615	0,079	-0,051
-474,518	-200,000	-0,012	0,043
-473,503	-44,581	0,070	-0,025
-472,489	800,000	-0,095	0,224
-471,474	193,939	-0,106	0,117
-470,459	-200,000	0,018	-0,061
-469,445	-25,095	0,045	-0,019
-468,430	-100,850	-0,178	-0,032
-467,416	-110,041	0,117	-0,018
-466,401	-34,280	0,050	0,020
-465,386	800,000	0,014	0,037
-464,372	-200,000	0,003	-0,067
-463,357	-77,628	-0,209	0,052
-462,343	4,997	-0,028	-0,015
-461,328	-200,000	-0,001	-0,066
-460,313	-200,000	0,019	0,077
-459,299	-59,624	0,126	0,039
-458,284	376,794	-0,065	0,098
-457,270	800,000	-0,025	-0,067
-456,255	-200,000	-0,023	-0,078
-455,241	800,000	0,032	0,092
-454,226	-200,000	0,031	-0,101
-453,211	37,772	0,058	-0,038
-452,197	-171,890	0,120	-0,003
-451,182	800,000	-0,035	-0,084
-450,168	-65,427	0,178	0,052
-449,153	54,255	-0,041	-0,029
-448,138	323,021	0,105	-0,147
-447,124	444,472	-0,066	0,106
-446,109	60,241	-0,066	0,048
-445,095	-63,305	0,115	0,034
-444,080	513,919	0,010	0,017
-443,065	71,540	0,077	-0,059
-442,051	-111,393	0,052	0,008
-441,036	-200,000	-0,014	-0,128
-440,022	-32,072	-0,078	-0,032
-439,007	-200,000	-0,004	-0,056
-437,992	70,618	0,092	-0,069
-436,978	714,851	0,035	0,069
-435,963	65,012	0,054	0,040
-434,949	-200,000	0,001	0,052
-433,934	800,000	-0,020	0,056
-432,919	64,202	-0,087	-0,063
-431,905	727,716	0,039	0,077
-430,890	-60,250	0,069	-0,021
-429,876	121,262	0,032	0,029
-428,861	276,168	-0,063	0,082
-427,846	-200,000	0,039	-0,145
-426,832	-200,000	0,019	0,109
-425,817	-63,671	0,062	-0,018
-424,803	800,000	-0,085	-0,246
-423,788	-163,794	0,261	-0,009
-422,773	-27,582	-0,094	0,039
-421,759	218,040	0,110	0,128
-420,744	-169,606	0,029	0,001
-419,730	129,727	-0,024	-0,022
-418,715	-25,910	0,061	0,026
-417,701	-108,039	-0,049	-0,008
-416,686	800,000	-0,058	0,120
-415,671	-200,000	-0,010	0,066
-414,657	-200,000	0,005	-0,124
-413,642	562,569	-0,046	-0,081
-412,628	37,186	0,117	0,075
-411,613	105,104	-0,084	0,072
-410,598	-89,549	-0,087	0,018
-409,584	1,099	-0,109	-0,057
-408,569	1,907	0,192	0,101
-407,555	123,911	0,066	-0,060
-406,540	800,000	0,075	-0,151
-405,525	-161,600	-0,139	0,005
-404,511	800,000	0,041	-0,127
-403,496	23,935	0,044	-0,026
-402,482	15,839	-0,022	0,012
-401,467	-180,697	-0,081	-0,001
-400,452	800,000	-0,019	-0,039
-399,438	225,108	0,024	-0,028
-398,423	-200,000	-0,007	-0,076
-397,409	157,987	-0,076	-0,077
-396,394	444,408	-0,024	0,038
-395,379	800,000	-0,030	0,070
-394,365	800,000	0,010	-0,020
-393,350	-200,000	-0,005	0,022
-392,336	110,828	0,068	-0,060
-391,321	-150,921	-0,106	0,006
-390,306	-45,619	0,088	-0,032
-389,292	164,128	0,106	-0,109
-388,277	-200,000	0,003	0,040
-387,263	225,506	-0,060	0,070
-386,248	-0,276	0,107	0,055
-385,233	-200,000	0,051	0,179
-384,219	-15,839	-0,113	-0,052
-383,204	-170,918	0,094	0,002
-382,190	800,000	-0,046	0,099
-381,175	-200,000	-0,011	0,099
-380,160	31,797	-0,130	0,081
-379,146	101,196	-0,074	0,063
-378,131	481,441	0,040	-0,067
-377,117	271,943	0,053	-0,068
-376,102	-200,000	-0,002	-0,079
-375,088	224,181	-0,041	0,048
-374,073	506,388	-0,027	-0,045
-373,058	-200,000	0,020	0,097
-372,044	84,917	0,017	0,014
-371,029	-77,628	-0,081	-0,020
-370,015	800,000	-0,067	0,163
-369,000	-135,616	-0,112	-0,009
-367,985	-78,952	0,098	-0,024
-366,971	302,665	0,009	-0,012
-365,956	800,000	0,037	0,090
-364,942	-101,929	0,069	-0,012
-363,927	-30,629	-0,125	0,051
-362,912	205,177	-0,023	-0,026
-361,898	-91,791	0,052	0,011
-360,883	-70,809	0,026	-0,007
-359,869	283,944	0,071	-0,092
-358,854	-108,668	0,096	-0,015
-357,839	-156,782	-0,047	-0,002
-356,825	-200,000	0,005	0,021
-355,810	80,745	-0,069	0,054
-354,796	-200,000	-0,020	-0,155
-353,781	119,421	0,081	-0,073
-352,766	133,047	0,062	-0,058
-351,752	800,000	-0,036	-0,076
-350,737	24,333	-0,084	0,050
-349,723	-85,615	0,052	0,012
-348,708	-25,012	-0,088	-0,038
-347,693	-200,000	0,013	0,048
-346,679	-56,433	0,154	-0,049
-345,664	-200,000	-0,002	-0,112
-344,650	292,464	0,072	-0,095
-343,635	270,254	-0,034	-0,043
-342,620	-200,000	0,018	0,062
-341,606	-200,000	0,003	-0,079
-340,591	139,951	-0,045	0,043
-339,577	-200,000	0,008	-0,102
-338,562	313,062	-0,067	0,092
-337,548	219,787	-0,078	-0,090
-336,533	143,102	0,027	0,026
-335,518	-18,878	0,162	-0,073
-334,504	-121,087	-0,107	-0,013
-333,489	216,025	0,077	-0,089
-332,475	26,306	-0,060	-0,036
-331,460	-79,773	-0,064	-0,016
-330,445	-200,000	0,034	-0,141
-329,431	-68,624	0,053	0,015
-328,416	20,326	-0,135	0,079
-327,402	207,955	0,042	0,048
-326,387	800,000	0,033	-0,090
-325,372	800,000	-0,043	-0,111
-324,358	-135,305	-0,037	-0,003
-323,343	20,788	0,056	-0,033
-322,329	145,316	0,029	0,028
-321,314	-106,917	-0,075	-0,012
-320,299	104,193	0,028	0,024
-319,285	-164,926	0,163	0,005
-318,270	-200,000	0,012	0,041
-317,256	-14,114	0,097	-0,045
-316,241	274,990	0,039	-0,050
-315,226	-138,032	0,190	0,015
-314,212	-200,000	0,004	-0,015
-313,197	-200,000	-0,006	0,084
-312,183	-196,868	0,119	0,001
-311,168	113,258	0,171	-0,151
-310,153	3,771	-0,057	-0,030
-309,139	322,817	-0,065	-0,089
-308,124	-200,000	-0,007	-0,105
-307,110	-101,611	0,071	-0,012
-306,095	-165,096	-0,089	-0,003
-305,080	-200,000	0,002	0,147
-304,066	97,386	-0,069	-0,057
-303,051	-30,997	-0,100	0,040
-302,037	55,202	0,087	0,061
-301,022	-200,000	-0,009	-0,055
-300,008	800,000	0,043	-0,092
-298,993	131,053	-0,018	0,017
-297,978	-97,955	-0,026	0,005
-296,964	405,910	0,051	-0,078
-295,949	210,480	-0,094	-0,107
-294,935	-35,819	-0,149	0,058
-293,920	-136,152	0,134	0,011
-292,905	800,000	-0,076	-0,194
-291,891	-50,548	-0,042	0,014
-290,876	-129,031	-0,069	-0,007
-289,862	-66,519	0,055	0,016
-288,847	-8,238	-0,117	-0,057
-287,832	73,591	-0,045	-0,034
-286,818	-12,644	0,044	-0,021
-285,803	15,398	-0,124	0,070
-284,789	-2,769	-0,031	0,016
-283,774	-120,495	0,133	0,016
-282,759	-95,782	0,037	-0,007
-281,745	800,000	-0,043	-0,134
-280,730	246,547	-0,116	-0,141
-279,716	653,481	0,070	0,131
-278,701	-200,000	0,024	0,154
-277,686	103,851	0,065	0,055
-276,672	-145,233	0,141	0,009
-275,657	-200,000	0,015	0,083
-274,643	800,000	-0,022	0,057
-273,628	42,892	-0,059	0,039
-272,613	-13,288	-0,101	0,047
-271,599	-124,954	0,101	-0,011
-270,584	-34,905	-0,098	-0,038
-269,570	-200,000	0,006	-0,070
-268,555	-36,414	-0,053	-0,020
-267,540	17,448	0,039	0,022
-266,526	-94,669	0,018	0,004
-265,511	800,000	-0,032	0,070
-264,497	14,389	-0,113	-0,064
-263,482	-33,487	0,134	0,053
-262,467	-61,284	0,133	0,040
-261,453	-200,000	0,008	0,040
-260,438	76,172	0,058	0,045
-259,424	-75,845	0,066	0,017
-258,409	-133,891	-0,119	-0,011
-257,395	-112,544	0,154	0,022
-256,380	800,000	-0,042	0,090
-255,365	800,000	0,023	0,070
-254,351	-25,054	-0,080	-0,034
-253,336	-200,000	-0,020	-0,079
-252,322	-200,000	-0,001	0,007
-251,307	800,000	-0,062	-0,189
-250,292	800,000	-0,006	0,015
-249,278	524,594	0,026	0,044
-248,263	119,279	0,074	0,066
-247,249	-200,000	-0,019	-0,120
-246,234	-127,008	-0,100	-0,010
-245,219	800,000	0,003	-0,007
-244,205	-200,000	-0,014	0,070
-243,190	-87,390	0,048	-0,010
-242,176	36,969	0,075	0,048
-241,161	51,666	-0,089	0,061
-240,146	228,371	0,038	0,045
-239,132	-74,144	-0,090	0,023
-238,117	379,703	-0,104	-0,155
-237,103	258,976	-0,063	0,079
-236,088	198,534	-0,056	-0,062
-235,073	-200,000	0,024	0,096
-234,059	-200,000	-0,021	0,143
-233,044	-114,999	0,060	0,008
-232,030	273,863	-0,033	-0,043
-231,015	800,000	-0,023	0,063
-230,000	-80,985	0,131	-0,031
-228,986	-56,827	-0,170	0,054
-227,971	-200,000	-0,007	0,065
-226,957	800,000	-0,049	0,138
-225,942	-200,000	-0,001	0,041
-224,927	21,028	-0,123	0,072
-223,913	800,000	0,036	-0,078
-222,898	-200,000	-0,005	-0,121
-221,884	-23,124	-0,103	-0,044
-220,869	-200,000	0,017	0,122
-219,855	-200,000	0,029	-0,099
-218,840	-200,000	-0,003	-0,030
-217,825	-134,774	-0,054	-0,005
-216,811	79,640	0,051	0,040
-215,796	-91,510	0,046	0,009
-214,782	18,773	0,076	0,044
-213,767	-69,304	0,115	-0,032
-212,752	50,856	-0,214	-0,146
-211,738	800,000	0,039	0,125
-210,723	-200,000	-0,023	0,104
-209,709	723,011	-0,071	-0,137
-208,694	-133,037	-0,060	0,005
-207,679	207,657	-0,051	0,058
-206,665	59,256	0,064	0,046
-205,650	-200,000	0,015	0,047
-204,636	-16,529	0,081	0,037
-203,621	236,997	-0,033	-0,039
-202,606	-200,000	-0,022	-0,172
-201,592	235,572	-0,060	0,071
-200,577	156,112	0,043	0,043
-199,563	800,000	-0,085	0,207
-198,548	113,086	-0,031	-0,027
-197,533	-45,380	-0,044	-0,016
-196,519	60,389	-0,011	-0,008
-195,504	108,275	0,094	0,081
-194,490	-20,673	0,020	-0,009
-193,475	169,754	-0,046	-0,048
-192,460	608,687	0,028	-0,052
-191,446	800,000	0,011	0,030
-190,431	39,771	0,027	-0,018
-189,417	-140,291	-0,097	-0,007
-188,402	209,891	0,025	0,028
-187,387	-78,492	0,126	0,031
-186,373	452,580	-0,048	-0,077
-185,358	-120,780	-0,086	0,010
-184,344	58,832	0,041	-0,029
-183,329	507,650	0,008	0,013
-182,315	57,750	0,093	-0,065
-181,300	4,292	0,112	-0,059
-180,285	-200,000	0,012	-0,080
-179,271	800,000	0,045	0,094
-178,256	-200,000	0,024	-0,101
-177,242	800,000	-0,017	0,046
-176,227	-19,644	0,127	-0,057
-175,212	-59,299	0,068	0,021
-174,198	559,356	-0,084	0,147
-173,183	247,297	0,083	-0,101
-172,169	800,000	-0,097	-0,245
-171,154	110,132	0,057	0,049
-170,139	480,942	-0,054	-0,088
-169,125	800,000	0,035	0,088
-168,110	800,000	0,022	0,065
-167,096	-38,743	-0,062	0,024
-166,081	729,559	0,038	-0,074
-165,066	457,757	-0,053	0,085
-164,052	-200,000	0,011	0,038
-163,037	773,371	0,028	-0,056
-162,023	413,956	0,036	-0,056
-161,008	800,000	0,018	-0,052
-159,993	-34,529	0,030	0,012
-158,979	97,578	-0,034	0,028
-157,964	-200,000	-0,020	-0,174
-156,950	800,000	-0,035	0,082
-155,935	-138,673	0,072	-0,006
-154,920	-71,719	0,101	0,027
-153,906	-200,000	-0,014	-0,097
-152,891	-200,000	0,003	0,016
-151,877	-24,401	0,105	-0,045
-150,862	-54,189	-0,117	-0,038
-149,847	185,633	-0,007	-0,008
-148,833	-200,000	0,020	0,080
-147,818	24,345	0,101	0,060
-146,804	800,000	-0,013	0,031
-145,789	-24,426	0,043	0,018
-144,775	68,639	-0,095	-0,070
-143,760	33,892	-0,140	-0,088
-142,745	614,373	-0,041	-0,074
-141,731	753,915	-0,067	-0,130
-140,716	-144,207	0,109	-0,007
-139,702	12,379	0,047	-0,026
-138,687	-36,794	0,110	-0,042
-137,672	-87,214	0,038	0,008
-136,658	790,089	-0,017	-0,033
-135,643	39,387	0,062	0,040
-134,629	-55,174	0,081	0,026
-133,614	-200,000	0,013	0,061
-132,599	616,387	0,077	-0,139
-131,585	17,478	-0,069	0,039
-130,570	121,087	0,191	-0,171
-129,556	32,893	-0,035	-0,022
-128,541	141,821	0,045	-0,043
-127,526	262,093	-0,057	-0,072
-126,512	-200,000	0,005	0,133
-125,497	-8,975	0,096	0,046
-124,483	20,840	-0,093	-0,054
-123,468	223,496	-0,017	-0,019
-122,453	-200,000	0,006	-0,030
-121,439	-147,463	0,020	-0,001
-120,424	-111,289	0,142	-0,021
-119,410	-5,466	0,143	0,070
-118,395	-136,340	-0,056	0,005
-117,380	-45,132	0,039	-0,014
-116,366	-200,000	0,022	0,075
-115,351	-149,614	0,097	-0,005
-114,337	-2,270	0,114	-0,057
-113,322	-80,640	-0,161	-0,038
-112,307	3,883	0,065	-0,034
-111,293	-200,000	0,015	0,140
-110,278	-200,000	0,003	0,018
-109,264	644,999	-0,060	0,110
-108,249	340,945	0,054	-0,077
-107,234	800,000	-0,027	-0,069
-106,220	576,259	0,042	0,074
-105,205	18,270	0,064	0,037
-104,191	108,096	0,097	-0,083
-103,176	-44,566	0,038	0,014
-102,162	-200,000	0,001	0,008
-101,147	800,000	-0,036	0,089
-100,132	-172,036	-0,028	0,001
-99,118	213,372	-0,050	-0,057
-98,103	-200,000	-0,001	-0,016
-97,089	-200,000	0,012	0,130
-96,074	800,000	0,045	0,127
-95,059	119,481	-0,084	0,075
-94,045	-112,995	-0,107	0,015
-93,030	-132,558	0,063	0,006
-92,016	-154,152	-0,072	0,003
-91,001	-81,976	-0,097	-0,023
-89,986	243,142	0,080	0,097
-88,972	-200,000	0,034	0,160
-87,957	248,226	0,021	0,025
-86,943	-200,000	0,015	-0,051
-85,928	-132,736	-0,081	-0,007
-84,913	41,012	0,097	0,063
-83,899	-77,226	0,075	-0,019
-82,884	42,200	-0,041	0,027
-81,870	800,000	0,007	-0,022
-80,855	110,431	0,099	0,085
-79,840	-200,000	-0,010	0,042
-78,826	800,000	-0,033	0,097
-77,811	732,999	-0,060	0,116
-76,797	358,369	0,086	-0,124
-75,782	800,000	0,060	0,130
-74,767	698,395	-0,040	0,075
-73,753	800,000	0,025	0,059
-72,738	-200,000	0,043	0,164
-71,724	190,650	0,086	0,093
-70,709	-103,380	0,082	0,014
-69,694	586,316	0,043	0,076
-68,680	-200,000	-0,007	0,251
-67,665	-200,000	-0,008	0,063
-66,651	800,000	-0,032	-0,067
-65,636	-4,685	-0,037	0,018
-64,622	800,000	-0,049	0,123
-63,607	-65,922	-0,053	-0,015
-62,592	800,000	-0,035	0,077
-61,578	7,517	0,067	-0,036
-60,563	524,130	0,028	0,048
-59,549	800,000	0,012	-0,027
-58,534	49,781	-1,983	-1,338
-57,519	-200,000	-0,202	-0,766
-56,505	-200,000	-1,323	-5,022
-55,490	137,225	0,812	0,761
-54,476	800,000	5,501	12,059
-53,461	-200,000	18,751	319,781
-52,446	800,000	742,283	2337,547
-51,432	557,785	1658,176	2878,989
-50,417	111,109	1641,477	1417,559
-49,403	75,447	1291,166	976,231
-48,388	30,248	1032,079	630,400
-47,373	19,960	994,733	573,471
-46,359	17,370	982,466	557,845
-45,344	14,081	978,478	544,733
-44,330	14,346	976,937	544,727
-43,315	13,772	974,902	541,685
-42,300	13,711	973,927	540,921
-41,286	13,648	973,078	540,222
-40,271	13,690	971,985	539,729
-39,257	13,651	971,255	539,177
-38,242	13,681	970,409	538,782
-37,227	13,691	969,318	538,188
-36,213	13,664	968,526	537,639
-35,198	13,675	967,634	537,158
-34,184	13,693	966,986	536,835
-33,169	13,618	966,109	536,083
-32,154	13,674	964,890	535,569
-31,140	13,702	963,859	535,066
-30,125	13,676	963,379	534,692
-29,111	13,682	962,564	534,240
-28,096	13,703	961,851	533,890
-27,082	13,679	961,310	533,493
-26,067	13,670	960,337	532,901
-25,052	13,689	959,726	532,604
-24,038	13,636	958,957	531,985
-23,023	13,660	958,429	531,748
-22,009	13,708	957,775	531,519
-20,994	13,704	957,044	531,078
-19,979	13,735	956,470	530,840
-18,965	13,675	955,787	530,245
-17,950	13,727	955,215	530,074
-16,936	13,674	954,580	529,530
-15,921	13,633	953,794	528,941
-14,906	13,594	953,208	528,472
-13,892	13,598	952,466	528,051
-12,877	13,582	951,828	527,627
-11,863	13,538	951,261	527,150
-10,848	13,563	950,761	526,931
-9,833	13,669	950,116	526,893
-8,819	13,612	949,321	526,248
-7,804	13,618	948,927	526,028
-6,790	13,571	948,471	525,603
-5,775	13,606	947,872	525,363
-4,760	13,633	947,179	525,043
-3,746	13,595	946,637	524,601
-2,731	13,462	945,649	523,611
-1,717	13,455	945,079	523,252
-0,702	13,444	944,462	522,852
0,313	13,205	943,966	522,610
1,327	16,539	941,549	531,788
2,342	25,603	795,898	473,607
3,356	21,983	460,498	268,441
4,371	-5,099	317,714	156,100
5,386	-8,813	299,338	143,260
6,400	-10,886	293,426	138,338
7,415	-11,259	290,834	136,733
8,429	-11,592	289,317	135,678
9,444	-11,486	288,334	135,309
10,459	-11,447	287,757	135,065
11,473	-11,524	287,088	134,663
12,488	-11,289	286,563	134,635
13,502	-11,364	286,012	134,292
14,517	-11,539	285,678	133,951
15,531	-11,262	285,184	133,978
16,546	-11,425	284,877	133,663
17,561	-11,338	284,406	133,514
18,575	-11,508	284,148	133,216
19,590	-11,457	283,603	132,998
20,604	-11,438	283,521	132,967
21,619	-11,461	283,044	132,709
22,634	-11,623	282,785	132,419
23,648	-11,489	282,435	132,372
24,663	-11,497	282,171	132,229
25,677	-11,512	281,894	132,074
26,692	-11,369	281,632	132,076
27,707	-11,316	281,270	131,945
28,721	-11,448	280,962	131,662
29,736	-11,378	280,696	131,593
30,750	-11,491	280,461	131,364
31,765	-11,456	280,124	131,228
32,780	-11,461	280,012	131,159
33,794	-11,497	279,760	130,994
34,809	-11,300	279,410	131,007
35,823	-11,351	279,225	130,860
36,838	-11,376	278,845	130,646
37,853	-11,692	278,758	130,293
38,867	-11,556	278,453	130,268
39,882	-11,575	278,170	130,106
40,896	-11,541	277,945	130,021
41,911	-11,540	277,739	129,915
42,926	-11,372	277,400	129,903
43,940	-11,569	277,243	129,632
44,955	-11,431	276,797	129,542
45,969	-11,757	276,774	129,212
46,984	-11,611	276,572	129,244
47,999	-11,902	276,224	128,796
49,013	-12,003	275,973	128,572
50,028	-12,092	275,523	128,268
51,042	-12,302	275,479	128,038
52,057	-12,442	275,246	127,787
53,071	-12,168	274,905	127,874
54,086	-11,978	274,678	127,936
55,101	-11,849	274,556	127,988
56,115	-11,777	274,461	127,999
57,130	-11,485	274,336	128,202
58,144	-11,338	274,119	128,227
59,159	-11,462	273,858	127,978
60,174	-11,384	273,619	127,927
61,188	-11,471	273,449	127,755
62,203	-11,457	273,179	127,631
63,217	-11,336	272,997	127,647
64,232	-11,235	272,816	127,644
65,247	-11,271	272,570	127,485
66,261	-11,244	272,132	127,293
67,276	-11,695	272,160	126,878
68,290	-11,882	271,808	126,529
69,305	-11,698	271,498	126,544
70,320	-11,693	271,277	126,434
71,334	-11,534	271,129	126,500
72,349	-11,412	270,960	126,523
73,363	-11,323	270,717	126,480
74,378	-11,342	270,452	126,327
75,393	-11,242	270,399	126,383
76,407	-11,460	270,079	126,022
77,422	-11,305	269,733	125,992
78,436	-11,387	269,624	125,854
79,451	-11,372	269,455	125,778
80,466	-11,252	269,128	125,724
81,480	-11,593	268,844	125,268
82,495	-11,700	268,691	125,088
83,509	-11,327	268,418	125,291
84,524	-11,564	268,290	125,004
85,539	-11,618	268,065	124,838
86,553	-11,451	267,681	124,800
87,568	-11,484	267,522	124,685
88,582	-11,669	267,506	124,498
89,597	-11,506	267,210	124,497
90,611	-11,446	267,094	124,486
91,626	-11,495	267,097	124,432
92,641	-11,396	266,737	124,343
93,655	-11,518	266,544	124,132
94,670	-11,664	266,295	123,872
95,684	-11,530	266,101	123,893
96,699	-11,549	265,874	123,758
97,714	-11,561	265,646	123,631
98,728	-11,632	265,413	123,447
99,743	-11,777	265,235	123,223
100,757	-11,690	264,841	123,107
101,772	-11,591	264,696	123,118
102,787	-11,510	264,515	123,095
103,801	-11,578	264,429	122,983
104,816	-11,439	264,259	123,018
105,830	-11,307	264,106	123,054
106,845	-11,259	263,887	122,984
107,860	-11,422	263,619	122,702
108,874	-11,334	263,306	122,624
109,889	-11,234	263,120	122,616
110,903	-11,564	263,030	122,268
111,918	-11,479	262,875	122,261
112,933	-11,391	262,627	122,214
113,947	-11,380	262,547	122,175
114,962	-11,399	262,403	122,080
115,976	-11,330	262,085	121,982
116,991	-11,379	261,942	121,862
118,006	-11,334	261,860	121,853
119,020	-11,376	261,710	121,735
120,035	-11,283	261,399	121,662
121,049	-11,312	261,285	121,572
122,064	-11,431	261,032	121,338
123,079	-11,509	260,730	121,118
124,093	-11,394	260,477	121,091
125,108	-11,530	260,306	120,881
126,122	-11,770	260,097	120,562
127,137	-11,849	259,959	120,418
128,151	-11,601	259,580	120,449
129,166	-11,637	259,598	120,415
130,181	-11,720	259,275	120,181
131,195	-11,626	259,069	120,158
132,210	-11,629	258,913	120,072
133,224	-11,361	258,670	120,184
134,239	-11,411	258,582	120,088
135,254	-11,444	258,440	119,983
136,268	-11,468	258,136	119,810
137,283	-11,610	257,817	119,528
138,297	-11,796	257,653	119,278
139,312	-11,838	257,480	119,151
140,327	-11,439	257,393	119,448
141,341	-11,404	257,238	119,395
142,356	-11,188	257,079	119,499
143,370	-11,200	256,796	119,346
144,385	-11,095	256,770	119,415
145,400	-11,202	256,506	119,188
146,414	-11,114	256,198	119,111
147,429	-11,363	256,132	118,854
148,443	-11,107	256,003	119,005
149,458	-11,131	255,779	118,869
150,473	-11,321	255,599	118,611
151,487	-11,209	255,431	118,619
152,502	-11,371	255,306	118,411
153,516	-11,222	254,997	118,385
154,531	-11,168	254,762	118,313
155,546	-11,120	254,639	118,286
156,560	-11,207	254,519	118,145
157,575	-11,452	254,305	117,825
158,589	-11,297	254,012	117,811
159,604	-11,035	253,760	117,908
160,619	-11,226	253,751	117,730
161,633	-11,269	253,575	117,602
162,648	-11,187	253,465	117,610
163,662	-11,304	253,403	117,471
164,677	-11,143	253,002	117,411
165,692	-11,134	252,973	117,396
166,706	-11,131	252,721	117,271
167,721	-11,264	252,546	117,066
168,735	-11,159	252,359	117,058
169,750	-11,192	252,311	116,997
170,764	-11,154	252,205	116,969
171,779	-11,303	251,906	116,694
172,794	-11,237	251,824	116,702
173,808	-11,125	251,535	116,652
174,823	-11,604	251,244	116,101
175,837	-11,830	251,075	115,821
176,852	-11,387	250,968	116,137
177,867	-11,304	250,999	116,210
178,881	-11,239	250,862	116,191
179,896	-11,116	250,615	116,171
180,910	-10,896	250,346	116,222
181,925	-11,208	250,130	115,848
182,940	-11,076	249,983	115,881
183,954	-11,114	249,874	115,788
184,969	-11,136	249,713	115,684
185,983	-11,061	249,541	115,658
186,998	-10,888	249,299	115,680
188,013	-11,182	249,213	115,384
189,027	-11,053	249,034	115,398
190,042	-11,110	248,810	115,236
191,056	-10,994	248,705	115,275
192,071	-11,174	248,434	114,988
193,086	-11,229	248,225	114,835
194,100	-11,098	248,060	114,858
195,115	-10,961	247,868	114,873
196,129	-11,150	247,666	114,612
197,144	-11,325	247,660	114,453
198,159	-11,009	247,288	114,533
199,173	-11,206	247,173	114,307
200,188	-11,248	246,995	114,180
201,202	-11,423	246,857	113,960
202,217	-11,545	246,488	113,678
203,232	-11,657	246,265	113,473
204,246	-11,276	246,260	113,775
205,261	-11,056	246,091	113,869
206,275	-11,835	245,657	113,015
207,290	-7,550	247,552	117,441
208,304	0,517	250,183	125,439
209,319	4,233	251,019	128,960
210,334	4,718	250,993	129,341
211,348	4,865	250,993	129,452
212,363	5,347	250,811	129,749
213,377	5,264	250,804	129,664
214,392	5,173	250,502	129,421
215,407	5,030	250,299	129,185
216,421	5,032	250,285	129,169
217,436	5,186	250,208	129,246
218,450	5,318	249,958	129,214
219,465	5,139	249,707	128,924
220,480	4,777	249,500	128,506
221,494	4,616	249,392	128,306
222,509	4,834	249,101	128,325
223,523	4,480	249,142	128,041
224,538	4,396	248,626	127,695
225,553	4,537	248,506	127,738
226,567	4,563	248,389	127,688
227,582	4,769	248,257	127,779
228,596	4,941	248,078	127,818
229,611	4,441	247,848	127,275
230,626	4,134	247,854	127,014
231,640	4,460	247,578	127,129
232,655	4,518	247,566	127,160
233,669	4,445	247,211	126,907
234,684	4,115	247,009	126,521
235,699	4,413	247,104	126,803
236,713	4,843	246,912	127,045
237,728	4,352	246,714	126,530
238,742	4,331	246,400	126,340
239,757	4,331	246,131	126,191
240,772	4,275	246,046	126,091
241,786	4,357	245,922	126,082
242,801	4,118	245,754	125,790
243,815	4,306	245,621	125,864
244,830	4,684	245,477	126,087
245,844	4,658	245,359	125,995
246,859	4,365	245,029	125,575
247,874	4,312	245,146	125,580
248,888	4,415	244,841	125,497
249,903	4,493	244,728	125,491
250,917	4,532	244,685	125,490
251,932	4,831	244,539	125,647
252,947	4,813	244,288	125,491
253,961	4,565	244,071	125,168
254,976	4,569	243,921	125,083
255,990	4,623	243,844	125,076
257,005	4,208	243,727	124,669
258,020	4,302	243,476	124,606
259,034	4,300	243,268	124,487
260,049	4,295	243,183	124,428
261,063	4,345	242,895	124,309
262,078	4,366	242,834	124,285
263,093	4,743	242,717	124,517
264,107	4,558	242,615	124,305
265,122	4,474	242,374	124,103
266,136	4,546	242,202	124,062
267,151	4,576	242,192	124,069
268,166	4,354	241,918	123,740
269,180	4,245	241,737	123,549
270,195	4,921	241,779	124,101
271,209	5,114	241,588	124,147
272,224	4,600	241,375	123,615
273,239	4,085	241,107	123,055
274,253	4,174	240,867	122,993
275,268	4,555	240,832	123,268
276,282	4,387	240,633	123,022
277,297	4,243	240,454	122,804
278,312	4,400	240,361	122,871
279,326	4,514	240,265	122,901
280,341	4,601	240,157	122,904
281,355	4,549	239,913	122,727
282,370	4,780	239,758	122,820
283,384	4,370	239,591	122,398
284,399	4,132	239,429	122,116
285,414	4,214	239,191	122,049
286,428	4,412	239,071	122,133
287,443	4,263	238,919	121,927
288,457	4,356	238,986	122,023
289,472	4,716	238,690	122,146
290,487	4,507	238,541	121,894
291,501	4,411	238,142	121,603
292,516	4,318	238,023	121,458
293,530	4,211	237,874	121,288
294,545	4,292	238,021	121,416
295,560	4,476	237,760	121,416
296,574	4,159	237,472	121,010
297,589	4,438	237,275	121,117
298,603	4,564	237,466	121,303
299,618	4,777	237,252	121,349
300,633	4,551	237,099	121,084
301,647	4,788	236,999	121,207
302,662	4,966	236,849	121,259
303,676	5,066	236,617	121,208
304,691	4,877	236,491	120,985
305,706	4,824	236,345	120,858
306,720	4,928	236,205	120,857
307,735	4,737	236,005	120,595
308,749	4,697	235,776	120,436
309,764	4,695	235,680	120,374
310,779	4,203	235,383	119,830
311,793	4,069	235,316	119,681
312,808	4,073	235,170	119,599
313,822	3,976	234,958	119,405
314,837	3,990	234,767	119,308
315,852	4,001	234,807	119,326
316,866	4,334	234,692	119,515
317,881	4,906	234,609	119,905
318,895	4,939	234,559	119,895
319,910	4,858	234,207	119,641
320,925	4,518	234,089	119,308
321,939	3,952	233,890	118,759
322,954	4,445	233,668	119,015
323,968	4,460	233,646	119,005
324,983	4,516	233,597	119,013
325,997	4,809	233,381	119,118
327,012	4,726	233,334	119,019
328,027	4,561	233,115	118,770
329,041	4,773	232,949	118,838
330,056	5,148	232,959	119,120
331,070	5,329	232,746	119,140
332,085	4,930	232,397	118,645
333,100	4,767	232,231	118,425
334,114	4,679	232,146	118,303
335,129	4,760	232,156	118,360
336,143	5,023	231,959	118,450
337,158	4,916	231,852	118,303
338,173	4,422	231,574	117,774
339,187	4,420	231,481	117,714
340,202	4,743	231,349	117,883
341,216	4,578	231,253	117,698
342,231	4,559	230,933	117,510
343,246	4,786	230,686	117,546
344,260	4,492	230,821	117,381
345,275	4,837	230,665	117,553
346,289	4,925	230,593	117,573
347,304	5,055	230,395	117,560
348,319	4,847	230,270	117,328
349,333	4,767	229,956	117,097
350,348	4,375	229,845	116,733
351,362	4,836	229,575	116,935
352,377	4,463	229,393	116,550
353,392	4,371	229,265	116,404
354,406	4,381	229,193	116,366
355,421	195,421	1318,584	1393,724
356,435	156,754	1451,267	1393,679
