DTS Sentinel unit serial number:	SN410029Multiplexer serial number:	ORYXHardware model number:	OX2-SRSoftware version number:	ORYX F/W v4,00 Oryx Data Collector v3.7.2.0data status	okinstallation	B5 Nyhavnadifferential loss correction	single-endedforward channel	channel 2reverse channel	N/Adate	2023/12/12time	07:12:13forward acquisition time	300,00reverse acquisition time	0,00gamma	499,1914k internal	0,3158k external	0,3158temperature offset calibration	1,0000default loss term (dB/km)	0,3820temperature slope calibration	1,0000multiplexer offset coefficient	1,0000multiplexer slope coefficient	1,0000fibre end	0,00T internal ref (°C)	15,17T ext. ref 1 (°C)	-1,11T ext. ref 2 (°C)	-1,39length (m)	temperature (°C)	Stokes	anti-Stokes-744,400	-40,202	0,096	0,037
-743,385	101,911	-0,227	0,195
-742,371	238,402	0,121	0,148
-741,356	-47,067	-0,289	0,103
-740,342	-26,816	0,175	-0,075
-739,327	-0,966	-0,152	0,079
-738,312	-200,000	0,053	0,261
-737,298	-57,865	-0,267	-0,086
-736,283	218,778	0,081	0,096
-735,269	59,713	-0,284	0,206
-734,254	-72,082	0,136	-0,037
-733,239	-7,991	-0,465	-0,230
-732,225	133,267	0,073	0,069
-731,210	-37,936	-0,114	0,044
-730,196	-200,000	-0,019	-0,072
-729,181	800,000	-0,061	-0,126
-728,167	-161,529	0,156	-0,006
-727,152	138,551	-0,024	-0,023
-726,137	131,955	0,065	-0,061
-725,123	-159,440	-0,155	-0,006
-724,108	-200,000	0,015	-0,102
-723,094	-16,695	-0,056	0,026
-722,079	-200,000	0,007	0,027
-721,064	-200,000	-0,039	-0,153
-720,050	-68,391	-0,102	0,029
-719,035	128,034	0,060	-0,056
-718,021	800,000	0,020	-0,059
-717,006	8,591	-0,111	-0,061
-715,991	374,081	-0,102	-0,153
-714,977	-200,000	0,020	-0,116
-713,962	150,912	0,011	-0,012
-712,948	-200,000	-0,013	-0,133
-711,933	29,813	-0,028	-0,018
-710,918	800,000	-0,026	0,061
-709,904	-31,534	-0,097	0,040
-708,889	-2,024	-0,196	-0,101
-707,875	-15,954	-0,132	-0,062
-706,860	109,715	-0,046	-0,041
-705,845	800,000	0,013	-0,040
-704,831	-39,562	0,133	-0,051
-703,816	-99,915	-0,083	0,015
-702,802	-154,149	-0,062	-0,003
-701,787	-148,422	-0,150	0,009
-700,772	390,008	-0,030	0,046
-699,758	117,301	0,076	-0,069
-698,743	-200,000	0,004	0,057
-697,729	-126,599	0,128	-0,014
-696,714	-145,516	0,050	-0,003
-695,699	571,214	-0,053	-0,095
-694,685	-52,655	0,047	-0,016
-693,670	800,000	0,007	-0,018
-692,656	-62,793	0,036	-0,011
-691,641	-126,595	0,079	0,008
-690,627	-200,000	0,018	0,064
-689,612	800,000	0,049	-0,121
-688,597	462,769	0,042	-0,069
-687,583	577,527	-0,067	-0,121
-686,568	393,282	-0,074	-0,114
-685,554	-122,976	-0,121	-0,014
-684,539	-50,339	0,055	-0,019
-683,524	-94,233	0,037	0,007
-682,510	662,557	-0,050	0,095
-681,495	168,531	-0,017	0,018
-680,481	-36,362	-0,048	0,019
-679,466	109,708	0,028	0,025
-678,451	-83,090	-0,120	-0,028
-677,437	31,745	-0,040	0,025
-676,422	17,500	0,075	-0,044
-675,408	13,313	-0,093	0,053
-674,393	-200,000	-0,003	0,151
-673,378	126,852	-0,116	-0,108
-672,364	-92,456	-0,196	-0,040
-671,349	304,062	-0,092	-0,125
-670,335	-101,341	-0,081	-0,014
-669,320	-50,430	0,175	-0,061
-668,305	-167,272	-0,133	-0,004
-667,291	-19,355	-0,069	-0,031
-666,276	236,141	-0,072	-0,088
-665,262	-166,291	0,119	0,004
-664,247	-24,697	-0,055	-0,024
-663,232	-200,000	-0,038	-0,219
-662,218	-96,391	-0,069	0,013
-661,203	184,606	0,038	-0,042
-660,189	48,822	-0,027	0,019
-659,174	800,000	0,047	-0,118
-658,159	-23,225	-0,096	-0,042
-657,145	-200,000	-0,030	-0,115
-656,130	586,610	0,039	-0,070
-655,116	525,504	-0,053	-0,092
-654,101	-25,384	0,129	0,056
-653,086	62,393	-0,092	-0,068
-652,072	72,974	0,056	-0,043
-651,057	162,769	-0,053	-0,055
-650,043	-200,000	0,017	-0,165
-649,028	436,200	-0,076	-0,123
-648,014	-200,000	-0,006	-0,170
-646,999	-200,000	0,007	-0,067
-645,984	-47,213	-0,121	0,043
-644,970	800,000	0,009	0,029
-643,955	800,000	0,039	-0,123
-642,941	75,810	0,116	-0,090
-641,926	11,983	-0,109	0,061
-640,911	-200,000	-0,003	-0,072
-639,897	443,839	-0,032	-0,052
-638,882	-129,071	0,103	0,010
-637,868	-25,223	-0,142	0,062
-636,853	221,949	-0,062	-0,073
-635,838	-200,000	-0,012	-0,060
-634,824	-123,139	-0,029	0,003
-633,809	-83,869	0,064	0,015
-632,795	104,287	0,075	0,065
-631,780	800,000	-0,015	0,033
-630,765	46,945	-0,064	0,043
-629,751	-123,122	-0,148	-0,017
-628,736	370,498	-0,090	0,134
-627,722	-200,000	0,011	-0,140
-626,707	-61,866	-0,124	-0,038
-625,692	-27,260	0,088	0,038
-624,678	-15,755	-0,025	0,012
-623,663	108,006	-0,033	0,029
-622,649	274,569	0,043	-0,055
-621,634	-56,411	0,142	0,046
-620,619	-63,268	-0,077	-0,023
-619,605	-95,228	-0,019	0,004
-618,590	5,855	0,055	-0,030
-617,576	-200,000	-0,026	0,098
-616,561	366,153	-0,056	-0,083
-615,546	367,795	-0,084	-0,125
-614,532	-200,000	-0,012	-0,050
-613,517	746,851	-0,066	-0,132
-612,503	800,000	0,084	-0,185
-611,488	372,778	0,056	0,083
-610,474	-200,000	0,010	0,204
-609,459	730,396	-0,070	0,137
-608,444	-101,000	-0,077	0,014
-607,430	439,670	0,071	-0,114
-606,415	333,723	-0,048	-0,068
-605,401	-200,000	0,021	-0,084
-604,386	-22,641	0,125	0,055
-603,371	-84,632	0,074	-0,017
-602,357	-72,147	0,123	-0,033
-601,342	-200,000	-0,002	-0,035
-600,328	800,000	-0,080	-0,170
-599,313	403,798	0,015	0,023
-598,298	16,148	-0,089	0,051
-597,284	800,000	0,013	0,031
-596,269	-200,000	-0,005	0,117
-595,255	-38,746	0,051	0,019
-594,240	191,881	-0,141	-0,156
-593,225	7,462	-0,083	-0,045
-592,211	-138,545	-0,021	-0,002
-591,196	194,867	0,029	0,033
-590,182	13,977	-0,139	-0,079
-589,167	485,537	-0,021	0,036
-588,152	-200,000	0,001	0,100
-587,138	370,606	-0,052	0,078
-586,123	34,053	-0,067	-0,042
-585,109	-200,000	0,003	-0,044
-584,094	800,000	-0,003	0,008
-583,079	37,565	0,036	0,023
-582,065	-200,000	0,008	-0,079
-581,050	-124,601	-0,128	0,014
-580,036	-200,000	0,028	0,148
-579,021	800,000	-0,044	-0,120
-578,006	124,552	-0,043	-0,040
-576,992	-200,000	0,011	-0,064
-575,977	-200,000	0,024	0,090
-574,963	800,000	0,019	0,057
-573,948	11,467	-0,061	-0,034
-572,934	204,980	0,128	0,146
-571,919	-127,153	0,014	0,001
-570,904	-89,068	0,030	-0,006
-569,890	-200,000	0,005	-0,029
-568,875	-62,953	-0,111	0,033
-567,861	-200,000	0,002	0,023
-566,846	-103,401	-0,173	-0,030
-565,831	-79,508	-0,063	-0,015
-564,817	-14,584	0,041	0,019
-563,802	-200,000	0,016	-0,130
-562,788	378,627	0,015	-0,022
-561,773	800,000	0,016	0,042
-560,758	-200,000	0,002	0,075
-559,744	800,000	0,023	0,052
-558,729	157,631	0,068	0,069
-557,715	355,446	0,093	-0,136
-556,700	28,471	0,097	-0,060
-555,685	-200,000	-0,005	-0,061
-554,671	32,520	-0,093	-0,059
-553,656	-8,179	-0,052	-0,026
-552,642	-132,436	-0,087	0,008
-551,627	676,617	-0,055	0,105
-550,612	800,000	-0,004	-0,009
-549,598	-50,515	0,034	-0,012
-548,583	-200,000	0,004	0,036
-547,569	159,279	-0,023	-0,023
-546,554	-173,518	0,101	0,002
-545,539	625,648	0,103	0,192
-544,525	-112,396	-0,095	0,014
-543,510	190,638	-0,069	-0,076
-542,496	480,378	-0,064	0,106
-541,481	418,607	-0,054	-0,085
-540,466	623,344	0,014	0,025
-539,452	357,262	0,061	0,089
-538,437	-87,141	-0,056	-0,012
-537,423	124,895	0,046	0,043
-536,408	26,143	-0,040	-0,024
-535,393	-200,000	0,065	-0,000
-534,379	333,967	0,063	0,090
-533,364	113,811	-0,083	0,073
-532,350	-200,000	0,011	0,037
-531,335	128,683	-0,016	-0,015
-530,321	-200,000	-0,002	-0,086
-529,306	-200,000	0,017	0,140
-528,291	59,687	-0,135	0,098
-527,277	800,000	0,007	-0,017
-526,262	800,000	0,054	0,112
-525,248	800,000	-0,051	-0,131
-524,233	114,296	-0,088	0,078
-523,218	375,739	0,069	0,104
-522,204	173,827	-0,055	-0,059
-521,189	-67,087	0,110	0,031
-520,175	68,767	0,131	0,098
-519,160	-125,393	-0,038	0,004
-518,145	96,614	-0,049	0,041
-517,131	317,208	0,116	-0,161
-516,116	-80,551	-0,111	0,027
-515,102	-50,254	-0,021	-0,007
-514,087	-200,000	0,023	0,127
-513,072	-85,080	-0,090	-0,020
-512,058	-200,000	0,016	-0,060
-511,043	-200,000	0,008	-0,062
-510,029	180,291	-0,095	0,102
-509,014	187,275	-0,039	-0,043
-507,999	-170,219	0,094	-0,002
-506,985	-181,048	-0,057	0,001
-505,970	292,964	-0,042	0,056
-504,956	261,034	0,086	-0,109
-503,941	49,411	0,059	0,041
-502,926	-157,180	0,041	-0,002
-501,912	186,032	0,049	-0,054
-500,897	-200,000	-0,007	-0,026
-499,883	34,007	0,119	-0,075
-498,868	-166,110	-0,076	-0,002
-497,853	36,392	-0,054	-0,035
-496,839	422,104	-0,017	-0,027
-495,824	100,184	0,070	-0,059
-494,810	359,864	-0,034	-0,050
-493,795	-200,000	0,002	-0,056
-492,781	-200,000	-0,010	0,046
-491,766	-200,000	0,000	-0,115
-490,751	551,549	0,008	-0,014
-489,737	-40,960	-0,129	-0,048
-488,722	93,259	-0,083	-0,068
-487,708	-200,000	0,036	-0,129
-486,693	800,000	-0,037	0,102
-485,678	800,000	-0,053	0,128
-484,664	-94,623	0,111	0,022
-483,649	-123,223	-0,114	0,013
-482,635	127,595	0,019	0,018
-481,620	800,000	0,039	0,116
-480,605	48,397	0,011	0,008
-479,591	49,886	0,067	-0,046
-478,576	88,202	-0,125	-0,101
-477,562	-72,001	0,122	0,033
-476,547	-166,924	0,053	-0,002
-475,532	-22,823	-0,127	-0,055
-474,518	-152,228	0,126	0,007
-473,503	-78,872	-0,021	0,005
-472,489	-76,634	0,058	0,015
-471,474	-55,704	0,067	0,022
-470,459	-127,666	-0,123	-0,013
-469,445	-200,000	-0,019	0,069
-468,430	116,862	-0,003	0,003
-467,416	76,747	-0,074	0,057
-466,401	-200,000	0,021	0,119
-465,386	-200,000	0,002	0,044
-464,372	800,000	0,056	0,140
-463,357	800,000	0,018	-0,041
-462,343	-200,000	0,011	0,056
-461,328	54,484	-0,077	-0,054
-460,313	-200,000	-0,006	0,059
-459,299	-200,000	0,011	0,093
-458,284	223,313	0,023	-0,027
-457,270	-200,000	-0,038	0,128
-456,255	41,363	0,039	-0,026
-455,241	-115,871	-0,125	0,017
-454,226	-70,261	0,153	0,042
-453,211	-200,000	-0,004	0,080
-452,197	36,791	-0,016	-0,011
-451,182	36,280	-0,128	0,082
-450,168	-74,291	-0,095	-0,025
-449,153	-71,290	0,082	0,022
-448,138	364,738	-0,027	0,039
-447,124	113,857	-0,026	-0,023
-446,109	509,300	-0,032	0,055
-445,095	153,738	0,132	0,132
-444,080	-105,730	-0,111	0,018
-443,065	-22,186	0,140	-0,062
-442,051	-109,775	0,066	0,010
-441,036	606,061	-0,026	0,047
-440,022	-200,000	0,016	-0,094
-439,007	-200,000	-0,012	0,169
-437,992	82,201	0,059	0,046
-436,978	-18,589	0,132	-0,060
-435,963	1,250	-0,076	0,040
-434,949	69,076	-0,034	0,025
-433,934	18,431	-0,038	0,022
-432,919	-200,000	0,008	-0,084
-431,905	-200,000	0,004	0,050
-430,890	-200,000	0,013	-0,055
-429,876	-200,000	0,004	-0,017
-428,861	-156,450	0,102	0,005
-427,846	5,847	0,007	0,004
-426,832	-138,524	0,064	-0,005
-425,817	83,247	-0,124	0,099
-424,803	800,000	0,018	-0,043
-423,788	760,367	-0,045	0,088
-422,773	800,000	0,009	0,028
-421,759	-121,748	0,205	0,024
-420,744	-31,470	0,187	-0,076
-419,730	-200,000	0,003	-0,010
-418,715	142,390	0,091	-0,088
-417,701	1,902	-0,125	-0,066
-416,686	-21,065	0,065	0,029
-415,671	67,297	0,123	-0,091
-414,657	240,685	-0,081	-0,099
-413,642	0,631	0,119	-0,062
-412,628	-40,149	-0,061	0,023
-411,613	-200,000	0,037	0,123
-410,598	21,100	-0,078	-0,046
-409,584	106,291	0,043	-0,037
-408,569	101,533	-0,114	0,097
-407,555	7,658	0,145	0,079
-406,540	-113,401	-0,050	0,007
-405,525	800,000	0,021	-0,067
-404,511	125,839	-0,059	0,054
-403,496	203,674	-0,090	-0,101
-402,482	-200,000	0,006	-0,052
-401,467	68,585	0,028	-0,021
-400,452	-200,000	0,010	-0,097
-399,438	-110,893	-0,088	-0,013
-398,423	598,771	-0,044	-0,080
-397,409	-200,000	0,001	0,036
-396,394	-15,856	-0,118	-0,054
-395,379	-200,000	-0,026	0,099
-394,365	81,599	0,045	0,035
-393,350	16,650	-0,034	0,019
-392,336	-21,231	-0,010	-0,005
-391,321	-200,000	-0,016	-0,075
-390,306	-200,000	0,002	0,127
-389,292	800,000	-0,058	-0,128
-388,277	-200,000	0,004	-0,045
-387,263	308,738	-0,038	0,052
-386,248	-93,485	-0,063	0,013
-385,233	0,940	0,116	0,060
-384,219	35,195	0,049	0,031
-383,204	-33,385	-0,119	0,048
-382,190	800,000	-0,014	0,041
-381,175	-65,223	-0,152	-0,044
-380,160	247,657	-0,046	-0,057
-379,146	-176,607	0,038	0,001
-378,131	-200,000	-0,014	0,141
-377,117	-200,000	-0,003	0,082
-376,102	-200,000	-0,010	0,100
-375,088	39,958	-0,016	-0,011
-374,073	-59,212	-0,201	0,062
-373,058	-31,573	-0,017	0,007
-372,044	-85,598	-0,090	0,020
-371,029	-56,001	0,018	-0,006
-370,015	-32,798	0,014	0,006
-369,000	95,556	-0,067	0,056
-367,985	-83,737	0,031	-0,007
-366,971	594,569	-0,085	-0,153
-365,956	-152,544	0,156	0,008
-364,942	-62,205	0,040	-0,012
-363,927	300,291	-0,014	-0,019
-362,912	-200,000	0,017	-0,107
-361,898	800,000	0,051	-0,128
-360,883	41,619	0,047	0,031
-359,869	23,418	0,068	-0,041
-358,854	-200,000	-0,007	0,034
-357,839	-200,000	0,005	-0,070
-356,825	760,269	0,015	0,031
-355,810	688,952	0,033	-0,063
-354,796	103,761	-0,082	0,070
-353,781	800,000	-0,050	-0,128
-352,766	153,325	0,114	-0,113
-351,752	-200,000	0,004	-0,051
-350,737	184,519	0,044	-0,047
-349,723	800,000	0,074	0,171
-348,708	315,894	-0,030	-0,042
-347,693	-63,545	-0,023	0,007
-346,679	47,866	-0,082	-0,055
-345,664	-30,116	0,058	-0,024
-344,650	-171,577	0,154	-0,004
-343,635	800,000	-0,049	0,100
-342,620	382,104	0,052	-0,078
-341,606	800,000	0,055	0,175
-340,591	800,000	-0,031	0,093
-339,577	185,041	-0,091	-0,099
-338,562	105,754	-0,057	-0,049
-337,548	800,000	-0,021	0,056
-336,533	54,899	-0,046	0,032
-335,518	5,538	0,071	0,038
-334,504	-200,000	-0,021	0,155
-333,489	-134,965	0,058	0,005
-332,475	800,000	-0,062	0,137
-331,460	36,878	-0,057	0,036
-330,445	31,356	0,011	0,007
-329,431	-200,000	-0,025	0,114
-328,416	155,444	0,131	0,131
-327,402	-200,000	0,003	-0,020
-326,387	240,968	-0,103	0,125
-325,372	2,322	0,049	-0,026
-324,358	800,000	-0,008	-0,018
-323,343	-200,000	0,012	-0,078
-322,329	192,924	-0,110	0,120
-321,314	-72,644	0,067	-0,018
-320,299	30,985	-0,094	-0,059
-319,285	-200,000	0,000	0,022
-318,270	-200,000	-0,026	0,095
-317,256	-101,236	0,070	0,012
-316,241	-65,359	0,027	-0,008
-315,226	-13,101	0,104	0,049
-314,212	-15,292	0,056	0,026
-313,197	758,559	-0,068	0,133
-312,183	31,258	0,128	-0,080
-311,168	100,310	-0,037	0,031
-310,153	800,000	-0,024	0,055
-309,139	143,530	-0,057	0,055
-308,124	-42,502	0,043	0,016
-307,110	435,124	0,043	0,068
-306,095	-200,000	0,017	0,116
-305,080	82,722	0,049	0,039
-304,066	-81,126	-0,153	-0,036
-303,051	-125,107	-0,133	0,015
-302,037	800,000	0,030	-0,062
-301,022	-97,194	-0,058	-0,011
-300,008	107,712	0,100	0,086
-298,993	264,346	0,024	0,030
-297,978	218,172	0,094	0,108
-296,964	-112,056	0,048	-0,007
-295,949	36,990	-0,050	-0,032
-294,935	-200,000	-0,012	-0,089
-293,920	-19,891	-0,031	-0,014
-292,905	800,000	-0,023	0,052
-291,891	-190,107	0,145	-0,001
-290,876	-200,000	-0,012	0,183
-289,862	800,000	0,028	-0,073
-288,847	-81,220	-0,150	0,036
-287,832	210,157	-0,038	0,043
-286,818	-85,326	0,137	-0,031
-285,803	99,119	0,082	0,069
-284,789	64,182	0,023	0,017
-283,774	-200,000	0,012	0,111
-282,759	-200,000	0,001	-0,060
-281,745	-200,000	0,007	0,039
-280,730	-200,000	-0,017	0,098
-279,716	327,966	-0,059	-0,082
-278,701	-51,563	0,180	0,060
-277,686	800,000	0,041	0,084
-276,672	-140,551	0,111	0,008
-275,657	800,000	0,038	0,116
-274,643	800,000	0,039	-0,079
-273,628	629,455	0,086	-0,158
-272,613	650,275	-0,040	-0,075
-271,599	-115,501	0,060	0,008
-270,584	-200,000	0,006	-0,075
-269,570	800,000	0,060	0,143
-268,555	519,523	-0,072	-0,122
-267,540	-200,000	0,015	-0,156
-266,526	-36,180	0,114	-0,044
-265,511	-79,228	-0,102	-0,025
-264,497	800,000	-0,036	-0,098
-263,482	-125,726	0,090	-0,010
-262,467	185,879	0,069	0,074
-261,453	691,386	-0,057	-0,109
-260,438	136,297	-0,088	0,083
-259,424	-200,000	-0,015	-0,066
-258,409	29,801	-0,066	0,041
-257,395	-200,000	-0,001	-0,068
-256,380	-100,987	0,082	-0,014
-255,365	243,744	-0,045	0,055
-254,351	593,354	0,047	0,085
-253,336	800,000	0,038	0,104
-252,322	-92,151	-0,038	0,008
-251,307	-2,017	-0,011	-0,006
-250,292	-86,037	0,111	-0,025
-249,278	269,476	0,131	0,167
-248,263	-53,339	0,055	0,018
-247,249	-143,725	-0,058	0,004
-246,234	-84,336	0,007	0,002
-245,219	-68,315	-0,115	-0,032
-244,205	-99,742	-0,131	-0,023
-243,190	-200,000	0,006	-0,087
-242,176	-200,000	0,003	-0,133
-241,161	57,764	-0,060	-0,043
-240,146	-101,797	-0,126	0,022
-239,132	-200,000	-0,036	-0,131
-238,117	800,000	0,059	-0,123
-237,103	13,663	-0,020	-0,011
-236,088	-200,000	-0,010	0,110
-235,073	260,005	0,058	-0,073
-234,059	95,577	0,015	-0,012
-233,044	-200,000	0,064	0,208
-232,030	453,131	-0,041	-0,065
-231,015	502,062	-0,024	-0,041
-230,000	800,000	-0,067	-0,165
-228,986	-114,673	0,062	-0,008
-227,971	535,816	0,078	-0,135
-226,957	-99,154	-0,151	-0,027
-225,942	8,587	-0,117	0,064
-224,927	-35,605	-0,075	-0,029
-223,913	-148,528	0,160	-0,009
-222,898	-195,900	-0,120	-0,001
-221,884	-200,000	-0,006	-0,045
-220,869	-156,784	-0,066	-0,003
-219,855	-115,800	-0,104	0,014
-218,840	56,201	-0,030	-0,021
-217,825	-68,420	0,039	0,011
-216,811	800,000	0,031	-0,071
-215,796	261,140	-0,024	0,031
-214,782	800,000	-0,022	-0,051
-213,767	-111,757	0,099	0,014
-212,752	-200,000	0,011	-0,078
-211,738	800,000	0,014	-0,034
-210,723	-200,000	0,015	0,068
-209,709	406,280	-0,030	-0,045
-208,694	800,000	-0,009	-0,028
-207,679	133,012	-0,056	0,052
-206,665	198,604	0,062	-0,069
-205,650	-84,714	0,190	-0,043
-204,636	5,670	0,080	0,043
-203,621	800,000	-0,022	0,057
-202,606	-200,000	-0,020	0,165
-201,592	64,868	0,056	-0,041
-200,577	100,169	-0,007	0,006
-199,563	120,650	-0,108	-0,097
-198,548	-126,645	-0,048	-0,005
-197,533	-200,000	-0,032	0,215
-196,519	48,103	0,112	0,076
-195,504	-200,000	0,040	-0,204
-194,490	-41,617	-0,037	-0,014
-193,475	-63,358	0,107	0,032
-192,460	-72,516	0,086	0,023
-191,446	-5,189	0,090	-0,044
-190,431	-72,810	0,017	0,004
-189,417	800,000	0,024	-0,051
-188,402	165,072	0,067	0,068
-187,387	-200,000	-0,012	-0,211
-186,373	-101,806	-0,018	0,003
-185,358	-130,199	0,134	-0,013
-184,344	157,541	-0,027	-0,027
-183,329	-32,404	0,064	0,026
-182,315	-75,016	0,046	-0,012
-181,300	800,000	-0,056	-0,156
-180,285	-200,000	0,013	-0,160
-179,271	-200,000	-0,003	-0,027
-178,256	214,584	0,034	0,039
-177,242	-200,000	-0,032	-0,175
-176,227	56,819	0,049	-0,034
-175,212	-200,000	0,008	0,132
-174,198	-34,930	-0,156	-0,061
-173,183	49,546	0,097	-0,065
-172,169	301,150	-0,128	-0,171
-171,154	-200,000	0,008	-0,135
-170,139	800,000	0,058	0,182
-169,125	-94,525	0,121	-0,024
-168,110	800,000	0,035	0,099
-167,096	-30,825	0,021	-0,009
-166,081	-87,968	-0,048	-0,010
-165,066	-200,000	-0,015	0,055
-164,052	-77,262	0,058	0,015
-163,037	-67,242	-0,164	0,046
-162,023	142,165	0,037	0,035
-161,008	77,608	0,043	-0,033
-159,993	477,982	0,065	-0,107
-158,979	-111,153	0,027	-0,004
-157,964	-138,981	0,057	0,004
-156,950	800,000	-0,019	-0,049
-155,935	-39,555	0,137	-0,051
-154,920	-200,000	-0,032	-0,135
-153,906	215,790	0,056	-0,064
-152,891	-200,000	-0,008	0,064
-151,877	56,613	0,054	-0,038
-150,862	298,830	-0,106	-0,141
-149,847	314,392	0,033	0,045
-148,833	77,854	-0,099	0,076
-147,818	-95,117	0,128	-0,025
-146,804	-200,000	-0,016	0,077
-145,789	-122,039	0,029	0,003
-144,775	800,000	-0,072	0,159
-143,760	-133,878	-0,103	-0,009
-142,745	631,636	-0,046	-0,084
-141,731	130,794	0,102	-0,094
-140,716	487,087	0,020	0,033
-139,702	270,567	-0,048	0,061
-138,687	117,552	-0,076	-0,067
-137,672	439,859	-0,017	0,027
-136,658	-80,927	-0,148	-0,035
-135,643	-200,000	-0,031	0,140
-134,629	92,366	0,113	0,091
-133,614	-200,000	-0,012	0,179
-132,599	-80,971	0,092	-0,022
-131,585	-200,000	-0,004	-0,044
-130,570	75,706	-0,010	-0,008
-129,556	-172,764	-0,047	0,001
-128,541	-98,305	-0,008	0,002
-127,526	559,673	0,039	-0,067
-126,512	-200,000	0,009	-0,085
-125,497	330,973	0,022	-0,031
-124,483	-200,000	-0,018	-0,073
-123,468	10,657	0,066	-0,036
-122,453	800,000	-0,031	-0,097
-121,439	-200,000	-0,011	-0,198
-120,424	167,347	0,061	-0,062
-119,410	231,298	-0,118	-0,139
-118,395	-122,609	0,109	-0,013
-117,380	-36,827	0,078	-0,030
-116,366	-200,000	-0,013	-0,067
-115,351	-174,747	-0,095	-0,002
-114,337	146,687	0,096	-0,093
-113,322	-101,288	-0,033	0,006
-112,307	5,262	-0,029	0,015
-111,293	9,750	0,123	0,067
-110,278	575,654	-0,047	0,082
-109,264	-37,409	0,101	-0,039
-108,249	547,828	-0,025	-0,044
-107,234	-200,000	0,009	-0,068
-106,220	-200,000	-0,047	-0,164
-105,205	-200,000	-0,038	0,163
-104,191	108,542	0,073	0,063
-103,176	-96,284	-0,120	0,023
-102,162	27,991	0,148	0,089
-101,147	-164,532	0,147	-0,005
-100,132	-200,000	-0,023	-0,112
-99,118	-58,986	-0,048	-0,015
-98,103	-87,719	0,114	-0,025
-97,089	-200,000	-0,010	-0,086
-96,074	224,510	-0,022	0,026
-95,059	291,751	0,086	0,112
-94,045	-200,000	-0,031	-0,101
-93,030	170,145	-0,044	0,045
-92,016	516,376	0,038	-0,064
-91,001	-32,161	-0,131	0,053
-89,986	104,562	0,051	-0,043
-88,972	156,023	0,113	0,112
-87,957	282,550	0,056	0,072
-86,943	500,517	-0,088	0,146
-85,928	583,087	-0,027	-0,048
-84,913	73,796	-0,054	-0,040
-83,899	800,000	-0,049	0,117
-82,884	800,000	-0,032	0,081
-81,870	-112,305	-0,080	0,011
-80,855	-200,000	0,024	0,117
-79,840	-200,000	0,000	0,017
-78,826	800,000	0,019	-0,055
-77,811	800,000	-0,038	0,077
-76,797	-27,810	-0,085	0,035
-75,782	-21,802	0,071	0,031
-74,767	-200,000	0,002	0,072
-73,753	800,000	0,037	0,106
-72,738	155,393	-0,032	0,032
-71,724	359,333	-0,036	0,052
-70,709	471,323	0,063	-0,102
-69,694	800,000	0,024	-0,051
-68,680	51,356	-0,043	0,030
-67,665	-200,000	-0,004	0,046
-66,651	387,587	0,055	0,082
-65,636	800,000	0,008	0,018
-64,622	-200,000	0,027	-0,140
-63,607	800,000	-0,037	-0,106
-62,592	-200,000	0,014	-0,103
-61,578	-200,000	0,004	-0,058
-60,563	-35,308	-0,134	0,052
-59,549	-58,147	0,067	0,021
-58,534	7,309	-1,930	-1,032
-57,519	-200,000	-0,201	-0,798
-56,505	-200,000	-1,288	-4,877
-55,490	53,940	0,599	0,412
-54,476	800,000	5,261	12,226
-53,461	-200,000	17,634	285,359
-52,446	800,000	728,310	2221,612
-51,432	536,573	1644,244	2812,212
-50,417	110,030	1634,725	1407,569
-49,403	75,977	1286,868	975,787
-48,388	32,012	1027,338	633,949
-47,373	20,232	988,891	571,410
-46,359	18,405	976,847	558,441
-45,344	15,491	973,044	546,713
-44,330	15,690	971,521	546,485
-43,315	15,272	969,552	543,994
-42,300	15,204	968,305	543,050
-41,286	15,155	967,575	542,460
-40,271	15,196	966,406	541,916
-39,257	15,223	965,595	541,527
-38,242	15,167	964,747	540,848
-37,227	15,216	964,113	540,629
-36,213	15,198	963,187	540,030
-35,198	15,151	962,279	539,348
-34,184	15,221	961,447	539,087
-33,169	15,192	960,345	538,353
-32,154	15,257	959,303	537,960
-31,140	15,211	958,476	537,326
-30,125	15,211	958,040	537,059
-29,111	15,187	957,066	536,415
-28,096	15,267	956,228	536,180
-27,082	15,247	955,747	535,826
-26,067	15,175	955,070	535,194
-25,052	15,236	954,013	534,776
-24,038	15,174	953,609	534,329
-23,023	15,178	952,904	533,927
-22,009	15,185	952,333	533,606
-20,994	15,222	951,711	533,355
-19,979	15,178	951,075	532,838
-18,965	15,157	950,400	532,372
-17,950	15,229	949,719	532,197
-16,936	15,164	949,076	531,610
-15,921	15,133	948,565	531,202
-14,906	15,032	947,965	530,526
-13,892	15,126	947,092	530,316
-12,877	15,106	946,406	529,846
-11,863	15,067	945,733	529,323
-10,848	15,075	945,316	529,094
-9,833	15,176	944,787	529,097
-8,819	15,198	944,085	528,753
-7,804	15,122	943,484	528,156
-6,790	15,153	942,831	527,868
-5,775	15,159	942,531	527,699
-4,760	15,180	941,693	527,273
-3,746	15,121	941,123	526,747
-2,731	14,963	940,501	525,877
-1,717	14,966	939,649	525,391
-0,702	15,011	939,104	525,206
0,313	14,749	938,428	524,794
1,327	18,167	936,218	534,270
2,342	27,312	793,315	476,916
3,356	24,167	458,239	270,656
4,371	-3,390	313,981	156,207
5,386	-7,512	295,795	142,981
6,400	-9,436	289,694	138,113
7,415	-9,892	287,306	136,514
8,429	-9,925	285,653	135,684
9,444	-9,972	284,958	135,297
10,459	-10,021	284,271	134,910
11,473	-10,079	283,536	134,493
12,488	-9,867	283,222	134,538
13,502	-10,090	282,630	134,029
14,517	-10,026	282,141	133,847
15,531	-9,879	281,538	133,691
16,546	-10,155	281,424	133,359
17,561	-10,113	280,976	133,175
18,575	-10,061	280,564	133,018
19,590	-10,031	280,345	132,931
20,604	-9,988	280,031	132,811
21,619	-10,073	279,656	132,540
22,634	-10,234	279,415	132,260
23,648	-10,098	278,827	132,100
24,663	-10,013	278,617	132,070
25,677	-10,049	278,398	131,920
26,692	-10,036	278,206	131,830
27,707	-9,885	277,901	131,817
28,721	-10,141	277,600	131,419
29,736	-10,244	277,343	131,189
30,750	-10,108	277,183	131,230
31,765	-10,096	276,815	131,055
32,780	-9,984	276,486	130,993
33,794	-10,047	276,252	130,812
34,809	-9,974	276,181	130,835
35,823	-10,191	275,854	130,464
36,838	-10,215	275,507	130,266
37,853	-10,174	275,385	130,235
38,867	-9,939	275,028	130,275
39,882	-10,159	274,869	129,982
40,896	-10,164	274,701	129,886
41,911	-9,954	274,330	129,896
42,926	-10,157	274,116	129,594
43,940	-10,046	273,695	129,486
44,955	-10,052	273,561	129,405
45,969	-10,289	273,341	129,069
46,984	-10,390	273,106	128,852
47,999	-10,421	272,745	128,641
49,013	-10,669	272,652	128,356
50,028	-10,795	272,396	128,107
51,042	-10,846	272,007	127,865
52,057	-10,987	271,965	127,703
53,071	-10,954	271,583	127,543
54,086	-10,660	271,553	127,789
55,101	-10,317	271,213	127,935
56,115	-10,431	271,177	127,802
57,130	-10,166	271,113	128,005
58,144	-9,956	270,905	128,089
59,159	-9,989	270,555	127,882
60,174	-9,918	270,399	127,862
61,188	-10,066	270,019	127,535
62,203	-10,163	269,784	127,323
63,217	-10,136	269,602	127,251
64,232	-10,097	269,406	127,183
65,247	-10,071	269,162	127,080
66,261	-10,081	268,884	126,928
67,276	-10,207	268,705	126,717
68,290	-10,567	268,468	126,265
69,305	-10,351	268,257	126,352
70,320	-10,460	268,170	126,200
71,334	-10,182	267,894	126,312
72,349	-10,080	267,567	126,240
73,363	-10,100	267,547	126,201
74,378	-9,931	267,226	126,192
75,393	-10,081	266,986	125,931
76,407	-10,098	266,857	125,843
77,422	-10,094	266,652	125,740
78,436	-9,992	266,348	125,677
79,451	-9,976	266,291	125,654
80,466	-10,118	265,898	125,328
81,480	-10,117	265,653	125,203
82,495	-10,282	265,504	124,973
83,509	-9,947	265,196	125,118
84,524	-10,262	265,034	124,747
85,539	-10,237	264,756	124,627
86,553	-10,323	264,593	124,462
87,568	-10,292	264,472	124,422
88,582	-10,139	264,115	124,380
89,597	-10,253	264,050	124,236
90,611	-10,111	263,855	124,261
91,626	-10,080	263,646	124,180
92,641	-10,021	263,541	124,172
93,655	-10,063	263,248	123,985
94,670	-10,166	263,096	123,810
95,684	-9,963	262,747	123,816
96,699	-10,128	262,597	123,588
97,714	-10,245	262,542	123,446
98,728	-10,165	262,147	123,320
99,743	-10,364	261,951	123,040
100,757	-10,307	261,751	122,986
101,772	-10,292	261,639	122,936
102,787	-10,069	261,308	122,967
103,801	-10,021	261,275	122,983
104,816	-10,143	261,249	122,852
105,830	-10,010	261,019	122,850
106,845	-9,722	260,688	122,939
107,860	-9,962	260,454	122,605
108,874	-9,897	260,158	122,513
109,889	-10,104	260,069	122,276
110,903	-9,986	259,771	122,230
111,918	-10,055	259,659	122,106
112,933	-10,177	259,418	121,874
113,947	-9,978	259,456	122,056
114,962	-10,040	259,063	121,806
115,976	-10,246	259,168	121,663
116,991	-10,114	258,884	121,635
118,006	-10,197	258,653	121,442
119,020	-10,188	258,336	121,290
120,035	-10,061	258,304	121,377
121,049	-9,896	258,229	121,475
122,064	-10,136	257,967	121,130
123,079	-9,856	257,605	121,194
124,093	-10,053	257,485	120,955
125,108	-10,115	257,166	120,740
126,122	-10,465	257,075	120,382
127,137	-10,445	256,691	120,209
128,151	-10,282	256,492	120,247
129,166	-10,331	256,532	120,212
130,181	-10,242	256,333	120,185
131,195	-10,368	256,050	119,933
132,210	-10,068	255,662	120,000
133,224	-9,949	255,665	120,093
134,239	-10,051	255,408	119,874
135,254	-9,897	255,213	119,905
136,268	-10,141	255,078	119,621
137,283	-10,432	254,851	119,252
138,297	-10,441	254,584	119,109
139,312	-10,409	254,424	119,051
140,327	-10,189	254,295	119,169
141,341	-9,893	254,229	119,382
142,356	-9,925	254,050	119,260
143,370	-9,845	253,924	119,259
144,385	-9,830	253,595	119,107
145,400	-9,782	253,498	119,091
146,414	-9,913	253,363	118,905
147,429	-9,842	253,205	118,881
148,443	-9,955	253,026	118,690
149,458	-9,841	253,005	118,767
150,473	-9,560	252,558	118,786
151,487	-9,903	252,487	118,450
152,502	-9,937	252,268	118,308
153,516	-9,852	251,988	118,238
154,531	-9,841	251,939	118,214
155,546	-9,868	251,800	118,115
156,560	-9,858	251,548	117,995
157,575	-10,129	251,377	117,674
158,589	-9,918	251,172	117,747
159,604	-9,858	250,870	117,645
160,619	-9,696	250,660	117,673
161,633	-9,815	250,639	117,553
162,648	-9,688	250,422	117,548
163,662	-9,977	250,438	117,300
164,677	-10,113	250,186	117,057
165,692	-9,836	249,874	117,134
166,706	-9,686	249,780	117,206
167,721	-9,699	249,604	117,102
168,735	-9,764	249,441	116,960
169,750	-9,621	249,300	117,004
170,764	-9,514	249,081	116,981
171,779	-9,743	249,016	116,747
172,794	-9,960	248,907	116,504
173,808	-9,844	248,637	116,464
174,823	-10,219	248,339	116,000
175,837	-10,392	248,206	115,783
176,852	-10,074	248,174	116,024
177,867	-9,933	248,008	116,053
178,881	-9,817	247,782	116,034
179,896	-9,857	247,600	115,906
180,910	-9,700	247,402	115,933
181,925	-9,739	247,324	115,854
182,940	-9,719	247,083	115,747
183,954	-9,661	246,928	115,713
184,969	-9,833	246,831	115,514
185,983	-9,787	246,643	115,454
186,998	-9,743	246,544	115,434
188,013	-9,689	246,271	115,341
189,027	-9,716	246,079	115,218
190,042	-9,641	245,781	115,131
191,056	-9,790	245,820	115,015
192,071	-9,711	245,525	114,932
193,086	-9,905	245,445	114,724
194,100	-9,749	245,194	114,725
195,115	-9,690	245,110	114,725
196,129	-9,725	244,816	114,547
197,144	-9,784	244,552	114,366
198,159	-9,705	244,565	114,426
199,173	-9,744	244,291	114,256
200,188	-9,814	244,031	114,066
201,202	-10,069	243,876	113,775
202,217	-10,412	243,687	113,395
203,232	-10,534	243,346	113,127
204,246	-10,127	243,377	113,464
205,261	-9,541	243,243	113,871
206,275	-10,222	242,885	113,137
207,290	-7,034	244,380	116,441
208,304	-0,144	246,510	123,140
209,319	3,350	247,272	126,397
210,334	3,872	247,258	126,809
211,348	4,142	247,179	126,979
212,363	4,200	247,240	127,047
213,377	4,120	247,032	126,863
214,392	4,240	246,802	126,833
215,407	3,980	246,637	126,523
216,421	3,921	246,542	126,414
217,436	4,411	246,390	126,727
218,450	4,252	246,321	126,550
219,465	4,013	245,992	126,173
220,480	3,934	245,600	125,897
221,494	3,769	245,746	125,825
222,509	3,798	245,482	125,702
223,523	3,763	245,335	125,587
224,538	3,553	245,056	125,261
225,553	3,537	244,826	125,120
226,567	3,633	244,841	125,195
227,582	3,781	244,572	125,167
228,596	4,002	244,336	125,215
229,611	3,647	244,165	124,827
230,626	3,357	244,030	124,512
231,640	3,492	243,875	124,531
232,655	3,693	243,646	124,566
233,669	3,607	243,561	124,441
234,684	3,629	243,335	124,333
235,699	3,767	243,453	124,494
236,713	3,995	243,249	124,563
237,728	3,807	242,935	124,239
238,742	3,499	242,748	123,884
239,757	3,171	242,617	123,541
240,772	3,421	242,401	123,622
241,786	3,553	242,323	123,677
242,801	3,671	241,905	123,548
243,815	3,415	241,985	123,371
244,830	3,625	241,839	123,455
245,844	3,602	241,763	123,387
246,859	3,483	241,578	123,186
247,874	3,384	241,299	122,953
248,888	3,584	241,253	123,079
249,903	3,565	241,116	122,983
250,917	3,787	241,032	123,107
251,932	3,845	240,898	123,073
252,947	4,036	240,541	123,034
253,961	3,681	240,507	122,721
254,976	3,753	240,380	122,703
255,990	3,712	240,291	122,614
257,005	3,532	239,944	122,282
258,020	3,356	239,704	122,010
259,034	3,432	239,627	122,019
260,049	3,887	239,488	122,299
261,063	3,557	239,268	121,914
262,078	3,725	239,140	121,972
263,093	3,762	239,040	121,939
264,107	3,668	238,870	121,766
265,122	3,563	238,742	121,607
266,136	3,783	238,640	121,719
267,151	3,998	238,542	121,829
268,166	3,625	238,354	121,426
269,180	3,464	238,089	121,154
270,195	4,145	238,109	121,691
271,209	4,095	238,118	121,646
272,224	3,703	237,692	121,108
273,239	3,471	237,417	120,774
274,253	3,549	237,276	120,753
275,268	3,748	237,141	120,830
276,282	3,711	237,128	120,783
277,297	3,486	236,916	120,488
278,312	3,637	236,745	120,508
279,326	3,671	236,658	120,480
280,341	3,812	236,431	120,465
281,355	3,799	236,413	120,434
282,370	4,008	236,173	120,465
283,384	3,761	236,065	120,206
284,399	3,466	235,810	119,834
285,414	3,303	235,763	119,673
286,428	3,579	235,586	119,787
287,443	3,633	235,318	119,683
288,457	3,681	235,319	119,711
289,472	3,999	235,053	119,812
290,487	3,903	235,017	119,708
291,501	3,433	234,788	119,215
292,516	3,363	234,598	119,054
293,530	3,272	234,461	118,903
294,545	3,778	234,422	119,265
295,560	3,689	234,203	119,074
296,574	3,297	233,939	118,625
297,589	3,514	233,872	118,749
298,603	3,757	233,929	118,956
299,618	3,659	233,657	118,731
300,633	3,692	233,624	118,729
301,647	3,836	233,316	118,673
302,662	4,164	233,374	118,946
303,676	4,067	233,248	118,796
304,691	3,967	232,986	118,574
305,706	3,984	232,833	118,499
306,720	4,051	232,740	118,493
307,735	3,975	232,648	118,377
308,749	3,804	232,449	118,134
309,764	3,659	232,123	117,847
310,779	3,398	231,992	117,569
311,793	3,620	231,654	117,557
312,808	3,293	231,642	117,290
313,822	3,260	231,477	117,172
314,837	3,370	231,239	117,124
315,852	3,082	231,396	116,973
316,866	3,596	231,221	117,267
317,881	4,062	231,106	117,554
318,895	3,973	230,922	117,382
319,910	4,129	230,798	117,428
320,925	3,646	230,417	116,855
321,939	3,420	230,385	116,657
322,954	3,510	230,253	116,648
323,968	3,525	229,949	116,495
324,983	3,825	229,949	116,712
325,997	3,965	229,921	116,794
327,012	3,785	229,587	116,478
328,027	3,723	229,395	116,323
329,041	3,756	229,358	116,319
330,056	4,125	229,530	116,675
331,070	4,417	229,364	116,802
332,085	4,435	229,152	116,697
333,100	4,083	228,846	116,265
334,114	4,185	228,661	116,238
335,129	3,749	228,614	115,874
336,143	4,123	228,452	116,063
337,158	4,192	228,290	116,023
338,173	3,935	228,173	115,759
339,187	3,725	228,039	115,523
340,202	3,794	227,925	115,507
341,216	4,026	227,718	115,566
342,231	3,883	227,478	115,327
343,246	3,796	227,400	115,212
344,260	3,971	227,278	115,271
345,275	3,950	227,303	115,257
346,289	4,077	227,189	115,284
347,304	3,984	227,002	115,110
348,319	4,102	226,907	115,139
349,333	3,934	226,513	114,804
350,348	3,836	226,372	114,649
351,362	3,743	226,372	114,570
352,377	3,488	226,138	114,251
353,392	3,382	225,984	114,083
354,406	3,645	225,713	114,132
355,421	193,946	1322,363	1394,010
356,435	155,388	1455,960	1394,006
