DTS Sentinel unit serial number:	SN410029Multiplexer serial number:	ORYXHardware model number:	OX2-SRSoftware version number:	ORYX F/W v4,00 Oryx Data Collector v3.7.2.0data status	okinstallation	B5 Nyhavnadifferential loss correction	single-endedforward channel	channel 2reverse channel	N/Adate	2023/12/14time	04:27:13forward acquisition time	300,00reverse acquisition time	0,00gamma	499,1914k internal	0,3157k external	0,3157temperature offset calibration	1,0000default loss term (dB/km)	0,3820temperature slope calibration	1,0000multiplexer offset coefficient	1,0000multiplexer slope coefficient	1,0000fibre end	0,00T internal ref (°C)	7,88T ext. ref 1 (°C)	-8,60T ext. ref 2 (°C)	-8,68length (m)	temperature (°C)	Stokes	anti-Stokes-744,400	148,390	0,045	0,045
-743,385	-111,193	-0,421	0,063
-742,371	255,094	0,084	0,106
-741,356	-76,262	-0,460	-0,119
-740,342	216,983	0,124	0,146
-739,327	-88,670	-0,342	-0,074
-738,312	102,696	0,124	0,107
-737,298	19,964	-0,308	-0,183
-736,283	20,737	0,129	0,077
-735,269	-49,726	-0,309	-0,108
-734,254	140,648	0,212	0,206
-733,239	-59,005	-0,620	-0,196
-732,225	-62,419	0,255	0,078
-731,210	328,753	-0,036	-0,050
-730,196	-39,655	-0,105	0,040
-729,181	397,724	-0,023	-0,035
-728,167	-200,000	0,004	0,017
-727,152	61,735	-0,077	-0,056
-726,137	61,345	-0,137	0,100
-725,123	162,128	-0,075	-0,077
-724,108	217,680	-0,126	-0,148
-723,094	-158,864	0,114	-0,005
-722,079	800,000	-0,070	-0,198
-721,064	-200,000	-0,017	-0,105
-720,050	58,252	-0,154	0,111
-719,035	74,078	-0,095	0,074
-718,021	303,537	0,035	-0,048
-717,006	74,748	0,015	-0,012
-715,991	35,026	-0,188	-0,121
-714,977	-200,000	0,009	-0,074
-713,962	351,458	-0,065	-0,094
-712,948	-19,468	-0,060	-0,027
-711,933	275,286	-0,075	-0,099
-710,918	800,000	0,022	0,045
-709,904	-96,464	-0,044	0,009
-708,889	-181,158	-0,192	0,003
-707,875	162,505	0,129	0,133
-706,860	-200,000	-0,047	-0,174
-705,845	-120,614	-0,158	-0,019
-704,831	44,583	0,094	0,064
-703,816	-200,000	0,048	0,187
-702,802	-124,044	0,176	0,020
-701,787	-188,102	-0,071	-0,001
-700,772	69,432	-0,068	0,051
-699,758	-200,000	0,006	-0,043
-698,743	800,000	0,022	-0,058
-697,729	-200,000	0,037	0,182
-696,714	-200,000	-0,025	0,127
-695,699	-21,764	-0,110	-0,049
-694,685	-200,000	0,001	-0,177
-693,670	-200,000	0,006	-0,064
-692,656	172,234	-0,076	0,081
-691,641	-130,647	0,146	-0,014
-690,627	298,634	0,015	0,021
-689,612	-48,587	-0,090	0,032
-688,597	-200,000	0,026	-0,100
-687,583	55,229	0,012	-0,009
-686,568	129,129	0,018	0,017
-685,554	154,688	-0,060	-0,061
-684,539	241,182	0,035	-0,043
-683,524	800,000	-0,042	-0,087
-682,510	-66,414	0,158	0,046
-681,495	-200,000	0,006	0,021
-680,481	800,000	-0,088	-0,208
-679,466	-131,052	0,041	-0,004
-678,451	800,000	0,050	0,111
-677,437	106,788	0,150	0,131
-676,422	-200,000	0,011	0,167
-675,408	-89,083	0,114	0,025
-674,393	17,944	-0,160	0,094
-673,378	521,480	-0,034	-0,059
-672,364	-200,000	-0,013	0,060
-671,349	120,620	-0,019	-0,018
-670,335	-36,389	-0,104	0,041
-669,320	276,450	0,074	-0,097
-668,305	-98,379	0,053	0,010
-667,291	-36,062	-0,094	-0,037
-666,276	376,772	-0,039	-0,059
-665,262	-35,723	0,050	0,020
-664,247	-200,000	0,013	-0,120
-663,232	800,000	-0,022	0,065
-662,218	800,000	-0,024	-0,056
-661,203	800,000	-0,033	-0,077
-660,189	-200,000	0,055	0,178
-659,174	136,363	0,075	-0,072
-658,159	-200,000	-0,007	-0,051
-657,145	-92,478	0,123	0,025
-656,130	623,461	0,025	-0,047
-655,116	523,648	-0,021	0,036
-654,101	-200,000	-0,005	0,082
-653,086	-200,000	-0,022	-0,081
-652,072	-200,000	0,006	0,131
-651,057	49,896	-0,060	-0,041
-650,043	-47,351	-0,111	0,040
-649,028	600,561	-0,070	-0,129
-648,014	800,000	0,032	-0,082
-646,999	-200,000	-0,015	0,052
-645,984	119,953	-0,029	0,026
-644,970	207,449	0,055	-0,063
-643,955	-66,843	-0,107	-0,031
-642,941	405,636	0,055	-0,086
-641,926	-43,032	-0,044	0,016
-640,911	-35,662	0,088	-0,035
-639,897	405,924	0,061	0,096
-638,882	352,873	-0,051	-0,074
-637,868	-65,280	0,070	0,020
-636,853	-115,662	-0,134	-0,018
-635,838	111,737	-0,108	0,096
-634,824	-200,000	-0,004	-0,026
-633,809	211,652	0,107	0,124
-632,795	-116,486	0,142	0,019
-631,780	-86,401	-0,139	-0,031
-630,765	-79,699	0,058	0,014
-629,751	28,344	-0,081	-0,050
-628,736	-126,403	-0,090	-0,010
-627,722	140,853	0,093	-0,090
-626,707	90,073	-0,059	0,048
-625,692	100,753	0,109	0,093
-624,678	-200,000	-0,007	0,036
-623,663	-200,000	0,012	-0,051
-622,649	-200,000	-0,005	-0,047
-621,634	800,000	-0,063	-0,137
-620,619	-200,000	-0,029	0,161
-619,605	140,414	0,011	-0,011
-618,590	272,879	0,030	0,039
-617,576	136,889	-0,023	0,022
-616,561	-130,658	-0,080	-0,008
-615,546	-200,000	-0,027	-0,151
-614,532	-61,233	-0,096	-0,029
-613,517	800,000	0,029	-0,065
-612,503	251,764	-0,021	-0,027
-611,488	800,000	-0,042	0,112
-610,474	99,589	0,103	0,087
-609,459	-24,422	-0,139	0,061
-608,444	-200,000	-0,004	-0,065
-607,430	-200,000	0,004	0,068
-606,415	800,000	-0,033	0,102
-605,401	37,750	-0,037	-0,024
-604,386	-13,005	-0,190	0,090
-603,371	165,902	-0,084	0,087
-602,357	73,144	-0,096	0,073
-601,342	156,762	0,030	-0,030
-600,328	-146,317	-0,099	-0,006
-599,313	642,363	0,041	-0,077
-598,298	800,000	-0,011	-0,023
-597,284	114,648	-0,085	-0,076
-596,269	800,000	-0,035	-0,105
-595,255	58,450	0,103	0,074
-594,240	-200,000	0,048	-0,218
-593,225	20,840	-0,072	-0,043
-592,211	-200,000	-0,043	-0,149
-591,196	-200,000	0,019	-0,080
-590,182	-200,000	-0,022	0,086
-589,167	800,000	0,026	0,081
-588,152	-153,408	0,155	0,008
-587,138	542,799	-0,019	0,034
-586,123	615,930	0,056	-0,103
-585,109	192,134	-0,124	0,138
-584,094	371,389	-0,023	-0,035
-583,079	-19,420	-0,107	-0,048
-582,065	278,279	0,023	-0,030
-581,050	11,915	0,098	-0,055
-580,036	-200,000	-0,017	-0,063
-579,021	-200,000	0,011	-0,090
-578,006	130,242	0,059	0,055
-576,992	128,742	0,033	-0,031
-575,977	-200,000	0,002	-0,020
-574,963	36,633	0,016	0,010
-573,948	-115,752	-0,045	0,006
-572,934	800,000	0,007	-0,019
-571,919	181,699	-0,032	-0,034
-570,904	556,893	-0,085	-0,151
-569,890	800,000	0,053	-0,144
-568,875	-111,853	0,160	-0,023
-567,861	-153,183	-0,026	-0,001
-566,846	-200,000	-0,014	0,073
-565,831	31,009	-0,057	-0,035
-564,817	-40,183	-0,075	0,028
-563,802	238,468	0,073	-0,089
-562,788	-10,463	-0,046	-0,022
-561,773	-200,000	-0,012	0,055
-560,758	1,793	0,105	0,055
-559,744	-200,000	0,020	-0,073
-558,729	-13,703	-0,087	-0,041
-557,715	400,805	-0,033	0,051
-556,700	664,913	0,035	0,067
-555,685	-200,000	0,008	-0,101
-554,671	266,875	-0,093	-0,119
-553,656	-41,597	0,091	0,034
-552,642	-81,669	-0,090	-0,022
-551,627	124,651	-0,016	0,015
-550,612	800,000	-0,040	0,086
-549,598	206,302	-0,054	0,062
-548,583	138,701	-0,064	-0,061
-547,569	73,522	-0,145	-0,111
-546,554	-200,000	-0,044	0,164
-545,539	-200,000	-0,007	0,059
-544,525	-63,518	-0,046	0,014
-543,510	-67,908	-0,097	-0,028
-542,496	285,329	-0,033	0,044
-541,481	-81,474	0,152	-0,036
-540,466	-200,000	0,009	-0,067
-539,452	-40,069	0,038	0,014
-538,437	-200,000	0,053	0,194
-537,423	216,951	-0,121	0,141
-536,408	-120,947	0,087	-0,011
-535,393	-31,655	0,067	-0,027
-534,379	-59,085	0,093	-0,029
-533,364	800,000	-0,047	-0,098
-532,350	-200,000	0,056	-0,198
-531,335	152,788	-0,131	0,131
-530,321	-200,000	0,009	-0,089
-529,306	15,091	0,099	0,057
-528,291	-47,783	-0,138	-0,049
-527,277	-105,355	0,055	0,009
-526,262	194,642	-0,054	0,060
-525,248	178,479	-0,068	-0,073
-524,233	-88,115	0,047	0,010
-523,218	85,509	0,092	-0,074
-522,204	-58,516	0,068	-0,022
-521,189	60,686	-0,071	0,051
-520,175	-200,000	0,001	-0,153
-519,160	153,952	-0,158	-0,158
-518,145	454,050	0,058	-0,093
-517,131	244,428	-0,122	0,150
-516,116	800,000	0,027	0,077
-515,102	-200,000	0,001	-0,069
-514,087	800,000	-0,052	-0,128
-513,072	-200,000	0,016	-0,069
-512,058	101,861	0,028	-0,024
-511,043	-200,000	-0,022	0,117
-510,029	209,314	-0,054	-0,062
-509,014	-200,000	-0,009	0,035
-507,999	26,273	-0,034	0,021
-506,985	148,433	0,098	-0,096
-505,970	601,470	0,026	0,048
-504,956	-200,000	-0,015	-0,096
-503,941	-12,746	0,105	0,050
-502,926	-200,000	0,005	0,115
-501,912	-143,286	0,106	-0,007
-500,897	-200,000	-0,005	0,080
-499,883	800,000	0,007	-0,020
-498,868	-51,933	0,069	0,023
-497,853	-54,211	-0,151	-0,050
-496,839	118,706	0,125	-0,113
-495,824	800,000	-0,027	-0,055
-494,810	-168,588	-0,047	0,001
-493,795	-100,888	0,159	-0,028
-492,781	-107,942	-0,286	0,045
-491,766	496,732	0,027	0,045
-490,751	-200,000	-0,023	-0,134
-489,737	-115,622	0,139	-0,019
-488,722	800,000	-0,006	-0,013
-487,708	379,877	-0,103	0,155
-486,693	-200,000	-0,012	-0,055
-485,678	67,909	-0,076	-0,056
-484,664	-200,000	-0,001	0,014
-483,649	-200,000	0,014	0,047
-482,635	-127,091	-0,074	-0,008
-481,620	768,715	0,026	-0,052
-480,605	-150,274	0,056	0,003
-479,591	130,454	-0,030	-0,028
-478,576	-115,560	-0,017	0,002
-477,562	-91,992	-0,109	-0,022
-476,547	9,071	-0,095	-0,052
-475,532	62,969	0,116	0,084
-474,518	-200,000	-0,007	-0,087
-473,503	334,794	0,040	0,057
-472,489	800,000	-0,019	-0,045
-471,474	47,107	-0,030	-0,020
-470,459	434,104	-0,065	-0,104
-469,445	800,000	0,017	0,039
-468,430	800,000	-0,029	0,094
-467,416	-200,000	-0,005	0,109
-466,401	18,798	0,120	0,070
-465,386	-200,000	-0,004	0,025
-464,372	-200,000	-0,002	-0,111
-463,357	61,293	-0,101	0,073
-462,343	-165,784	-0,028	-0,001
-461,328	175,164	0,048	-0,051
-460,313	51,547	0,032	0,022
-459,299	-89,541	0,119	-0,025
-458,284	114,150	-0,047	0,041
-457,270	747,317	-0,034	0,067
-456,255	-200,000	0,008	-0,108
-455,241	-200,000	0,034	-0,208
-454,226	-36,903	-0,032	0,013
-453,211	298,940	0,016	0,021
-452,197	-62,515	0,109	-0,033
-451,182	-200,000	0,012	-0,053
-450,168	365,651	0,056	0,083
-449,153	716,219	-0,029	-0,055
-448,138	-200,000	0,007	0,054
-447,124	17,114	0,070	-0,040
-446,109	16,904	-0,098	0,056
-445,095	380,391	0,047	0,071
-444,080	514,723	0,038	0,065
-443,065	800,000	-0,017	-0,053
-442,051	-123,867	-0,126	0,014
-441,036	160,502	-0,049	0,050
-440,022	-62,377	-0,138	-0,041
-439,007	-153,736	0,102	-0,005
-437,992	263,544	0,121	-0,153
-436,978	-182,399	-0,102	0,001
-435,963	125,446	0,053	-0,049
-434,949	-106,814	0,136	0,022
-433,934	190,403	0,095	-0,104
-432,919	800,000	0,036	-0,078
-431,905	-200,000	-0,003	0,048
-430,890	13,587	-0,065	-0,037
-429,876	-200,000	0,017	0,076
-428,861	-68,385	0,099	0,028
-427,846	665,162	-0,042	-0,079
-426,832	156,165	0,036	-0,036
-425,817	573,867	-0,007	-0,012
-424,803	108,565	0,052	-0,046
-423,788	-166,249	0,075	-0,002
-422,773	-200,000	-0,001	0,092
-421,759	53,138	-0,075	0,052
-420,744	-42,328	0,096	-0,035
-419,730	-200,000	0,010	0,054
-418,715	32,331	-0,020	-0,012
-417,701	-4,780	0,057	0,029
-416,686	471,154	0,019	-0,031
-415,671	102,200	0,081	0,069
-414,657	87,350	0,043	-0,035
-413,642	201,415	-0,038	0,043
-412,628	-9,087	0,043	-0,021
-411,613	-200,000	0,011	-0,116
-410,598	272,868	-0,029	-0,037
-409,584	-29,060	0,123	-0,051
-408,569	800,000	0,090	0,219
-407,555	-200,000	-0,004	-0,057
-406,540	-24,248	0,062	-0,027
-405,525	-200,000	-0,024	-0,106
-404,511	-6,540	-0,111	-0,055
-403,496	800,000	0,029	-0,079
-402,482	142,359	0,107	-0,103
-401,467	62,874	0,090	-0,065
-400,452	466,489	-0,029	-0,047
-399,438	-200,000	0,004	0,099
-398,423	-200,000	0,005	0,055
-397,409	66,458	-0,138	-0,102
-396,394	-89,402	-0,063	0,013
-395,379	800,000	0,091	-0,188
-394,365	-200,000	0,003	-0,068
-393,350	800,000	-0,028	0,074
-392,336	455,888	-0,051	-0,082
-391,321	1,709	-0,086	-0,045
-390,306	-200,000	-0,000	-0,002
-389,292	142,331	0,014	-0,014
-388,277	-18,296	0,123	-0,056
-387,263	207,856	-0,031	0,035
-386,248	-200,000	0,013	-0,048
-385,233	62,342	-0,041	0,030
-384,219	-200,000	0,010	0,071
-383,204	-128,712	0,081	-0,008
-382,190	-200,000	-0,013	-0,060
-381,175	114,622	0,060	0,053
-380,160	-122,411	-0,037	0,004
-379,146	-200,000	-0,012	-0,092
-378,131	611,436	0,081	0,147
-377,117	145,214	-0,104	0,101
-376,102	241,827	0,025	0,031
-375,088	-200,000	-0,012	-0,167
-374,073	-200,000	-0,013	-0,079
-373,058	-45,799	0,060	-0,021
-372,044	684,968	-0,025	0,048
-371,029	-124,289	0,140	-0,016
-370,015	800,000	-0,009	0,024
-369,000	-200,000	-0,026	-0,094
-367,985	631,139	0,059	-0,110
-366,971	81,551	0,042	0,033
-365,956	-200,000	0,009	-0,060
-364,942	-63,550	0,063	0,019
-363,927	-200,000	-0,019	0,103
-362,912	-81,721	-0,045	0,011
-361,898	-8,421	-0,143	-0,070
-360,883	69,563	0,047	-0,035
-359,869	282,079	-0,031	-0,041
-358,854	539,686	0,069	0,119
-357,839	-200,000	0,003	-0,029
-356,825	-200,000	-0,030	0,119
-355,810	-102,644	-0,051	0,009
-354,796	-157,260	-0,098	-0,004
-353,781	-200,000	0,000	-0,058
-352,766	800,000	-0,015	0,036
-351,752	707,190	-0,040	0,077
-350,737	496,812	0,062	0,105
-349,723	800,000	0,015	0,042
-348,708	35,789	-0,109	-0,069
-347,693	27,300	0,066	0,040
-346,679	182,710	0,054	0,058
-345,664	800,000	-0,043	-0,121
-344,650	362,498	0,118	0,172
-343,635	620,697	-0,020	0,037
-342,620	232,819	-0,043	0,051
-341,606	-200,000	0,007	0,133
-340,591	-120,454	0,042	0,005
-339,577	244,111	-0,068	-0,083
-338,562	35,551	-0,178	-0,113
-337,548	266,441	-0,099	-0,126
-336,533	-135,404	0,159	0,014
-335,518	189,124	0,059	0,065
-334,504	-200,000	0,005	0,069
-333,489	-105,592	0,078	0,013
-332,475	-18,534	-0,119	-0,054
-331,460	209,021	0,026	0,029
-330,445	-140,623	-0,015	0,001
-329,431	-89,392	-0,042	-0,009
-328,416	-100,769	0,174	0,031
-327,402	379,597	-0,055	0,082
-326,387	-33,220	-0,077	-0,031
-325,372	197,455	-0,030	-0,033
-324,358	12,517	0,071	-0,040
-323,343	601,364	0,037	0,067
-322,329	-200,000	-0,019	0,155
-321,314	125,710	0,078	0,071
-320,299	-200,000	-0,047	0,173
-319,285	136,482	-0,046	-0,044
-318,270	-83,519	0,102	-0,023
-317,256	800,000	0,030	-0,072
-316,241	-62,523	0,118	-0,035
-315,226	378,841	0,050	-0,075
-314,212	800,000	0,055	0,123
-313,197	800,000	-0,024	0,057
-312,183	184,094	-0,086	-0,092
-311,168	92,154	0,036	0,029
-310,153	-200,000	0,001	0,026
-309,139	-107,083	0,005	0,001
-308,124	-40,549	0,117	0,044
-307,110	462,994	0,060	0,097
-306,095	19,368	-0,032	0,018
-305,080	800,000	-0,050	0,105
-304,066	800,000	-0,055	0,122
-303,051	14,265	-0,146	0,082
-302,037	-32,628	0,038	0,015
-301,022	473,080	0,076	0,125
-300,008	-200,000	0,007	0,103
-298,993	-45,117	0,109	0,039
-297,978	102,718	-0,061	-0,052
-296,964	141,620	-0,103	-0,099
-295,949	-5,536	-0,078	-0,038
-294,935	-74,126	0,105	0,027
-293,920	-166,689	0,139	0,004
-292,905	125,312	0,016	0,014
-291,891	120,938	0,054	-0,049
-290,876	-200,000	0,001	0,017
-289,862	-200,000	0,018	0,095
-288,847	800,000	0,072	-0,227
-287,832	239,770	0,021	-0,025
-286,818	-200,000	-0,017	-0,091
-285,803	-95,498	-0,059	-0,011
-284,789	-200,000	-0,008	0,110
-283,774	-69,422	-0,091	-0,025
-282,759	716,543	-0,054	0,104
-281,745	69,200	-0,076	-0,056
-280,730	121,424	-0,126	-0,114
-279,716	800,000	0,023	0,053
-278,701	727,925	0,034	0,066
-277,686	-200,000	0,018	-0,097
-276,672	800,000	-0,017	-0,049
-275,657	57,298	-0,051	0,036
-274,643	-17,778	-0,009	-0,004
-273,628	752,339	-0,034	0,067
-272,613	-200,000	0,020	0,112
-271,599	-24,609	0,092	0,039
-270,584	-165,206	0,043	0,001
-269,570	-200,000	0,034	0,000
-268,555	800,000	0,028	0,066
-267,540	596,909	0,029	-0,053
-266,526	800,000	0,057	-0,123
-265,511	326,168	0,039	-0,055
-264,497	800,000	0,038	0,083
-263,482	-200,000	0,007	-0,101
-262,467	-189,678	0,101	-0,001
-261,453	-41,655	-0,070	-0,026
-260,438	103,025	-0,017	-0,014
-259,424	-200,000	-0,005	0,090
-258,409	78,210	-0,011	-0,008
-257,395	79,929	0,100	-0,077
-256,380	-76,316	0,106	-0,027
-255,365	-200,000	0,023	0,208
-254,351	-10,122	-0,015	-0,007
-253,336	96,116	-0,079	-0,066
-252,322	-29,568	-0,155	0,064
-251,307	-200,000	0,007	-0,195
-250,292	800,000	-0,039	0,101
-249,278	800,000	0,041	0,112
-248,263	144,848	0,034	0,033
-247,249	-68,420	0,063	0,018
-246,234	52,664	0,116	0,080
-245,219	800,000	-0,047	0,114
-244,205	20,880	0,039	-0,023
-243,190	-103,592	0,128	0,021
-242,176	45,081	-0,106	0,071
-241,161	20,730	0,060	-0,035
-240,146	436,562	-0,045	-0,071
-239,132	332,348	-0,026	0,036
-238,117	-200,000	-0,013	-0,075
-237,103	413,572	0,063	-0,098
-236,088	21,310	0,074	0,043
-235,073	57,467	-0,023	-0,016
-234,059	-41,316	0,053	0,019
-233,044	-107,583	0,135	0,021
-232,030	-146,597	-0,016	0,001
-231,015	127,948	0,061	0,056
-230,000	-27,633	-0,077	-0,032
-228,986	14,325	-0,030	-0,017
-227,971	-76,949	0,126	0,032
-226,957	-200,000	-0,018	0,112
-225,942	-144,405	-0,089	-0,006
-224,927	3,838	-0,038	0,020
-223,913	800,000	-0,017	-0,052
-222,898	-200,000	-0,010	0,059
-221,884	800,000	0,023	-0,071
-220,869	-5,103	-0,104	0,051
-219,855	397,914	-0,004	0,005
-218,840	-200,000	-0,012	-0,071
-217,825	-135,042	-0,062	-0,005
-216,811	800,000	-0,058	-0,117
-215,796	157,922	0,046	-0,046
-214,782	-70,134	-0,108	0,029
-213,767	-52,720	0,098	0,032
-212,752	409,377	0,052	0,080
-211,738	800,000	-0,062	0,130
-210,723	-200,000	-0,013	0,170
-209,709	166,381	-0,041	0,042
-208,694	438,986	-0,062	0,098
-207,679	-76,068	-0,116	-0,029
-206,665	721,874	0,117	0,226
-205,650	-77,014	0,128	0,032
-204,636	-200,000	-0,013	0,136
-203,621	800,000	0,051	0,154
-202,606	-200,000	-0,025	0,082
-201,592	-73,910	-0,069	-0,018
-200,577	800,000	-0,050	-0,113
-199,563	-200,000	-0,057	0,210
-198,548	-71,156	0,104	0,028
-197,533	110,038	-0,046	0,040
-196,519	-200,000	0,005	0,060
-195,504	-200,000	-0,006	-0,151
-194,490	-200,000	-0,029	-0,110
-193,475	-74,832	-0,061	-0,016
-192,460	800,000	0,054	-0,152
-191,446	-95,267	-0,065	-0,012
-190,431	380,925	0,020	0,030
-189,417	-200,000	0,002	0,029
-188,402	-87,569	-0,044	-0,010
-187,387	83,932	-0,053	0,042
-186,373	-34,810	-0,156	0,061
-185,358	-4,996	0,033	0,016
-184,344	800,000	-0,017	-0,036
-183,329	-200,000	-0,027	0,133
-182,315	120,807	0,059	0,053
-181,300	3,397	-0,053	0,028
-180,285	-80,538	-0,072	0,017
-179,271	800,000	0,026	-0,052
-178,256	-200,000	0,013	0,121
-177,242	105,309	0,032	-0,027
-176,227	-200,000	-0,034	0,165
-175,212	117,199	-0,022	0,019
-174,198	-200,000	0,038	-0,138
-173,183	800,000	0,010	0,029
-172,169	178,344	-0,095	0,100
-171,154	193,660	0,027	-0,029
-170,139	108,114	0,072	0,062
-169,125	-200,000	0,019	-0,087
-168,110	-76,861	0,057	-0,014
-167,096	-138,128	-0,125	-0,010
-166,081	96,905	-0,102	-0,084
-165,066	652,091	0,010	-0,018
-164,052	-21,696	0,067	0,029
-163,037	78,815	0,121	-0,093
-162,023	-110,260	0,233	0,035
-161,008	48,696	0,104	0,070
-159,993	-200,000	0,008	0,082
-158,979	-200,000	-0,019	-0,120
-157,964	77,261	0,028	0,022
-156,950	-197,279	-0,083	0,000
-155,935	-83,211	0,066	0,015
-154,920	716,457	-0,061	0,117
-153,906	-200,000	0,030	-0,212
-152,891	-144,612	-0,069	-0,004
-151,877	40,891	0,108	-0,070
-150,862	-6,061	-0,101	-0,050
-149,847	-167,970	-0,199	-0,006
-148,833	-117,497	0,138	0,018
-147,818	-25,447	-0,040	0,017
-146,804	-53,169	-0,041	0,013
-145,789	-200,000	-0,002	0,045
-144,775	-200,000	0,002	-0,005
-143,760	800,000	-0,063	0,135
-142,745	-122,403	-0,090	0,010
-141,731	307,574	0,058	-0,079
-140,716	310,001	0,105	0,142
-139,702	-200,000	-0,018	0,087
-138,687	65,411	-0,007	0,005
-137,672	800,000	-0,024	-0,066
-136,658	-200,000	0,023	0,103
-135,643	0,728	0,049	0,025
-134,629	-200,000	-0,008	0,081
-133,614	-37,189	-0,066	0,025
-132,599	198,488	-0,093	0,103
-131,585	15,282	-0,050	0,028
-130,570	-25,904	0,068	-0,029
-129,556	338,653	-0,119	-0,167
-128,541	100,669	0,110	-0,092
-127,526	-159,682	-0,033	0,001
-126,512	285,877	0,060	0,078
-125,497	-200,000	0,008	0,253
-124,483	18,568	0,089	0,051
-123,468	-110,107	-0,058	0,009
-122,453	-112,297	-0,036	0,005
-121,439	164,147	-0,040	-0,040
-120,424	419,968	-0,101	-0,157
-119,410	800,000	-0,036	0,095
-118,395	75,579	0,023	-0,018
-117,380	-200,000	-0,008	-0,033
-116,366	9,669	0,127	-0,069
-115,351	-54,871	-0,029	-0,009
-114,337	-36,732	-0,050	0,019
-113,322	68,032	0,012	0,009
-112,307	800,000	-0,039	-0,079
-111,293	-200,000	0,007	0,064
-110,278	-61,226	0,015	0,005
-109,264	-200,000	-0,022	-0,136
-108,249	-200,000	-0,047	-0,158
-107,234	14,235	0,131	0,073
-106,220	286,424	0,062	-0,080
-105,205	-168,607	0,185	-0,005
-104,191	-200,000	-0,007	0,150
-103,176	124,815	0,009	0,008
-102,162	-200,000	-0,002	-0,054
-101,147	-107,007	-0,045	-0,007
-100,132	44,367	0,001	0,001
-99,118	-99,575	-0,043	0,008
-98,103	-200,000	0,011	0,047
-97,089	800,000	0,077	0,202
-96,074	624,985	-0,058	-0,105
-95,059	800,000	0,031	-0,067
-94,045	-69,778	-0,100	-0,027
-93,030	-72,865	0,065	0,017
-92,016	-58,638	-0,063	-0,020
-91,001	93,463	-0,048	0,039
-89,986	56,472	0,058	0,041
-88,972	-200,000	0,006	-0,032
-87,957	271,876	-0,048	0,061
-86,943	302,404	-0,048	-0,064
-85,928	92,220	-0,073	-0,059
-84,913	-118,510	0,040	0,005
-83,899	543,725	-0,038	-0,066
-82,884	-121,530	0,036	0,004
-81,870	-95,382	-0,053	0,010
-80,855	458,452	-0,077	0,123
-79,840	-104,565	-0,043	0,007
-78,826	-59,937	-0,161	0,049
-77,811	-104,203	0,080	-0,013
-76,797	800,000	-0,028	0,069
-75,782	-200,000	0,002	-0,020
-74,767	19,482	-0,048	0,028
-73,753	705,639	-0,036	-0,069
-72,738	-200,000	0,048	0,171
-71,724	800,000	0,013	0,039
-70,709	-44,492	-0,017	-0,006
-69,694	800,000	-0,018	0,038
-68,680	-98,311	0,096	0,017
-67,665	-200,000	-0,002	0,038
-66,651	-200,000	0,017	0,107
-65,636	-17,024	-0,096	0,044
-64,622	800,000	-0,035	-0,084
-63,607	-200,000	0,009	0,084
-62,592	800,000	0,081	0,180
-61,578	-80,239	0,061	0,015
-60,563	-200,000	0,003	0,080
-59,549	-200,000	0,012	0,242
-58,534	83,140	-2,621	-2,047
-57,519	20,102	0,461	-0,266
-56,505	-200,000	-1,733	-5,548
-55,490	556,707	1,150	1,997
-54,476	800,000	5,215	11,231
-53,461	-200,000	22,317	348,418
-52,446	800,000	760,272	2291,125
-51,432	511,859	1644,246	2759,133
-50,417	96,631	1606,221	1319,718
-49,403	64,362	1263,717	912,546
-48,388	22,788	1016,340	596,199
-47,373	19,484	983,904	566,261
-46,359	12,905	970,884	537,249
-45,344	8,559	967,683	521,233
-44,330	8,963	965,732	521,482
-43,315	8,039	963,831	517,417
-42,300	7,903	962,809	516,403
-41,286	7,908	961,879	515,903
-40,271	7,925	960,750	515,330
-39,257	7,920	959,879	514,826
-38,242	7,856	959,099	514,178
-37,227	7,908	958,166	513,827
-36,213	7,909	957,363	513,381
-35,198	7,876	956,588	512,837
-34,184	7,918	955,771	512,516
-33,169	7,877	954,797	511,842
-32,154	7,933	954,060	511,604
-31,140	7,968	952,965	511,113
-30,125	7,989	952,319	510,812
-29,111	7,940	951,549	510,220
-28,096	8,009	950,693	509,965
-27,082	7,995	950,116	509,589
-26,067	7,918	949,527	509,006
-25,052	7,916	948,614	508,488
-24,038	7,912	947,925	508,087
-23,023	7,829	947,313	507,474
-22,009	7,948	946,700	507,507
-20,994	7,939	946,120	507,146
-19,979	7,954	945,354	506,762
-18,965	7,826	944,764	506,017
-17,950	7,843	944,374	505,841
-16,936	7,832	943,578	505,359
-15,921	7,858	942,940	505,082
-14,906	7,858	942,098	504,611
-13,892	7,840	941,568	504,250
-12,877	7,717	941,053	503,562
-11,863	7,795	940,339	503,407
-10,848	7,760	939,740	502,955
-9,833	7,866	939,232	503,001
-8,819	7,814	938,594	502,476
-7,804	7,790	937,985	502,054
-6,790	7,779	937,521	501,749
-5,775	7,915	936,687	501,713
-4,760	7,836	936,255	501,212
-3,746	7,835	935,804	500,948
-2,731	7,669	934,786	499,858
-1,717	7,654	934,316	499,539
-0,702	7,697	933,732	499,344
0,313	7,492	933,053	499,087
1,327	10,951	930,712	508,686
2,342	19,621	778,720	448,309
3,356	14,523	447,058	249,688
4,371	-11,876	311,882	146,164
5,386	-15,487	294,315	134,275
6,400	-17,590	288,087	129,343
7,415	-17,814	285,676	128,029
8,429	-18,411	283,908	126,645
9,444	-18,369	282,941	126,243
10,459	-18,260	282,414	126,101
11,473	-18,384	281,843	125,716
12,488	-18,387	281,329	125,472
13,502	-18,244	280,721	125,327
14,517	-18,185	280,464	125,259
15,531	-18,312	280,023	124,928
16,546	-17,944	279,506	125,039
17,561	-18,149	279,178	124,685
18,575	-18,088	278,931	124,622
19,590	-18,369	278,616	124,202
20,604	-17,982	278,264	124,403
21,619	-18,152	277,973	124,100
22,634	-17,938	277,387	124,031
23,648	-18,081	277,270	123,832
24,663	-18,086	277,053	123,718
25,677	-18,031	276,781	123,638
26,692	-18,092	276,396	123,397
27,707	-18,013	276,082	123,321
28,721	-18,044	275,851	123,178
29,736	-18,016	275,449	123,014
30,750	-18,030	275,411	122,972
31,765	-18,019	275,076	122,822
32,780	-18,211	274,920	122,561
33,794	-18,122	274,589	122,485
34,809	-18,004	274,366	122,486
35,823	-18,138	274,112	122,236
36,838	-17,988	273,804	122,229
37,853	-17,877	273,492	122,183
38,867	-17,972	273,349	122,019
39,882	-17,969	273,026	121,867
40,896	-17,953	273,028	121,872
41,911	-18,011	272,617	121,623
42,926	-18,140	272,489	121,435
43,940	-17,955	272,045	121,398
44,955	-17,873	271,930	121,413
45,969	-17,975	271,767	121,234
46,984	-17,969	271,485	121,103
47,999	-18,129	271,454	120,930
49,013	-17,861	271,136	121,025
50,028	-17,786	270,821	120,944
51,042	-17,861	270,617	120,773
52,057	-17,879	270,426	120,660
53,071	-17,901	270,152	120,507
54,086	-17,677	269,860	120,573
55,101	-17,864	269,859	120,389
56,115	-17,877	269,489	120,201
57,130	-17,815	269,241	120,136
58,144	-17,995	268,939	119,826
59,159	-18,222	268,677	119,490
60,174	-18,086	268,505	119,528
61,188	-18,013	268,246	119,469
62,203	-18,026	267,985	119,329
63,217	-18,035	267,800	119,228
64,232	-18,030	267,541	119,107
65,247	-17,995	267,345	119,041
66,261	-17,963	267,150	118,973
67,276	-17,843	266,794	118,913
68,290	-17,828	266,749	118,896
69,305	-17,920	266,592	118,732
70,320	-17,930	266,255	118,562
71,334	-17,704	265,931	118,612
72,349	-18,026	265,775	118,240
73,363	-17,965	265,388	118,112
74,378	-18,050	265,195	117,939
75,393	-17,987	264,975	117,888
76,407	-17,950	264,891	117,873
77,422	-18,097	264,712	117,650
78,436	-17,954	264,282	117,578
79,451	-17,893	264,028	117,509
80,466	-17,985	263,971	117,390
81,480	-17,905	263,581	117,279
82,495	-17,916	263,485	117,215
83,509	-17,956	263,278	117,077
84,524	-17,919	263,178	117,055
85,539	-17,863	262,939	116,988
86,553	-17,946	262,838	116,859
87,568	-17,834	262,265	116,694
88,582	-17,907	262,341	116,652
89,597	-18,005	262,038	116,419
90,611	-18,046	261,810	116,271
91,626	-18,088	261,630	116,144
92,641	-18,140	261,530	116,042
93,655	-17,948	261,310	116,105
94,670	-17,906	260,990	115,990
95,684	-17,875	260,711	115,883
96,699	-18,093	260,584	115,624
97,714	-17,982	260,481	115,665
98,728	-17,926	260,245	115,600
99,743	-17,899	260,076	115,538
100,757	-17,895	259,801	115,410
101,772	-17,971	259,644	115,263
102,787	-17,741	259,236	115,274
103,801	-17,907	259,178	115,091
104,816	-18,011	258,925	114,877
105,830	-17,836	258,787	114,960
106,845	-18,005	258,538	114,690
107,860	-18,026	258,359	114,582
108,874	-17,856	258,141	114,625
109,889	-18,129	257,921	114,278
110,903	-17,944	257,835	114,391
111,918	-17,858	257,529	114,321
112,933	-18,095	257,424	114,056
113,947	-17,959	257,175	114,055
114,962	-18,037	256,961	113,881
115,976	-18,071	256,802	113,771
116,991	-17,838	256,428	113,799
118,006	-18,117	256,513	113,582
119,020	-17,993	256,249	113,564
120,035	-17,845	256,008	113,575
121,049	-17,830	255,920	113,539
122,064	-17,990	255,614	113,254
123,079	-17,906	255,474	113,256
124,093	-18,035	255,247	113,032
125,108	-17,944	254,978	112,983
126,122	-17,769	254,753	113,024
127,137	-17,798	254,806	113,012
128,151	-17,688	254,540	112,979
129,166	-17,793	254,217	112,735
130,181	-17,865	254,007	112,571
131,195	-17,841	253,879	112,524
132,210	-17,899	253,616	112,348
133,224	-17,946	253,542	112,264
134,239	-17,845	253,079	112,136
135,254	-17,978	253,040	111,995
136,268	-17,843	252,816	112,001
137,283	-17,794	252,654	111,961
138,297	-17,732	252,543	111,956
139,312	-17,864	252,322	111,734
140,327	-17,942	251,972	111,502
141,341	-17,855	251,760	111,473
142,356	-17,752	251,533	111,451
143,370	-17,882	251,414	111,277
144,385	-17,971	251,254	111,121
145,400	-17,945	250,970	111,007
146,414	-17,925	250,966	111,013
147,429	-18,044	250,645	110,760
148,443	-17,651	250,363	110,959
149,458	-17,929	250,293	110,682
150,473	-17,873	250,051	110,613
151,487	-17,902	249,974	110,544
152,502	-17,709	249,719	110,585
153,516	-17,936	249,647	110,350
154,531	-17,936	249,333	110,202
155,546	-17,877	249,246	110,204
156,560	-17,823	249,069	110,162
157,575	-18,047	248,813	109,849
158,589	-17,874	248,551	109,869
159,604	-17,829	248,334	109,802
160,619	-17,689	248,225	109,861
161,633	-17,978	248,048	109,530
162,648	-17,828	247,934	109,596
163,662	-17,922	247,856	109,474
164,677	-17,955	247,626	109,334
165,692	-17,796	247,519	109,410
166,706	-17,891	247,246	109,200
167,721	-17,757	246,956	109,174
168,735	-17,803	246,819	109,066
169,750	-17,908	246,720	108,925
170,764	-17,876	246,541	108,863
171,779	-17,794	246,505	108,906
172,794	-17,609	246,166	108,901
173,808	-17,785	246,042	108,689
174,823	-17,831	245,823	108,545
175,837	-17,792	245,730	108,526
176,852	-17,746	245,491	108,449
177,867	-17,830	245,363	108,313
178,881	-17,848	245,149	108,194
179,896	-17,777	244,995	108,175
180,910	-17,899	244,890	108,019
181,925	-17,869	244,664	107,934
182,940	-18,000	244,506	107,747
183,954	-17,822	244,278	107,783
184,969	-17,847	244,030	107,643
185,983	-17,676	244,062	107,788
186,998	-17,956	243,943	107,496
188,013	-17,587	243,498	107,594
189,027	-17,971	243,452	107,249
190,042	-17,918	243,254	107,195
191,056	-17,876	243,045	107,127
192,071	-18,005	242,910	106,953
193,086	-17,873	242,663	106,942
194,100	-18,072	242,541	106,716
195,115	-17,833	242,294	106,794
196,129	-17,944	242,071	106,595
197,144	-17,764	241,797	106,612
198,159	-17,898	241,779	106,485
199,173	-17,914	241,610	106,389
200,188	-18,035	241,436	106,203
201,202	-17,806	241,201	106,278
202,217	-17,607	241,064	106,369
203,232	-17,703	240,918	106,217
204,246	-17,937	240,607	105,881
205,261	-18,099	240,395	105,646
206,275	-16,986	240,829	106,732
207,290	-12,144	242,575	111,453
208,304	-5,788	244,549	117,576
209,319	-2,452	245,433	120,737
210,334	-1,160	245,669	121,906
211,348	-0,349	245,891	122,672
212,363	0,390	245,853	123,250
213,377	0,555	245,847	123,372
214,392	0,859	245,741	123,558
215,407	0,911	245,777	123,607
216,421	1,219	245,646	123,783
217,436	1,335	245,472	123,780
218,450	1,327	245,301	123,676
219,465	1,691	245,115	123,869
220,480	1,516	244,959	123,635
221,494	1,289	244,816	123,367
222,509	0,819	244,531	122,829
223,523	0,707	244,189	122,555
224,538	0,641	244,098	122,444
225,553	0,600	243,952	122,326
226,567	0,489	243,820	122,159
227,582	0,528	243,612	122,075
228,596	0,470	243,629	122,026
229,611	0,585	243,328	121,958
230,626	0,540	243,125	121,809
231,640	0,465	242,927	121,638
232,655	0,663	242,708	121,678
233,669	0,522	242,676	121,537
234,684	0,678	242,261	121,444
235,699	0,438	242,323	121,271
236,713	0,589	242,121	121,280
237,728	0,611	241,870	121,161
238,742	0,579	241,823	121,101
239,757	0,510	241,632	120,939
240,772	0,503	241,475	120,844
241,786	0,721	241,388	120,966
242,801	0,662	241,158	120,792
243,815	0,605	241,073	120,693
244,830	0,598	240,845	120,562
245,844	0,594	240,764	120,507
246,859	0,719	240,523	120,477
247,874	0,335	240,433	120,113
248,888	0,560	240,403	120,268
249,903	0,643	240,087	120,165
250,917	0,674	240,059	120,166
251,932	0,692	239,823	120,051
252,947	0,913	239,677	120,144
253,961	0,544	239,403	119,701
254,976	0,621	239,388	119,745
255,990	0,667	239,145	119,649
257,005	0,657	239,045	119,580
258,020	0,517	239,055	119,463
259,034	0,647	238,812	119,434
260,049	0,706	238,503	119,316
261,063	0,562	238,435	119,157
262,078	0,699	238,232	119,154
263,093	0,749	238,094	119,114
264,107	0,626	237,950	118,934
265,122	0,779	237,776	118,957
266,136	0,799	237,556	118,852
267,151	0,620	237,462	118,653
268,166	0,629	237,278	118,558
269,180	0,438	237,126	118,321
270,195	0,496	237,042	118,314
271,209	0,716	236,770	118,341
272,224	0,720	236,670	118,284
273,239	0,371	236,533	117,930
274,253	0,720	236,286	118,070
275,268	0,690	236,180	117,983
276,282	0,722	236,009	117,912
277,297	0,641	235,857	117,762
278,312	0,546	235,790	117,644
279,326	0,658	235,678	117,665
280,341	0,571	235,596	117,546
281,355	0,534	235,377	117,397
282,370	0,533	235,248	117,322
283,384	0,698	234,935	117,284
284,399	0,520	234,917	117,125
285,414	0,540	234,820	117,082
286,428	0,646	234,648	117,068
287,443	0,610	234,493	116,953
288,457	0,700	234,375	116,954
289,472	0,656	234,200	116,822
290,487	0,818	233,992	116,834
291,501	0,740	233,836	116,685
292,516	0,702	233,611	116,533
293,530	0,634	233,594	116,461
294,545	0,843	233,304	116,467
295,560	0,693	233,147	116,262
296,574	0,813	232,940	116,242
297,589	0,819	233,012	116,272
298,603	0,959	232,703	116,216
299,618	0,847	232,612	116,073
300,633	0,667	232,507	115,872
301,647	0,834	232,455	115,965
302,662	1,006	232,241	115,979
303,676	0,947	232,177	115,892
304,691	0,875	231,998	115,737
305,706	0,935	231,727	115,638
306,720	1,042	231,617	115,655
307,735	0,933	231,520	115,512
308,749	0,969	231,287	115,413
309,764	1,014	231,211	115,400
310,779	0,856	231,007	115,166
311,793	0,846	230,836	115,063
312,808	0,867	230,735	115,018
313,822	0,704	230,688	114,860
314,837	0,899	230,400	114,856
315,852	0,862	230,337	114,785
316,866	0,992	230,189	114,800
317,881	1,064	229,928	114,715
318,895	0,800	229,890	114,485
319,910	0,882	229,769	114,477
320,925	0,998	229,449	114,395
321,939	0,890	229,419	114,288
322,954	0,848	229,423	114,248
323,968	0,845	229,120	114,085
324,983	0,886	229,092	114,092
325,997	0,911	228,955	114,032
327,012	0,970	228,598	113,889
328,027	0,891	228,566	113,803
329,041	0,777	228,333	113,591
330,056	0,977	228,360	113,745
331,070	1,109	228,134	113,722
332,085	1,063	228,021	113,621
333,100	1,072	227,886	113,551
334,114	0,994	227,706	113,392
335,129	0,831	227,543	113,178
336,143	0,765	227,376	113,035
337,158	0,974	227,286	113,138
338,173	0,995	227,080	113,040
339,187	1,020	226,999	113,008
340,202	0,798	226,731	112,699
341,216	0,771	226,818	112,712
342,231	0,992	226,661	112,789
343,246	1,097	226,438	112,747
344,260	1,014	226,267	112,590
345,275	0,921	225,983	112,369
346,289	1,169	225,974	112,539
347,304	1,127	225,878	112,451
348,319	0,965	225,626	112,194
349,333	0,995	225,568	112,178
350,348	1,123	225,228	112,094
351,362	1,113	225,180	112,052
352,377	1,074	225,064	111,956
353,392	0,959	225,013	111,835
354,406	0,948	224,961	111,791
355,421	191,637	1311,070	1375,273
356,435	153,470	1443,254	1375,108
