DTS Sentinel unit serial number:	SN410029Multiplexer serial number:	ORYXHardware model number:	OX2-SRSoftware version number:	ORYX F/W v4,00 Oryx Data Collector v3.7.2.0data status	okinstallation	B5 Nyhavnadifferential loss correction	single-endedforward channel	channel 2reverse channel	N/Adate	2023/12/11time	14:42:13forward acquisition time	300,00reverse acquisition time	0,00gamma	499,1914k internal	0,3167k external	0,3167temperature offset calibration	1,0000default loss term (dB/km)	0,3820temperature slope calibration	1,0000multiplexer offset coefficient	1,0000multiplexer slope coefficient	1,0000fibre end	0,00T internal ref (°C)	12,73T ext. ref 1 (°C)	-1,84T ext. ref 2 (°C)	-1,84length (m)	temperature (°C)	Stokes	anti-Stokes-744,400	-48,761	0,175	-0,061
-743,385	-108,272	-0,306	-0,048
-742,371	91,084	0,084	-0,070
-741,356	-139,706	-0,418	-0,032
-740,342	-35,665	0,187	-0,074
-739,327	26,858	-0,266	-0,163
-738,312	137,748	0,054	0,052
-737,298	-61,076	-0,322	-0,099
-736,283	416,287	0,061	0,095
-735,269	17,421	-0,160	0,093
-734,254	80,028	0,065	0,052
-733,239	-101,666	-0,427	-0,075
-732,225	-32,637	0,282	0,115
-731,210	-200,000	-0,001	-0,084
-730,196	-71,219	0,088	-0,024
-729,181	567,505	0,072	-0,130
-728,167	678,735	0,021	0,040
-727,152	-164,996	-0,093	0,003
-726,137	102,063	-0,017	-0,015
-725,123	565,830	0,047	-0,084
-724,108	-92,160	-0,154	-0,032
-723,094	153,008	0,042	0,042
-722,079	112,913	0,020	-0,018
-721,064	-95,363	-0,053	-0,010
-720,050	-20,909	-0,083	0,037
-719,035	-3,267	-0,180	-0,092
-718,021	215,023	-0,016	-0,019
-717,006	800,000	0,020	0,047
-715,991	-53,818	-0,099	-0,033
-714,977	-200,000	0,035	-0,153
-713,962	430,625	-0,039	-0,063
-712,948	-141,648	-0,111	0,008
-711,933	-85,554	0,070	0,016
-710,918	-55,802	-0,071	0,023
-709,904	800,000	-0,017	-0,052
-708,889	800,000	-0,041	-0,084
-707,875	-200,000	0,023	-0,231
-706,860	-128,673	0,031	0,003
-705,845	-200,000	-0,011	0,129
-704,831	-200,000	0,042	-0,141
-703,816	458,757	0,087	-0,143
-702,802	163,665	-0,061	-0,063
-701,787	52,493	-0,121	-0,085
-700,772	-17,641	-0,113	0,052
-699,758	-154,285	0,070	-0,003
-698,743	-200,000	0,011	0,104
-697,729	-126,244	0,098	-0,011
-696,714	-177,473	-0,065	0,001
-695,699	-200,000	0,026	0,104
-694,685	-17,522	0,036	-0,017
-693,670	-200,000	-0,015	0,074
-692,656	-86,024	-0,069	0,016
-691,641	779,319	0,065	0,131
-690,627	109,786	0,070	0,062
-689,612	56,784	-0,035	0,025
-688,597	67,169	0,059	-0,044
-687,583	62,061	-0,018	0,013
-686,568	51,569	-0,055	0,039
-685,554	-200,000	-0,033	0,190
-684,539	104,688	0,042	-0,036
-683,524	328,219	0,037	0,052
-682,510	487,140	-0,030	-0,050
-681,495	408,384	-0,036	0,056
-680,481	-60,960	-0,036	-0,011
-679,466	-200,000	0,016	-0,128
-678,451	-80,786	-0,123	-0,030
-677,437	-200,000	-0,030	-0,111
-676,422	800,000	-0,015	0,036
-675,408	-59,224	-0,098	0,031
-674,393	800,000	0,027	-0,086
-673,378	-27,810	-0,145	-0,061
-672,364	800,000	0,043	-0,133
-671,349	-36,323	-0,085	-0,034
-670,335	71,244	-0,044	-0,033
-669,320	66,626	0,069	0,051
-668,305	-200,000	0,031	-0,100
-667,291	537,644	-0,013	-0,022
-666,276	291,591	-0,118	-0,158
-665,262	800,000	-0,034	-0,107
-664,247	-200,000	-0,013	-0,125
-663,232	800,000	0,063	0,155
-662,218	103,371	0,062	0,053
-661,203	54,589	0,102	-0,072
-660,189	219,698	-0,019	0,022
-659,174	-104,583	-0,198	-0,033
-658,159	224,913	0,075	-0,089
-657,145	-200,000	-0,018	-0,145
-656,130	-76,651	0,080	-0,020
-655,116	-76,706	-0,021	-0,005
-654,101	29,543	0,053	0,033
-653,086	800,000	-0,029	0,073
-652,072	524,222	0,062	0,108
-651,057	-30,565	0,057	0,024
-650,043	-200,000	-0,007	-0,022
-649,028	-69,022	-0,178	-0,050
-648,014	-200,000	0,015	0,156
-646,999	231,827	-0,048	0,058
-645,984	-200,000	-0,003	0,105
-644,970	-98,140	-0,104	0,019
-643,955	12,150	0,059	0,033
-642,941	800,000	-0,032	0,094
-641,926	-83,561	-0,105	0,024
-640,911	-200,000	-0,017	0,067
-639,897	260,622	-0,069	-0,087
-638,882	35,502	0,051	-0,033
-637,868	-1,546	-0,065	-0,034
-636,853	800,000	-0,055	-0,127
-635,838	-86,105	-0,068	-0,015
-634,824	709,273	0,040	0,077
-633,809	296,290	0,047	0,064
-632,795	748,889	-0,005	0,011
-631,780	-194,210	0,068	0,000
-630,765	404,007	-0,037	-0,056
-629,751	-10,730	-0,063	-0,030
-628,736	-98,224	0,051	0,009
-627,722	63,000	-0,100	-0,073
-626,707	-200,000	0,006	0,044
-625,692	-200,000	0,002	-0,071
-624,678	-45,030	-0,160	-0,058
-623,663	375,209	0,048	0,072
-622,649	109,331	-0,063	-0,055
-621,634	800,000	-0,013	0,034
-620,619	83,296	0,035	-0,028
-619,605	800,000	-0,024	-0,056
-618,590	272,864	0,073	0,095
-617,576	560,692	-0,031	0,055
-616,561	20,674	0,145	0,086
-615,546	-70,279	0,069	0,019
-614,532	-200,000	-0,012	-0,089
-613,517	121,354	0,097	0,089
-612,503	-46,753	-0,138	0,049
-611,488	-147,721	0,085	0,005
-610,474	-200,000	-0,011	0,100
-609,459	177,101	-0,078	0,083
-608,444	374,720	-0,044	-0,066
-607,430	89,792	0,075	-0,061
-606,415	641,526	-0,029	-0,054
-605,401	-96,172	0,053	-0,010
-604,386	56,822	-0,025	0,018
-603,371	-200,000	-0,010	0,066
-602,357	-200,000	0,004	-0,069
-601,342	800,000	0,024	-0,054
-600,328	174,985	0,017	0,018
-599,313	800,000	0,055	-0,114
-598,298	-29,807	-0,041	-0,017
-597,284	-200,000	-0,032	-0,115
-596,269	49,636	0,042	-0,029
-595,255	-200,000	-0,001	0,005
-594,240	7,059	0,074	0,040
-593,225	-200,000	-0,017	-0,215
-592,211	800,000	0,032	0,078
-591,196	-200,000	0,001	0,041
-590,182	-200,000	-0,019	0,073
-589,167	800,000	-0,051	0,152
-588,152	119,299	-0,042	-0,038
-587,138	800,000	-0,036	-0,116
-586,123	-92,819	-0,152	0,031
-585,109	653,378	0,056	0,106
-584,094	563,466	-0,024	0,042
-583,079	113,312	-0,040	-0,035
-582,065	-200,000	0,015	-0,065
-581,050	-200,000	0,024	0,089
-580,036	-118,845	0,096	0,012
-579,021	-200,000	-0,022	-0,122
-578,006	-200,000	-0,008	-0,060
-576,992	-200,000	0,009	0,050
-575,977	213,968	0,056	0,065
-574,963	226,615	-0,029	0,034
-573,948	800,000	0,048	0,144
-572,934	-200,000	0,031	-0,117
-571,919	-22,747	-0,068	-0,030
-570,904	-54,022	-0,126	0,042
-569,890	85,383	-0,086	0,069
-568,875	-109,200	0,062	0,010
-567,861	-78,650	0,085	0,021
-566,846	-38,571	0,080	0,031
-565,831	-188,619	-0,107	-0,001
-564,817	-200,000	-0,023	-0,082
-563,802	183,243	-0,077	-0,083
-562,788	800,000	-0,027	-0,085
-561,773	38,461	0,039	0,026
-560,758	-33,790	0,054	0,022
-559,744	328,061	0,088	0,124
-558,729	743,411	0,030	0,058
-557,715	-200,000	-0,033	0,109
-556,700	149,040	0,062	0,061
-555,685	-116,755	-0,061	-0,008
-554,671	800,000	0,062	0,137
-553,656	-200,000	0,003	0,042
-552,642	246,408	-0,029	0,036
-551,627	-200,000	0,018	-0,114
-550,612	-87,142	-0,107	-0,024
-549,598	-41,060	0,029	0,011
-548,583	-200,000	-0,001	-0,042
-547,569	92,544	-0,029	0,024
-546,554	-65,998	-0,046	-0,013
-545,539	100,481	0,069	0,059
-544,525	800,000	0,040	0,096
-543,510	170,997	0,059	0,062
-542,496	187,489	-0,058	-0,063
-541,481	-65,033	-0,100	0,029
-540,466	2,522	-0,218	0,115
-539,452	44,372	-0,059	-0,040
-538,437	-23,618	0,105	-0,046
-537,423	800,000	-0,004	0,010
-536,408	-87,405	-0,182	-0,040
-535,393	-7,043	0,060	-0,030
-534,379	20,071	0,091	-0,053
-533,364	463,860	0,043	0,070
-532,350	205,615	0,068	-0,077
-531,335	688,922	-0,113	0,216
-530,321	-37,554	0,066	0,025
-529,306	-200,000	0,004	-0,056
-528,291	635,375	-0,066	-0,123
-527,277	800,000	0,032	-0,082
-526,262	-200,000	0,001	-0,012
-525,248	-200,000	0,013	0,136
-524,233	334,516	-0,053	0,074
-523,218	-112,987	0,056	-0,008
-522,204	-200,000	-0,058	-0,228
-521,189	32,657	0,006	-0,004
-520,175	800,000	-0,022	-0,056
-519,160	32,691	0,098	0,062
-518,145	-31,736	0,042	-0,017
-517,131	31,514	0,042	0,026
-516,116	-200,000	0,026	0,101
-515,102	-113,876	0,064	0,009
-514,087	-49,952	-0,090	-0,031
-513,072	346,162	-0,034	0,048
-512,058	-123,678	-0,090	-0,010
-511,043	800,000	-0,063	-0,154
-510,029	-0,640	0,152	-0,078
-509,014	800,000	0,002	0,006
-507,999	-89,156	0,071	0,015
-506,985	800,000	0,019	-0,055
-505,970	-95,353	0,069	-0,013
-504,956	-200,000	-0,012	-0,154
-503,941	-65,166	0,229	0,067
-502,926	74,807	0,075	-0,057
-501,912	-118,830	0,130	-0,016
-500,897	159,985	0,082	-0,084
-499,883	337,717	-0,046	-0,065
-498,868	378,189	-0,040	0,060
-497,853	800,000	-0,045	0,109
-496,839	601,387	0,060	0,108
-495,824	336,847	0,050	0,071
-494,810	-200,000	0,023	0,081
-493,795	800,000	-0,029	-0,072
-492,781	80,702	-0,082	0,065
-491,766	188,522	-0,086	0,093
-490,751	790,380	-0,057	0,114
-489,737	166,698	0,094	-0,097
-488,722	255,442	-0,015	0,019
-487,708	-90,874	0,029	0,006
-486,693	800,000	0,025	0,075
-485,678	-38,663	-0,015	-0,006
-484,664	-200,000	-0,056	-0,264
-483,649	-52,429	0,063	-0,021
-482,635	-36,640	0,107	0,042
-481,620	-122,457	-0,036	-0,004
-480,605	-200,000	0,009	0,031
-479,591	109,345	-0,142	0,124
-478,576	-113,640	-0,084	0,012
-477,562	51,716	-0,051	-0,035
-476,547	171,317	-0,142	-0,148
-475,532	67,288	0,038	0,028
-474,518	800,000	0,046	0,104
-473,503	-200,000	0,015	0,063
-472,489	174,256	-0,135	0,142
-471,474	267,145	-0,079	-0,101
-470,459	380,833	-0,064	-0,097
-469,445	800,000	0,052	-0,122
-468,430	-200,000	0,026	-0,141
-467,416	-145,371	-0,017	-0,001
-466,401	-109,468	-0,053	-0,008
-465,386	149,424	-0,073	-0,072
-464,372	141,049	0,040	-0,039
-463,357	-137,223	-0,093	-0,008
-462,343	205,806	0,002	-0,003
-461,328	-5,165	-0,150	-0,075
-460,313	225,654	-0,033	-0,039
-459,299	-200,000	0,012	-0,059
-458,284	288,118	-0,068	-0,089
-457,270	-200,000	0,031	0,122
-456,255	800,000	-0,031	-0,082
-455,241	-38,063	-0,047	-0,018
-454,226	-200,000	-0,007	-0,070
-453,211	-161,961	0,044	0,002
-452,197	-28,828	0,167	0,069
-451,182	800,000	0,034	0,109
-450,168	-117,303	0,092	-0,012
-449,153	-200,000	-0,001	0,057
-448,138	655,935	-0,031	-0,057
-447,124	40,140	-0,029	-0,019
-446,109	-77,596	0,171	-0,043
-445,095	218,437	-0,047	-0,055
-444,080	-200,000	-0,006	-0,044
-443,065	-45,872	0,078	-0,028
-442,051	142,491	-0,092	0,089
-441,036	-141,353	0,084	-0,006
-440,022	800,000	-0,045	-0,118
-439,007	800,000	0,047	0,102
-437,992	-3,107	-0,136	0,069
-436,978	15,897	0,194	0,111
-435,963	-24,227	0,005	-0,002
-434,949	800,000	-0,026	0,070
-433,934	800,000	-0,067	-0,166
-432,919	-200,000	0,004	0,065
-431,905	-121,708	-0,123	-0,015
-430,890	45,867	0,035	-0,023
-429,876	800,000	-0,011	-0,026
-428,861	295,196	0,016	-0,022
-427,846	-200,000	-0,050	0,202
-426,832	-200,000	-0,005	0,020
-425,817	-139,677	-0,076	-0,006
-424,803	-68,104	-0,068	-0,019
-423,788	200,594	0,044	0,050
-422,773	19,218	-0,055	-0,032
-421,759	273,504	0,027	-0,035
-420,744	-72,920	0,099	-0,026
-419,730	-200,000	-0,005	-0,111
-418,715	-49,283	0,074	0,026
-417,701	800,000	0,037	-0,089
-416,686	75,266	0,109	0,084
-415,671	-200,000	-0,008	0,056
-414,657	390,943	-0,056	0,084
-413,642	-200,000	0,003	-0,032
-412,628	196,791	-0,047	-0,052
-411,613	-17,474	0,055	0,025
-410,598	-200,000	-0,008	0,047
-409,584	680,940	-0,030	0,056
-408,569	-59,769	0,117	0,036
-407,555	11,678	-0,039	-0,022
-406,540	-72,822	0,149	0,039
-405,525	-4,267	-0,087	0,044
-404,511	-200,000	-0,033	-0,118
-403,496	-200,000	-0,014	-0,073
-402,482	-83,684	0,126	-0,029
-401,467	-200,000	0,010	0,129
-400,452	369,386	0,077	-0,114
-399,438	-118,141	0,091	0,012
-398,423	-176,442	-0,027	0,001
-397,409	-200,000	-0,003	-0,017
-396,394	-39,873	0,079	0,030
-395,379	30,276	0,046	-0,028
-394,365	668,818	0,034	-0,063
-393,350	90,655	0,073	0,059
-392,336	111,122	0,066	0,058
-391,321	-121,350	-0,154	-0,018
-390,306	-75,540	-0,096	0,025
-389,292	800,000	-0,020	-0,042
-388,277	587,757	0,023	-0,042
-387,263	-200,000	0,003	-0,092
-386,248	36,843	0,088	0,056
-385,233	-173,696	0,058	0,001
-384,219	-200,000	-0,002	0,047
-383,204	-200,000	0,017	-0,144
-382,190	-150,387	-0,034	-0,002
-381,175	-50,952	-0,078	-0,026
-380,160	-200,000	0,024	0,209
-379,146	-178,296	0,022	0,000
-378,131	-127,102	0,117	0,012
-377,117	110,347	-0,027	-0,024
-376,102	-200,000	-0,014	-0,066
-375,088	800,000	-0,007	-0,022
-374,073	-146,840	0,066	-0,004
-373,058	800,000	0,005	-0,015
-372,044	542,098	-0,037	-0,064
-371,029	-85,272	0,132	0,030
-370,015	-200,000	0,008	-0,099
-369,000	-111,201	-0,082	0,012
-367,985	192,074	0,081	0,088
-366,971	-46,565	0,121	-0,043
-365,956	800,000	-0,041	0,088
-364,942	59,984	-0,152	-0,108
-363,927	800,000	0,041	-0,105
-362,912	180,935	-0,090	0,096
-361,898	711,114	-0,048	0,092
-360,883	-172,152	0,117	-0,003
-359,869	800,000	-0,021	-0,063
-358,854	-73,392	0,070	-0,018
-357,839	-96,042	0,058	0,011
-356,825	22,749	0,089	-0,052
-355,810	-84,290	-0,063	0,014
-354,796	-72,489	0,072	-0,019
-353,781	800,000	-0,038	-0,098
-352,766	-91,856	0,183	0,037
-351,752	674,312	-0,049	0,092
-350,737	-47,955	0,121	-0,042
-349,723	-200,000	-0,017	-0,160
-348,708	-200,000	0,035	0,193
-347,693	-200,000	0,009	0,074
-346,679	-146,273	-0,051	0,003
-345,664	34,128	-0,099	-0,063
-344,650	476,627	-0,021	0,035
-343,635	-200,000	-0,002	0,124
-342,620	-200,000	-0,011	0,161
-341,606	130,685	-0,024	0,022
-340,591	-200,000	0,029	-0,180
-339,577	800,000	-0,026	-0,062
-338,562	-118,554	0,095	-0,012
-337,548	-200,000	0,016	-0,095
-336,533	-64,505	-0,047	0,014
-335,518	-200,000	0,006	-0,058
-334,504	-141,296	0,078	0,006
-333,489	-200,000	-0,006	0,058
-332,475	457,028	0,045	-0,072
-331,460	-115,690	0,092	-0,012
-330,445	464,633	0,072	-0,117
-329,431	-200,000	0,037	0,159
-328,416	-58,875	0,046	-0,014
-327,402	-110,056	0,137	-0,020
-326,387	508,167	0,006	0,011
-325,372	-200,000	0,022	0,108
-324,358	-200,000	-0,010	0,087
-323,343	2,310	-0,046	-0,024
-322,329	-200,000	0,011	0,164
-321,314	152,291	0,069	0,068
-320,299	-200,000	0,000	0,030
-319,285	241,063	0,118	-0,142
-318,270	-3,943	-0,098	0,049
-317,256	542,465	0,043	-0,074
-316,241	-147,136	0,054	0,003
-315,226	-200,000	0,031	-0,135
-314,212	-16,675	0,065	0,030
-313,197	-115,272	-0,136	0,018
-312,183	203,052	0,104	0,116
-311,168	179,082	-0,069	-0,073
-310,153	679,379	0,033	-0,063
-309,139	251,197	-0,087	-0,107
-308,124	243,321	0,077	0,093
-307,110	222,656	0,077	0,090
-306,095	800,000	0,025	-0,074
-305,080	800,000	0,049	-0,103
-304,066	800,000	-0,038	-0,091
-303,051	-12,845	-0,048	-0,022
-302,037	284,437	-0,084	0,109
-301,022	-83,435	0,048	0,011
-300,008	48,618	0,039	-0,026
-298,993	630,163	0,039	0,072
-297,978	800,000	0,009	-0,025
-296,964	4,093	-0,137	-0,072
-295,949	-150,618	-0,052	0,003
-294,935	800,000	0,027	0,076
-293,920	-95,211	-0,108	0,021
-292,905	-117,087	0,170	-0,022
-291,891	-200,000	0,010	-0,093
-290,876	-200,000	-0,004	-0,122
-289,862	-200,000	0,008	0,093
-288,847	-200,000	0,003	-0,069
-287,832	203,333	0,050	-0,056
-286,818	-200,000	-0,022	0,099
-285,803	-106,363	-0,119	0,019
-284,789	-56,000	0,026	0,008
-283,774	-142,990	0,022	0,002
-282,759	-25,949	-0,143	-0,061
-281,745	330,719	-0,016	-0,023
-280,730	-53,950	-0,052	0,017
-279,716	-200,000	-0,024	-0,114
-278,701	32,842	0,110	-0,068
-277,686	20,783	0,103	0,060
-276,672	453,113	0,043	-0,070
-275,657	-200,000	0,025	0,194
-274,643	29,199	0,035	0,021
-273,628	191,173	0,027	-0,029
-272,613	256,430	-0,108	-0,134
-271,599	-116,853	-0,058	0,008
-270,584	-22,329	0,105	0,046
-269,570	-134,446	0,111	0,010
-268,555	156,381	-0,021	0,021
-267,540	73,645	0,010	-0,008
-266,526	-200,000	-0,031	0,123
-265,511	-79,046	-0,205	-0,050
-264,497	-86,706	0,074	-0,016
-263,482	-150,865	-0,025	-0,001
-262,467	-68,481	0,132	0,037
-261,453	275,322	-0,069	0,089
-260,438	127,691	-0,109	-0,100
-259,424	131,815	-0,055	-0,051
-258,409	167,366	-0,064	-0,065
-257,395	-60,826	-0,054	0,016
-256,380	800,000	0,074	0,170
-255,365	800,000	0,016	-0,036
-254,351	201,181	0,014	-0,016
-253,336	-35,207	0,020	-0,008
-252,322	-200,000	0,024	-0,258
-251,307	-42,616	0,106	-0,039
-250,292	-178,016	-0,204	0,003
-249,278	53,588	0,081	0,056
-248,263	-200,000	0,012	0,078
-247,249	-29,586	0,060	-0,024
-246,234	-52,413	-0,092	-0,031
-245,219	4,406	-0,127	-0,067
-244,205	-200,000	0,002	0,044
-243,190	-24,841	-0,068	0,029
-242,176	-200,000	-0,003	0,083
-241,161	-89,675	0,031	0,007
-240,146	-200,000	-0,014	0,086
-239,132	87,245	-0,121	0,096
-238,117	-131,218	0,158	-0,015
-237,103	-180,682	-0,100	0,001
-236,088	191,949	0,082	-0,089
-235,073	91,225	-0,069	-0,056
-234,059	33,139	0,028	0,017
-233,044	-200,000	0,001	0,071
-232,030	313,035	-0,047	-0,064
-231,015	243,455	-0,079	-0,095
-230,000	29,058	-0,166	0,101
-228,986	800,000	-0,049	-0,112
-227,971	-105,620	-0,068	-0,011
-226,957	97,147	0,072	0,059
-225,942	287,462	0,060	-0,079
-224,927	13,653	-0,028	0,015
-223,913	-102,016	-0,237	-0,041
-222,898	-115,268	0,040	-0,005
-221,884	-200,000	0,023	-0,105
-220,869	61,778	0,177	0,127
-219,855	49,003	0,041	-0,028
-218,840	-34,062	0,027	0,011
-217,825	-141,932	-0,069	-0,005
-216,811	-200,000	0,019	-0,130
-215,796	123,804	0,036	-0,033
-214,782	593,384	0,058	-0,103
-213,767	800,000	-0,010	0,022
-212,752	16,663	0,055	-0,031
-211,738	112,527	0,117	0,102
-210,723	470,536	0,014	-0,023
-209,709	-200,000	-0,016	-0,165
-208,694	125,995	0,066	-0,060
-207,679	71,020	-0,156	-0,116
-206,665	-100,773	0,125	0,022
-205,650	121,092	-0,098	0,088
-204,636	218,321	-0,031	-0,036
-203,621	-200,000	0,014	0,109
-202,606	47,478	-0,102	-0,069
-201,592	455,383	-0,039	0,062
-200,577	-119,663	-0,042	0,005
-199,563	339,165	-0,055	-0,078
-198,548	-49,670	-0,091	0,031
-197,533	800,000	0,083	0,221
-196,519	-200,000	0,007	-0,024
-195,504	800,000	-0,030	0,072
-194,490	498,409	-0,058	-0,096
-193,475	329,733	0,078	-0,108
-192,460	-200,000	0,005	-0,024
-191,446	-200,000	-0,042	0,147
-190,431	145,574	-0,076	-0,074
-189,417	37,038	0,148	0,094
-188,402	145,886	0,036	0,034
-187,387	308,407	-0,030	0,040
-186,373	-55,371	0,078	-0,025
-185,358	800,000	-0,041	-0,087
-184,344	402,607	-0,068	0,103
-183,329	51,110	-0,226	0,154
-182,315	-27,015	0,077	-0,032
-181,300	409,800	-0,053	0,082
-180,285	608,263	-0,020	0,036
-179,271	-200,000	0,016	0,056
-178,256	195,189	-0,096	0,105
-177,242	-74,469	0,110	0,028
-176,227	513,754	-0,014	-0,024
-175,212	281,762	0,085	-0,110
-174,198	-200,000	0,090	-0,000
-173,183	-16,986	-0,085	-0,039
-172,169	800,000	-0,012	-0,033
-171,154	-124,698	-0,180	0,020
-170,139	-52,555	0,079	-0,026
-169,125	246,840	0,044	-0,053
-168,110	55,714	0,028	-0,019
-167,096	-200,000	0,007	0,037
-166,081	-65,658	0,111	0,032
-165,066	-130,677	-0,111	-0,011
-164,052	92,655	0,077	-0,062
-163,037	-200,000	-0,016	0,148
-162,023	-150,937	-0,074	-0,004
-161,008	-134,176	-0,060	-0,005
-159,993	106,029	0,021	0,018
-158,979	-35,400	-0,175	0,068
-157,964	-192,025	0,085	0,001
-156,950	-69,268	-0,075	-0,021
-155,935	259,717	-0,031	0,039
-154,920	-117,150	0,123	-0,016
-153,906	-25,770	0,099	0,042
-152,891	13,979	-0,052	0,029
-151,877	-200,000	-0,020	0,099
-150,862	113,072	-0,048	0,042
-149,847	-38,930	0,057	-0,021
-148,833	-55,628	0,038	0,012
-147,818	108,912	0,072	-0,062
-146,804	-116,947	-0,058	-0,007
-145,789	207,922	0,045	-0,051
-144,775	49,670	0,086	-0,058
-143,760	-174,995	-0,125	-0,002
-142,745	-200,000	-0,007	-0,211
-141,731	303,981	0,033	-0,044
-140,716	-200,000	0,003	0,020
-139,702	601,313	-0,044	0,079
-138,687	625,438	-0,050	0,091
-137,672	-59,774	-0,091	0,028
-136,658	60,332	0,009	-0,006
-135,643	134,459	-0,067	-0,062
-134,629	25,374	0,074	-0,044
-133,614	42,808	0,140	0,091
-132,599	94,211	-0,043	-0,035
-131,585	4,979	-0,035	-0,019
-130,570	13,985	0,024	-0,013
-129,556	-162,231	-0,096	0,003
-128,541	448,657	-0,066	0,104
-127,526	27,731	0,137	0,083
-126,512	-200,000	-0,014	-0,081
-125,497	-136,189	0,083	0,007
-124,483	-21,149	0,030	0,013
-123,468	800,000	-0,042	-0,088
-122,453	-200,000	-0,001	-0,109
-121,439	158,721	-0,014	-0,014
-120,424	353,674	-0,067	-0,096
-119,410	-8,886	0,050	-0,024
-118,395	-200,000	-0,003	0,039
-117,380	-200,000	0,035	0,158
-116,366	-43,955	-0,116	0,042
-115,351	800,000	-0,035	-0,092
-114,337	332,713	-0,017	-0,024
-113,322	-80,843	-0,046	-0,011
-112,307	-200,000	0,039	-0,140
-111,293	-200,000	-0,002	-0,037
-110,278	800,000	-0,049	0,135
-109,264	800,000	0,022	0,060
-108,249	-200,000	0,002	-0,068
-107,234	341,506	0,037	0,052
-106,220	-200,000	-0,025	-0,082
-105,205	-200,000	-0,013	-0,052
-104,191	459,696	-0,025	-0,041
-103,176	104,733	0,165	0,140
-102,162	49,251	-0,059	0,040
-101,147	-200,000	0,006	0,100
-100,132	-200,000	-0,000	-0,116
-99,118	-36,249	0,067	-0,026
-98,103	-200,000	0,034	0,000
-97,089	-132,640	-0,062	0,006
-96,074	-200,000	0,001	0,023
-95,059	168,717	-0,040	0,041
-94,045	-138,221	0,093	-0,007
-93,030	698,078	-0,012	0,022
-92,016	-200,000	0,015	-0,056
-91,001	-200,000	-0,006	0,038
-89,986	132,786	-0,086	-0,080
-88,972	-14,559	0,099	-0,046
-87,957	190,926	-0,020	0,021
-86,943	-40,377	-0,128	0,047
-85,928	-200,000	-0,005	-0,095
-84,913	-77,372	0,083	-0,021
-83,899	221,685	-0,042	-0,049
-82,884	797,349	-0,078	-0,154
-81,870	-40,327	-0,059	-0,022
-80,855	0,817	-0,045	0,023
-79,840	800,000	-0,017	-0,044
-78,826	528,119	0,067	0,113
-77,811	-45,770	-0,053	-0,019
-76,797	-115,182	-0,108	-0,015
-75,782	426,209	-0,037	-0,058
-74,767	-200,000	-0,014	0,119
-73,753	-138,621	0,098	-0,008
-72,738	-200,000	-0,011	-0,153
-71,724	-82,513	-0,077	0,018
-70,709	-200,000	0,013	0,171
-69,694	-51,866	-0,109	0,036
-68,680	539,592	0,042	0,072
-67,665	112,099	0,034	-0,029
-66,651	-200,000	-0,020	0,114
-65,636	-200,000	-0,016	0,055
-64,622	-21,542	-0,177	-0,077
-63,607	113,305	-0,084	-0,073
-62,592	-129,309	0,037	0,004
-61,578	-97,477	0,089	0,016
-60,563	800,000	0,026	-0,066
-59,549	271,902	-0,037	-0,046
-58,534	50,621	-2,167	-1,465
-57,519	-200,000	-0,091	-0,663
-56,505	-200,000	-1,370	-5,193
-55,490	95,500	0,772	0,630
-54,476	800,000	5,485	12,306
-53,461	-200,000	19,164	323,557
-52,446	800,000	745,994	2323,834
-51,432	547,974	1658,046	2851,706
-50,417	113,891	1639,417	1425,826
-49,403	79,543	1288,818	988,553
-48,388	30,750	1028,788	628,677
-47,373	19,586	991,364	568,997
-46,359	16,558	979,408	552,184
-45,344	13,167	975,686	538,950
-44,330	13,546	974,186	539,342
-43,315	12,833	972,153	535,865
-42,300	12,730	971,073	534,912
-41,286	12,797	970,065	534,552
-40,271	12,704	969,266	533,788
-39,257	12,801	968,322	533,564
-38,242	12,763	967,500	532,966
-37,227	12,780	966,501	532,449
-36,213	12,764	965,719	531,947
-35,198	12,689	964,903	531,231
-34,184	12,751	964,157	531,000
-33,169	12,727	963,041	530,288
-32,154	12,744	962,218	529,867
-31,140	12,766	961,408	529,473
-30,125	12,826	960,494	529,142
-29,111	12,714	959,756	528,354
-28,096	12,761	959,075	528,109
-27,082	12,720	958,442	527,608
-26,067	12,803	957,492	527,330
-25,052	12,783	956,689	526,803
-24,038	12,737	956,160	526,342
-23,023	12,755	955,567	526,053
-22,009	12,738	955,138	525,741
-20,994	12,814	954,238	525,469
-19,979	12,805	953,602	525,068
-18,965	12,783	952,994	524,642
-17,950	12,740	952,401	524,158
-16,936	12,766	951,881	523,935
-15,921	12,717	951,178	523,370
-14,906	12,600	950,442	522,572
-13,892	12,711	949,728	522,512
-12,877	12,637	949,107	521,912
-11,863	12,637	948,461	521,535
-10,848	12,671	947,903	521,319
-9,833	12,759	947,435	521,320
-8,819	12,740	946,828	520,905
-7,804	12,718	946,190	520,462
-6,790	12,686	945,526	519,976
-5,775	12,714	945,024	519,768
-4,760	12,644	944,414	519,191
-3,746	12,733	943,740	519,081
-2,731	12,529	943,275	518,158
-1,717	12,547	942,304	517,660
-0,702	12,504	941,712	517,178
0,313	12,298	941,093	516,969
1,327	15,749	938,892	526,600
2,342	25,008	793,126	469,322
3,356	21,389	458,473	265,749
4,371	-5,416	316,856	154,985
5,386	-9,300	299,016	142,285
6,400	-10,995	292,931	137,684
7,415	-10,946	290,511	136,583
8,429	-11,198	288,959	135,592
9,444	-11,206	287,990	135,118
10,459	-11,174	287,325	134,825
11,473	-11,322	286,693	134,372
12,488	-11,568	286,008	133,799
13,502	-11,477	285,559	133,665
14,517	-11,505	285,117	133,419
15,531	-11,357	284,712	133,361
16,546	-11,349	284,377	133,200
17,561	-11,297	283,983	133,054
18,575	-11,231	283,681	132,965
19,590	-11,243	283,111	132,674
20,604	-11,148	282,988	132,696
21,619	-11,167	282,471	132,424
22,634	-11,254	282,411	132,300
23,648	-11,268	281,972	132,069
24,663	-11,234	281,645	131,937
25,677	-11,452	281,422	131,612
26,692	-11,100	281,079	131,776
27,707	-11,210	280,786	131,522
28,721	-11,260	280,584	131,368
29,736	-11,250	280,286	131,226
30,750	-11,397	280,153	131,012
31,765	-11,318	279,806	130,913
32,780	-11,231	279,453	130,819
33,794	-11,248	279,304	130,722
34,809	-11,199	279,091	130,657
35,823	-11,468	278,746	130,228
36,838	-11,293	278,549	130,291
37,853	-11,430	278,295	130,031
38,867	-11,566	278,122	129,810
39,882	-11,306	277,755	129,872
40,896	-11,452	277,512	129,610
41,911	-11,414	277,270	129,521
42,926	-11,363	276,987	129,425
43,940	-11,618	276,737	129,057
44,955	-11,404	276,424	129,100
45,969	-11,513	276,326	128,941
46,984	-11,342	276,050	128,960
47,999	-11,620	275,829	128,586
49,013	-11,532	275,681	128,587
50,028	-11,624	275,437	128,376
51,042	-11,568	275,098	128,259
52,057	-11,617	274,907	128,113
53,071	-11,515	274,444	127,981
54,086	-11,825	274,578	127,742
55,101	-11,549	274,141	127,785
56,115	-11,641	274,128	127,682
57,130	-11,501	273,706	127,603
58,144	-11,345	273,565	127,672
59,159	-11,392	273,297	127,491
60,174	-11,375	273,031	127,372
61,188	-11,462	272,855	127,198
62,203	-11,418	272,800	127,201
63,217	-11,420	272,457	127,028
64,232	-11,483	272,166	126,823
65,247	-11,375	271,917	126,796
66,261	-11,334	271,743	126,741
67,276	-11,463	271,420	126,460
68,290	-11,568	271,168	126,235
69,305	-11,717	271,034	126,025
70,320	-11,468	270,772	126,120
71,334	-11,423	270,652	126,094
72,349	-11,412	270,306	125,932
73,363	-11,350	269,999	125,835
74,378	-11,266	269,851	125,831
75,393	-11,609	269,722	125,445
76,407	-11,523	269,326	125,328
77,422	-11,470	269,315	125,361
78,436	-11,481	269,017	125,201
79,451	-11,383	268,775	125,166
80,466	-11,448	268,444	124,942
81,480	-11,407	268,260	124,883
82,495	-11,631	268,085	124,586
83,509	-11,497	268,043	124,678
84,524	-11,440	267,732	124,574
85,539	-11,460	267,395	124,387
86,553	-11,597	267,358	124,235
87,568	-11,511	266,855	124,068
88,582	-11,715	266,862	123,875
89,597	-11,402	266,725	124,084
90,611	-11,519	266,482	123,855
91,626	-11,631	266,292	123,654
92,641	-11,518	266,187	123,695
93,655	-11,554	265,895	123,517
94,670	-11,594	265,606	123,336
95,684	-11,345	265,421	123,462
96,699	-11,630	265,301	123,140
97,714	-11,561	265,065	123,080
98,728	-11,488	264,821	123,022
99,743	-11,587	264,628	122,833
100,757	-11,541	264,424	122,769
101,772	-11,561	264,272	122,669
102,787	-11,521	263,890	122,516
103,801	-11,565	263,844	122,445
104,816	-11,527	263,547	122,330
105,830	-11,358	263,322	122,365
106,845	-11,517	263,150	122,133
107,860	-11,485	263,143	122,147
108,874	-11,382	262,617	121,984
109,889	-11,632	262,464	121,680
110,903	-11,525	262,255	121,667
111,918	-11,654	262,159	121,497
112,933	-11,489	261,993	121,555
113,947	-11,385	261,866	121,578
114,962	-11,868	261,788	121,103
115,976	-11,469	261,357	121,246
116,991	-11,431	261,132	121,164
118,006	-11,397	261,042	121,141
119,020	-11,616	260,831	120,840
120,035	-11,516	260,741	120,875
121,049	-11,419	260,518	120,847
122,064	-11,466	260,286	120,687
123,079	-11,526	260,006	120,494
124,093	-11,579	259,808	120,345
125,108	-11,401	259,536	120,364
126,122	-11,427	259,454	120,292
127,137	-11,461	259,355	120,207
128,151	-11,697	259,269	119,949
129,166	-11,477	258,932	119,975
130,181	-11,517	258,667	119,806
131,195	-11,498	258,409	119,693
132,210	-11,668	258,293	119,480
133,224	-11,698	258,158	119,381
134,239	-11,638	257,933	119,318
135,254	-11,531	257,557	119,227
136,268	-11,702	257,525	119,053
137,283	-11,528	257,149	119,019
138,297	-11,598	256,923	118,843
139,312	-11,786	256,965	118,689
140,327	-11,610	256,821	118,765
141,341	-11,439	256,581	118,791
142,356	-11,239	256,461	118,898
143,370	-11,436	256,172	118,583
144,385	-11,354	256,094	118,607
145,400	-11,126	255,896	118,701
146,414	-11,314	255,835	118,501
147,429	-11,384	255,492	118,270
148,443	-11,470	255,277	118,087
149,458	-11,243	255,127	118,202
150,473	-11,294	254,862	118,025
151,487	-11,423	254,640	117,800
152,502	-11,445	254,541	117,725
153,516	-11,245	254,351	117,798
154,531	-11,465	254,240	117,548
155,546	-11,437	253,958	117,431
156,560	-11,478	253,844	117,334
157,575	-11,527	253,579	117,159
158,589	-11,252	253,342	117,273
159,604	-11,251	253,288	117,239
160,619	-11,126	253,130	117,262
161,633	-11,084	252,993	117,223
162,648	-11,059	252,829	117,158
163,662	-11,395	252,609	116,760
164,677	-11,401	252,179	116,546
165,692	-11,317	252,254	116,641
166,706	-11,204	252,130	116,669
167,721	-10,951	252,082	116,851
168,735	-11,039	251,753	116,614
169,750	-11,317	251,516	116,259
170,764	-11,462	251,412	116,078
171,779	-11,465	251,325	116,024
172,794	-11,362	251,091	115,993
173,808	-11,377	250,876	115,871
174,823	-11,613	250,683	115,573
175,837	-11,689	250,452	115,392
176,852	-11,588	250,274	115,384
177,867	-11,485	250,142	115,400
178,881	-11,386	249,922	115,371
179,896	-11,409	249,892	115,327
180,910	-11,276	249,668	115,325
181,925	-11,255	249,565	115,286
182,940	-11,384	249,258	115,025
183,954	-11,435	249,088	114,894
184,969	-11,109	249,089	115,157
185,983	-11,049	248,937	115,127
186,998	-11,051	248,608	114,963
188,013	-11,030	248,576	114,955
189,027	-11,440	248,281	114,466
190,042	-11,440	248,035	114,342
191,056	-11,360	247,913	114,343
192,071	-11,683	247,723	113,976
193,086	-11,655	247,570	113,919
194,100	-11,591	247,316	113,845
195,115	-11,182	247,216	114,129
196,129	-11,302	246,932	113,888
197,144	-11,525	246,891	113,674
198,159	-11,463	246,636	113,597
199,173	-11,386	246,427	113,555
200,188	-11,396	246,143	113,405
201,202	-11,702	246,042	113,096
202,217	-11,738	245,607	112,856
203,232	-11,799	245,491	112,743
204,246	-11,755	245,322	112,691
205,261	-11,469	245,369	112,938
206,275	-11,717	245,090	112,596
207,290	-10,679	245,432	113,598
208,304	-7,014	246,684	117,196
209,319	-3,981	247,510	120,090
210,334	-2,677	247,579	121,191
211,348	-1,820	247,634	121,916
212,363	-1,452	247,720	122,252
213,377	-1,088	247,733	122,549
214,392	-0,761	247,791	122,837
215,407	-0,452	247,786	123,078
216,421	-0,565	247,636	122,899
217,436	-0,484	247,422	122,850
218,450	-0,515	247,187	122,696
219,465	-0,629	246,853	122,425
220,480	-0,672	246,845	122,375
221,494	-0,653	246,716	122,315
222,509	-0,765	246,535	122,123
223,523	-0,669	246,410	122,129
224,538	-0,651	246,126	121,993
225,553	-0,538	245,950	121,987
226,567	-0,956	245,790	121,554
227,582	-0,671	245,580	121,673
228,596	-0,725	245,539	121,597
229,611	-0,782	245,369	121,456
230,626	-0,484	244,989	121,500
231,640	-0,759	244,955	121,248
232,655	-0,947	244,903	121,058
233,669	-0,840	244,649	121,009
234,684	-0,725	244,302	120,920
235,699	-0,916	244,385	120,795
236,713	-1,075	244,169	120,548
237,728	-0,988	244,021	120,535
238,742	-0,737	243,600	120,520
239,757	-0,666	243,613	120,573
240,772	-0,681	243,458	120,474
241,786	-0,761	243,434	120,386
242,801	-0,917	243,244	120,155
243,815	-0,715	243,043	120,208
244,830	-0,842	242,913	120,031
245,844	-0,733	242,715	120,010
246,859	-0,706	242,501	119,915
247,874	-0,668	242,265	119,819
248,888	-0,899	242,233	119,606
249,903	-0,692	242,005	119,650
250,917	-0,701	241,928	119,593
251,932	-0,672	241,799	119,542
252,947	-0,695	241,451	119,341
253,961	-0,539	241,365	119,413
254,976	-0,687	241,233	119,218
255,990	-0,796	241,100	119,055
257,005	-0,897	240,994	118,911
258,020	-0,808	240,770	118,861
259,034	-0,610	240,681	118,965
260,049	-0,660	240,425	118,788
261,063	-0,680	240,315	118,707
262,078	-0,629	240,115	118,638
263,093	-0,836	239,913	118,363
264,107	-0,722	239,982	118,477
265,122	-0,726	239,732	118,340
266,136	-0,829	239,564	118,165
267,151	-0,664	239,402	118,205
268,166	-1,059	239,357	117,859
269,180	-0,644	238,959	117,981
270,195	-0,562	238,894	118,004
271,209	-0,774	238,721	117,740
272,224	-0,697	238,675	117,768
273,239	-0,818	238,574	117,612
274,253	-0,642	238,191	117,551
275,268	-0,801	238,232	117,435
276,282	-0,711	237,931	117,348
277,297	-0,501	237,794	117,436
278,312	-0,657	237,639	117,226
279,326	-0,448	237,521	117,321
280,341	-0,386	237,394	117,297
281,355	-0,551	237,238	117,079
282,370	-0,664	237,109	116,917
283,384	-0,616	236,940	116,860
284,399	-0,488	236,785	116,874
285,414	-0,491	236,757	116,847
286,428	-0,490	236,540	116,731
287,443	-0,426	236,376	116,690
288,457	-0,336	236,195	116,660
289,472	-0,623	235,989	116,323
290,487	-0,709	235,948	116,226
291,501	-0,522	235,770	116,274
292,516	-0,548	235,523	116,121
293,530	-0,505	235,505	116,136
294,545	-0,478	235,322	116,056
295,560	-0,431	235,133	115,990
296,574	-0,467	235,046	115,907
297,589	-0,510	234,780	115,733
298,603	-0,505	234,661	115,668
299,618	-0,681	234,565	115,473
300,633	-0,322	234,325	115,624
301,647	-0,294	234,243	115,595
302,662	-0,442	234,207	115,451
303,676	-0,311	233,964	115,423
304,691	-0,294	233,956	115,421
305,706	-0,338	233,687	115,245
306,720	-0,276	233,519	115,200
307,735	-0,409	233,542	115,098
308,749	-0,236	233,291	115,097
309,764	-0,341	233,091	114,908
310,779	-0,262	232,974	114,901
311,793	-0,282	232,815	114,797
312,808	-0,317	232,606	114,656
313,822	-0,401	232,424	114,492
314,837	-0,136	232,328	114,638
315,852	-0,248	232,401	114,578
316,866	-0,299	231,974	114,318
317,881	-0,266	231,928	114,310
318,895	-0,060	231,715	114,353
319,910	-0,163	231,599	114,207
320,925	-0,223	231,526	114,114
321,939	-0,293	231,280	113,929
322,954	-0,074	231,321	114,106
323,968	-0,176	231,203	113,961
324,983	-0,164	231,007	113,863
325,997	-0,284	230,913	113,715
327,012	-0,047	230,457	113,661
328,027	-0,237	230,638	113,595
329,041	0,047	230,209	113,589
330,056	-0,110	230,235	113,473
331,070	-0,176	230,131	113,361
332,085	-0,146	230,010	113,315
333,100	0,073	229,696	113,315
334,114	0,020	229,563	113,200
335,129	-0,112	229,380	112,999
336,143	-0,035	229,240	112,979
337,158	0,143	229,074	113,021
338,173	0,096	229,024	112,951
339,187	0,170	228,860	112,916
340,202	0,263	228,708	112,901
341,216	0,092	228,651	112,734
342,231	0,232	228,454	112,732
343,246	0,219	228,330	112,651
344,260	0,199	228,221	112,573
345,275	0,268	228,077	112,543
346,289	0,013	228,021	112,314
347,304	0,173	227,777	112,304
348,319	0,112	227,479	112,101
349,333	0,261	227,506	112,216
350,348	0,092	227,414	112,034
351,362	0,210	227,127	111,971
352,377	0,204	227,158	111,972
353,392	0,251	226,990	111,914
354,406	0,283	226,724	111,797
355,421	196,421	1317,592	1392,680
356,435	157,520	1450,457	1392,625
