DTS Sentinel unit serial number:	SN410029Multiplexer serial number:	ORYXHardware model number:	OX2-SRSoftware version number:	ORYX F/W v4,00 Oryx Data Collector v3.7.2.0data status	okinstallation	B5 Nyhavnadifferential loss correction	single-endedforward channel	channel 2reverse channel	N/Adate	2023/12/12time	14:32:13forward acquisition time	300,00reverse acquisition time	0,00gamma	499,1914k internal	0,3157k external	0,3157temperature offset calibration	1,0000default loss term (dB/km)	0,3820temperature slope calibration	1,0000multiplexer offset coefficient	1,0000multiplexer slope coefficient	1,0000fibre end	0,00T internal ref (°C)	15,87T ext. ref 1 (°C)	-0,32T ext. ref 2 (°C)	-0,56length (m)	temperature (°C)	Stokes	anti-Stokes-744,400	-200,000	0,001	-0,027
-743,385	-169,451	-0,206	0,005
-742,371	-50,243	0,081	0,028
-741,356	-13,640	-0,223	0,106
-740,342	-46,806	0,187	-0,067
-739,327	-51,075	-0,245	-0,084
-738,312	-90,911	0,147	0,031
-737,298	-132,082	-0,356	0,034
-736,283	-200,000	-0,008	0,076
-735,269	-65,663	-0,195	0,057
-734,254	-110,347	0,136	-0,021
-733,239	-2,334	-0,441	-0,227
-732,225	-98,528	0,151	0,028
-731,210	556,575	0,015	-0,027
-730,196	504,054	0,047	-0,080
-729,181	135,493	0,023	-0,022
-728,167	-57,964	-0,215	-0,069
-727,152	-200,000	-0,027	0,180
-726,137	-99,145	-0,081	-0,015
-725,123	-200,000	-0,008	-0,112
-724,108	-200,000	0,002	-0,114
-723,094	-42,089	-0,228	-0,085
-722,079	-20,082	0,025	0,011
-721,064	800,000	-0,039	-0,104
-720,050	215,607	-0,116	-0,135
-719,035	-165,967	0,030	0,001
-718,021	598,516	-0,030	0,054
-717,006	474,338	-0,044	0,073
-715,991	-169,740	-0,172	0,004
-714,977	458,716	-0,034	-0,056
-713,962	542,444	-0,070	-0,123
-712,948	32,816	0,084	0,053
-711,933	800,000	0,047	0,113
-710,918	-130,066	-0,105	-0,010
-709,904	354,685	-0,057	-0,084
-708,889	-200,000	0,024	-0,253
-707,875	800,000	-0,029	-0,061
-706,860	-143,633	-0,057	0,004
-705,845	-81,106	-0,022	-0,005
-704,831	772,321	-0,051	0,103
-703,816	-123,721	-0,121	-0,014
-702,802	204,631	0,014	0,016
-701,787	179,242	-0,117	-0,126
-700,772	-39,936	-0,139	-0,053
-699,758	-200,000	0,004	-0,101
-698,743	800,000	-0,057	-0,145
-697,729	-66,458	-0,074	0,022
-696,714	-200,000	0,018	0,079
-695,699	-131,155	0,097	0,009
-694,685	51,330	0,072	-0,050
-693,670	800,000	-0,042	-0,114
-692,656	-200,000	0,000	0,051
-691,641	-200,000	-0,023	0,103
-690,627	277,512	-0,022	0,028
-689,612	-8,084	-0,017	-0,009
-688,597	-73,981	-0,098	-0,026
-687,583	-12,471	-0,132	-0,063
-686,568	-13,291	-0,113	0,054
-685,554	69,760	-0,145	-0,110
-684,539	800,000	-0,031	-0,072
-683,524	-200,000	-0,038	-0,140
-682,510	-200,000	0,009	-0,048
-681,495	332,371	-0,081	-0,116
-680,481	358,872	0,016	-0,024
-679,466	-33,599	-0,039	0,016
-678,451	134,510	0,128	-0,122
-677,437	492,608	-0,028	0,048
-676,422	-23,274	-0,053	0,023
-675,408	142,072	0,133	-0,130
-674,393	428,537	0,054	0,086
-673,378	72,023	-0,063	0,049
-672,364	-115,926	-0,106	0,014
-671,349	113,528	-0,034	0,030
-670,335	-117,132	0,155	0,020
-669,320	800,000	0,045	-0,105
-668,305	153,922	-0,083	-0,084
-667,291	19,851	0,103	-0,061
-666,276	264,267	0,034	0,044
-665,262	243,589	0,005	0,006
-664,247	-90,973	-0,180	-0,038
-663,232	-200,000	-0,029	0,106
-662,218	-83,850	-0,152	0,035
-661,203	97,214	-0,017	-0,015
-660,189	-200,000	0,003	0,122
-659,174	387,650	0,041	0,062
-658,159	800,000	-0,041	-0,130
-657,145	800,000	-0,036	-0,115
-656,130	-200,000	-0,001	-0,028
-655,116	32,722	-0,185	-0,117
-654,101	-200,000	0,030	0,109
-653,086	109,969	-0,085	-0,075
-652,072	-200,000	-0,019	-0,166
-651,057	-28,049	-0,102	-0,043
-650,043	-153,217	-0,138	-0,007
-649,028	300,186	0,068	-0,093
-648,014	-200,000	0,005	0,039
-646,999	206,035	0,061	0,070
-645,984	-117,731	0,059	0,008
-644,970	166,323	-0,053	0,056
-643,955	146,389	0,064	-0,063
-642,941	-9,971	0,017	-0,008
-641,926	-200,000	-0,022	-0,086
-640,911	197,442	0,047	0,053
-639,897	-25,160	-0,034	0,015
-638,882	751,470	0,051	-0,102
-637,868	-200,000	0,019	-0,101
-636,853	-200,000	0,001	0,101
-635,838	-183,413	0,074	-0,001
-634,824	-51,024	-0,041	-0,014
-633,809	21,734	0,057	0,034
-632,795	0,872	0,064	0,034
-631,780	800,000	0,020	0,042
-630,765	800,000	-0,052	0,130
-629,751	-45,778	-0,116	-0,042
-628,736	-79,354	-0,143	-0,035
-627,722	-79,674	0,050	0,012
-626,707	82,383	-0,218	-0,173
-625,692	-47,295	0,121	0,043
-624,678	-71,818	0,056	-0,015
-623,663	30,794	0,080	-0,050
-622,649	203,365	-0,057	-0,065
-621,634	-2,693	-0,167	-0,085
-620,619	636,245	-0,068	-0,128
-619,605	800,000	0,052	-0,117
-618,590	-45,200	0,099	-0,036
-617,576	157,186	0,057	-0,058
-616,561	-200,000	-0,008	-0,078
-615,546	-69,937	0,060	-0,017
-614,532	800,000	0,030	0,073
-613,517	291,933	-0,034	0,045
-612,503	531,596	-0,045	0,079
-611,488	-200,000	0,001	-0,076
-610,474	-52,986	0,056	-0,019
-609,459	-200,000	-0,025	0,087
-608,444	43,320	0,021	-0,014
-607,430	7,155	-0,079	-0,043
-606,415	774,358	-0,046	0,093
-605,401	119,145	0,046	-0,042
-604,386	783,698	0,024	-0,049
-603,371	-200,000	0,025	-0,107
-602,357	37,397	-0,019	0,012
-601,342	-103,170	0,124	-0,021
-600,328	239,026	0,111	-0,136
-599,313	-120,267	-0,068	0,008
-598,298	-147,444	0,121	0,007
-597,284	-200,000	-0,005	0,038
-596,269	-200,000	0,013	0,126
-595,255	68,276	0,034	-0,025
-594,240	800,000	-0,060	-0,141
-593,225	-200,000	-0,005	-0,060
-592,211	34,342	-0,065	-0,042
-591,196	331,270	-0,019	-0,027
-590,182	285,686	-0,047	0,062
-589,167	323,079	0,058	0,081
-588,152	-66,662	0,207	0,060
-587,138	-200,000	-0,001	0,104
-586,123	297,041	-0,045	-0,061
-585,109	-143,010	0,128	-0,009
-584,094	800,000	-0,022	-0,066
-583,079	-200,000	-0,011	0,039
-582,065	-200,000	0,018	-0,089
-581,050	-200,000	-0,004	0,127
-580,036	800,000	0,015	-0,048
-579,021	-119,488	-0,138	-0,017
-578,006	-33,286	-0,139	-0,056
-576,992	-50,684	-0,021	0,007
-575,977	53,190	-0,042	0,029
-574,963	-200,000	0,008	0,047
-573,948	276,561	0,070	-0,091
-572,934	128,452	0,085	0,080
-571,919	724,643	-0,051	-0,100
-570,904	-200,000	0,017	-0,089
-569,890	800,000	0,045	0,125
-568,875	20,809	-0,108	0,064
-567,861	-119,700	0,096	-0,012
-566,846	234,991	0,059	0,071
-565,831	-39,496	-0,050	0,019
-564,817	33,738	0,099	-0,063
-563,802	-136,907	-0,136	0,011
-562,788	-137,387	0,048	-0,004
-561,773	800,000	0,039	-0,120
-560,758	473,883	0,041	-0,067
-559,744	-200,000	0,011	-0,037
-558,729	8,762	0,087	-0,048
-557,715	54,315	0,068	-0,048
-556,700	106,187	-0,132	0,114
-555,685	-114,758	-0,055	-0,008
-554,671	3,592	-0,069	0,037
-553,656	331,188	0,034	-0,049
-552,642	800,000	0,026	0,064
-551,627	45,362	-0,085	-0,057
-550,612	213,559	-0,046	-0,053
-549,598	-71,308	-0,114	-0,031
-548,583	-200,000	0,001	0,006
-547,569	36,243	-0,135	0,087
-546,554	800,000	-0,056	-0,129
-545,539	-200,000	0,005	-0,094
-544,525	-153,272	-0,057	-0,003
-543,510	5,212	-0,086	0,046
-542,496	23,212	-0,109	-0,065
-541,481	800,000	-0,040	-0,094
-540,466	26,612	-0,095	-0,058
-539,452	28,515	-0,038	0,024
-538,437	-124,332	-0,082	0,009
-537,423	185,873	0,033	-0,036
-536,408	46,948	-0,020	0,014
-535,393	-109,906	-0,091	-0,014
-534,379	139,221	0,086	-0,082
-533,364	-200,000	-0,018	-0,100
-532,350	248,143	0,090	0,111
-531,335	-200,000	0,014	0,098
-530,321	800,000	-0,014	0,030
-529,306	71,473	0,043	0,033
-528,291	116,601	-0,089	-0,080
-527,277	-93,284	-0,150	0,030
-526,262	-200,000	-0,024	-0,169
-525,248	-31,334	0,139	0,057
-524,233	118,315	-0,018	-0,016
-523,218	135,154	0,069	-0,066
-522,204	-80,740	0,055	0,013
-521,189	-200,000	0,047	-0,171
-520,175	-107,389	-0,066	-0,011
-519,160	-115,101	0,148	0,020
-518,145	-200,000	-0,014	0,078
-517,131	-200,000	0,003	0,047
-516,116	-62,797	0,033	0,010
-515,102	321,074	0,141	0,196
-514,087	119,949	-0,079	-0,071
-513,072	20,779	-0,082	-0,048
-512,058	740,046	0,034	-0,067
-511,043	-58,748	-0,056	0,018
-510,029	-93,005	0,058	-0,012
-509,014	17,653	0,039	0,023
-507,999	-66,453	0,042	-0,012
-506,985	-52,197	-0,118	-0,040
-505,970	-200,000	-0,001	-0,161
-504,956	-54,056	-0,043	0,014
-503,941	800,000	-0,028	-0,083
-502,926	-123,591	0,061	-0,007
-501,912	-200,000	-0,007	0,174
-500,897	-200,000	0,004	-0,058
-499,883	796,639	-0,038	-0,077
-498,868	800,000	-0,022	-0,061
-497,853	-200,000	-0,002	-0,103
-496,839	698,513	0,039	-0,076
-495,824	800,000	-0,019	-0,042
-494,810	-200,000	-0,040	0,138
-493,795	-151,239	-0,166	-0,009
-492,781	-26,590	-0,067	0,028
-491,766	-176,754	-0,074	0,001
-490,751	127,220	0,026	0,024
-489,737	323,965	-0,040	0,055
-488,722	-42,416	-0,080	0,030
-487,708	193,390	0,042	-0,047
-486,693	50,379	-0,062	0,043
-485,678	42,504	0,068	-0,045
-484,664	66,836	-0,048	-0,036
-483,649	-200,000	0,007	-0,025
-482,635	-29,003	0,044	0,019
-481,620	179,416	0,159	0,170
-480,605	-200,000	-0,006	0,154
-479,591	-200,000	-0,059	0,197
-478,576	-200,000	-0,003	0,046
-477,562	800,000	-0,056	-0,122
-476,547	296,839	-0,045	-0,060
-475,532	-61,572	-0,144	-0,044
-474,518	160,287	0,102	0,104
-473,503	-137,720	-0,055	-0,004
-472,489	-155,033	-0,079	0,004
-471,474	34,785	-0,004	-0,002
-470,459	656,015	0,015	-0,029
-469,445	-200,000	-0,002	-0,102
-468,430	-200,000	-0,044	-0,260
-467,416	-28,234	-0,056	-0,024
-466,401	-69,230	0,046	-0,013
-465,386	-200,000	0,047	0,196
-464,372	-200,000	0,006	-0,097
-463,357	259,288	-0,083	0,105
-462,343	595,712	-0,031	-0,056
-461,328	-91,349	-0,156	-0,032
-460,313	770,772	0,021	0,041
-459,299	464,332	0,041	0,068
-458,284	-200,000	-0,016	0,270
-457,270	-200,000	-0,017	0,141
-456,255	680,754	0,022	0,042
-455,241	142,633	-0,039	0,038
-454,226	78,925	-0,047	0,037
-453,211	800,000	0,045	-0,112
-452,197	800,000	0,036	0,084
-451,182	360,784	0,024	-0,035
-450,168	-200,000	0,003	0,024
-449,153	166,357	0,100	-0,103
-448,138	-16,292	-0,041	0,019
-447,124	67,654	0,039	0,029
-446,109	800,000	0,007	-0,015
-445,095	624,570	-0,038	-0,070
-444,080	-200,000	0,039	0,135
-443,065	-22,753	-0,089	0,039
-442,051	-64,524	-0,148	-0,043
-441,036	-109,021	-0,058	0,009
-440,022	-103,127	-0,036	-0,006
-439,007	475,988	0,027	0,045
-437,992	-200,000	-0,004	0,116
-436,978	800,000	-0,033	0,097
-435,963	65,208	0,048	0,035
-434,949	-200,000	-0,002	0,079
-433,934	-200,000	-0,012	-0,107
-432,919	73,653	-0,079	-0,060
-431,905	231,463	0,056	-0,067
-430,890	800,000	-0,020	0,046
-429,876	800,000	-0,041	0,127
-428,861	204,409	0,114	0,129
-427,846	232,755	-0,098	-0,117
-426,832	-127,025	0,167	0,018
-425,817	390,669	-0,055	0,083
-424,803	367,269	-0,063	0,093
-423,788	-200,000	0,014	-0,086
-422,773	759,427	-0,032	0,063
-421,759	800,000	-0,017	-0,044
-420,744	800,000	0,028	0,068
-419,730	-105,862	-0,089	0,015
-418,715	-73,991	-0,113	0,030
-417,701	800,000	0,059	0,158
-416,686	-54,411	0,095	-0,031
-415,671	-125,484	0,088	0,010
-414,657	-158,482	0,174	0,007
-413,642	-200,000	0,004	-0,124
-412,628	-19,815	-0,079	-0,035
-411,613	331,997	0,022	-0,031
-410,598	230,214	-0,053	0,063
-409,584	58,011	0,043	-0,031
-408,569	-92,873	0,003	0,001
-407,555	195,695	0,054	0,060
-406,540	-98,072	0,185	0,034
-405,525	-200,000	0,010	0,033
-404,511	127,649	0,038	-0,035
-403,496	439,480	0,030	-0,048
-402,482	244,110	-0,090	-0,110
-401,467	-37,576	0,029	0,011
-400,452	-200,000	-0,036	0,117
-399,438	143,616	0,052	0,051
-398,423	-115,184	0,140	-0,019
-397,409	800,000	0,025	-0,054
-396,394	-200,000	0,007	-0,098
-395,379	-19,907	0,053	-0,024
-394,365	112,890	0,060	0,053
-393,350	52,595	-0,142	-0,098
-392,336	-200,000	-0,023	0,184
-391,321	-104,998	0,032	-0,005
-390,306	556,919	-0,053	0,093
-389,292	-71,046	0,080	0,022
-388,277	-200,000	-0,002	0,038
-387,263	21,397	0,152	0,090
-386,248	8,727	-0,135	0,074
-385,233	-200,000	0,012	0,128
-384,219	-24,539	-0,075	0,032
-383,204	278,770	0,090	0,117
-382,190	91,261	-0,134	-0,109
-381,175	-200,000	0,003	-0,125
-380,160	451,181	-0,035	0,056
-379,146	800,000	0,010	0,023
-378,131	-143,241	0,001	0,000
-377,117	235,898	-0,028	0,034
-376,102	179,114	0,051	-0,054
-375,088	64,631	0,128	0,093
-374,073	183,590	-0,102	-0,110
-373,058	-60,238	0,064	-0,020
-372,044	210,687	0,049	0,056
-371,029	-67,469	0,194	0,055
-370,015	800,000	-0,048	0,110
-369,000	800,000	-0,008	-0,021
-367,985	800,000	0,009	0,026
-366,971	800,000	-0,036	0,094
-365,956	387,130	-0,040	0,060
-364,942	-24,799	0,025	0,011
-363,927	-200,000	0,003	-0,062
-362,912	-200,000	-0,018	0,098
-361,898	119,380	-0,150	-0,135
-360,883	-134,945	0,099	-0,009
-359,869	182,312	0,021	-0,023
-358,854	-200,000	0,000	0,080
-357,839	27,621	0,047	0,029
-356,825	-200,000	0,015	0,060
-355,810	0,834	-0,044	-0,023
-354,796	65,873	0,062	0,046
-353,781	-200,000	-0,010	-0,037
-352,766	-200,000	-0,002	0,058
-351,752	-200,000	0,034	0,120
-350,737	800,000	0,043	0,099
-349,723	-30,308	0,068	0,028
-348,708	36,790	0,068	0,044
-347,693	-143,585	-0,120	0,008
-346,679	-200,000	0,010	-0,131
-345,664	375,740	0,106	-0,157
-344,650	800,000	-0,028	-0,061
-343,635	35,206	0,055	0,035
-342,620	800,000	-0,048	0,113
-341,606	289,836	0,109	0,144
-340,591	-93,027	0,052	0,010
-339,577	411,161	0,035	-0,054
-338,562	-45,377	-0,151	-0,054
-337,548	32,195	-0,184	-0,115
-336,533	169,773	0,024	0,025
-335,518	800,000	0,044	0,117
-334,504	270,420	0,117	-0,150
-333,489	-53,277	-0,198	0,065
-332,475	181,431	0,031	-0,033
-331,460	339,569	-0,084	-0,119
-330,445	43,491	-0,059	-0,039
-329,431	-70,671	0,104	0,028
-328,416	-200,000	0,016	0,077
-327,402	10,314	-0,063	-0,035
-326,387	800,000	0,047	0,127
-325,372	56,959	0,059	-0,042
-324,358	-200,000	0,012	-0,081
-323,343	-69,423	0,038	0,010
-322,329	-140,702	-0,062	0,005
-321,314	192,487	0,133	-0,145
-320,299	175,688	0,121	-0,127
-319,285	165,751	-0,079	-0,081
-318,270	-2,290	-0,070	-0,035
-317,256	258,296	-0,034	-0,043
-316,241	-78,204	-0,184	0,046
-315,226	-127,266	0,104	0,011
-314,212	0,078	-0,025	0,013
-313,197	59,816	0,078	0,055
-312,183	247,329	0,103	-0,126
-311,168	81,949	-0,032	-0,025
-310,153	800,000	-0,037	-0,091
-309,139	209,382	-0,055	0,063
-308,124	-200,000	-0,038	0,137
-307,110	195,867	0,066	0,072
-306,095	7,821	0,058	-0,032
-305,080	-11,862	-0,117	-0,055
-304,066	11,182	0,081	0,045
-303,051	-200,000	-0,008	-0,083
-302,037	461,357	0,054	-0,087
-301,022	-200,000	0,013	-0,126
-300,008	542,269	-0,065	-0,113
-298,993	-110,821	0,145	0,021
-297,978	429,961	-0,067	0,105
-296,964	-18,524	0,089	0,040
-295,949	800,000	-0,022	-0,052
-294,935	800,000	0,010	-0,027
-293,920	557,773	-0,053	-0,094
-292,905	15,488	0,041	0,023
-291,891	-200,000	0,012	0,127
-290,876	337,214	-0,095	0,134
-289,862	-200,000	0,016	-0,057
-288,847	419,424	0,081	0,126
-287,832	77,218	-0,103	-0,079
-286,818	272,705	-0,043	-0,055
-285,803	-200,000	-0,003	-0,168
-284,789	-83,568	-0,127	0,029
-283,774	-94,314	0,049	0,010
-282,759	153,557	0,040	0,040
-281,745	357,505	0,095	-0,137
-280,730	-200,000	-0,035	0,128
-279,716	1,003	-0,083	0,043
-278,701	181,631	0,038	-0,040
-277,686	-76,262	0,235	0,060
-276,672	-200,000	0,005	-0,108
-275,657	-200,000	-0,016	-0,058
-274,643	800,000	-0,011	-0,025
-273,628	191,007	-0,052	-0,057
-272,613	-100,396	-0,122	0,022
-271,599	39,620	0,107	-0,069
-270,584	-74,237	0,051	0,013
-269,570	-108,741	-0,090	-0,014
-268,555	-52,629	0,094	-0,031
-267,540	800,000	0,025	0,053
-266,526	-53,026	-0,033	-0,011
-265,511	79,869	0,085	-0,066
-264,497	-28,233	0,070	-0,029
-263,482	-200,000	0,017	0,132
-262,467	-134,596	0,142	-0,012
-261,453	255,370	-0,052	0,065
-260,438	-200,000	0,024	-0,085
-259,424	-200,000	-0,019	0,152
-258,409	-137,293	-0,046	-0,004
-257,395	621,838	-0,061	0,111
-256,380	-104,133	0,083	-0,014
-255,365	800,000	-0,025	0,076
-254,351	-1,404	0,121	-0,061
-253,336	358,843	-0,027	-0,039
-252,322	660,557	0,035	-0,066
-251,307	766,446	-0,010	-0,020
-250,292	800,000	0,015	0,035
-249,278	138,555	0,152	-0,145
-248,263	800,000	0,014	0,040
-247,249	118,495	-0,074	-0,066
-246,234	166,888	-0,039	0,040
-245,219	-68,058	-0,082	0,023
-244,205	-11,780	-0,037	-0,018
-243,190	800,000	0,029	-0,069
-242,176	-146,259	0,054	0,003
-241,161	-60,648	0,163	-0,050
-240,146	143,306	-0,015	0,015
-239,132	614,413	-0,080	0,145
-238,117	-81,211	-0,041	0,010
-237,103	160,783	0,046	0,046
-236,088	-200,000	0,004	-0,050
-235,073	248,390	0,018	0,023
-234,059	-109,550	0,075	-0,011
-233,044	-200,000	0,029	0,174
-232,030	167,599	-0,045	0,046
-231,015	-5,373	-0,081	-0,040
-230,000	-110,261	-0,088	-0,013
-228,986	-73,926	0,033	-0,009
-227,971	-156,885	0,152	0,007
-226,957	-92,419	0,076	-0,015
-225,942	800,000	0,036	-0,107
-224,927	-84,109	0,087	-0,020
-223,913	-124,327	-0,127	0,014
-222,898	-124,224	-0,110	0,012
-221,884	-200,000	0,000	0,108
-220,869	-18,871	-0,031	-0,014
-219,855	250,589	0,057	-0,069
-218,840	-200,000	0,004	0,016
-217,825	360,556	-0,051	0,074
-216,811	466,497	0,024	0,039
-215,796	800,000	-0,074	-0,185
-214,782	73,989	-0,058	-0,044
-213,767	-177,048	-0,174	0,003
-212,752	-200,000	0,005	0,026
-211,738	108,767	0,056	-0,048
-210,723	-200,000	0,015	0,071
-209,709	-200,000	-0,022	-0,111
-208,694	800,000	-0,041	-0,128
-207,679	108,513	-0,056	0,048
-206,665	-200,000	-0,010	0,074
-205,650	275,007	0,036	0,047
-204,636	-133,746	-0,015	-0,001
-203,621	63,888	0,072	-0,052
-202,606	-200,000	0,007	0,075
-201,592	24,645	-0,081	0,048
-200,577	53,330	0,038	-0,026
-199,563	26,455	0,100	0,060
-198,548	-200,000	-0,014	-0,048
-197,533	-200,000	-0,015	0,204
-196,519	-200,000	-0,006	-0,035
-195,504	-48,790	0,153	-0,053
-194,490	746,059	-0,014	-0,028
-193,475	-200,000	0,002	0,094
-192,460	371,534	0,039	0,057
-191,446	128,336	0,070	0,065
-190,431	-107,754	0,023	-0,004
-189,417	512,811	0,059	0,099
-188,402	800,000	-0,076	-0,190
-187,387	231,207	0,045	-0,053
-186,373	241,742	-0,016	0,019
-185,358	-188,861	0,108	-0,001
-184,344	437,114	-0,025	0,039
-183,329	-200,000	-0,001	0,073
-182,315	30,336	0,093	0,057
-181,300	-200,000	-0,029	-0,096
-180,285	267,639	0,053	-0,068
-179,271	-104,594	-0,103	-0,017
-178,256	-200,000	-0,011	0,042
-177,242	800,000	-0,027	0,078
-176,227	183,680	-0,028	-0,030
-175,212	7,836	0,080	-0,043
-174,198	-200,000	-0,062	0,225
-173,183	-200,000	0,014	0,061
-172,169	91,103	-0,119	-0,096
-171,154	-120,604	-0,050	-0,006
-170,139	-185,924	-0,171	0,002
-169,125	-125,649	-0,073	-0,008
-168,110	-200,000	-0,008	-0,033
-167,096	-184,422	-0,071	0,001
-166,081	-200,000	0,000	0,008
-165,066	-200,000	-0,017	-0,088
-164,052	-48,484	-0,085	-0,029
-163,037	-200,000	-0,003	0,101
-162,023	800,000	0,008	0,024
-161,008	-77,917	0,162	-0,040
-159,993	-77,134	-0,077	0,019
-158,979	-200,000	0,003	-0,080
-157,964	-200,000	-0,004	0,049
-156,950	195,447	-0,047	0,051
-155,935	386,962	-0,049	0,074
-154,920	50,407	0,130	-0,089
-153,906	-85,759	0,105	-0,023
-152,891	2,096	-0,121	0,063
-151,877	45,552	0,073	0,049
-150,862	38,124	-0,053	0,034
-149,847	226,679	-0,041	-0,048
-148,833	-34,574	0,078	-0,031
-147,818	468,302	0,034	0,056
-146,804	-126,775	-0,056	-0,006
-145,789	800,000	-0,010	-0,020
-144,775	286,282	0,014	-0,018
-143,760	-200,000	0,004	-0,052
-142,745	-200,000	0,013	-0,059
-141,731	-112,234	-0,106	-0,015
-140,716	-200,000	0,018	-0,070
-139,702	-63,265	0,065	0,019
-138,687	-27,327	0,077	0,032
-137,672	-130,667	-0,075	0,007
-136,658	-56,670	-0,082	0,026
-135,643	66,961	0,110	-0,080
-134,629	201,503	-0,061	-0,068
-133,614	-19,927	0,036	0,016
-132,599	800,000	0,046	-0,093
-131,585	-200,000	0,017	-0,062
-130,570	-83,529	0,046	0,010
-129,556	-111,848	0,021	-0,003
-128,541	-200,000	-0,007	0,024
-127,526	-200,000	-0,009	0,034
-126,512	-200,000	-0,002	0,177
-125,497	432,817	-0,073	0,114
-124,483	393,023	-0,090	0,135
-123,468	170,131	0,090	0,092
-122,453	-138,924	0,015	-0,001
-121,439	-200,000	-0,018	0,112
-120,424	-12,931	0,025	-0,012
-119,410	78,873	0,092	0,071
-118,395	29,593	-0,038	0,023
-117,380	-200,000	0,054	0,216
-116,366	-113,652	0,203	0,028
-115,351	4,996	0,050	0,026
-114,337	800,000	-0,044	-0,114
-113,322	800,000	0,018	0,049
-112,307	-64,568	-0,059	0,017
-111,293	-83,483	0,191	0,044
-110,278	800,000	-0,080	0,230
-109,264	-200,000	-0,037	-0,135
-108,249	62,010	0,050	0,036
-107,234	800,000	0,025	0,075
-106,220	313,224	0,048	-0,065
-105,205	800,000	0,086	0,183
-104,191	800,000	-0,058	0,116
-103,176	-200,000	-0,015	0,073
-102,162	800,000	-0,046	-0,110
-101,147	148,128	-0,068	-0,066
-100,132	-200,000	-0,022	-0,073
-99,118	-200,000	0,013	-0,133
-98,103	-167,934	0,213	-0,006
-97,089	-169,770	-0,074	0,002
-96,074	3,318	0,145	0,076
-95,059	-46,496	-0,079	-0,028
-94,045	800,000	0,019	0,057
-93,030	2,412	-0,110	-0,057
-92,016	469,241	-0,023	0,037
-91,001	520,164	0,080	0,136
-89,986	-112,533	0,148	-0,021
-88,972	-200,000	0,017	0,128
-87,957	800,000	0,003	-0,010
-86,943	384,593	0,058	-0,086
-85,928	-200,000	0,015	-0,058
-84,913	-172,701	0,042	-0,001
-83,899	378,477	-0,063	-0,093
-82,884	-200,000	-0,026	0,126
-81,870	-80,202	-0,023	-0,006
-80,855	139,223	0,053	0,050
-79,840	-200,000	-0,031	0,111
-78,826	-54,662	-0,144	0,046
-77,811	800,000	-0,044	-0,110
-76,797	-200,000	0,016	-0,124
-75,782	800,000	0,027	-0,074
-74,767	800,000	0,012	-0,026
-73,753	800,000	-0,004	-0,009
-72,738	393,722	-0,045	0,067
-71,724	800,000	0,025	0,050
-70,709	-110,612	-0,142	0,021
-69,694	-200,000	-0,004	0,034
-68,680	-200,000	0,150	-0,000
-67,665	-200,000	0,039	-0,128
-66,651	622,784	0,092	0,166
-65,636	411,666	-0,069	0,105
-64,622	-138,409	0,078	0,006
-63,607	-52,169	0,096	-0,032
-62,592	113,320	-0,012	0,011
-61,578	63,357	0,127	-0,091
-60,563	107,360	0,151	0,129
-59,549	-200,000	-0,009	0,080
-58,534	-8,659	-1,964	-0,943
-57,519	800,000	-0,325	-0,823
-56,505	-200,000	-1,274	-4,772
-55,490	-23,465	0,715	0,307
-54,476	800,000	5,431	12,048
-53,461	-200,000	17,199	284,974
-52,446	800,000	723,125	2231,062
-51,432	544,414	1639,305	2821,072
-50,417	112,121	1631,180	1414,822
-49,403	76,280	1286,347	976,838
-48,388	32,811	1028,757	637,696
-47,373	20,356	990,625	572,962
-46,359	18,808	978,736	560,979
-45,344	16,214	975,001	550,318
-44,330	16,356	973,392	549,853
-43,315	15,945	971,431	547,380
-42,300	15,901	970,430	546,651
-41,286	15,894	969,472	546,067
-40,271	15,884	968,201	545,295
-39,257	15,921	967,597	545,054
-38,242	15,846	966,836	544,360
-37,227	15,922	965,988	544,109
-36,213	15,903	965,073	543,510
-35,198	15,834	964,322	542,840
-34,184	15,927	963,550	542,686
-33,169	15,857	962,480	541,837
-32,154	15,947	961,485	541,546
-31,140	15,916	960,548	540,895
-30,125	15,930	959,931	540,572
-29,111	15,951	959,032	540,112
-28,096	15,929	958,488	539,714
-27,082	15,956	957,680	539,325
-26,067	15,978	956,911	538,942
-25,052	15,903	956,265	538,314
-24,038	15,900	955,608	537,914
-23,023	15,910	954,996	537,579
-22,009	15,898	954,142	537,039
-20,994	15,943	953,673	536,899
-19,979	15,951	953,007	536,527
-18,965	15,898	952,353	535,968
-17,950	15,884	952,001	535,703
-16,936	15,858	951,269	535,187
-15,921	15,845	950,422	534,648
-14,906	15,825	949,780	534,200
-13,892	15,809	949,088	533,740
-12,877	15,824	948,437	533,400
-11,863	15,794	947,897	532,979
-10,848	15,740	947,365	532,487
-9,833	15,849	946,978	532,596
-8,819	15,854	946,254	532,184
-7,804	15,826	945,542	531,672
-6,790	15,763	945,003	531,148
-5,775	15,820	944,342	530,937
-4,760	15,808	943,950	530,659
-3,746	15,792	943,110	530,114
-2,731	15,668	942,667	529,451
-1,717	15,661	941,694	528,862
-0,702	15,616	941,245	528,447
0,313	15,405	940,566	528,195
1,327	18,623	938,453	537,111
2,342	27,504	795,655	478,945
3,356	24,435	459,485	271,868
4,371	-2,465	314,110	157,301
5,386	-6,600	295,946	144,012
6,400	-8,491	289,825	139,147
7,415	-9,019	287,442	137,470
8,429	-9,342	285,893	136,402
9,444	-9,304	285,034	136,016
10,459	-9,227	284,333	135,745
11,473	-9,268	283,863	135,469
12,488	-9,119	283,196	135,283
13,502	-9,400	282,840	134,829
14,517	-9,012	282,150	134,862
15,531	-9,283	281,846	134,443
16,546	-9,162	281,467	134,367
17,561	-9,227	280,957	134,049
18,575	-9,155	280,744	134,005
19,590	-9,308	280,414	133,688
20,604	-9,259	280,212	133,627
21,619	-9,399	279,778	133,275
22,634	-9,244	279,364	133,214
23,648	-9,558	279,067	132,760
24,663	-9,318	278,793	132,847
25,677	-9,315	278,582	132,737
26,692	-9,324	278,294	132,581
27,707	-9,444	278,033	132,330
28,721	-9,283	277,696	132,311
29,736	-9,179	277,408	132,260
30,750	-9,518	277,183	131,820
31,765	-9,154	276,886	132,011
32,780	-9,386	276,795	131,737
33,794	-9,544	276,463	131,418
34,809	-9,391	276,289	131,468
35,823	-9,328	276,018	131,386
36,838	-9,435	275,737	131,141
37,853	-9,578	275,602	130,930
38,867	-9,304	275,169	130,970
39,882	-9,270	274,925	130,874
40,896	-9,478	274,713	130,566
41,911	-9,535	274,564	130,431
42,926	-9,363	274,273	130,442
43,940	-9,488	273,993	130,180
44,955	-9,483	273,741	130,054
45,969	-9,604	273,536	129,831
46,984	-9,562	273,401	129,795
47,999	-9,998	273,014	129,193
49,013	-9,928	272,921	129,203
50,028	-9,921	272,462	128,981
51,042	-10,169	272,286	128,656
52,057	-10,221	272,029	128,474
53,071	-10,065	271,766	128,483
54,086	-10,095	271,640	128,384
55,101	-9,840	271,627	128,603
56,115	-9,602	271,235	128,626
57,130	-9,387	271,305	128,846
58,144	-9,277	271,041	128,811
59,159	-9,202	270,752	128,732
60,174	-9,147	270,592	128,695
61,188	-9,221	270,256	128,456
62,203	-9,331	270,108	128,272
63,217	-9,362	269,880	128,125
64,232	-9,265	269,588	128,063
65,247	-9,327	269,462	127,935
66,261	-9,007	269,213	128,099
67,276	-9,387	268,932	127,606
68,290	-9,697	268,623	127,164
69,305	-9,485	268,345	127,215
70,320	-9,573	268,172	127,041
71,334	-9,420	268,040	127,107
72,349	-9,435	268,081	127,102
73,363	-9,175	267,560	127,079
74,378	-9,284	267,527	126,954
75,393	-9,082	267,178	126,960
76,407	-9,243	267,029	126,732
77,422	-9,442	266,911	126,484
78,436	-9,167	266,534	126,543
79,451	-9,214	266,414	126,432
80,466	-9,450	266,051	126,035
81,480	-9,416	265,870	125,969
82,495	-9,527	265,693	125,774
83,509	-9,317	265,500	125,861
84,524	-9,526	265,345	125,587
85,539	-9,586	265,070	125,392
86,553	-9,875	264,903	125,042
87,568	-9,568	264,670	125,197
88,582	-9,314	264,337	125,256
89,597	-9,453	264,257	125,082
90,611	-9,191	264,058	125,212
91,626	-9,256	263,990	125,110
92,641	-9,076	263,654	125,101
93,655	-9,301	263,552	124,841
94,670	-9,370	263,214	124,608
95,684	-9,417	263,221	124,557
96,699	-9,337	262,973	124,500
97,714	-9,379	262,667	124,307
98,728	-9,584	262,520	124,044
99,743	-9,694	262,350	123,854
100,757	-9,565	261,934	123,762
101,772	-9,692	261,889	123,616
102,787	-9,333	261,653	123,812
103,801	-9,304	261,611	123,808
104,816	-9,253	261,228	123,660
105,830	-9,114	261,131	123,726
106,845	-9,249	261,005	123,536
107,860	-9,237	260,823	123,449
108,874	-9,138	260,517	123,382
109,889	-9,294	260,338	123,148
110,903	-9,336	260,102	122,989
111,918	-9,397	259,921	122,839
112,933	-9,444	259,724	122,692
113,947	-9,235	259,563	122,789
114,962	-9,115	259,406	122,810
115,976	-9,318	259,217	122,530
116,991	-9,275	258,973	122,443
118,006	-9,290	258,880	122,375
119,020	-9,407	258,829	122,237
120,035	-9,330	258,565	122,168
121,049	-9,227	258,396	122,168
122,064	-9,169	258,160	122,097
123,079	-9,215	258,017	121,978
124,093	-9,339	257,582	121,653
125,108	-9,620	257,495	121,356
126,122	-9,487	257,087	121,268
127,137	-9,594	256,903	121,078
128,151	-9,680	256,861	120,972
129,166	-9,676	256,705	120,891
130,181	-9,495	256,368	120,880
131,195	-9,656	256,179	120,640
132,210	-9,440	256,120	120,789
133,224	-9,232	255,973	120,889
134,239	-9,143	255,757	120,853
135,254	-9,223	255,519	120,660
136,268	-9,257	255,233	120,486
137,283	-9,689	255,127	120,051
138,297	-9,758	255,025	119,933
139,312	-9,576	254,644	119,900
140,327	-9,477	254,637	119,971
141,341	-9,281	254,579	120,103
142,356	-9,280	254,408	120,012
143,370	-9,125	254,282	120,075
144,385	-9,028	253,971	120,001
145,400	-9,106	253,837	119,860
146,414	-9,056	253,602	119,781
147,429	-9,233	253,446	119,545
148,443	-9,165	253,288	119,518
149,458	-8,978	252,944	119,505
150,473	-8,945	252,824	119,465
151,487	-9,029	252,633	119,293
152,502	-9,074	252,503	119,183
153,516	-9,226	252,321	118,956
154,531	-9,173	252,210	118,939
155,546	-9,244	252,052	118,794
156,560	-9,190	251,960	118,785
157,575	-9,150	251,643	118,659
158,589	-9,205	251,405	118,489
159,604	-9,143	251,249	118,458
160,619	-9,088	251,144	118,445
161,633	-9,020	250,974	118,412
162,648	-8,912	250,654	118,342
163,662	-8,993	250,705	118,287
164,677	-8,843	250,475	118,294
165,692	-9,054	250,345	118,044
166,706	-8,881	250,092	118,060
167,721	-9,051	249,893	117,813
168,735	-8,985	249,774	117,801
169,750	-9,106	249,879	117,738
170,764	-8,964	249,535	117,686
171,779	-8,918	249,327	117,616
172,794	-9,127	249,299	117,416
173,808	-8,867	248,879	117,426
174,823	-9,166	248,539	117,005
175,837	-9,790	248,553	116,478
176,852	-9,090	248,432	116,996
177,867	-9,114	248,360	116,932
178,881	-9,138	248,324	116,885
179,896	-9,022	248,015	116,826
180,910	-8,918	247,652	116,731
181,925	-8,967	247,578	116,645
182,940	-8,858	247,516	116,697
183,954	-8,866	247,231	116,545
184,969	-9,095	247,120	116,292
185,983	-9,039	246,949	116,248
186,998	-9,025	246,776	116,167
188,013	-8,888	246,571	116,174
189,027	-8,606	246,415	116,325
190,042	-8,970	246,254	115,936
191,056	-9,061	246,105	115,780
192,071	-8,745	245,827	115,900
193,086	-9,179	245,928	115,579
194,100	-8,966	245,607	115,594
195,115	-8,961	245,391	115,486
196,129	-8,845	245,126	115,446
197,144	-8,840	245,043	115,401
198,159	-8,873	244,809	115,254
199,173	-8,854	244,634	115,177
200,188	-8,918	244,464	115,034
201,202	-9,340	244,175	114,540
202,217	-9,619	243,976	114,208
203,232	-9,622	243,782	114,105
204,246	-9,359	243,725	114,284
205,261	-8,825	243,653	114,677
206,275	-9,462	243,198	113,932
207,290	-6,043	244,632	117,404
208,304	0,795	246,889	124,135
209,319	3,570	247,576	126,764
210,334	4,118	247,615	127,226
211,348	4,456	247,397	127,382
212,363	4,811	247,234	127,578
213,377	4,679	247,275	127,480
214,392	4,561	247,130	127,296
215,407	4,627	246,954	127,249
216,421	4,571	246,689	127,055
217,436	4,604	246,535	126,991
218,450	4,806	246,489	127,121
219,465	4,490	246,357	126,783
220,480	4,192	246,129	126,410
221,494	4,135	245,935	126,252
222,509	4,461	245,749	126,413
223,523	4,323	245,444	126,132
224,538	4,128	245,190	125,830
225,553	3,966	245,265	125,725
226,567	4,011	244,961	125,595
227,582	4,037	244,924	125,586
228,596	4,140	244,780	125,585
229,611	3,820	244,432	125,135
230,626	3,673	244,294	124,933
231,640	3,842	244,265	125,045
232,655	4,202	243,953	125,167
233,669	3,965	243,845	124,908
234,684	3,862	243,558	124,666
235,699	4,241	243,679	125,024
236,713	4,510	243,449	125,113
237,728	4,073	243,204	124,622
238,742	3,856	243,015	124,339
239,757	3,826	242,790	124,188
240,772	3,789	242,726	124,114
241,786	3,723	242,761	124,068
242,801	3,731	242,473	123,916
243,815	3,802	242,258	123,853
244,830	4,097	242,147	124,022
245,844	4,199	241,901	123,967
246,859	3,997	241,737	123,709
247,874	3,903	241,542	123,523
248,888	4,261	241,336	123,694
249,903	3,942	241,402	123,461
250,917	4,236	241,340	123,654
251,932	4,276	241,115	123,560
252,947	4,236	240,782	123,347
253,961	3,956	240,736	123,088
254,976	4,011	240,573	123,037
255,990	4,244	240,610	123,231
257,005	4,070	240,358	122,952
258,020	3,733	240,040	122,510
259,034	3,652	240,054	122,442
260,049	4,147	239,759	122,675
261,063	3,810	239,619	122,324
262,078	3,698	239,560	122,194
263,093	4,125	239,416	122,449
264,107	4,233	239,171	122,398
265,122	3,886	239,042	122,046
266,136	4,217	238,815	122,182
267,151	4,497	238,703	122,335
268,166	4,050	238,458	121,845
269,180	3,710	238,495	121,584
270,195	4,499	238,453	122,176
271,209	4,796	238,302	122,322
272,224	4,257	237,878	121,669
273,239	3,783	237,618	121,151
274,253	3,910	237,499	121,180
275,268	4,032	237,479	121,255
276,282	3,918	237,360	121,094
277,297	3,689	237,095	120,768
278,312	3,810	236,899	120,752
279,326	4,046	236,886	120,920
280,341	4,226	236,728	120,970
281,355	4,184	236,620	120,871
282,370	4,115	236,652	120,822
283,384	3,987	236,254	120,508
284,399	3,928	236,264	120,456
285,414	3,820	235,947	120,200
286,428	3,895	235,861	120,204
287,443	3,902	235,629	120,080
288,457	4,078	235,630	120,207
289,472	4,236	235,441	120,223
290,487	4,065	235,208	119,961
291,501	3,857	235,072	119,718
292,516	3,608	234,881	119,417
293,530	3,621	234,686	119,317
294,545	3,864	234,809	119,558
295,560	3,955	234,571	119,497
296,574	3,781	234,369	119,248
297,589	3,773	234,300	119,196
298,603	4,140	234,051	119,343
299,618	4,240	234,109	119,439
300,633	4,035	233,770	119,097
301,647	4,116	233,801	119,166
302,662	4,387	233,621	119,273
303,676	4,554	233,396	119,276
304,691	4,238	233,180	118,911
305,706	4,439	233,123	119,027
306,720	4,605	232,917	119,038
307,735	4,192	232,868	118,685
308,749	4,025	232,674	118,447
309,764	3,988	232,349	118,242
310,779	3,943	232,254	118,149
311,793	3,878	231,903	117,910
312,808	3,622	231,945	117,724
313,822	3,790	231,707	117,722
314,837	3,856	231,604	117,709
315,852	3,680	231,437	117,479
316,866	4,024	231,223	117,623
317,881	4,204	231,070	117,672
318,895	3,999	230,961	117,450
319,910	4,114	231,007	117,550
320,925	4,371	230,784	117,622
321,939	4,180	230,610	117,378
322,954	4,118	230,563	117,296
323,968	3,985	230,416	117,110
324,983	3,789	230,198	116,840
325,997	4,138	230,032	117,010
327,012	4,162	230,027	117,016
328,027	4,227	229,829	116,954
329,041	4,483	229,829	117,138
330,056	4,772	229,799	117,331
331,070	4,770	229,589	117,211
332,085	4,330	229,267	116,704
333,100	4,357	229,012	116,584
334,114	4,145	228,919	116,366
335,129	4,220	228,952	116,429
336,143	4,623	228,674	116,582
337,158	4,743	228,604	116,626
338,173	4,334	228,349	116,177
339,187	4,136	228,323	116,005
340,202	4,230	228,160	115,982
341,216	4,375	227,799	115,897
342,231	4,167	227,775	115,718
343,246	4,073	227,639	115,569
344,260	4,576	227,317	115,772
345,275	4,406	227,447	115,700
346,289	4,471	227,300	115,664
347,304	4,412	227,192	115,554
348,319	4,508	227,136	115,588
349,333	4,317	226,850	115,289
350,348	4,138	226,570	115,003
351,362	4,233	226,629	115,093
352,377	4,289	226,321	114,968
353,392	3,668	226,230	114,449
354,406	3,965	225,942	114,514
355,421	194,825	1324,111	1398,997
356,435	156,127	1457,908	1399,012
