DTS Sentinel unit serial number:	SN410029Multiplexer serial number:	ORYXHardware model number:	OX2-SRSoftware version number:	ORYX F/W v4,00 Oryx Data Collector v3.7.2.0data status	okinstallation	B5 Nyhavnadifferential loss correction	single-endedforward channel	channel 2reverse channel	N/Adate	2023/12/14time	10:27:13forward acquisition time	300,00reverse acquisition time	0,00gamma	499,1914k internal	0,3161k external	0,3161temperature offset calibration	1,0000default loss term (dB/km)	0,3820temperature slope calibration	1,0000multiplexer offset coefficient	1,0000multiplexer slope coefficient	1,0000fibre end	0,00T internal ref (°C)	6,91T ext. ref 1 (°C)	-8,75T ext. ref 2 (°C)	-8,91length (m)	temperature (°C)	Stokes	anti-Stokes-744,400	316,401	0,138	0,192
-743,385	-0,244	-0,269	-0,140
-742,371	253,935	0,135	0,170
-741,356	-176,846	-0,255	-0,005
-740,342	463,191	0,150	0,248
-739,327	-109,334	-0,424	-0,065
-738,312	-97,104	0,152	0,029
-737,298	-22,277	-0,330	-0,147
-736,283	-84,645	0,257	0,059
-735,269	-116,432	-0,388	-0,052
-734,254	-112,699	0,191	0,028
-733,239	2,405	-0,532	-0,283
-732,225	-96,977	0,177	-0,034
-731,210	166,830	-0,058	0,061
-730,196	-162,519	-0,066	0,002
-729,181	35,173	0,004	-0,003
-728,167	800,000	-0,007	-0,018
-727,152	300,084	-0,033	0,045
-726,137	-200,000	-0,011	-0,184
-725,123	126,771	-0,132	0,123
-724,108	395,532	-0,077	-0,119
-723,094	-85,856	-0,079	0,018
-722,079	-63,956	-0,079	0,024
-721,064	-200,000	-0,009	-0,166
-720,050	379,375	0,039	0,058
-719,035	46,136	0,018	0,012
-718,021	-97,553	-0,158	-0,030
-717,006	800,000	0,022	-0,055
-715,991	-179,972	-0,105	0,002
-714,977	-200,000	0,036	0,133
-713,962	-35,496	-0,046	-0,018
-712,948	-200,000	0,006	-0,019
-711,933	-200,000	0,003	0,136
-710,918	-78,414	-0,116	-0,029
-709,904	0,834	-0,061	-0,032
-708,889	-200,000	0,007	-0,130
-707,875	-200,000	-0,008	-0,136
-706,860	-58,008	0,048	-0,015
-705,845	-200,000	0,017	-0,132
-704,831	-200,000	0,013	-0,164
-703,816	97,859	0,111	-0,094
-702,802	-200,000	-0,040	-0,195
-701,787	-100,287	-0,029	0,005
-700,772	-100,139	-0,086	0,016
-699,758	-47,721	-0,198	0,070
-698,743	45,467	0,085	0,058
-697,729	-200,000	-0,013	0,071
-696,714	-200,000	0,008	-0,164
-695,699	24,759	-0,051	0,031
-694,685	-48,667	-0,106	-0,037
-693,670	117,762	-0,047	-0,043
-692,656	199,007	-0,077	0,087
-691,641	202,987	0,024	-0,027
-690,627	25,754	0,046	-0,028
-689,612	-115,562	-0,021	0,003
-688,597	-66,563	-0,070	0,020
-687,583	101,381	-0,101	-0,086
-686,568	-200,000	0,001	0,011
-685,554	-81,398	0,046	-0,011
-684,539	800,000	-0,058	0,151
-683,524	-28,959	-0,033	0,014
-682,510	-163,550	0,215	0,007
-681,495	-138,244	-0,137	0,011
-680,481	774,454	-0,053	0,106
-679,466	674,526	-0,040	-0,077
-678,451	-24,670	0,112	0,049
-677,437	-200,000	-0,018	0,151
-676,422	-200,000	0,002	-0,129
-675,408	675,224	0,026	0,050
-674,393	391,775	-0,052	-0,080
-673,378	77,664	-0,070	-0,055
-672,364	339,333	-0,061	-0,088
-671,349	-200,000	-0,008	-0,028
-670,335	-111,440	-0,078	0,012
-669,320	-200,000	0,001	0,054
-668,305	-86,428	0,170	-0,038
-667,291	566,185	0,032	0,057
-666,276	-200,000	-0,005	0,036
-665,262	800,000	-0,037	-0,110
-664,247	-200,000	-0,011	0,099
-663,232	-200,000	0,012	0,057
-662,218	800,000	-0,018	-0,045
-661,203	800,000	-0,027	-0,065
-660,189	143,610	-0,008	0,008
-659,174	12,640	-0,147	-0,083
-658,159	-200,000	0,010	-0,105
-657,145	-200,000	-0,018	-0,118
-656,130	-46,422	-0,057	-0,020
-655,116	-181,007	0,166	-0,002
-654,101	139,116	0,064	-0,062
-653,086	-30,516	0,072	0,030
-652,072	314,924	-0,024	-0,033
-651,057	-42,733	-0,042	-0,016
-650,043	14,068	-0,230	-0,131
-649,028	234,633	-0,056	-0,067
-648,014	301,333	-0,100	-0,136
-646,999	115,137	0,011	0,009
-645,984	62,856	-0,160	-0,117
-644,970	182,396	0,104	-0,113
-643,955	-200,000	-0,023	-0,208
-642,941	490,103	0,014	-0,023
-641,926	-200,000	0,027	0,114
-640,911	-85,603	0,112	-0,025
-639,897	22,693	0,025	0,015
-638,882	-200,000	-0,015	-0,060
-637,868	-200,000	-0,006	0,037
-636,853	148,040	-0,115	-0,114
-635,838	-200,000	-0,001	-0,120
-634,824	-195,679	-0,061	0,000
-633,809	-183,160	-0,078	-0,001
-632,795	-200,000	-0,054	0,193
-631,780	100,357	-0,109	-0,093
-630,765	-200,000	-0,004	-0,107
-629,751	800,000	-0,023	-0,049
-628,736	99,400	-0,053	-0,045
-627,722	-200,000	0,008	-0,076
-626,707	25,542	0,129	0,078
-625,692	139,798	-0,117	0,113
-624,678	-200,000	0,060	0,207
-623,663	-120,107	0,141	0,017
-622,649	5,431	-0,022	-0,012
-621,634	4,398	-0,077	-0,041
-620,619	-82,792	-0,107	0,025
-619,605	-76,847	-0,029	-0,007
-618,590	777,500	-0,046	0,093
-617,576	64,408	-0,073	-0,054
-616,561	-101,813	-0,068	-0,012
-615,546	800,000	0,033	0,096
-614,532	309,979	-0,072	-0,098
-613,517	-200,000	0,002	0,076
-612,503	103,474	0,119	0,103
-611,488	-200,000	0,003	0,013
-610,474	-200,000	-0,001	0,135
-609,459	-34,022	-0,129	-0,052
-608,444	800,000	-0,026	0,063
-607,430	60,904	0,087	0,063
-606,415	23,028	-0,097	0,058
-605,401	23,725	-0,080	-0,048
-604,386	69,903	0,040	-0,030
-603,371	-142,163	0,021	0,002
-602,357	-101,841	0,115	0,020
-601,342	800,000	-0,031	-0,089
-600,328	-95,796	-0,064	-0,012
-599,313	-150,218	-0,033	-0,002
-598,298	65,039	-0,071	0,052
-597,284	-56,584	0,041	-0,013
-596,269	-95,018	-0,069	0,014
-595,255	-49,026	-0,027	0,009
-594,240	-103,075	0,104	0,018
-593,225	-99,262	-0,149	0,027
-592,211	-116,346	0,164	0,022
-591,196	21,695	-0,036	-0,022
-590,182	169,319	0,039	0,041
-589,167	717,749	-0,039	-0,076
-588,152	-46,874	-0,088	-0,031
-587,138	15,544	0,057	-0,033
-586,123	-200,000	-0,029	-0,122
-585,109	730,480	0,047	0,092
-584,094	-103,198	-0,139	-0,024
-583,079	-57,189	0,123	0,040
-582,065	443,166	0,055	0,088
-581,050	-90,931	-0,017	-0,004
-580,036	-134,788	-0,139	0,012
-579,021	-200,000	-0,004	-0,058
-578,006	25,900	-0,195	-0,119
-576,992	800,000	0,056	-0,159
-575,977	56,062	0,094	0,067
-574,963	-79,166	0,081	0,020
-573,948	-102,295	-0,096	0,017
-572,934	496,017	0,021	-0,036
-571,919	-200,000	0,011	0,059
-570,904	-184,314	0,064	0,001
-569,890	-90,101	-0,051	-0,011
-568,875	-200,000	-0,014	0,067
-567,861	-66,665	0,107	0,031
-566,846	414,531	0,042	0,066
-565,831	-180,836	-0,143	-0,002
-564,817	735,346	0,028	0,055
-563,802	-106,973	-0,042	-0,007
-562,788	800,000	-0,001	-0,002
-561,773	190,122	0,045	0,050
-560,758	234,074	-0,077	0,092
-559,744	-200,000	0,019	0,115
-558,729	-200,000	-0,015	-0,050
-557,715	-3,466	-0,068	0,035
-556,700	-132,603	-0,051	0,005
-555,685	355,598	0,014	0,021
-554,671	515,997	0,010	0,017
-553,656	51,049	-0,060	-0,042
-552,642	2,046	0,106	0,056
-551,627	72,925	-0,057	0,043
-550,612	800,000	-0,066	0,190
-549,598	800,000	-0,029	-0,085
-548,583	587,932	0,035	0,064
-547,569	536,767	0,050	0,087
-546,554	800,000	-0,064	-0,153
-545,539	157,865	-0,075	-0,076
-544,525	467,260	-0,037	-0,061
-543,510	282,444	-0,066	0,086
-542,496	227,917	0,084	-0,100
-541,481	14,495	-0,055	0,031
-540,466	-63,377	-0,078	-0,023
-539,452	-179,918	0,113	0,002
-538,437	-200,000	0,011	0,065
-537,423	267,246	0,040	0,051
-536,408	-38,679	-0,039	-0,015
-535,393	-42,133	-0,076	-0,028
-534,379	-37,732	-0,034	0,013
-533,364	-200,000	0,002	0,087
-532,350	-165,767	0,035	-0,001
-531,335	800,000	-0,012	0,025
-530,321	393,467	0,059	0,090
-529,306	541,820	0,064	-0,112
-528,291	46,329	-0,146	-0,098
-527,277	-112,789	-0,302	0,043
-526,262	800,000	-0,013	0,043
-525,248	-200,000	-0,011	0,079
-524,233	557,360	-0,081	0,143
-523,218	297,513	-0,059	-0,079
-522,204	-167,371	0,139	0,004
-521,189	-19,804	0,147	-0,066
-520,175	-200,000	-0,035	-0,164
-519,160	-76,714	0,127	-0,032
-518,145	7,437	0,035	0,019
-517,131	-200,000	-0,000	0,037
-516,116	-70,365	0,106	-0,029
-515,102	117,624	-0,032	0,029
-514,087	97,484	-0,182	-0,153
-513,072	-200,000	-0,006	-0,023
-512,058	28,461	-0,125	-0,077
-511,043	-71,771	0,105	0,028
-510,029	-101,282	-0,038	0,007
-509,014	-200,000	-0,000	-0,079
-507,999	-37,554	0,102	-0,040
-506,985	-108,258	0,001	0,000
-505,970	25,328	-0,083	0,050
-504,956	800,000	0,049	-0,148
-503,941	6,620	0,058	0,032
-502,926	-200,000	-0,010	-0,165
-501,912	-200,000	0,021	-0,113
-500,897	-72,750	-0,054	0,014
-499,883	85,942	-0,066	-0,053
-498,868	-200,000	0,001	0,030
-497,853	-161,681	-0,104	-0,004
-496,839	695,964	-0,017	0,032
-495,824	-200,000	0,022	-0,098
-494,810	71,657	0,138	0,104
-493,795	-100,859	-0,120	0,021
-492,781	-200,000	-0,023	0,131
-491,766	-160,913	-0,169	-0,006
-490,751	115,853	0,105	-0,094
-489,737	-200,000	-0,037	0,227
-488,722	-12,438	0,138	0,066
-487,708	-200,000	-0,021	0,081
-486,693	-13,297	0,095	0,045
-485,678	-200,000	-0,006	0,085
-484,664	195,658	-0,075	-0,083
-483,649	42,075	-0,105	-0,070
-482,635	-48,022	-0,011	-0,004
-481,620	50,808	0,101	0,070
-480,605	-101,964	0,067	0,012
-479,591	-200,000	0,027	0,098
-478,576	26,977	0,103	-0,063
-477,562	-130,359	-0,110	-0,011
-476,547	-200,000	-0,015	0,070
-475,532	-163,841	0,033	-0,001
-474,518	-108,788	-0,112	0,017
-473,503	-82,638	0,067	-0,016
-472,489	-200,000	0,023	0,101
-471,474	76,476	-0,104	0,080
-470,459	56,687	-0,132	-0,094
-469,445	3,605	-0,066	-0,035
-468,430	427,280	-0,039	0,061
-467,416	342,339	0,023	-0,033
-466,401	-75,803	0,197	0,051
-465,386	39,006	0,031	0,020
-464,372	-200,000	-0,016	0,102
-463,357	-121,145	0,166	-0,020
-462,343	79,753	-0,108	0,085
-461,328	-152,658	0,159	-0,008
-460,313	-200,000	0,015	0,072
-459,299	-133,505	0,107	-0,010
-458,284	246,248	0,034	0,041
-457,270	-200,000	0,028	0,154
-456,255	520,916	0,079	0,136
-455,241	-200,000	0,002	-0,018
-454,226	-71,439	-0,079	0,021
-453,211	22,154	0,083	-0,049
-452,197	123,857	0,096	-0,088
-451,182	-101,661	-0,122	0,021
-450,168	-200,000	0,013	-0,062
-449,153	314,315	-0,038	0,052
-448,138	-92,310	0,022	-0,004
-447,124	800,000	-0,023	0,073
-446,109	229,791	-0,014	0,017
-445,095	-108,278	0,111	0,017
-444,080	186,806	-0,107	0,116
-443,065	-200,000	0,001	0,152
-442,051	800,000	-0,050	-0,152
-441,036	-200,000	-0,041	0,166
-440,022	74,541	-0,055	0,042
-439,007	-132,023	0,158	0,015
-437,992	800,000	0,019	0,050
-436,978	762,273	0,048	0,095
-435,963	-12,476	0,080	0,038
-434,949	800,000	0,028	0,074
-433,934	-10,617	-0,085	-0,041
-432,919	-111,463	-0,083	0,012
-431,905	-58,490	0,142	0,045
-430,890	-62,415	0,079	0,024
-429,876	-161,655	0,083	0,003
-428,861	97,309	0,025	0,021
-427,846	-200,000	0,000	-0,041
-426,832	-85,135	-0,079	0,018
-425,817	208,939	-0,037	-0,042
-424,803	-200,000	-0,002	-0,088
-423,788	800,000	-0,013	-0,038
-422,773	279,713	0,099	-0,129
-421,759	-115,330	-0,080	0,011
-420,744	179,432	0,073	0,078
-419,730	-200,000	0,013	-0,083
-418,715	800,000	0,008	-0,019
-417,701	215,147	0,052	-0,060
-416,686	-44,551	0,081	0,029
-415,671	-121,265	0,086	0,010
-414,657	800,000	0,041	0,086
-413,642	137,842	-0,194	-0,185
-412,628	-122,989	-0,197	0,023
-411,613	800,000	-0,048	-0,121
-410,598	129,331	-0,088	-0,082
-409,584	-50,278	-0,049	-0,017
-408,569	-200,000	-0,001	0,023
-407,555	-15,955	0,131	0,060
-406,540	-200,000	-0,017	-0,103
-405,525	51,405	-0,081	-0,056
-404,511	45,152	0,073	-0,049
-403,496	370,952	0,046	0,068
-402,482	-200,000	0,039	0,145
-401,467	178,088	0,052	0,056
-400,452	800,000	-0,090	-0,216
-399,438	22,529	0,037	-0,022
-398,423	-83,657	0,056	0,013
-397,409	-183,909	-0,207	0,002
-396,394	-62,888	0,066	0,020
-395,379	11,790	0,126	0,070
-394,365	22,047	-0,042	0,025
-393,350	800,000	0,077	-0,185
-392,336	19,687	0,109	-0,064
-391,321	-200,000	0,022	-0,078
-390,306	53,327	-0,188	-0,130
-389,292	-200,000	-0,047	-0,154
-388,277	800,000	-0,022	0,057
-387,263	800,000	-0,024	0,075
-386,248	-92,999	0,085	-0,017
-385,233	167,855	-0,074	-0,077
-384,219	-200,000	-0,018	-0,111
-383,204	1,910	0,020	-0,010
-382,190	800,000	0,023	-0,048
-381,175	800,000	0,028	0,073
-380,160	-46,488	0,077	-0,027
-379,146	-200,000	-0,036	0,160
-378,131	800,000	-0,059	0,123
-377,117	41,591	-0,080	0,052
-376,102	-200,000	-0,006	-0,122
-375,088	-200,000	-0,004	0,056
-374,073	-200,000	0,025	0,096
-373,058	-194,739	-0,037	0,000
-372,044	800,000	-0,010	-0,026
-371,029	330,203	0,050	0,070
-370,015	-51,271	0,046	-0,016
-369,000	-200,000	0,017	-0,112
-367,985	11,356	0,073	-0,041
-366,971	800,000	-0,024	-0,070
-365,956	-35,905	-0,052	0,020
-364,942	-21,671	0,122	-0,054
-363,927	-124,859	0,074	0,008
-362,912	344,946	0,122	0,174
-361,898	-123,194	-0,032	0,004
-360,883	-75,456	-0,132	-0,034
-359,869	-58,946	-0,098	-0,030
-358,854	-200,000	-0,012	-0,041
-357,839	150,309	-0,047	-0,047
-356,825	22,338	0,092	-0,055
-355,810	206,090	0,029	-0,032
-354,796	473,763	-0,020	-0,033
-353,781	-25,194	-0,088	-0,038
-352,766	-10,523	-0,093	-0,044
-351,752	-200,000	-0,003	-0,025
-350,737	690,369	0,034	0,065
-349,723	-200,000	0,006	0,124
-348,708	84,318	0,025	-0,020
-347,693	149,688	-0,042	0,042
-346,679	86,526	-0,147	-0,118
-345,664	498,969	-0,063	0,105
-344,650	-200,000	-0,009	0,274
-343,635	33,143	-0,053	-0,033
-342,620	39,855	0,164	0,107
-341,606	-200,000	-0,015	0,162
-340,591	800,000	0,045	0,095
-339,577	295,799	0,077	-0,102
-338,562	124,611	0,085	-0,078
-337,548	800,000	-0,024	-0,051
-336,533	180,727	0,041	0,044
-335,518	-24,194	0,114	-0,049
-334,504	-165,364	-0,021	-0,001
-333,489	162,842	0,121	-0,123
-332,475	298,051	-0,088	-0,118
-331,460	228,334	0,060	-0,071
-330,445	-144,419	0,060	0,004
-329,431	-77,571	0,146	-0,036
-328,416	107,494	0,084	0,072
-327,402	255,039	-0,048	0,059
-326,387	157,600	0,108	-0,108
-325,372	26,384	0,091	0,055
-324,358	800,000	-0,019	0,053
-323,343	632,260	-0,078	-0,144
-322,329	-103,915	0,073	0,012
-321,314	39,011	-0,076	-0,049
-320,299	51,644	-0,057	-0,039
-319,285	-182,212	0,089	0,001
-318,270	21,396	-0,124	0,073
-317,256	184,380	0,056	0,060
-316,241	-91,054	0,036	-0,007
-315,226	667,181	-0,081	-0,153
-314,212	-118,746	0,155	-0,020
-313,197	-200,000	-0,017	0,071
-312,183	-77,683	0,053	0,013
-311,168	-200,000	-0,031	-0,099
-310,153	-125,466	-0,026	-0,003
-309,139	29,626	0,107	-0,066
-308,124	4,584	-0,031	-0,017
-307,110	-200,000	0,022	0,107
-306,095	800,000	-0,021	0,058
-305,080	-93,367	0,124	0,025
-304,066	-26,483	-0,033	0,014
-303,051	-200,000	0,004	0,061
-302,037	-200,000	-0,002	0,014
-301,022	-200,000	0,013	-0,094
-300,008	6,802	0,023	0,012
-298,993	79,764	0,049	0,038
-297,978	328,482	0,036	-0,050
-296,964	-102,534	-0,027	0,005
-295,949	-200,000	-0,037	-0,195
-294,935	-26,239	-0,057	0,024
-293,920	565,906	0,060	-0,106
-292,905	-79,946	0,080	-0,019
-291,891	-200,000	0,008	0,091
-290,876	800,000	-0,033	0,077
-289,862	103,082	0,065	0,055
-288,847	800,000	-0,055	-0,153
-287,832	-200,000	0,014	-0,306
-286,818	800,000	-0,021	-0,053
-285,803	-149,917	0,120	0,007
-284,789	800,000	0,018	0,038
-283,774	-200,000	0,011	0,134
-282,759	-142,999	0,114	0,008
-281,745	-136,327	-0,160	-0,013
-280,730	114,477	-0,091	-0,080
-279,716	-46,812	0,095	-0,034
-278,701	-200,000	0,008	0,115
-277,686	-200,000	0,029	0,103
-276,672	81,690	-0,099	0,077
-275,657	-148,296	0,077	0,005
-274,643	-89,659	-0,165	-0,035
-273,628	265,745	-0,121	-0,154
-272,613	-137,489	-0,079	0,006
-271,599	461,618	0,034	-0,055
-270,584	55,183	0,084	0,059
-269,570	798,777	0,049	0,098
-268,555	60,371	0,063	-0,045
-267,540	10,466	-0,008	-0,004
-266,526	800,000	0,020	0,061
-265,511	55,986	-0,064	-0,045
-264,497	-200,000	0,004	0,125
-263,482	-200,000	0,022	0,077
-262,467	29,690	-0,038	0,023
-261,453	-20,677	-0,047	0,021
-260,438	-127,429	0,118	-0,012
-259,424	758,151	-0,070	0,138
-258,409	-140,811	-0,084	0,006
-257,395	-2,655	0,056	-0,028
-256,380	-200,000	-0,023	0,082
-255,365	-117,795	-0,105	-0,014
-254,351	149,465	0,050	0,048
-253,336	261,007	0,063	-0,079
-252,322	24,773	-0,106	-0,063
-251,307	-68,974	0,047	-0,013
-250,292	-10,186	0,091	-0,044
-249,278	-4,078	0,141	-0,070
-248,263	-194,768	0,081	-0,000
-247,249	37,801	-0,093	0,060
-246,234	10,368	0,038	-0,021
-245,219	-156,514	-0,088	-0,004
-244,205	-25,421	-0,089	0,038
-243,190	357,291	0,035	0,050
-242,176	469,164	0,026	-0,042
-241,161	-200,000	-0,026	0,115
-240,146	-178,148	-0,058	0,001
-239,132	82,890	0,067	0,053
-238,117	13,826	-0,025	0,014
-237,103	-50,794	-0,095	-0,032
-236,088	-200,000	0,008	0,188
-235,073	-200,000	-0,029	-0,188
-234,059	159,713	-0,061	0,062
-233,044	-44,480	0,103	-0,037
-232,030	232,411	-0,038	0,045
-231,015	155,394	-0,075	0,075
-230,000	-4,828	-0,075	0,037
-228,986	102,624	0,152	-0,129
-227,971	-55,001	0,058	-0,019
-226,957	139,986	-0,056	0,053
-225,942	11,232	0,090	-0,050
-224,927	-200,000	-0,017	-0,073
-223,913	273,783	0,035	0,045
-222,898	340,908	-0,037	0,052
-221,884	25,022	0,104	-0,062
-220,869	-200,000	-0,011	-0,092
-219,855	5,428	-0,071	0,037
-218,840	-200,000	-0,026	0,128
-217,825	9,760	0,070	0,038
-216,811	120,101	-0,099	-0,088
-215,796	-200,000	0,018	-0,079
-214,782	-157,313	-0,136	0,006
-213,767	-66,872	-0,127	0,036
-212,752	-77,815	0,106	0,026
-211,738	142,566	-0,098	0,094
-210,723	10,199	-0,051	0,028
-209,709	-171,004	0,193	0,005
-208,694	616,537	0,023	0,042
-207,679	5,848	0,033	-0,018
-206,665	368,160	0,054	-0,079
-205,650	800,000	-0,029	0,083
-204,636	110,199	0,138	0,119
-203,621	800,000	0,062	-0,185
-202,606	670,217	-0,053	-0,100
-201,592	800,000	0,020	0,041
-200,577	800,000	0,036	0,083
-199,563	-200,000	-0,024	0,161
-198,548	28,363	0,055	-0,033
-197,533	31,459	0,065	-0,040
-196,519	-118,501	-0,184	-0,023
-195,504	-200,000	-0,004	0,031
-194,490	42,514	0,212	-0,139
-193,475	-42,977	0,046	-0,017
-192,460	364,122	-0,063	-0,091
-191,446	800,000	0,031	0,082
-190,431	-200,000	0,007	-0,044
-189,417	-118,084	-0,098	-0,012
-188,402	-200,000	-0,024	-0,089
-187,387	136,476	-0,150	-0,141
-186,373	-200,000	0,012	-0,054
-185,358	-200,000	-0,013	-0,130
-184,344	-200,000	0,012	0,064
-183,329	800,000	0,011	0,036
-182,315	763,986	-0,059	-0,116
-181,300	613,537	-0,047	0,085
-180,285	414,912	-0,040	0,061
-179,271	-200,000	-0,031	-0,123
-178,256	-145,868	-0,053	-0,003
-177,242	-200,000	-0,027	0,190
-176,227	-45,095	0,180	-0,064
-175,212	143,585	0,066	0,064
-174,198	283,461	-0,088	0,114
-173,183	188,251	0,080	-0,086
-172,169	88,321	0,053	-0,042
-171,154	-200,000	-0,027	-0,093
-170,139	800,000	-0,036	-0,094
-169,125	7,865	0,040	0,022
-168,110	33,028	0,011	-0,007
-167,096	-200,000	0,029	-0,102
-166,081	282,009	0,036	-0,047
-165,066	389,714	0,043	-0,064
-164,052	86,549	-0,083	0,066
-163,037	672,446	0,054	0,101
-162,023	-200,000	-0,008	0,037
-161,008	26,567	0,065	0,039
-159,993	11,781	-0,020	-0,011
-158,979	-141,824	-0,062	-0,004
-157,964	-14,698	-0,142	-0,065
-156,950	88,140	0,054	-0,043
-155,935	-138,181	0,154	0,012
-154,920	161,235	0,084	0,084
-153,906	800,000	0,052	0,123
-152,891	79,316	0,115	-0,088
-151,877	34,132	-0,151	-0,095
-150,862	-62,392	-0,100	-0,030
-149,847	800,000	-0,036	0,075
-148,833	-31,911	-0,030	0,012
-147,818	-112,833	0,035	0,005
-146,804	-63,489	0,132	-0,039
-145,789	0,468	0,033	0,017
-144,775	26,649	-0,047	-0,028
-143,760	-200,000	-0,007	-0,125
-142,745	73,795	0,038	-0,029
-141,731	93,622	-0,056	0,045
-140,716	280,777	-0,016	-0,021
-139,702	-93,530	-0,088	0,017
-138,687	127,656	0,096	-0,088
-137,672	-120,154	0,055	0,007
-136,658	589,713	-0,126	-0,225
-135,643	-200,000	-0,011	-0,076
-134,629	120,191	-0,030	-0,026
-133,614	800,000	0,045	0,105
-132,599	800,000	0,054	0,111
-131,585	-89,326	-0,042	-0,009
-130,570	-200,000	0,010	-0,048
-129,556	348,616	-0,029	-0,042
-128,541	-49,647	-0,141	-0,048
-127,526	-200,000	0,009	0,068
-126,512	-200,000	-0,016	0,096
-125,497	94,607	0,135	0,110
-124,483	-75,130	0,157	-0,040
-123,468	678,405	0,022	0,041
-122,453	800,000	-0,049	-0,124
-121,439	312,412	-0,022	0,030
-120,424	201,822	-0,071	-0,078
-119,410	685,657	0,014	0,027
-118,395	-200,000	0,006	-0,063
-117,380	29,981	-0,015	0,009
-116,366	-84,277	0,173	-0,039
-115,351	-42,151	-0,102	-0,037
-114,337	498,787	-0,060	-0,100
-113,322	-200,000	0,020	0,075
-112,307	-200,000	0,001	-0,021
-111,293	161,044	-0,096	-0,097
-110,278	-200,000	0,011	0,051
-109,264	-200,000	-0,015	0,069
-108,249	-200,000	0,004	-0,109
-107,234	228,006	0,124	-0,145
-106,220	-140,268	-0,042	-0,003
-105,205	84,596	-0,039	-0,031
-104,191	-15,382	0,159	0,073
-103,176	129,415	0,077	-0,071
-102,162	-88,239	0,159	-0,034
-101,147	-200,000	-0,002	-0,105
-100,132	-140,762	-0,059	0,004
-99,118	118,929	0,132	0,117
-98,103	516,827	-0,042	-0,071
-97,089	219,876	-0,015	-0,017
-96,074	-63,052	-0,069	0,020
-95,059	800,000	0,033	-0,071
-94,045	-200,000	0,006	-0,095
-93,030	18,185	0,066	0,037
-92,016	-200,000	0,021	-0,095
-91,001	216,665	0,064	-0,074
-89,986	65,563	0,055	0,040
-88,972	-200,000	0,008	0,076
-87,957	-7,912	-0,142	0,068
-86,943	-200,000	-0,002	-0,050
-85,928	800,000	-0,073	-0,163
-84,913	-43,645	-0,155	-0,056
-83,899	140,381	-0,077	-0,073
-82,884	-200,000	-0,009	0,140
-81,870	43,026	0,066	0,043
-80,855	57,212	0,012	-0,009
-79,840	-200,000	0,033	-0,118
-78,826	-200,000	-0,003	-0,072
-77,811	-78,043	-0,067	0,017
-76,797	-200,000	-0,002	0,060
-75,782	-188,761	0,050	0,000
-74,767	-200,000	-0,002	-0,023
-73,753	-200,000	0,033	-0,144
-72,738	603,479	-0,032	-0,056
-71,724	-25,489	-0,033	0,014
-70,709	800,000	0,062	-0,162
-69,694	342,256	-0,134	-0,188
-68,680	102,949	0,016	0,013
-67,665	8,753	0,084	0,045
-66,651	-200,000	0,014	-0,044
-65,636	-200,000	0,027	-0,109
-64,622	-95,385	0,042	0,008
-63,607	-87,619	-0,084	-0,018
-62,592	550,534	0,043	-0,075
-61,578	800,000	-0,009	-0,029
-60,563	26,595	0,085	0,051
-59,549	-200,000	0,090	-0,000
-58,534	104,651	-2,704	-2,284
-57,519	-36,775	0,418	-0,160
-56,505	-200,000	-1,719	-5,581
-55,490	465,281	1,346	2,168
-54,476	800,000	5,280	11,308
-53,461	-200,000	23,104	348,391
-52,446	800,000	765,994	2263,379
-51,432	496,549	1642,763	2718,085
-50,417	92,808	1598,213	1292,894
-49,403	60,380	1253,028	887,713
-48,388	20,915	1005,363	582,618
-47,373	18,339	973,342	555,642
-46,359	11,694	960,167	526,632
-45,344	7,519	957,078	511,410
-44,330	7,881	954,599	511,236
-43,315	7,049	952,979	507,663
-42,300	6,999	951,839	506,874
-41,286	6,960	950,736	506,142
-40,271	6,949	949,819	505,598
-39,257	6,894	949,114	505,025
-38,242	6,894	948,096	504,464
-37,227	6,916	947,201	504,039
-36,213	6,926	946,489	503,672
-35,198	6,908	945,814	503,235
-34,184	6,984	944,957	503,000
-33,169	6,939	943,873	502,262
-32,154	6,969	943,030	501,886
-31,140	6,981	942,292	501,514
-30,125	7,004	941,513	501,152
-29,111	6,978	940,768	500,653
-28,096	6,943	940,235	500,239
-27,082	6,974	939,489	499,921
-26,067	6,973	938,642	499,445
-25,052	6,943	937,933	498,954
-24,038	6,933	937,307	498,570
-23,023	6,957	936,599	498,249
-22,009	6,957	935,775	497,791
-20,994	6,977	935,294	497,577
-19,979	6,912	934,808	497,095
-18,965	6,907	934,210	496,743
-17,950	6,946	933,587	496,514
-16,936	6,891	932,919	495,965
-15,921	6,877	932,352	495,601
-14,906	6,750	931,698	494,832
-13,892	6,820	931,013	494,670
-12,877	6,858	930,436	494,463
-11,863	6,826	929,899	494,057
-10,848	6,824	929,305	493,715
-9,833	6,875	928,765	493,569
-8,819	6,885	927,992	493,171
-7,804	6,854	927,415	492,745
-6,790	6,838	926,823	492,362
-5,775	6,945	926,135	492,312
-4,760	6,947	925,582	492,006
-3,746	6,857	925,044	491,417
-2,731	6,694	924,548	490,624
-1,717	6,725	923,842	490,327
-0,702	6,725	922,945	489,831
0,313	6,521	922,562	489,732
1,327	9,935	920,012	498,961
2,342	18,626	769,130	439,587
3,356	14,066	442,597	246,160
4,371	-11,439	310,646	145,840
5,386	-15,121	293,589	134,120
6,400	-17,367	287,432	129,084
7,415	-18,031	284,746	127,217
8,429	-18,860	282,500	125,401
9,444	-18,881	281,612	124,975
10,459	-18,873	280,977	124,689
11,473	-19,003	280,436	124,313
12,488	-18,891	279,958	124,198
13,502	-18,711	279,479	124,147
14,517	-18,788	279,105	123,896
15,531	-18,944	278,441	123,441
16,546	-19,007	278,068	123,205
17,561	-18,888	277,865	123,217
18,575	-18,870	277,428	123,030
19,590	-18,947	276,993	122,753
20,604	-18,933	276,781	122,661
21,619	-19,056	276,513	122,415
22,634	-18,946	276,092	122,322
23,648	-18,955	275,768	122,159
24,663	-18,980	275,526	122,018
25,677	-18,825	275,280	122,043
26,692	-18,810	274,963	121,906
27,707	-18,802	274,742	121,805
28,721	-18,910	274,523	121,596
29,736	-18,837	274,054	121,445
30,750	-18,877	273,836	121,300
31,765	-18,991	273,675	121,111
32,780	-18,829	273,411	121,135
33,794	-18,945	273,192	120,919
34,809	-18,796	272,782	120,866
35,823	-18,961	272,693	120,662
36,838	-19,034	272,353	120,433
37,853	-18,996	272,134	120,360
38,867	-18,924	271,967	120,343
39,882	-18,723	271,483	120,304
40,896	-18,926	271,469	120,100
41,911	-18,696	271,178	120,173
42,926	-18,827	270,852	119,897
43,940	-18,855	270,598	119,747
44,955	-18,844	270,418	119,667
45,969	-18,592	270,133	119,763
46,984	-18,793	270,024	119,519
47,999	-18,592	269,772	119,582
49,013	-18,635	269,672	119,487
50,028	-18,613	269,429	119,389
51,042	-18,708	269,255	119,214
52,057	-18,686	268,818	119,030
53,071	-18,644	268,526	118,928
54,086	-18,726	268,518	118,839
55,101	-18,800	268,265	118,649
56,115	-18,896	267,974	118,421
57,130	-18,717	267,737	118,470
58,144	-18,881	267,531	118,219
59,159	-18,971	267,169	117,966
60,174	-18,843	266,950	117,976
61,188	-18,755	266,736	117,950
62,203	-18,825	266,509	117,775
63,217	-18,791	266,239	117,677
64,232	-18,867	266,098	117,535
65,247	-18,860	265,915	117,450
66,261	-18,769	265,482	117,331
67,276	-18,835	265,377	117,214
68,290	-18,986	265,309	117,037
69,305	-18,661	264,868	117,125
70,320	-18,925	264,687	116,797
71,334	-18,684	264,510	116,926
72,349	-18,928	264,281	116,594
73,363	-18,915	264,058	116,497
74,378	-18,707	263,878	116,594
75,393	-18,927	263,517	116,227
76,407	-18,808	263,320	116,237
77,422	-18,773	263,125	116,171
78,436	-18,771	262,794	116,017
79,451	-18,574	262,625	116,108
80,466	-18,824	262,419	115,783
81,480	-18,877	262,349	115,695
82,495	-18,821	261,972	115,568
83,509	-18,545	261,759	115,710
84,524	-18,512	261,443	115,589
85,539	-18,741	261,462	115,383
86,553	-18,875	261,067	115,080
87,568	-18,588	261,008	115,298
88,582	-18,630	260,737	115,131
89,597	-18,816	260,485	114,845
90,611	-18,622	260,210	114,885
91,626	-18,900	260,234	114,639
92,641	-18,648	259,939	114,721
93,655	-18,749	259,690	114,512
94,670	-18,768	259,448	114,379
95,684	-18,870	259,173	114,158
96,699	-18,705	259,002	114,218
97,714	-18,633	258,891	114,221
98,728	-18,714	258,785	114,093
99,743	-18,599	258,473	114,046
100,757	-18,763	258,250	113,794
101,772	-18,740	258,153	113,762
102,787	-18,776	257,771	113,552
103,801	-18,721	257,616	113,521
104,816	-18,738	257,484	113,438
105,830	-18,679	257,275	113,387
106,845	-18,634	256,998	113,294
107,860	-18,678	256,837	113,175
108,874	-18,713	256,581	113,022
109,889	-18,570	256,357	113,037
110,903	-18,707	256,345	112,903
111,918	-18,767	256,002	112,689
112,933	-18,721	255,902	112,675
113,947	-18,703	255,564	112,532
114,962	-18,808	255,462	112,386
115,976	-18,791	255,309	112,323
116,991	-18,635	254,979	112,303
118,006	-18,554	254,830	112,298
119,020	-18,757	254,714	112,061
120,035	-18,695	254,656	112,079
121,049	-18,629	254,411	112,018
122,064	-18,650	254,254	111,921
123,079	-18,876	253,909	111,565
124,093	-18,717	253,734	111,615
125,108	-18,773	253,545	111,473
126,122	-18,784	253,328	111,358
127,137	-18,581	253,164	111,451
128,151	-18,361	252,910	111,517
129,166	-18,569	252,814	111,287
130,181	-18,728	252,576	111,036
131,195	-18,671	252,329	110,966
132,210	-18,513	252,162	111,018
133,224	-18,695	251,971	110,769
134,239	-18,502	251,619	110,769
135,254	-18,640	251,584	110,625
136,268	-18,540	251,240	110,549
137,283	-18,509	251,201	110,549
138,297	-18,414	250,983	110,524
139,312	-18,545	250,829	110,335
140,327	-18,650	250,717	110,187
141,341	-18,767	250,358	109,920
142,356	-18,467	250,229	110,107
143,370	-18,543	250,006	109,935
144,385	-18,727	249,762	109,662
145,400	-18,575	249,476	109,655
146,414	-18,666	249,370	109,522
147,429	-18,746	249,180	109,362
148,443	-18,684	248,984	109,318
149,458	-18,660	248,849	109,269
150,473	-18,651	248,716	109,209
151,487	-18,513	248,360	109,159
152,502	-18,596	248,282	109,045
153,516	-18,889	248,104	108,711
154,531	-18,637	247,958	108,849
155,546	-18,572	247,722	108,790
156,560	-18,569	247,741	108,792
157,575	-18,577	247,413	108,631
158,589	-18,562	247,174	108,529
159,604	-18,494	246,803	108,413
160,619	-18,503	246,761	108,378
161,633	-18,619	246,530	108,170
162,648	-18,637	246,508	108,136
163,662	-18,729	246,373	107,989
164,677	-18,520	246,206	108,080
165,692	-18,618	245,933	107,870
166,706	-18,625	245,838	107,813
167,721	-18,470	245,486	107,778
168,735	-18,826	245,465	107,464
169,750	-18,853	245,272	107,347
170,764	-18,640	245,305	107,529
171,779	-18,543	244,964	107,450
172,794	-18,555	244,839	107,375
173,808	-18,559	244,577	107,247
174,823	-18,536	244,494	107,220
175,837	-18,578	244,395	107,133
176,852	-18,506	244,102	107,054
177,867	-18,428	243,912	107,026
178,881	-18,399	243,760	106,973
179,896	-18,465	243,651	106,861
180,910	-18,527	243,421	106,700
181,925	-18,783	243,280	106,419
182,940	-18,507	242,997	106,512
183,954	-18,623	242,822	106,330
184,969	-18,342	242,507	106,413
185,983	-18,650	242,456	106,129
186,998	-18,536	242,445	106,209
188,013	-18,654	242,201	105,995
189,027	-18,782	242,093	105,834
190,042	-18,628	241,878	105,856
191,056	-18,450	241,554	105,850
192,071	-18,573	241,482	105,709
193,086	-18,647	241,454	105,627
194,100	-18,144	241,015	105,834
195,115	-18,479	240,851	105,480
196,129	-18,588	240,655	105,298
197,144	-18,618	240,539	105,213
198,159	-18,455	240,260	105,213
199,173	-18,488	240,262	105,178
200,188	-18,240	240,084	105,292
201,202	-18,245	240,063	105,268
202,217	-18,451	239,814	104,984
203,232	-18,432	239,586	104,890
204,246	-18,317	239,256	104,829
205,261	-18,289	239,298	104,860
206,275	-16,703	239,920	106,404
207,290	-11,640	241,595	111,253
208,304	-5,548	243,556	117,127
209,319	-2,677	244,173	119,760
210,334	-1,786	244,398	120,589
211,348	-0,718	244,539	121,521
212,363	-0,216	244,623	121,962
213,377	0,279	244,615	122,352
214,392	0,462	244,429	122,398
215,407	0,882	244,376	122,702
216,421	0,845	244,278	122,612
217,436	0,914	244,185	122,610
218,450	0,837	244,055	122,472
219,465	0,960	243,860	122,463
220,480	0,929	243,766	122,380
221,494	0,859	243,543	122,200
222,509	0,476	243,292	121,752
223,523	0,430	242,972	121,544
224,538	0,398	242,926	121,484
225,553	0,438	242,604	121,345
226,567	0,279	242,372	121,089
227,582	0,331	242,333	121,101
228,596	0,383	242,233	121,082
229,611	0,333	242,057	120,943
230,626	0,249	241,879	120,776
231,640	0,418	241,665	120,795
232,655	0,333	241,400	120,583
233,669	0,320	241,362	120,542
234,684	0,241	241,217	120,396
235,699	0,262	241,033	120,310
236,713	0,344	240,862	120,280
237,728	0,414	240,799	120,294
238,742	0,477	240,427	120,148
239,757	0,264	240,361	119,933
240,772	0,320	240,177	119,876
241,786	0,452	240,056	119,910
242,801	0,128	240,048	119,636
243,815	0,447	239,723	119,718
244,830	0,181	239,709	119,489
245,844	0,204	239,494	119,390
246,859	0,402	239,300	119,439
247,874	0,453	239,123	119,381
248,888	0,405	238,979	119,260
249,903	0,273	238,876	119,093
250,917	0,361	238,706	119,068
251,932	0,422	238,515	119,011
252,947	0,486	238,410	118,999
253,961	0,292	238,089	118,674
254,976	0,460	237,907	118,706
255,990	0,492	237,839	118,686
257,005	0,275	237,798	118,483
258,020	0,349	237,674	118,469
259,034	0,355	237,576	118,415
260,049	0,465	237,237	118,322
261,063	0,326	237,209	118,188
262,078	0,178	236,980	117,947
263,093	0,178	236,791	117,842
264,107	0,356	236,735	117,944
265,122	0,716	236,506	118,103
266,136	0,372	236,448	117,793
267,151	0,475	236,195	117,737
268,166	0,313	236,146	117,574
269,180	0,362	235,911	117,486
270,195	0,287	235,759	117,340
271,209	0,413	235,604	117,351
272,224	0,620	235,510	117,456
273,239	0,355	235,151	117,060
274,253	0,459	235,038	117,074
275,268	0,260	235,041	116,910
276,282	0,539	234,780	116,987
277,297	0,540	234,497	116,837
278,312	0,495	234,453	116,770
279,326	0,396	234,455	116,683
280,341	0,352	234,283	116,552
281,355	0,328	234,114	116,440
282,370	0,605	233,987	116,581
283,384	0,476	233,830	116,393
284,399	0,315	233,667	116,176
285,414	0,413	233,412	116,115
286,428	0,295	233,480	116,047
287,443	0,359	233,451	116,071
288,457	0,339	233,153	115,898
289,472	0,330	233,009	115,809
290,487	0,477	232,753	115,784
291,501	0,461	232,510	115,642
292,516	0,666	232,401	115,735
293,530	0,623	232,288	115,635
294,545	0,377	232,438	115,509
295,560	0,759	232,061	115,605
296,574	0,589	231,912	115,391
297,589	0,613	231,707	115,297
298,603	0,394	231,669	115,099
299,618	0,518	231,527	115,114
300,633	0,725	231,404	115,201
301,647	0,665	231,341	115,113
302,662	0,581	231,053	114,895
303,676	0,550	230,943	114,807
304,691	0,897	230,613	114,897
305,706	0,768	230,598	114,781
306,720	0,752	230,428	114,674
307,735	0,546	230,312	114,449
308,749	0,781	230,149	114,537
309,764	0,583	230,052	114,328
310,779	0,735	229,707	114,262
311,793	0,475	229,714	114,058
312,808	0,620	229,593	114,098
313,822	0,609	229,375	113,971
314,837	0,592	229,327	113,923
315,852	0,794	228,972	113,890
316,866	0,737	228,981	113,841
317,881	0,473	228,851	113,566
318,895	0,638	228,732	113,622
319,910	0,686	228,544	113,555
320,925	0,621	228,356	113,402
321,939	0,860	228,295	113,542
322,954	0,901	228,112	113,472
323,968	0,597	228,051	113,203
324,983	0,749	227,762	113,164
325,997	0,658	227,670	113,039
327,012	0,737	227,510	113,009
328,027	0,884	227,286	112,998
329,041	0,871	227,199	112,935
330,056	0,624	227,106	112,693
331,070	0,867	226,951	112,788
332,085	0,810	226,751	112,637
333,100	0,728	226,600	112,490
334,114	0,848	226,353	112,447
335,129	0,897	226,287	112,441
336,143	0,709	226,172	112,233
337,158	0,818	226,075	112,257
338,173	0,875	225,904	112,204
339,187	0,847	225,736	112,090
340,202	0,856	225,716	112,077
341,216	0,726	225,485	111,855
342,231	0,712	225,374	111,779
343,246	0,718	225,307	111,741
344,260	1,130	225,066	111,917
345,275	0,903	224,942	111,677
346,289	0,914	224,897	111,653
347,304	0,901	224,659	111,515
348,319	0,823	224,605	111,421
349,333	0,832	224,402	111,317
350,348	0,936	224,335	111,351
351,362	0,869	224,238	111,243
352,377	1,000	223,984	111,204
353,392	0,962	223,787	111,068
354,406	0,968	223,619	110,979
355,421	192,192	1311,471	1375,479
356,435	153,896	1443,838	1375,294
