DTS Sentinel unit serial number:	SN410029Multiplexer serial number:	ORYXHardware model number:	OX2-SRSoftware version number:	ORYX F/W v4,00 Oryx Data Collector v3.7.2.0data status	okinstallation	B5 Nyhavnadifferential loss correction	single-endedforward channel	channel 2reverse channel	N/Adate	2023/12/14time	06:57:13forward acquisition time	300,00reverse acquisition time	0,00gamma	499,1914k internal	0,3159k external	0,3159temperature offset calibration	1,0000default loss term (dB/km)	0,3820temperature slope calibration	1,0000multiplexer offset coefficient	1,0000multiplexer slope coefficient	1,0000fibre end	0,00T internal ref (°C)	7,31T ext. ref 1 (°C)	-9,11T ext. ref 2 (°C)	-9,19length (m)	temperature (°C)	Stokes	anti-Stokes-744,400	-32,673	0,193	-0,079
-743,385	-106,471	-0,369	-0,060
-742,371	-28,730	0,204	0,086
-741,356	-47,270	-0,449	-0,160
-740,342	730,664	0,153	0,303
-739,327	-1,439	-0,405	-0,210
-738,312	494,697	0,042	0,071
-737,298	-104,465	-0,394	-0,066
-736,283	800,000	0,031	0,094
-735,269	-119,824	-0,355	0,045
-734,254	47,008	0,138	0,094
-733,239	-64,989	-0,618	-0,183
-732,225	94,072	0,193	0,161
-731,210	-69,723	0,152	0,043
-730,196	362,798	0,021	0,031
-729,181	-97,871	-0,144	-0,027
-728,167	-157,513	0,053	-0,002
-727,152	510,945	0,043	0,074
-726,137	98,546	-0,246	-0,209
-725,123	800,000	0,048	-0,132
-724,108	34,101	-0,049	-0,032
-723,094	-39,919	-0,052	0,020
-722,079	517,452	0,042	0,072
-721,064	-49,126	-0,134	-0,047
-720,050	496,252	-0,051	-0,086
-719,035	602,245	0,034	0,062
-718,021	-200,000	-0,010	-0,035
-717,006	800,000	0,015	-0,041
-715,991	477,416	-0,022	-0,037
-714,977	-200,000	0,000	0,034
-713,962	16,129	-0,139	-0,080
-712,948	790,679	0,053	0,108
-711,933	8,712	-0,056	0,031
-710,918	86,442	-0,115	0,093
-709,904	105,314	-0,066	0,057
-708,889	-113,425	-0,139	-0,020
-707,875	212,107	-0,097	-0,113
-706,860	262,298	-0,053	0,067
-705,845	0,379	-0,051	-0,027
-704,831	-191,447	0,086	0,001
-703,816	-12,710	0,020	-0,009
-702,802	-200,000	-0,019	-0,110
-701,787	-83,918	-0,101	-0,023
-700,772	-158,481	-0,139	0,006
-699,758	-7,708	0,067	0,033
-698,743	154,887	0,166	0,168
-697,729	443,462	0,023	0,037
-696,714	-68,595	0,176	-0,050
-695,699	465,902	-0,040	-0,065
-694,685	-200,000	0,015	-0,089
-693,670	158,579	-0,025	0,026
-692,656	-200,000	0,003	0,104
-691,641	-135,627	-0,090	-0,008
-690,627	136,646	0,078	0,075
-689,612	311,115	-0,065	0,090
-688,597	-200,000	0,026	-0,088
-687,583	344,360	-0,077	-0,111
-686,568	146,822	-0,025	-0,025
-685,554	-200,000	0,009	0,063
-684,539	314,791	-0,073	0,101
-683,524	683,514	-0,012	-0,023
-682,510	-162,774	0,030	0,001
-681,495	-25,730	0,019	0,008
-680,481	0,367	-0,046	-0,024
-679,466	635,488	-0,030	0,057
-678,451	-71,361	-0,046	0,013
-677,437	800,000	0,040	0,105
-676,422	-36,447	-0,064	0,025
-675,408	-200,000	0,009	-0,118
-674,393	141,067	0,126	-0,122
-673,378	311,496	-0,051	-0,071
-672,364	800,000	-0,070	-0,188
-671,349	-200,000	0,047	-0,175
-670,335	245,655	-0,045	-0,056
-669,320	129,995	-0,079	-0,075
-668,305	90,676	-0,025	-0,020
-667,291	-142,764	0,151	0,011
-666,276	-1,227	-0,073	0,038
-665,262	-104,581	-0,036	0,006
-664,247	-200,000	0,012	-0,050
-663,232	800,000	0,058	0,180
-662,218	355,495	0,088	0,130
-661,203	540,952	-0,031	-0,054
-660,189	-200,000	-0,051	-0,188
-659,174	322,933	0,072	0,100
-658,159	-134,198	-0,204	0,018
-657,145	-200,000	-0,023	-0,142
-656,130	73,604	0,076	-0,058
-655,116	727,320	-0,033	0,065
-654,101	800,000	-0,035	0,073
-653,086	-63,107	0,051	-0,015
-652,072	322,122	0,071	0,100
-651,057	99,402	-0,189	-0,160
-650,043	59,948	-0,062	-0,045
-649,028	800,000	-0,060	-0,184
-648,014	108,693	0,104	-0,091
-646,999	72,069	0,049	0,037
-645,984	-51,708	0,076	-0,026
-644,970	35,664	-0,088	0,057
-643,955	-200,000	0,012	-0,180
-642,941	-62,751	0,094	-0,028
-641,926	36,067	0,058	-0,037
-640,911	800,000	0,026	0,067
-639,897	-136,285	-0,161	-0,014
-638,882	-163,659	0,048	-0,002
-637,868	196,366	-0,057	0,064
-636,853	71,339	-0,044	-0,033
-635,838	800,000	0,057	-0,136
-634,824	205,634	-0,075	-0,086
-633,809	-200,000	-0,004	-0,086
-632,795	-111,528	-0,053	-0,008
-631,780	-129,519	-0,103	0,010
-630,765	-35,242	0,059	-0,023
-629,751	800,000	-0,077	-0,196
-628,736	69,959	-0,046	-0,035
-627,722	-200,000	-0,004	-0,078
-626,707	33,761	0,072	-0,046
-625,692	120,578	0,008	0,007
-624,678	-200,000	0,028	-0,114
-623,663	-6,188	0,055	0,027
-622,649	-200,000	0,032	-0,105
-621,634	-117,842	-0,179	-0,023
-620,619	262,928	-0,033	0,042
-619,605	74,538	0,057	-0,044
-618,590	24,806	0,069	0,042
-617,576	-37,749	0,074	0,029
-616,561	800,000	0,043	-0,122
-615,546	76,293	-0,133	-0,103
-614,532	-59,917	-0,007	-0,002
-613,517	252,730	-0,026	-0,033
-612,503	776,570	0,045	0,091
-611,488	-200,000	-0,024	0,119
-610,474	-200,000	-0,040	0,167
-609,459	-200,000	-0,001	0,043
-608,444	233,334	-0,079	-0,095
-607,430	112,091	-0,049	-0,043
-606,415	-78,218	0,098	0,024
-605,401	-47,832	0,011	0,004
-604,386	-200,000	0,011	-0,066
-603,371	-36,801	0,072	-0,028
-602,357	800,000	-0,011	0,029
-601,342	58,733	-0,112	0,080
-600,328	-95,375	0,084	-0,016
-599,313	313,086	-0,079	-0,109
-598,298	632,496	0,091	-0,169
-597,284	-200,000	0,022	-0,123
-596,269	800,000	-0,062	0,172
-595,255	-163,154	-0,021	0,001
-594,240	74,486	-0,101	-0,078
-593,225	76,139	0,112	-0,087
-592,211	5,326	0,130	-0,070
-591,196	800,000	0,056	-0,155
-590,182	179,127	-0,029	-0,031
-589,167	-200,000	0,002	-0,034
-588,152	800,000	-0,052	0,141
-587,138	44,347	0,071	-0,048
-586,123	-55,574	-0,056	-0,018
-585,109	-58,442	0,105	0,033
-584,094	67,362	-0,019	-0,014
-583,079	109,939	-0,020	0,017
-582,065	-200,000	0,015	0,092
-581,050	226,310	-0,136	0,161
-580,036	-156,227	-0,055	-0,002
-579,021	-200,000	-0,002	-0,061
-578,006	-94,912	-0,135	-0,026
-576,992	34,064	0,174	-0,111
-575,977	800,000	0,006	0,018
-574,963	20,181	0,036	-0,021
-573,948	-200,000	-0,007	0,105
-572,934	-200,000	-0,022	0,117
-571,919	-200,000	-0,019	-0,175
-570,904	105,002	-0,132	-0,114
-569,890	-150,846	-0,109	-0,006
-568,875	20,551	0,061	-0,036
-567,861	-42,216	0,051	-0,019
-566,846	800,000	-0,051	0,104
-565,831	-12,415	0,164	0,078
-564,817	129,734	-0,085	-0,080
-563,802	-168,594	-0,179	-0,005
-562,788	-127,871	-0,053	-0,006
-561,773	-200,000	0,004	0,051
-560,758	-200,000	0,005	0,119
-559,744	289,548	-0,055	0,073
-558,729	-200,000	0,017	0,070
-557,715	-200,000	-0,008	0,049
-556,700	-58,677	-0,098	0,031
-555,685	-4,267	-0,135	-0,068
-554,671	800,000	-0,059	0,128
-553,656	86,836	0,149	0,120
-552,642	-5,222	0,097	0,049
-551,627	-200,000	-0,007	-0,054
-550,612	-58,504	0,044	-0,014
-549,598	-100,206	-0,022	-0,004
-548,583	417,331	0,058	0,090
-547,569	585,558	-0,040	-0,072
-546,554	296,980	-0,033	0,044
-545,539	58,403	-0,054	-0,038
-544,525	-200,000	-0,017	-0,060
-543,510	800,000	0,022	-0,054
-542,496	-78,800	-0,074	0,018
-541,481	201,667	0,043	0,049
-540,466	800,000	0,049	-0,104
-539,452	800,000	-0,023	-0,056
-538,437	-74,977	0,150	-0,039
-537,423	-200,000	0,013	0,082
-536,408	800,000	0,059	-0,145
-535,393	12,646	-0,160	-0,090
-534,379	800,000	-0,066	-0,162
-533,364	-136,123	0,090	-0,008
-532,350	-4,846	-0,091	0,046
-531,335	328,630	-0,039	0,056
-530,321	-200,000	0,008	0,059
-529,306	531,677	0,047	0,081
-528,291	110,803	0,027	-0,024
-527,277	80,158	0,038	0,029
-526,262	-142,350	0,121	-0,009
-525,248	133,661	0,024	-0,023
-524,233	800,000	0,035	-0,107
-523,218	80,294	0,066	0,052
-522,204	-8,825	0,053	0,026
-521,189	-97,099	0,001	-0,000
-520,175	-42,891	-0,088	0,032
-519,160	-120,032	-0,108	-0,013
-518,145	346,747	-0,059	-0,085
-517,131	-145,386	0,032	-0,002
-516,116	651,083	0,066	0,124
-515,102	310,925	-0,121	0,167
-514,087	-107,374	-0,048	-0,008
-513,072	800,000	0,076	-0,226
-512,058	-66,616	-0,037	0,011
-511,043	47,731	-0,073	0,050
-510,029	-200,000	-0,043	-0,147
-509,014	-200,000	0,026	0,097
-507,999	-200,000	-0,023	0,088
-506,985	97,265	0,010	0,008
-505,970	140,521	-0,061	0,059
-504,956	-200,000	0,001	0,018
-503,941	80,792	0,022	0,017
-502,926	183,226	0,073	-0,079
-501,912	1,718	0,067	0,035
-500,897	367,793	0,095	0,141
-499,883	59,196	0,075	0,054
-498,868	353,485	-0,038	-0,055
-497,853	800,000	0,033	-0,085
-496,839	-200,000	-0,026	-0,149
-495,824	-52,813	0,097	0,032
-494,810	103,931	0,061	-0,052
-493,795	-72,661	-0,124	-0,033
-492,781	195,972	0,043	-0,048
-491,766	-200,000	0,026	0,132
-490,751	-200,000	0,033	-0,121
-489,737	-125,864	-0,087	-0,009
-488,722	418,135	0,067	0,105
-487,708	71,344	0,080	0,061
-486,693	-104,224	-0,036	-0,006
-485,678	-140,999	0,082	-0,006
-484,664	-200,000	-0,034	-0,170
-483,649	-24,889	-0,042	-0,018
-482,635	800,000	0,050	0,143
-481,620	115,458	0,058	-0,051
-480,605	-200,000	-0,005	-0,043
-479,591	-200,000	-0,007	-0,039
-478,576	800,000	-0,023	0,070
-477,562	207,919	-0,044	0,050
-476,547	-159,372	-0,211	-0,008
-475,532	-86,525	-0,140	-0,031
-474,518	-165,474	0,084	-0,003
-473,503	-200,000	-0,004	0,073
-472,489	2,279	-0,032	0,017
-471,474	-27,358	-0,046	0,020
-470,459	-200,000	-0,004	0,056
-469,445	-200,000	0,002	-0,014
-468,430	421,910	0,070	0,110
-467,416	4,443	-0,150	0,080
-466,401	-57,390	0,130	0,041
-465,386	-200,000	0,005	0,059
-464,372	-200,000	-0,041	-0,139
-463,357	59,026	-0,126	-0,090
-462,343	-108,846	-0,037	0,006
-461,328	800,000	0,041	0,127
-460,313	54,870	-0,028	0,020
-459,299	148,875	0,066	0,065
-458,284	-200,000	0,000	0,072
-457,270	800,000	-0,039	0,097
-456,255	800,000	-0,044	0,103
-455,241	36,036	0,074	0,047
-454,226	136,181	-0,082	-0,078
-453,211	-151,891	-0,143	-0,007
-452,197	-13,251	-0,107	0,051
-451,182	-200,000	-0,019	0,081
-450,168	-200,000	0,011	-0,114
-449,153	-41,048	-0,138	0,052
-448,138	-53,996	-0,072	0,024
-447,124	-200,000	0,031	0,137
-446,109	-93,031	0,108	-0,022
-445,095	-111,207	-0,094	-0,014
-444,080	-200,000	-0,041	-0,180
-443,065	-45,075	-0,095	0,034
-442,051	66,891	-0,171	-0,127
-441,036	277,204	0,074	-0,096
-440,022	-17,669	0,081	-0,037
-439,007	800,000	0,043	-0,114
-437,992	405,814	0,070	0,107
-436,978	800,000	-0,027	0,060
-435,963	-83,058	-0,083	0,019
-434,949	-200,000	-0,009	-0,146
-433,934	800,000	0,038	-0,118
-432,919	-114,632	-0,077	0,011
-431,905	-143,084	-0,108	-0,007
-430,890	-133,370	0,103	-0,009
-429,876	-200,000	0,008	-0,089
-428,861	189,450	0,101	0,110
-427,846	-33,895	0,117	0,047
-426,832	800,000	0,011	-0,032
-425,817	-117,098	0,028	-0,004
-424,803	157,289	0,049	0,049
-423,788	-66,423	0,111	-0,032
-422,773	39,566	0,072	-0,047
-421,759	-158,917	-0,063	0,003
-420,744	-200,000	-0,015	-0,066
-419,730	800,000	-0,033	-0,073
-418,715	280,864	0,079	-0,103
-417,701	-29,733	-0,134	-0,055
-416,686	25,999	0,066	0,040
-415,671	11,118	0,164	-0,091
-414,657	-200,000	-0,068	0,000
-413,642	563,066	-0,080	0,141
-412,628	177,686	-0,044	0,046
-411,613	-200,000	-0,030	-0,112
-410,598	209,245	0,076	-0,087
-409,584	-200,000	-0,017	-0,059
-408,569	800,000	0,047	0,147
-407,555	-134,500	0,144	-0,013
-406,540	-18,138	-0,124	0,056
-405,525	-83,584	0,016	-0,004
-404,511	-33,761	-0,046	0,018
-403,496	-200,000	0,006	-0,072
-402,482	-200,000	0,002	0,137
-401,467	-20,038	-0,041	0,018
-400,452	-144,026	0,021	-0,001
-399,438	-149,370	-0,093	-0,005
-398,423	66,576	0,087	-0,064
-397,409	-161,795	-0,200	-0,007
-396,394	224,426	-0,037	-0,044
-395,379	-87,985	0,082	-0,018
-394,365	112,378	-0,053	0,047
-393,350	-200,000	0,006	0,058
-392,336	-38,351	-0,069	-0,026
-391,321	-23,162	0,053	0,023
-390,306	574,000	-0,029	-0,051
-389,292	-200,000	-0,008	0,031
-388,277	-168,300	0,034	0,001
-387,263	-200,000	0,034	0,109
-386,248	441,334	0,122	0,194
-385,233	800,000	0,017	-0,046
-384,219	-80,127	0,121	0,029
-383,204	-200,000	-0,012	-0,133
-382,190	-7,277	0,063	-0,031
-381,175	-200,000	-0,012	0,053
-380,160	345,201	0,072	0,103
-379,146	208,806	-0,051	0,058
-378,131	118,722	0,041	0,036
-377,117	800,000	0,025	-0,067
-376,102	12,295	-0,031	0,017
-375,088	800,000	-0,035	-0,104
-374,073	115,182	-0,074	0,065
-373,058	70,102	0,052	0,039
-372,044	-115,367	0,128	-0,017
-371,029	-200,000	0,005	-0,027
-370,015	-200,000	0,007	0,074
-369,000	800,000	-0,073	-0,188
-367,985	800,000	0,037	-0,119
-366,971	-93,233	-0,055	-0,011
-365,956	111,450	0,086	0,075
-364,942	800,000	0,012	0,027
-363,927	83,811	-0,065	0,052
-362,912	-134,954	-0,056	-0,005
-361,898	-4,924	-0,125	0,062
-360,883	11,388	0,082	0,046
-359,869	-200,000	-0,025	0,000
-358,854	-111,590	-0,053	-0,008
-357,839	163,028	0,118	0,120
-356,825	-39,437	-0,098	0,037
-355,810	674,058	0,046	0,087
-354,796	719,212	0,050	0,098
-353,781	5,839	-0,068	-0,036
-352,766	-8,789	0,035	0,017
-351,752	800,000	0,024	0,069
-350,737	16,181	0,134	0,076
-349,723	-56,244	0,092	0,030
-348,708	325,972	0,079	0,110
-347,693	-200,000	-0,022	-0,139
-346,679	424,783	-0,094	-0,147
-345,664	-118,085	0,038	0,005
-344,650	-72,538	0,118	0,031
-343,635	154,622	0,102	0,102
-342,620	-51,987	0,097	0,032
-341,606	13,737	0,020	-0,011
-340,591	110,558	0,049	-0,043
-339,577	-53,544	-0,147	-0,049
-338,562	-122,295	-0,054	-0,006
-337,548	-200,000	-0,026	0,084
-336,533	800,000	0,042	-0,121
-335,518	800,000	0,056	0,126
-334,504	800,000	0,028	-0,057
-333,489	-105,323	0,068	0,011
-332,475	372,972	-0,027	-0,041
-331,460	588,319	0,040	0,071
-330,445	-143,835	0,082	-0,006
-329,431	647,280	-0,072	0,133
-328,416	800,000	0,056	0,131
-327,402	800,000	0,016	0,046
-326,387	800,000	0,041	0,115
-325,372	11,357	0,050	0,028
-324,358	-200,000	0,026	-0,144
-323,343	795,590	0,046	-0,093
-322,329	-24,900	0,069	0,029
-321,314	-200,000	0,014	-0,151
-320,299	655,293	0,077	0,144
-319,285	-200,000	0,013	0,041
-318,270	15,810	0,073	-0,041
-317,256	800,000	-0,036	0,093
-316,241	-200,000	-0,014	-0,063
-315,226	84,522	-0,104	0,082
-314,212	-200,000	-0,022	-0,106
-313,197	-163,211	0,040	0,001
-312,183	83,382	0,015	-0,012
-311,168	-117,212	0,046	-0,006
-310,153	-171,057	0,120	0,003
-309,139	-144,842	-0,082	0,005
-308,124	-200,000	0,014	-0,057
-307,110	173,895	0,080	-0,084
-306,095	306,452	0,023	-0,031
-305,080	-200,000	0,013	0,056
-304,066	25,375	-0,069	-0,041
-303,051	94,285	-0,063	-0,052
-302,037	-151,644	-0,220	0,012
-301,022	-81,069	0,069	0,016
-300,008	-200,000	0,008	0,071
-298,993	-200,000	-0,001	-0,042
-297,978	-49,661	-0,142	-0,049
-296,964	20,269	-0,105	-0,061
-295,949	57,490	0,022	0,015
-294,935	119,131	-0,075	-0,067
-293,920	800,000	0,033	-0,090
-292,905	679,419	-0,022	0,042
-291,891	60,815	0,092	0,066
-290,876	-158,768	0,059	-0,002
-289,862	-200,000	0,027	-0,092
-288,847	-39,278	0,023	-0,009
-287,832	19,226	-0,036	0,021
-286,818	-200,000	0,025	0,096
-285,803	-49,140	-0,049	-0,017
-284,789	13,161	-0,151	-0,085
-283,774	312,057	0,029	0,040
-282,759	4,663	-0,124	-0,066
-281,745	-200,000	0,020	0,075
-280,730	-69,361	-0,073	0,020
-279,716	-200,000	-0,003	0,114
-278,701	-200,000	-0,003	-0,084
-277,686	375,036	-0,030	0,044
-276,672	25,481	-0,072	-0,043
-275,657	692,416	0,036	-0,069
-274,643	645,656	-0,078	-0,145
-273,628	800,000	0,035	0,106
-272,613	-200,000	-0,020	0,065
-271,599	800,000	-0,011	0,030
-270,584	142,036	0,086	-0,083
-269,570	800,000	-0,086	-0,196
-268,555	125,530	0,126	0,115
-267,540	-90,437	-0,110	-0,023
-266,526	287,283	-0,056	-0,074
-265,511	-200,000	-0,015	0,152
-264,497	-27,719	0,163	-0,068
-263,482	499,764	0,037	0,063
-262,467	-97,724	0,076	0,014
-261,453	282,366	-0,045	-0,058
-260,438	-27,375	0,058	0,024
-259,424	-200,000	0,004	0,022
-258,409	800,000	-0,028	-0,073
-257,395	800,000	0,060	-0,156
-256,380	83,498	0,034	-0,027
-255,365	294,854	-0,020	0,026
-254,351	-17,537	0,083	0,038
-253,336	-200,000	0,018	-0,131
-252,322	-200,000	-0,018	0,073
-251,307	-200,000	-0,024	0,087
-250,292	176,812	0,061	0,064
-249,278	-200,000	-0,003	-0,030
-248,263	-112,690	0,098	0,014
-247,249	53,483	0,059	0,041
-246,234	163,395	-0,116	-0,118
-245,219	800,000	-0,051	0,127
-244,205	-178,249	0,018	0,000
-243,190	150,491	0,050	-0,049
-242,176	800,000	0,027	-0,077
-241,161	-115,181	-0,063	-0,009
-240,146	-113,605	0,060	-0,008
-239,132	-81,504	-0,121	0,028
-238,117	-115,039	-0,013	-0,002
-237,103	-200,000	-0,022	-0,077
-236,088	113,435	0,043	-0,038
-235,073	800,000	-0,010	-0,022
-234,059	800,000	0,039	0,091
-233,044	314,315	0,072	0,099
-232,030	-200,000	0,029	-0,121
-231,015	-73,628	-0,222	-0,058
-230,000	50,091	-0,036	-0,025
-228,986	-200,000	0,005	-0,095
-227,971	800,000	0,014	-0,041
-226,957	800,000	-0,030	0,077
-225,942	135,662	0,112	0,105
-224,927	-200,000	0,012	-0,127
-223,913	-114,132	-0,097	0,013
-222,898	-28,224	0,035	-0,015
-221,884	800,000	0,043	0,094
-220,869	-143,151	0,094	0,006
-219,855	-200,000	-0,002	0,102
-218,840	49,830	0,119	0,081
-217,825	-200,000	0,004	-0,075
-216,811	269,344	0,052	-0,066
-215,796	516,091	-0,025	-0,043
-214,782	-200,000	-0,012	0,098
-213,767	-200,000	0,020	-0,083
-212,752	439,311	0,137	0,217
-211,738	-200,000	-0,005	-0,024
-210,723	800,000	0,031	0,076
-209,709	14,042	0,099	-0,056
-208,694	-200,000	-0,042	-0,165
-207,679	-24,360	0,108	0,046
-206,665	115,007	-0,043	0,038
-205,650	-6,461	0,109	-0,053
-204,636	414,748	0,047	0,072
-203,621	44,557	0,107	-0,071
-202,606	19,798	-0,036	0,021
-201,592	-200,000	0,008	0,060
-200,577	6,956	0,065	0,035
-199,563	77,324	-0,088	-0,068
-198,548	-196,353	0,048	-0,000
-197,533	256,586	0,003	0,004
-196,519	-8,087	0,037	0,018
-195,504	285,929	0,014	0,019
-194,490	-200,000	-0,045	-0,175
-193,475	-31,519	-0,256	0,103
-192,460	-96,093	0,054	0,010
-191,446	-200,000	0,004	0,205
-190,431	-56,856	0,099	0,032
-189,417	9,770	-0,080	-0,044
-188,402	-59,732	0,080	0,025
-187,387	-121,471	-0,112	0,013
-186,373	69,055	-0,038	0,028
-185,358	200,792	0,061	-0,067
-184,344	270,395	-0,106	0,135
-183,329	-200,000	0,006	0,094
-182,315	800,000	-0,038	0,094
-181,300	31,385	0,047	0,029
-180,285	-200,000	-0,026	0,115
-179,271	-200,000	-0,005	-0,034
-178,256	142,218	0,018	-0,017
-177,242	254,620	0,002	0,003
-176,227	406,082	-0,020	0,030
-175,212	395,468	-0,057	0,086
-174,198	800,000	-0,021	0,054
-173,183	-200,000	0,001	-0,067
-172,169	182,022	-0,050	0,053
-171,154	166,890	-0,023	0,023
-170,139	-171,068	0,094	0,002
-169,125	513,415	-0,035	-0,060
-168,110	362,552	-0,033	0,048
-167,096	225,118	0,022	0,025
-166,081	-36,654	-0,089	0,034
-165,066	-200,000	-0,002	0,028
-164,052	505,724	0,022	-0,037
-163,037	170,333	-0,023	0,024
-162,023	-200,000	0,036	0,147
-161,008	-200,000	-0,001	-0,048
-159,993	-200,000	-0,012	0,088
-158,979	-95,366	-0,127	-0,024
-157,964	34,285	-0,016	0,010
-156,950	90,070	-0,116	-0,093
-155,935	-200,000	-0,000	0,124
-154,920	-101,860	-0,061	0,010
-153,906	800,000	0,041	0,096
-152,891	300,908	0,073	-0,098
-151,877	35,973	0,099	-0,063
-150,862	29,547	-0,069	-0,042
-149,847	-147,804	0,060	0,004
-148,833	-95,346	-0,088	0,017
-147,818	-200,000	0,014	0,109
-146,804	46,998	0,072	0,048
-145,789	-66,643	0,066	0,019
-144,775	47,976	-0,194	-0,130
-143,760	-68,930	0,095	0,026
-142,745	609,639	-0,108	-0,195
-141,731	-145,878	0,068	0,004
-140,716	22,052	-0,048	-0,028
-139,702	-88,912	0,040	-0,008
-138,687	-63,865	0,006	0,002
-137,672	-200,000	0,015	0,186
-136,658	574,851	-0,067	-0,117
-135,643	-81,289	0,024	-0,006
-134,629	-96,207	0,089	0,017
-133,614	-200,000	-0,026	0,108
-132,599	150,761	0,079	0,077
-131,585	738,338	0,046	-0,089
-130,570	-200,000	-0,001	-0,037
-129,556	469,057	-0,069	-0,111
-128,541	159,186	-0,079	0,079
-127,526	-200,000	-0,013	0,173
-126,512	-130,604	0,083	0,008
-125,497	-89,734	-0,017	-0,004
-124,483	78,716	-0,084	0,065
-123,468	15,341	-0,092	0,052
-122,453	22,098	-0,104	-0,061
-121,439	-67,112	0,082	0,023
-120,424	-200,000	-0,013	0,133
-119,410	-59,771	-0,070	0,021
-118,395	-45,858	0,082	0,029
-117,380	800,000	-0,078	-0,187
-116,366	-200,000	-0,011	-0,070
-115,351	-82,874	-0,039	0,009
-114,337	-8,736	-0,132	-0,064
-113,322	19,613	-0,127	-0,073
-112,307	-200,000	-0,009	0,096
-111,293	-115,591	0,032	0,004
-110,278	27,329	-0,159	-0,096
-109,264	138,296	0,021	-0,020
-108,249	-27,867	-0,099	-0,041
-107,234	800,000	0,054	-0,123
-106,220	254,750	-0,059	-0,072
-105,205	-85,224	0,090	-0,020
-104,191	-113,289	0,102	-0,014
-103,176	-200,000	-0,021	0,144
-102,162	231,023	-0,035	-0,041
-101,147	-39,950	0,094	-0,035
-100,132	187,369	0,030	-0,032
-99,118	800,000	-0,063	-0,141
-98,103	3,954	-0,029	-0,015
-97,089	-106,878	0,100	0,016
-96,074	-57,158	0,081	-0,026
-95,059	111,318	-0,035	0,030
-94,045	-200,000	-0,018	0,062
-93,030	-101,922	-0,008	-0,001
-92,016	522,020	-0,054	-0,091
-91,001	-90,750	0,019	0,004
-89,986	800,000	0,013	-0,038
-88,972	170,259	0,022	-0,022
-87,957	-190,517	0,075	-0,001
-86,943	-200,000	-0,026	-0,150
-85,928	110,613	0,058	-0,050
-84,913	800,000	-0,047	-0,148
-83,899	386,011	-0,063	0,093
-82,884	127,666	-0,008	-0,007
-81,870	-200,000	0,022	0,084
-80,855	-25,077	0,047	0,020
-79,840	-34,434	-0,134	-0,053
-78,826	-60,395	-0,158	-0,048
-77,811	-51,504	-0,128	0,043
-76,797	85,122	-0,066	0,052
-75,782	-200,000	0,022	0,100
-74,767	130,015	-0,096	0,088
-73,753	-7,346	0,098	0,047
-72,738	-101,553	0,031	-0,005
-71,724	-148,432	-0,057	0,003
-70,709	-200,000	-0,008	0,037
-69,694	185,740	-0,134	-0,143
-68,680	291,199	-0,056	0,073
-67,665	-100,592	0,107	0,019
-66,651	-200,000	-0,013	0,124
-65,636	8,221	-0,047	0,025
-64,622	-76,129	-0,156	0,039
-63,607	243,786	0,024	-0,028
-62,592	52,768	-0,134	-0,091
-61,578	68,210	0,149	0,110
-60,563	312,194	0,091	0,123
-59,549	-200,000	-0,005	0,069
-58,534	93,480	-2,646	-2,148
-57,519	-99,754	0,417	-0,074
-56,505	800,000	-1,743	-5,496
-55,490	548,416	1,193	2,058
-54,476	800,000	5,110	11,263
-53,461	-200,000	22,601	348,685
-52,446	800,000	764,260	2271,105
-51,432	500,563	1644,472	2732,300
-50,417	93,804	1602,250	1302,021
-49,403	61,720	1258,615	897,757
-48,388	21,576	1010,524	588,321
-47,373	18,679	978,245	560,008
-46,359	12,070	965,377	531,144
-45,344	7,945	962,058	515,877
-44,330	8,364	959,631	515,916
-43,315	7,379	957,838	511,737
-42,300	7,365	956,908	511,172
-41,286	7,381	955,955	510,696
-40,271	7,370	954,934	510,094
-39,257	7,379	953,937	509,571
-38,242	7,325	953,327	509,051
-37,227	7,330	952,448	508,577
-36,213	7,349	951,487	508,106
-35,198	7,351	950,693	507,667
-34,184	7,351	950,127	507,347
-33,169	7,337	949,186	506,776
-32,154	7,393	948,092	506,352
-31,140	7,322	947,350	505,709
-30,125	7,370	946,753	505,523
-29,111	7,375	945,829	505,025
-28,096	7,348	945,282	504,628
-27,082	7,398	944,603	504,405
-26,067	7,329	943,755	503,711
-25,052	7,243	943,009	503,019
-24,038	7,325	942,376	502,923
-23,023	7,271	941,935	502,496
-22,009	7,329	941,018	502,172
-20,994	7,359	940,614	502,031
-19,979	7,356	939,830	501,583
-18,965	7,359	939,202	501,238
-17,950	7,322	938,465	500,707
-16,936	7,269	937,912	500,224
-15,921	7,279	937,291	499,906
-14,906	7,273	936,601	499,498
-13,892	7,240	936,125	499,121
-12,877	7,234	935,412	498,702
-11,863	7,230	934,848	498,369
-10,848	7,227	934,223	498,004
-9,833	7,267	933,952	497,967
-8,819	7,320	933,052	497,634
-7,804	7,251	932,310	497,002
-6,790	7,228	931,900	496,692
-5,775	7,317	931,184	496,570
-4,760	7,315	930,613	496,238
-3,746	7,259	930,136	495,789
-2,731	7,073	929,344	494,762
-1,717	7,041	928,751	494,325
-0,702	7,130	928,061	494,219
0,313	6,903	927,723	494,072
1,327	10,391	924,983	503,488
2,342	18,994	773,288	443,277
3,356	14,058	443,248	246,711
4,371	-12,279	309,513	144,535
5,386	-15,966	292,098	132,700
6,400	-18,114	285,998	127,811
7,415	-18,181	283,381	126,565
8,429	-18,807	281,559	125,135
9,444	-18,961	280,660	124,577
10,459	-18,953	280,139	124,342
11,473	-18,751	279,453	124,219
12,488	-18,805	279,141	124,018
13,502	-18,783	278,439	123,716
14,517	-18,628	278,000	123,658
15,531	-18,503	277,595	123,586
16,546	-18,628	277,241	123,299
17,561	-18,588	276,875	123,163
18,575	-18,484	276,574	123,116
19,590	-18,663	276,343	122,833
20,604	-18,514	276,081	122,847
21,619	-18,473	275,598	122,659
22,634	-18,435	275,359	122,578
23,648	-18,450	274,923	122,359
24,663	-18,661	274,854	122,118
25,677	-18,519	274,521	122,093
26,692	-18,474	274,188	121,977
27,707	-18,551	273,938	121,783
28,721	-18,538	273,681	121,670
29,736	-18,622	273,386	121,449
30,750	-18,548	273,246	121,445
31,765	-18,497	272,881	121,319
32,780	-18,322	272,714	121,398
33,794	-18,600	272,400	120,988
34,809	-18,227	272,057	121,172
35,823	-18,557	271,987	120,823
36,838	-18,531	271,541	120,638
37,853	-18,517	271,430	120,591
38,867	-18,553	271,127	120,413
39,882	-18,482	270,854	120,346
40,896	-18,535	270,669	120,204
41,911	-18,566	270,548	120,111
42,926	-18,376	270,193	120,118
43,940	-18,498	269,962	119,893
44,955	-18,563	269,719	119,714
45,969	-18,424	269,450	119,712
46,984	-18,343	269,414	119,760
47,999	-18,361	269,106	119,596
49,013	-18,192	268,759	119,585
50,028	-18,423	268,671	119,324
51,042	-18,344	268,524	119,321
52,057	-18,432	268,327	119,141
53,071	-18,440	268,149	119,045
54,086	-18,437	267,825	118,893
55,101	-18,357	267,584	118,848
56,115	-18,440	267,279	118,627
57,130	-18,368	266,987	118,552
58,144	-18,658	266,812	118,200
59,159	-18,670	266,567	118,069
60,174	-18,573	266,140	117,958
61,188	-18,666	266,110	117,850
62,203	-18,547	265,848	117,831
63,217	-18,450	265,695	117,841
64,232	-18,603	265,537	117,622
65,247	-18,464	265,076	117,532
66,261	-18,455	264,856	117,433
67,276	-18,363	264,641	117,410
68,290	-18,439	264,524	117,280
69,305	-18,489	264,240	117,098
70,320	-18,375	263,997	117,082
71,334	-18,469	263,992	116,985
72,349	-18,502	263,594	116,768
73,363	-18,448	263,414	116,727
74,378	-18,503	263,045	116,503
75,393	-18,437	262,810	116,448
76,407	-18,437	262,709	116,393
77,422	-18,494	262,542	116,258
78,436	-18,455	262,138	116,104
79,451	-18,396	262,039	116,102
80,466	-18,676	261,822	115,745
81,480	-18,328	261,454	115,882
82,495	-18,362	261,351	115,796
83,509	-18,593	261,303	115,559
84,524	-18,410	260,816	115,496
85,539	-18,319	260,769	115,545
86,553	-18,274	260,558	115,482
87,568	-18,440	260,301	115,210
88,582	-18,420	260,060	115,111
89,597	-18,427	259,991	115,064
90,611	-18,570	259,678	114,789
91,626	-18,482	259,477	114,767
92,641	-18,344	259,269	114,787
93,655	-18,648	259,095	114,432
94,670	-18,528	258,886	114,435
95,684	-18,404	258,652	114,430
96,699	-18,374	258,328	114,303
97,714	-18,560	258,351	114,140
98,728	-18,370	258,090	114,182
99,743	-18,375	257,935	114,098
100,757	-18,214	257,628	114,093
101,772	-18,270	257,405	113,935
102,787	-18,413	257,212	113,714
103,801	-18,616	257,099	113,477
104,816	-18,283	256,724	113,591
105,830	-18,465	256,539	113,341
106,845	-18,438	256,544	113,357
107,860	-18,524	256,165	113,105
108,874	-18,375	255,993	113,149
109,889	-18,688	255,810	112,784
110,903	-18,389	255,520	112,907
111,918	-18,373	255,400	112,858
112,933	-18,273	255,190	112,841
113,947	-18,341	254,835	112,615
114,962	-18,596	254,764	112,353
115,976	-18,485	254,600	112,367
116,991	-18,300	254,297	112,383
118,006	-18,406	254,160	112,221
119,020	-18,403	253,911	112,104
120,035	-18,256	253,973	112,248
121,049	-18,647	253,735	111,796
122,064	-18,365	253,443	111,900
123,079	-18,279	253,323	111,910
124,093	-18,472	253,077	111,626
125,108	-18,330	252,960	111,686
126,122	-18,255	252,789	111,666
127,137	-18,214	252,677	111,641
128,151	-18,246	252,218	111,401
129,166	-18,430	252,191	111,222
130,181	-18,228	251,932	111,270
131,195	-18,321	251,629	111,047
132,210	-18,391	251,454	110,900
133,224	-18,458	251,321	110,774
134,239	-18,371	251,127	110,754
135,254	-18,364	250,822	110,615
136,268	-18,156	250,617	110,691
137,283	-18,209	250,406	110,544
138,297	-18,274	250,397	110,475
139,312	-18,478	250,158	110,186
140,327	-18,156	249,967	110,364
141,341	-18,225	249,662	110,162
142,356	-18,338	249,365	109,925
143,370	-18,269	249,320	109,954
144,385	-18,334	249,088	109,787
145,400	-18,382	248,816	109,617
146,414	-18,342	248,740	109,608
147,429	-18,348	248,421	109,453
148,443	-18,418	248,393	109,372
149,458	-18,438	248,224	109,271
150,473	-18,471	248,025	109,145
151,487	-18,361	247,842	109,147
152,502	-18,272	247,513	109,067
153,516	-18,358	247,347	108,912
154,531	-18,255	247,183	108,917
155,546	-18,462	247,170	108,728
156,560	-18,370	246,912	108,682
157,575	-18,320	246,696	108,618
158,589	-18,176	246,369	108,585
159,604	-18,416	246,341	108,363
160,619	-18,308	246,186	108,375
161,633	-18,348	246,007	108,253
162,648	-18,201	245,747	108,251
163,662	-18,469	245,593	107,951
164,677	-18,244	245,619	108,140
165,692	-18,454	245,232	107,786
166,706	-18,283	245,149	107,882
167,721	-18,280	244,890	107,761
168,735	-18,258	244,678	107,676
169,750	-18,472	244,469	107,397
170,764	-18,340	244,355	107,447
171,779	-18,358	244,344	107,418
172,794	-18,304	244,206	107,392
173,808	-18,355	243,777	107,152
174,823	-18,356	243,739	107,124
175,837	-18,096	243,588	107,262
176,852	-18,308	243,482	107,032
177,867	-18,364	243,374	106,929
178,881	-18,336	243,214	106,872
179,896	-18,555	242,994	106,586
180,910	-18,517	242,673	106,466
181,925	-18,399	242,616	106,529
182,940	-18,384	242,464	106,465
183,954	-18,246	242,102	106,409
184,969	-18,266	242,040	106,356
185,983	-18,285	241,743	106,201
186,998	-18,288	241,711	106,175
188,013	-18,131	241,546	106,221
189,027	-18,194	241,275	106,041
190,042	-18,539	241,091	105,670
191,056	-18,363	240,838	105,693
192,071	-18,407	240,758	105,613
193,086	-18,282	240,611	105,640
194,100	-18,251	240,413	105,568
195,115	-18,399	240,125	105,313
196,129	-18,350	239,959	105,270
197,144	-18,337	239,788	105,196
198,159	-18,395	239,619	105,067
199,173	-18,408	239,451	104,973
200,188	-18,417	239,284	104,882
201,202	-18,256	239,261	104,993
202,217	-18,164	238,989	104,938
203,232	-18,110	238,787	104,884
204,246	-18,230	238,519	104,661
205,261	-18,480	238,317	104,362
206,275	-17,066	238,821	105,711
207,290	-12,542	240,457	110,088
208,304	-5,932	242,679	116,487
209,319	-1,907	243,569	120,189
210,334	-0,712	243,821	121,278
211,348	-0,128	243,951	121,809
212,363	0,107	243,826	121,927
213,377	0,497	243,710	122,176
214,392	0,714	243,753	122,363
215,407	1,022	243,713	122,583
216,421	1,335	243,572	122,756
217,436	1,144	243,475	122,540
218,450	1,212	243,261	122,477
219,465	1,190	243,122	122,378
220,480	1,524	242,937	122,545
221,494	1,305	242,749	122,262
222,509	0,796	242,531	121,729
223,523	0,702	242,289	121,521
224,538	0,572	242,120	121,321
225,553	0,627	241,906	121,247
226,567	0,440	241,577	120,920
227,582	0,692	241,539	121,094
228,596	0,651	241,397	120,978
229,611	0,593	241,252	120,848
230,626	0,805	241,034	120,898
231,640	0,559	240,922	120,634
232,655	0,453	240,770	120,462
233,669	0,413	240,538	120,303
234,684	0,445	240,506	120,302
235,699	0,746	240,321	120,440
236,713	0,627	240,187	120,267
237,728	0,666	239,944	120,165
238,742	0,474	239,787	119,923
239,757	0,446	239,668	119,830
240,772	0,429	239,500	119,722
241,786	0,517	239,456	119,759
242,801	0,444	239,313	119,619
243,815	0,573	239,166	119,638
244,830	0,456	238,880	119,391
245,844	0,637	238,704	119,436
246,859	0,645	238,448	119,304
247,874	0,815	238,299	119,353
248,888	0,691	238,175	119,183
249,903	0,728	238,134	119,180
250,917	0,744	237,957	119,094
251,932	0,739	237,751	118,976
252,947	0,562	237,616	118,758
253,961	0,630	237,327	118,657
254,976	0,627	237,247	118,604
255,990	0,907	236,972	118,677
257,005	0,769	236,978	118,561
258,020	0,557	236,802	118,294
259,034	0,757	236,623	118,352
260,049	0,783	236,449	118,274
261,063	0,614	236,426	118,120
262,078	0,659	236,258	118,061
263,093	0,614	235,975	117,874
264,107	0,710	235,933	117,917
265,122	0,492	235,769	117,654
266,136	0,607	235,722	117,710
267,151	0,644	235,491	117,614
268,166	0,659	235,161	117,450
269,180	0,622	235,042	117,351
270,195	0,646	235,016	117,346
271,209	0,644	234,845	117,249
272,224	0,434	234,734	117,019
273,239	0,551	234,570	117,019
274,253	0,383	234,504	116,844
275,268	0,724	234,204	116,950
276,282	0,649	234,068	116,813
277,297	0,502	233,990	116,649
278,312	0,658	233,781	116,656
279,326	0,621	233,657	116,554
280,341	0,594	233,564	116,477
281,355	0,564	233,462	116,392
282,370	0,474	233,378	116,270
283,384	0,669	232,936	116,190
284,399	0,596	232,885	116,099
285,414	0,601	232,775	116,037
286,428	0,679	232,600	116,000
287,443	0,620	232,510	115,899
288,457	0,715	232,304	115,859
289,472	0,799	232,128	115,826
290,487	0,797	232,075	115,788
291,501	0,658	231,792	115,530
292,516	0,748	231,790	115,587
293,530	0,707	231,592	115,446
294,545	0,675	231,487	115,359
295,560	0,569	231,239	115,144
296,574	0,825	231,147	115,284
297,589	0,467	231,117	114,984
298,603	0,810	230,825	115,092
299,618	0,713	230,826	115,007
300,633	0,972	230,542	115,053
301,647	0,901	230,340	114,889
302,662	0,913	230,362	114,898
303,676	0,650	230,305	114,659
304,691	0,938	229,950	114,691
305,706	0,854	229,820	114,553
306,720	0,782	229,717	114,436
307,735	0,647	229,634	114,282
308,749	0,958	229,428	114,406
309,764	0,830	229,349	114,258
310,779	0,953	229,160	114,247
311,793	0,765	229,013	114,021
312,808	0,887	228,848	114,022
313,822	0,701	228,567	113,730
314,837	0,946	228,444	113,845
315,852	0,929	228,312	113,756
316,866	0,870	228,343	113,717
317,881	0,942	228,087	113,633
318,895	0,996	227,961	113,602
319,910	0,827	227,770	113,369
320,925	0,773	227,628	113,247
321,939	0,918	227,445	113,255
322,954	1,078	227,386	113,336
323,968	1,037	227,249	113,227
324,983	1,058	227,093	113,155
325,997	0,973	226,975	113,022
327,012	1,054	226,843	113,007
328,027	0,817	226,620	112,708
329,041	0,982	226,438	112,731
330,056	1,050	226,400	112,753
331,070	1,226	226,220	112,785
332,085	0,777	226,076	112,368
333,100	0,994	225,784	112,375
334,114	0,977	225,795	112,357
335,129	0,878	225,560	112,156
336,143	0,947	225,437	112,137
337,158	1,065	225,363	112,178
338,173	0,898	225,175	111,950
339,187	0,945	225,082	111,929
340,202	1,182	224,858	111,983
341,216	1,052	224,751	111,824
342,231	1,072	224,551	111,728
343,246	0,939	224,605	111,647
344,260	0,871	224,451	111,510
345,275	0,980	224,280	111,496
346,289	1,107	224,105	111,493
347,304	0,972	223,917	111,290
348,319	1,111	223,696	111,272
349,333	1,045	223,580	111,156
350,348	1,191	223,462	111,195
351,362	1,181	223,379	111,137
352,377	1,152	223,189	111,011
353,392	1,160	223,117	110,971
354,406	1,220	222,977	110,936
355,421	192,749	1312,226	1379,154
356,435	154,341	1444,776	1378,979
