DTS Sentinel unit serial number:	SN410029Multiplexer serial number:	ORYXHardware model number:	OX2-SRSoftware version number:	ORYX F/W v4,00 Oryx Data Collector v3.7.2.0data status	okinstallation	B5 Nyhavnadifferential loss correction	single-endedforward channel	channel 2reverse channel	N/Adate	2023/12/13time	08:42:13forward acquisition time	300,00reverse acquisition time	0,00gamma	499,1914k internal	0,3160k external	0,3160temperature offset calibration	1,0000default loss term (dB/km)	0,3820temperature slope calibration	1,0000multiplexer offset coefficient	1,0000multiplexer slope coefficient	1,0000fibre end	0,00T internal ref (°C)	13,65T ext. ref 1 (°C)	-2,67T ext. ref 2 (°C)	-2,96length (m)	temperature (°C)	Stokes	anti-Stokes-744,400	800,000	0,073	0,193
-743,385	-156,998	-0,166	0,007
-742,371	-54,708	0,026	0,008
-741,356	-120,659	-0,492	-0,061
-740,342	75,804	0,025	-0,019
-739,327	-139,493	-0,313	0,024
-738,312	580,250	0,080	-0,144
-737,298	-63,847	-0,381	-0,114
-736,283	-128,957	0,106	0,011
-735,269	-148,924	-0,325	-0,019
-734,254	39,813	0,064	0,042
-733,239	-59,628	-0,438	-0,137
-732,225	-104,563	0,203	0,034
-731,210	-148,317	-0,110	-0,007
-730,196	114,249	-0,094	-0,084
-729,181	118,124	-0,051	-0,047
-728,167	-200,000	-0,001	-0,054
-727,152	-200,000	0,022	-0,092
-726,137	-134,534	-0,078	0,007
-725,123	800,000	-0,018	0,055
-724,108	191,916	-0,098	-0,108
-723,094	480,496	-0,038	-0,063
-722,079	800,000	-0,006	-0,016
-721,064	-174,066	-0,078	0,002
-720,050	-200,000	-0,012	0,051
-719,035	145,862	-0,098	0,097
-718,021	-156,638	0,039	0,002
-717,006	-73,850	0,135	-0,036
-715,991	371,642	0,075	-0,112
-714,977	8,310	-0,189	-0,104
-713,962	800,000	-0,040	-0,089
-712,948	102,610	0,153	-0,131
-711,933	800,000	0,032	-0,102
-710,918	46,650	-0,042	0,029
-709,904	800,000	-0,036	-0,090
-708,889	-172,645	0,114	-0,003
-707,875	395,573	0,063	-0,097
-706,860	-200,000	0,003	0,011
-705,845	98,560	0,041	0,035
-704,831	-89,679	-0,009	-0,002
-703,816	-200,000	-0,020	-0,213
-702,802	517,247	-0,079	-0,137
-701,787	-92,442	-0,062	0,013
-700,772	800,000	0,029	-0,062
-699,758	601,552	-0,009	0,016
-698,743	-151,866	0,173	-0,009
-697,729	31,994	-0,050	0,032
-696,714	-200,000	-0,019	-0,107
-695,699	-200,000	-0,027	0,106
-694,685	800,000	0,075	-0,211
-693,670	-107,079	-0,082	-0,013
-692,656	258,193	0,031	-0,040
-691,641	17,834	0,076	-0,044
-690,627	8,312	0,068	0,037
-689,612	-101,470	0,045	-0,008
-688,597	800,000	0,027	-0,071
-687,583	-132,247	-0,059	-0,006
-686,568	-9,458	-0,130	-0,064
-685,554	800,000	-0,018	0,037
-684,539	-200,000	0,022	0,076
-683,524	211,872	-0,069	-0,080
-682,510	403,377	-0,057	-0,088
-681,495	-89,359	-0,040	-0,009
-680,481	800,000	-0,040	0,087
-679,466	-68,019	0,024	-0,007
-678,451	-144,545	-0,127	-0,009
-677,437	-93,704	-0,009	0,002
-676,422	278,340	0,066	0,087
-675,408	53,178	0,102	0,072
-674,393	496,042	0,049	-0,083
-673,378	-143,770	-0,043	0,003
-672,364	138,886	0,139	0,134
-671,349	800,000	-0,052	0,123
-670,335	62,919	0,096	-0,071
-669,320	-41,790	-0,173	-0,065
-668,305	356,437	0,012	0,018
-667,291	452,970	-0,076	-0,124
-666,276	760,548	-0,035	-0,070
-665,262	202,133	0,073	0,083
-664,247	-200,000	-0,008	0,039
-663,232	-141,733	0,102	0,007
-662,218	-200,000	0,014	0,087
-661,203	800,000	-0,023	0,062
-660,189	49,274	0,078	-0,054
-659,174	54,113	-0,068	-0,048
-658,159	352,433	0,066	-0,097
-657,145	-200,000	-0,042	-0,159
-656,130	298,620	0,077	-0,104
-655,116	-200,000	0,012	-0,079
-654,101	-9,915	-0,049	-0,024
-653,086	-200,000	0,013	-0,082
-652,072	-200,000	-0,005	-0,055
-651,057	-200,000	-0,019	-0,081
-650,043	57,844	-0,105	-0,076
-649,028	-74,705	-0,077	0,020
-648,014	-98,266	0,068	-0,013
-646,999	-200,000	-0,017	-0,104
-645,984	454,048	-0,012	-0,019
-644,970	592,885	-0,031	-0,057
-643,955	86,097	0,062	0,050
-642,941	282,294	0,071	-0,094
-641,926	-116,033	0,034	-0,005
-640,911	-86,533	-0,137	-0,031
-639,897	202,947	0,069	0,079
-638,882	-66,950	0,062	-0,018
-637,868	-200,000	-0,004	-0,121
-636,853	-200,000	0,002	-0,095
-635,838	-12,091	-0,072	0,034
-634,824	800,000	0,041	0,099
-633,809	39,139	0,115	-0,075
-632,795	-200,000	-0,013	-0,146
-631,780	-200,000	-0,008	0,034
-630,765	-200,000	-0,003	-0,027
-629,751	662,175	0,026	-0,050
-628,736	-200,000	-0,008	-0,166
-627,722	502,783	0,053	-0,091
-626,707	-200,000	-0,028	0,108
-625,692	383,612	-0,051	-0,078
-624,678	-200,000	-0,019	-0,164
-623,663	-187,062	0,123	0,001
-622,649	-133,910	0,012	-0,001
-621,634	273,701	-0,117	-0,152
-620,619	800,000	-0,037	0,116
-619,605	429,445	-0,043	0,068
-618,590	800,000	-0,043	-0,105
-617,576	-200,000	0,015	0,053
-616,561	-200,000	-0,004	0,019
-615,546	-94,588	-0,125	-0,025
-614,532	319,965	-0,047	0,065
-613,517	800,000	-0,019	0,053
-612,503	-110,449	0,103	-0,016
-611,488	-200,000	-0,003	-0,072
-610,474	-126,722	-0,004	-0,000
-609,459	-134,571	0,162	0,014
-608,444	386,226	-0,057	-0,087
-607,430	135,215	0,076	-0,073
-606,415	-141,453	-0,109	-0,008
-605,401	800,000	0,057	0,147
-604,386	29,868	0,089	-0,055
-603,371	44,526	0,069	-0,046
-602,357	262,031	0,045	0,057
-601,342	-5,797	-0,076	-0,038
-600,328	-200,000	0,012	-0,071
-599,313	800,000	-0,021	-0,048
-598,298	112,337	0,085	0,075
-597,284	-160,839	-0,065	-0,002
-596,269	15,722	0,114	-0,065
-595,255	322,249	0,065	0,091
-594,240	-200,000	-0,007	0,025
-593,225	-200,000	-0,025	-0,135
-592,211	573,198	0,038	-0,068
-591,196	155,890	0,083	-0,084
-590,182	-200,000	-0,004	-0,050
-589,167	11,889	0,154	0,086
-588,152	790,127	-0,029	0,058
-587,138	264,416	-0,017	-0,022
-586,123	-33,102	-0,096	-0,039
-585,109	793,572	-0,054	-0,110
-584,094	403,221	-0,020	-0,030
-583,079	-77,907	0,132	-0,033
-582,065	-200,000	-0,029	0,115
-581,050	20,034	-0,143	0,084
-580,036	386,470	-0,041	-0,063
-579,021	0,263	-0,034	-0,018
-578,006	761,373	0,015	-0,029
-576,992	800,000	-0,017	-0,036
-575,977	258,325	-0,048	-0,060
-574,963	-161,484	0,190	0,007
-573,948	-118,171	-0,090	0,012
-572,934	800,000	-0,017	0,036
-571,919	-81,192	-0,135	0,032
-570,904	800,000	0,026	0,082
-569,890	-200,000	-0,033	0,107
-568,875	174,502	0,009	0,010
-567,861	-160,435	0,041	-0,002
-566,846	-200,000	0,002	0,066
-565,831	-200,000	-0,037	-0,122
-564,817	-39,276	-0,060	0,023
-563,802	-4,505	0,043	0,022
-562,788	77,645	-0,073	-0,056
-561,773	-200,000	-0,007	0,080
-560,758	168,667	0,070	0,073
-559,744	146,063	0,078	0,077
-558,729	-41,453	-0,102	0,038
-557,715	200,886	-0,056	0,064
-556,700	-200,000	0,017	-0,071
-555,685	-147,000	-0,066	-0,004
-554,671	429,783	0,006	0,010
-553,656	77,590	0,017	0,013
-552,642	357,533	-0,125	-0,183
-551,627	317,778	0,122	0,169
-550,612	338,465	0,041	-0,058
-549,598	44,365	-0,036	-0,024
-548,583	13,585	0,050	-0,028
-547,569	167,270	-0,042	0,043
-546,554	-120,592	-0,071	0,009
-545,539	-31,233	-0,100	0,041
-544,525	800,000	-0,046	-0,106
-543,510	110,456	-0,164	-0,144
-542,496	39,785	-0,051	0,034
-541,481	-73,997	-0,184	-0,048
-540,466	36,074	-0,097	-0,062
-539,452	-200,000	0,000	-0,033
-538,437	-69,346	0,109	0,030
-537,423	-107,466	0,086	0,014
-536,408	800,000	-0,008	-0,023
-535,393	800,000	0,059	-0,158
-534,379	-112,251	0,094	-0,014
-533,364	-78,638	0,053	0,013
-532,350	-200,000	0,022	0,123
-531,335	137,101	-0,110	-0,105
-530,321	350,849	0,023	-0,034
-529,306	-30,318	-0,079	-0,032
-528,291	-95,198	-0,108	-0,021
-527,277	-42,436	0,151	-0,056
-526,262	67,461	-0,109	-0,081
-525,248	44,297	0,079	0,053
-524,233	-73,321	0,139	0,037
-523,218	-200,000	-0,006	0,061
-522,204	-42,491	0,035	0,013
-521,189	-56,804	-0,134	-0,043
-520,175	-124,458	0,025	-0,003
-519,160	218,273	0,072	-0,084
-518,145	-116,334	0,072	0,010
-517,131	91,120	-0,029	0,024
-516,116	-95,354	0,150	-0,029
-515,102	38,639	-0,071	-0,046
-514,087	-139,540	0,018	-0,001
-513,072	-109,394	-0,156	-0,024
-512,058	177,217	-0,071	-0,076
-511,043	252,139	0,077	0,095
-510,029	362,365	0,043	0,063
-509,014	535,318	0,025	-0,044
-507,999	17,222	0,029	0,017
-506,985	-200,000	0,035	-0,150
-505,970	-200,000	-0,027	0,175
-504,956	800,000	0,035	-0,101
-503,941	-200,000	0,011	-0,066
-502,926	186,041	0,026	0,028
-501,912	-80,410	0,084	-0,020
-500,897	-21,869	-0,048	0,021
-499,883	-101,998	-0,092	-0,016
-498,868	-106,776	-0,083	0,013
-497,853	-148,481	0,071	-0,004
-496,839	-200,000	-0,032	0,121
-495,824	-200,000	-0,065	-0,235
-494,810	800,000	0,034	-0,097
-493,795	43,178	-0,130	0,086
-492,781	-54,805	-0,195	-0,064
-491,766	773,886	0,029	0,058
-490,751	98,805	-0,032	0,027
-489,737	15,525	0,101	0,058
-488,722	-200,000	0,011	0,232
-487,708	-23,272	-0,039	-0,017
-486,693	331,914	-0,032	-0,045
-485,678	-200,000	-0,029	-0,155
-484,664	-67,865	-0,142	0,040
-483,649	-200,000	-0,035	-0,128
-482,635	336,336	0,038	0,054
-481,620	-200,000	0,007	-0,027
-480,605	361,728	0,076	0,112
-479,591	233,566	-0,043	0,052
-478,576	-61,417	-0,197	-0,060
-477,562	65,670	-0,076	0,056
-476,547	-196,084	-0,036	-0,000
-475,532	178,337	-0,086	-0,092
-474,518	-48,276	0,083	0,029
-473,503	74,518	0,132	-0,101
-472,489	-200,000	0,002	0,062
-471,474	-122,186	-0,049	0,006
-470,459	487,984	0,058	-0,097
-469,445	800,000	-0,022	0,058
-468,430	-200,000	0,005	-0,019
-467,416	-200,000	0,001	-0,116
-466,401	-60,674	0,043	0,013
-465,386	-200,000	-0,017	-0,093
-464,372	210,517	-0,071	0,081
-463,357	92,517	-0,070	-0,057
-462,343	-55,626	-0,127	-0,041
-461,328	150,614	-0,078	-0,078
-460,313	-23,784	0,164	0,071
-459,299	126,684	0,007	0,006
-458,284	-200,000	0,017	0,123
-457,270	-46,156	-0,016	0,006
-456,255	-105,230	0,132	-0,022
-455,241	-152,875	-0,089	-0,005
-454,226	-89,907	0,106	-0,022
-453,211	243,989	-0,091	0,112
-452,197	800,000	0,021	0,065
-451,182	300,449	0,115	0,155
-450,168	-200,000	-0,015	0,115
-449,153	492,739	0,035	-0,059
-448,138	-200,000	0,005	-0,131
-447,124	-87,054	-0,031	-0,007
-446,109	203,463	-0,051	0,057
-445,095	355,064	0,039	0,056
-444,080	-121,735	-0,128	0,015
-443,065	-200,000	-0,026	0,093
-442,051	83,990	0,114	-0,091
-441,036	574,747	-0,020	-0,036
-440,022	26,598	0,007	0,004
-439,007	71,286	0,172	0,130
-437,992	-104,092	-0,095	0,016
-436,978	-51,916	-0,052	0,017
-435,963	163,355	-0,095	0,097
-434,949	-132,469	-0,118	-0,011
-433,934	-200,000	0,026	-0,162
-432,919	-49,821	0,050	-0,017
-431,905	800,000	0,029	-0,080
-430,890	-200,000	0,000	0,169
-429,876	184,061	0,048	0,052
-428,861	-200,000	0,032	0,119
-427,846	-61,714	0,055	-0,017
-426,832	-200,000	0,007	-0,154
-425,817	800,000	-0,020	-0,052
-424,803	-80,784	-0,132	0,032
-423,788	-120,805	0,080	0,010
-422,773	-52,083	0,064	-0,021
-421,759	-200,000	0,016	0,053
-420,744	223,560	-0,015	-0,017
-419,730	-67,571	-0,049	-0,014
-418,715	-200,000	-0,011	0,038
-417,701	224,072	-0,057	0,068
-416,686	57,516	0,151	0,107
-415,671	168,429	0,055	0,057
-414,657	-47,689	0,046	-0,016
-413,642	-30,259	0,071	-0,029
-412,628	-144,365	-0,071	-0,005
-411,613	16,572	-0,094	-0,054
-410,598	689,228	0,015	0,028
-409,584	450,994	-0,041	-0,065
-408,569	-200,000	-0,024	0,081
-407,555	726,374	0,022	-0,043
-406,540	800,000	-0,053	0,152
-405,525	562,793	0,082	0,145
-404,511	-200,000	0,032	-0,116
-403,496	-200,000	0,021	-0,099
-402,482	-66,833	-0,044	0,013
-401,467	677,658	0,014	0,026
-400,452	658,403	0,049	-0,092
-399,438	-12,810	0,078	0,037
-398,423	-200,000	-0,006	-0,028
-397,409	301,885	0,043	0,058
-396,394	144,787	0,082	-0,079
-395,379	-200,000	0,046	-0,180
-394,365	245,506	-0,122	0,150
-393,350	608,182	0,062	0,112
-392,336	-27,410	-0,050	0,021
-391,321	-68,090	0,085	0,024
-390,306	-50,597	-0,059	0,020
-389,292	-200,000	0,002	-0,099
-388,277	-120,650	0,061	0,007
-387,263	85,449	0,072	0,057
-386,248	-200,000	0,004	0,058
-385,233	-200,000	0,000	0,166
-384,219	765,814	0,067	0,132
-383,204	202,489	-0,109	-0,123
-382,190	-168,210	-0,070	-0,002
-381,175	-23,854	-0,024	-0,010
-380,160	120,953	0,043	-0,039
-379,146	-99,519	0,159	-0,029
-378,131	-134,092	0,149	0,013
-377,117	-127,845	0,114	0,012
-376,102	-67,934	-0,076	0,021
-375,088	398,976	0,068	-0,104
-374,073	-126,829	0,111	0,012
-373,058	-200,000	-0,001	-0,056
-372,044	-200,000	0,023	-0,125
-371,029	800,000	0,028	0,067
-370,015	800,000	-0,080	-0,162
-369,000	-166,931	-0,064	0,002
-367,985	800,000	0,041	0,102
-366,971	-200,000	-0,010	-0,081
-365,956	-200,000	0,022	-0,076
-364,942	-200,000	-0,014	0,148
-363,927	33,876	0,080	0,051
-362,912	-157,648	0,121	-0,005
-361,898	206,120	0,057	-0,064
-360,883	111,317	-0,118	0,103
-359,869	-116,416	-0,066	-0,009
-358,854	-9,103	0,146	0,071
-357,839	-200,000	0,020	0,107
-356,825	-124,164	0,131	-0,015
-355,810	-51,803	-0,094	0,032
-354,796	-54,897	0,075	0,024
-353,781	-200,000	-0,043	0,168
-352,766	-200,000	0,010	0,068
-351,752	-200,000	-0,035	-0,170
-350,737	57,319	0,158	0,112
-349,723	173,510	0,057	0,060
-348,708	800,000	0,020	-0,055
-347,693	-168,252	0,150	0,004
-346,679	128,312	0,119	-0,110
-345,664	-24,875	-0,117	0,050
-344,650	800,000	0,039	0,106
-343,635	618,893	0,084	0,153
-342,620	800,000	0,030	0,087
-341,606	-128,625	-0,067	0,007
-340,591	-162,449	-0,145	0,005
-339,577	-200,000	0,000	0,028
-338,562	-200,000	-0,034	0,139
-337,548	511,292	-0,032	0,054
-336,533	734,605	0,008	-0,016
-335,518	-45,959	0,134	-0,048
-334,504	-200,000	-0,011	-0,081
-333,489	-200,000	0,013	-0,129
-332,475	621,241	0,028	-0,051
-331,460	587,570	-0,069	0,123
-330,445	750,390	0,015	-0,029
-329,431	29,565	0,129	-0,079
-328,416	-86,881	-0,058	-0,013
-327,402	-200,000	0,010	-0,138
-326,387	207,007	0,051	0,058
-325,372	-200,000	0,000	-0,017
-324,358	187,786	-0,138	-0,149
-323,343	91,855	0,088	-0,071
-322,329	20,207	0,065	-0,038
-321,314	273,033	0,102	0,131
-320,299	47,526	0,054	0,036
-319,285	800,000	-0,071	0,205
-318,270	-29,982	0,068	0,028
-317,256	-200,000	0,003	0,085
-316,241	149,090	-0,070	-0,069
-315,226	34,145	-0,112	-0,071
-314,212	800,000	0,020	-0,047
-313,197	800,000	-0,042	0,089
-312,183	-200,000	-0,013	0,050
-311,168	116,744	-0,045	0,040
-310,153	-75,990	-0,057	0,015
-309,139	53,043	0,078	-0,054
-308,124	-200,000	0,029	0,115
-307,110	-200,000	-0,006	0,021
-306,095	-163,393	-0,039	0,001
-305,080	-200,000	-0,009	0,072
-304,066	745,127	-0,049	-0,095
-303,051	-200,000	0,008	-0,198
-302,037	74,425	-0,112	0,085
-301,022	62,054	-0,140	0,101
-300,008	-174,773	0,139	-0,003
-298,993	-21,549	-0,089	-0,039
-297,978	-200,000	0,012	0,040
-296,964	226,039	0,027	-0,032
-295,949	800,000	0,054	0,160
-294,935	407,026	0,022	0,033
-293,920	66,104	0,061	0,045
-292,905	285,550	0,048	-0,063
-291,891	-200,000	-0,008	-0,026
-290,876	38,326	-0,081	0,052
-289,862	392,032	0,054	0,081
-288,847	561,857	-0,043	-0,076
-287,832	30,610	-0,014	0,009
-286,818	-42,939	0,034	0,012
-285,803	-21,002	0,143	0,063
-284,789	-134,052	0,054	0,005
-283,774	163,696	-0,088	-0,090
-282,759	-118,362	0,027	0,003
-281,745	-59,578	-0,073	0,022
-280,730	762,603	-0,066	-0,130
-279,716	-134,573	0,008	0,001
-278,701	774,395	0,016	-0,032
-277,686	84,920	0,040	-0,032
-276,672	-44,048	0,098	-0,035
-275,657	499,397	0,018	0,030
-274,643	-200,000	0,001	0,031
-273,628	-18,197	-0,100	-0,045
-272,613	-45,333	-0,106	0,038
-271,599	784,956	0,028	0,056
-270,584	-106,043	-0,041	0,007
-269,570	-200,000	0,034	-0,125
-268,555	-187,218	-0,058	0,001
-267,540	438,007	0,084	0,133
-266,526	-129,074	0,196	0,020
-265,511	-200,000	0,014	0,104
-264,497	-5,033	0,074	-0,037
-263,482	64,046	0,082	-0,060
-262,467	-98,639	-0,079	0,014
-261,453	-37,169	0,039	-0,015
-260,438	-23,022	0,103	0,045
-259,424	-200,000	-0,004	0,045
-258,409	104,229	-0,088	-0,075
-257,395	-28,465	-0,037	-0,016
-256,380	246,984	0,036	-0,044
-255,365	800,000	-0,073	0,185
-254,351	113,076	0,024	0,021
-253,336	-120,719	-0,031	-0,004
-252,322	193,026	-0,079	-0,086
-251,307	206,423	-0,098	-0,110
-250,292	-200,000	0,000	0,057
-249,278	800,000	0,086	0,183
-248,263	-13,196	-0,029	0,014
-247,249	-200,000	-0,018	0,136
-246,234	578,694	-0,032	0,057
-245,219	247,402	-0,067	0,082
-244,205	-122,064	0,050	0,006
-243,190	-140,344	0,095	0,007
-242,176	800,000	-0,033	0,087
-241,161	-200,000	-0,010	0,138
-240,146	83,364	-0,031	0,024
-239,132	45,735	0,071	-0,047
-238,117	-37,472	-0,146	-0,056
-237,103	-16,962	-0,047	-0,021
-236,088	-200,000	0,018	-0,090
-235,073	556,264	-0,081	-0,141
-234,059	463,169	-0,055	0,089
-233,044	-200,000	0,014	0,072
-232,030	71,239	-0,045	-0,034
-231,015	-100,293	-0,134	-0,024
-230,000	-115,946	-0,040	-0,005
-228,986	-38,040	-0,033	-0,012
-227,971	110,137	-0,047	0,041
-226,957	800,000	-0,053	-0,156
-225,942	92,956	0,061	0,050
-224,927	800,000	0,034	0,075
-223,913	-80,518	-0,080	0,019
-222,898	-97,493	-0,107	-0,020
-221,884	379,847	-0,079	-0,117
-220,869	800,000	0,086	-0,238
-219,855	800,000	-0,039	-0,090
-218,840	51,949	-0,113	-0,078
-217,825	52,722	-0,073	0,051
-216,811	-200,000	-0,004	-0,064
-215,796	2,196	-0,070	-0,037
-214,782	2,118	-0,064	0,034
-213,767	800,000	-0,041	0,093
-212,752	-169,239	0,073	-0,002
-211,738	800,000	-0,011	0,028
-210,723	-8,326	-0,135	-0,065
-209,709	800,000	0,012	-0,031
-208,694	-200,000	-0,032	0,123
-207,679	201,765	-0,041	-0,046
-206,665	-200,000	-0,013	0,221
-205,650	65,328	0,165	0,120
-204,636	212,157	0,022	0,025
-203,621	651,282	-0,007	0,013
-202,606	125,587	-0,052	0,047
-201,592	112,888	-0,077	-0,067
-200,577	555,843	0,052	-0,091
-199,563	-200,000	0,004	0,027
-198,548	46,020	0,045	0,030
-197,533	-200,000	0,027	0,090
-196,519	173,662	0,104	-0,108
-195,504	-25,563	-0,051	-0,022
-194,490	800,000	-0,019	-0,057
-193,475	-123,796	0,018	0,002
-192,460	-109,387	-0,067	-0,010
-191,446	-200,000	0,030	0,159
-190,431	-21,053	0,135	0,059
-189,417	183,624	-0,046	0,049
-188,402	-200,000	-0,003	-0,113
-187,387	-126,882	-0,079	0,008
-186,373	800,000	-0,007	0,020
-185,358	-200,000	0,007	0,080
-184,344	60,005	0,070	0,050
-183,329	-16,866	0,026	0,012
-182,315	53,372	-0,016	-0,011
-181,300	-200,000	0,017	0,081
-180,285	169,723	0,037	0,039
-179,271	-200,000	0,016	-0,099
-178,256	800,000	-0,057	-0,142
-177,242	-200,000	-0,004	-0,089
-176,227	800,000	0,023	-0,066
-175,212	-180,203	0,028	-0,000
-174,198	100,216	-0,094	-0,078
-173,183	153,824	-0,090	-0,089
-172,169	-188,215	0,105	-0,001
-171,154	800,000	0,058	0,144
-170,139	-106,705	0,041	0,007
-169,125	-132,275	0,128	0,012
-168,110	800,000	-0,080	0,212
-167,096	800,000	0,024	0,056
-166,081	232,325	0,043	-0,051
-165,066	-148,289	-0,139	0,008
-164,052	7,614	0,081	0,044
-163,037	-16,630	0,111	-0,051
-162,023	144,624	-0,063	0,061
-161,008	-103,454	-0,050	0,008
-159,993	-144,080	0,100	0,007
-158,979	-114,157	0,063	-0,009
-157,964	800,000	-0,031	-0,093
-156,950	-27,680	0,059	-0,025
-155,935	129,294	-0,064	0,059
-154,920	101,947	0,061	-0,051
-153,906	800,000	-0,056	-0,129
-152,891	86,626	-0,071	-0,056
-151,877	37,479	0,044	-0,028
-150,862	119,576	-0,080	-0,071
-149,847	-200,000	-0,007	-0,107
-148,833	-63,966	0,058	-0,017
-147,818	-200,000	0,041	0,145
-146,804	-200,000	0,021	0,163
-145,789	-129,584	-0,110	-0,011
-144,775	401,189	-0,022	-0,033
-143,760	404,405	-0,026	0,039
-142,745	-8,631	-0,058	-0,028
-141,731	-136,465	-0,098	-0,008
-140,716	-71,302	0,152	-0,041
-139,702	-54,275	0,020	-0,006
-138,687	153,431	0,098	0,096
-137,672	-4,681	0,106	-0,053
-136,658	157,244	-0,043	0,043
-135,643	56,339	-0,058	-0,040
-134,629	97,559	0,032	-0,026
-133,614	-86,634	-0,083	-0,018
-132,599	122,904	0,025	-0,023
-131,585	-193,374	0,101	-0,001
-130,570	-37,000	-0,111	0,043
-129,556	713,503	-0,079	-0,152
-128,541	-200,000	0,002	-0,114
-127,526	-68,954	0,055	-0,015
-126,512	-101,247	0,041	-0,007
-125,497	-200,000	0,010	0,096
-124,483	-200,000	-0,016	-0,168
-123,468	171,374	0,086	-0,089
-122,453	240,674	-0,120	-0,144
-121,439	19,884	0,036	-0,021
-120,424	-200,000	-0,017	-0,079
-119,410	79,406	0,101	0,078
-118,395	152,065	-0,107	0,105
-117,380	-80,776	0,072	-0,017
-116,366	26,397	-0,054	-0,032
-115,351	-78,486	-0,103	0,025
-114,337	-7,625	-0,041	-0,020
-113,322	-71,552	-0,155	0,041
-112,307	336,320	0,018	-0,025
-111,293	-73,536	0,082	-0,021
-110,278	111,388	0,047	-0,041
-109,264	-200,000	-0,005	0,084
-108,249	104,708	0,105	-0,089
-107,234	-79,873	0,100	-0,024
-106,220	115,243	-0,023	-0,020
-105,205	327,367	0,085	0,118
-104,191	-200,000	-0,007	-0,037
-103,176	136,430	0,010	-0,010
-102,162	800,000	0,060	0,173
-101,147	39,570	0,058	-0,037
-100,132	-200,000	0,026	-0,146
-99,118	224,324	-0,041	-0,047
-98,103	-56,212	-0,188	-0,060
-97,089	-0,604	-0,057	0,029
-96,074	800,000	0,036	0,097
-95,059	-200,000	0,025	-0,194
-94,045	-200,000	0,004	0,059
-93,030	-185,961	0,045	0,000
-92,016	29,271	-0,026	0,016
-91,001	800,000	0,016	-0,045
-89,986	-180,034	0,057	-0,001
-88,972	95,796	0,078	0,064
-87,957	-200,000	-0,001	0,140
-86,943	-200,000	0,002	-0,115
-85,928	-200,000	-0,004	0,058
-84,913	3,882	0,028	0,015
-83,899	-200,000	0,009	-0,107
-82,884	273,534	-0,036	0,045
-81,870	103,958	0,105	0,088
-80,855	449,120	-0,017	0,027
-79,840	638,793	-0,015	0,027
-78,826	41,489	0,068	0,044
-77,811	102,583	-0,076	-0,064
-76,797	-200,000	0,008	0,041
-75,782	495,936	-0,038	0,063
-74,767	800,000	0,074	0,170
-73,753	-76,046	0,098	-0,025
-72,738	-27,004	-0,095	-0,040
-71,724	-174,732	-0,066	0,001
-70,709	800,000	-0,093	-0,256
-69,694	19,049	0,021	0,012
-68,680	80,415	0,153	0,118
-67,665	-200,000	0,051	0,243
-66,651	157,067	-0,072	0,072
-65,636	-200,000	-0,017	0,063
-64,622	-200,000	-0,018	-0,116
-63,607	-118,848	0,051	-0,006
-62,592	218,561	0,027	-0,031
-61,578	106,809	-0,018	0,015
-60,563	-200,000	0,031	0,187
-59,549	162,769	-0,077	0,077
-58,534	22,682	-2,004	-1,174
-57,519	-200,000	-0,231	-0,890
-56,505	-200,000	-1,384	-5,026
-55,490	95,294	0,751	0,613
-54,476	800,000	5,332	11,963
-53,461	-200,000	18,772	318,120
-52,446	800,000	741,358	2334,789
-51,432	558,467	1657,200	2878,213
-50,417	111,084	1641,167	1416,926
-49,403	75,381	1291,233	975,848
-48,388	30,238	1031,741	630,052
-47,373	19,874	994,350	572,867
-46,359	17,374	982,013	557,502
-45,344	14,015	978,170	544,251
-44,330	14,348	976,510	544,398
-43,315	13,731	974,730	541,360
-42,300	13,667	973,579	540,489
-41,286	13,663	972,704	539,970
-40,271	13,742	971,761	539,684
-39,257	13,737	970,877	539,155
-38,242	13,678	970,098	538,509
-37,227	13,661	969,225	537,948
-36,213	13,622	968,205	537,231
-35,198	13,661	967,249	536,808
-34,184	13,678	966,564	536,459
-33,169	13,691	965,728	536,017
-32,154	13,660	964,733	535,343
-31,140	13,675	963,790	534,847
-30,125	13,758	962,895	534,600
-29,111	13,682	962,174	533,933
-28,096	13,674	961,652	533,594
-27,082	13,592	961,055	532,978
-26,067	13,687	960,290	532,838
-25,052	13,701	959,263	532,291
-24,038	13,653	958,872	531,900
-23,023	13,678	958,003	531,477
-22,009	13,723	957,323	531,224
-20,994	13,745	956,706	530,930
-19,979	13,630	956,120	530,213
-18,965	13,712	955,566	530,150
-17,950	13,752	954,969	529,928
-16,936	13,677	954,265	529,275
-15,921	13,566	953,782	528,628
-14,906	13,615	952,733	528,183
-13,892	13,609	952,028	527,753
-12,877	13,526	951,722	527,297
-11,863	13,540	950,863	526,843
-10,848	13,541	950,512	526,630
-9,833	13,639	950,037	526,662
-8,819	13,678	949,266	526,337
-7,804	13,663	948,412	525,795
-6,790	13,571	948,094	525,305
-5,775	13,575	947,576	525,010
-4,760	13,627	946,936	524,798
-3,746	13,584	946,372	524,328
-2,731	13,467	945,550	523,481
-1,717	13,473	944,816	523,074
-0,702	13,413	944,203	522,522
0,313	13,197	943,686	522,340
1,327	16,492	941,330	531,423
2,342	25,649	795,772	473,574
3,356	21,998	460,107	268,190
4,371	-4,932	317,105	155,955
5,386	-8,883	298,951	142,979
6,400	-10,666	292,788	138,234
7,415	-11,167	290,416	136,604
8,429	-11,363	288,861	135,667
9,444	-11,548	288,017	135,076
10,459	-11,410	287,305	134,866
11,473	-11,437	286,778	134,580
12,488	-11,352	286,224	134,391
13,502	-11,495	285,718	134,002
14,517	-11,349	285,167	133,874
15,531	-11,315	284,681	133,666
16,546	-11,442	284,433	133,416
17,561	-11,431	283,972	133,198
18,575	-11,513	283,773	133,013
19,590	-11,437	283,222	132,816
20,604	-11,213	282,761	132,804
21,619	-11,558	282,562	132,366
22,634	-11,397	282,118	132,302
23,648	-11,419	281,858	132,147
24,663	-11,409	281,599	132,023
25,677	-11,335	281,301	131,943
26,692	-11,392	281,068	131,767
27,707	-11,382	280,953	131,711
28,721	-11,586	280,473	131,279
29,736	-11,448	280,369	131,351
30,750	-11,513	280,058	131,131
31,765	-11,507	279,762	130,987
32,780	-11,452	279,490	130,900
33,794	-11,594	279,365	130,695
34,809	-11,380	278,875	130,658
35,823	-11,417	278,556	130,460
36,838	-11,488	278,492	130,352
37,853	-11,311	278,076	130,313
38,867	-11,487	278,018	130,107
39,882	-11,414	277,772	130,050
40,896	-11,560	277,656	129,846
41,911	-11,534	277,032	129,567
42,926	-11,374	276,950	129,669
43,940	-11,396	276,732	129,534
44,955	-11,556	276,550	129,286
45,969	-11,412	276,258	129,274
46,984	-11,747	276,083	128,866
47,999	-11,820	275,661	128,588
49,013	-11,838	275,467	128,469
50,028	-11,984	275,306	128,246
51,042	-12,211	274,956	127,859
52,057	-12,277	274,704	127,668
53,071	-12,107	274,398	127,674
54,086	-12,223	274,326	127,520
55,101	-11,729	274,213	127,918
56,115	-11,577	274,007	127,952
57,130	-11,513	273,958	127,978
58,144	-11,244	273,586	128,043
59,159	-11,355	273,328	127,808
60,174	-11,463	273,195	127,634
61,188	-11,388	272,957	127,581
62,203	-11,370	272,695	127,463
63,217	-11,271	272,538	127,471
64,232	-11,333	272,333	127,306
65,247	-11,147	271,841	127,237
66,261	-11,274	271,844	127,109
67,276	-11,522	271,713	126,808
68,290	-11,469	271,342	126,672
69,305	-11,679	270,861	126,243
70,320	-11,716	270,813	126,174
71,334	-11,490	270,604	126,274
72,349	-11,311	270,417	126,340
73,363	-11,234	270,177	126,288
74,378	-11,217	269,866	126,147
75,393	-11,292	269,698	125,988
76,407	-11,179	269,416	125,949
77,422	-11,380	269,425	125,757
78,436	-11,241	269,121	125,731
79,451	-11,524	269,090	125,447
80,466	-11,387	268,581	125,324
81,480	-11,442	268,326	125,143
82,495	-11,490	268,193	125,026
83,509	-11,478	268,008	124,940
84,524	-11,598	267,754	124,701
85,539	-11,571	267,446	124,571
86,553	-11,717	267,409	124,410
87,568	-11,767	267,149	124,233
88,582	-11,720	266,984	124,187
89,597	-11,626	266,817	124,184
90,611	-11,215	266,476	124,386
91,626	-11,424	266,546	124,219
92,641	-11,369	266,336	124,159
93,655	-11,241	265,820	124,023
94,670	-11,405	265,846	123,876
95,684	-11,394	265,547	123,735
96,699	-11,450	265,377	123,595
97,714	-11,449	265,192	123,499
98,728	-11,541	264,953	123,294
99,743	-11,638	264,574	123,019
100,757	-11,510	264,360	123,024
101,772	-11,428	264,261	123,040
102,787	-11,578	264,077	122,809
103,801	-11,493	263,830	122,759
104,816	-11,251	263,633	122,873
105,830	-11,404	263,700	122,757
106,845	-11,355	263,453	122,675
107,860	-11,395	263,195	122,508
108,874	-11,328	263,048	122,488
109,889	-11,457	262,809	122,251
110,903	-11,355	262,601	122,234
111,918	-11,651	262,531	121,927
112,933	-11,296	262,201	122,079
113,947	-11,185	261,942	122,046
114,962	-11,184	261,844	121,990
115,976	-11,428	261,598	121,648
116,991	-11,458	261,548	121,588
118,006	-11,262	261,159	121,569
119,020	-11,294	261,057	121,483
120,035	-11,359	260,921	121,351
121,049	-11,337	260,773	121,290
122,064	-11,318	260,563	121,199
123,079	-11,234	260,408	121,190
124,093	-11,470	260,225	120,886
125,108	-11,539	259,870	120,650
126,122	-11,705	259,532	120,336
127,137	-11,822	259,486	120,201
128,151	-11,617	259,305	120,286
129,166	-11,549	259,074	120,229
130,181	-11,727	258,900	119,981
131,195	-11,782	258,614	119,790
132,210	-11,553	258,551	119,950
133,224	-11,301	258,354	120,069
134,239	-11,363	258,168	119,917
135,254	-11,351	258,089	119,880
136,268	-11,451	257,662	119,584
137,283	-11,658	257,402	119,272
138,297	-11,718	257,216	119,123
139,312	-11,900	257,060	118,882
140,327	-11,597	256,890	119,056
141,341	-11,337	256,741	119,203
142,356	-11,252	256,677	119,236
143,370	-11,154	256,348	119,157
144,385	-11,125	256,268	119,135
145,400	-11,053	256,024	119,073
146,414	-11,154	255,892	118,913
147,429	-11,174	255,725	118,808
148,443	-11,092	255,563	118,793
149,458	-11,000	255,408	118,790
150,473	-11,217	255,154	118,474
151,487	-11,296	255,102	118,371
152,502	-11,089	254,811	118,404
153,516	-11,088	254,587	118,290
154,531	-11,161	254,384	118,122
155,546	-11,233	254,255	117,990
156,560	-11,113	254,055	117,990
157,575	-11,174	253,827	117,821
158,589	-11,287	253,712	117,661
159,604	-11,091	253,424	117,684
160,619	-11,258	253,388	117,514
161,633	-11,254	253,089	117,368
162,648	-11,284	252,965	117,274
163,662	-10,931	252,769	117,475
164,677	-11,114	252,759	117,303
165,692	-11,006	252,385	117,211
166,706	-11,273	252,275	116,922
167,721	-11,147	252,054	116,917
168,735	-11,092	251,938	116,900
169,750	-11,147	251,945	116,845
170,764	-11,203	251,740	116,693
171,779	-11,090	251,499	116,666
172,794	-11,034	251,406	116,659
173,808	-11,052	251,148	116,515
174,823	-11,534	250,841	115,954
175,837	-11,744	250,609	115,659
176,852	-11,361	250,647	115,990
177,867	-11,102	250,524	116,141
178,881	-11,145	250,415	116,044
179,896	-11,044	250,102	115,974
180,910	-11,120	249,949	115,829
181,925	-10,931	249,669	115,847
182,940	-11,285	249,680	115,545
183,954	-11,148	249,407	115,523
184,969	-11,277	249,431	115,415
185,983	-11,254	249,031	115,239
186,998	-10,975	248,872	115,390
188,013	-10,859	248,699	115,396
189,027	-11,062	248,573	115,158
190,042	-11,143	248,420	115,009
191,056	-11,233	248,238	114,838
192,071	-10,989	248,061	114,951
193,086	-11,082	247,818	114,750
194,100	-11,178	247,691	114,601
195,115	-11,035	247,400	114,575
196,129	-11,235	247,322	114,362
197,144	-11,091	247,128	114,382
198,159	-11,131	246,934	114,249
199,173	-11,063	246,669	114,172
200,188	-11,048	246,639	114,160
201,202	-11,408	246,354	113,720
202,217	-11,570	245,980	113,404
203,232	-11,689	245,844	113,232
204,246	-11,305	245,849	113,542
205,261	-10,867	245,814	113,878
206,275	-11,937	245,353	112,771
207,290	-7,962	246,938	116,788
208,304	0,285	249,692	124,977
209,319	4,361	250,689	128,875
210,334	4,786	250,659	129,203
211,348	5,095	250,585	129,411
212,363	5,139	250,534	129,410
213,377	5,324	250,493	129,531
214,392	5,173	250,107	129,195
215,407	5,151	249,926	129,072
216,421	5,064	249,846	128,946
217,436	5,179	249,691	128,950
218,450	5,236	249,751	129,017
219,465	5,106	249,275	128,652
220,480	4,814	248,945	128,228
221,494	4,793	249,010	128,233
222,509	4,853	248,692	128,107
223,523	4,771	248,420	127,888
224,538	4,592	248,251	127,642
225,553	4,567	248,180	127,574
226,567	4,674	247,986	127,550
227,582	4,864	247,815	127,608
228,596	4,694	247,599	127,345
229,611	4,459	247,495	127,087
230,626	4,390	247,099	126,816
231,640	4,375	247,113	126,799
232,655	4,580	246,916	126,855
233,669	4,339	246,758	126,565
234,684	4,112	246,739	126,358
235,699	4,700	246,542	126,727
236,713	4,824	246,480	126,786
237,728	4,417	246,178	126,286
238,742	4,269	245,995	126,060
239,757	4,391	245,730	126,013
240,772	4,336	245,534	125,856
241,786	4,418	245,539	125,914
242,801	4,249	245,280	125,632
243,815	4,210	245,342	125,621
244,830	4,783	245,022	125,912
245,844	4,487	245,113	125,707
246,859	4,303	244,673	125,320
247,874	4,399	244,545	125,322
248,888	4,465	244,533	125,358
249,903	4,505	244,358	125,289
250,917	4,577	244,227	125,270
251,932	4,991	244,040	125,498
252,947	4,816	243,859	125,252
253,961	4,600	243,541	124,903
254,976	4,567	243,622	124,907
255,990	4,788	243,394	124,957
257,005	4,334	243,234	124,498
258,020	4,223	243,116	124,337
259,034	4,458	242,792	124,349
260,049	4,548	242,723	124,375
261,063	4,173	242,564	123,981
262,078	4,210	242,400	123,916
263,093	4,702	242,152	124,173
264,107	4,935	242,123	124,334
265,122	4,513	241,815	123,827
266,136	4,614	241,911	123,946
267,151	4,631	241,825	123,904
268,166	4,371	241,442	123,489
269,180	4,175	241,285	123,241
270,195	4,875	241,387	123,841
271,209	5,147	241,281	123,994
272,224	4,538	240,837	123,269
273,239	4,122	240,629	122,819
274,253	4,420	240,513	122,986
275,268	4,593	240,440	123,077
276,282	4,593	240,138	122,911
277,297	4,314	239,995	122,605
278,312	4,437	239,948	122,667
279,326	4,421	239,873	122,605
280,341	4,451	239,810	122,587
281,355	4,549	239,686	122,589
282,370	4,807	239,405	122,639
283,384	4,590	239,153	122,328
284,399	4,418	238,983	122,094
285,414	4,157	238,775	121,770
286,428	4,398	238,704	121,914
287,443	4,305	238,677	121,815
288,457	4,550	238,519	121,917
289,472	4,644	238,299	121,868
290,487	4,541	238,121	121,685
291,501	4,444	237,895	121,482
292,516	4,427	237,647	121,331
293,530	4,265	237,531	121,134
294,545	4,494	237,501	121,288
295,560	4,536	237,406	121,262
296,574	4,377	237,123	120,982
297,589	4,381	236,969	120,896
298,603	4,699	237,001	121,150
299,618	4,801	236,684	121,057
300,633	4,724	236,612	120,949
301,647	4,948	236,582	121,098
302,662	5,135	236,648	121,267
303,676	5,180	236,229	121,077
304,691	4,578	236,173	120,568
305,706	5,051	236,011	120,843
306,720	4,908	235,740	120,582
307,735	4,733	235,593	120,360
308,749	4,610	235,448	120,180
309,764	4,407	235,241	119,905
310,779	4,477	235,012	119,832
311,793	4,071	234,895	119,447
312,808	4,312	234,481	119,413
313,822	4,174	234,435	119,271
314,837	4,170	234,322	119,201
315,852	3,848	234,277	118,918
316,866	4,306	234,114	119,179
317,881	4,845	234,131	119,593
318,895	4,975	234,062	119,648
319,910	5,052	233,915	119,621
320,925	4,389	233,639	118,958
321,939	4,214	233,276	118,629
322,954	4,408	233,470	118,866
323,968	4,390	233,227	118,718
324,983	4,471	233,137	118,723
325,997	4,877	233,104	119,008
327,012	4,920	232,771	118,861
328,027	4,502	232,684	118,485
329,041	4,824	232,567	118,662
330,056	5,259	232,520	118,960
331,070	5,280	232,459	118,935
332,085	4,906	232,193	118,502
333,100	4,763	231,968	118,267
334,114	4,825	231,692	118,163
335,129	4,997	231,616	118,245
336,143	4,931	231,599	118,175
337,158	4,766	231,533	118,006
338,173	4,565	231,265	117,706
339,187	4,420	231,073	117,487
340,202	4,623	230,894	117,539
341,216	4,624	230,732	117,447
342,231	4,574	230,491	117,276
343,246	4,470	230,395	117,138
344,260	4,611	230,293	117,183
345,275	4,950	230,288	117,426
346,289	4,872	230,106	117,265
347,304	4,607	230,068	117,034
348,319	4,939	229,792	117,134
349,333	4,491	229,704	116,740
350,348	4,393	229,363	116,483
351,362	4,793	229,258	116,720
352,377	4,538	229,026	116,399
353,392	4,149	229,043	116,105
354,406	4,297	228,896	116,132
355,421	195,074	1319,122	1392,951
356,435	156,450	1451,902	1392,904
