DTS Sentinel unit serial number:	SN410029Multiplexer serial number:	ORYXHardware model number:	OX2-SRSoftware version number:	ORYX F/W v4,00 Oryx Data Collector v3.7.2.0data status	okinstallation	B5 Nyhavnadifferential loss correction	single-endedforward channel	channel 2reverse channel	N/Adate	2023/12/12time	01:27:13forward acquisition time	300,00reverse acquisition time	0,00gamma	499,1914k internal	0,3156k external	0,3156temperature offset calibration	1,0000default loss term (dB/km)	0,3820temperature slope calibration	1,0000multiplexer offset coefficient	1,0000multiplexer slope coefficient	1,0000fibre end	0,00T internal ref (°C)	15,93T ext. ref 1 (°C)	-0,47T ext. ref 2 (°C)	-0,76length (m)	temperature (°C)	Stokes	anti-Stokes-744,400	551,977	0,064	0,113
-743,385	-45,304	-0,302	0,110
-742,371	-50,704	0,068	0,023
-741,356	-100,380	-0,312	0,056
-740,342	-43,818	0,147	0,054
-739,327	-150,021	-0,251	0,014
-738,312	-200,000	0,009	-0,157
-737,298	-115,123	-0,272	0,038
-736,283	-127,295	0,065	-0,007
-735,269	-21,859	-0,197	0,088
-734,254	-200,000	0,006	0,066
-733,239	-13,361	-0,411	-0,196
-732,225	15,648	0,180	0,104
-731,210	-200,000	0,023	0,108
-730,196	218,214	-0,030	-0,035
-729,181	53,028	-0,132	-0,093
-728,167	148,218	-0,085	0,085
-727,152	58,387	0,070	0,051
-726,137	-41,206	-0,149	-0,056
-725,123	800,000	-0,018	-0,042
-724,108	-200,000	-0,024	-0,088
-723,094	174,425	-0,114	-0,122
-722,079	409,208	0,075	-0,117
-721,064	382,858	0,048	-0,073
-720,050	-185,764	-0,035	0,000
-719,035	-76,734	0,070	0,018
-718,021	-49,953	-0,064	0,022
-717,006	800,000	0,018	-0,056
-715,991	-84,901	-0,159	-0,036
-714,977	-168,533	0,085	-0,002
-713,962	61,747	0,089	-0,065
-712,948	-117,718	-0,135	0,018
-711,933	141,005	0,078	-0,076
-710,918	44,225	0,129	0,087
-709,904	-123,830	-0,077	0,009
-708,889	-200,000	-0,021	-0,143
-707,875	295,096	0,056	-0,076
-706,860	676,675	-0,040	-0,077
-705,845	11,782	-0,050	0,028
-704,831	535,902	0,025	-0,044
-703,816	-200,000	0,002	-0,012
-702,802	-118,734	-0,193	-0,025
-701,787	-200,000	-0,020	-0,072
-700,772	361,285	0,019	-0,028
-699,758	188,980	0,020	0,022
-698,743	-49,425	0,207	0,072
-697,729	0,540	-0,044	0,023
-696,714	14,334	-0,046	-0,026
-695,699	800,000	-0,047	-0,097
-694,685	632,829	-0,024	-0,046
-693,670	134,005	0,017	0,017
-692,656	41,207	0,020	-0,013
-691,641	800,000	-0,027	-0,056
-690,627	223,725	0,087	-0,104
-689,612	29,373	0,127	-0,079
-688,597	-200,000	0,019	-0,064
-687,583	-55,763	-0,082	-0,027
-686,568	-88,805	0,074	0,016
-685,554	61,176	-0,056	0,041
-684,539	332,434	0,100	0,142
-683,524	-11,713	0,075	-0,036
-682,510	-200,000	-0,001	0,032
-681,495	-200,000	0,056	0,183
-680,481	-15,763	-0,087	0,040
-679,466	-200,000	-0,009	-0,044
-678,451	37,470	0,106	-0,069
-677,437	30,236	-0,085	-0,053
-676,422	-200,000	0,021	-0,126
-675,408	-77,227	0,052	0,013
-674,393	276,483	0,074	0,097
-673,378	23,000	-0,128	-0,077
-672,364	312,703	0,038	-0,053
-671,349	206,057	-0,091	-0,105
-670,335	800,000	-0,025	-0,060
-669,320	145,893	0,093	0,092
-668,305	179,954	-0,077	0,083
-667,291	190,323	0,034	-0,038
-666,276	-200,000	-0,005	-0,080
-665,262	800,000	-0,025	-0,051
-664,247	-29,812	0,151	0,063
-663,232	52,513	-0,165	0,116
-662,218	286,710	0,040	0,053
-661,203	-200,000	-0,004	0,035
-660,189	-41,061	-0,084	0,032
-659,174	442,341	0,054	-0,087
-658,159	546,558	0,058	-0,102
-657,145	-159,948	-0,026	0,001
-656,130	-32,204	-0,078	0,032
-655,116	361,406	0,026	-0,039
-654,101	41,576	-0,026	0,017
-653,086	129,093	-0,106	0,099
-652,072	800,000	-0,040	-0,120
-651,057	-139,860	0,074	-0,006
-650,043	63,574	-0,048	-0,035
-649,028	800,000	-0,030	-0,079
-648,014	-45,456	0,050	-0,018
-646,999	-6,837	-0,028	0,014
-645,984	186,366	0,085	0,093
-644,970	800,000	-0,074	0,173
-643,955	800,000	0,013	0,033
-642,941	800,000	-0,002	0,005
-641,926	-90,320	0,055	0,012
-640,911	-96,003	0,071	0,014
-639,897	25,987	-0,040	-0,025
-638,882	800,000	-0,011	0,035
-637,868	-91,203	0,080	-0,017
-636,853	800,000	-0,031	0,065
-635,838	-200,000	0,011	0,053
-634,824	-46,494	-0,078	0,028
-633,809	800,000	0,063	0,145
-632,795	79,025	0,168	0,132
-631,780	-200,000	0,015	0,090
-630,765	-200,000	-0,005	0,085
-629,751	321,441	-0,031	-0,043
-628,736	-100,569	0,010	-0,002
-627,722	-123,046	-0,024	0,003
-626,707	111,468	0,120	-0,106
-625,692	-200,000	0,031	0,102
-624,678	-110,639	-0,058	-0,009
-623,663	-200,000	-0,007	0,034
-622,649	77,130	0,063	-0,049
-621,634	-102,271	-0,130	-0,023
-620,619	-129,225	-0,098	-0,010
-619,605	-200,000	0,022	0,082
-618,590	99,631	-0,083	-0,070
-617,576	-152,194	-0,109	-0,006
-616,561	800,000	-0,033	0,077
-615,546	-125,022	-0,059	-0,007
-614,532	53,667	-0,099	-0,070
-613,517	331,292	-0,056	-0,079
-612,503	125,632	0,104	0,096
-611,488	800,000	0,036	-0,094
-610,474	-200,000	0,006	-0,044
-609,459	75,468	0,079	-0,061
-608,444	-128,271	-0,136	0,014
-607,430	800,000	-0,023	0,067
-606,415	270,691	-0,073	0,095
-605,401	13,940	-0,070	0,040
-604,386	47,644	0,103	-0,070
-603,371	-41,598	0,082	-0,031
-602,357	-200,000	-0,014	0,115
-601,342	800,000	0,024	-0,059
-600,328	-200,000	-0,001	-0,107
-599,313	800,000	-0,040	0,082
-598,298	-138,273	0,141	-0,011
-597,284	800,000	0,031	-0,066
-596,269	800,000	0,009	-0,021
-595,255	-200,000	-0,010	-0,126
-594,240	-128,960	-0,043	-0,004
-593,225	565,389	0,053	0,095
-592,211	-200,000	0,002	-0,117
-591,196	-129,317	0,155	-0,016
-590,182	-200,000	-0,006	0,063
-589,167	-107,685	0,117	-0,019
-588,152	-200,000	-0,010	-0,058
-587,138	317,671	-0,047	-0,065
-586,123	-200,000	0,001	-0,234
-585,109	-6,847	-0,090	-0,045
-584,094	-132,710	0,065	-0,006
-583,079	40,807	0,121	-0,080
-582,065	191,366	-0,088	0,097
-581,050	-70,909	-0,075	0,020
-580,036	-107,437	-0,050	-0,008
-579,021	71,637	-0,034	-0,026
-578,006	35,623	-0,063	-0,041
-576,992	284,816	0,042	0,056
-575,977	66,427	0,035	0,026
-574,963	800,000	-0,013	-0,031
-573,948	-79,017	0,020	0,005
-572,934	108,574	-0,034	0,030
-571,919	-200,000	-0,005	-0,031
-570,904	-200,000	-0,013	0,073
-569,890	26,264	0,147	0,090
-568,875	800,000	0,075	0,162
-567,861	234,218	-0,098	0,119
-566,846	367,518	-0,077	-0,114
-565,831	800,000	0,013	0,040
-564,817	354,951	-0,029	-0,042
-563,802	456,434	-0,051	-0,083
-562,788	68,394	0,076	-0,057
-561,773	10,286	-0,102	0,057
-560,758	73,715	0,147	-0,113
-559,744	-200,000	0,020	-0,073
-558,729	-200,000	0,012	0,084
-557,715	-200,000	0,004	0,062
-556,700	-22,025	-0,020	0,009
-555,685	-200,000	0,007	-0,203
-554,671	254,959	0,060	0,075
-553,656	-200,000	0,019	0,129
-552,642	507,821	-0,049	0,083
-551,627	-133,793	-0,107	0,010
-550,612	800,000	0,028	-0,073
-549,598	378,703	-0,036	-0,054
-548,583	-200,000	0,014	-0,122
-547,569	-88,028	-0,057	-0,012
-546,554	800,000	-0,045	0,098
-545,539	148,479	-0,055	0,055
-544,525	86,629	0,097	0,078
-543,510	253,831	0,012	-0,015
-542,496	725,273	-0,039	-0,077
-541,481	31,493	-0,107	-0,067
-540,466	-200,000	0,006	-0,127
-539,452	-200,000	0,023	0,119
-538,437	62,412	-0,119	0,087
-537,423	800,000	-0,050	0,117
-536,408	-19,143	-0,050	-0,023
-535,393	800,000	-0,059	-0,188
-534,379	663,310	0,075	-0,143
-533,364	271,638	0,048	0,062
-532,350	-85,184	-0,029	-0,007
-531,335	467,500	0,062	-0,102
-530,321	628,930	0,003	0,006
-529,306	800,000	-0,054	0,110
-528,291	-71,901	-0,073	0,020
-527,277	-19,582	-0,186	0,084
-526,262	48,279	0,073	-0,050
-525,248	435,359	-0,056	-0,089
-524,233	102,284	0,164	0,140
-523,218	80,442	-0,044	-0,035
-522,204	-39,065	-0,051	0,020
-521,189	103,705	-0,068	0,059
-520,175	-32,196	-0,069	-0,028
-519,160	86,821	-0,053	-0,043
-518,145	165,451	-0,098	0,101
-517,131	-158,926	0,057	0,002
-516,116	189,255	0,018	0,020
-515,102	-125,022	0,136	-0,015
-514,087	62,377	0,032	-0,023
-513,072	800,000	0,047	-0,136
-512,058	121,946	-0,060	-0,054
-511,043	-200,000	0,011	0,077
-510,029	800,000	-0,067	-0,162
-509,014	-153,165	0,072	-0,004
-507,999	-200,000	-0,005	0,081
-506,985	-97,137	0,071	-0,013
-505,970	597,803	-0,009	-0,017
-504,956	197,322	-0,060	0,067
-503,941	613,295	-0,040	0,073
-502,926	148,606	0,110	0,109
-501,912	-200,000	-0,001	0,084
-500,897	-163,064	0,048	0,002
-499,883	-114,677	-0,005	0,001
-498,868	-8,852	0,013	-0,006
-497,853	800,000	-0,064	-0,152
-496,839	36,621	-0,032	-0,021
-495,824	800,000	0,022	0,065
-494,810	-200,000	0,020	-0,133
-493,795	255,817	-0,058	0,073
-492,781	-200,000	-0,005	0,056
-491,766	-43,592	-0,146	0,053
-490,751	-45,928	0,048	0,017
-489,737	60,447	-0,095	-0,069
-488,722	-200,000	0,004	-0,055
-487,708	800,000	-0,037	0,095
-486,693	-200,000	-0,015	-0,086
-485,678	521,556	0,102	0,175
-484,664	258,622	0,028	-0,035
-483,649	800,000	0,023	0,051
-482,635	-133,933	0,051	-0,005
-481,620	-200,000	0,004	0,168
-480,605	-55,278	0,086	-0,028
-479,591	3,714	0,069	-0,036
-478,576	-41,134	0,180	-0,067
-477,562	154,870	-0,121	-0,122
-476,547	25,055	0,099	-0,060
-475,532	-56,771	-0,059	0,019
-474,518	38,363	-0,024	0,015
-473,503	107,639	0,066	-0,057
-472,489	800,000	-0,009	-0,022
-471,474	352,699	0,033	-0,048
-470,459	-200,000	-0,012	-0,063
-469,445	485,246	0,102	0,170
-468,430	800,000	-0,035	0,075
-467,416	48,129	0,052	0,035
-466,401	114,277	-0,071	0,063
-465,386	337,470	0,081	0,116
-464,372	210,282	-0,092	-0,106
-463,357	-200,000	-0,039	-0,149
-462,343	-200,000	-0,029	-0,140
-461,328	109,008	-0,150	-0,131
-460,313	437,815	0,109	-0,174
-459,299	-20,930	0,038	0,017
-458,284	56,928	0,022	0,016
-457,270	-64,881	-0,092	-0,027
-456,255	-200,000	0,041	-0,184
-455,241	38,061	-0,025	-0,016
-454,226	-23,653	-0,065	0,028
-453,211	-200,000	0,005	-0,105
-452,197	-84,287	0,063	-0,014
-451,182	381,083	0,088	0,132
-450,168	-62,788	-0,017	-0,005
-449,153	-140,037	0,093	0,007
-448,138	-200,000	-0,002	-0,041
-447,124	-200,000	-0,012	-0,074
-446,109	-200,000	-0,044	0,183
-445,095	-200,000	0,043	0,161
-444,080	-166,451	-0,056	-0,002
-443,065	800,000	-0,016	-0,040
-442,051	-166,140	0,137	0,004
-441,036	-200,000	-0,007	0,047
-440,022	12,016	-0,109	0,061
-439,007	-140,077	0,029	0,002
-437,992	320,763	-0,074	0,102
-436,978	-124,616	0,111	0,012
-435,963	13,340	0,132	0,074
-434,949	-28,231	0,072	0,030
-433,934	-136,460	-0,114	0,010
-432,919	800,000	-0,003	0,008
-431,905	-106,334	0,020	-0,003
-430,890	300,328	0,094	0,127
-429,876	-200,000	-0,010	0,108
-428,861	241,730	-0,049	0,059
-427,846	446,677	-0,044	-0,072
-426,832	167,493	-0,151	-0,157
-425,817	353,182	-0,044	-0,064
-424,803	112,184	-0,109	-0,096
-423,788	46,767	0,095	-0,064
-422,773	800,000	0,018	0,046
-421,759	18,116	0,007	0,004
-420,744	800,000	0,029	-0,089
-419,730	-112,633	-0,149	-0,021
-418,715	441,280	-0,051	-0,082
-417,701	-119,815	0,082	0,010
-416,686	6,866	0,084	0,046
-415,671	-85,836	-0,074	-0,017
-414,657	800,000	-0,009	0,020
-413,642	400,491	-0,060	0,092
-412,628	800,000	0,021	0,045
-411,613	12,534	-0,083	-0,046
-410,598	800,000	-0,021	0,067
-409,584	69,538	0,053	0,039
-408,569	691,634	0,079	0,151
-407,555	-103,859	0,073	-0,012
-406,540	-52,899	0,033	0,011
-405,525	800,000	0,052	0,111
-404,511	-6,771	-0,054	-0,027
-403,496	-70,306	-0,119	0,033
-402,482	557,112	-0,053	0,094
-401,467	-110,656	0,150	0,022
-400,452	215,842	0,053	0,061
-399,438	46,666	0,115	0,078
-398,423	-85,072	-0,164	-0,037
-397,409	-32,057	-0,052	-0,021
-396,394	20,976	0,011	-0,006
-395,379	-76,886	-0,130	-0,033
-394,365	151,562	0,066	-0,066
-393,350	-38,321	-0,124	-0,048
-392,336	60,481	0,066	-0,047
-391,321	608,742	0,085	-0,156
-390,306	19,085	-0,199	-0,116
-389,292	176,895	0,045	-0,047
-388,277	708,586	-0,057	0,110
-387,263	41,060	-0,032	-0,021
-386,248	-99,857	0,125	0,022
-385,233	61,400	0,073	0,053
-384,219	800,000	-0,034	-0,075
-383,204	-200,000	-0,021	-0,074
-382,190	-200,000	-0,006	0,038
-381,175	70,468	0,073	0,055
-380,160	-200,000	0,007	-0,022
-379,146	72,706	0,090	0,068
-378,131	17,155	-0,114	-0,065
-377,117	800,000	-0,031	-0,090
-376,102	276,715	0,061	-0,079
-375,088	39,587	-0,071	0,046
-374,073	-200,000	-0,049	0,188
-373,058	25,303	0,068	0,041
-372,044	-200,000	0,002	-0,025
-371,029	481,422	0,032	0,054
-370,015	-200,000	0,011	0,041
-369,000	800,000	0,007	0,020
-367,985	708,752	-0,058	-0,112
-366,971	-200,000	-0,015	-0,169
-365,956	50,252	0,081	-0,056
-364,942	-126,670	0,093	0,010
-363,927	0,730	0,060	0,031
-362,912	-24,947	0,090	-0,039
-361,898	303,077	-0,038	-0,051
-360,883	800,000	0,031	0,077
-359,869	-71,440	0,047	0,013
-358,854	346,737	-0,069	0,099
-357,839	189,440	-0,015	-0,016
-356,825	12,064	-0,027	0,015
-355,810	-83,423	0,149	-0,034
-354,796	51,797	-0,088	-0,061
-353,781	291,188	-0,022	-0,029
-352,766	-5,211	-0,024	-0,012
-351,752	-200,000	0,009	0,070
-350,737	-157,259	0,084	0,004
-349,723	202,735	0,096	-0,108
-348,708	800,000	0,033	-0,105
-347,693	237,817	-0,095	-0,115
-346,679	800,000	0,023	-0,058
-345,664	800,000	0,063	0,127
-344,650	37,623	0,055	0,035
-343,635	800,000	0,019	0,045
-342,620	-80,717	0,008	0,002
-341,606	-74,464	-0,057	-0,015
-340,591	29,470	-0,079	-0,049
-339,577	800,000	-0,023	-0,069
-338,562	152,632	-0,022	-0,022
-337,548	800,000	0,064	0,183
-336,533	372,584	-0,043	0,063
-335,518	562,132	0,017	-0,030
-334,504	800,000	0,015	0,038
-333,489	-45,488	-0,036	-0,013
-332,475	488,638	0,049	0,082
-331,460	49,284	-0,112	-0,076
-330,445	-74,740	0,052	0,013
-329,431	800,000	0,050	0,109
-328,416	-200,000	0,012	0,044
-327,402	8,888	-0,045	0,025
-326,387	69,032	-0,081	-0,060
-325,372	356,337	-0,058	-0,084
-324,358	-200,000	-0,003	-0,113
-323,343	302,460	-0,063	0,085
-322,329	121,605	-0,025	-0,023
-321,314	-2,252	0,027	-0,014
-320,299	53,474	-0,103	0,071
-319,285	-70,239	0,134	0,037
-318,270	160,945	0,057	-0,058
-317,256	-200,000	0,015	-0,079
-316,241	-24,244	0,067	-0,029
-315,226	800,000	-0,028	-0,068
-314,212	-12,458	0,083	0,039
-313,197	800,000	0,066	0,200
-312,183	698,175	0,032	-0,062
-311,168	-82,878	-0,099	-0,023
-310,153	52,542	-0,117	-0,081
-309,139	-200,000	0,025	-0,133
-308,124	-75,636	0,076	-0,019
-307,110	91,380	0,128	-0,104
-306,095	-62,507	0,098	0,029
-305,080	186,584	-0,082	0,088
-304,066	267,098	0,015	0,019
-303,051	-111,413	0,016	-0,002
-302,037	-147,290	0,067	0,004
-301,022	-5,628	0,107	-0,053
-300,008	120,148	-0,030	-0,027
-298,993	228,088	-0,022	-0,026
-297,978	800,000	0,014	0,036
-296,964	-61,177	0,105	-0,032
-295,949	-11,098	-0,068	-0,033
-294,935	-200,000	-0,003	0,010
-293,920	-159,371	-0,058	-0,002
-292,905	-200,000	0,001	0,026
-291,891	129,697	-0,047	0,043
-290,876	-150,096	0,107	-0,006
-289,862	-200,000	0,012	0,081
-288,847	229,740	-0,064	-0,076
-287,832	-200,000	-0,042	-0,150
-286,818	800,000	-0,017	0,046
-285,803	-14,160	0,047	0,022
-284,789	-76,691	0,148	-0,037
-283,774	442,608	0,064	0,102
-282,759	-167,418	-0,054	0,002
-281,745	446,929	0,046	-0,073
-280,730	-200,000	-0,045	-0,161
-279,716	163,804	0,030	-0,030
-278,701	7,730	-0,081	0,044
-277,686	-34,559	0,046	-0,018
-276,672	-140,146	0,054	0,004
-275,657	-91,344	-0,148	0,030
-274,643	-200,000	0,035	-0,131
-273,628	-153,436	-0,134	0,007
-272,613	788,169	0,041	-0,082
-271,599	-111,282	-0,034	-0,005
-270,584	800,000	0,023	0,051
-269,570	477,286	0,082	0,135
-268,555	-146,339	-0,016	0,001
-267,540	-108,953	-0,218	-0,033
-266,526	-200,000	-0,001	-0,043
-265,511	-74,803	-0,060	0,015
-264,497	800,000	0,024	0,058
-263,482	183,381	0,069	0,074
-262,467	-151,698	0,174	0,009
-261,453	-36,539	-0,221	-0,086
-260,438	436,442	-0,054	-0,086
-259,424	140,152	-0,035	-0,033
-258,409	-52,125	-0,091	0,030
-257,395	54,278	0,112	0,078
-256,380	-133,624	-0,141	0,013
-255,365	-200,000	0,017	0,064
-254,351	490,274	0,041	-0,068
-253,336	-17,416	0,065	-0,030
-252,322	800,000	-0,030	-0,064
-251,307	-121,591	-0,136	-0,016
-250,292	16,433	0,098	-0,056
-249,278	48,700	0,097	-0,066
-248,263	-200,000	-0,014	0,121
-247,249	-200,000	0,028	0,157
-246,234	-84,570	-0,023	0,005
-245,219	-200,000	-0,016	-0,093
-244,205	-200,000	0,019	0,062
-243,190	800,000	-0,023	-0,053
-242,176	67,147	-0,033	0,024
-241,161	-123,999	0,116	0,013
-240,146	405,536	0,048	-0,074
-239,132	-29,869	-0,066	-0,027
-238,117	155,308	-0,116	-0,116
-237,103	800,000	0,032	-0,086
-236,088	257,351	0,041	-0,051
-235,073	103,777	-0,015	0,013
-234,059	64,412	-0,098	0,072
-233,044	277,662	0,075	0,096
-232,030	-200,000	-0,022	-0,071
-231,015	-165,973	-0,102	0,003
-230,000	304,781	0,013	0,017
-228,986	800,000	-0,037	-0,101
-227,971	-105,235	0,071	0,012
-226,957	285,817	0,050	-0,066
-225,942	170,080	-0,061	-0,063
-224,927	-98,154	-0,047	0,009
-223,913	-200,000	0,005	-0,113
-222,898	-172,360	-0,117	-0,003
-221,884	-16,758	0,146	-0,066
-220,869	-99,142	-0,114	0,021
-219,855	300,372	0,018	0,024
-218,840	36,152	0,084	0,054
-217,825	96,572	-0,077	0,064
-216,811	-14,655	-0,120	-0,055
-215,796	-200,000	-0,004	-0,069
-214,782	-85,510	0,048	0,011
-213,767	61,325	0,083	0,060
-212,752	-200,000	0,056	0,295
-211,738	-200,000	-0,025	0,193
-210,723	428,986	0,049	0,076
-209,709	595,723	-0,056	0,100
-208,694	-88,355	-0,061	-0,013
-207,679	1,599	-0,069	-0,036
-206,665	800,000	-0,063	0,154
-205,650	223,755	-0,054	-0,063
-204,636	-165,175	0,209	0,007
-203,621	-200,000	-0,012	0,069
-202,606	204,459	0,097	-0,108
-201,592	107,095	-0,107	-0,092
-200,577	-11,070	-0,094	0,045
-199,563	-200,000	0,004	-0,014
-198,548	-48,162	0,061	0,021
-197,533	-101,404	-0,062	-0,011
-196,519	451,194	0,004	-0,007
-195,504	-82,841	0,010	0,002
-194,490	-200,000	-0,013	-0,181
-193,475	229,351	0,054	0,063
-192,460	640,127	-0,088	0,163
-191,446	250,313	0,008	-0,009
-190,431	-130,583	-0,035	-0,003
-189,417	-138,255	-0,026	-0,002
-188,402	-200,000	-0,019	-0,082
-187,387	-93,143	-0,009	-0,002
-186,373	308,567	-0,023	0,031
-185,358	-69,370	0,030	0,008
-184,344	107,518	0,137	0,118
-183,329	-200,000	-0,003	-0,055
-182,315	430,384	-0,062	0,097
-181,300	-200,000	-0,018	-0,066
-180,285	800,000	-0,037	-0,094
-179,271	-200,000	0,008	0,091
-178,256	-45,525	-0,139	-0,050
-177,242	-200,000	-0,028	-0,211
-176,227	-82,037	0,197	-0,046
-175,212	577,261	0,060	0,106
-174,198	-41,133	0,043	-0,016
-173,183	-122,236	-0,042	0,005
-172,169	-76,652	0,080	-0,020
-171,154	-200,000	0,002	0,009
-170,139	44,077	0,113	0,075
-169,125	-94,777	0,091	0,018
-168,110	87,938	0,060	0,048
-167,096	800,000	-0,068	0,201
-166,081	-200,000	-0,007	-0,081
-165,066	215,333	-0,091	-0,104
-164,052	211,984	0,098	0,112
-163,037	-200,000	0,008	-0,038
-162,023	198,721	0,071	-0,079
-161,008	-22,467	-0,056	-0,024
-159,993	800,000	-0,003	0,009
-158,979	-200,000	-0,003	0,027
-157,964	51,261	-0,079	0,054
-156,950	-122,788	0,056	0,006
-155,935	28,959	0,083	0,050
-154,920	800,000	-0,045	0,105
-153,906	-200,000	0,008	0,032
-152,891	-62,796	-0,076	0,022
-151,877	176,495	-0,032	0,034
-150,862	-3,367	-0,096	0,048
-149,847	15,397	-0,138	-0,078
-148,833	-200,000	-0,005	-0,020
-147,818	800,000	0,046	0,093
-146,804	-94,346	-0,019	-0,004
-145,789	143,159	0,088	0,085
-144,775	487,703	0,065	-0,108
-143,760	156,076	-0,106	0,105
-142,745	800,000	-0,027	-0,061
-141,731	-200,000	0,020	0,071
-140,716	435,592	-0,091	0,144
-139,702	420,786	0,076	0,117
-138,687	800,000	0,026	-0,079
-137,672	340,290	0,054	-0,076
-136,658	428,908	-0,096	-0,150
-135,643	3,438	-0,077	0,040
-134,629	800,000	0,066	0,133
-133,614	-10,778	-0,053	-0,025
-132,599	-16,880	-0,134	0,061
-131,585	163,249	-0,079	-0,080
-130,570	619,713	0,058	0,105
-129,556	58,741	0,083	0,058
-128,541	-100,302	-0,096	0,017
-127,526	-130,961	0,177	0,017
-126,512	-200,000	0,005	0,033
-125,497	-200,000	0,003	-0,066
-124,483	-31,018	-0,041	-0,016
-123,468	199,221	-0,083	0,092
-122,453	-200,000	-0,017	0,064
-121,439	55,122	0,061	0,042
-120,424	146,527	0,027	-0,026
-119,410	-200,000	-0,007	-0,099
-118,395	-11,761	0,073	0,034
-117,380	222,292	0,078	0,091
-116,366	29,212	-0,143	-0,087
-115,351	-200,000	-0,007	-0,048
-114,337	-85,925	-0,082	0,018
-113,322	-200,000	0,004	-0,171
-112,307	-49,991	-0,082	0,028
-111,293	157,315	-0,017	0,017
-110,278	-57,230	0,095	0,030
-109,264	-73,858	-0,148	-0,038
-108,249	-145,143	0,037	0,002
-107,234	0,016	0,080	-0,041
-106,220	800,000	0,039	0,079
-105,205	-200,000	0,016	-0,052
-104,191	358,447	-0,044	-0,063
-103,176	386,704	0,010	-0,015
-102,162	-20,129	0,058	-0,025
-101,147	-200,000	-0,025	0,123
-100,132	-20,262	-0,027	0,012
-99,118	800,000	-0,030	0,062
-98,103	-74,433	0,008	-0,002
-97,089	276,748	0,070	0,089
-96,074	-72,620	0,073	0,019
-95,059	66,576	0,128	-0,094
-94,045	260,720	-0,022	0,027
-93,030	40,707	-0,036	-0,023
-92,016	149,056	-0,105	0,102
-91,001	-200,000	-0,002	-0,081
-89,986	363,828	0,038	-0,055
-88,972	800,000	0,017	0,040
-87,957	-77,566	-0,052	0,013
-86,943	94,948	-0,020	-0,016
-85,928	-122,485	0,112	0,013
-84,913	800,000	-0,041	-0,089
-83,899	32,292	-0,178	0,110
-82,884	-93,465	0,152	-0,030
-81,870	30,928	-0,027	-0,017
-80,855	255,163	0,029	0,036
-79,840	-81,466	0,033	0,008
-78,826	-200,000	-0,002	-0,095
-77,811	-200,000	0,007	0,054
-76,797	-35,662	-0,015	0,006
-75,782	-134,811	-0,051	0,004
-74,767	-200,000	-0,019	0,085
-73,753	571,358	0,069	0,122
-72,738	800,000	0,030	0,088
-71,724	239,188	-0,076	-0,091
-70,709	-81,958	0,155	0,036
-69,694	94,965	-0,108	-0,089
-68,680	70,925	-0,103	-0,077
-67,665	-33,444	0,152	0,060
-66,651	12,067	0,094	0,052
-65,636	752,186	0,067	0,130
-64,622	378,253	-0,025	-0,037
-63,607	456,855	-0,059	-0,094
-62,592	800,000	-0,017	-0,050
-61,578	-35,961	0,026	0,010
-60,563	-200,000	0,001	0,083
-59,549	70,161	-0,016	0,012
-58,534	-29,253	-1,888	-0,773
-57,519	-200,000	-0,173	-0,905
-56,505	-200,000	-1,153	-4,969
-55,490	-20,337	0,856	0,377
-54,476	800,000	5,248	12,226
-53,461	-200,000	17,261	283,643
-52,446	800,000	722,999	2227,613
-51,432	543,692	1639,094	2819,846
-50,417	112,096	1631,546	1415,349
-49,403	76,398	1286,688	977,801
-48,388	32,939	1028,795	638,306
-47,373	20,336	990,510	572,961
-46,359	18,814	978,922	561,238
-45,344	16,288	974,806	550,578
-44,330	16,443	973,440	550,294
-43,315	15,994	971,632	547,783
-42,300	15,996	970,570	547,166
-41,286	15,943	969,323	546,268
-40,271	15,925	968,381	545,657
-39,257	15,906	967,882	545,294
-38,242	16,024	966,642	544,959
-37,227	15,921	966,041	544,261
-36,213	15,929	965,136	543,755
-35,198	15,973	964,127	543,309
-34,184	15,945	963,523	542,856
-33,169	15,951	962,258	542,141
-32,154	15,986	961,515	541,815
-31,140	15,969	960,601	541,224
-30,125	16,008	959,766	540,857
-29,111	15,993	958,933	540,318
-28,096	16,024	958,422	540,108
-27,082	15,969	957,851	539,587
-26,067	15,975	957,021	539,118
-25,052	15,968	956,260	538,646
-24,038	15,959	955,538	538,189
-23,023	15,923	955,110	537,812
-22,009	15,962	954,270	537,443
-20,994	15,998	953,687	537,207
-19,979	15,971	953,137	536,789
-18,965	15,991	952,519	536,485
-17,950	15,988	951,729	536,008
-16,936	15,902	951,176	535,399
-15,921	15,937	950,322	535,011
-14,906	15,849	949,787	534,408
-13,892	15,812	949,171	533,923
-12,877	15,824	948,580	533,606
-11,863	15,811	947,831	533,123
-10,848	15,844	947,239	532,873
-9,833	15,939	946,899	532,962
-8,819	15,853	946,158	532,252
-7,804	15,831	945,543	531,814
-6,790	15,876	944,938	531,595
-5,775	15,891	944,373	531,306
-4,760	15,848	943,773	530,811
-3,746	15,826	943,195	530,393
-2,731	15,731	942,462	529,661
-1,717	15,720	941,775	529,218
-0,702	15,680	941,110	528,696
0,313	15,472	940,555	528,525
1,327	18,646	938,237	537,186
2,342	27,447	795,834	479,015
3,356	24,187	459,525	271,574
4,371	-3,026	314,069	156,716
5,386	-6,945	295,808	143,630
6,400	-8,871	289,541	138,666
7,415	-9,569	287,271	136,880
8,429	-9,589	285,704	136,102
9,444	-9,826	284,902	135,477
10,459	-9,599	284,248	135,374
11,473	-9,405	283,489	135,189
12,488	-9,519	283,050	134,857
13,502	-9,645	282,547	134,483
14,517	-9,538	282,315	134,465
15,531	-9,458	281,643	134,210
16,546	-9,365	281,302	134,124
17,561	-9,424	280,831	133,832
18,575	-9,309	280,737	133,885
19,590	-9,572	280,428	133,474
20,604	-9,475	280,167	133,431
21,619	-9,654	279,624	132,988
22,634	-9,319	279,303	133,144
23,648	-9,436	278,955	132,855
24,663	-9,487	278,877	132,758
25,677	-9,455	278,494	132,594
26,692	-9,403	278,338	132,556
27,707	-9,423	277,987	132,359
28,721	-9,467	277,698	132,168
29,736	-9,360	277,414	132,122
30,750	-9,412	277,123	131,922
31,765	-9,692	277,056	131,614
32,780	-9,505	276,620	131,571
33,794	-9,446	276,485	131,552
34,809	-9,498	276,215	131,363
35,823	-9,432	275,771	131,201
36,838	-9,510	275,674	131,071
37,853	-9,563	275,447	130,901
38,867	-9,568	275,212	130,773
39,882	-9,571	274,914	130,617
40,896	-9,343	274,641	130,689
41,911	-9,668	274,534	130,322
42,926	-9,464	274,180	130,333
43,940	-9,674	274,094	130,085
44,955	-9,661	273,691	129,894
45,969	-9,646	273,470	129,791
46,984	-9,754	273,168	129,536
47,999	-9,950	273,127	129,322
49,013	-9,995	272,729	129,080
50,028	-10,046	272,391	128,861
51,042	-10,186	272,224	128,641
52,057	-10,376	272,133	128,410
53,071	-10,049	271,848	128,567
54,086	-10,097	271,526	128,359
55,101	-9,770	271,444	128,612
56,115	-9,695	271,308	128,605
57,130	-9,612	271,371	128,700
58,144	-9,487	270,898	128,580
59,159	-9,319	270,653	128,607
60,174	-9,586	270,513	128,283
61,188	-9,414	270,244	128,302
62,203	-9,410	270,108	128,230
63,217	-9,423	269,686	128,006
64,232	-9,328	269,510	127,998
65,247	-9,413	269,423	127,868
66,261	-9,425	269,019	127,653
67,276	-9,473	268,837	127,512
68,290	-9,878	268,761	127,094
69,305	-9,686	268,413	127,094
70,320	-9,786	268,194	126,887
71,334	-9,664	268,025	126,907
72,349	-9,494	267,846	126,966
73,363	-9,484	267,588	126,841
74,378	-9,465	267,469	126,791
75,393	-9,499	267,210	126,626
76,407	-9,061	266,905	126,868
77,422	-9,522	266,787	126,382
78,436	-9,527	266,733	126,341
79,451	-9,377	266,354	126,286
80,466	-9,448	266,097	126,089
81,480	-9,743	265,895	125,715
82,495	-9,627	265,708	125,720
83,509	-9,723	265,543	125,544
84,524	-9,731	265,345	125,432
85,539	-9,736	264,853	125,184
86,553	-9,940	264,687	124,911
87,568	-9,716	264,803	125,156
88,582	-9,628	264,308	124,989
89,597	-9,564	264,191	124,981
90,611	-9,630	264,125	124,879
91,626	-9,429	263,918	124,951
92,641	-9,389	263,654	124,851
93,655	-9,483	263,431	124,649
94,670	-9,805	263,266	124,272
95,684	-9,419	262,967	124,464
96,699	-9,505	262,871	124,331
97,714	-9,474	262,519	124,182
98,728	-9,544	262,447	124,074
99,743	-9,646	262,150	123,832
100,757	-9,624	261,846	123,696
101,772	-9,773	261,797	123,530
102,787	-9,525	261,517	123,607
103,801	-9,546	261,439	123,541
104,816	-9,503	261,283	123,493
105,830	-9,467	261,173	123,462
106,845	-9,427	260,978	123,395
107,860	-9,388	260,552	123,217
108,874	-9,461	260,474	123,105
109,889	-9,591	260,342	122,916
110,903	-9,514	260,168	122,891
111,918	-9,666	259,758	122,553
112,933	-9,581	259,680	122,580
113,947	-9,420	259,533	122,641
114,962	-9,443	259,350	122,524
115,976	-9,297	259,086	122,516
116,991	-9,312	258,916	122,411
118,006	-9,437	258,626	122,154
119,020	-9,492	258,698	122,129
120,035	-9,551	258,606	122,023
121,049	-9,434	258,418	122,026
122,064	-9,379	258,035	121,882
123,079	-9,551	257,936	121,674
124,093	-9,342	257,601	121,687
125,108	-9,529	257,315	121,379
126,122	-9,754	257,257	121,145
127,137	-9,949	257,109	120,894
128,151	-9,784	256,847	120,904
129,166	-9,609	256,642	120,948
130,181	-9,672	256,452	120,794
131,195	-9,709	256,364	120,709
132,210	-9,570	256,009	120,652
133,224	-9,618	255,966	120,579
134,239	-9,387	255,862	120,720
135,254	-9,407	255,518	120,530
136,268	-9,571	255,394	120,318
137,283	-9,834	255,132	119,957
138,297	-9,770	254,851	119,870
139,312	-10,030	254,811	119,616
140,327	-9,475	254,423	119,901
141,341	-9,430	254,462	119,947
142,356	-9,293	254,237	119,948
143,370	-9,428	254,189	119,798
144,385	-9,277	254,019	119,837
145,400	-9,220	253,662	119,707
146,414	-9,381	253,641	119,549
147,429	-9,519	253,483	119,346
148,443	-9,301	253,323	119,446
149,458	-9,343	253,140	119,313
150,473	-9,175	252,920	119,342
151,487	-9,537	252,772	118,952
152,502	-9,311	252,562	119,037
153,516	-9,192	252,264	118,987
154,531	-9,436	252,150	118,714
155,546	-9,319	252,051	118,757
156,560	-9,190	251,792	118,734
157,575	-9,514	251,536	118,327
158,589	-9,366	251,309	118,335
159,604	-9,294	251,149	118,311
160,619	-9,372	250,992	118,160
161,633	-9,303	250,977	118,201
162,648	-9,111	250,658	118,203
163,662	-9,293	250,611	118,016
164,677	-9,085	250,327	118,048
165,692	-9,336	250,235	117,782
166,706	-9,403	250,124	117,662
167,721	-9,280	249,850	117,627
168,735	-9,209	249,743	117,626
169,750	-9,193	249,574	117,549
170,764	-9,315	249,489	117,396
171,779	-9,077	249,201	117,450
172,794	-9,163	249,031	117,287
173,808	-9,311	248,853	117,068
174,823	-9,515	248,563	116,750
175,837	-9,609	248,470	116,618
176,852	-9,433	248,306	116,678
177,867	-9,264	248,107	116,715
178,881	-9,214	248,183	116,782
179,896	-9,356	247,893	116,516
180,910	-9,275	247,703	116,485
181,925	-9,070	247,506	116,552
182,940	-9,328	247,328	116,243
183,954	-9,190	247,246	116,309
184,969	-9,080	247,068	116,307
185,983	-9,084	247,011	116,267
186,998	-9,273	246,742	115,973
188,013	-9,036	246,439	116,017
189,027	-9,145	246,391	115,892
190,042	-9,402	246,245	115,601
191,056	-9,384	246,010	115,496
192,071	-9,235	245,842	115,529
193,086	-9,287	245,604	115,364
194,100	-9,310	245,505	115,288
195,115	-9,286	245,334	115,218
196,129	-9,239	245,166	115,167
197,144	-9,289	244,956	115,017
198,159	-9,339	244,710	114,850
199,173	-9,370	244,668	114,794
200,188	-9,305	244,370	114,698
201,202	-9,515	244,189	114,431
202,217	-9,793	243,914	114,063
203,232	-9,840	243,680	113,905
204,246	-9,659	243,727	114,065
205,261	-9,043	243,512	114,459
206,275	-10,171	243,142	113,352
207,290	-6,935	244,227	116,505
208,304	-0,211	246,494	123,135
209,319	2,671	247,184	125,851
210,334	2,905	247,247	126,065
211,348	3,202	247,161	126,255
212,363	3,572	247,089	126,512
213,377	3,760	246,849	126,532
214,392	3,581	246,648	126,271
215,407	3,439	246,448	126,041
216,421	3,479	246,464	126,071
217,436	3,637	246,286	126,098
218,450	3,850	246,090	126,161
219,465	3,481	245,735	125,666
220,480	3,149	245,688	125,359
221,494	3,339	245,677	125,498
222,509	3,444	245,377	125,419
223,523	3,275	245,215	125,187
224,538	2,808	244,957	124,662
225,553	2,848	244,823	124,615
226,567	3,423	244,712	125,017
227,582	3,199	244,534	124,732
228,596	3,378	244,414	124,805
229,611	3,089	244,047	124,372
230,626	3,161	243,957	124,374
231,640	3,258	243,752	124,337
232,655	3,310	243,757	124,371
233,669	3,023	243,554	124,024
234,684	2,822	243,340	123,740
235,699	3,325	243,263	124,098
236,713	3,297	243,282	124,073
237,728	3,257	242,815	123,792
238,742	3,069	242,619	123,529
239,757	2,867	242,522	123,305
240,772	3,141	242,345	123,426
241,786	3,215	242,278	123,440
242,801	2,965	242,105	123,140
243,815	3,069	241,740	123,026
244,830	3,221	241,698	123,116
245,844	3,324	241,691	123,185
246,859	3,181	241,408	122,915
247,874	2,982	241,345	122,712
248,888	3,034	241,215	122,676
249,903	3,352	241,083	122,854
250,917	3,418	240,976	122,841
251,932	3,451	240,714	122,723
252,947	3,208	240,776	122,549
253,961	3,128	240,339	122,252
254,976	3,353	240,314	122,408
255,990	3,407	240,134	122,349
257,005	3,053	240,066	122,020
258,020	2,782	239,797	121,657
259,034	3,035	239,574	121,734
260,049	3,178	239,472	121,785
261,063	2,897	239,381	121,505
262,078	3,015	239,139	121,465
263,093	3,160	239,051	121,524
264,107	3,131	238,975	121,452
265,122	2,983	238,720	121,194
266,136	3,155	238,587	121,252
267,151	3,552	238,506	121,515
268,166	3,222	238,162	121,067
269,180	2,969	237,997	120,773
270,195	3,431	238,005	121,131
271,209	3,856	237,811	121,358
272,224	3,127	237,657	120,692
273,239	2,740	237,401	120,247
274,253	2,747	237,264	120,172
275,268	3,224	237,179	120,494
276,282	3,344	236,956	120,464
277,297	2,902	236,879	120,066
278,312	3,011	236,663	120,032
279,326	3,197	236,560	120,116
280,341	3,324	236,430	120,138
281,355	3,427	236,135	120,058
282,370	3,201	236,291	119,950
283,384	3,272	236,001	119,847
284,399	3,165	235,829	119,666
285,414	2,960	235,497	119,326
286,428	3,069	235,346	119,324
287,443	3,119	235,253	119,306
288,457	3,382	235,190	119,468
289,472	3,265	235,104	119,323
290,487	3,006	234,996	119,055
291,501	3,124	234,690	118,981
292,516	2,918	234,629	118,779
293,530	2,891	234,403	118,634
294,545	3,131	234,261	118,738
295,560	3,212	234,108	118,713
296,574	2,941	233,886	118,380
297,589	3,022	233,877	118,427
298,603	3,306	233,852	118,624
299,618	3,065	233,716	118,358
300,633	3,180	233,554	118,354
301,647	3,441	233,396	118,465
302,662	3,757	233,323	118,662
303,676	3,591	233,205	118,463
304,691	3,586	232,953	118,321
305,706	3,589	232,650	118,158
306,720	3,419	232,610	117,997
307,735	3,382	232,559	117,932
308,749	3,226	232,186	117,612
309,764	3,072	232,142	117,461
310,779	2,797	231,926	117,130
311,793	2,778	231,822	117,053
312,808	2,838	231,589	116,970
313,822	2,955	231,341	116,924
314,837	2,666	231,451	116,748
315,852	2,832	231,205	116,741
316,866	3,241	231,011	116,945
317,881	3,212	231,033	116,923
318,895	3,545	230,841	117,070
319,910	3,583	230,651	116,992
320,925	3,373	230,422	116,706
321,939	2,975	230,324	116,343
322,954	3,327	230,277	116,577
323,968	3,305	229,975	116,396
324,983	3,007	229,813	116,078
325,997	3,094	229,636	116,044
327,012	3,244	229,644	116,151
328,027	3,263	229,503	116,085
329,041	3,395	229,468	116,157
330,056	4,158	229,308	116,643
331,070	3,812	229,174	116,303
332,085	3,277	228,868	115,732
333,100	3,166	228,797	115,602
334,114	3,416	228,534	115,647
335,129	3,735	228,465	115,843
336,143	3,468	228,410	115,604
337,158	3,646	228,202	115,622
338,173	3,530	228,168	115,507
339,187	3,384	227,963	115,283
340,202	3,635	227,857	115,408
341,216	3,466	227,704	115,193
342,231	3,233	227,465	114,887
343,246	3,148	227,322	114,741
344,260	3,583	227,174	114,982
345,275	3,525	227,226	114,955
346,289	3,731	227,083	115,026
347,304	3,566	226,786	114,742
348,319	3,777	226,676	114,834
349,333	3,660	226,481	114,638
350,348	3,416	226,281	114,344
351,362	3,431	226,203	114,306
352,377	3,426	226,033	114,206
353,392	3,230	225,766	113,915
354,406	3,022	225,848	113,791
355,421	194,765	1322,013	1396,915
356,435	156,080	1455,567	1396,915
