DTS Sentinel unit serial number:	SN410029Multiplexer serial number:	ORYXHardware model number:	OX2-SRSoftware version number:	ORYX F/W v4,00 Oryx Data Collector v3.7.2.0data status	okinstallation	B5 Nyhavnadifferential loss correction	single-endedforward channel	channel 2reverse channel	N/Adate	2023/12/14time	01:27:13forward acquisition time	300,00reverse acquisition time	0,00gamma	499,1914k internal	0,3155k external	0,3155temperature offset calibration	1,0000default loss term (dB/km)	0,3820temperature slope calibration	1,0000multiplexer offset coefficient	1,0000multiplexer slope coefficient	1,0000fibre end	0,00T internal ref (°C)	8,69T ext. ref 1 (°C)	-7,22T ext. ref 2 (°C)	-7,24length (m)	temperature (°C)	Stokes	anti-Stokes-744,400	-33,698	0,351	0,142
-743,385	-39,267	-0,354	-0,136
-742,371	-94,520	0,337	0,067
-741,356	-102,701	-0,374	0,065
-740,342	266,944	0,163	0,211
-739,327	-116,974	-0,291	0,039
-738,312	-76,521	0,090	-0,023
-737,298	-75,806	-0,425	-0,110
-736,283	-124,050	0,144	0,016
-735,269	-147,901	-0,433	-0,026
-734,254	-62,007	0,193	0,059
-733,239	-32,955	-0,508	-0,207
-732,225	276,559	0,159	0,209
-731,210	-200,000	0,009	-0,076
-730,196	800,000	0,097	-0,198
-729,181	-111,029	-0,165	-0,025
-728,167	800,000	0,052	-0,158
-727,152	-200,000	-0,004	-0,069
-726,137	-200,000	-0,016	-0,080
-725,123	165,770	-0,020	0,021
-724,108	102,455	-0,056	-0,048
-723,094	-200,000	0,010	-0,114
-722,079	469,196	-0,040	-0,067
-721,064	-200,000	-0,023	-0,159
-720,050	70,164	-0,147	-0,112
-719,035	-200,000	-0,035	-0,123
-718,021	800,000	-0,064	-0,132
-717,006	-146,030	-0,072	0,005
-715,991	-189,939	-0,087	-0,001
-714,977	-200,000	0,003	-0,162
-713,962	-16,484	0,064	0,030
-712,948	2,931	0,120	0,064
-711,933	-200,000	-0,001	0,042
-710,918	800,000	-0,060	0,124
-709,904	800,000	0,011	0,030
-708,889	-200,000	-0,013	-0,062
-707,875	-200,000	-0,008	-0,091
-706,860	-28,505	0,092	0,039
-705,845	495,548	0,087	0,148
-704,831	314,303	-0,015	0,021
-703,816	-200,000	-0,013	-0,044
-702,802	419,622	-0,040	-0,063
-701,787	-200,000	-0,008	-0,083
-700,772	-200,000	0,009	-0,043
-699,758	486,707	-0,038	0,064
-698,743	800,000	0,034	-0,085
-697,729	-200,000	0,018	0,082
-696,714	791,928	0,031	-0,064
-695,699	78,659	-0,125	-0,098
-694,685	-42,487	-0,153	-0,057
-693,670	71,206	0,048	-0,037
-692,656	-31,556	-0,070	-0,029
-691,641	-200,000	-0,018	-0,125
-690,627	-116,531	0,076	0,010
-689,612	23,669	-0,017	-0,011
-688,597	19,834	-0,070	-0,042
-687,583	-200,000	-0,031	-0,103
-686,568	-200,000	-0,027	-0,107
-685,554	154,012	-0,097	-0,098
-684,539	-200,000	0,005	-0,147
-683,524	-51,983	0,025	0,008
-682,510	-200,000	0,018	0,065
-681,495	-138,412	-0,097	0,008
-680,481	3,696	0,030	0,016
-679,466	308,678	0,034	-0,047
-678,451	184,765	-0,026	0,029
-677,437	-125,235	-0,041	0,005
-676,422	-6,909	-0,088	0,044
-675,408	-122,269	-0,064	-0,008
-674,393	761,911	-0,048	0,096
-673,378	-56,758	0,141	-0,046
-672,364	-200,000	-0,008	-0,084
-671,349	20,677	-0,112	0,066
-670,335	800,000	0,050	0,130
-669,320	800,000	-0,023	0,068
-668,305	298,892	-0,117	0,159
-667,291	78,539	0,071	-0,056
-666,276	800,000	-0,030	-0,081
-665,262	-66,169	-0,056	-0,016
-664,247	-10,293	-0,164	-0,080
-663,232	-66,503	0,088	-0,025
-662,218	-77,077	-0,142	0,036
-661,203	501,989	-0,059	0,100
-660,189	800,000	0,040	-0,099
-659,174	46,801	-0,065	-0,044
-658,159	800,000	0,023	0,071
-657,145	-200,000	0,009	-0,039
-656,130	193,058	-0,105	-0,117
-655,116	-115,694	0,072	0,010
-654,101	34,208	0,018	0,012
-653,086	800,000	-0,020	-0,063
-652,072	-25,873	-0,128	-0,055
-651,057	36,640	-0,106	-0,069
-650,043	-42,510	-0,156	0,058
-649,028	-33,250	0,107	0,043
-648,014	-200,000	-0,022	-0,128
-646,999	89,644	-0,050	-0,041
-645,984	233,835	-0,046	-0,056
-644,970	52,254	-0,124	-0,087
-643,955	800,000	0,058	-0,167
-642,941	-63,174	0,116	-0,035
-641,926	-200,000	-0,012	0,085
-640,911	-123,987	0,114	0,013
-639,897	-40,790	0,100	-0,038
-638,882	-73,829	0,009	-0,002
-637,868	-153,620	-0,106	0,005
-636,853	-200,000	-0,107	-0,000
-635,838	-200,000	-0,005	-0,088
-634,824	-200,000	-0,011	0,101
-633,809	-6,894	0,143	0,071
-632,795	36,982	-0,052	0,034
-631,780	-200,000	-0,073	-0,000
-630,765	378,855	0,028	-0,043
-629,751	179,879	-0,100	-0,108
-628,736	-56,811	-0,122	-0,039
-627,722	-30,534	0,096	-0,040
-626,707	-95,859	-0,088	0,017
-625,692	139,313	0,001	0,001
-624,678	-72,562	-0,088	-0,024
-623,663	-107,037	0,022	-0,004
-622,649	179,682	-0,065	-0,070
-621,634	-0,170	-0,060	-0,031
-620,619	-32,626	0,034	-0,014
-619,605	705,141	-0,061	-0,119
-618,590	-61,866	-0,057	-0,018
-617,576	-159,376	-0,129	-0,005
-616,561	-139,596	-0,008	-0,001
-615,546	-200,000	0,024	-0,119
-614,532	28,378	-0,132	-0,082
-613,517	-200,000	0,007	0,065
-612,503	298,022	0,064	0,086
-611,488	14,292	-0,040	0,023
-610,474	39,572	0,030	-0,020
-609,459	-200,000	0,021	-0,088
-608,444	-111,304	-0,097	0,014
-607,430	341,688	0,077	-0,111
-606,415	346,743	-0,082	-0,119
-605,401	-200,000	-0,008	-0,079
-604,386	-200,000	-0,023	0,157
-603,371	93,572	-0,042	0,035
-602,357	-75,336	-0,107	0,028
-601,342	-200,000	-0,019	-0,084
-600,328	-200,000	-0,001	-0,075
-599,313	170,181	0,042	-0,044
-598,298	70,368	0,084	-0,064
-597,284	-200,000	-0,003	0,150
-596,269	157,621	0,088	-0,090
-595,255	-95,799	-0,109	-0,021
-594,240	-200,000	-0,051	-0,170
-593,225	113,557	0,044	0,039
-592,211	645,153	-0,024	0,046
-591,196	-200,000	0,010	0,035
-590,182	-126,047	-0,055	0,006
-589,167	-101,752	0,084	-0,015
-588,152	355,401	0,030	-0,045
-587,138	800,000	0,018	0,058
-586,123	62,652	-0,083	-0,061
-585,109	800,000	0,030	-0,062
-584,094	800,000	0,031	-0,066
-583,079	107,611	0,100	-0,087
-582,065	-28,371	-0,156	0,066
-581,050	-31,915	-0,095	-0,039
-580,036	-200,000	0,029	-0,139
-579,021	28,417	0,160	-0,099
-578,006	-143,403	0,062	-0,004
-576,992	-48,341	-0,066	-0,023
-575,977	352,637	0,072	-0,105
-574,963	-23,521	0,122	-0,053
-573,948	800,000	-0,045	-0,111
-572,934	800,000	-0,027	-0,071
-571,919	12,216	-0,118	0,067
-570,904	-37,336	-0,111	0,043
-569,890	196,833	-0,038	-0,043
-568,875	-22,931	0,099	0,043
-567,861	184,960	0,036	-0,039
-566,846	800,000	0,027	0,083
-565,831	54,702	-0,092	0,065
-564,817	-65,933	-0,103	-0,030
-563,802	-200,000	-0,026	-0,173
-562,788	-49,683	-0,077	0,027
-561,773	-122,623	0,103	0,012
-560,758	280,360	0,046	-0,061
-559,744	800,000	0,018	0,040
-558,729	-34,685	0,011	0,005
-557,715	-39,947	0,036	-0,014
-556,700	220,317	-0,052	-0,061
-555,685	168,090	0,051	-0,054
-554,671	-95,735	-0,035	0,007
-553,656	-200,000	0,016	-0,070
-552,642	-76,866	0,125	0,032
-551,627	167,055	-0,078	0,081
-550,612	-98,072	-0,101	-0,019
-549,598	-200,000	-0,032	-0,134
-548,583	-200,000	-0,005	0,051
-547,569	-200,000	0,000	-0,079
-546,554	-101,449	0,146	0,026
-545,539	-10,399	-0,123	0,059
-544,525	-200,000	0,010	0,078
-543,510	-200,000	0,009	0,032
-542,496	328,315	-0,045	-0,064
-541,481	-200,000	0,013	-0,136
-540,466	259,531	0,043	-0,055
-539,452	-200,000	0,009	-0,039
-538,437	800,000	-0,006	0,017
-537,423	112,555	-0,061	-0,054
-536,408	136,212	-0,033	-0,031
-535,393	-3,972	-0,072	-0,036
-534,379	-78,274	0,067	-0,017
-533,364	-54,776	0,063	-0,021
-532,350	800,000	0,022	-0,062
-531,335	-200,000	-0,001	0,109
-530,321	-55,314	-0,085	0,028
-529,306	800,000	-0,068	0,160
-528,291	800,000	-0,043	0,102
-527,277	-132,761	-0,140	0,013
-526,262	-140,066	-0,061	0,005
-525,248	-39,301	-0,071	0,027
-524,233	-147,523	-0,048	0,003
-523,218	226,008	0,097	0,115
-522,204	767,631	-0,071	-0,142
-521,189	-200,000	0,002	-0,073
-520,175	-1,406	0,014	0,007
-519,160	-200,000	0,002	-0,095
-518,145	235,433	0,033	-0,040
-517,131	60,787	0,040	-0,029
-516,116	-74,239	-0,093	0,025
-515,102	-71,652	-0,025	-0,007
-514,087	272,498	-0,101	-0,131
-513,072	800,000	0,021	-0,064
-512,058	-200,000	-0,024	-0,106
-511,043	273,554	0,051	0,067
-510,029	-200,000	-0,025	-0,134
-509,014	800,000	0,040	0,093
-507,999	-200,000	0,005	0,032
-506,985	-200,000	-0,001	0,046
-505,970	177,055	-0,064	-0,068
-504,956	30,053	-0,105	-0,065
-503,941	-200,000	-0,020	0,146
-502,926	244,825	0,071	0,087
-501,912	800,000	0,017	0,045
-500,897	129,992	-0,110	0,103
-499,883	139,396	-0,051	0,049
-498,868	-200,000	0,027	-0,092
-497,853	-200,000	-0,006	0,029
-496,839	-200,000	0,006	-0,051
-495,824	-200,000	-0,012	-0,082
-494,810	-9,844	-0,152	-0,073
-493,795	7,075	0,077	-0,042
-492,781	-200,000	-0,014	-0,111
-491,766	249,787	0,081	0,100
-490,751	-200,000	0,011	-0,126
-489,737	-139,095	0,085	0,007
-488,722	341,039	0,050	0,071
-487,708	-111,396	0,061	0,009
-486,693	800,000	0,019	0,050
-485,678	146,527	0,097	-0,095
-484,664	-11,906	-0,162	0,077
-483,649	-55,321	0,155	0,051
-482,635	345,962	0,036	-0,053
-481,620	70,714	-0,010	-0,008
-480,605	800,000	0,027	0,061
-479,591	-64,684	0,006	-0,002
-478,576	-69,812	-0,106	0,029
-477,562	-200,000	-0,034	-0,168
-476,547	-67,276	-0,036	0,010
-475,532	4,485	0,041	-0,022
-474,518	-200,000	0,025	0,087
-473,503	168,197	0,012	0,013
-472,489	411,023	-0,080	0,125
-471,474	800,000	0,052	-0,149
-470,459	94,421	-0,057	0,047
-469,445	-135,650	-0,161	0,014
-468,430	-71,094	0,083	0,023
-467,416	-200,000	-0,007	0,066
-466,401	-200,000	0,019	-0,127
-465,386	-67,713	-0,089	0,025
-464,372	21,984	0,147	0,088
-463,357	2,460	-0,041	-0,022
-462,343	-74,840	-0,178	0,046
-461,328	-200,000	0,011	-0,170
-460,313	-200,000	-0,014	-0,096
-459,299	110,559	0,085	0,074
-458,284	-40,795	0,066	0,025
-457,270	151,057	-0,090	0,090
-456,255	-88,651	0,163	0,035
-455,241	216,420	-0,070	-0,082
-454,226	-100,306	0,041	-0,007
-453,211	-132,951	-0,083	0,008
-452,197	142,070	0,045	-0,044
-451,182	-200,000	0,006	0,115
-450,168	-106,561	-0,092	-0,015
-449,153	-200,000	0,029	0,099
-448,138	35,719	-0,066	-0,042
-447,124	346,893	0,075	-0,107
-446,109	396,190	0,056	0,085
-445,095	291,673	0,019	0,025
-444,080	6,567	-0,084	-0,045
-443,065	-56,485	0,136	0,044
-442,051	-14,739	-0,057	-0,027
-441,036	101,174	-0,014	0,012
-440,022	-200,000	-0,015	0,097
-439,007	68,722	0,124	0,093
-437,992	107,553	0,036	0,031
-436,978	108,553	0,173	-0,151
-435,963	188,973	0,081	-0,088
-434,949	45,476	0,043	-0,029
-433,934	-200,000	0,026	-0,088
-432,919	68,232	-0,097	0,072
-431,905	278,509	-0,041	-0,053
-430,890	800,000	-0,030	-0,074
-429,876	213,791	0,043	-0,050
-428,861	675,726	-0,075	-0,143
-427,846	534,486	-0,034	-0,058
-426,832	132,416	-0,082	0,077
-425,817	-75,446	0,061	-0,016
-424,803	-200,000	-0,015	0,049
-423,788	-200,000	0,006	0,048
-422,773	215,440	0,027	-0,031
-421,759	-102,614	0,103	0,018
-420,744	-179,300	-0,110	-0,002
-419,730	-200,000	-0,026	0,091
-418,715	-80,577	-0,113	0,027
-417,701	-52,379	-0,114	-0,038
-416,686	800,000	-0,034	0,098
-415,671	-45,815	0,120	0,043
-414,657	-200,000	-0,019	0,124
-413,642	-200,000	0,013	0,121
-412,628	-200,000	0,018	-0,110
-411,613	-131,146	-0,152	-0,015
-410,598	-84,098	0,066	0,015
-409,584	-73,609	-0,008	-0,002
-408,569	-69,999	-0,082	0,023
-407,555	392,055	0,078	0,119
-406,540	-200,000	-0,019	0,117
-405,525	-200,000	-0,034	-0,125
-404,511	-175,032	-0,071	0,001
-403,496	800,000	0,023	-0,058
-402,482	-113,309	0,143	0,020
-401,467	-200,000	0,113	0,000
-400,452	-200,000	0,001	0,053
-399,438	450,498	-0,075	0,121
-398,423	-86,870	0,094	-0,021
-397,409	-68,154	0,100	0,028
-396,394	171,919	-0,058	0,061
-395,379	372,657	0,125	0,185
-394,365	-200,000	-0,001	-0,027
-393,350	-46,903	0,082	0,029
-392,336	-84,527	0,105	0,024
-391,321	-200,000	-0,007	-0,120
-390,306	2,699	-0,096	-0,050
-389,292	226,925	0,043	-0,051
-388,277	800,000	0,056	-0,112
-387,263	404,668	-0,023	0,036
-386,248	360,992	0,088	0,128
-385,233	-116,216	-0,011	0,001
-384,219	800,000	0,044	0,111
-383,204	800,000	-0,026	-0,059
-382,190	33,168	-0,103	-0,065
-381,175	800,000	-0,004	-0,009
-380,160	267,003	0,080	0,102
-379,146	-42,342	0,160	0,059
-378,131	-200,000	-0,011	-0,036
-377,117	146,872	0,057	-0,056
-376,102	340,079	0,046	-0,066
-375,088	-200,000	-0,019	0,139
-374,073	-64,841	-0,057	-0,017
-373,058	800,000	0,049	-0,120
-372,044	-102,711	0,107	0,018
-371,029	-200,000	0,002	0,044
-370,015	800,000	0,050	0,124
-369,000	-97,019	-0,015	0,003
-367,985	-200,000	0,018	-0,075
-366,971	111,766	0,045	-0,040
-365,956	-200,000	-0,005	0,183
-364,942	800,000	0,047	0,130
-363,927	86,665	0,172	0,138
-362,912	62,400	0,015	-0,011
-361,898	-11,431	0,022	0,010
-360,883	-19,768	0,203	-0,091
-359,869	67,539	-0,012	0,009
-358,854	-51,024	-0,064	0,022
-357,839	64,734	0,076	0,055
-356,825	-143,162	-0,029	-0,002
-355,810	76,176	-0,040	0,031
-354,796	-200,000	0,022	-0,111
-353,781	548,358	0,077	-0,134
-352,766	-200,000	-0,013	-0,161
-351,752	312,374	0,074	0,102
-350,737	321,912	0,074	0,102
-349,723	-200,000	-0,014	0,095
-348,708	436,020	-0,043	-0,068
-347,693	800,000	0,032	-0,066
-346,679	-3,363	-0,086	0,044
-345,664	225,358	0,034	0,040
-344,650	85,376	0,103	0,082
-343,635	469,972	0,066	0,109
-342,620	-158,632	0,054	0,002
-341,606	-200,000	-0,037	0,185
-340,591	800,000	-0,028	0,060
-339,577	-113,039	0,088	0,013
-338,562	-200,000	0,009	-0,042
-337,548	-184,670	-0,038	-0,000
-336,533	800,000	-0,033	0,077
-335,518	-200,000	0,035	0,159
-334,504	58,119	0,044	-0,031
-333,489	151,052	-0,081	-0,080
-332,475	800,000	-0,008	-0,022
-331,460	35,305	0,019	-0,012
-330,445	800,000	0,054	-0,164
-329,431	-200,000	0,007	-0,043
-328,416	-81,950	0,136	0,032
-327,402	84,039	-0,110	0,087
-326,387	68,663	0,007	-0,005
-325,372	633,946	-0,036	-0,066
-324,358	248,839	0,058	-0,072
-323,343	800,000	-0,028	0,088
-322,329	76,758	0,103	0,079
-321,314	327,837	-0,054	0,076
-320,299	282,664	0,074	0,097
-319,285	171,167	-0,055	-0,057
-318,270	422,305	-0,058	-0,090
-317,256	69,057	0,122	0,091
-316,241	153,730	0,029	-0,029
-315,226	-200,000	-0,015	-0,093
-314,212	-74,865	0,026	-0,007
-313,197	-200,000	-0,027	-0,086
-312,183	112,706	-0,036	-0,032
-311,168	-142,635	-0,079	0,006
-310,153	800,000	0,017	-0,052
-309,139	324,433	-0,086	0,120
-308,124	-39,293	0,112	-0,042
-307,110	279,220	-0,049	-0,063
-306,095	800,000	0,024	0,071
-305,080	-200,000	-0,024	0,080
-304,066	-200,000	-0,032	0,126
-303,051	-10,641	-0,079	-0,038
-302,037	637,589	0,034	-0,063
-301,022	800,000	-0,021	0,046
-300,008	-200,000	-0,008	0,106
-298,993	1,600	-0,101	-0,053
-297,978	95,936	0,129	-0,107
-296,964	-151,356	-0,069	-0,004
-295,949	-79,699	-0,101	0,025
-294,935	-105,897	-0,111	-0,018
-293,920	149,457	-0,041	0,041
-292,905	-27,570	0,113	0,048
-291,891	800,000	0,046	0,126
-290,876	43,018	-0,078	-0,052
-289,862	-49,075	-0,113	0,039
-288,847	115,346	0,035	0,031
-287,832	-200,000	0,000	0,045
-286,818	104,951	0,014	-0,012
-285,803	46,585	-0,080	0,054
-284,789	148,638	-0,041	0,040
-283,774	-27,253	-0,130	-0,055
-282,759	800,000	-0,011	0,028
-281,745	68,517	-0,090	-0,067
-280,730	532,118	0,059	-0,102
-279,716	16,216	0,130	0,074
-278,701	714,610	-0,017	0,034
-277,686	-200,000	0,005	0,119
-276,672	-10,061	0,156	0,075
-275,657	-200,000	-0,009	0,063
-274,643	-112,487	0,099	-0,014
-273,628	800,000	-0,026	0,062
-272,613	574,790	-0,032	0,057
-271,599	-19,152	-0,131	-0,059
-270,584	-200,000	0,056	0,185
-269,570	-200,000	0,037	0,166
-268,555	-57,053	-0,090	0,029
-267,540	800,000	0,008	0,016
-266,526	800,000	-0,043	0,112
-265,511	-200,000	-0,012	0,117
-264,497	-71,113	0,093	-0,025
-263,482	569,002	0,109	0,192
-262,467	800,000	0,025	0,064
-261,453	-200,000	0,015	0,082
-260,438	36,638	-0,023	-0,015
-259,424	235,605	-0,008	-0,010
-258,409	-200,000	-0,027	-0,095
-257,395	-99,566	0,129	0,023
-256,380	83,187	-0,065	0,052
-255,365	53,341	0,112	0,078
-254,351	149,619	0,037	0,036
-253,336	6,636	-0,073	-0,039
-252,322	-90,998	0,137	0,028
-251,307	258,604	-0,057	-0,071
-250,292	94,111	-0,147	-0,121
-249,278	-200,000	-0,022	0,120
-248,263	-31,428	0,092	-0,037
-247,249	117,432	-0,018	-0,016
-246,234	-200,000	-0,009	0,101
-245,219	-13,893	-0,168	0,078
-244,205	-200,000	-0,002	0,022
-243,190	-11,457	-0,091	-0,043
-242,176	17,593	0,073	-0,042
-241,161	78,114	0,090	0,070
-240,146	56,422	0,047	0,033
-239,132	195,362	-0,016	0,018
-238,117	-200,000	-0,002	-0,122
-237,103	177,461	-0,003	0,003
-236,088	464,216	0,025	0,041
-235,073	800,000	-0,006	0,013
-234,059	66,530	0,167	0,123
-233,044	-200,000	0,000	0,028
-232,030	515,002	-0,027	-0,046
-231,015	800,000	-0,041	0,096
-230,000	-29,161	-0,192	0,079
-228,986	275,561	0,101	-0,130
-227,971	-200,000	-0,012	-0,136
-226,957	644,243	-0,026	0,047
-225,942	195,718	0,061	-0,067
-224,927	-200,000	0,024	-0,115
-223,913	540,429	-0,027	-0,047
-222,898	30,956	0,061	0,038
-221,884	610,333	0,031	0,057
-220,869	800,000	0,040	-0,115
-219,855	-200,000	-0,009	-0,041
-218,840	-200,000	0,009	-0,181
-217,825	298,324	0,022	-0,029
-216,811	-61,885	0,200	-0,060
-215,796	-200,000	-0,007	-0,031
-214,782	-66,952	-0,084	0,024
-213,767	800,000	-0,018	0,051
-212,752	42,845	0,162	0,106
-211,738	437,176	0,075	-0,118
-210,723	795,488	-0,095	-0,190
-209,709	272,225	-0,078	-0,100
-208,694	304,556	-0,006	0,008
-207,679	800,000	-0,025	-0,062
-206,665	350,940	-0,044	0,063
-205,650	-200,000	0,029	0,138
-204,636	-22,342	0,061	-0,026
-203,621	46,160	-0,090	-0,060
-202,606	626,184	-0,059	-0,108
-201,592	-24,912	-0,060	-0,025
-200,577	-16,184	-0,077	0,035
-199,563	-200,000	0,006	-0,021
-198,548	-62,605	0,073	0,022
-197,533	800,000	0,024	-0,059
-196,519	-18,258	-0,063	-0,028
-195,504	800,000	0,011	-0,027
-194,490	87,514	-0,071	-0,057
-193,475	-188,088	0,048	-0,000
-192,460	-187,806	-0,100	-0,001
-191,446	-62,126	0,040	-0,012
-190,431	-200,000	-0,011	0,073
-189,417	-200,000	0,014	-0,059
-188,402	-15,101	-0,035	0,016
-187,387	-200,000	0,010	-0,035
-186,373	104,234	-0,038	-0,033
-185,358	126,818	0,068	0,062
-184,344	240,181	0,069	-0,083
-183,329	-113,776	-0,023	0,003
-182,315	-78,968	0,181	0,044
-181,300	167,702	-0,041	0,042
-180,285	-56,501	0,110	-0,035
-179,271	-116,910	-0,050	0,006
-178,256	586,642	0,024	0,044
-177,242	-200,000	-0,014	0,099
-176,227	647,125	0,098	0,182
-175,212	-130,021	-0,094	0,009
-174,198	76,870	-0,058	-0,045
-173,183	140,298	0,030	-0,029
-172,169	204,895	0,055	-0,061
-171,154	-200,000	-0,004	0,077
-170,139	400,776	0,021	-0,032
-169,125	286,110	0,038	0,050
-168,110	75,561	0,102	-0,078
-167,096	-40,074	-0,096	-0,036
-166,081	-106,411	-0,112	0,018
-165,066	-36,595	-0,077	-0,030
-164,052	-200,000	-0,001	0,166
-163,037	121,784	0,094	0,085
-162,023	-68,944	0,055	0,015
-161,008	418,202	-0,044	0,068
-159,993	36,682	-0,089	0,056
-158,979	67,689	-0,051	0,037
-157,964	-127,068	-0,169	0,018
-156,950	-200,000	-0,012	-0,225
-155,935	538,614	-0,015	-0,027
-154,920	141,887	0,125	0,119
-153,906	209,960	0,048	0,055
-152,891	124,036	-0,134	0,121
-151,877	-162,878	-0,174	0,006
-150,862	-200,000	-0,055	-0,187
-149,847	81,972	-0,074	-0,057
-148,833	601,153	0,076	0,137
-147,818	7,205	0,082	0,044
-146,804	233,597	0,044	-0,052
-145,789	-101,307	0,043	0,008
-144,775	49,251	-0,078	-0,053
-143,760	-200,000	-0,015	-0,112
-142,745	-117,488	-0,089	-0,011
-141,731	266,430	0,062	0,078
-140,716	167,195	0,119	0,121
-139,702	-200,000	-0,006	-0,057
-138,687	-90,831	0,050	0,010
-137,672	800,000	-0,002	0,004
-136,658	-110,957	-0,209	-0,031
-135,643	-200,000	-0,002	-0,011
-134,629	800,000	-0,049	-0,110
-133,614	46,259	0,158	-0,105
-132,599	216,181	-0,089	0,102
-131,585	-108,130	0,079	0,012
-130,570	-31,543	-0,092	-0,037
-129,556	254,528	-0,081	-0,101
-128,541	139,766	0,067	-0,064
-127,526	273,408	-0,107	0,136
-126,512	22,927	-0,028	-0,017
-125,497	800,000	0,016	0,036
-124,483	146,417	0,018	-0,017
-123,468	166,639	-0,006	0,007
-122,453	-200,000	0,008	-0,110
-121,439	90,843	-0,087	-0,070
-120,424	401,294	-0,074	-0,112
-119,410	-65,189	-0,083	-0,024
-118,395	384,100	-0,043	0,065
-117,380	-103,373	0,068	0,012
-116,366	-160,687	-0,055	-0,002
-115,351	238,068	-0,137	-0,165
-114,337	-35,108	0,121	-0,047
-113,322	338,250	0,046	-0,064
-112,307	326,677	0,064	0,089
-111,293	170,699	0,153	0,158
-110,278	283,146	0,020	-0,025
-109,264	-200,000	-0,011	0,153
-108,249	-102,428	0,016	-0,003
-107,234	800,000	0,097	-0,208
-106,220	-200,000	0,014	0,079
-105,205	-200,000	0,033	0,163
-104,191	-22,303	0,103	-0,045
-103,176	-200,000	0,010	-0,107
-102,162	-74,102	-0,201	0,052
-101,147	-200,000	0,004	-0,045
-100,132	293,026	-0,103	-0,136
-99,118	628,763	0,114	-0,208
-98,103	-200,000	-0,010	0,077
-97,089	268,464	-0,045	-0,057
-96,074	237,809	0,048	0,057
-95,059	-159,016	-0,053	0,002
-94,045	-200,000	-0,006	-0,119
-93,030	-53,752	-0,113	0,037
-92,016	-200,000	0,025	-0,095
-91,001	-200,000	-0,021	-0,080
-89,986	655,800	0,059	0,109
-88,972	47,370	-0,047	0,032
-87,957	-200,000	-0,014	-0,071
-86,943	54,468	-0,026	0,018
-85,928	-200,000	0,013	-0,150
-84,913	36,711	0,065	0,041
-83,899	18,204	0,089	-0,051
-82,884	84,613	-0,083	0,065
-81,870	205,530	-0,119	0,133
-80,855	-200,000	0,026	-0,126
-79,840	-62,236	-0,056	0,017
-78,826	100,065	0,067	0,056
-77,811	50,080	-0,085	0,058
-76,797	-108,892	0,064	-0,010
-75,782	126,644	0,088	-0,080
-74,767	800,000	-0,016	0,034
-73,753	-200,000	-0,036	-0,144
-72,738	-200,000	-0,002	0,014
-71,724	-200,000	-0,001	-0,005
-70,709	-200,000	0,018	0,000
-69,694	-200,000	-0,015	-0,070
-68,680	59,369	-0,040	-0,028
-67,665	309,944	0,038	-0,051
-66,651	215,582	-0,054	0,062
-65,636	131,416	-0,110	-0,102
-64,622	-48,760	-0,068	-0,023
-63,607	-48,168	-0,041	0,014
-62,592	-30,340	-0,158	-0,064
-61,578	135,154	-0,052	0,048
-60,563	20,462	0,099	0,057
-59,549	-33,046	-0,027	0,011
-58,534	70,839	-2,552	-1,896
-57,519	-1,415	0,530	-0,268
-56,505	-200,000	-1,687	-5,542
-55,490	420,348	1,138	1,757
-54,476	800,000	5,152	11,502
-53,461	-200,000	21,867	343,455
-52,446	800,000	761,009	2309,033
-51,432	518,065	1653,444	2790,064
-50,417	103,938	1618,553	1365,894
-49,403	73,631	1273,724	957,419
-48,388	25,409	1022,166	608,913
-47,373	19,151	988,651	568,219
-46,359	13,449	975,735	542,038
-45,344	9,387	972,432	526,824
-44,330	9,840	970,372	527,176
-43,315	8,765	968,752	522,748
-42,300	8,795	967,221	521,997
-41,286	8,786	966,248	521,421
-40,271	8,695	965,310	520,599
-39,257	8,713	964,728	520,321
-38,242	8,686	963,817	519,721
-37,227	8,651	962,877	519,079
-36,213	8,713	961,972	518,775
-35,198	8,685	961,231	518,264
-34,184	8,786	960,318	518,079
-33,169	8,729	959,184	517,260
-32,154	8,760	958,362	516,897
-31,140	8,832	957,393	516,588
-30,125	8,748	956,678	515,908
-29,111	8,764	955,919	515,533
-28,096	8,756	955,344	515,176
-27,082	8,801	954,595	514,898
-26,067	8,709	953,986	514,252
-25,052	8,687	953,239	513,756
-24,038	8,689	952,440	513,313
-23,023	8,666	951,889	512,919
-22,009	8,745	951,164	512,764
-20,994	8,767	950,630	512,525
-19,979	8,734	950,164	512,149
-18,965	8,767	949,332	511,785
-17,950	8,705	949,012	511,394
-16,936	8,645	948,314	510,803
-15,921	8,649	947,510	510,364
-14,906	8,624	946,585	509,766
-13,892	8,624	946,084	509,475
-12,877	8,600	945,345	508,979
-11,863	8,593	944,719	508,602
-10,848	8,602	944,129	508,291
-9,833	8,706	943,739	508,393
-8,819	8,665	943,153	507,927
-7,804	8,618	942,485	507,397
-6,790	8,614	941,930	507,067
-5,775	8,692	941,284	506,947
-4,760	8,604	940,901	506,439
-3,746	8,657	939,922	506,060
-2,731	8,502	939,408	505,273
-1,717	8,496	938,770	504,888
-0,702	8,471	938,110	504,436
0,313	8,327	937,393	504,355
1,327	11,691	935,264	513,811
2,342	20,417	783,854	453,620
3,356	15,502	450,464	253,223
4,371	-10,698	313,486	148,267
5,386	-14,661	295,865	135,899
6,400	-16,652	289,717	131,083
7,415	-16,752	287,075	129,778
8,429	-17,457	285,275	128,262
9,444	-17,465	284,468	127,881
10,459	-17,363	283,832	127,682
11,473	-17,315	283,086	127,382
12,488	-17,377	282,688	127,132
13,502	-17,499	282,211	126,788
14,517	-17,316	281,702	126,725
15,531	-17,388	281,466	126,538
16,546	-17,256	280,818	126,362
17,561	-17,266	280,316	126,115
18,575	-17,273	280,131	126,014
19,590	-17,436	279,915	125,749
20,604	-17,100	279,460	125,856
21,619	-17,243	279,139	125,563
22,634	-17,145	278,699	125,447
23,648	-17,365	278,593	125,178
24,663	-17,167	278,151	125,157
25,677	-17,138	277,941	125,079
26,692	-17,200	277,673	124,889
27,707	-17,250	277,423	124,717
28,721	-17,166	277,057	124,622
29,736	-17,339	276,905	124,378
30,750	-17,370	276,664	124,229
31,765	-17,206	276,397	124,254
32,780	-17,312	276,159	124,035
33,794	-17,066	275,805	124,098
34,809	-17,088	275,541	123,947
35,823	-17,260	275,260	123,647
36,838	-17,275	274,993	123,502
37,853	-17,349	274,758	123,316
38,867	-17,154	274,656	123,443
39,882	-17,273	274,438	123,223
40,896	-17,255	274,126	123,088
41,911	-17,143	273,825	123,047
42,926	-17,216	273,565	122,850
43,940	-17,273	273,426	122,724
44,955	-17,241	273,161	122,624
45,969	-17,258	272,889	122,475
46,984	-16,979	272,777	122,674
47,999	-17,079	272,440	122,418
49,013	-17,038	272,342	122,402
50,028	-17,201	272,035	122,101
51,042	-17,104	271,874	122,108
52,057	-17,133	271,500	121,902
53,071	-17,056	271,325	121,884
54,086	-17,168	271,241	121,732
55,101	-17,134	271,019	121,653
56,115	-17,297	270,838	121,410
57,130	-17,325	270,608	121,270
58,144	-17,164	270,153	121,204
59,159	-17,354	269,812	120,865
60,174	-17,359	269,743	120,819
61,188	-17,221	269,506	120,829
62,203	-17,114	269,223	120,789
63,217	-17,066	268,902	120,679
64,232	-16,994	268,807	120,692
65,247	-17,312	268,692	120,337
66,261	-17,344	268,445	120,187
67,276	-17,150	268,050	120,177
68,290	-17,283	268,003	120,024
69,305	-17,230	267,850	119,993
70,320	-17,197	267,439	119,828
71,334	-17,081	267,250	119,838
72,349	-17,213	266,991	119,591
73,363	-17,090	266,806	119,610
74,378	-17,298	266,697	119,360
75,393	-17,020	266,241	119,399
76,407	-17,234	266,180	119,166
77,422	-17,082	265,840	119,142
78,436	-17,221	265,710	118,946
79,451	-17,219	265,394	118,796
80,466	-17,068	265,236	118,851
81,480	-17,094	264,918	118,675
82,495	-16,983	264,601	118,623
83,509	-17,087	264,588	118,512
84,524	-17,130	264,365	118,363
85,539	-17,052	264,180	118,340
86,553	-17,017	264,025	118,292
87,568	-17,163	263,743	118,023
88,582	-17,267	263,573	117,843
89,597	-17,104	263,339	117,875
90,611	-17,107	263,124	117,765
91,626	-17,038	262,807	117,674
92,641	-17,119	262,732	117,558
93,655	-16,916	262,511	117,630
94,670	-17,050	262,201	117,361
95,684	-17,205	262,017	117,130
96,699	-17,160	261,957	117,133
97,714	-17,016	261,728	117,148
98,728	-17,089	261,486	116,964
99,743	-16,979	261,208	116,927
100,757	-17,158	261,028	116,677
101,772	-17,112	260,753	116,585
102,787	-16,970	260,636	116,648
103,801	-17,181	260,503	116,391
104,816	-17,316	260,182	116,118
105,830	-17,206	260,156	116,193
106,845	-17,033	259,817	116,184
107,860	-17,076	259,714	116,089
108,874	-17,117	259,391	115,899
109,889	-17,236	259,227	115,710
110,903	-17,162	258,983	115,656
111,918	-17,309	258,988	115,519
112,933	-16,932	258,550	115,645
113,947	-17,195	258,544	115,401
114,962	-17,174	258,014	115,172
115,976	-17,197	257,972	115,123
116,991	-17,246	257,842	115,012
118,006	-17,151	257,735	115,036
119,020	-17,140	257,514	114,937
120,035	-17,023	257,454	115,003
121,049	-17,016	257,016	114,804
122,064	-17,042	256,965	114,748
123,079	-17,134	256,755	114,563
124,093	-17,064	256,371	114,442
125,108	-17,184	256,302	114,297
126,122	-17,059	256,062	114,288
127,137	-16,978	255,934	114,292
128,151	-17,241	255,888	114,032
129,166	-17,038	255,538	114,042
130,181	-17,022	255,327	113,952
131,195	-17,264	255,197	113,674
132,210	-17,026	254,846	113,713
133,224	-17,127	254,577	113,496
134,239	-16,927	254,448	113,601
135,254	-16,911	254,307	113,542
136,268	-17,053	254,079	113,307
137,283	-17,021	253,857	113,226
138,297	-16,955	253,632	113,173
139,312	-17,065	253,435	112,980
140,327	-17,091	253,243	112,861
141,341	-17,066	253,033	112,780
142,356	-17,054	252,890	112,716
143,370	-17,053	252,721	112,631
144,385	-16,988	252,341	112,508
145,400	-17,101	252,436	112,443
146,414	-17,154	252,195	112,281
147,429	-17,159	251,959	112,161
148,443	-17,136	251,803	112,101
149,458	-16,933	251,533	112,144
150,473	-17,081	251,394	111,947
151,487	-17,152	251,195	111,787
152,502	-17,041	251,077	111,819
153,516	-17,029	250,731	111,665
154,531	-16,889	250,630	111,730
155,546	-16,925	250,477	111,621
156,560	-17,080	250,246	111,376
157,575	-17,004	250,102	111,367
158,589	-17,009	249,787	111,213
159,604	-17,166	249,740	111,049
160,619	-16,985	249,505	111,087
161,633	-17,111	249,409	110,928
162,648	-16,931	249,124	110,943
163,662	-16,969	249,055	110,871
164,677	-17,053	248,844	110,697
165,692	-16,934	248,558	110,659
166,706	-17,028	248,551	110,567
167,721	-16,931	248,198	110,481
168,735	-16,869	248,048	110,457
169,750	-16,807	247,934	110,448
170,764	-17,013	247,920	110,260
171,779	-16,800	247,823	110,385
172,794	-16,948	247,534	110,123
173,808	-17,322	247,494	109,782
174,823	-16,914	247,031	109,908
175,837	-17,056	246,980	109,756
176,852	-16,987	246,867	109,754
177,867	-17,059	246,658	109,592
178,881	-17,196	246,634	109,457
179,896	-17,004	246,296	109,457
180,910	-17,096	246,134	109,299
181,925	-16,991	245,894	109,269
182,940	-16,801	245,673	109,319
183,954	-17,108	245,634	109,037
184,969	-17,070	245,487	108,994
185,983	-17,106	245,211	108,831
186,998	-16,784	244,962	108,978
188,013	-17,029	244,911	108,743
189,027	-16,991	244,724	108,681
190,042	-16,912	244,427	108,605
191,056	-17,132	244,419	108,411
192,071	-16,850	244,057	108,473
193,086	-16,838	243,900	108,403
194,100	-16,926	243,752	108,255
195,115	-17,032	243,726	108,147
196,129	-16,999	243,483	108,056
197,144	-17,002	243,197	107,918
198,159	-16,980	242,896	107,792
199,173	-16,945	242,867	107,799
200,188	-17,106	242,713	107,589
201,202	-17,013	242,456	107,541
202,217	-17,072	242,239	107,387
203,232	-16,976	242,048	107,371
204,246	-17,080	241,875	107,201
205,261	-17,156	241,688	107,046
206,275	-16,190	242,055	107,987
207,290	-11,302	243,849	112,795
208,304	-4,961	245,814	118,936
209,319	-2,059	246,526	121,670
210,334	-1,119	246,816	122,580
211,348	0,143	246,856	123,632
212,363	0,443	246,945	123,913
213,377	1,057	246,923	124,399
214,392	1,428	246,816	124,640
215,407	1,447	246,842	124,657
216,421	1,581	246,755	124,713
217,436	1,753	246,511	124,720
218,450	1,847	246,273	124,666
219,465	1,653	246,221	124,469
220,480	1,623	246,105	124,374
221,494	1,595	245,737	124,154
222,509	0,840	245,679	123,494
223,523	0,771	245,412	123,292
224,538	0,767	245,134	123,138
225,553	0,716	244,852	122,944
226,567	0,643	244,734	122,814
227,582	0,807	244,584	122,862
228,596	0,912	244,487	122,888
229,611	0,750	244,371	122,687
230,626	0,801	244,106	122,584
231,640	0,835	243,864	122,479
232,655	0,773	243,744	122,358
233,669	0,937	243,523	122,369
234,684	0,790	243,460	122,207
235,699	0,840	243,306	122,160
236,713	0,810	243,227	122,085
237,728	0,991	242,971	122,092
238,742	0,760	242,693	121,755
239,757	0,877	242,655	121,819
240,772	0,912	242,462	121,740
241,786	0,865	242,295	121,607
242,801	0,633	242,278	121,401
243,815	0,819	242,080	121,440
244,830	0,636	241,871	121,177
245,844	0,708	241,729	121,153
246,859	0,751	241,472	121,048
247,874	0,865	241,328	121,057
248,888	0,682	241,161	120,815
249,903	0,755	241,129	120,848
250,917	0,868	240,994	120,860
251,932	0,794	240,882	120,733
252,947	0,871	240,654	120,670
253,961	0,943	240,562	120,671
254,976	0,808	240,352	120,447
255,990	0,701	240,224	120,285
257,005	0,693	240,144	120,228
258,020	0,750	239,913	120,148
259,034	0,697	239,764	120,021
260,049	0,925	239,483	120,051
261,063	0,890	239,434	119,988
262,078	0,885	239,262	119,887
263,093	1,025	239,065	119,888
264,107	0,730	238,983	119,602
265,122	0,862	238,643	119,527
266,136	0,763	238,704	119,468
267,151	0,893	238,487	119,451
268,166	0,894	238,375	119,386
269,180	0,590	238,094	118,993
270,195	0,818	237,951	119,092
271,209	1,019	237,787	119,158
272,224	0,795	237,695	118,925
273,239	0,750	237,589	118,825
274,253	0,959	237,242	118,806
275,268	0,901	237,123	118,690
276,282	0,786	236,959	118,506
277,297	0,916	236,811	118,525
278,312	0,642	236,821	118,303
279,326	0,926	236,592	118,401
280,341	0,921	236,362	118,272
281,355	0,829	236,292	118,154
282,370	0,792	236,136	118,037
283,384	0,838	235,972	117,980
284,399	0,970	235,760	117,967
285,414	0,958	235,739	117,936
286,428	0,786	235,628	117,736
287,443	0,898	235,376	117,687
288,457	1,031	235,148	117,666
289,472	0,690	235,170	117,400
290,487	0,942	235,058	117,531
291,501	0,933	234,798	117,383
292,516	1,054	234,583	117,360
293,530	0,985	234,326	117,167
294,545	0,930	234,363	117,132
295,560	0,921	234,216	117,042
296,574	0,903	234,058	116,938
297,589	1,009	233,806	116,884
298,603	0,915	233,807	116,801
299,618	0,883	233,599	116,662
300,633	0,883	233,509	116,607
301,647	0,957	233,420	116,609
302,662	0,922	233,296	116,509
303,676	1,058	232,959	116,436
304,691	0,928	232,927	116,309
305,706	1,144	232,731	116,367
306,720	0,965	232,628	116,168
307,735	1,099	232,456	116,175
308,749	0,954	232,430	116,040
309,764	1,062	232,129	115,962
310,779	1,002	232,027	115,855
311,793	1,168	231,761	115,839
312,808	1,023	231,656	115,665
313,822	0,744	231,525	115,375
314,837	0,909	231,415	115,437
315,852	1,087	231,159	115,435
316,866	1,209	231,325	115,601
317,881	1,101	230,930	115,311
318,895	1,018	230,807	115,176
319,910	1,143	230,575	115,145
320,925	1,108	230,489	115,065
321,939	1,086	230,383	114,985
322,954	0,871	230,323	114,780
323,968	0,971	230,186	114,778
324,983	1,066	229,937	114,716
325,997	0,783	229,843	114,444
327,012	0,861	229,782	114,463
328,027	0,901	229,411	114,298
329,041	0,942	229,327	114,277
330,056	0,975	229,220	114,238
331,070	0,971	229,104	114,168
332,085	1,004	228,820	114,041
333,100	1,013	228,634	113,945
334,114	0,819	228,570	113,756
335,129	0,907	228,354	113,705
336,143	0,961	228,184	113,651
337,158	1,122	228,118	113,729
338,173	0,999	228,081	113,608
339,187	1,203	227,858	113,640
340,202	1,218	227,645	113,536
341,216	1,030	227,573	113,348
342,231	1,171	227,441	113,378
343,246	1,020	227,324	113,196
344,260	1,136	227,249	113,236
345,275	1,114	227,131	113,151
346,289	1,401	226,809	113,195
347,304	1,167	226,851	113,031
348,319	1,370	226,563	113,029
349,333	1,186	226,415	112,808
350,348	1,171	226,215	112,686
351,362	1,138	226,197	112,643
352,377	1,077	226,086	112,532
353,392	1,020	225,886	112,379
354,406	1,221	225,702	112,428
355,421	192,731	1312,067	1380,596
356,435	154,413	1444,291	1380,457
