DTS Sentinel unit serial number:	SN410029Multiplexer serial number:	ORYXHardware model number:	OX2-SRSoftware version number:	ORYX F/W v4,00 Oryx Data Collector v3.7.2.0data status	okinstallation	B5 Nyhavnadifferential loss correction	single-endedforward channel	channel 2reverse channel	N/Adate	2023/12/13time	08:27:13forward acquisition time	300,00reverse acquisition time	0,00gamma	499,1914k internal	0,3160k external	0,3160temperature offset calibration	1,0000default loss term (dB/km)	0,3820temperature slope calibration	1,0000multiplexer offset coefficient	1,0000multiplexer slope coefficient	1,0000fibre end	0,00T internal ref (°C)	13,63T ext. ref 1 (°C)	-2,75T ext. ref 2 (°C)	-3,03length (m)	temperature (°C)	Stokes	anti-Stokes-744,400	-41,183	0,102	-0,039
-743,385	-99,010	-0,178	-0,033
-742,371	184,646	0,055	0,060
-741,356	-109,881	-0,252	0,038
-740,342	-60,115	0,095	0,030
-739,327	-111,880	-0,376	0,055
-738,312	408,956	0,066	-0,103
-737,298	-10,603	-0,222	-0,108
-736,283	-82,197	0,035	0,008
-735,269	-19,789	-0,394	0,179
-734,254	-177,403	0,222	0,004
-733,239	-32,181	-0,601	-0,246
-732,225	183,261	0,118	0,129
-731,210	-200,000	0,007	0,115
-730,196	-133,267	0,061	0,006
-729,181	367,086	-0,033	0,049
-728,167	800,000	0,005	0,016
-727,152	324,455	0,006	0,008
-726,137	-28,437	-0,088	0,037
-725,123	-87,182	0,068	-0,015
-724,108	-18,242	-0,074	-0,034
-723,094	256,129	-0,098	0,124
-722,079	-29,193	-0,177	-0,074
-721,064	439,218	0,047	0,077
-720,050	311,515	-0,036	0,049
-719,035	499,339	-0,113	0,192
-718,021	800,000	0,035	-0,090
-717,006	-200,000	-0,006	-0,051
-715,991	82,066	-0,121	-0,096
-714,977	-9,882	0,067	-0,033
-713,962	771,938	0,027	-0,054
-712,948	48,614	0,154	-0,106
-711,933	800,000	-0,031	-0,098
-710,918	128,800	-0,074	-0,070
-709,904	-139,938	-0,044	0,003
-708,889	-185,378	-0,106	-0,001
-707,875	217,315	-0,069	-0,081
-706,860	-28,395	-0,084	0,036
-705,845	-200,000	-0,002	0,023
-704,831	-200,000	0,024	0,082
-703,816	-3,161	0,077	0,039
-702,802	61,153	-0,081	0,059
-701,787	9,608	-0,056	-0,031
-700,772	12,113	-0,053	0,030
-699,758	322,087	-0,069	-0,096
-698,743	368,066	0,111	0,165
-697,729	-44,867	0,152	0,056
-696,714	15,152	-0,018	-0,010
-695,699	-200,000	-0,017	-0,058
-694,685	135,104	-0,128	-0,123
-693,670	-34,099	-0,054	-0,022
-692,656	421,450	-0,011	-0,017
-691,641	-36,924	0,084	-0,033
-690,627	470,618	0,010	0,017
-689,612	-200,000	-0,008	0,126
-688,597	-200,000	-0,005	-0,056
-687,583	-91,934	-0,089	-0,018
-686,568	-200,000	-0,007	0,048
-685,554	800,000	0,013	0,030
-684,539	38,625	0,041	0,027
-683,524	188,768	-0,073	0,080
-682,510	-85,556	0,104	-0,024
-681,495	734,595	-0,051	-0,100
-680,481	38,465	0,036	-0,024
-679,466	617,115	-0,093	-0,173
-678,451	-200,000	0,003	0,025
-677,437	800,000	-0,024	-0,076
-676,422	-200,000	-0,025	0,087
-675,408	800,000	0,022	0,071
-674,393	-10,571	-0,069	-0,033
-673,378	597,288	-0,034	-0,062
-672,364	-157,967	0,076	-0,003
-671,349	-200,000	-0,026	-0,085
-670,335	-114,069	0,104	-0,015
-669,320	-200,000	-0,006	0,046
-668,305	-200,000	-0,005	0,076
-667,291	314,674	-0,057	0,079
-666,276	-193,175	-0,191	0,001
-665,262	255,696	0,055	0,069
-664,247	-35,329	-0,146	0,058
-663,232	-45,233	0,075	-0,027
-662,218	800,000	0,029	0,072
-661,203	-91,412	0,090	0,019
-660,189	-200,000	-0,032	0,132
-659,174	289,088	-0,088	-0,117
-658,159	-200,000	0,027	-0,131
-657,145	35,732	-0,103	-0,066
-656,130	-76,274	-0,108	-0,028
-655,116	129,300	-0,022	-0,020
-654,101	-30,789	0,019	-0,008
-653,086	93,843	-0,139	-0,116
-652,072	-116,735	-0,139	0,018
-651,057	263,801	0,052	-0,067
-650,043	800,000	-0,017	-0,046
-649,028	-116,960	-0,199	-0,026
-648,014	209,919	0,020	0,023
-646,999	-11,747	-0,017	0,008
-645,984	330,533	-0,033	0,047
-644,970	178,614	-0,034	0,037
-643,955	89,098	-0,058	-0,047
-642,941	-19,593	0,024	-0,011
-641,926	78,059	-0,099	-0,077
-640,911	-200,000	0,018	0,075
-639,897	-40,906	0,119	0,045
-638,882	-116,353	0,144	-0,019
-637,868	-200,000	0,015	0,049
-636,853	-28,358	-0,145	-0,061
-635,838	800,000	-0,018	-0,046
-634,824	-65,056	0,060	0,018
-633,809	-200,000	0,039	0,153
-632,795	17,559	-0,067	0,039
-631,780	59,910	0,037	-0,027
-630,765	120,225	-0,026	0,024
-629,751	-200,000	0,008	-0,074
-628,736	666,251	0,013	0,024
-627,722	-125,855	0,104	-0,011
-626,707	-75,269	-0,114	0,030
-625,692	-6,281	-0,070	-0,035
-624,678	55,634	0,055	0,039
-623,663	125,018	0,080	-0,074
-622,649	-107,078	-0,226	0,036
-621,634	250,213	0,091	-0,114
-620,619	553,738	-0,048	-0,085
-619,605	183,038	-0,019	0,021
-618,590	92,853	0,082	-0,068
-617,576	-117,662	0,040	0,005
-616,561	800,000	0,064	0,140
-615,546	-87,088	-0,155	0,034
-614,532	151,414	-0,131	-0,131
-613,517	230,294	-0,059	0,070
-612,503	-51,768	0,105	-0,036
-611,488	-200,000	-0,023	0,088
-610,474	800,000	-0,019	0,048
-609,459	-183,819	-0,061	-0,001
-608,444	-99,833	-0,081	-0,015
-607,430	-79,655	-0,039	-0,009
-606,415	-76,398	-0,108	0,028
-605,401	-17,262	-0,093	0,043
-604,386	446,392	0,018	-0,029
-603,371	183,568	0,020	0,021
-602,357	395,697	-0,045	-0,068
-601,342	-200,000	-0,007	0,046
-600,328	-200,000	0,010	-0,050
-599,313	75,850	-0,042	0,032
-598,298	29,905	0,086	0,054
-597,284	102,907	-0,041	-0,035
-596,269	245,061	-0,066	-0,081
-595,255	-26,920	-0,057	0,024
-594,240	743,443	-0,046	0,090
-593,225	-103,053	-0,137	0,024
-592,211	-200,000	0,004	-0,022
-591,196	-200,000	0,016	-0,100
-590,182	124,800	0,070	-0,065
-589,167	-183,168	0,162	-0,002
-588,152	158,638	0,120	0,122
-587,138	-127,913	-0,180	0,019
-586,123	800,000	0,013	0,036
-585,109	244,573	0,118	-0,146
-584,094	29,318	0,047	0,029
-583,079	-142,814	0,041	-0,003
-582,065	800,000	-0,035	0,072
-581,050	800,000	0,030	0,068
-580,036	-200,000	-0,009	0,096
-579,021	49,415	0,094	0,065
-578,006	172,561	0,039	0,041
-576,992	-200,000	0,023	0,132
-575,977	-200,000	-0,002	-0,064
-574,963	109,177	-0,057	0,050
-573,948	-200,000	-0,008	-0,032
-572,934	560,326	0,008	-0,014
-571,919	-200,000	0,023	-0,112
-570,904	81,872	-0,034	-0,027
-569,890	109,378	-0,104	-0,091
-568,875	123,313	0,029	0,027
-567,861	800,000	0,013	-0,039
-566,846	-62,952	0,067	0,020
-565,831	95,765	0,048	0,040
-564,817	-50,441	-0,112	-0,038
-563,802	-200,000	0,002	-0,095
-562,788	-200,000	-0,010	-0,123
-561,773	-156,652	0,105	0,005
-560,758	106,408	0,023	0,020
-559,744	228,142	0,067	0,080
-558,729	-200,000	-0,003	0,020
-557,715	69,047	-0,121	-0,091
-556,700	-52,628	0,086	0,029
-555,685	800,000	-0,074	-0,162
-554,671	102,514	-0,092	-0,079
-553,656	-51,333	-0,106	0,036
-552,642	800,000	0,031	0,093
-551,627	800,000	-0,035	0,078
-550,612	203,205	0,054	-0,061
-549,598	-200,000	-0,006	-0,134
-548,583	67,831	0,055	-0,041
-547,569	-152,439	0,039	-0,002
-546,554	419,260	0,062	-0,098
-545,539	-200,000	-0,011	0,053
-544,525	772,593	-0,024	0,048
-543,510	-83,465	-0,097	-0,023
-542,496	800,000	0,004	-0,011
-541,481	-57,228	-0,054	-0,017
-540,466	-19,009	0,078	0,035
-539,452	86,937	0,074	-0,060
-538,437	99,897	-0,167	0,141
-537,423	-23,192	-0,095	-0,042
-536,408	213,500	0,059	0,068
-535,393	-200,000	-0,021	-0,149
-534,379	-38,390	0,068	-0,026
-533,364	-83,793	0,043	0,010
-532,350	372,238	0,016	-0,024
-531,335	470,135	0,069	0,113
-530,321	-130,870	0,067	-0,006
-529,306	267,165	-0,041	-0,053
-528,291	-125,858	0,018	0,002
-527,277	800,000	-0,019	0,043
-526,262	800,000	-0,017	-0,040
-525,248	-34,049	-0,014	0,006
-524,233	203,552	0,037	0,042
-523,218	-90,530	-0,151	0,032
-522,204	-132,052	-0,152	-0,014
-521,189	-200,000	0,002	-0,059
-520,175	176,674	-0,025	-0,027
-519,160	-44,036	0,156	-0,057
-518,145	138,204	-0,047	0,045
-517,131	800,000	-0,047	-0,098
-516,116	-200,000	-0,025	0,092
-515,102	703,738	-0,037	-0,072
-514,087	800,000	0,034	0,092
-513,072	800,000	-0,038	-0,112
-512,058	-200,000	-0,034	0,000
-511,043	-82,618	0,099	0,023
-510,029	-200,000	0,039	0,128
-509,014	360,577	0,072	0,105
-507,999	69,676	0,043	-0,032
-506,985	800,000	0,017	0,055
-505,970	-64,634	-0,081	-0,024
-504,956	347,295	0,042	-0,061
-503,941	13,169	-0,050	0,028
-502,926	130,195	0,034	0,032
-501,912	-19,135	0,219	0,099
-500,897	311,788	0,023	-0,032
-499,883	800,000	0,018	-0,047
-498,868	-200,000	0,001	-0,028
-497,853	31,458	-0,050	0,031
-496,839	31,909	-0,104	-0,065
-495,824	-107,614	0,055	-0,009
-494,810	-19,619	0,086	-0,039
-493,795	-82,420	0,069	0,016
-492,781	800,000	-0,043	-0,099
-491,766	-136,558	0,030	0,002
-490,751	-200,000	-0,012	0,074
-489,737	733,487	0,021	-0,042
-488,722	-129,850	-0,069	-0,007
-487,708	-200,000	0,001	0,129
-486,693	800,000	0,040	0,090
-485,678	-19,382	-0,021	-0,010
-484,664	-200,000	0,016	-0,116
-483,649	-77,335	-0,072	0,018
-482,635	62,012	0,066	-0,048
-481,620	263,778	-0,038	-0,048
-480,605	800,000	0,030	-0,091
-479,591	176,462	0,059	-0,063
-478,576	-200,000	-0,006	-0,065
-477,562	275,020	0,101	-0,130
-476,547	-200,000	-0,023	-0,094
-475,532	208,352	-0,083	0,095
-474,518	-18,699	0,084	0,038
-473,503	280,594	0,050	-0,066
-472,489	182,423	0,053	0,057
-471,474	30,689	0,068	-0,043
-470,459	-200,000	-0,004	-0,069
-469,445	-200,000	0,037	-0,174
-468,430	-80,479	-0,121	0,029
-467,416	137,905	0,065	-0,062
-466,401	211,274	0,056	0,065
-465,386	28,350	-0,040	0,025
-464,372	18,618	0,133	0,077
-463,357	-74,113	-0,052	0,014
-462,343	800,000	-0,045	-0,103
-461,328	800,000	0,032	-0,091
-460,313	-200,000	-0,014	0,086
-459,299	-200,000	0,005	-0,032
-458,284	-50,380	-0,035	-0,012
-457,270	-200,000	-0,015	0,095
-456,255	-114,589	0,238	-0,033
-455,241	-82,177	-0,091	0,022
-454,226	-54,437	-0,062	0,020
-453,211	800,000	0,043	0,136
-452,197	-43,047	0,070	0,026
-451,182	-17,437	0,140	-0,064
-450,168	-151,002	0,083	0,004
-449,153	53,447	-0,110	0,077
-448,138	-55,606	-0,037	-0,012
-447,124	24,071	0,118	0,071
-446,109	-200,000	-0,005	0,077
-445,095	376,812	0,063	0,094
-444,080	498,286	0,086	0,145
-443,065	440,694	-0,064	-0,101
-442,051	-200,000	-0,005	0,105
-441,036	31,140	0,052	-0,032
-440,022	-78,417	-0,051	0,013
-439,007	286,977	-0,055	0,072
-437,992	251,454	0,109	0,136
-436,978	770,240	-0,010	-0,019
-435,963	-200,000	-0,042	-0,199
-434,949	272,578	0,038	0,049
-433,934	-200,000	0,008	-0,094
-432,919	800,000	-0,041	-0,094
-431,905	319,139	0,011	-0,015
-430,890	-200,000	0,002	0,061
-429,876	176,578	-0,010	0,010
-428,861	41,917	0,102	-0,067
-427,846	-104,165	-0,052	0,009
-426,832	-200,000	0,027	-0,123
-425,817	467,857	0,086	-0,141
-424,803	227,568	0,057	0,068
-423,788	-69,666	0,062	-0,017
-422,773	438,670	-0,065	0,104
-421,759	-134,142	0,064	0,006
-420,744	-143,072	0,058	0,004
-419,730	-56,282	-0,104	-0,033
-418,715	800,000	-0,049	-0,126
-417,701	679,822	-0,046	0,088
-416,686	-82,103	-0,085	-0,020
-415,671	-30,751	0,100	-0,041
-414,657	70,801	-0,079	0,060
-413,642	197,062	-0,025	-0,028
-412,628	-72,277	-0,008	0,002
-411,613	10,701	-0,039	0,022
-410,598	-200,000	-0,007	-0,108
-409,584	143,769	-0,081	0,078
-408,569	800,000	0,023	-0,067
-407,555	-26,099	0,083	0,035
-406,540	800,000	0,078	0,219
-405,525	-55,124	-0,037	-0,012
-404,511	-200,000	-0,007	-0,096
-403,496	-200,000	-0,019	-0,120
-402,482	779,839	-0,039	-0,078
-401,467	-115,102	0,042	-0,006
-400,452	-78,021	-0,090	-0,022
-399,438	10,251	-0,159	-0,088
-398,423	-200,000	-0,011	-0,134
-397,409	-41,745	-0,020	-0,007
-396,394	-38,190	-0,074	0,028
-395,379	-159,787	0,067	0,003
-394,365	13,582	0,134	-0,075
-393,350	3,004	0,019	-0,010
-392,336	-122,376	0,043	0,005
-391,321	-200,000	0,036	0,167
-390,306	-22,023	0,049	-0,022
-389,292	-76,755	-0,111	0,028
-388,277	476,598	0,052	0,085
-387,263	-200,000	0,031	-0,155
-386,248	186,429	-0,039	0,042
-385,233	-200,000	0,022	-0,107
-384,219	-120,669	-0,100	-0,012
-383,204	15,557	-0,043	-0,024
-382,190	-6,958	-0,104	0,051
-381,175	-131,700	0,154	0,015
-380,160	-200,000	-0,007	0,084
-379,146	-40,700	0,166	0,062
-378,131	-200,000	0,027	-0,159
-377,117	-200,000	0,016	-0,051
-376,102	119,149	-0,038	-0,034
-375,088	440,795	0,007	0,011
-374,073	-200,000	0,006	-0,070
-373,058	800,000	0,039	-0,100
-372,044	-200,000	0,001	-0,065
-371,029	181,090	0,015	-0,016
-370,015	292,997	-0,029	0,038
-369,000	18,608	-0,140	0,081
-367,985	155,974	0,029	0,029
-366,971	-200,000	-0,021	-0,134
-365,956	156,031	0,074	-0,074
-364,942	153,500	0,113	0,112
-363,927	-87,389	-0,082	-0,018
-362,912	-113,227	0,080	0,011
-361,898	-135,637	0,091	-0,008
-360,883	-200,000	-0,011	0,120
-359,869	7,530	0,066	0,036
-358,854	138,784	-0,041	-0,039
-357,839	418,193	-0,049	-0,076
-356,825	-17,978	0,147	-0,066
-355,810	-26,321	-0,064	-0,027
-354,796	-82,904	-0,149	0,035
-353,781	120,433	0,028	-0,025
-352,766	-47,251	0,032	0,011
-351,752	-11,736	0,083	-0,039
-350,737	34,368	-0,201	0,127
-349,723	72,415	0,046	-0,035
-348,708	122,805	0,046	-0,042
-347,693	270,528	0,019	-0,024
-346,679	66,593	-0,054	-0,039
-345,664	800,000	-0,044	0,098
-344,650	20,849	-0,075	-0,044
-343,635	-46,094	0,072	-0,025
-342,620	-120,476	0,110	0,013
-341,606	-81,955	0,048	-0,011
-340,591	419,304	0,052	0,081
-339,577	27,765	-0,058	-0,035
-338,562	-99,981	0,012	0,002
-337,548	800,000	0,030	-0,086
-336,533	-200,000	-0,004	0,035
-335,518	69,159	0,029	0,021
-334,504	-109,191	0,155	0,024
-333,489	453,694	0,038	0,061
-332,475	-200,000	-0,055	-0,182
-331,460	-43,978	-0,099	-0,036
-330,445	2,044	-0,133	0,070
-329,431	746,437	0,035	0,068
-328,416	-160,916	0,140	-0,005
-327,402	-200,000	0,012	0,044
-326,387	171,991	-0,037	-0,038
-325,372	-28,671	0,056	-0,023
-324,358	-200,000	0,005	-0,192
-323,343	-200,000	0,006	-0,067
-322,329	-200,000	0,004	0,157
-321,314	-200,000	0,007	-0,043
-320,299	394,027	0,066	0,100
-319,285	800,000	-0,034	0,089
-318,270	-200,000	-0,012	-0,097
-317,256	480,412	-0,073	-0,120
-316,241	800,000	0,044	0,126
-315,226	-81,123	0,071	-0,017
-314,212	800,000	-0,058	0,128
-313,197	427,136	0,037	0,057
-312,183	136,318	0,011	0,010
-311,168	336,982	-0,054	-0,077
-310,153	188,341	0,117	-0,127
-309,139	145,855	-0,108	-0,105
-308,124	800,000	-0,061	0,130
-307,110	644,871	-0,046	-0,085
-306,095	-200,000	-0,005	-0,032
-305,080	-26,549	0,085	-0,036
-304,066	800,000	0,021	-0,053
-303,051	69,388	0,047	0,035
-302,037	800,000	0,048	-0,100
-301,022	1,050	-0,103	0,054
-300,008	-200,000	0,017	0,063
-298,993	464,090	0,044	-0,072
-297,978	-93,281	-0,150	-0,030
-296,964	185,717	0,068	0,073
-295,949	800,000	-0,019	0,052
-294,935	-130,358	0,081	0,008
-293,920	800,000	-0,033	-0,085
-292,905	-200,000	0,036	0,136
-291,891	-132,158	0,098	0,009
-290,876	136,443	0,082	-0,077
-289,862	282,186	-0,088	0,115
-288,847	14,142	-0,091	0,051
-287,832	-200,000	-0,003	0,014
-286,818	1,785	-0,055	-0,029
-285,803	470,911	-0,043	0,070
-284,789	-30,233	0,129	0,053
-283,774	159,157	-0,070	-0,071
-282,759	-200,000	0,011	-0,089
-281,745	-200,000	-0,002	0,028
-280,730	800,000	-0,022	0,058
-279,716	733,542	0,066	-0,128
-278,701	-76,382	0,007	-0,002
-277,686	-116,760	0,107	-0,014
-276,672	-146,881	0,028	-0,002
-275,657	-34,853	0,037	0,015
-274,643	-200,000	-0,006	-0,049
-273,628	207,979	-0,052	0,059
-272,613	618,205	-0,049	-0,089
-271,599	215,322	0,069	-0,080
-270,584	-107,829	0,031	-0,005
-269,570	-200,000	0,001	-0,106
-268,555	-166,226	-0,165	-0,005
-267,540	-186,688	0,092	0,001
-266,526	-200,000	-0,018	0,102
-265,511	174,914	-0,021	-0,022
-264,497	-200,000	0,030	0,253
-263,482	800,000	-0,028	0,071
-262,467	-13,226	0,124	-0,058
-261,453	-117,451	-0,126	0,016
-260,438	-200,000	-0,009	-0,070
-259,424	179,780	0,053	-0,056
-258,409	396,283	0,023	0,035
-257,395	-138,479	-0,026	-0,002
-256,380	114,572	0,146	0,129
-255,365	-136,729	-0,095	0,008
-254,351	492,261	0,008	-0,014
-253,336	121,994	-0,080	0,072
-252,322	29,641	-0,059	-0,036
-251,307	800,000	0,035	0,077
-250,292	-63,913	-0,073	-0,021
-249,278	68,159	-0,114	-0,084
-248,263	100,162	0,115	0,096
-247,249	-81,821	-0,033	-0,008
-246,234	120,713	-0,026	0,023
-245,219	-170,049	0,097	-0,002
-244,205	364,848	-0,046	-0,067
-243,190	-125,281	0,015	-0,002
-242,176	-7,653	0,020	-0,010
-241,161	800,000	-0,023	0,068
-240,146	-200,000	0,013	0,138
-239,132	-200,000	-0,012	0,142
-238,117	-200,000	0,041	-0,211
-237,103	226,126	-0,069	-0,081
-236,088	-200,000	0,020	-0,066
-235,073	46,867	-0,129	-0,086
-234,059	294,322	0,054	-0,071
-233,044	-116,673	0,056	-0,007
-232,030	-200,000	0,010	-0,085
-231,015	-200,000	0,029	-0,095
-230,000	-162,530	-0,126	-0,004
-228,986	-200,000	-0,003	-0,038
-227,971	800,000	-0,036	-0,081
-226,957	14,908	0,079	0,045
-225,942	-15,267	0,023	-0,011
-224,927	-128,003	-0,098	-0,010
-223,913	-200,000	0,011	0,056
-222,898	-200,000	-0,022	-0,112
-221,884	-200,000	0,020	-0,097
-220,869	277,477	0,078	0,100
-219,855	-200,000	-0,065	0,208
-218,840	-200,000	0,022	0,127
-217,825	-200,000	0,019	0,106
-216,811	-77,754	-0,054	-0,013
-215,796	44,374	-0,078	0,052
-214,782	800,000	-0,021	0,058
-213,767	-200,000	-0,006	-0,153
-212,752	-200,000	0,005	0,054
-211,738	-200,000	-0,027	0,097
-210,723	800,000	0,008	0,024
-209,709	54,828	-0,089	-0,062
-208,694	-40,339	0,061	-0,023
-207,679	466,033	0,049	0,079
-206,665	-200,000	-0,007	0,051
-205,650	-200,000	-0,000	0,065
-204,636	-200,000	0,006	0,129
-203,621	298,603	-0,066	0,088
-202,606	-143,244	0,047	0,003
-201,592	-25,628	0,013	-0,006
-200,577	-200,000	-0,011	0,035
-199,563	10,616	-0,019	-0,011
-198,548	-28,314	0,140	-0,058
-197,533	-136,886	-0,159	0,013
-196,519	-200,000	0,026	0,101
-195,504	-200,000	-0,022	0,182
-194,490	43,869	-0,076	-0,050
-193,475	512,419	-0,046	0,077
-192,460	-200,000	-0,015	0,068
-191,446	78,403	0,031	-0,024
-190,431	-200,000	-0,031	0,110
-189,417	-1,192	0,122	0,062
-188,402	800,000	-0,058	-0,157
-187,387	129,146	0,088	-0,081
-186,373	-200,000	0,001	-0,032
-185,358	300,428	-0,058	-0,078
-184,344	800,000	0,042	-0,125
-183,329	800,000	-0,041	0,105
-182,315	-19,374	0,076	0,034
-181,300	-33,321	0,119	0,047
-180,285	800,000	0,042	-0,134
-179,271	83,630	-0,042	0,033
-178,256	322,650	-0,019	0,026
-177,242	-200,000	0,003	0,031
-176,227	609,446	0,060	0,109
-175,212	-127,344	-0,112	0,012
-174,198	-200,000	-0,029	0,117
-173,183	65,466	-0,119	-0,087
-172,169	314,567	-0,047	-0,064
-171,154	800,000	-0,053	-0,121
-170,139	-52,581	0,031	-0,010
-169,125	269,760	-0,077	0,098
-168,110	-200,000	-0,046	0,180
-167,096	-145,101	-0,106	0,007
-166,081	143,943	0,084	0,081
-165,066	78,649	-0,109	-0,084
-164,052	574,985	-0,044	0,078
-163,037	65,824	0,085	-0,062
-162,023	-200,000	-0,041	0,177
-161,008	-98,505	0,087	0,016
-159,993	-200,000	-0,046	0,184
-158,979	84,449	-0,118	-0,093
-157,964	-145,552	-0,008	-0,000
-156,950	151,186	0,082	-0,080
-155,935	475,964	-0,080	0,130
-154,920	-200,000	-0,030	0,140
-153,906	301,457	0,078	-0,104
-152,891	209,461	-0,035	0,039
-151,877	-200,000	-0,005	0,163
-150,862	81,226	0,132	-0,103
-149,847	227,287	0,109	0,128
-148,833	-3,977	0,073	0,036
-147,818	-37,697	0,062	0,024
-146,804	-200,000	0,005	0,131
-145,789	175,655	-0,087	0,091
-144,775	115,649	-0,008	-0,007
-143,760	13,179	-0,081	-0,045
-142,745	756,463	-0,032	-0,062
-141,731	-71,300	0,147	0,039
-140,716	-57,620	-0,059	-0,019
-139,702	698,500	-0,021	0,041
-138,687	-200,000	0,003	0,033
-137,672	-200,000	0,015	0,062
-136,658	-4,757	-0,144	-0,071
-135,643	-158,655	0,041	-0,002
-134,629	-2,551	0,094	0,047
-133,614	800,000	0,061	-0,152
-132,599	-200,000	-0,008	0,075
-131,585	-173,837	0,034	-0,001
-130,570	-39,469	-0,050	0,019
-129,556	-73,082	-0,112	0,029
-128,541	-26,068	-0,089	-0,037
-127,526	-200,000	-0,008	0,109
-126,512	-38,130	-0,150	0,057
-125,497	-200,000	0,005	0,081
-124,483	-170,709	-0,084	-0,002
-123,468	-139,846	0,073	-0,005
-122,453	-200,000	0,008	-0,126
-121,439	800,000	0,039	-0,079
-120,424	-158,441	-0,117	0,005
-119,410	-68,323	-0,143	0,040
-118,395	-200,000	-0,007	-0,072
-117,380	189,552	0,066	-0,072
-116,366	800,000	0,041	0,124
-115,351	-200,000	0,005	-0,055
-114,337	713,074	0,044	-0,085
-113,322	345,149	-0,056	-0,079
-112,307	-84,876	-0,087	-0,019
-111,293	267,227	0,041	0,052
-110,278	-200,000	0,006	0,020
-109,264	684,032	0,030	-0,056
-108,249	800,000	0,014	-0,033
-107,234	800,000	-0,055	-0,161
-106,220	165,717	0,045	-0,045
-105,205	-124,241	-0,075	0,008
-104,191	366,814	-0,083	-0,120
-103,176	-200,000	0,002	-0,154
-102,162	-200,000	-0,004	0,087
-101,147	800,000	0,035	-0,095
-100,132	49,239	-0,164	-0,111
-99,118	103,528	-0,038	0,032
-98,103	416,127	0,077	-0,119
-97,089	198,957	-0,068	0,075
-96,074	-148,367	0,052	0,003
-95,059	-200,000	0,005	0,051
-94,045	-68,630	-0,140	-0,039
-93,030	-200,000	0,012	-0,041
-92,016	-87,579	-0,137	-0,030
-91,001	527,588	0,043	0,073
-89,986	-200,000	-0,001	0,077
-88,972	-200,000	-0,003	0,038
-87,957	800,000	0,043	0,114
-86,943	93,360	-0,060	0,049
-85,928	-101,450	0,097	0,017
-84,913	327,077	0,010	-0,014
-83,899	48,720	-0,026	-0,017
-82,884	78,659	-0,040	0,031
-81,870	-23,160	0,086	-0,037
-80,855	-74,489	-0,123	-0,031
-79,840	2,989	0,098	-0,051
-78,826	89,609	0,060	-0,048
-77,811	518,858	0,083	-0,140
-76,797	110,216	-0,155	0,133
-75,782	498,593	0,036	-0,059
-74,767	498,584	0,052	0,086
-73,753	5,780	-0,075	-0,040
-72,738	-179,894	-0,127	-0,002
-71,724	37,197	-0,055	0,035
-70,709	-200,000	0,005	0,051
-69,694	800,000	0,022	-0,065
-68,680	-6,896	-0,043	0,021
-67,665	85,790	0,122	0,096
-66,651	61,900	-0,037	0,026
-65,636	76,953	-0,059	-0,045
-64,622	-200,000	0,050	-0,160
-63,607	-3,370	-0,091	-0,045
-62,592	-66,914	-0,082	0,023
-61,578	23,241	0,186	-0,109
-60,563	800,000	0,007	-0,017
-59,549	639,944	-0,077	0,141
-58,534	30,245	-2,110	-1,289
-57,519	800,000	-0,265	-0,733
-56,505	-200,000	-1,425	-5,124
-55,490	119,690	0,865	0,769
-54,476	800,000	5,406	11,912
-53,461	-200,000	18,678	318,631
-52,446	800,000	741,809	2335,677
-51,432	558,192	1657,523	2878,699
-50,417	111,086	1641,161	1417,173
-49,403	75,364	1291,134	975,872
-48,388	30,219	1031,903	630,192
-47,373	19,946	994,411	573,241
-46,359	17,347	982,105	557,561
-45,344	14,039	978,104	544,386
-44,330	14,323	976,550	544,434
-43,315	13,726	974,753	541,449
-42,300	13,679	973,600	540,634
-41,286	13,685	972,837	540,207
-40,271	13,683	971,639	539,516
-39,257	13,678	970,927	539,081
-38,242	13,670	970,059	538,552
-37,227	13,691	969,178	538,111
-36,213	13,657	968,305	537,495
-35,198	13,610	967,359	536,795
-34,184	13,669	966,523	536,500
-33,169	13,635	965,649	535,884
-32,154	13,662	964,726	535,440
-31,140	13,628	963,713	534,743
-30,125	13,648	963,152	534,477
-29,111	13,640	962,313	533,963
-28,096	13,606	961,772	533,533
-27,082	13,693	960,876	533,294
-26,067	13,677	960,262	532,883
-25,052	13,723	959,355	532,505
-24,038	13,650	958,792	531,937
-23,023	13,672	958,130	531,620
-22,009	13,670	957,532	531,260
-20,994	13,696	956,845	530,943
-19,979	13,698	956,188	530,561
-18,965	13,694	955,607	530,206
-17,950	13,667	955,035	529,781
-16,936	13,621	954,392	529,257
-15,921	13,616	953,717	528,843
-14,906	13,583	953,001	528,319
-13,892	13,549	952,409	527,861
-12,877	13,611	951,575	527,579
-11,863	13,480	951,069	526,857
-10,848	13,579	950,526	526,851
-9,833	13,653	950,098	526,830
-8,819	13,620	949,299	526,262
-7,804	13,526	948,672	525,593
-6,790	13,547	948,263	525,411
-5,775	13,600	947,349	525,053
-4,760	13,634	946,955	524,921
-3,746	13,599	946,201	524,371
-2,731	13,437	945,639	523,526
-1,717	13,423	945,005	523,108
-0,702	13,433	944,298	522,729
0,313	13,201	943,499	522,339
1,327	16,521	941,258	531,566
2,342	25,629	795,585	473,491
3,356	21,959	460,163	268,209
4,371	-4,914	317,109	156,003
5,386	-8,796	298,839	143,039
6,400	-10,631	292,851	138,322
7,415	-11,005	290,347	136,756
8,429	-11,487	288,736	135,509
9,444	-11,453	287,853	135,116
10,459	-11,307	287,093	134,890
11,473	-11,447	286,606	134,513
12,488	-11,493	286,071	134,204
13,502	-11,550	285,512	133,875
14,517	-11,420	285,104	133,799
15,531	-11,662	284,838	133,425
16,546	-11,558	284,342	133,283
17,561	-11,428	283,803	133,144
18,575	-11,437	283,524	132,993
19,590	-11,398	283,233	132,882
20,604	-11,447	282,771	132,606
21,619	-11,487	282,491	132,425
22,634	-11,472	282,145	132,264
23,648	-11,513	281,801	132,052
24,663	-11,350	281,535	132,073
25,677	-11,505	281,342	131,821
26,692	-11,208	280,901	131,888
27,707	-11,462	280,942	131,652
28,721	-11,493	280,520	131,412
29,736	-11,462	280,302	131,329
30,750	-11,580	280,066	131,094
31,765	-11,650	279,711	130,848
32,780	-11,559	279,630	130,885
33,794	-11,330	279,238	130,909
34,809	-11,372	278,941	130,718
35,823	-11,612	278,681	130,356
36,838	-11,362	278,259	130,385
37,853	-11,519	278,147	130,171
38,867	-11,491	277,970	130,104
39,882	-11,453	277,544	129,929
40,896	-11,377	277,326	129,887
41,911	-11,424	277,159	129,753
42,926	-11,547	277,004	129,552
43,940	-11,668	276,802	129,332
44,955	-11,463	276,596	129,418
45,969	-11,601	276,315	129,145
46,984	-11,698	276,099	128,941
47,999	-11,925	275,772	128,564
49,013	-11,947	275,548	128,426
50,028	-12,117	275,302	128,141
51,042	-12,090	275,004	128,016
52,057	-12,245	274,650	127,695
53,071	-12,166	274,587	127,728
54,086	-12,197	274,334	127,570
55,101	-11,988	274,070	127,631
56,115	-11,724	274,118	127,888
57,130	-11,426	273,776	127,996
58,144	-11,238	273,699	128,123
59,159	-11,336	273,498	127,927
60,174	-11,252	273,052	127,785
61,188	-11,314	272,891	127,640
62,203	-11,307	272,776	127,581
63,217	-11,267	272,512	127,484
64,232	-11,473	272,286	127,176
65,247	-11,341	271,988	127,148
66,261	-11,418	271,667	126,916
67,276	-11,657	271,533	126,621
68,290	-11,659	271,175	126,440
69,305	-11,802	271,062	126,245
70,320	-11,576	270,665	126,257
71,334	-11,462	270,562	126,302
72,349	-11,476	270,512	126,255
73,363	-11,323	270,280	126,276
74,378	-11,322	269,936	126,105
75,393	-11,366	269,833	126,005
76,407	-11,230	269,516	125,970
77,422	-11,319	269,196	125,727
78,436	-11,243	268,995	125,692
79,451	-11,313	268,896	125,571
80,466	-11,244	268,692	125,528
81,480	-11,489	268,360	125,138
82,495	-11,537	268,114	124,969
83,509	-11,507	267,931	124,899
84,524	-11,824	267,946	124,606
85,539	-11,512	267,454	124,650
86,553	-11,537	267,307	124,547
87,568	-11,634	267,243	124,418
88,582	-11,508	266,963	124,391
89,597	-11,569	266,726	124,214
90,611	-11,451	266,667	124,283
91,626	-11,502	266,411	124,107
92,641	-11,317	266,272	124,197
93,655	-11,454	265,992	123,932
94,670	-11,386	265,654	123,825
95,684	-11,445	265,474	123,677
96,699	-11,362	265,354	123,685
97,714	-11,534	265,220	123,457
98,728	-11,745	264,899	123,107
99,743	-11,633	264,594	123,054
100,757	-11,652	264,441	122,955
101,772	-11,632	264,137	122,820
102,787	-11,594	264,214	122,879
103,801	-11,356	263,881	122,927
104,816	-11,326	263,722	122,868
105,830	-11,314	263,621	122,822
106,845	-11,330	263,501	122,740
107,860	-11,366	263,274	122,591
108,874	-11,277	262,778	122,428
109,889	-11,460	262,847	122,287
110,903	-11,561	262,682	122,109
111,918	-11,451	262,231	121,986
112,933	-11,411	262,171	121,984
113,947	-11,353	262,102	121,992
114,962	-11,433	261,867	121,801
115,976	-11,325	261,734	121,823
116,991	-11,539	261,688	121,602
118,006	-11,460	261,455	121,553
119,020	-11,421	261,035	121,381
120,035	-11,233	260,812	121,432
121,049	-11,412	260,739	121,230
122,064	-11,419	260,424	121,066
123,079	-11,370	260,312	121,047
124,093	-11,429	260,077	120,875
125,108	-11,430	259,745	120,709
126,122	-11,787	259,601	120,317
127,137	-11,924	259,534	120,155
128,151	-11,524	259,290	120,382
129,166	-11,520	259,049	120,263
130,181	-11,458	258,814	120,198
131,195	-11,796	258,616	119,799
132,210	-11,466	258,489	120,018
133,224	-11,234	258,202	120,077
134,239	-11,462	258,259	119,893
135,254	-11,390	257,998	119,824
136,268	-11,418	257,612	119,610
137,283	-11,594	257,400	119,348
138,297	-11,798	257,121	119,030
139,312	-11,866	257,028	118,917
140,327	-11,505	256,841	119,134
141,341	-11,216	256,831	119,370
142,356	-11,264	256,574	119,198
143,370	-11,292	256,415	119,090
144,385	-11,346	256,318	118,987
145,400	-11,243	256,051	118,941
146,414	-11,111	255,840	118,947
147,429	-11,189	255,687	118,798
148,443	-11,160	255,555	118,751
149,458	-11,117	255,354	118,684
150,473	-10,873	255,165	118,796
151,487	-11,077	254,937	118,503
152,502	-11,367	254,879	118,216
153,516	-11,274	254,729	118,216
154,531	-11,092	254,279	118,153
155,546	-11,149	254,250	118,081
156,560	-11,245	253,988	117,866
157,575	-11,302	253,706	117,675
158,589	-11,154	253,660	117,770
159,604	-11,222	253,437	117,598
160,619	-11,308	253,245	117,426
161,633	-11,279	253,155	117,397
162,648	-11,054	252,876	117,449
163,662	-11,066	252,931	117,455
164,677	-11,157	252,594	117,210
165,692	-11,307	252,572	117,062
166,706	-11,271	252,324	116,967
167,721	-11,211	252,167	116,935
168,735	-11,338	251,956	116,718
169,750	-11,120	251,840	116,839
170,764	-10,973	251,688	116,883
171,779	-11,072	251,467	116,686
172,794	-11,081	251,351	116,615
173,808	-11,309	251,146	116,316
174,823	-11,577	250,851	115,942
175,837	-11,675	250,674	115,767
176,852	-11,315	250,478	115,970
177,867	-11,007	250,529	116,244
178,881	-11,211	250,443	116,021
179,896	-11,158	250,182	115,935
180,910	-11,022	249,764	115,845
181,925	-11,058	249,567	115,713
182,940	-11,032	249,505	115,696
183,954	-10,976	249,185	115,584
184,969	-11,156	249,318	115,484
185,983	-11,272	249,213	115,329
186,998	-11,056	248,814	115,314
188,013	-11,049	248,768	115,289
189,027	-10,876	248,457	115,279
190,042	-10,957	248,387	115,168
191,056	-11,048	248,328	115,055
192,071	-11,162	248,124	114,855
193,086	-11,108	247,788	114,734
194,100	-11,221	247,723	114,600
195,115	-10,993	247,469	114,662
196,129	-11,046	247,236	114,499
197,144	-11,119	247,046	114,341
198,159	-10,989	246,854	114,349
199,173	-11,020	246,664	114,225
200,188	-11,240	246,574	113,991
201,202	-11,354	246,177	113,702
202,217	-11,575	245,957	113,408
203,232	-11,588	245,826	113,328
204,246	-11,208	245,762	113,601
205,261	-10,882	245,749	113,855
206,275	-11,717	245,354	112,973
207,290	-7,749	246,916	116,974
208,304	0,359	249,557	124,993
209,319	4,181	250,585	128,694
210,334	4,817	250,570	129,205
211,348	5,210	250,609	129,542
212,363	5,257	250,498	129,512
213,377	5,557	250,285	129,641
214,392	5,131	250,156	129,208
215,407	5,285	249,790	129,135
216,421	4,997	249,841	128,910
217,436	5,213	249,698	129,004
218,450	5,420	249,495	129,060
219,465	4,902	249,242	128,488
220,480	4,778	249,126	128,314
221,494	4,656	248,860	128,064
222,509	4,733	248,727	128,048
223,523	4,758	248,612	127,998
224,538	4,238	248,249	127,370
225,553	4,565	248,100	127,552
226,567	4,735	247,989	127,624
227,582	4,776	247,903	127,603
228,596	4,648	247,674	127,368
229,611	4,455	247,379	127,046
230,626	4,563	247,216	127,040
231,640	4,306	247,176	126,796
232,655	4,646	246,932	126,939
233,669	4,383	246,819	126,654
234,684	4,442	246,604	126,581
235,699	4,609	246,674	126,743
236,713	5,011	246,313	126,875
237,728	4,522	246,166	126,388
238,742	4,471	245,846	126,170
239,757	4,399	245,680	126,015
240,772	4,338	245,582	125,904
241,786	4,474	245,453	125,938
242,801	4,444	245,214	125,779
243,815	4,426	245,197	125,745
244,830	4,698	245,129	125,920
245,844	4,477	244,917	125,620
246,859	4,582	244,634	125,549
247,874	4,362	244,529	125,305
248,888	4,592	244,415	125,422
249,903	4,436	244,297	125,224
250,917	4,654	244,184	125,331
251,932	4,900	243,937	125,393
252,947	4,716	243,870	125,199
253,961	4,484	243,758	124,942
254,976	4,433	243,644	124,831
255,990	4,724	243,411	124,936
257,005	4,527	243,052	124,582
258,020	4,299	242,896	124,307
259,034	4,335	242,853	124,303
260,049	4,453	242,829	124,374
261,063	4,361	242,404	124,072
262,078	4,249	242,411	123,974
263,093	4,777	242,244	124,302
264,107	4,836	242,149	124,289
265,122	4,464	241,912	123,858
266,136	4,689	241,865	124,004
267,151	4,870	241,822	124,115
268,166	4,589	241,442	123,684
269,180	4,238	241,177	123,257
270,195	4,686	241,456	123,747
271,209	5,192	241,104	123,960
272,224	4,431	240,867	123,220
273,239	4,181	240,518	122,831
274,253	4,484	240,358	122,980
275,268	4,446	240,507	123,014
276,282	4,600	240,224	122,981
277,297	4,584	239,907	122,795
278,312	4,271	239,901	122,533
279,326	4,418	239,792	122,583
280,341	4,538	239,561	122,549
281,355	4,564	239,517	122,536
282,370	4,407	239,532	122,408
283,384	4,428	239,249	122,269
284,399	4,454	238,945	122,124
285,414	4,223	238,770	121,841
286,428	4,423	238,626	121,915
287,443	4,362	238,632	121,858
288,457	4,443	238,488	121,838
289,472	4,469	238,284	121,744
290,487	4,598	238,118	121,750
291,501	4,184	237,938	121,320
292,516	4,210	237,661	121,189
293,530	3,956	237,669	120,982
294,545	4,581	237,482	121,367
295,560	4,467	237,419	121,235
296,574	4,247	237,076	120,877
297,589	4,419	236,947	120,934
298,603	4,621	236,952	121,085
299,618	4,799	236,813	121,142
300,633	4,557	236,705	120,887
301,647	4,625	236,539	120,845
302,662	4,939	236,498	121,058
303,676	4,854	236,315	120,887
304,691	4,844	236,145	120,782
305,706	4,826	235,928	120,646
306,720	4,932	235,974	120,742
307,735	4,963	235,725	120,627
308,749	4,520	235,444	120,129
309,764	4,448	235,201	119,937
310,779	4,354	235,028	119,766
311,793	4,116	234,819	119,464
312,808	4,260	234,702	119,506
313,822	4,070	234,677	119,335
314,837	4,314	234,526	119,436
315,852	3,933	234,221	118,976
316,866	4,076	234,180	119,055
317,881	4,803	234,122	119,577
318,895	4,866	233,994	119,549
319,910	5,055	233,925	119,649
320,925	4,465	233,596	119,015
321,939	4,268	233,387	118,747
322,954	4,521	233,314	118,893
323,968	4,516	233,090	118,765
324,983	4,597	232,989	118,765
325,997	4,943	232,912	118,981
327,012	4,837	232,606	118,733
328,027	4,589	232,644	118,552
329,041	4,929	232,459	118,707
330,056	5,111	232,591	118,904
331,070	5,357	232,395	118,981
332,085	4,873	232,156	118,478
333,100	4,652	231,815	118,124
334,114	4,567	231,817	118,050
335,129	4,841	231,581	118,129
336,143	5,222	231,485	118,359
337,158	4,815	231,378	117,984
338,173	4,655	231,078	117,699
339,187	4,325	230,997	117,395
340,202	4,623	230,844	117,534
341,216	4,628	230,618	117,413
342,231	4,549	230,505	117,285
343,246	4,384	230,494	117,143
344,260	4,729	230,367	117,330
345,275	4,909	230,236	117,389
346,289	5,053	230,103	117,420
347,304	4,933	229,837	117,183
348,319	4,845	229,820	117,097
349,333	4,588	229,665	116,814
350,348	4,532	229,382	116,617
351,362	4,739	229,154	116,647
352,377	4,487	229,006	116,371
353,392	4,437	228,994	116,317
354,406	4,163	228,784	115,994
355,421	195,935	1317,331	1394,025
356,435	157,178	1449,927	1393,985
