DTS Sentinel unit serial number:	SN410029Multiplexer serial number:	ORYXHardware model number:	OX2-SRSoftware version number:	ORYX F/W v4,00 Oryx Data Collector v3.7.2.0data status	okinstallation	B5 Nyhavnadifferential loss correction	single-endedforward channel	channel 2reverse channel	N/Adate	2023/12/14time	04:42:13forward acquisition time	300,00reverse acquisition time	0,00gamma	499,1914k internal	0,3157k external	0,3157temperature offset calibration	1,0000default loss term (dB/km)	0,3820temperature slope calibration	1,0000multiplexer offset coefficient	1,0000multiplexer slope coefficient	1,0000fibre end	0,00T internal ref (°C)	7,82T ext. ref 1 (°C)	-8,59T ext. ref 2 (°C)	-8,63length (m)	temperature (°C)	Stokes	anti-Stokes-744,400	-200,000	-0,028	0,133
-743,385	-16,227	-0,289	-0,135
-742,371	-70,463	0,129	0,036
-741,356	-20,040	-0,289	-0,131
-740,342	-123,850	0,093	-0,011
-739,327	-72,782	-0,248	-0,067
-738,312	204,040	0,038	-0,044
-737,298	-84,688	-0,400	-0,092
-736,283	-52,397	0,154	0,052
-735,269	-66,604	-0,421	-0,122
-734,254	792,129	0,112	0,228
-733,239	0,112	-0,623	-0,327
-732,225	-77,584	0,324	0,082
-731,210	-102,835	-0,054	-0,009
-730,196	800,000	-0,028	0,073
-729,181	312,683	-0,023	-0,032
-728,167	-200,000	-0,006	-0,126
-727,152	477,387	-0,054	-0,090
-726,137	359,811	-0,089	-0,132
-725,123	800,000	-0,039	0,087
-724,108	-200,000	0,022	-0,147
-723,094	-107,340	0,053	0,009
-722,079	-31,454	-0,088	-0,036
-721,064	175,589	0,040	-0,043
-720,050	118,617	-0,057	0,052
-719,035	800,000	0,009	-0,027
-718,021	-146,639	-0,106	0,007
-717,006	-157,266	0,074	0,003
-715,991	-9,727	-0,126	-0,062
-714,977	28,972	-0,126	-0,078
-713,962	-200,000	-0,007	0,182
-712,948	232,049	0,050	0,060
-711,933	-126,689	0,100	0,011
-710,918	-150,662	-0,070	0,004
-709,904	-111,972	0,079	0,012
-708,889	111,332	-0,078	-0,069
-707,875	733,363	0,047	-0,092
-706,860	-121,782	0,109	0,013
-705,845	6,764	0,058	0,032
-704,831	-200,000	-0,010	-0,109
-703,816	-53,310	0,135	-0,045
-702,802	800,000	-0,025	0,065
-701,787	-42,613	-0,147	-0,055
-700,772	95,225	-0,049	-0,041
-699,758	124,446	-0,022	0,020
-698,743	-200,000	0,006	0,090
-697,729	75,573	0,109	-0,085
-696,714	252,522	-0,070	0,088
-695,699	-122,655	0,105	0,012
-694,685	-200,000	-0,012	-0,090
-693,670	204,903	0,077	-0,088
-692,656	-200,000	0,007	0,037
-691,641	-200,000	0,006	0,026
-690,627	-97,696	0,104	-0,020
-689,612	0,970	-0,077	-0,041
-688,597	-38,067	0,076	-0,029
-687,583	63,527	0,052	0,039
-686,568	800,000	0,049	0,110
-685,554	-72,341	0,116	0,031
-684,539	25,351	0,048	0,029
-683,524	61,199	0,017	-0,013
-682,510	141,235	-0,053	0,051
-681,495	-200,000	0,003	0,050
-680,481	800,000	-0,019	0,038
-679,466	691,601	-0,057	-0,110
-678,451	-67,798	-0,072	0,021
-677,437	-200,000	0,026	0,119
-676,422	146,577	-0,046	-0,046
-675,408	800,000	0,031	-0,080
-674,393	59,290	0,057	0,042
-673,378	38,372	-0,152	0,099
-672,364	17,475	-0,074	-0,043
-671,349	29,528	0,193	-0,121
-670,335	-200,000	-0,001	0,090
-669,320	-200,000	0,007	0,053
-668,305	173,312	0,037	0,039
-667,291	-40,014	-0,112	0,043
-666,276	-200,000	-0,033	-0,187
-665,262	26,567	0,079	0,049
-664,247	57,797	-0,084	-0,060
-663,232	124,196	-0,101	-0,094
-662,218	-76,066	0,112	-0,029
-661,203	800,000	-0,019	-0,053
-660,189	-200,000	0,009	0,140
-659,174	56,614	-0,110	-0,078
-658,159	87,358	-0,126	-0,102
-657,145	-200,000	0,030	-0,112
-656,130	402,004	0,067	-0,104
-655,116	156,249	-0,013	-0,014
-654,101	-200,000	-0,034	0,115
-653,086	-200,000	-0,021	0,092
-652,072	23,151	-0,058	0,035
-651,057	-91,319	-0,177	0,037
-650,043	-114,235	-0,073	0,010
-649,028	-174,673	0,124	-0,003
-648,014	186,643	-0,031	-0,034
-646,999	101,821	-0,062	0,053
-645,984	-5,789	0,148	0,074
-644,970	-200,000	-0,009	-0,068
-643,955	-200,000	-0,009	-0,034
-642,941	81,411	-0,034	0,027
-641,926	148,822	0,056	-0,056
-640,911	-137,401	0,159	0,013
-639,897	586,479	0,111	0,202
-638,882	771,889	0,045	0,090
-637,868	-100,173	0,079	0,014
-636,853	26,671	0,042	-0,026
-635,838	800,000	-0,013	-0,029
-634,824	-71,219	-0,138	-0,038
-633,809	108,769	0,143	0,125
-632,795	101,319	0,020	-0,017
-631,780	-200,000	-0,004	0,059
-630,765	-200,000	0,008	-0,135
-629,751	-200,000	-0,020	-0,090
-628,736	19,541	0,046	-0,027
-627,722	83,239	0,067	0,054
-626,707	-134,519	-0,125	0,011
-625,692	-151,096	0,020	-0,001
-624,678	-148,237	-0,017	-0,001
-623,663	-70,584	0,006	0,002
-622,649	-100,597	-0,035	-0,006
-621,634	800,000	-0,037	-0,094
-620,619	800,000	0,031	-0,069
-619,605	179,702	0,046	-0,050
-618,590	800,000	0,040	0,100
-617,576	-200,000	-0,100	-0,000
-616,561	-200,000	-0,015	0,114
-615,546	379,499	0,016	0,025
-614,532	-200,000	-0,006	0,019
-613,517	-200,000	-0,015	-0,052
-612,503	-200,000	-0,002	-0,053
-611,488	-200,000	-0,010	0,059
-610,474	-36,096	-0,143	-0,056
-609,459	-100,996	-0,058	0,010
-608,444	10,245	0,176	0,098
-607,430	1,351	-0,073	0,038
-606,415	175,618	0,012	0,013
-605,401	-18,706	0,075	-0,034
-604,386	109,464	-0,092	0,081
-603,371	457,205	0,021	-0,034
-602,357	800,000	-0,069	-0,153
-601,342	-125,432	0,164	-0,018
-600,328	12,054	-0,037	-0,021
-599,313	800,000	0,046	-0,125
-598,298	-146,720	0,030	-0,002
-597,284	800,000	-0,026	0,068
-596,269	-91,001	-0,071	-0,015
-595,255	800,000	0,024	-0,049
-594,240	74,406	0,059	0,045
-593,225	800,000	-0,012	-0,031
-592,211	65,169	-0,116	0,086
-591,196	-200,000	-0,009	-0,101
-590,182	73,445	0,060	-0,046
-589,167	45,017	0,057	0,038
-588,152	8,078	-0,115	-0,063
-587,138	252,982	-0,029	0,037
-586,123	800,000	-0,032	-0,079
-585,109	593,736	-0,046	-0,084
-584,094	-8,900	-0,100	-0,049
-583,079	-200,000	0,013	-0,080
-582,065	46,827	-0,094	0,064
-581,050	-155,636	0,096	-0,004
-580,036	74,483	-0,116	0,089
-579,021	-200,000	-0,037	-0,140
-578,006	18,370	0,108	0,063
-576,992	15,465	-0,075	0,043
-575,977	-145,149	0,093	0,006
-574,963	435,988	-0,048	0,078
-573,948	514,736	0,026	0,044
-572,934	-77,392	0,095	0,024
-571,919	101,511	0,041	-0,035
-570,904	-112,120	0,071	0,010
-569,890	-77,785	-0,131	-0,033
-568,875	800,000	0,026	-0,070
-567,861	201,520	-0,103	0,117
-566,846	138,682	0,058	0,056
-565,831	792,198	0,047	-0,096
-564,817	462,299	-0,042	-0,069
-563,802	683,625	-0,006	0,012
-562,788	356,033	0,041	-0,061
-561,773	645,938	0,046	0,087
-560,758	-30,785	0,118	0,049
-559,744	8,604	0,094	0,052
-558,729	112,771	-0,141	0,125
-557,715	175,400	-0,085	0,090
-556,700	117,526	-0,022	-0,019
-555,685	-200,000	0,004	0,052
-554,671	-66,089	0,068	-0,020
-553,656	-200,000	0,016	0,104
-552,642	-18,225	0,041	0,019
-551,627	292,301	0,056	-0,075
-550,612	-200,000	-0,021	-0,134
-549,598	149,599	-0,058	-0,057
-548,583	-93,492	0,141	0,028
-547,569	-104,693	0,069	-0,012
-546,554	-16,528	-0,079	-0,037
-545,539	-28,316	0,153	0,064
-544,525	800,000	-0,006	0,013
-543,510	-200,000	0,001	0,028
-542,496	82,475	-0,022	-0,017
-541,481	-200,000	0,010	-0,062
-540,466	-121,617	0,141	0,017
-539,452	-173,851	0,115	0,002
-538,437	800,000	-0,070	0,202
-537,423	-200,000	-0,031	0,165
-536,408	66,367	-0,111	0,082
-535,393	6,868	-0,077	0,042
-534,379	-200,000	-0,016	-0,061
-533,364	-77,909	0,179	-0,045
-532,350	-16,183	-0,045	0,021
-531,335	-35,031	0,062	-0,025
-530,321	526,369	0,030	0,051
-529,306	340,710	0,119	0,170
-528,291	-200,000	-0,004	0,069
-527,277	299,891	0,043	-0,058
-526,262	329,949	-0,042	-0,059
-525,248	-200,000	-0,009	0,053
-524,233	137,442	0,039	-0,037
-523,218	800,000	-0,013	-0,029
-522,204	-200,000	-0,002	0,010
-521,189	109,994	-0,158	-0,139
-520,175	-57,326	-0,093	-0,030
-519,160	-200,000	-0,011	0,058
-518,145	-200,000	-0,015	0,200
-517,131	-200,000	-0,002	0,022
-516,116	-108,070	0,100	-0,016
-515,102	-121,955	0,056	0,007
-514,087	432,405	-0,074	-0,118
-513,072	-10,430	-0,102	-0,049
-512,058	-200,000	0,019	-0,167
-511,043	800,000	0,030	0,072
-510,029	133,864	0,059	0,056
-509,014	-40,986	0,113	0,043
-507,999	605,096	0,023	0,042
-506,985	-200,000	0,011	-0,065
-505,970	-200,000	-0,008	-0,077
-504,956	357,764	0,098	-0,144
-503,941	144,951	-0,027	0,027
-502,926	-200,000	-0,021	-0,114
-501,912	-74,191	-0,104	-0,027
-500,897	46,007	0,034	0,023
-499,883	-35,914	-0,067	-0,026
-498,868	229,785	0,041	-0,049
-497,853	56,528	-0,068	-0,048
-496,839	303,070	0,053	-0,072
-495,824	-126,292	-0,149	0,016
-494,810	-200,000	0,012	0,044
-493,795	61,355	0,059	0,043
-492,781	800,000	0,053	-0,131
-491,766	131,712	-0,109	-0,102
-490,751	-200,000	0,007	-0,165
-489,737	-11,065	0,049	-0,024
-488,722	-200,000	0,007	-0,036
-487,708	-200,000	0,016	0,125
-486,693	118,965	0,060	0,054
-485,678	111,951	0,057	0,050
-484,664	334,697	-0,036	-0,051
-483,649	22,823	-0,031	-0,018
-482,635	-200,000	0,006	-0,021
-481,620	-200,000	-0,009	-0,108
-480,605	800,000	0,034	0,077
-479,591	-166,805	-0,183	-0,005
-478,576	3,025	0,116	0,061
-477,562	-124,323	-0,144	0,016
-476,547	174,705	-0,060	-0,064
-475,532	-80,437	-0,018	0,004
-474,518	31,743	0,099	-0,062
-473,503	405,192	-0,077	0,118
-472,489	-99,528	-0,048	0,009
-471,474	-200,000	0,017	0,075
-470,459	-200,000	0,034	0,200
-469,445	-200,000	0,001	-0,047
-468,430	68,586	-0,069	0,052
-467,416	-200,000	0,025	0,104
-466,401	50,078	0,056	-0,038
-465,386	-87,159	0,149	0,033
-464,372	82,314	0,028	-0,022
-463,357	-200,000	-0,011	0,130
-462,343	-200,000	-0,019	-0,161
-461,328	-200,000	0,003	0,025
-460,313	-72,014	0,200	-0,054
-459,299	800,000	0,062	-0,151
-458,284	446,690	0,030	0,049
-457,270	261,454	-0,095	0,121
-456,255	303,513	0,044	-0,060
-455,241	-64,736	-0,091	0,027
-454,226	-36,997	-0,134	-0,052
-453,211	82,345	0,064	0,050
-452,197	762,934	0,021	0,043
-451,182	649,105	-0,049	0,092
-450,168	-200,000	0,034	-0,156
-449,153	-200,000	0,009	0,055
-448,138	-200,000	-0,012	0,085
-447,124	44,682	-0,060	-0,040
-446,109	240,080	-0,024	0,029
-445,095	479,662	0,023	-0,039
-444,080	-98,172	0,065	-0,012
-443,065	-200,000	-0,018	0,117
-442,051	68,470	-0,031	-0,023
-441,036	298,133	0,070	-0,094
-440,022	235,034	-0,095	-0,114
-439,007	333,450	-0,014	-0,020
-437,992	800,000	0,027	-0,057
-436,978	119,703	-0,123	0,111
-435,963	-200,000	-0,015	0,102
-434,949	-20,099	0,086	-0,038
-433,934	-200,000	-0,009	-0,049
-432,919	800,000	-0,037	-0,077
-431,905	-200,000	0,018	-0,069
-430,890	-200,000	-0,012	0,042
-429,876	6,470	-0,030	-0,016
-428,861	560,869	0,034	0,060
-427,846	143,423	0,069	0,067
-426,832	79,783	-0,028	-0,022
-425,817	-84,680	-0,245	0,056
-424,803	-91,390	-0,091	0,019
-423,788	92,739	0,059	0,048
-422,773	-87,195	-0,079	0,017
-421,759	-200,000	0,015	0,079
-420,744	800,000	0,014	0,043
-419,730	-126,593	0,043	-0,005
-418,715	-200,000	-0,001	-0,074
-417,701	800,000	0,021	-0,062
-416,686	-200,000	0,034	0,136
-415,671	502,218	-0,033	0,055
-414,657	-51,514	0,096	-0,032
-413,642	800,000	0,049	0,126
-412,628	-24,861	-0,116	-0,050
-411,613	465,876	0,102	-0,166
-410,598	513,310	0,027	-0,046
-409,584	680,472	0,024	-0,046
-408,569	53,366	0,037	0,026
-407,555	-200,000	0,013	0,133
-406,540	-200,000	0,010	-0,101
-405,525	611,604	0,008	-0,015
-404,511	-200,000	-0,002	-0,088
-403,496	155,616	-0,030	-0,030
-402,482	-200,000	0,005	0,091
-401,467	-72,476	0,059	-0,016
-400,452	67,466	0,096	0,071
-399,438	-200,000	0,016	0,114
-398,423	45,878	-0,053	0,035
-397,409	269,483	0,047	-0,060
-396,394	-200,000	-0,011	-0,071
-395,379	-48,963	0,102	0,035
-394,365	-29,859	0,206	0,085
-393,350	-200,000	0,000	0,028
-392,336	-200,000	-0,014	-0,100
-391,321	390,778	0,075	0,114
-390,306	272,655	-0,077	0,099
-389,292	121,762	-0,128	0,116
-388,277	800,000	0,047	-0,100
-387,263	-96,982	0,115	0,022
-386,248	800,000	-0,034	-0,099
-385,233	281,834	0,096	-0,126
-384,219	-200,000	0,007	-0,133
-383,204	-200,000	0,023	-0,128
-382,190	612,714	0,018	-0,034
-381,175	147,678	0,127	-0,125
-380,160	800,000	0,032	-0,100
-379,146	-200,000	0,017	-0,076
-378,131	620,434	-0,013	0,024
-377,117	408,802	-0,031	-0,048
-376,102	-200,000	-0,035	0,117
-375,088	73,625	0,100	-0,076
-374,073	-200,000	-0,001	-0,076
-373,058	2,286	0,061	-0,032
-372,044	-136,940	0,051	0,004
-371,029	-13,688	-0,169	0,079
-370,015	394,925	0,019	-0,029
-369,000	-146,177	-0,071	-0,004
-367,985	361,049	0,067	-0,098
-366,971	311,530	0,008	0,011
-365,956	635,280	0,041	-0,076
-364,942	-200,000	-0,015	0,081
-363,927	27,928	-0,078	-0,048
-362,912	-200,000	-0,018	0,102
-361,898	-200,000	-0,004	-0,042
-360,883	-153,723	0,072	0,004
-359,869	255,345	-0,006	0,007
-358,854	-200,000	-0,002	0,023
-357,839	-200,000	-0,024	-0,090
-356,825	4,519	-0,064	-0,034
-355,810	-40,795	-0,046	-0,017
-354,796	29,544	-0,036	-0,022
-353,781	35,804	-0,098	-0,062
-352,766	-141,981	-0,078	0,006
-351,752	-200,000	0,002	-0,082
-350,737	-200,000	-0,004	0,040
-349,723	-200,000	0,011	0,106
-348,708	10,362	0,113	-0,062
-347,693	-200,000	0,007	0,105
-346,679	-200,000	0,012	-0,048
-345,664	567,184	-0,088	0,155
-344,650	-98,631	-0,030	-0,005
-343,635	800,000	0,030	-0,087
-342,620	-158,388	0,113	-0,005
-341,606	800,000	-0,017	-0,045
-340,591	103,858	-0,025	0,021
-339,577	55,639	-0,054	0,038
-338,562	292,215	-0,101	-0,134
-337,548	-164,782	-0,077	-0,002
-336,533	-191,861	0,072	0,000
-335,518	19,541	0,098	0,057
-334,504	-103,026	-0,097	0,017
-333,489	24,418	-0,108	-0,065
-332,475	117,205	-0,031	-0,028
-331,460	601,425	0,062	-0,112
-330,445	-105,981	0,143	-0,023
-329,431	-200,000	0,015	0,128
-328,416	-200,000	-0,001	0,076
-327,402	800,000	-0,041	-0,116
-326,387	-200,000	-0,029	-0,097
-325,372	-200,000	0,017	-0,105
-324,358	-200,000	0,002	-0,021
-323,343	-32,880	-0,080	-0,032
-322,329	-200,000	0,008	0,073
-321,314	-10,568	0,078	0,037
-320,299	437,501	0,022	0,035
-319,285	-40,456	0,103	0,039
-318,270	30,523	-0,160	-0,099
-317,256	435,400	0,091	-0,144
-316,241	-39,355	-0,103	-0,039
-315,226	-200,000	-0,001	-0,016
-314,212	-21,447	-0,079	0,035
-313,197	-126,162	-0,151	-0,016
-312,183	-200,000	0,008	-0,139
-311,168	800,000	0,032	-0,101
-310,153	-200,000	0,004	-0,145
-309,139	178,834	-0,082	0,087
-308,124	-200,000	-0,032	-0,195
-307,110	800,000	0,035	-0,098
-306,095	-200,000	-0,007	-0,026
-305,080	800,000	0,060	0,156
-304,066	-200,000	-0,007	0,126
-303,051	-200,000	-0,001	-0,084
-302,037	-8,860	0,101	-0,049
-301,022	428,064	0,102	0,160
-300,008	800,000	0,031	0,085
-298,993	-23,094	0,110	0,048
-297,978	-55,521	-0,088	0,028
-296,964	-104,539	0,055	0,009
-295,949	-200,000	0,003	-0,015
-294,935	-161,946	-0,216	-0,008
-293,920	-22,399	-0,043	0,019
-292,905	24,558	-0,031	-0,018
-291,891	-117,905	0,065	0,008
-290,876	82,925	0,165	-0,130
-289,862	800,000	-0,058	-0,122
-288,847	42,082	-0,106	-0,069
-287,832	123,594	0,087	-0,079
-286,818	352,877	0,065	0,093
-285,803	800,000	-0,040	-0,095
-284,789	-200,000	-0,014	-0,076
-283,774	551,177	-0,027	0,046
-282,759	-200,000	0,002	-0,036
-281,745	198,809	-0,142	-0,158
-280,730	800,000	-0,061	-0,132
-279,716	140,812	0,094	0,090
-278,701	-134,265	-0,055	0,005
-277,686	283,136	0,017	0,022
-276,672	99,054	0,088	0,073
-275,657	-200,000	-0,010	0,100
-274,643	-200,000	0,018	-0,128
-273,628	642,324	-0,092	-0,171
-272,613	800,000	-0,033	-0,101
-271,599	-115,635	0,027	-0,004
-270,584	-115,946	-0,150	0,020
-269,570	-200,000	-0,023	0,103
-268,555	345,176	0,107	-0,153
-267,540	-200,000	-0,100	-0,000
-266,526	35,023	-0,033	0,021
-265,511	370,342	-0,069	0,101
-264,497	-200,000	-0,004	0,168
-263,482	800,000	0,022	0,062
-262,467	-200,000	-0,006	0,069
-261,453	800,000	0,012	-0,027
-260,438	-91,414	-0,261	0,053
-259,424	-200,000	0,015	-0,055
-258,409	-200,000	0,047	-0,197
-257,395	-145,116	0,017	-0,001
-256,380	-99,374	0,129	-0,023
-255,365	-83,763	-0,053	-0,012
-254,351	-200,000	0,010	0,054
-253,336	800,000	0,031	-0,082
-252,322	53,033	0,054	-0,038
-251,307	132,966	-0,068	-0,063
-250,292	110,623	0,050	-0,044
-249,278	17,486	-0,058	0,033
-248,263	39,872	-0,108	0,070
-247,249	81,840	-0,077	0,061
-246,234	236,322	0,092	0,111
-245,219	-112,057	-0,153	0,022
-244,205	-200,000	0,012	0,064
-243,190	204,059	0,047	0,053
-242,176	658,196	0,042	0,079
-241,161	-108,304	0,061	0,009
-240,146	2,181	0,087	-0,045
-239,132	287,667	-0,086	0,112
-238,117	-76,350	-0,112	-0,028
-237,103	61,741	-0,065	-0,046
-236,088	86,190	0,103	-0,082
-235,073	800,000	0,061	0,127
-234,059	219,196	0,122	0,141
-233,044	-42,520	0,028	0,010
-232,030	800,000	0,028	0,068
-231,015	574,295	-0,051	-0,091
-230,000	-23,481	-0,082	0,035
-228,986	590,423	0,049	0,088
-227,971	145,531	0,018	0,017
-226,957	-200,000	0,002	0,017
-225,942	800,000	-0,018	-0,044
-224,927	368,524	0,069	-0,101
-223,913	-134,227	-0,036	-0,003
-222,898	-1,920	-0,180	0,091
-221,884	-200,000	-0,010	0,166
-220,869	309,036	0,080	0,109
-219,855	-106,322	0,090	0,014
-218,840	344,927	0,054	0,076
-217,825	463,805	-0,027	-0,044
-216,811	32,593	0,074	0,046
-215,796	-200,000	0,004	0,067
-214,782	-78,285	0,188	-0,046
-213,767	55,145	0,151	0,105
-212,752	-200,000	0,033	0,107
-211,738	-200,000	-0,017	0,107
-210,723	-133,329	-0,042	0,004
-209,709	800,000	0,014	-0,040
-208,694	85,529	-0,058	-0,046
-207,679	348,073	0,032	-0,046
-206,665	121,628	-0,023	-0,021
-205,650	800,000	-0,017	-0,035
-204,636	55,500	-0,100	0,070
-203,621	800,000	0,051	-0,113
-202,606	654,162	-0,052	0,098
-201,592	24,518	-0,112	0,067
-200,577	-104,316	-0,056	0,009
-199,563	-84,856	-0,039	0,009
-198,548	220,051	-0,051	0,059
-197,533	-99,211	-0,026	0,005
-196,519	187,209	0,071	0,077
-195,504	98,128	0,112	0,093
-194,490	580,307	-0,060	0,107
-193,475	-119,156	-0,114	0,014
-192,460	-93,379	-0,019	0,004
-191,446	126,901	0,092	0,084
-190,431	-117,296	-0,050	-0,006
-189,417	119,613	-0,067	0,060
-188,402	-42,994	-0,053	-0,019
-187,387	197,564	-0,062	-0,068
-186,373	-141,038	-0,094	0,007
-185,358	523,206	-0,043	0,073
-184,344	456,864	0,042	-0,068
-183,329	84,582	0,052	-0,041
-182,315	-12,472	0,079	-0,037
-181,300	-200,000	-0,010	0,050
-180,285	138,161	0,038	-0,036
-179,271	-200,000	-0,003	0,089
-178,256	46,171	0,106	-0,071
-177,242	-115,593	-0,164	0,022
-176,227	-200,000	0,025	-0,160
-175,212	-29,014	-0,044	0,018
-174,198	147,391	0,061	-0,060
-173,183	-89,086	-0,123	-0,026
-172,169	783,818	-0,028	-0,056
-171,154	-200,000	0,037	-0,161
-170,139	3,808	0,157	0,082
-169,125	-200,000	-0,022	-0,090
-168,110	-200,000	-0,000	0,146
-167,096	82,343	0,107	0,084
-166,081	336,668	-0,064	0,090
-165,066	-200,000	-0,020	-0,067
-164,052	37,856	-0,155	-0,099
-163,037	634,185	0,042	0,077
-162,023	-200,000	0,033	0,139
-161,008	-200,000	0,010	-0,210
-159,993	-108,163	-0,123	-0,019
-158,979	799,689	-0,034	0,069
-157,964	113,374	-0,055	0,048
-156,950	-17,545	-0,054	0,024
-155,935	50,544	-0,086	0,059
-154,920	115,758	0,065	0,057
-153,906	151,573	-0,122	0,120
-152,891	-200,000	0,011	0,154
-151,877	-123,247	0,130	0,015
-150,862	90,293	-0,090	-0,073
-149,847	-200,000	0,006	-0,063
-148,833	800,000	-0,034	-0,106
-147,818	-33,144	0,094	-0,037
-146,804	-45,137	0,110	0,039
-145,789	454,165	-0,057	0,092
-144,775	71,963	0,133	-0,100
-143,760	800,000	-0,025	-0,061
-142,745	800,000	0,023	0,058
-141,731	-145,357	-0,039	-0,003
-140,716	236,836	0,070	0,084
-139,702	-200,000	0,017	0,160
-138,687	800,000	-0,042	0,090
-137,672	-200,000	0,021	-0,077
-136,658	213,116	0,039	0,045
-135,643	189,877	0,057	-0,061
-134,629	69,231	0,040	-0,030
-133,614	-13,197	0,053	0,025
-132,599	800,000	0,023	-0,068
-131,585	-60,216	0,113	-0,034
-130,570	163,016	0,068	-0,069
-129,556	-31,362	0,052	-0,021
-128,541	29,261	-0,094	0,058
-127,526	-12,506	-0,060	0,028
-126,512	-73,674	0,202	0,053
-125,497	-29,145	0,086	0,035
-124,483	159,967	-0,093	0,094
-123,468	-200,000	0,011	0,065
-122,453	-43,736	-0,076	-0,028
-121,439	-200,000	-0,038	-0,159
-120,424	-40,270	-0,071	0,026
-119,410	-75,092	0,054	-0,014
-118,395	-200,000	-0,024	-0,152
-117,380	-200,000	0,005	0,079
-116,366	-200,000	-0,021	-0,131
-115,351	7,024	-0,169	-0,090
-114,337	577,263	0,076	-0,134
-113,322	-33,236	-0,129	-0,051
-112,307	-14,687	-0,124	0,057
-111,293	1,256	-0,059	0,031
-110,278	298,571	-0,037	0,049
-109,264	-12,245	0,137	0,064
-108,249	800,000	0,021	0,065
-107,234	800,000	-0,036	-0,082
-106,220	11,360	-0,096	-0,053
-105,205	36,177	0,128	0,081
-104,191	155,493	0,100	-0,099
-103,176	-200,000	0,003	0,037
-102,162	-159,945	-0,129	0,005
-101,147	186,517	0,089	0,095
-100,132	-200,000	0,015	-0,105
-99,118	-46,460	-0,088	-0,031
-98,103	309,355	-0,033	0,044
-97,089	262,110	0,032	-0,039
-96,074	-200,000	0,001	-0,058
-95,059	-25,230	0,191	0,081
-94,045	-94,309	-0,107	-0,021
-93,030	-72,756	-0,075	0,020
-92,016	555,417	-0,088	-0,152
-91,001	-89,657	-0,088	0,018
-89,986	352,131	0,042	0,060
-88,972	-12,272	0,071	-0,033
-87,957	-200,000	-0,011	0,167
-86,943	38,409	-0,104	-0,066
-85,928	-68,068	-0,054	-0,015
-84,913	13,524	0,072	0,040
-83,899	184,251	-0,032	0,034
-82,884	-73,431	0,105	-0,027
-81,870	71,916	-0,055	-0,041
-80,855	71,828	0,069	0,051
-79,840	89,136	-0,069	-0,055
-78,826	263,218	-0,022	-0,028
-77,811	-91,503	-0,091	0,019
-76,797	-74,848	0,160	-0,041
-75,782	65,896	0,034	-0,025
-74,767	601,888	-0,062	0,112
-73,753	800,000	-0,031	-0,082
-72,738	-200,000	0,000	-0,004
-71,724	800,000	-0,048	-0,106
-70,709	195,343	-0,052	0,057
-69,694	69,655	0,094	-0,069
-68,680	204,192	0,071	0,079
-67,665	-200,000	-0,034	0,211
-66,651	150,079	0,039	-0,038
-65,636	-77,008	0,069	0,017
-64,622	-200,000	0,007	0,072
-63,607	-200,000	-0,022	-0,153
-62,592	800,000	0,035	-0,085
-61,578	-44,594	-0,110	0,039
-60,563	8,719	0,031	0,017
-59,549	800,000	-0,028	0,063
-58,534	75,563	-2,675	-2,027
-57,519	-46,491	0,496	-0,174
-56,505	-200,000	-1,567	-5,367
-55,490	459,175	1,188	1,905
-54,476	800,000	5,256	11,264
-53,461	-200,000	22,250	348,370
-52,446	800,000	760,152	2292,966
-51,432	512,725	1644,296	2761,072
-50,417	96,684	1606,861	1320,462
-49,403	64,394	1263,905	912,786
-48,388	22,707	1016,413	595,948
-47,373	19,362	983,864	565,818
-46,359	12,792	970,853	536,843
-45,344	8,467	967,577	520,858
-44,330	8,977	965,551	521,415
-43,315	7,898	963,998	517,031
-42,300	7,908	962,842	516,424
-41,286	7,887	961,760	515,755
-40,271	7,825	960,660	514,943
-39,257	7,829	959,882	514,518
-38,242	7,808	958,936	513,921
-37,227	7,855	958,003	513,555
-36,213	7,883	957,174	513,180
-35,198	7,836	956,471	512,629
-34,184	7,891	955,767	512,412
-33,169	7,813	954,842	511,643
-32,154	7,937	953,625	511,371
-31,140	7,901	953,016	510,906
-30,125	7,889	952,337	510,485
-29,111	7,900	951,354	509,973
-28,096	7,876	950,978	509,675
-27,082	7,874	950,211	509,235
-26,067	7,903	949,461	508,908
-25,052	7,809	948,686	508,171
-24,038	7,790	947,962	507,701
-23,023	7,795	947,263	507,323
-22,009	7,860	946,678	507,196
-20,994	7,888	945,946	506,874
-19,979	7,898	945,315	506,549
-18,965	7,850	944,791	506,094
-17,950	7,830	944,063	505,618
-16,936	7,795	943,600	505,239
-15,921	7,753	942,927	504,724
-14,906	7,665	942,087	503,976
-13,892	7,723	941,535	503,844
-12,877	7,725	940,849	503,462
-11,863	7,715	940,337	503,138
-10,848	7,810	939,568	503,010
-9,833	7,816	939,174	502,795
-8,819	7,727	938,783	502,284
-7,804	7,650	938,089	501,647
-6,790	7,745	937,351	501,537
-5,775	7,826	936,880	501,520
-4,760	7,808	936,164	501,061
-3,746	7,698	935,667	500,426
-2,731	7,589	935,164	499,793
-1,717	7,619	934,245	499,375
-0,702	7,536	933,879	498,899
0,313	7,438	933,136	498,946
1,327	10,929	930,693	508,592
2,342	19,643	778,753	448,373
3,356	14,751	446,684	249,815
4,371	-11,801	311,343	145,987
5,386	-15,641	293,879	133,917
6,400	-17,818	287,937	129,047
7,415	-17,723	285,398	127,991
8,429	-18,537	283,510	126,341
9,444	-18,618	282,661	125,872
10,459	-18,479	281,982	125,693
11,473	-18,417	281,433	125,497
12,488	-18,401	280,980	125,299
13,502	-18,606	280,483	124,869
14,517	-18,455	280,115	124,840
15,531	-18,297	279,623	124,761
16,546	-18,134	279,322	124,771
17,561	-18,105	278,840	124,572
18,575	-18,084	278,461	124,412
19,590	-18,244	278,194	124,129
20,604	-18,107	277,666	124,013
21,619	-18,063	277,485	123,963
22,634	-18,409	277,233	123,511
23,648	-18,210	276,759	123,477
24,663	-18,133	276,607	123,471
25,677	-18,075	276,196	123,332
26,692	-18,082	276,016	123,234
27,707	-18,057	275,748	123,126
28,721	-18,187	275,466	122,867
29,736	-18,156	275,066	122,706
30,750	-18,206	274,868	122,561
31,765	-18,023	274,720	122,656
32,780	-18,196	274,578	122,419
33,794	-18,126	274,270	122,336
34,809	-18,013	273,860	122,248
35,823	-17,968	273,625	122,175
36,838	-18,111	273,407	121,933
37,853	-18,186	273,107	121,718
38,867	-18,147	272,960	121,678
39,882	-18,207	272,867	121,570
40,896	-18,144	272,352	121,388
41,911	-18,120	272,146	121,308
42,926	-18,005	271,840	121,267
43,940	-18,154	271,619	121,020
44,955	-18,165	271,500	120,946
45,969	-17,982	271,205	120,973
46,984	-18,149	271,160	120,787
47,999	-17,962	271,016	120,886
49,013	-17,831	270,657	120,837
50,028	-17,847	270,464	120,724
51,042	-17,900	270,277	120,581
52,057	-17,906	269,958	120,423
53,071	-18,034	269,775	120,212
54,086	-17,938	269,624	120,223
55,101	-17,894	269,315	120,115
56,115	-17,915	269,128	120,001
57,130	-17,993	268,727	119,740
58,144	-18,083	268,600	119,591
59,159	-18,199	268,316	119,347
60,174	-18,020	267,912	119,321
61,188	-18,034	267,824	119,258
62,203	-18,058	267,627	119,138
63,217	-18,165	267,547	118,993
64,232	-18,017	267,348	119,029
65,247	-18,140	266,997	118,750
66,261	-18,070	266,643	118,646
67,276	-17,969	266,510	118,668
68,290	-18,074	266,326	118,481
69,305	-18,097	266,149	118,370
70,320	-17,789	265,797	118,483
71,334	-17,994	265,578	118,189
72,349	-18,054	265,311	118,004
73,363	-18,053	265,008	117,860
74,378	-18,161	264,934	117,719
75,393	-18,293	264,758	117,512
76,407	-17,859	264,439	117,751
77,422	-18,025	264,249	117,506
78,436	-18,272	263,933	117,133
79,451	-18,030	263,807	117,285
80,466	-17,947	263,499	117,211
81,480	-17,847	263,256	117,183
82,495	-18,045	263,108	116,928
83,509	-17,933	262,964	116,955
84,524	-17,811	262,736	116,952
85,539	-18,008	262,608	116,709
86,553	-17,798	262,189	116,699
87,568	-17,956	262,199	116,552
88,582	-17,985	261,785	116,332
89,597	-17,977	261,696	116,289
90,611	-17,975	261,361	116,132
91,626	-18,001	261,348	116,093
92,641	-17,788	260,993	116,114
93,655	-18,005	260,947	115,890
94,670	-18,056	260,597	115,679
95,684	-18,213	260,467	115,472
96,699	-18,088	260,183	115,446
97,714	-18,055	259,971	115,371
98,728	-17,962	259,816	115,374
99,743	-17,887	259,663	115,362
100,757	-17,888	259,419	115,243
101,772	-17,933	259,269	115,126
102,787	-18,235	259,140	114,792
103,801	-18,063	258,736	114,755
104,816	-18,116	258,637	114,654
105,830	-18,050	258,390	114,592
106,845	-17,979	258,234	114,575
107,860	-17,819	257,948	114,578
108,874	-17,888	257,725	114,408
109,889	-17,993	257,557	114,232
110,903	-17,898	257,329	114,204
111,918	-17,954	257,134	114,057
112,933	-17,861	256,935	114,041
113,947	-17,893	256,815	113,950
114,962	-18,131	256,487	113,586
115,976	-17,970	256,151	113,568
116,991	-18,011	256,191	113,539
118,006	-18,179	256,083	113,335
119,020	-18,067	255,730	113,266
120,035	-17,936	255,808	113,404
121,049	-18,069	255,462	113,125
122,064	-17,878	255,223	113,175
123,079	-18,074	255,063	112,924
124,093	-17,971	254,847	112,908
125,108	-17,814	254,656	112,949
126,122	-17,820	254,582	112,901
127,137	-17,759	254,344	112,838
128,151	-17,910	254,119	112,597
129,166	-17,917	253,827	112,452
130,181	-17,784	253,730	112,514
131,195	-17,823	253,400	112,324
132,210	-18,026	253,329	112,107
133,224	-18,049	253,044	111,952
134,239	-17,800	252,845	112,068
135,254	-17,902	252,478	111,807
136,268	-17,920	252,492	111,788
137,283	-17,692	252,258	111,870
138,297	-17,816	252,016	111,646
139,312	-17,867	251,787	111,492
140,327	-17,856	251,502	111,365
141,341	-18,052	251,571	111,219
142,356	-18,181	251,282	110,971
143,370	-17,964	250,951	111,000
144,385	-17,933	250,798	110,948
145,400	-18,009	250,751	110,853
146,414	-17,972	250,511	110,768
147,429	-17,982	250,371	110,688
148,443	-17,983	250,126	110,569
149,458	-17,999	249,890	110,441
150,473	-17,871	249,751	110,479
151,487	-17,903	249,503	110,332
152,502	-17,949	249,324	110,204
153,516	-17,942	249,277	110,179
154,531	-18,012	249,009	109,991
155,546	-18,043	248,834	109,879
156,560	-18,100	248,684	109,754
157,575	-17,792	248,402	109,880
158,589	-17,893	248,334	109,755
159,604	-17,942	248,011	109,561
160,619	-17,946	247,897	109,497
161,633	-18,103	247,748	109,290
162,648	-17,999	247,648	109,324
163,662	-17,932	247,371	109,247
164,677	-17,940	247,194	109,153
165,692	-17,969	247,067	109,063
166,706	-18,020	246,902	108,938
167,721	-17,957	246,609	108,851
168,735	-17,972	246,429	108,749
169,750	-18,087	246,430	108,644
170,764	-17,973	246,314	108,679
171,779	-17,750	246,040	108,734
172,794	-17,885	246,026	108,605
173,808	-17,866	245,715	108,474
174,823	-17,778	245,436	108,414
175,837	-18,024	245,514	108,235
176,852	-17,953	245,215	108,152
177,867	-17,966	245,064	108,065
178,881	-17,894	244,936	108,059
179,896	-18,002	244,725	107,866
180,910	-17,912	244,409	107,792
181,925	-17,908	244,296	107,736
182,940	-18,148	244,089	107,437
183,954	-17,777	243,872	107,638
184,969	-17,945	243,870	107,489
185,983	-17,827	243,677	107,492
186,998	-17,969	243,487	107,281
188,013	-18,005	243,212	107,121
189,027	-18,193	243,089	106,903
190,042	-17,916	242,789	106,988
191,056	-18,179	242,787	106,763
192,071	-17,910	242,638	106,908
193,086	-17,923	242,278	106,729
194,100	-17,966	242,117	106,614
195,115	-17,816	241,935	106,647
196,129	-17,888	241,796	106,517
197,144	-17,924	241,539	106,365
198,159	-18,069	241,479	106,210
199,173	-17,947	241,085	106,127
200,188	-18,019	241,041	106,040
201,202	-17,790	240,862	106,138
202,217	-17,975	240,835	105,966
203,232	-17,928	240,623	105,902
204,246	-18,042	240,253	105,637
205,261	-18,170	240,082	105,448
206,275	-16,859	240,535	106,701
207,290	-12,217	242,168	111,203
208,304	-5,754	244,147	117,407
209,319	-2,250	245,130	120,750
210,334	-1,103	245,321	121,776
211,348	-0,155	245,532	122,649
212,363	0,484	245,433	123,113
213,377	0,370	245,504	123,044
214,392	0,855	245,443	123,401
215,407	1,032	245,363	123,495
216,421	1,289	245,153	123,588
217,436	1,210	245,131	123,501
218,450	1,305	244,771	123,387
219,465	1,203	244,822	123,318
220,480	1,322	244,632	123,309
221,494	1,081	244,574	123,071
222,509	0,974	244,096	122,733
223,523	0,826	243,872	122,489
224,538	0,605	243,619	122,171
225,553	0,637	243,442	122,097
226,567	0,514	243,312	121,921
227,582	0,473	243,290	121,866
228,596	0,685	242,982	121,873
229,611	0,650	242,945	121,815
230,626	0,519	242,684	121,567
231,640	0,552	242,663	121,572
232,655	0,436	242,320	121,297
233,669	0,500	242,273	121,314
234,684	0,573	242,166	121,308
235,699	0,498	241,948	121,128
236,713	0,570	241,814	121,108
237,728	0,609	241,534	120,988
238,742	0,669	241,229	120,873
239,757	0,539	241,170	120,728
240,772	0,194	241,207	120,459
241,786	0,594	240,942	120,637
242,801	0,571	240,855	120,564
243,815	0,540	240,539	120,370
244,830	0,562	240,494	120,354
245,844	0,576	240,304	120,260
246,859	0,716	240,101	120,259
247,874	0,462	240,011	120,000
248,888	0,463	239,905	119,938
249,903	0,410	239,755	119,810
250,917	0,717	239,629	119,981
251,932	0,519	239,616	119,805
252,947	0,688	239,283	119,763
253,961	0,567	239,146	119,588
254,976	0,640	238,848	119,486
255,990	0,689	238,688	119,434
257,005	0,784	238,512	119,411
258,020	0,766	238,491	119,376
259,034	0,480	238,450	119,117
260,049	0,572	238,189	119,049
261,063	0,506	238,032	118,908
262,078	0,475	237,920	118,817
263,093	0,440	237,700	118,668
264,107	0,824	237,417	118,820
265,122	0,550	237,535	118,652
266,136	0,662	237,221	118,573
267,151	0,686	237,051	118,496
268,166	0,467	236,989	118,282
269,180	0,745	236,686	118,339
270,195	0,516	236,704	118,157
271,209	0,509	236,525	118,052
272,224	0,669	236,375	118,092
273,239	0,698	236,099	117,967
274,253	0,363	236,020	117,654
275,268	0,489	235,873	117,668
276,282	0,560	235,671	117,613
277,297	0,422	235,568	117,443
278,312	0,378	235,439	117,334
279,326	0,595	235,250	117,399
280,341	0,424	235,251	117,256
281,355	0,838	234,938	117,412
282,370	0,700	234,825	117,238
283,384	0,557	234,648	117,027
284,399	0,600	234,394	116,923
285,414	0,564	234,361	116,869
286,428	0,877	234,252	117,047
287,443	0,759	233,998	116,818
288,457	0,771	233,843	116,740
289,472	0,927	233,628	116,744
290,487	0,827	233,560	116,621
291,501	0,594	233,488	116,395
292,516	0,680	233,331	116,372
293,530	0,756	233,268	116,389
294,545	0,859	232,997	116,323
295,560	0,607	232,906	116,072
296,574	0,723	232,855	116,126
297,589	0,436	232,625	115,780
298,603	0,665	232,323	115,795
299,618	0,486	232,383	115,678
300,633	0,888	232,191	115,881
301,647	0,830	232,027	115,744
302,662	0,840	231,979	115,718
303,676	0,782	231,831	115,589
304,691	0,724	231,475	115,357
305,706	0,593	231,408	115,212
306,720	0,871	231,307	115,366
307,735	0,742	231,270	115,238
308,749	0,956	231,044	115,279
309,764	0,970	230,869	115,192
310,779	0,822	230,770	115,019
311,793	0,835	230,439	114,854
312,808	0,745	230,360	114,735
313,822	0,834	230,171	114,699
314,837	0,877	230,132	114,702
315,852	0,708	229,960	114,477
316,866	1,004	229,741	114,583
317,881	0,782	229,587	114,327
318,895	0,824	229,479	114,295
319,910	0,756	229,342	114,165
320,925	0,931	229,075	114,155
321,939	0,920	228,951	114,074
322,954	0,970	228,883	114,069
323,968	1,062	228,904	114,139
324,983	0,829	228,643	113,822
325,997	0,685	228,522	113,643
327,012	0,883	228,304	113,674
328,027	0,686	228,297	113,511
329,041	0,775	228,060	113,450
330,056	0,931	227,978	113,517
331,070	0,845	227,868	113,387
332,085	0,967	227,594	113,333
333,100	1,000	227,430	113,265
334,114	0,871	227,343	113,115
335,129	0,915	227,270	113,102
336,143	1,186	227,037	113,180
337,158	0,939	226,851	112,892
338,173	0,812	226,742	112,732
339,187	1,108	226,518	112,832
340,202	1,007	226,445	112,710
341,216	0,860	226,244	112,490
342,231	1,001	226,059	112,493
343,246	0,979	226,068	112,471
344,260	0,966	225,892	112,364
345,275	1,100	225,854	112,436
346,289	1,021	225,613	112,246
347,304	0,950	225,549	112,151
348,319	0,975	225,389	112,080
349,333	1,075	225,161	112,032
350,348	0,845	225,080	111,811
351,362	0,799	224,933	111,693
352,377	0,937	224,856	111,747
353,392	1,326	224,605	111,901
354,406	0,818	224,516	111,470
355,421	191,128	1311,590	1374,160
356,435	153,029	1443,882	1374,004
