DTS Sentinel unit serial number:	SN410029Multiplexer serial number:	ORYXHardware model number:	OX2-SRSoftware version number:	ORYX F/W v4,00 Oryx Data Collector v3.7.2.0data status	okinstallation	B5 Nyhavnadifferential loss correction	single-endedforward channel	channel 2reverse channel	N/Adate	2023/12/13time	14:22:13forward acquisition time	300,00reverse acquisition time	0,00gamma	499,1914k internal	0,3160k external	0,3160temperature offset calibration	1,0000default loss term (dB/km)	0,3820temperature slope calibration	1,0000multiplexer offset coefficient	1,0000multiplexer slope coefficient	1,0000fibre end	0,00T internal ref (°C)	14,94T ext. ref 1 (°C)	-1,17T ext. ref 2 (°C)	-1,46length (m)	temperature (°C)	Stokes	anti-Stokes-744,400	800,000	-0,051	0,121
-743,385	-28,383	-0,350	0,148
-742,371	-71,535	0,113	0,031
-741,356	-87,920	-0,241	0,053
-740,342	-128,438	0,144	0,015
-739,327	-135,685	-0,371	0,032
-738,312	493,538	0,089	0,151
-737,298	0,377	-0,131	0,069
-736,283	-23,592	0,032	-0,014
-735,269	-175,897	-0,315	0,006
-734,254	-105,849	0,105	0,017
-733,239	21,061	-0,414	-0,247
-732,225	-51,440	0,179	0,061
-731,210	800,000	-0,069	0,148
-730,196	-115,514	-0,019	0,003
-729,181	684,902	-0,048	-0,093
-728,167	428,791	0,013	-0,022
-727,152	-82,744	-0,072	0,017
-726,137	81,400	-0,045	-0,036
-725,123	-200,000	0,004	-0,042
-724,108	800,000	-0,051	-0,130
-723,094	5,376	-0,080	-0,043
-722,079	800,000	-0,050	-0,121
-721,064	655,729	-0,034	-0,065
-720,050	379,737	0,057	0,086
-719,035	800,000	0,015	-0,039
-718,021	267,587	-0,038	0,049
-717,006	-200,000	0,002	0,022
-715,991	41,864	-0,026	0,018
-714,977	800,000	-0,010	0,030
-713,962	29,466	-0,031	-0,019
-712,948	-200,000	-0,001	-0,088
-711,933	-53,741	0,089	-0,030
-710,918	800,000	0,021	0,048
-709,904	800,000	-0,057	-0,128
-708,889	342,339	-0,047	-0,068
-707,875	135,774	0,006	-0,006
-706,860	-200,000	0,019	-0,084
-705,845	-200,000	0,015	-0,101
-704,831	688,512	0,091	0,176
-703,816	-50,495	-0,124	-0,043
-702,802	136,227	-0,066	-0,064
-701,787	5,054	0,141	0,076
-700,772	-200,000	0,000	-0,046
-699,758	606,871	-0,056	-0,104
-698,743	-171,165	0,058	-0,001
-697,729	379,829	-0,036	-0,054
-696,714	-200,000	0,018	-0,169
-695,699	157,554	-0,077	-0,079
-694,685	-97,613	-0,013	-0,002
-693,670	800,000	-0,044	-0,099
-692,656	800,000	-0,020	0,059
-691,641	-89,134	0,044	-0,009
-690,627	-200,000	-0,002	0,081
-689,612	-158,666	0,079	-0,003
-688,597	273,775	0,045	0,059
-687,583	-65,898	-0,140	-0,041
-686,568	318,170	-0,014	0,020
-685,554	35,657	0,090	-0,058
-684,539	563,883	0,032	-0,057
-683,524	206,980	0,065	-0,074
-682,510	-77,668	-0,071	-0,018
-681,495	409,740	0,033	0,052
-680,481	703,397	0,073	-0,143
-679,466	17,368	0,068	-0,039
-678,451	-48,546	0,070	-0,025
-677,437	417,634	-0,055	-0,086
-676,422	-12,657	0,050	0,024
-675,408	90,108	-0,041	-0,034
-674,393	-200,000	-0,009	0,047
-673,378	-132,115	-0,096	-0,009
-672,364	800,000	0,013	-0,033
-671,349	20,638	-0,229	-0,136
-670,335	295,025	0,076	0,102
-669,320	800,000	0,060	0,149
-668,305	800,000	-0,030	0,069
-667,291	68,611	-0,057	-0,043
-666,276	-0,514	-0,141	-0,073
-665,262	-200,000	0,015	-0,053
-664,247	793,924	0,007	0,014
-663,232	-129,432	-0,052	0,005
-662,218	-200,000	0,015	0,054
-661,203	245,705	-0,058	0,071
-660,189	800,000	0,063	-0,133
-659,174	-200,000	-0,002	-0,130
-658,159	-200,000	-0,005	-0,089
-657,145	-200,000	-0,004	-0,042
-656,130	-103,662	0,023	-0,004
-655,116	-200,000	-0,000	0,003
-654,101	-200,000	0,045	0,195
-653,086	-32,595	0,130	-0,053
-652,072	467,150	0,057	-0,093
-651,057	50,437	0,044	-0,031
-650,043	-135,776	-0,153	0,013
-649,028	-200,000	-0,021	-0,150
-648,014	27,843	0,040	0,025
-646,999	-119,045	-0,138	-0,018
-645,984	-54,183	-0,048	0,016
-644,970	2,436	-0,145	0,077
-643,955	800,000	-0,035	-0,094
-642,941	-112,224	-0,038	0,006
-641,926	-200,000	0,009	-0,046
-640,911	189,119	-0,068	-0,075
-639,897	101,023	0,065	-0,056
-638,882	700,602	0,017	0,032
-637,868	-60,465	-0,044	0,013
-636,853	-33,641	-0,133	-0,053
-635,838	18,489	0,086	-0,050
-634,824	102,189	0,072	-0,062
-633,809	-200,000	0,010	0,053
-632,795	-200,000	-0,008	-0,042
-631,780	-200,000	-0,008	-0,033
-630,765	-200,000	0,034	-0,116
-629,751	-200,000	-0,005	-0,081
-628,736	-200,000	0,019	-0,088
-627,722	-42,056	0,105	-0,039
-626,707	-200,000	-0,011	0,100
-625,692	-200,000	0,001	0,102
-624,678	-140,459	0,037	0,003
-623,663	-58,039	0,076	-0,024
-622,649	346,766	-0,015	-0,021
-621,634	-200,000	0,007	-0,056
-620,619	5,445	-0,068	-0,037
-619,605	800,000	-0,022	-0,047
-618,590	-200,000	0,023	0,121
-617,576	619,410	-0,054	0,100
-616,561	130,479	0,003	-0,003
-615,546	309,744	-0,020	0,027
-614,532	-200,000	0,016	-0,161
-613,517	30,256	-0,100	-0,063
-612,503	83,916	-0,050	-0,040
-611,488	-200,000	-0,008	0,071
-610,474	-23,315	-0,123	-0,054
-609,459	-42,669	-0,041	0,015
-608,444	-200,000	0,009	0,145
-607,430	-28,903	0,052	-0,022
-606,415	327,105	0,051	-0,071
-605,401	171,256	-0,068	0,072
-604,386	-200,000	-0,019	-0,102
-603,371	50,104	0,105	0,073
-602,357	-200,000	0,020	0,131
-601,342	-37,775	-0,119	-0,046
-600,328	-78,665	-0,095	0,023
-599,313	8,904	-0,114	-0,063
-598,298	800,000	0,054	0,122
-597,284	220,757	0,062	0,073
-596,269	337,622	0,111	0,158
-595,255	800,000	-0,017	-0,040
-594,240	-200,000	0,006	-0,135
-593,225	18,020	-0,065	0,038
-592,211	-200,000	0,001	-0,080
-591,196	-200,000	-0,009	-0,044
-590,182	-76,584	0,031	-0,008
-589,167	386,849	0,019	0,028
-588,152	-200,000	-0,003	0,056
-587,138	-200,000	0,024	0,088
-586,123	800,000	-0,043	-0,107
-585,109	-4,193	-0,028	0,014
-584,094	663,143	-0,031	-0,059
-583,079	5,736	0,056	-0,030
-582,065	-143,234	0,040	-0,003
-581,050	-167,330	0,086	0,002
-580,036	-200,000	0,004	-0,127
-579,021	-200,000	-0,015	-0,086
-578,006	518,843	-0,077	-0,132
-576,992	228,155	0,049	0,059
-575,977	-29,314	0,161	0,067
-574,963	-153,277	0,065	-0,003
-573,948	800,000	-0,043	0,135
-572,934	-200,000	-0,003	-0,076
-571,919	-102,684	-0,140	-0,024
-570,904	150,226	-0,139	0,138
-569,890	31,248	0,055	0,035
-568,875	-88,915	0,118	0,025
-567,861	800,000	0,080	0,197
-566,846	439,881	0,084	0,135
-565,831	-88,715	-0,129	0,028
-564,817	135,384	0,022	-0,021
-563,802	-50,761	-0,067	0,023
-562,788	-200,000	-0,034	-0,123
-561,773	488,515	0,045	-0,075
-560,758	-77,643	0,114	-0,029
-559,744	91,602	0,045	-0,037
-558,729	800,000	0,043	0,090
-557,715	-83,881	-0,115	0,027
-556,700	-200,000	-0,008	-0,120
-555,685	-200,000	0,017	-0,153
-554,671	-50,208	-0,052	-0,018
-553,656	-169,380	0,138	0,004
-552,642	-3,226	0,091	-0,046
-551,627	737,718	0,027	-0,053
-550,612	800,000	0,040	0,111
-549,598	800,000	0,037	0,086
-548,583	-10,997	-0,081	-0,039
-547,569	-98,772	-0,080	-0,015
-546,554	347,205	0,036	0,052
-545,539	-200,000	-0,008	-0,104
-544,525	-135,265	-0,127	0,011
-543,510	404,449	-0,101	0,156
-542,496	108,227	-0,059	-0,051
-541,481	-200,000	0,048	-0,228
-540,466	338,433	-0,060	-0,086
-539,452	-200,000	0,022	-0,102
-538,437	-13,820	-0,024	-0,011
-537,423	363,249	0,043	-0,063
-536,408	-200,000	-0,012	0,075
-535,393	-200,000	-0,003	-0,086
-534,379	800,000	-0,017	-0,051
-533,364	-200,000	-0,028	-0,179
-532,350	33,066	-0,031	0,019
-531,335	-139,648	0,150	-0,011
-530,321	222,673	-0,022	0,026
-529,306	800,000	0,057	-0,123
-528,291	-200,000	0,008	-0,119
-527,277	-200,000	0,011	-0,085
-526,262	-133,406	0,082	-0,007
-525,248	-200,000	0,028	-0,168
-524,233	800,000	0,049	0,132
-523,218	25,017	-0,129	0,078
-522,204	552,784	-0,057	0,100
-521,189	-200,000	-0,012	-0,088
-520,175	156,611	0,108	-0,109
-519,160	800,000	0,021	-0,057
-518,145	325,630	-0,028	0,039
-517,131	800,000	0,009	0,020
-516,116	367,564	-0,014	0,021
-515,102	168,028	0,018	0,019
-514,087	185,089	-0,108	0,118
-513,072	558,431	-0,033	0,059
-512,058	800,000	-0,007	-0,022
-511,043	-60,560	0,059	-0,018
-510,029	800,000	0,046	0,109
-509,014	-200,000	0,007	0,083
-507,999	-200,000	0,012	-0,053
-506,985	800,000	-0,025	-0,076
-505,970	206,281	-0,067	-0,076
-504,956	595,020	0,065	-0,118
-503,941	-200,000	0,004	-0,026
-502,926	125,890	0,037	0,034
-501,912	-200,000	0,017	-0,159
-500,897	222,018	-0,042	0,050
-499,883	-36,098	-0,074	0,029
-498,868	61,379	-0,065	-0,047
-497,853	784,381	0,062	-0,124
-496,839	800,000	-0,060	-0,184
-495,824	-120,748	-0,113	0,014
-494,810	-200,000	-0,004	0,150
-493,795	100,342	-0,033	0,028
-492,781	800,000	0,043	0,110
-491,766	-47,580	-0,094	-0,033
-490,751	-200,000	-0,020	-0,095
-489,737	-200,000	-0,013	-0,069
-488,722	-200,000	0,011	0,065
-487,708	-200,000	-0,008	-0,066
-486,693	3,046	-0,023	0,012
-485,678	384,446	0,076	0,114
-484,664	747,028	-0,028	-0,055
-483,649	800,000	0,052	-0,124
-482,635	29,703	0,048	-0,030
-481,620	398,037	0,054	0,082
-480,605	181,662	0,090	0,096
-479,591	4,495	-0,044	-0,024
-478,576	712,448	-0,008	-0,016
-477,562	359,142	0,027	-0,040
-476,547	267,583	0,029	-0,037
-475,532	-96,477	-0,018	0,003
-474,518	-200,000	0,010	0,037
-473,503	314,705	-0,081	-0,111
-472,489	484,258	-0,041	-0,067
-471,474	-49,599	0,187	0,065
-470,459	171,816	-0,077	-0,081
-469,445	110,019	-0,097	-0,085
-468,430	-200,000	-0,014	0,052
-467,416	-200,000	0,016	0,148
-466,401	800,000	0,041	-0,098
-465,386	-77,864	0,034	-0,008
-464,372	-60,479	0,090	0,028
-463,357	490,344	0,021	-0,036
-462,343	800,000	0,014	-0,034
-461,328	-200,000	0,000	0,066
-460,313	800,000	-0,019	0,046
-459,299	418,091	0,056	-0,087
-458,284	800,000	-0,007	0,017
-457,270	800,000	-0,025	-0,054
-456,255	52,125	-0,037	0,026
-455,241	-91,046	0,022	-0,005
-454,226	-200,000	0,016	-0,068
-453,211	-123,076	-0,027	-0,003
-452,197	-83,212	0,063	-0,015
-451,182	-200,000	-0,002	-0,053
-450,168	354,640	-0,017	0,024
-449,153	275,055	-0,016	-0,021
-448,138	800,000	-0,026	-0,081
-447,124	257,264	0,121	-0,152
-446,109	126,557	-0,036	-0,033
-445,095	112,572	0,083	-0,074
-444,080	202,914	-0,125	0,141
-443,065	-200,000	-0,013	0,183
-442,051	-64,751	-0,066	-0,019
-441,036	55,656	-0,078	-0,055
-440,022	800,000	0,035	0,073
-439,007	373,258	-0,037	0,055
-437,992	121,694	0,094	0,085
-436,978	203,168	-0,113	0,127
-435,963	-79,611	-0,155	-0,038
-434,949	331,677	-0,086	0,121
-433,934	-200,000	0,024	0,000
-432,919	-33,932	-0,077	-0,031
-431,905	-200,000	-0,030	-0,112
-430,890	800,000	-0,027	0,082
-429,876	226,537	0,039	0,047
-428,861	0,813	-0,062	-0,032
-427,846	800,000	0,022	0,064
-426,832	-17,669	-0,096	-0,044
-425,817	-86,986	0,052	-0,011
-424,803	-126,188	0,205	-0,022
-423,788	51,778	-0,066	0,045
-422,773	-105,783	-0,095	0,015
-421,759	-112,777	0,127	-0,018
-420,744	89,242	-0,106	-0,086
-419,730	-200,000	0,031	-0,123
-418,715	-181,384	0,100	0,001
-417,701	-147,425	0,081	-0,005
-416,686	141,884	-0,039	-0,038
-415,671	-40,242	0,076	0,029
-414,657	663,305	-0,054	-0,102
-413,642	-57,297	-0,075	0,024
-412,628	800,000	0,026	0,070
-411,613	-148,963	-0,053	-0,003
-410,598	319,875	0,022	-0,030
-409,584	193,515	0,080	-0,088
-408,569	800,000	-0,025	0,054
-407,555	-200,000	0,007	0,156
-406,540	-130,800	-0,126	0,012
-405,525	-200,000	-0,003	-0,080
-404,511	672,785	-0,054	-0,102
-403,496	-200,000	-0,007	-0,023
-402,482	-91,095	-0,046	-0,010
-401,467	440,806	-0,049	-0,078
-400,452	-200,000	0,016	0,069
-399,438	144,307	0,108	0,105
-398,423	41,893	-0,065	-0,043
-397,409	610,649	-0,016	-0,029
-396,394	-200,000	-0,008	0,064
-395,379	119,994	0,016	-0,014
-394,365	152,124	0,135	0,134
-393,350	428,562	-0,089	0,140
-392,336	-119,903	-0,010	-0,001
-391,321	88,757	-0,051	-0,041
-390,306	-200,000	-0,003	-0,029
-389,292	253,161	0,062	0,077
-388,277	800,000	0,029	-0,083
-387,263	-48,720	0,102	-0,035
-386,248	243,721	-0,029	0,035
-385,233	334,524	-0,009	0,013
-384,219	-200,000	0,020	-0,098
-383,204	221,951	-0,058	0,068
-382,190	-86,470	-0,105	-0,023
-381,175	-89,340	-0,155	0,033
-380,160	-200,000	0,033	0,138
-379,146	-99,123	-0,134	-0,024
-378,131	186,878	0,072	-0,078
-377,117	800,000	0,057	0,124
-376,102	52,896	-0,034	-0,023
-375,088	92,579	-0,027	0,022
-374,073	-200,000	-0,003	0,047
-373,058	-64,343	-0,077	-0,023
-372,044	-171,875	-0,066	-0,002
-371,029	-15,913	0,036	-0,016
-370,015	-21,650	-0,117	0,052
-369,000	58,395	-0,109	-0,078
-367,985	80,237	0,043	-0,034
-366,971	390,957	0,049	0,074
-365,956	-122,143	0,153	0,018
-364,942	665,120	-0,043	0,081
-363,927	483,286	-0,115	0,190
-362,912	65,095	0,109	0,080
-361,898	44,023	-0,025	-0,016
-360,883	-200,000	-0,009	-0,113
-359,869	-138,567	-0,103	-0,008
-358,854	19,741	0,073	0,042
-357,839	800,000	0,033	-0,078
-356,825	359,770	-0,078	0,114
-355,810	260,532	0,063	-0,080
-354,796	-147,414	-0,299	0,018
-353,781	298,963	-0,057	0,076
-352,766	-200,000	-0,002	-0,129
-351,752	-200,000	-0,006	0,058
-350,737	-75,019	-0,101	0,026
-349,723	-200,000	0,009	-0,090
-348,708	-200,000	0,021	-0,113
-347,693	10,741	-0,089	-0,049
-346,679	-200,000	-0,032	-0,103
-345,664	-153,308	0,046	-0,002
-344,650	14,637	0,072	0,041
-343,635	-45,289	0,179	0,064
-342,620	493,749	-0,037	0,062
-341,606	800,000	0,073	0,195
-340,591	729,376	-0,043	-0,084
-339,577	800,000	0,024	-0,069
-338,562	15,728	0,099	-0,056
-337,548	-200,000	-0,008	0,078
-336,533	169,850	0,126	0,131
-335,518	-200,000	0,037	0,265
-334,504	-200,000	-0,048	0,160
-333,489	-200,000	0,007	0,120
-332,475	-155,227	0,043	-0,002
-331,460	-61,088	-0,131	0,040
-330,445	800,000	-0,043	-0,087
-329,431	-81,860	-0,038	-0,009
-328,416	-43,712	0,128	0,047
-327,402	111,336	-0,033	-0,029
-326,387	-113,247	0,042	0,006
-325,372	800,000	0,022	-0,051
-324,358	-124,371	0,113	0,013
-323,343	536,754	0,068	-0,118
-322,329	800,000	-0,042	-0,117
-321,314	-12,470	0,077	-0,036
-320,299	-200,000	0,005	0,046
-319,285	800,000	-0,027	0,083
-318,270	-200,000	-0,015	-0,049
-317,256	-200,000	-0,000	0,077
-316,241	800,000	-0,030	-0,061
-315,226	476,793	0,021	-0,034
-314,212	489,494	0,078	0,130
-313,197	146,282	0,060	0,058
-312,183	143,850	0,141	0,136
-311,168	109,542	0,041	-0,036
-310,153	-102,454	-0,119	0,020
-309,139	-200,000	0,048	-0,156
-308,124	-200,000	-0,009	-0,033
-307,110	46,664	-0,064	-0,043
-306,095	658,550	0,015	0,029
-305,080	-97,540	0,185	0,035
-304,066	-93,482	0,045	-0,009
-303,051	-1,245	-0,045	-0,023
-302,037	-200,000	0,013	0,062
-301,022	800,000	0,040	0,099
-300,008	401,722	0,018	0,027
-298,993	-25,725	-0,075	0,032
-297,978	0,666	0,110	0,057
-296,964	169,976	-0,057	-0,059
-295,949	800,000	-0,024	0,048
-294,935	-63,369	-0,106	-0,031
-293,920	-36,933	0,105	0,040
-292,905	170,230	-0,056	0,058
-291,891	-115,665	0,145	-0,019
-290,876	-39,237	0,065	0,025
-289,862	34,204	-0,015	0,009
-288,847	800,000	0,021	-0,051
-287,832	1,965	-0,023	-0,012
-286,818	-73,572	-0,114	0,030
-285,803	800,000	0,015	0,035
-284,789	347,846	-0,127	-0,182
-283,774	-107,888	-0,057	-0,009
-282,759	800,000	-0,045	-0,101
-281,745	22,360	0,035	-0,021
-280,730	14,052	0,111	-0,062
-279,716	-200,000	-0,004	0,016
-278,701	168,807	0,101	-0,104
-277,686	133,143	-0,013	-0,012
-276,672	-156,627	0,008	-0,000
-275,657	34,448	-0,105	0,066
-274,643	-104,156	-0,035	-0,006
-273,628	8,585	-0,107	-0,058
-272,613	-200,000	0,157	-0,000
-271,599	-42,859	-0,112	-0,041
-270,584	-1,659	0,173	0,088
-269,570	40,303	0,071	0,046
-268,555	-19,296	-0,045	-0,020
-267,540	180,003	0,088	0,093
-266,526	-75,807	-0,027	0,007
-265,511	361,457	-0,065	0,095
-264,497	-134,132	-0,016	-0,001
-263,482	197,252	0,125	0,138
-262,467	-42,796	0,136	0,050
-261,453	141,723	-0,030	0,028
-260,438	274,583	-0,021	-0,027
-259,424	428,864	0,047	-0,073
-258,409	-200,000	0,015	0,090
-257,395	52,911	0,038	0,026
-256,380	800,000	0,037	-0,097
-255,365	800,000	0,061	0,150
-254,351	-38,006	0,177	0,068
-253,336	252,554	-0,110	0,136
-252,322	-14,404	-0,049	-0,022
-251,307	469,283	0,063	-0,103
-250,292	-200,000	-0,037	0,150
-249,278	800,000	0,057	0,137
-248,263	800,000	0,029	0,085
-247,249	800,000	0,022	0,062
-246,234	525,540	0,049	-0,084
-245,219	800,000	0,054	-0,111
-244,205	-200,000	-0,010	0,036
-243,190	-127,270	0,134	-0,014
-242,176	-61,343	0,067	0,020
-241,161	152,888	-0,115	-0,114
-240,146	0,549	0,071	-0,037
-239,132	81,653	-0,056	0,044
-238,117	-200,000	0,003	-0,036
-237,103	186,435	-0,084	0,091
-236,088	-86,181	0,051	0,011
-235,073	14,119	0,079	-0,044
-234,059	-51,657	0,043	0,014
-233,044	800,000	0,024	0,056
-232,030	241,655	-0,080	-0,097
-231,015	-200,000	-0,017	0,083
-230,000	-61,259	-0,090	0,027
-228,986	-200,000	-0,007	0,051
-227,971	63,879	-0,017	-0,012
-226,957	800,000	0,021	-0,051
-225,942	40,577	-0,065	0,042
-224,927	175,924	0,115	0,120
-223,913	-162,403	-0,065	-0,002
-222,898	13,923	-0,127	0,071
-221,884	-200,000	-0,004	0,052
-220,869	-144,514	0,060	-0,004
-219,855	-63,653	0,100	-0,029
-218,840	800,000	-0,020	0,045
-217,825	-28,366	-0,021	-0,009
-216,811	-151,415	-0,128	-0,007
-215,796	297,640	-0,044	0,059
-214,782	800,000	-0,086	-0,216
-213,767	-34,960	0,066	-0,026
-212,752	441,997	-0,050	0,079
-211,738	253,953	-0,045	0,055
-210,723	-200,000	0,002	-0,077
-209,709	-107,139	0,143	-0,023
-208,694	-72,644	-0,089	-0,023
-207,679	530,381	-0,076	-0,130
-206,665	-200,000	0,005	0,128
-205,650	-132,207	0,102	0,009
-204,636	720,042	0,012	0,023
-203,621	54,359	-0,012	-0,009
-202,606	-112,238	0,061	0,009
-201,592	126,888	-0,125	-0,114
-200,577	-0,888	-0,067	0,034
-199,563	397,952	-0,043	0,065
-198,548	725,839	0,064	0,123
-197,533	66,349	0,031	0,023
-196,519	-77,829	0,050	-0,012
-195,504	-62,522	-0,145	0,043
-194,490	-46,719	-0,044	0,015
-193,475	331,021	-0,096	-0,134
-192,460	367,897	0,022	0,032
-191,446	-200,000	0,029	0,110
-190,431	-26,212	-0,058	0,024
-189,417	800,000	-0,043	0,132
-188,402	-61,867	0,112	0,033
-187,387	800,000	-0,028	-0,087
-186,373	-200,000	0,001	0,045
-185,358	-135,055	0,098	-0,008
-184,344	-200,000	0,008	-0,033
-183,329	-200,000	0,001	0,009
-182,315	222,830	0,063	-0,074
-181,300	-200,000	-0,172	-0,000
-180,285	755,538	0,058	-0,114
-179,271	-200,000	-0,011	0,094
-178,256	159,906	0,106	-0,106
-177,242	-47,581	0,120	-0,042
-176,227	161,227	-0,114	0,115
-175,212	-200,000	0,035	0,120
-174,198	609,716	-0,022	0,040
-173,183	291,682	-0,068	-0,089
-172,169	122,039	0,050	-0,045
-171,154	-23,926	0,145	0,062
-170,139	217,388	-0,010	-0,012
-169,125	-11,137	0,146	-0,069
-168,110	-4,767	0,107	0,053
-167,096	-200,000	-0,017	0,056
-166,081	-24,316	-0,057	0,025
-165,066	-150,111	-0,155	0,009
-164,052	-64,621	0,069	-0,020
-163,037	-48,087	0,067	0,023
-162,023	-5,951	0,093	0,046
-161,008	-200,000	0,011	0,063
-159,993	800,000	-0,091	-0,197
-158,979	-200,000	0,060	-0,199
-157,964	671,161	-0,043	0,081
-156,950	-82,888	0,094	0,022
-155,935	630,743	0,044	0,080
-154,920	103,712	-0,080	0,068
-153,906	756,139	-0,037	-0,072
-152,891	800,000	-0,005	-0,015
-151,877	-86,383	0,182	0,040
-150,862	-200,000	0,006	-0,110
-149,847	171,837	-0,057	-0,059
-148,833	800,000	-0,034	-0,092
-147,818	-200,000	-0,001	0,042
-146,804	-74,443	0,073	-0,019
-145,789	-200,000	0,015	0,084
-144,775	613,900	-0,041	-0,075
-143,760	233,249	0,068	-0,080
-142,745	-56,098	-0,172	-0,055
-141,731	238,220	-0,111	-0,133
-140,716	-5,344	-0,046	0,023
-139,702	-116,347	0,036	-0,005
-138,687	205,797	0,082	0,092
-137,672	-115,743	-0,125	-0,017
-136,658	307,319	0,007	0,009
-135,643	800,000	-0,025	0,057
-134,629	-164,865	-0,085	0,003
-133,614	190,067	0,019	-0,021
-132,599	-56,943	0,113	-0,036
-131,585	-200,000	0,014	-0,072
-130,570	-200,000	-0,001	0,068
-129,556	170,660	-0,067	-0,069
-128,541	-63,220	-0,029	-0,009
-127,526	800,000	0,060	0,125
-126,512	-200,000	0,012	0,082
-125,497	318,176	0,010	0,014
-124,483	-200,000	-0,003	-0,129
-123,468	-102,838	-0,084	-0,014
-122,453	-200,000	0,001	-0,016
-121,439	322,316	0,050	0,069
-120,424	-200,000	-0,012	0,102
-119,410	644,566	0,033	-0,060
-118,395	88,278	-0,052	0,042
-117,380	96,928	0,066	0,054
-116,366	222,788	0,020	-0,024
-115,351	42,538	0,037	0,024
-114,337	-70,608	0,048	0,013
-113,322	-77,924	0,059	0,015
-112,307	-200,000	0,011	-0,086
-111,293	603,607	-0,047	0,085
-110,278	-200,000	0,020	0,134
-109,264	-200,000	-0,026	-0,135
-108,249	-200,000	-0,001	-0,135
-107,234	-136,480	0,098	-0,008
-106,220	-55,347	-0,064	0,020
-105,205	-66,540	0,097	-0,027
-104,191	800,000	0,014	-0,039
-103,176	-200,000	0,003	0,120
-102,162	9,881	-0,065	0,035
-101,147	563,638	-0,018	0,031
-100,132	800,000	0,090	-0,195
-99,118	-144,316	0,047	0,003
-98,103	-3,389	0,057	-0,028
-97,089	227,975	0,068	0,080
-96,074	121,370	-0,050	-0,045
-95,059	-200,000	0,040	0,129
-94,045	-102,152	0,088	-0,015
-93,030	-5,017	-0,091	-0,045
-92,016	325,421	0,052	-0,071
-91,001	233,747	0,076	-0,090
-89,986	549,626	-0,018	-0,030
-88,972	-200,000	0,036	0,200
-87,957	-200,000	0,000	-0,169
-86,943	-113,056	-0,071	-0,010
-85,928	572,375	-0,092	0,161
-84,913	21,002	0,083	0,048
-83,899	199,277	-0,089	0,098
-82,884	99,894	0,077	-0,064
-81,870	195,200	-0,036	0,040
-80,855	800,000	0,044	-0,099
-79,840	99,892	0,080	-0,066
-78,826	434,875	0,047	-0,073
-77,811	-200,000	-0,005	0,114
-76,797	800,000	0,047	-0,111
-75,782	-121,744	-0,045	-0,005
-74,767	-42,966	0,064	-0,023
-73,753	-200,000	0,015	0,095
-72,738	292,698	-0,097	0,127
-71,724	494,981	-0,057	0,094
-70,709	395,796	0,053	-0,080
-69,694	248,400	-0,025	0,030
-68,680	189,650	0,039	0,042
-67,665	494,294	0,016	0,026
-66,651	800,000	-0,037	-0,114
-65,636	-200,000	0,013	-0,044
-64,622	-52,656	0,101	-0,033
-63,607	134,206	-0,156	-0,145
-62,592	-22,846	0,171	0,074
-61,578	-149,512	-0,060	-0,003
-60,563	68,057	-0,017	-0,012
-59,549	334,076	-0,037	0,052
-58,534	-5,531	-2,043	-1,002
-57,519	-200,000	-0,183	-0,707
-56,505	-200,000	-1,275	-5,031
-55,490	47,917	0,898	0,600
-54,476	800,000	5,168	12,035
-53,461	-200,000	17,864	288,288
-52,446	800,000	728,924	2226,999
-51,432	535,996	1644,462	2808,949
-50,417	109,454	1634,755	1403,635
-49,403	75,109	1286,703	971,365
-48,388	31,672	1026,934	632,007
-47,373	20,045	988,913	570,317
-46,359	18,262	976,568	557,337
-45,344	15,271	972,612	545,283
-44,330	15,602	970,968	545,421
-43,315	15,023	969,297	542,575
-42,300	14,920	968,188	541,597
-41,286	14,956	967,138	541,103
-40,271	14,952	966,140	540,511
-39,257	14,917	965,365	539,942
-38,242	14,924	964,428	539,419
-37,227	15,007	963,596	539,202
-36,213	14,959	962,650	538,497
-35,198	14,955	961,706	537,935
-34,184	14,990	960,901	537,575
-33,169	14,917	960,179	536,913
-32,154	15,023	958,939	536,541
-31,140	14,991	958,145	535,973
-30,125	15,003	957,581	535,673
-29,111	14,969	956,688	535,043
-28,096	15,000	956,055	534,768
-27,082	14,987	955,397	534,337
-26,067	14,953	954,668	533,799
-25,052	14,966	953,834	533,354
-24,038	14,966	953,271	533,019
-23,023	14,951	952,720	532,641
-22,009	15,032	951,838	532,384
-20,994	15,031	951,171	531,989
-19,979	15,017	950,605	531,605
-18,965	14,898	949,999	530,866
-17,950	15,018	949,386	530,887
-16,936	14,891	948,834	530,151
-15,921	14,927	947,948	529,750
-14,906	14,856	947,319	529,150
-13,892	14,941	946,589	528,992
-12,877	14,873	946,067	528,464
-11,863	14,845	945,502	528,037
-10,848	14,853	945,027	527,776
-9,833	14,967	944,514	527,830
-8,819	14,898	943,884	527,240
-7,804	14,856	943,117	526,656
-6,790	14,834	942,677	526,319
-5,775	14,911	942,060	526,200
-4,760	14,893	941,380	525,742
-3,746	14,884	940,781	525,357
-2,731	14,732	940,073	524,463
-1,717	14,735	939,238	523,983
-0,702	14,732	938,661	523,631
0,313	14,538	938,074	523,485
1,327	17,583	936,065	531,893
2,342	26,306	792,610	473,437
3,356	22,987	457,846	268,391
4,371	-3,441	313,800	155,930
5,386	-7,481	295,720	142,854
6,400	-9,443	289,564	137,927
7,415	-9,927	287,048	136,241
8,429	-10,091	285,596	135,379
9,444	-10,265	284,941	134,887
10,459	-10,134	284,133	134,620
11,473	-10,029	283,517	134,418
12,488	-10,006	282,914	134,142
13,502	-10,220	282,410	133,685
14,517	-10,220	282,066	133,510
15,531	-10,124	281,536	133,339
16,546	-10,184	281,246	133,134
17,561	-10,312	280,847	132,810
18,575	-10,228	280,423	132,677
19,590	-10,093	279,931	132,562
20,604	-10,263	279,888	132,367
21,619	-10,348	279,364	132,027
22,634	-10,264	279,006	131,926
23,648	-10,199	278,732	131,846
24,663	-10,314	278,551	131,640
25,677	-10,309	278,287	131,508
26,692	-10,292	277,896	131,327
27,707	-10,208	277,615	131,263
28,721	-10,260	277,426	131,112
29,736	-10,227	276,998	130,930
30,750	-10,341	276,870	130,749
31,765	-10,279	276,630	130,683
32,780	-10,251	276,307	130,546
33,794	-10,231	276,069	130,440
34,809	-10,522	275,842	130,047
35,823	-10,248	275,567	130,163
36,838	-10,312	275,562	130,089
37,853	-10,504	275,287	129,768
38,867	-10,217	274,868	129,828
39,882	-10,299	274,664	129,643
40,896	-10,317	274,529	129,551
41,911	-10,331	274,068	129,308
42,926	-10,112	273,795	129,373
43,940	-10,403	273,809	129,096
44,955	-10,521	273,432	128,797
45,969	-10,395	273,159	128,774
46,984	-10,506	272,979	128,574
47,999	-10,808	272,666	128,135
49,013	-10,790	272,479	128,052
50,028	-11,114	272,211	127,614
51,042	-10,960	271,709	127,510
52,057	-10,952	271,480	127,399
53,071	-11,054	271,494	127,300
54,086	-10,961	271,263	127,266
55,101	-10,755	271,242	127,435
56,115	-10,694	270,951	127,343
57,130	-10,250	270,911	127,723
58,144	-10,159	270,731	127,710
59,159	-10,133	270,368	127,551
60,174	-10,258	270,220	127,356
61,188	-10,149	269,865	127,277
62,203	-10,207	269,833	127,198
63,217	-10,321	269,466	126,909
64,232	-10,347	269,559	126,918
65,247	-10,118	268,999	126,852
66,261	-10,153	268,846	126,736
67,276	-10,348	268,450	126,360
68,290	-10,497	268,288	126,137
69,305	-10,741	268,107	125,818
70,320	-10,639	267,832	125,770
71,334	-10,486	267,680	125,828
72,349	-10,065	267,547	126,137
73,363	-10,175	267,392	125,952
74,378	-10,110	266,987	125,809
75,393	-10,129	267,018	125,796
76,407	-10,115	266,644	125,621
77,422	-10,101	266,408	125,511
78,436	-10,088	266,098	125,365
79,451	-10,168	266,078	125,273
80,466	-10,416	265,850	124,930
81,480	-10,333	265,499	124,829
82,495	-10,197	265,149	124,775
83,509	-10,192	265,131	124,760
84,524	-10,379	264,858	124,453
85,539	-10,598	264,760	124,198
86,553	-10,644	264,323	123,941
87,568	-10,422	264,266	124,103
88,582	-10,284	264,117	124,146
89,597	-10,653	263,919	123,711
90,611	-10,262	263,837	124,011
91,626	-10,144	263,652	124,018
92,641	-10,240	263,358	123,784
93,655	-10,169	263,120	123,724
94,670	-10,208	262,824	123,540
95,684	-10,375	262,955	123,441
96,699	-10,350	262,514	123,245
97,714	-10,383	262,354	123,130
98,728	-10,405	262,118	122,988
99,743	-10,556	261,886	122,735
100,757	-10,602	261,659	122,576
101,772	-10,530	261,453	122,532
102,787	-10,344	261,326	122,627
103,801	-10,399	261,172	122,495
104,816	-10,289	260,862	122,436
105,830	-9,942	260,771	122,689
106,845	-10,259	260,714	122,372
107,860	-10,297	260,481	122,217
108,874	-10,117	260,186	122,227
109,889	-10,257	259,950	121,982
110,903	-10,264	259,780	121,885
111,918	-10,193	259,495	121,803
112,933	-10,331	259,367	121,610
113,947	-10,214	259,313	121,677
114,962	-10,311	258,999	121,434
115,976	-10,302	258,955	121,411
116,991	-10,127	258,567	121,371
118,006	-10,134	258,419	121,284
119,020	-10,094	258,325	121,265
120,035	-10,113	258,178	121,168
121,049	-10,183	257,949	120,989
122,064	-10,218	257,912	120,930
123,079	-10,308	257,453	120,626
124,093	-10,386	257,418	120,531
125,108	-10,336	257,120	120,424
126,122	-10,457	256,781	120,149
127,137	-10,548	256,684	120,014
128,151	-10,513	256,558	119,974
129,166	-10,362	256,303	119,976
130,181	-10,330	256,019	119,859
131,195	-10,726	255,861	119,432
132,210	-10,269	255,758	119,768
133,224	-10,360	255,586	119,599
134,239	-10,036	255,449	119,804
135,254	-10,068	255,349	119,719
136,268	-10,179	255,032	119,464
137,283	-10,393	254,803	119,161
138,297	-10,516	254,433	118,872
139,312	-10,711	254,432	118,694
140,327	-10,187	254,260	119,053
141,341	-10,036	254,158	119,124
142,356	-10,060	254,046	119,040
143,370	-10,101	253,684	118,825
144,385	-10,037	253,644	118,851
145,400	-10,217	253,543	118,639
146,414	-10,063	253,323	118,657
147,429	-9,963	253,052	118,605
148,443	-9,882	252,876	118,581
149,458	-9,911	252,672	118,450
150,473	-9,923	252,636	118,412
151,487	-10,298	252,525	118,030
152,502	-10,086	252,162	118,030
153,516	-9,856	251,945	118,114
154,531	-9,803	251,677	118,022
155,546	-9,897	251,544	117,870
156,560	-9,959	251,433	117,755
157,575	-9,994	251,236	117,623
158,589	-9,944	251,121	117,601
159,604	-10,172	251,003	117,342
160,619	-9,984	250,636	117,318
161,633	-9,985	250,405	117,199
162,648	-9,931	250,301	117,185
163,662	-9,926	250,255	117,158
164,677	-9,979	250,131	117,044
165,692	-9,999	249,823	116,873
166,706	-9,941	249,658	116,834
167,721	-9,913	249,585	116,814
168,735	-9,885	249,332	116,708
169,750	-9,916	249,372	116,690
170,764	-9,761	249,187	116,723
171,779	-9,968	248,933	116,420
172,794	-9,915	248,749	116,369
173,808	-10,013	248,553	116,184
174,823	-10,512	248,309	115,642
175,837	-10,422	248,115	115,617
176,852	-10,256	247,918	115,653
177,867	-10,097	247,960	115,795
178,881	-9,942	247,701	115,794
179,896	-9,986	247,592	115,695
180,910	-9,945	247,488	115,670
181,925	-10,005	247,272	115,509
182,940	-9,973	247,022	115,409
183,954	-9,974	246,922	115,351
184,969	-9,889	246,706	115,310
185,983	-9,924	246,643	115,242
186,998	-10,029	246,445	115,052
188,013	-10,021	246,191	114,930
189,027	-9,893	245,907	114,893
190,042	-9,830	245,714	114,845
191,056	-9,910	245,560	114,696
192,071	-9,886	245,562	114,707
193,086	-10,010	245,316	114,480
194,100	-9,768	245,247	114,636
195,115	-9,915	244,997	114,388
196,129	-9,755	244,691	114,366
197,144	-9,886	244,648	114,229
198,159	-9,804	244,404	114,172
199,173	-9,911	244,372	114,059
200,188	-9,894	243,947	113,865
201,202	-10,067	243,796	113,642
202,217	-10,348	243,454	113,242
203,232	-10,533	243,249	112,986
204,246	-10,171	243,358	113,322
205,261	-9,554	243,262	113,772
206,275	-10,373	242,857	112,904
207,290	-6,454	244,389	116,822
208,304	0,975	246,881	124,143
209,319	4,375	247,755	127,382
210,334	4,668	247,785	127,628
211,348	5,150	247,510	127,872
212,363	5,273	247,586	128,001
213,377	5,310	247,494	127,973
214,392	5,287	247,325	127,855
215,407	5,161	247,084	127,616
216,421	5,067	246,812	127,386
217,436	5,222	246,748	127,469
218,450	5,334	246,752	127,552
219,465	5,217	246,365	127,245
220,480	5,053	246,228	127,028
221,494	4,896	245,963	126,752
222,509	4,962	245,942	126,783
223,523	4,864	245,663	126,548
224,538	4,505	245,420	126,119
225,553	4,790	245,312	126,285
226,567	5,028	245,232	126,426
227,582	5,031	244,855	126,223
228,596	4,993	244,837	126,172
229,611	4,608	244,658	125,754
230,626	4,399	244,419	125,451
231,640	4,721	244,265	125,622
232,655	4,813	244,240	125,672
233,669	4,374	244,005	125,185
234,684	4,355	243,739	125,022
235,699	4,827	243,791	125,419
236,713	5,129	243,634	125,572
237,728	4,796	243,369	125,155
238,742	4,483	243,289	124,850
239,757	4,462	242,898	124,621
240,772	4,366	242,854	124,510
241,786	4,626	242,777	124,669
242,801	4,452	242,589	124,421
243,815	4,497	242,437	124,368
244,830	4,693	242,304	124,446
245,844	4,852	242,129	124,474
246,859	4,670	241,993	124,246
247,874	4,329	241,788	123,856
248,888	4,798	241,601	124,126
249,903	4,795	241,510	124,065
250,917	4,876	241,410	124,068
251,932	4,899	241,254	123,994
252,947	4,836	241,049	123,828
253,961	4,664	240,858	123,582
254,976	4,856	240,628	123,606
255,990	4,948	240,607	123,657
257,005	4,656	240,377	123,296
258,020	4,509	240,209	123,081
259,034	4,595	240,092	123,078
260,049	4,915	239,853	123,200
261,063	4,742	239,659	122,952
262,078	4,535	239,463	122,676
263,093	4,792	239,561	122,919
264,107	4,801	239,342	122,802
265,122	4,718	239,107	122,606
266,136	4,772	239,050	122,608
267,151	4,882	239,031	122,675
268,166	4,744	238,591	122,329
269,180	4,395	238,474	121,982
270,195	5,032	238,493	122,484
271,209	5,441	238,361	122,728
272,224	4,943	238,015	122,147
273,239	4,425	237,709	121,571
274,253	4,342	237,812	121,548
275,268	4,853	237,579	121,820
276,282	4,545	237,548	121,550
277,297	4,386	237,318	121,297
278,312	4,609	237,074	121,336
279,326	4,676	237,137	121,410
280,341	4,659	236,970	121,301
281,355	4,744	236,635	121,186
282,370	4,749	236,741	121,232
283,384	4,721	236,506	121,080
284,399	4,526	236,233	120,777
285,414	4,510	236,001	120,635
286,428	4,628	235,845	120,637
287,443	4,460	235,821	120,482
288,457	4,818	235,775	120,727
289,472	4,774	235,625	120,605
290,487	4,560	235,502	120,365
291,501	4,563	235,116	120,159
292,516	4,479	234,904	119,975
293,530	4,288	234,857	119,792
294,545	4,680	234,820	120,067
295,560	4,462	234,570	119,759
296,574	4,313	234,391	119,542
297,589	4,548	234,258	119,645
298,603	4,800	234,141	119,769
299,618	4,942	234,113	119,854
300,633	4,603	233,997	119,523
301,647	4,804	233,833	119,583
302,662	5,086	233,805	119,776
303,676	4,867	233,613	119,498
304,691	4,685	233,566	119,323
305,706	4,852	233,353	119,332
306,720	5,072	233,104	119,363
307,735	4,956	232,842	119,129
308,749	4,649	232,779	118,851
309,764	4,429	232,429	118,492
310,779	4,235	232,278	118,256
311,793	4,185	232,043	118,088
312,808	4,053	231,888	117,897
313,822	4,520	231,734	118,166
314,837	4,701	231,769	118,312
315,852	4,701	231,590	118,210
316,866	4,889	231,597	118,346
317,881	5,030	231,503	118,396
318,895	5,010	231,248	118,239
319,910	5,101	231,190	118,268
320,925	4,695	230,916	117,808
321,939	4,272	230,795	117,414
322,954	4,704	230,602	117,634
323,968	4,529	230,416	117,395
324,983	4,753	230,323	117,508
325,997	4,990	230,325	117,678
327,012	5,016	230,168	117,607
328,027	4,881	229,961	117,389
329,041	4,747	229,923	117,257
330,056	5,472	229,748	117,707
331,070	5,355	229,553	117,508
332,085	5,274	229,506	117,412
333,100	4,727	229,316	116,891
334,114	4,749	229,075	116,774
335,129	5,103	229,006	116,996
336,143	5,380	228,882	117,131
337,158	5,023	228,883	116,852
338,173	4,902	228,484	116,546
339,187	4,665	228,385	116,307
340,202	4,985	228,254	116,470
341,216	4,835	228,066	116,252
342,231	4,662	227,998	116,077
343,246	4,506	227,794	115,846
344,260	4,803	227,737	116,029
345,275	5,111	227,497	116,127
346,289	5,041	227,505	116,068
347,304	5,045	227,329	115,971
348,319	5,026	227,327	115,946
349,333	4,864	227,013	115,654
350,348	4,644	226,850	115,397
351,362	4,760	226,655	115,373
352,377	4,530	226,355	115,040
353,392	4,560	226,161	114,953
354,406	4,645	226,081	114,965
355,421	195,999	1316,920	1393,590
356,435	157,155	1449,804	1393,580
