DTS Sentinel unit serial number:	SN410029Multiplexer serial number:	ORYXHardware model number:	OX2-SRSoftware version number:	ORYX F/W v4,00 Oryx Data Collector v3.7.2.0data status	okinstallation	B5 Nyhavnadifferential loss correction	single-endedforward channel	channel 2reverse channel	N/Adate	2023/12/13time	23:02:13forward acquisition time	300,00reverse acquisition time	0,00gamma	499,1914k internal	0,3154k external	0,3154temperature offset calibration	1,0000default loss term (dB/km)	0,3820temperature slope calibration	1,0000multiplexer offset coefficient	1,0000multiplexer slope coefficient	1,0000fibre end	0,00T internal ref (°C)	9,06T ext. ref 1 (°C)	-7,53T ext. ref 2 (°C)	-7,53length (m)	temperature (°C)	Stokes	anti-Stokes-744,400	185,497	0,121	0,133
-743,385	-131,224	-0,377	0,036
-742,371	-186,129	0,105	-0,001
-741,356	-178,855	-0,383	-0,006
-740,342	15,044	0,210	0,121
-739,327	-113,308	-0,391	0,056
-738,312	-40,596	0,076	-0,029
-737,298	-135,345	-0,360	0,031
-736,283	-70,218	0,193	0,054
-735,269	-120,286	-0,494	0,061
-734,254	16,898	0,179	0,105
-733,239	-12,339	-0,550	-0,264
-732,225	-98,045	0,232	0,044
-731,210	800,000	0,014	0,041
-730,196	259,118	0,034	-0,044
-729,181	-21,520	0,059	-0,026
-728,167	800,000	0,003	0,007
-727,152	-200,000	-0,018	-0,158
-726,137	14,376	-0,108	0,062
-725,123	158,087	-0,012	0,012
-724,108	-123,856	-0,192	-0,022
-723,094	-200,000	-0,030	-0,102
-722,079	-200,000	-0,009	-0,049
-721,064	-124,804	-0,074	0,008
-720,050	-200,000	-0,020	0,091
-719,035	98,516	0,045	-0,038
-718,021	800,000	-0,008	-0,023
-717,006	606,355	-0,026	-0,048
-715,991	-23,136	-0,080	-0,035
-714,977	-60,564	-0,187	-0,058
-713,962	106,438	-0,027	0,024
-712,948	-200,000	-0,023	0,125
-711,933	800,000	0,030	0,065
-710,918	-200,000	0,008	-0,045
-709,904	150,876	-0,102	-0,102
-708,889	-200,000	0,004	-0,040
-707,875	-200,000	0,008	-0,053
-706,860	-200,000	0,018	0,062
-705,845	-30,957	0,095	0,039
-704,831	171,722	-0,068	0,072
-703,816	-132,770	-0,193	-0,018
-702,802	-128,717	0,042	-0,004
-701,787	700,338	-0,017	-0,032
-700,772	-69,552	0,109	-0,030
-699,758	727,277	0,020	-0,039
-698,743	-9,516	0,089	0,044
-697,729	185,073	-0,050	-0,055
-696,714	-200,000	0,016	-0,156
-695,699	-74,156	0,054	0,014
-694,685	-29,612	0,093	0,039
-693,670	-200,000	-0,018	-0,111
-692,656	-200,000	0,009	-0,152
-691,641	-200,000	-0,032	0,257
-690,627	800,000	-0,043	0,116
-689,612	-200,000	0,006	0,026
-688,597	39,524	0,064	-0,042
-687,583	800,000	-0,033	-0,101
-686,568	8,137	-0,064	-0,035
-685,554	15,754	0,099	-0,057
-684,539	-17,383	0,080	-0,037
-683,524	-117,002	-0,131	0,017
-682,510	413,511	-0,120	0,188
-681,495	-7,737	0,123	-0,061
-680,481	-15,965	-0,023	-0,011
-679,466	681,478	-0,062	-0,120
-678,451	153,113	0,034	-0,034
-677,437	-71,756	-0,178	-0,048
-676,422	-200,000	-0,002	-0,024
-675,408	-200,000	-0,022	-0,091
-674,393	-200,000	0,011	-0,092
-673,378	58,196	-0,138	-0,099
-672,364	137,005	-0,161	-0,155
-671,349	-200,000	0,027	-0,101
-670,335	195,047	0,035	0,039
-669,320	637,430	0,038	0,072
-668,305	-49,503	0,088	-0,031
-667,291	26,989	-0,087	-0,053
-666,276	-51,464	-0,017	-0,006
-665,262	-151,615	-0,072	0,004
-664,247	413,411	0,024	0,038
-663,232	-91,879	0,032	0,007
-662,218	-88,991	-0,056	-0,012
-661,203	-200,000	0,014	-0,054
-660,189	800,000	0,038	-0,103
-659,174	-200,000	-0,002	-0,038
-658,159	252,246	0,028	0,036
-657,145	-163,451	0,043	0,001
-656,130	-200,000	-0,009	0,109
-655,116	-134,829	-0,042	-0,004
-654,101	-67,544	-0,031	0,009
-653,086	-7,219	0,034	0,017
-652,072	-200,000	-0,004	0,033
-651,057	-200,000	0,010	-0,075
-650,043	800,000	0,015	-0,034
-649,028	14,721	0,035	-0,020
-648,014	188,679	-0,042	0,046
-646,999	-20,573	-0,095	-0,043
-645,984	800,000	0,029	0,078
-644,970	98,607	-0,102	-0,087
-643,955	-176,233	0,047	-0,001
-642,941	-200,000	0,005	-0,065
-641,926	41,693	0,054	0,036
-640,911	-18,563	-0,055	-0,025
-639,897	11,626	0,030	0,017
-638,882	5,684	-0,054	0,029
-637,868	26,165	0,145	0,089
-636,853	-40,015	0,091	-0,035
-635,838	249,786	-0,051	-0,064
-634,824	425,911	0,099	-0,158
-633,809	800,000	0,016	0,045
-632,795	-75,913	0,071	0,018
-631,780	581,220	0,054	0,099
-630,765	-82,621	-0,042	0,010
-629,751	-123,489	-0,125	0,014
-628,736	800,000	0,041	-0,117
-627,722	87,279	0,037	0,030
-626,707	800,000	0,021	-0,057
-625,692	-106,079	-0,056	0,009
-624,678	-200,000	-0,006	-0,073
-623,663	391,704	0,080	0,122
-622,649	-69,136	-0,107	-0,030
-621,634	-155,860	-0,096	0,004
-620,619	-23,878	0,137	0,060
-619,605	-200,000	-0,030	0,108
-618,590	800,000	-0,033	0,073
-617,576	-6,610	0,062	0,031
-616,561	-27,019	-0,081	-0,035
-615,546	100,220	-0,057	-0,048
-614,532	574,987	-0,081	-0,147
-613,517	326,161	0,015	-0,022
-612,503	-28,407	-0,085	0,036
-611,488	70,302	-0,053	0,040
-610,474	46,540	0,101	-0,068
-609,459	-200,000	0,010	0,078
-608,444	70,948	-0,088	-0,067
-607,430	642,259	-0,100	-0,187
-606,415	800,000	-0,021	0,053
-605,401	-5,635	-0,050	0,025
-604,386	-28,788	-0,135	0,057
-603,371	-200,000	-0,019	-0,094
-602,357	604,067	-0,058	-0,106
-601,342	98,844	-0,119	-0,101
-600,328	-4,265	-0,069	-0,035
-599,313	321,930	-0,040	0,056
-598,298	100,482	-0,028	0,024
-597,284	-200,000	-0,010	0,062
-596,269	-12,606	0,016	0,008
-595,255	-200,000	0,050	0,182
-594,240	-100,831	-0,112	-0,020
-593,225	115,521	-0,059	0,053
-592,211	-4,835	0,081	-0,041
-591,196	-200,000	0,050	-0,163
-590,182	-200,000	-0,016	0,175
-589,167	49,761	0,090	0,062
-588,152	-13,204	0,151	0,072
-587,138	119,049	0,047	0,043
-586,123	793,274	-0,058	-0,117
-585,109	106,683	-0,086	-0,075
-584,094	123,070	-0,117	0,107
-583,079	-200,000	0,018	-0,085
-582,065	699,480	-0,052	-0,102
-581,050	-16,761	-0,019	-0,009
-580,036	800,000	-0,024	-0,058
-579,021	-129,307	0,035	-0,004
-578,006	800,000	0,057	-0,157
-576,992	56,650	0,019	0,014
-575,977	-200,000	0,017	0,213
-574,963	-19,658	-0,050	0,023
-573,948	-92,706	0,066	-0,013
-572,934	-200,000	-0,032	-0,143
-571,919	800,000	0,007	-0,020
-570,904	-19,062	-0,093	-0,042
-569,890	800,000	-0,047	-0,125
-568,875	-200,000	0,000	-0,126
-567,861	-13,859	0,071	0,034
-566,846	-104,535	-0,039	0,006
-565,831	20,349	-0,197	-0,116
-564,817	-35,874	-0,129	-0,051
-563,802	-116,479	-0,032	-0,004
-562,788	-111,795	-0,088	0,013
-561,773	800,000	0,021	-0,043
-560,758	-88,826	0,076	0,016
-559,744	-71,932	0,084	0,023
-558,729	-200,000	0,022	0,120
-557,715	-200,000	0,072	0,000
-556,700	800,000	-0,015	-0,041
-555,685	399,411	-0,039	-0,060
-554,671	426,740	-0,080	0,126
-553,656	-200,000	0,006	0,077
-552,642	311,146	0,087	0,119
-551,627	-49,212	-0,138	0,048
-550,612	62,947	-0,134	-0,098
-549,598	336,872	0,074	-0,106
-548,583	-190,816	-0,116	-0,001
-547,569	710,926	-0,036	0,070
-546,554	63,594	0,070	0,051
-545,539	-200,000	-0,011	-0,124
-544,525	-113,407	0,059	-0,008
-543,510	-200,000	-0,029	-0,097
-542,496	-75,942	-0,079	0,020
-541,481	698,077	0,034	-0,065
-540,466	495,855	0,033	-0,056
-539,452	246,293	0,038	-0,047
-538,437	-63,298	-0,100	-0,030
-537,423	800,000	0,055	0,120
-536,408	226,008	0,037	0,044
-535,393	61,652	0,052	-0,038
-534,379	21,913	-0,105	-0,062
-533,364	113,999	-0,101	-0,090
-532,350	-56,499	0,042	-0,014
-531,335	800,000	0,036	-0,099
-530,321	55,685	0,061	0,043
-529,306	487,534	-0,064	-0,108
-528,291	83,248	-0,142	-0,113
-527,277	-200,000	0,010	-0,151
-526,262	-200,000	0,005	-0,061
-525,248	-108,743	0,095	0,015
-524,233	-200,000	-0,007	0,029
-523,218	800,000	-0,062	-0,152
-522,204	151,854	-0,014	-0,014
-521,189	13,721	-0,067	0,038
-520,175	363,839	-0,061	-0,090
-519,160	259,443	0,019	-0,025
-518,145	-93,229	0,098	-0,020
-517,131	219,473	0,094	-0,110
-516,116	557,723	0,078	-0,139
-515,102	23,549	-0,129	0,078
-514,087	-103,827	-0,061	0,010
-513,072	-200,000	0,017	-0,128
-512,058	669,981	-0,045	0,086
-511,043	224,773	-0,099	0,118
-510,029	240,368	0,080	0,097
-509,014	494,306	-0,055	0,093
-507,999	-200,000	0,001	-0,005
-506,985	638,376	-0,047	-0,088
-505,970	48,016	-0,139	-0,095
-504,956	-112,915	-0,052	-0,007
-503,941	604,527	-0,069	-0,126
-502,926	81,526	0,056	-0,044
-501,912	34,513	0,102	0,065
-500,897	-59,111	0,048	-0,015
-499,883	86,748	-0,027	-0,022
-498,868	-24,924	0,096	-0,041
-497,853	800,000	-0,032	-0,093
-496,839	-23,032	0,139	-0,061
-495,824	-50,443	-0,031	0,011
-494,810	62,203	0,084	-0,061
-493,795	640,605	-0,033	0,061
-492,781	250,639	-0,047	0,059
-491,766	173,619	0,137	-0,144
-490,751	-148,364	0,127	-0,007
-489,737	789,752	-0,009	-0,018
-488,722	-200,000	0,007	0,219
-487,708	80,460	0,062	0,049
-486,693	-200,000	-0,035	-0,152
-485,678	-200,000	0,011	-0,122
-484,664	-167,102	-0,120	-0,003
-483,649	281,997	-0,069	0,090
-482,635	-172,689	-0,042	0,001
-481,620	113,448	0,072	-0,064
-480,605	-156,808	-0,118	-0,005
-479,591	184,578	-0,063	0,068
-478,576	96,787	-0,079	0,066
-477,562	355,622	0,036	-0,052
-476,547	-200,000	0,006	-0,032
-475,532	426,288	-0,038	0,061
-474,518	-200,000	-0,002	-0,020
-473,503	25,912	0,050	0,031
-472,489	264,351	-0,022	-0,027
-471,474	-200,000	0,027	0,097
-470,459	-106,591	0,057	-0,009
-469,445	-19,284	0,085	0,038
-468,430	2,284	-0,110	-0,058
-467,416	139,914	0,066	0,064
-466,401	-55,349	-0,160	0,052
-465,386	800,000	0,029	-0,079
-464,372	245,581	0,068	-0,084
-463,357	-200,000	-0,019	-0,111
-462,343	698,354	-0,045	-0,087
-461,328	-179,733	-0,104	0,002
-460,313	105,511	-0,013	0,011
-459,299	-58,302	0,035	-0,011
-458,284	122,991	0,094	0,086
-457,270	800,000	0,032	0,074
-456,255	329,710	-0,049	-0,070
-455,241	-29,489	-0,135	-0,056
-454,226	800,000	0,026	0,077
-453,211	25,332	-0,062	-0,037
-452,197	225,624	0,086	0,102
-451,182	-200,000	0,011	0,058
-450,168	800,000	-0,059	0,127
-449,153	-21,213	-0,109	-0,049
-448,138	97,272	-0,188	0,157
-447,124	-10,085	0,084	-0,041
-446,109	800,000	0,052	0,112
-445,095	-200,000	0,008	0,295
-444,080	-55,314	0,097	-0,031
-443,065	726,215	-0,044	-0,086
-442,051	-1,653	0,115	0,059
-441,036	800,000	0,036	-0,084
-440,022	-76,825	0,038	-0,010
-439,007	-200,000	0,017	0,068
-437,992	-117,402	0,057	-0,007
-436,978	157,423	0,056	0,057
-435,963	-55,918	0,030	0,010
-434,949	448,176	0,019	-0,031
-433,934	-105,463	-0,063	0,010
-432,919	-62,093	0,143	0,043
-431,905	501,716	-0,029	0,049
-430,890	-23,798	0,099	0,043
-429,876	182,844	0,054	0,058
-428,861	42,314	-0,117	0,078
-427,846	-200,000	-0,009	0,085
-426,832	-28,356	-0,072	-0,030
-425,817	149,572	-0,049	-0,048
-424,803	-200,000	0,003	0,012
-423,788	-117,196	-0,023	0,003
-422,773	72,520	0,195	-0,148
-421,759	117,873	0,108	0,097
-420,744	800,000	0,021	-0,062
-419,730	225,612	-0,073	-0,086
-418,715	-66,529	-0,079	-0,023
-417,701	-73,548	0,136	-0,036
-416,686	800,000	-0,026	-0,058
-415,671	115,605	0,061	-0,054
-414,657	-200,000	-0,019	0,066
-413,642	-200,000	-0,008	-0,088
-412,628	60,338	0,060	-0,043
-411,613	-35,037	-0,087	-0,034
-410,598	-12,294	0,070	0,033
-409,584	273,107	0,065	-0,084
-408,569	-200,000	0,038	0,125
-407,555	-15,725	-0,087	0,040
-406,540	800,000	-0,033	-0,099
-405,525	-200,000	-0,020	-0,066
-404,511	753,005	0,058	-0,114
-403,496	-200,000	-0,007	0,108
-402,482	650,676	0,069	0,128
-401,467	800,000	-0,053	0,144
-400,452	-200,000	0,009	-0,039
-399,438	-200,000	0,011	0,209
-398,423	327,785	-0,044	0,062
-397,409	-110,670	0,017	0,003
-396,394	800,000	0,067	-0,157
-395,379	435,059	0,024	0,038
-394,365	-163,912	0,078	-0,003
-393,350	110,079	-0,023	-0,020
-392,336	800,000	-0,034	0,068
-391,321	-123,548	0,065	-0,007
-390,306	560,324	0,036	0,063
-389,292	-101,876	-0,059	-0,010
-388,277	-193,951	-0,108	0,001
-387,263	-179,210	0,022	-0,000
-386,248	508,087	0,067	0,114
-385,233	800,000	-0,040	0,085
-384,219	-36,050	0,087	-0,034
-383,204	60,402	-0,198	-0,142
-382,190	-200,000	0,004	-0,088
-381,175	-24,738	0,043	0,018
-380,160	156,899	0,088	0,089
-379,146	-31,606	-0,104	0,042
-378,131	-25,941	-0,046	-0,020
-377,117	103,034	-0,118	-0,100
-376,102	800,000	0,047	-0,109
-375,088	287,580	-0,038	0,050
-374,073	-200,000	-0,019	0,075
-373,058	-200,000	0,003	0,072
-372,044	336,272	0,049	0,069
-371,029	-200,000	-0,007	-0,129
-370,015	406,466	0,096	-0,148
-369,000	221,215	-0,117	-0,137
-367,985	129,295	-0,040	-0,037
-366,971	215,186	-0,100	-0,115
-365,956	-8,146	0,080	-0,039
-364,942	-28,405	0,088	0,037
-363,927	-64,390	0,084	-0,025
-362,912	-200,000	0,010	-0,044
-361,898	800,000	0,044	0,099
-360,883	-117,264	-0,188	-0,025
-359,869	12,751	-0,080	-0,045
-358,854	-101,410	0,092	-0,016
-357,839	800,000	0,041	0,095
-356,825	2,217	0,147	0,077
-355,810	-110,287	-0,042	0,006
-354,796	9,032	0,091	0,050
-353,781	569,945	-0,059	0,104
-352,766	-200,000	-0,001	0,089
-351,752	-77,560	-0,060	-0,015
-350,737	-26,051	0,105	0,045
-349,723	-200,000	-0,006	0,078
-348,708	-14,415	-0,075	0,035
-347,693	565,999	0,051	-0,090
-346,679	358,067	-0,047	-0,069
-345,664	-125,468	-0,078	0,009
-344,650	800,000	0,013	0,035
-343,635	800,000	0,066	0,139
-342,620	8,790	0,049	-0,027
-341,606	-200,000	0,001	0,046
-340,591	463,349	-0,015	-0,025
-339,577	36,202	-0,136	0,087
-338,562	-178,498	0,035	-0,001
-337,548	400,335	0,067	-0,102
-336,533	-175,726	0,259	0,005
-335,518	5,693	0,064	0,034
-334,504	-158,774	0,108	0,004
-333,489	-54,949	-0,150	0,049
-332,475	-100,298	-0,092	-0,016
-331,460	86,675	-0,151	-0,121
-330,445	22,329	0,039	0,023
-329,431	800,000	-0,027	-0,055
-328,416	32,930	-0,067	-0,042
-327,402	197,533	-0,110	0,122
-326,387	-33,423	0,082	-0,033
-325,372	-200,000	-0,003	0,045
-324,358	-141,919	-0,091	-0,007
-323,343	187,500	-0,025	-0,027
-322,329	800,000	-0,009	-0,018
-321,314	-145,054	0,114	0,007
-320,299	-200,000	0,038	0,130
-319,285	800,000	-0,059	-0,160
-318,270	-123,111	-0,173	0,020
-317,256	0,890	0,101	-0,052
-316,241	-200,000	-0,024	-0,094
-315,226	128,101	-0,054	0,050
-314,212	-76,127	-0,077	0,020
-313,197	-200,000	-0,015	0,078
-312,183	314,431	-0,043	-0,059
-311,168	-83,418	0,048	0,011
-310,153	-159,221	-0,065	-0,003
-309,139	67,314	0,047	0,035
-308,124	-98,712	0,059	-0,011
-307,110	621,324	0,039	-0,072
-306,095	119,141	-0,076	0,068
-305,080	-67,258	0,098	-0,028
-304,066	80,806	0,056	0,044
-303,051	-200,000	-0,021	-0,085
-302,037	-200,000	0,009	-0,038
-301,022	222,201	0,105	0,123
-300,008	134,049	0,102	0,096
-298,993	800,000	-0,021	0,043
-297,978	167,684	-0,039	-0,041
-296,964	50,728	-0,202	-0,139
-295,949	-200,000	-0,011	0,125
-294,935	83,324	-0,229	-0,181
-293,920	239,974	0,011	0,013
-292,905	106,698	0,055	0,047
-291,891	-109,941	0,034	-0,005
-290,876	-193,265	-0,051	0,000
-289,862	-14,693	0,043	-0,020
-288,847	-200,000	0,006	-0,164
-287,832	474,797	-0,114	-0,188
-286,818	-200,000	-0,017	-0,129
-285,803	41,430	0,110	-0,072
-284,789	-200,000	-0,008	0,071
-283,774	-152,869	-0,129	-0,007
-282,759	128,350	0,080	0,074
-281,745	-77,537	-0,165	-0,041
-280,730	-129,311	-0,054	-0,005
-279,716	557,445	-0,046	-0,081
-278,701	-200,000	-0,012	-0,062
-277,686	188,255	-0,068	0,074
-276,672	285,891	-0,055	-0,071
-275,657	-200,000	-0,002	0,163
-274,643	-81,778	0,057	-0,013
-273,628	800,000	0,041	-0,102
-272,613	269,113	0,029	0,037
-271,599	800,000	0,033	0,092
-270,584	115,140	0,091	-0,081
-269,570	-143,453	0,144	0,010
-268,555	49,963	0,083	0,057
-267,540	411,427	-0,051	0,079
-266,526	-78,308	0,136	-0,033
-265,511	450,643	-0,034	-0,054
-264,497	123,458	-0,024	0,022
-263,482	73,159	0,109	0,082
-262,467	461,457	-0,024	0,040
-261,453	-112,507	-0,169	0,024
-260,438	800,000	-0,043	-0,132
-259,424	-200,000	0,007	0,052
-258,409	-97,109	-0,115	0,022
-257,395	-89,139	-0,062	-0,013
-256,380	-200,000	-0,011	0,133
-255,365	-82,347	-0,103	0,024
-254,351	136,494	0,070	0,067
-253,336	-164,848	-0,148	0,005
-252,322	-200,000	0,012	-0,049
-251,307	471,403	-0,073	0,119
-250,292	-173,356	-0,016	-0,000
-249,278	800,000	0,049	0,122
-248,263	-144,458	-0,119	-0,008
-247,249	-41,203	0,067	0,025
-246,234	-200,000	0,001	-0,144
-245,219	-200,000	0,008	0,060
-244,205	-77,403	0,066	-0,017
-243,190	327,670	0,072	-0,100
-242,176	29,497	0,061	0,037
-241,161	42,653	0,051	0,033
-240,146	-139,215	0,075	-0,006
-239,132	-130,371	0,140	-0,014
-238,117	-200,000	0,012	0,085
-237,103	800,000	0,030	0,069
-236,088	-47,096	-0,098	0,034
-235,073	-155,111	0,190	0,009
-234,059	-200,000	0,048	0,224
-233,044	0,715	-0,153	0,079
-232,030	-39,522	-0,025	-0,009
-231,015	-112,760	-0,010	0,001
-230,000	7,238	-0,045	-0,024
-228,986	45,852	-0,058	0,039
-227,971	800,000	0,022	-0,047
-226,957	-44,389	0,054	-0,019
-225,942	-45,722	-0,146	0,052
-224,927	-166,033	0,108	-0,003
-223,913	224,967	-0,033	-0,039
-222,898	587,823	0,021	-0,037
-221,884	165,119	-0,067	-0,068
-220,869	422,084	0,099	0,155
-219,855	-113,566	0,069	0,010
-218,840	-167,955	0,100	0,003
-217,825	333,915	0,022	0,031
-216,811	-200,000	-0,027	-0,151
-215,796	58,821	-0,108	0,077
-214,782	497,664	0,011	0,019
-213,767	-164,429	0,177	0,006
-212,752	-22,936	-0,056	-0,024
-211,738	800,000	0,001	0,002
-210,723	800,000	0,005	0,014
-209,709	697,393	0,032	0,062
-208,694	-52,667	0,091	0,030
-207,679	800,000	0,039	-0,100
-206,665	-35,027	-0,025	-0,010
-205,650	55,542	0,032	-0,023
-204,636	-200,000	0,007	0,026
-203,621	188,855	0,041	-0,044
-202,606	-200,000	-0,012	0,082
-201,592	-105,305	0,046	0,007
-200,577	-53,921	0,111	-0,036
-199,563	-25,051	0,044	0,019
-198,548	135,726	0,135	0,127
-197,533	-70,608	-0,069	0,019
-196,519	800,000	-0,032	0,102
-195,504	326,521	-0,055	-0,076
-194,490	152,610	0,110	0,108
-193,475	800,000	0,042	0,105
-192,460	21,975	0,092	0,054
-191,446	800,000	0,021	-0,048
-190,431	-147,845	0,142	-0,008
-189,417	-137,788	0,062	-0,005
-188,402	-46,674	-0,036	0,013
-187,387	-115,471	0,107	-0,014
-186,373	-162,551	-0,121	-0,004
-185,358	65,338	0,029	-0,021
-184,344	174,204	0,035	0,036
-183,329	-149,127	0,061	-0,003
-182,315	-191,651	0,089	0,001
-181,300	228,154	0,035	0,042
-180,285	-200,000	0,004	-0,047
-179,271	-58,432	-0,021	0,007
-178,256	-200,000	-0,003	0,038
-177,242	132,585	0,083	0,077
-176,227	621,545	-0,051	0,093
-175,212	1,012	-0,018	0,009
-174,198	38,885	0,115	-0,074
-173,183	-200,000	0,025	-0,145
-172,169	-80,322	-0,075	-0,018
-171,154	800,000	-0,057	-0,167
-170,139	130,095	0,167	0,155
-169,125	54,181	0,088	0,061
-168,110	576,015	0,084	0,148
-167,096	108,672	0,075	0,065
-166,081	-200,000	-0,007	-0,032
-165,066	-94,488	-0,075	-0,015
-164,052	30,027	-0,078	-0,048
-163,037	-24,279	-0,060	0,026
-162,023	-158,520	0,133	-0,005
-161,008	800,000	-0,031	0,085
-159,993	800,000	0,011	-0,031
-158,979	-41,930	0,118	0,044
-157,964	133,281	-0,055	-0,051
-156,950	86,582	-0,066	-0,052
-155,935	46,925	0,144	0,097
-154,920	-172,720	-0,113	-0,002
-153,906	-14,976	0,131	0,061
-152,891	-200,000	-0,012	0,139
-151,877	-200,000	-0,027	-0,209
-150,862	800,000	0,063	-0,130
-149,847	1,368	-0,051	-0,027
-148,833	-88,098	0,125	-0,027
-147,818	173,409	0,096	0,100
-146,804	97,741	0,100	-0,083
-145,789	-200,000	0,012	0,053
-144,775	-100,039	-0,095	-0,017
-143,760	-49,973	-0,176	0,060
-142,745	95,432	0,055	-0,045
-141,731	139,163	0,119	0,113
-140,716	-40,428	-0,141	0,052
-139,702	126,371	0,045	0,041
-138,687	-200,000	-0,009	0,046
-137,672	81,954	0,041	-0,032
-136,658	96,798	0,051	0,042
-135,643	288,551	-0,094	-0,123
-134,629	-156,418	-0,105	0,005
-133,614	-40,317	0,129	-0,048
-132,599	-200,000	0,035	0,118
-131,585	800,000	0,009	0,026
-130,570	11,099	-0,039	-0,021
-129,556	107,100	-0,095	-0,081
-128,541	-200,000	0,016	-0,115
-127,526	258,357	-0,073	-0,090
-126,512	66,096	0,082	0,060
-125,497	488,688	-0,041	0,068
-124,483	800,000	0,031	0,067
-123,468	26,065	-0,044	-0,027
-122,453	-70,878	-0,113	0,031
-121,439	67,890	-0,032	0,024
-120,424	-200,000	-0,010	-0,035
-119,410	9,201	0,049	0,027
-118,395	44,140	0,152	0,101
-117,380	-80,637	-0,050	-0,012
-116,366	731,899	-0,023	-0,044
-115,351	-200,000	-0,004	0,090
-114,337	-200,000	0,002	0,054
-113,322	160,441	0,086	0,086
-112,307	-200,000	-0,021	0,091
-111,293	-125,105	0,053	0,006
-110,278	-46,190	-0,087	0,031
-109,264	-200,000	0,021	-0,094
-108,249	800,000	0,010	-0,020
-107,234	-200,000	-0,043	-0,186
-106,220	82,746	-0,061	-0,048
-105,205	-44,212	0,276	0,099
-104,191	-200,000	-0,012	0,145
-103,176	54,219	0,122	-0,084
-102,162	11,857	-0,019	0,011
-101,147	-122,411	0,093	-0,011
-100,132	-54,017	0,033	0,011
-99,118	528,993	0,050	0,086
-98,103	110,215	-0,100	-0,087
-97,089	-173,003	0,282	0,006
-96,074	26,562	0,152	0,091
-95,059	285,797	0,047	0,061
-94,045	612,532	-0,025	0,045
-93,030	-71,689	-0,233	0,062
-92,016	800,000	-0,017	0,053
-91,001	54,197	-0,026	-0,018
-89,986	-200,000	0,027	0,130
-88,972	-200,000	-0,002	0,094
-87,957	-200,000	0,020	0,063
-86,943	134,557	-0,066	-0,061
-85,928	70,946	-0,125	-0,093
-84,913	224,054	-0,072	0,084
-83,899	117,326	0,035	0,031
-82,884	-48,502	0,109	0,037
-81,870	-200,000	0,001	-0,047
-80,855	800,000	0,094	0,190
-79,840	373,340	0,018	0,027
-78,826	736,822	0,076	-0,148
-77,811	800,000	0,061	-0,164
-76,797	-200,000	0,015	-0,095
-75,782	293,439	-0,012	-0,016
-74,767	5,659	-0,096	-0,051
-73,753	-200,000	0,025	0,162
-72,738	-142,133	-0,084	0,006
-71,724	212,904	-0,102	-0,116
-70,709	-60,972	-0,050	-0,015
-69,694	-200,000	0,007	-0,040
-68,680	-16,625	0,077	-0,035
-67,665	-200,000	-0,030	-0,109
-66,651	800,000	-0,034	0,098
-65,636	-2,981	0,048	0,024
-64,622	-8,979	-0,080	-0,038
-63,607	-200,000	0,009	-0,093
-62,592	800,000	0,005	-0,011
-61,578	-6,284	0,098	-0,048
-60,563	219,980	0,024	0,028
-59,549	-73,802	0,023	0,006
-58,534	80,357	-2,493	-1,927
-57,519	793,247	0,171	-0,340
-56,505	-200,000	-1,641	-5,481
-55,490	314,856	1,147	1,556
-54,476	800,000	5,248	11,687
-53,461	-200,000	21,730	338,731
-52,446	800,000	760,549	2300,259
-51,432	515,681	1655,362	2788,498
-50,417	105,107	1621,706	1374,419
-49,403	75,236	1276,232	965,867
-48,388	26,133	1023,811	612,483
-47,373	19,359	989,627	569,575
-46,359	13,731	976,995	543,771
-45,344	9,719	973,601	528,651
-44,330	10,278	971,496	529,326
-43,315	9,214	969,658	524,808
-42,300	9,140	968,720	524,036
-41,286	9,126	967,461	523,290
-40,271	9,090	966,533	522,648
-39,257	9,141	965,516	522,246
-38,242	9,050	965,005	521,650
-37,227	9,075	964,057	521,199
-36,213	8,978	963,434	520,525
-35,198	9,066	962,368	520,216
-34,184	9,171	961,525	520,081
-33,169	9,058	960,835	519,320
-32,154	9,110	959,913	518,970
-31,140	9,135	958,940	518,502
-30,125	9,176	958,155	518,191
-29,111	9,129	957,251	517,531
-28,096	9,131	956,809	517,276
-27,082	9,105	956,077	516,776
-26,067	9,105	955,321	516,346
-25,052	9,077	954,412	515,744
-24,038	9,130	953,633	515,476
-23,023	9,027	953,206	514,890
-22,009	9,123	952,696	514,905
-20,994	9,151	951,752	514,462
-19,979	9,115	951,351	514,110
-18,965	9,036	950,823	513,552
-17,950	9,066	950,198	513,288
-16,936	9,051	949,428	512,805
-15,921	9,031	948,742	512,348
-14,906	8,959	948,074	511,739
-13,892	8,973	947,244	511,315
-12,877	9,010	946,792	511,167
-11,863	8,987	945,991	510,642
-10,848	8,912	945,586	510,163
-9,833	9,149	944,974	510,571
-8,819	8,982	944,449	509,734
-7,804	8,969	943,661	509,247
-6,790	9,016	943,114	509,081
-5,775	9,067	942,454	508,867
-4,760	8,994	942,041	508,391
-3,746	9,021	941,172	507,988
-2,731	8,870	940,496	507,123
-1,717	8,887	939,991	506,882
-0,702	8,860	939,381	506,449
0,313	8,731	938,597	506,381
1,327	12,266	936,497	516,405
2,342	21,077	785,242	456,244
3,356	16,167	451,482	254,854
4,371	-10,785	314,029	148,458
5,386	-14,473	296,317	136,323
6,400	-16,465	290,171	131,500
7,415	-16,695	287,741	130,160
8,429	-17,404	285,986	128,658
9,444	-17,345	285,056	128,286
10,459	-16,986	284,289	128,280
11,473	-17,112	283,761	127,908
12,488	-17,240	283,333	127,579
13,502	-17,227	282,807	127,343
14,517	-16,952	282,466	127,445
15,531	-16,916	281,986	127,252
16,546	-16,785	281,640	127,211
17,561	-16,928	281,335	126,924
18,575	-16,836	280,956	126,829
19,590	-16,944	280,666	126,584
20,604	-16,769	280,273	126,563
21,619	-16,811	279,870	126,329
22,634	-16,851	279,636	126,174
23,648	-16,874	279,389	126,030
24,663	-16,800	279,208	126,007
25,677	-16,918	278,866	125,730
26,692	-16,712	278,479	125,740
27,707	-16,789	278,111	125,489
28,721	-16,868	277,961	125,335
29,736	-16,828	277,618	125,207
30,750	-16,787	277,452	125,160
31,765	-16,821	277,302	125,049
32,780	-16,735	276,871	124,926
33,794	-16,697	276,654	124,852
34,809	-16,733	276,406	124,695
35,823	-16,658	276,204	124,664
36,838	-16,756	275,638	124,305
37,853	-16,864	275,637	124,191
38,867	-16,739	275,452	124,215
39,882	-16,825	275,213	124,015
40,896	-16,835	274,929	123,867
41,911	-16,802	274,816	123,836
42,926	-16,551	274,227	123,795
43,940	-16,926	274,295	123,463
44,955	-16,695	273,848	123,467
45,969	-16,804	273,729	123,300
46,984	-16,711	273,538	123,290
47,999	-16,796	273,387	123,132
49,013	-16,723	273,160	123,086
50,028	-16,648	273,076	123,108
51,042	-16,657	272,801	122,965
52,057	-16,801	272,467	122,669
53,071	-16,471	272,198	122,844
54,086	-16,676	272,090	122,593
55,101	-16,523	271,773	122,582
56,115	-16,754	271,591	122,274
57,130	-16,716	271,321	122,177
58,144	-16,932	271,087	121,861
59,159	-16,761	270,659	121,816
60,174	-16,973	270,482	121,529
61,188	-16,717	270,245	121,649
62,203	-16,653	270,043	121,605
63,217	-16,879	269,873	121,310
64,232	-16,879	269,743	121,241
65,247	-16,923	269,473	121,067
66,261	-16,807	269,134	121,011
67,276	-16,634	268,818	121,017
68,290	-16,774	268,784	120,862
69,305	-16,821	268,435	120,652
70,320	-16,674	268,367	120,745
71,334	-16,673	268,103	120,617
72,349	-16,834	267,699	120,277
73,363	-16,789	267,536	120,234
74,378	-16,661	267,237	120,206
75,393	-16,778	267,126	120,039
76,407	-16,845	266,897	119,864
77,422	-16,660	266,722	119,943
78,436	-16,784	266,462	119,703
79,451	-16,646	266,129	119,668
80,466	-16,624	265,887	119,568
81,480	-16,811	265,715	119,311
82,495	-16,673	265,648	119,395
83,509	-16,682	265,358	119,245
84,524	-16,575	265,109	119,220
85,539	-16,702	265,044	119,066
86,553	-16,822	264,787	118,831
87,568	-16,785	264,544	118,745
88,582	-16,795	264,373	118,649
89,597	-16,790	264,196	118,562
90,611	-16,582	263,865	118,591
91,626	-16,708	263,632	118,362
92,641	-16,620	263,326	118,294
93,655	-16,571	263,243	118,289
94,670	-16,744	263,081	118,051
95,684	-16,632	262,888	118,054
96,699	-16,773	262,787	117,872
97,714	-16,876	262,495	117,638
98,728	-16,680	262,371	117,748
99,743	-16,637	262,136	117,670
100,757	-16,583	262,005	117,649
101,772	-16,701	261,660	117,378
102,787	-16,754	261,402	117,205
103,801	-16,728	261,278	117,162
104,816	-16,563	260,922	117,138
105,830	-16,701	260,752	116,929
106,845	-16,786	260,551	116,753
107,860	-16,772	260,382	116,679
108,874	-16,904	260,138	116,443
109,889	-16,926	259,880	116,297
110,903	-16,786	259,741	116,349
111,918	-16,871	259,607	116,204
112,933	-16,839	259,463	116,157
113,947	-16,752	259,119	116,070
114,962	-16,732	259,004	116,025
115,976	-16,672	258,816	115,984
116,991	-16,801	258,647	115,784
118,006	-16,709	258,492	115,785
119,020	-16,495	258,307	115,879
120,035	-16,732	258,142	115,587
121,049	-16,816	257,876	115,384
122,064	-16,647	257,686	115,436
123,079	-16,696	257,502	115,301
124,093	-16,717	257,153	115,116
125,108	-16,729	257,009	115,031
126,122	-16,302	256,777	115,290
127,137	-16,533	256,740	115,061
128,151	-16,647	256,571	114,875
129,166	-16,643	256,343	114,767
130,181	-16,512	256,094	114,759
131,195	-16,776	255,913	114,438
132,210	-16,714	255,723	114,397
133,224	-16,810	255,487	114,197
134,239	-16,853	255,374	114,100
135,254	-16,853	255,170	113,998
136,268	-16,704	255,068	114,072
137,283	-16,603	254,784	114,022
138,297	-16,534	254,467	113,929
139,312	-16,623	254,360	113,794
140,327	-16,597	253,939	113,619
141,341	-16,650	253,845	113,521
142,356	-16,794	253,712	113,327
143,370	-16,632	253,453	113,341
144,385	-16,791	253,418	113,179
145,400	-16,817	253,202	113,050
146,414	-16,504	252,809	113,132
147,429	-16,552	252,628	113,000
148,443	-16,747	252,654	112,834
149,458	-16,686	252,226	112,686
150,473	-16,688	252,102	112,618
151,487	-16,799	252,047	112,489
152,502	-16,593	251,763	112,528
153,516	-16,889	251,676	112,226
154,531	-16,506	251,407	112,423
155,546	-16,597	251,246	112,263
156,560	-16,616	251,044	112,147
157,575	-16,711	250,850	111,970
158,589	-16,773	250,618	111,804
159,604	-16,693	250,506	111,812
160,619	-16,680	250,266	111,705
161,633	-16,758	250,051	111,533
162,648	-16,655	250,006	111,591
163,662	-16,784	249,817	111,387
164,677	-16,601	249,507	111,393
165,692	-16,757	249,454	111,227
166,706	-16,746	249,264	111,143
167,721	-16,767	249,073	111,030
168,735	-16,686	248,959	111,037
169,750	-16,619	248,674	110,957
170,764	-16,809	248,676	110,787
171,779	-16,755	248,410	110,705
172,794	-16,662	248,352	110,748
173,808	-16,688	247,995	110,556
174,823	-16,560	247,917	110,619
175,837	-16,638	247,834	110,507
176,852	-16,645	247,420	110,307
177,867	-16,621	247,336	110,279
178,881	-16,610	247,110	110,178
179,896	-16,585	247,112	110,190
180,910	-16,653	246,840	110,002
181,925	-16,608	246,704	109,969
182,940	-16,765	246,483	109,730
183,954	-16,622	246,284	109,751
184,969	-16,787	246,203	109,568
185,983	-16,713	246,035	109,545
186,998	-16,686	245,822	109,462
188,013	-16,562	245,655	109,482
189,027	-16,580	245,423	109,353
190,042	-16,768	245,208	109,092
191,056	-16,828	245,098	108,983
192,071	-16,876	244,903	108,847
193,086	-16,612	244,701	108,966
194,100	-16,588	244,385	108,835
195,115	-16,659	244,257	108,710
196,129	-16,712	244,083	108,579
197,144	-16,795	244,157	108,534
198,159	-16,733	243,683	108,365
199,173	-16,907	243,651	108,198
200,188	-16,786	243,404	108,178
201,202	-16,710	243,255	108,164
202,217	-16,498	243,044	108,235
203,232	-16,488	242,917	108,177
204,246	-16,794	242,722	107,830
205,261	-17,172	242,231	107,293
206,275	-15,686	242,787	108,747
207,290	-10,827	244,641	113,574
208,304	-4,407	246,684	119,838
209,319	-1,397	247,370	122,659
210,334	-0,522	247,523	123,449
211,348	0,743	247,652	124,551
212,363	1,112	247,773	124,906
213,377	1,524	247,766	125,233
214,392	1,967	247,734	125,573
215,407	2,063	247,790	125,670
216,421	2,171	247,544	125,623
217,436	1,960	247,572	125,451
218,450	2,149	247,172	125,393
219,465	2,159	247,036	125,322
220,480	2,020	246,976	125,165
221,494	1,734	246,665	124,762
222,509	1,495	246,337	124,388
223,523	1,269	246,003	124,022
224,538	1,146	245,948	123,882
225,553	0,884	245,823	123,592
226,567	0,986	245,572	123,539
227,582	1,236	245,221	123,556
228,596	1,224	245,087	123,468
229,611	1,170	244,944	123,341
230,626	0,853	244,910	123,053
231,640	1,234	244,643	123,219
232,655	0,936	244,523	122,905
233,669	0,920	244,381	122,809
234,684	1,032	244,240	122,819
235,699	1,064	244,039	122,733
236,713	1,147	243,926	122,733
237,728	0,957	243,827	122,517
238,742	1,133	243,502	122,486
239,757	1,109	243,373	122,391
240,772	0,960	243,326	122,235
241,786	1,020	243,059	122,139
242,801	1,049	243,031	122,138
243,815	0,920	242,830	121,921
244,830	1,067	242,648	121,938
245,844	0,976	242,512	121,785
246,859	1,096	242,329	121,779
247,874	1,202	242,121	121,750
248,888	1,166	241,924	121,610
249,903	1,132	241,865	121,543
250,917	1,329	241,611	121,563
251,932	1,415	241,499	121,565
252,947	1,143	241,468	121,319
253,961	1,292	241,248	121,318
254,976	1,041	241,000	120,981
255,990	1,208	240,843	121,025
257,005	1,222	240,807	121,007
258,020	1,166	240,605	120,850
259,034	1,164	240,483	120,777
260,049	1,001	240,319	120,553
261,063	1,090	240,051	120,480
262,078	1,157	240,020	120,506
263,093	0,927	239,759	120,181
264,107	0,904	239,749	120,147
265,122	0,876	239,600	120,039
266,136	1,158	239,296	120,101
267,151	1,071	239,168	119,957
268,166	1,056	239,115	119,908
269,180	0,844	238,762	119,551
270,195	0,962	238,826	119,666
271,209	1,187	238,569	119,705
272,224	1,012	238,519	119,531
273,239	0,970	238,330	119,392
274,253	1,126	238,182	119,431
275,268	1,176	237,976	119,356
276,282	0,978	237,827	119,115
277,297	1,151	237,519	119,086
278,312	0,945	237,507	118,907
279,326	1,113	237,289	118,920
280,341	0,991	237,272	118,804
281,355	1,211	237,086	118,874
282,370	1,224	236,886	118,773
283,384	1,174	236,670	118,615
284,399	1,105	236,626	118,528
285,414	1,065	236,460	118,403
286,428	1,245	236,295	118,451
287,443	1,337	236,112	118,422
288,457	1,181	235,856	118,161
289,472	0,985	235,955	118,046
290,487	1,202	235,614	118,034
291,501	1,270	235,469	118,005
292,516	0,991	235,251	117,666
293,530	1,064	235,324	117,750
294,545	1,181	235,132	117,735
295,560	1,097	235,074	117,629
296,574	1,293	234,746	117,608
297,589	1,310	234,546	117,510
298,603	1,276	234,551	117,476
299,618	1,233	234,364	117,338
300,633	1,147	234,238	117,197
301,647	1,128	234,153	117,130
302,662	1,374	233,899	117,184
303,676	1,455	233,786	117,179
304,691	1,197	233,652	116,901
305,706	1,359	233,539	116,960
306,720	1,203	233,300	116,710
307,735	1,288	233,222	116,725
308,749	1,309	233,049	116,645
309,764	1,301	232,849	116,528
310,779	1,383	232,579	116,446
311,793	1,250	232,591	116,338
312,808	1,443	232,429	116,396
313,822	1,245	232,219	116,128
314,837	1,312	232,109	116,114
315,852	1,517	231,937	116,175
316,866	1,398	231,821	116,016
317,881	1,321	231,744	115,907
318,895	1,406	231,592	115,887
319,910	1,294	231,331	115,659
320,925	1,260	231,292	115,604
321,939	1,301	231,017	115,487
322,954	1,437	231,048	115,597
323,968	1,249	230,809	115,323
324,983	1,557	230,687	115,487
325,997	1,449	230,605	115,353
327,012	1,221	230,298	115,015
328,027	1,425	230,020	115,022
329,041	1,345	230,018	114,950
330,056	1,529	229,762	114,952
331,070	1,396	229,847	114,883
332,085	1,072	229,612	114,508
333,100	1,247	229,425	114,538
334,114	1,362	229,329	114,567
335,129	1,469	229,119	114,533
336,143	1,450	229,044	114,471
337,158	1,530	229,164	114,581
338,173	1,324	228,858	114,262
339,187	1,484	228,560	114,224
340,202	1,664	228,287	114,213
341,216	1,401	228,332	114,027
342,231	1,416	228,201	113,963
343,246	1,263	227,897	113,686
344,260	1,218	227,900	113,643
345,275	1,412	227,868	113,763
346,289	1,256	227,642	113,523
347,304	1,461	227,438	113,565
348,319	1,377	227,205	113,376
349,333	1,370	227,182	113,349
350,348	1,474	226,871	113,262
351,362	1,290	226,875	113,115
352,377	1,479	226,669	113,144
353,392	1,479	226,576	113,088
354,406	1,607	226,388	113,079
355,421	193,271	1314,247	1384,865
356,435	154,876	1446,663	1384,727
