DTS Sentinel unit serial number:	SN410029Multiplexer serial number:	ORYXHardware model number:	OX2-SRSoftware version number:	ORYX F/W v4,00 Oryx Data Collector v3.7.2.0data status	okinstallation	B5 Nyhavnadifferential loss correction	single-endedforward channel	channel 2reverse channel	N/Adate	2023/12/12time	05:57:13forward acquisition time	300,00reverse acquisition time	0,00gamma	499,1914k internal	0,3158k external	0,3158temperature offset calibration	1,0000default loss term (dB/km)	0,3820temperature slope calibration	1,0000multiplexer offset coefficient	1,0000multiplexer slope coefficient	1,0000fibre end	0,00T internal ref (°C)	15,31T ext. ref 1 (°C)	-1,06T ext. ref 2 (°C)	-1,35length (m)	temperature (°C)	Stokes	anti-Stokes-744,400	274,629	0,128	0,167
-743,385	-133,912	-0,225	-0,020
-742,371	23,860	0,172	0,104
-741,356	81,843	-0,263	0,209
-740,342	595,366	0,034	0,062
-739,327	-90,586	-0,262	0,055
-738,312	7,256	-0,042	-0,023
-737,298	-104,778	-0,343	0,058
-736,283	61,995	0,094	-0,069
-735,269	-50,541	-0,195	0,067
-734,254	-147,817	0,105	0,006
-733,239	-191,160	-0,434	0,003
-732,225	-133,695	0,178	0,016
-731,210	-56,419	0,126	-0,041
-730,196	-136,926	-0,062	-0,005
-729,181	369,762	-0,123	-0,185
-728,167	-200,000	0,024	-0,098
-727,152	-200,000	0,010	0,054
-726,137	-200,000	-0,022	0,127
-725,123	28,965	-0,023	-0,014
-724,108	161,005	-0,099	-0,103
-723,094	267,295	-0,127	-0,164
-722,079	-123,603	-0,095	0,011
-721,064	-96,906	0,167	-0,032
-720,050	-87,805	-0,143	-0,031
-719,035	-115,198	0,041	0,006
-718,021	-44,674	0,101	-0,037
-717,006	517,371	-0,050	-0,087
-715,991	-200,000	-0,005	-0,118
-714,977	19,973	0,052	0,031
-713,962	734,676	-0,070	0,138
-712,948	-49,760	-0,127	-0,044
-711,933	622,583	-0,015	-0,027
-710,918	-200,000	0,008	-0,120
-709,904	220,496	-0,030	-0,036
-708,889	66,193	-0,095	-0,071
-707,875	-200,000	-0,049	-0,164
-706,860	-200,000	-0,014	-0,110
-705,845	-97,248	-0,204	-0,039
-704,831	303,494	0,063	0,086
-703,816	31,325	-0,145	0,091
-702,802	58,884	-0,091	0,066
-701,787	-23,163	-0,133	-0,059
-700,772	51,355	-0,041	-0,028
-699,758	-44,132	-0,143	-0,052
-698,743	321,972	0,035	0,050
-697,729	800,000	-0,038	-0,110
-696,714	-200,000	-0,005	0,037
-695,699	-110,262	-0,121	-0,018
-694,685	29,933	-0,111	-0,069
-693,670	800,000	-0,047	-0,143
-692,656	359,926	-0,026	-0,039
-691,641	224,326	0,036	-0,043
-690,627	-200,000	0,034	0,139
-689,612	154,409	-0,059	-0,059
-688,597	-200,000	-0,004	-0,092
-687,583	-165,917	-0,048	0,001
-686,568	-26,267	-0,068	-0,029
-685,554	-114,038	-0,056	-0,008
-684,539	-6,109	0,063	-0,031
-683,524	471,047	-0,049	-0,081
-682,510	800,000	0,019	-0,057
-681,495	319,473	-0,042	-0,059
-680,481	84,376	0,035	-0,028
-679,466	-46,262	-0,060	0,022
-678,451	151,319	-0,079	0,080
-677,437	98,258	0,047	-0,040
-676,422	61,799	0,046	0,034
-675,408	110,715	0,068	0,060
-674,393	-60,076	0,075	0,023
-673,378	-76,404	-0,102	-0,026
-672,364	40,188	-0,020	0,013
-671,349	800,000	0,059	-0,168
-670,335	-173,999	0,146	0,003
-669,320	-200,000	-0,009	0,041
-668,305	-65,956	0,003	-0,001
-667,291	-142,482	0,071	0,005
-666,276	-5,413	0,019	-0,010
-665,262	588,898	-0,062	-0,112
-664,247	-200,000	-0,004	0,017
-663,232	-89,691	0,032	-0,007
-662,218	40,398	0,019	-0,012
-661,203	-81,175	0,047	-0,011
-660,189	-7,289	0,049	0,024
-659,174	-200,000	-0,001	-0,044
-658,159	-200,000	-0,028	-0,124
-657,145	-47,380	-0,081	-0,029
-656,130	56,165	0,095	-0,068
-655,116	-104,577	0,031	0,005
-654,101	800,000	-0,038	0,097
-653,086	231,269	-0,036	0,044
-652,072	83,726	-0,092	0,073
-651,057	228,843	-0,092	-0,110
-650,043	-100,770	-0,074	-0,013
-649,028	800,000	0,034	-0,077
-648,014	19,567	0,114	-0,067
-646,999	-6,463	0,063	-0,031
-645,984	65,034	-0,075	0,055
-644,970	-50,259	-0,222	-0,077
-643,955	102,766	0,065	-0,056
-642,941	-200,000	0,008	-0,139
-641,926	235,799	0,054	0,066
-640,911	153,999	-0,104	0,105
-639,897	503,492	0,014	0,024
-638,882	800,000	-0,056	0,160
-637,868	41,454	-0,094	0,062
-636,853	-200,000	0,021	-0,080
-635,838	800,000	-0,076	-0,224
-634,824	187,573	-0,036	0,040
-633,809	6,065	0,102	-0,055
-632,795	259,852	0,080	-0,101
-631,780	214,805	-0,067	-0,078
-630,765	800,000	0,036	-0,103
-629,751	-78,336	0,111	-0,028
-628,736	221,984	-0,134	-0,158
-627,722	-200,000	0,005	-0,085
-626,707	-200,000	-0,038	0,170
-625,692	23,606	-0,083	0,050
-624,678	325,333	0,110	-0,154
-623,663	0,950	-0,034	-0,018
-622,649	-59,730	-0,123	-0,039
-621,634	493,463	-0,067	-0,113
-620,619	-137,771	-0,093	0,008
-619,605	439,300	0,004	-0,007
-618,590	328,350	0,045	0,063
-617,576	800,000	0,038	-0,124
-616,561	-200,000	0,021	0,077
-615,546	103,121	-0,048	-0,041
-614,532	-200,000	-0,005	0,100
-613,517	-200,000	0,030	0,107
-612,503	-17,778	-0,049	-0,023
-611,488	-200,000	0,011	-0,099
-610,474	800,000	-0,025	-0,062
-609,459	-200,000	-0,037	0,140
-608,444	145,881	-0,044	0,043
-607,430	800,000	-0,013	-0,028
-606,415	800,000	-0,065	-0,141
-605,401	35,748	-0,129	0,083
-604,386	-200,000	0,009	-0,080
-603,371	-200,000	0,021	-0,078
-602,357	74,261	0,010	-0,007
-601,342	37,373	0,047	-0,030
-600,328	374,191	-0,070	-0,105
-599,313	-89,103	0,025	0,005
-598,298	42,318	0,022	0,015
-597,284	-200,000	0,105	0,000
-596,269	65,168	0,062	0,046
-595,255	211,709	0,067	0,078
-594,240	109,904	-0,034	0,030
-593,225	-200,000	-0,019	-0,114
-592,211	96,689	-0,114	0,096
-591,196	-124,592	0,029	0,003
-590,182	-200,000	0,009	-0,042
-589,167	-70,564	-0,037	-0,010
-588,152	360,413	0,109	0,160
-587,138	-4,187	-0,084	0,043
-586,123	84,268	-0,066	-0,053
-585,109	27,634	0,097	0,060
-584,094	-200,000	0,022	-0,118
-583,079	104,183	-0,029	0,025
-582,065	95,911	0,158	0,132
-581,050	26,303	-0,058	0,036
-580,036	206,750	-0,103	-0,117
-579,021	-200,000	-0,033	-0,123
-578,006	800,000	-0,026	-0,070
-576,992	-147,839	0,080	-0,005
-575,977	800,000	0,010	0,029
-574,963	387,782	-0,047	0,072
-573,948	252,815	0,132	0,165
-572,934	112,625	-0,040	-0,035
-571,919	-200,000	-0,003	0,095
-570,904	800,000	-0,034	0,071
-569,890	-118,568	0,098	0,013
-568,875	341,389	0,081	-0,116
-567,861	-200,000	0,004	0,038
-566,846	800,000	-0,028	0,065
-565,831	-200,000	0,001	0,013
-564,817	-200,000	0,001	-0,134
-563,802	-200,000	-0,009	-0,114
-562,788	-116,291	-0,100	-0,013
-561,773	683,300	0,030	-0,058
-560,758	155,439	0,034	-0,035
-559,744	450,990	-0,140	-0,227
-558,729	-62,367	0,108	0,033
-557,715	-33,229	-0,058	-0,023
-556,700	-200,000	-0,012	0,043
-555,685	-200,000	0,012	-0,048
-554,671	-75,587	0,101	0,026
-553,656	-24,449	-0,053	-0,023
-552,642	800,000	-0,010	-0,033
-551,627	800,000	-0,043	-0,108
-550,612	-200,000	0,005	-0,074
-549,598	702,663	-0,094	-0,181
-548,583	-200,000	-0,001	0,157
-547,569	-124,809	-0,012	-0,001
-546,554	-77,559	0,093	-0,023
-545,539	-200,000	-0,004	-0,020
-544,525	-200,000	0,001	0,030
-543,510	-200,000	-0,019	0,095
-542,496	800,000	-0,043	-0,095
-541,481	-146,330	-0,232	-0,015
-540,466	-46,447	-0,105	0,038
-539,452	800,000	-0,034	-0,107
-538,437	3,614	0,073	-0,039
-537,423	-200,000	0,030	0,105
-536,408	148,894	-0,134	-0,132
-535,393	482,613	-0,040	0,067
-534,379	800,000	0,040	-0,117
-533,364	155,899	-0,080	0,081
-532,350	-200,000	-0,010	-0,099
-531,335	122,671	0,082	0,075
-530,321	-200,000	-0,003	0,124
-529,306	84,637	-0,104	0,084
-528,291	116,348	-0,046	-0,041
-527,277	-80,481	-0,122	-0,030
-526,262	-1,336	-0,045	0,023
-525,248	184,628	0,123	-0,133
-524,233	102,844	-0,078	0,067
-523,218	208,875	-0,040	0,046
-522,204	-33,018	-0,097	0,039
-521,189	107,766	0,089	-0,078
-520,175	116,250	0,056	-0,050
-519,160	-200,000	-0,060	-0,236
-518,145	-175,093	0,040	-0,001
-517,131	-200,000	-0,004	-0,073
-516,116	529,452	0,054	0,093
-515,102	-117,782	0,114	0,015
-514,087	800,000	-0,030	0,092
-513,072	111,044	0,041	0,036
-512,058	-21,821	-0,099	0,044
-511,043	466,593	-0,034	0,056
-510,029	-200,000	0,060	0,196
-509,014	-10,349	0,078	0,038
-507,999	-37,871	-0,068	0,026
-506,985	407,753	0,044	-0,068
-505,970	-200,000	0,000	-0,040
-504,956	-200,000	-0,001	-0,081
-503,941	167,900	0,100	0,104
-502,926	-38,300	0,052	0,020
-501,912	41,643	0,066	0,043
-500,897	-200,000	0,016	0,058
-499,883	326,644	-0,077	-0,109
-498,868	-21,944	-0,101	-0,045
-497,853	13,373	-0,007	0,004
-496,839	-13,531	-0,094	-0,044
-495,824	-12,462	0,098	0,047
-494,810	800,000	-0,021	0,057
-493,795	33,881	0,124	0,078
-492,781	631,625	0,066	-0,123
-491,766	-99,266	0,070	0,013
-490,751	161,034	-0,013	0,013
-489,737	-101,953	0,117	0,020
-488,722	800,000	0,030	0,063
-487,708	246,510	-0,056	-0,069
-486,693	-200,000	-0,017	0,069
-485,678	681,164	0,022	-0,041
-484,664	387,723	-0,097	0,147
-483,649	-200,000	0,015	0,091
-482,635	-116,995	0,113	0,015
-481,620	-156,725	-0,158	0,007
-480,605	800,000	0,080	0,223
-479,591	-78,578	0,048	0,012
-478,576	776,749	0,020	0,040
-477,562	-200,000	0,019	0,088
-476,547	-79,559	0,080	0,020
-475,532	-34,032	-0,069	-0,027
-474,518	214,107	0,123	-0,143
-473,503	-83,227	0,108	0,025
-472,489	-200,000	-0,024	0,110
-471,474	-200,000	-0,000	-0,043
-470,459	-86,307	-0,058	-0,013
-469,445	122,507	-0,118	-0,107
-468,430	-71,901	0,058	-0,016
-467,416	-100,468	0,113	-0,020
-466,401	-54,558	0,154	-0,051
-465,386	13,493	0,144	-0,081
-464,372	800,000	0,019	-0,062
-463,357	800,000	0,048	0,112
-462,343	-200,000	0,009	-0,172
-461,328	-200,000	0,033	-0,141
-460,313	800,000	-0,010	-0,021
-459,299	-89,777	0,118	-0,025
-458,284	32,171	0,023	-0,014
-457,270	615,784	0,079	0,146
-456,255	447,103	0,053	-0,086
-455,241	-143,036	-0,136	-0,009
-454,226	116,983	-0,045	-0,040
-453,211	335,773	0,030	-0,043
-452,197	-56,992	0,059	0,019
-451,182	-108,273	0,033	0,005
-450,168	-200,000	0,019	0,070
-449,153	108,268	-0,006	0,005
-448,138	143,051	-0,101	-0,098
-447,124	-200,000	0,004	-0,165
-446,109	-94,805	0,129	-0,025
-445,095	-200,000	-0,037	0,137
-444,080	800,000	0,068	0,165
-443,065	-86,607	-0,031	0,007
-442,051	-73,220	0,044	0,012
-441,036	-104,219	-0,119	-0,020
-440,022	11,671	-0,080	0,045
-439,007	-200,000	0,021	0,076
-437,992	-200,000	0,019	-0,089
-436,978	-54,640	0,115	-0,038
-435,963	38,306	0,120	-0,078
-434,949	800,000	-0,013	-0,034
-433,934	-61,136	0,081	-0,025
-432,919	35,731	-0,116	-0,074
-431,905	-113,714	0,052	0,007
-430,890	-200,000	0,005	-0,028
-429,876	-37,966	0,170	0,066
-428,861	48,745	-0,022	-0,015
-427,846	9,106	0,054	0,030
-426,832	236,551	0,053	0,063
-425,817	619,160	0,068	-0,125
-424,803	800,000	0,055	0,174
-423,788	-200,000	-0,053	0,219
-422,773	173,568	-0,049	0,051
-421,759	414,499	-0,030	-0,047
-420,744	261,915	0,038	0,047
-419,730	172,390	0,008	-0,008
-418,715	-200,000	0,028	0,109
-417,701	-37,216	0,050	0,020
-416,686	480,095	0,044	-0,073
-415,671	-28,459	-0,125	0,052
-414,657	504,807	0,101	0,171
-413,642	-30,626	-0,099	0,041
-412,628	-89,191	-0,107	-0,023
-411,613	-139,255	-0,051	0,004
-410,598	-200,000	-0,005	-0,144
-409,584	-200,000	0,041	0,200
-408,569	-200,000	0,005	-0,065
-407,555	-145,737	-0,094	0,006
-406,540	-200,000	0,012	0,099
-405,525	-200,000	0,004	0,075
-404,511	800,000	-0,038	-0,112
-403,496	492,627	0,017	-0,028
-402,482	232,604	0,005	0,007
-401,467	-200,000	-0,002	0,056
-400,452	412,760	0,051	-0,080
-399,438	17,448	-0,087	0,050
-398,423	800,000	0,036	-0,074
-397,409	-61,386	-0,162	-0,049
-396,394	42,228	-0,095	-0,063
-395,379	800,000	-0,043	0,138
-394,365	-200,000	-0,010	-0,045
-393,350	-200,000	0,020	0,068
-392,336	435,865	-0,065	0,102
-391,321	-200,000	-0,025	-0,141
-390,306	114,369	0,031	-0,028
-389,292	391,830	-0,082	0,124
-388,277	180,555	0,128	0,137
-387,263	42,775	-0,048	0,032
-386,248	-160,563	-0,124	0,005
-385,233	-90,508	-0,076	0,016
-384,219	431,009	-0,029	0,045
-383,204	-88,733	-0,030	-0,006
-382,190	800,000	0,026	-0,056
-381,175	485,203	0,056	-0,093
-380,160	709,866	0,038	-0,073
-379,146	-22,074	-0,112	0,049
-378,131	93,991	0,026	0,021
-377,117	136,345	-0,068	0,065
-376,102	-200,000	0,004	-0,079
-375,088	-162,956	-0,056	0,002
-374,073	506,240	0,075	-0,126
-373,058	29,645	0,070	0,043
-372,044	320,064	0,104	0,143
-371,029	-200,000	-0,045	0,164
-370,015	-39,556	-0,038	0,014
-369,000	800,000	0,026	-0,081
-367,985	-58,435	-0,078	-0,024
-366,971	-200,000	-0,006	-0,109
-365,956	1,477	0,082	0,043
-364,942	131,168	0,124	0,116
-363,927	800,000	-0,051	0,119
-362,912	-58,343	-0,026	-0,008
-361,898	-14,251	-0,100	0,047
-360,883	447,525	0,085	-0,136
-359,869	-59,836	-0,049	0,015
-358,854	699,213	0,031	-0,059
-357,839	355,556	-0,026	0,038
-356,825	25,319	0,134	-0,080
-355,810	800,000	-0,044	0,141
-354,796	-200,000	0,000	-0,105
-353,781	-200,000	0,002	0,052
-352,766	-200,000	0,030	0,123
-351,752	800,000	0,022	0,071
-350,737	-200,000	0,013	0,079
-349,723	107,209	-0,042	0,036
-348,708	-108,953	0,108	0,016
-347,693	-200,000	-0,029	-0,158
-346,679	-81,624	0,115	0,027
-345,664	330,218	-0,054	-0,076
-344,650	-16,988	0,092	-0,042
-343,635	-36,698	-0,114	-0,044
-342,620	347,560	0,156	0,223
-341,606	-79,021	0,059	0,014
-340,591	-200,000	0,020	0,082
-339,577	320,022	-0,028	-0,039
-338,562	800,000	0,040	-0,123
-337,548	-137,335	-0,049	0,004
-336,533	800,000	-0,076	0,235
-335,518	102,902	-0,023	0,020
-334,504	-200,000	-0,009	0,057
-333,489	-75,629	-0,083	-0,021
-332,475	371,306	-0,024	-0,036
-331,460	800,000	-0,036	-0,112
-330,445	-128,438	0,065	-0,007
-329,431	289,672	0,100	0,132
-328,416	-57,350	-0,034	-0,011
-327,402	114,088	0,006	0,006
-326,387	222,750	0,120	0,141
-325,372	10,455	-0,074	-0,041
-324,358	170,329	0,036	0,038
-323,343	-5,631	-0,104	-0,052
-322,329	-19,937	0,181	0,081
-321,314	203,778	0,037	-0,042
-320,299	19,082	0,097	0,056
-319,285	104,368	-0,068	-0,058
-318,270	39,945	-0,044	-0,028
-317,256	475,905	0,077	-0,127
-316,241	800,000	0,036	-0,082
-315,226	-200,000	0,018	0,080
-314,212	168,690	0,095	0,098
-313,197	-200,000	-0,012	0,058
-312,183	60,439	-0,060	-0,043
-311,168	123,996	0,124	-0,113
-310,153	-147,441	-0,188	-0,011
-309,139	123,314	0,082	0,074
-308,124	387,883	-0,047	0,071
-307,110	-200,000	-0,016	-0,098
-306,095	-127,264	0,099	-0,010
-305,080	122,996	-0,043	-0,039
-304,066	-200,000	-0,012	-0,155
-303,051	-92,209	0,075	0,015
-302,037	-67,038	-0,108	-0,031
-301,022	800,000	0,039	-0,116
-300,008	124,545	-0,071	0,064
-298,993	-102,903	0,062	0,011
-297,978	-151,864	0,084	0,004
-296,964	406,873	-0,023	0,036
-295,949	-22,889	-0,033	-0,014
-294,935	-85,510	-0,062	-0,014
-293,920	-200,000	-0,008	0,070
-292,905	138,723	0,048	-0,046
-291,891	-200,000	0,033	0,162
-290,876	-200,000	-0,042	0,183
-289,862	299,483	0,077	-0,103
-288,847	-47,831	-0,048	0,017
-287,832	-130,759	-0,053	0,005
-286,818	-114,222	-0,057	0,008
-285,803	433,392	-0,049	-0,077
-284,789	-200,000	-0,009	0,085
-283,774	-9,109	-0,049	0,024
-282,759	800,000	-0,026	0,067
-281,745	800,000	-0,069	0,171
-280,730	19,743	-0,164	-0,095
-279,716	-200,000	0,007	-0,053
-278,701	-83,406	0,141	-0,032
-277,686	-76,674	0,120	0,030
-276,672	-200,000	-0,011	-0,102
-275,657	182,295	0,102	-0,109
-274,643	-200,000	-0,013	-0,044
-273,628	75,420	-0,136	-0,104
-272,613	-19,165	-0,056	0,025
-271,599	48,779	-0,080	-0,054
-270,584	-200,000	0,000	0,003
-269,570	-64,398	-0,050	0,015
-268,555	-87,182	-0,074	0,016
-267,540	800,000	0,032	-0,082
-266,526	438,494	-0,090	-0,143
-265,511	800,000	0,008	-0,019
-264,497	-87,035	0,043	-0,009
-263,482	-44,363	0,055	0,020
-262,467	58,878	-0,135	-0,096
-261,453	800,000	0,025	0,057
-260,438	800,000	0,012	0,038
-259,424	34,637	-0,079	-0,050
-258,409	-151,264	-0,030	0,002
-257,395	217,360	-0,028	0,032
-256,380	173,133	0,030	0,031
-255,365	-54,248	0,097	0,032
-254,351	-138,357	-0,016	-0,001
-253,336	20,816	0,084	-0,049
-252,322	137,690	-0,117	-0,111
-251,307	800,000	-0,020	0,056
-250,292	228,116	0,073	0,086
-249,278	-103,577	0,055	-0,009
-248,263	8,232	0,088	0,047
-247,249	27,432	0,127	0,077
-246,234	396,258	-0,021	-0,032
-245,219	-84,924	-0,014	0,003
-244,205	190,417	-0,039	0,042
-243,190	800,000	0,024	0,073
-242,176	329,848	0,051	-0,070
-241,161	79,619	-0,122	0,095
-240,146	401,260	0,046	0,070
-239,132	800,000	0,009	0,023
-238,117	-100,576	-0,044	-0,008
-237,103	316,553	0,075	0,102
-236,088	476,065	0,015	-0,024
-235,073	5,586	0,038	0,020
-234,059	-72,453	-0,073	0,019
-233,044	451,896	-0,059	-0,095
-232,030	-55,551	0,130	-0,042
-231,015	-200,000	0,001	-0,018
-230,000	-200,000	0,006	-0,069
-228,986	319,356	-0,042	-0,057
-227,971	77,377	-0,067	-0,051
-226,957	-200,000	0,009	0,153
-225,942	-6,993	-0,018	-0,009
-224,927	261,540	0,078	0,098
-223,913	-70,770	-0,055	-0,015
-222,898	185,298	-0,088	-0,094
-221,884	-200,000	0,023	0,073
-220,869	-85,645	-0,046	0,010
-219,855	-200,000	0,023	0,093
-218,840	800,000	0,020	-0,051
-217,825	104,366	0,078	0,067
-216,811	-96,208	-0,233	-0,044
-215,796	-3,015	-0,087	0,043
-214,782	-91,426	0,021	-0,004
-213,767	49,991	0,081	-0,055
-212,752	227,965	0,053	-0,062
-211,738	-39,126	0,059	-0,022
-210,723	-102,091	-0,186	-0,032
-209,709	-73,840	0,123	-0,032
-208,694	-90,787	0,052	0,011
-207,679	800,000	0,040	0,092
-206,665	409,715	-0,026	0,040
-205,650	70,970	0,045	-0,033
-204,636	-200,000	0,036	0,125
-203,621	370,844	-0,018	0,027
-202,606	561,551	-0,034	-0,060
-201,592	-200,000	-0,001	-0,033
-200,577	-200,000	-0,020	-0,134
-199,563	73,951	-0,057	0,043
-198,548	174,581	-0,057	-0,060
-197,533	-200,000	0,077	0,000
-196,519	-23,605	-0,194	0,084
-195,504	224,324	0,039	0,046
-194,490	-62,715	-0,069	-0,021
-193,475	765,909	0,061	0,121
-192,460	-41,287	0,136	-0,050
-191,446	800,000	-0,035	-0,076
-190,431	310,085	0,033	0,045
-189,417	-200,000	-0,010	0,044
-188,402	749,185	0,086	-0,169
-187,387	457,576	0,054	-0,086
-186,373	-200,000	0,007	-0,034
-185,358	-130,168	0,127	-0,012
-184,344	755,493	0,042	0,083
-183,329	-200,000	0,008	0,141
-182,315	-200,000	0,056	0,000
-181,300	-148,956	-0,142	-0,008
-180,285	-200,000	-0,004	-0,128
-179,271	-73,176	-0,114	-0,030
-178,256	800,000	-0,013	-0,032
-177,242	74,250	-0,086	0,065
-176,227	100,195	-0,083	0,069
-175,212	21,118	0,125	-0,073
-174,198	-200,000	0,024	-0,087
-173,183	-152,671	-0,119	0,006
-172,169	-200,000	-0,001	0,007
-171,154	-168,234	-0,049	-0,001
-170,139	800,000	0,022	-0,066
-169,125	800,000	0,021	0,048
-168,110	-70,191	0,047	0,013
-167,096	66,852	-0,081	0,059
-166,081	187,623	-0,071	0,076
-165,066	75,436	0,039	0,030
-164,052	-200,000	-0,003	-0,041
-163,037	-77,252	0,131	-0,033
-162,023	-200,000	0,015	-0,082
-161,008	586,566	0,012	-0,022
-159,993	800,000	0,058	0,140
-158,979	613,267	-0,007	0,014
-157,964	-34,195	-0,049	0,019
-156,950	800,000	0,034	0,089
-155,935	90,049	-0,025	-0,020
-154,920	-200,000	0,002	0,097
-153,906	-200,000	0,033	-0,152
-152,891	25,428	-0,073	0,044
-151,877	-77,460	-0,192	0,048
-150,862	800,000	-0,067	-0,155
-149,847	192,160	0,086	0,094
-148,833	-200,000	-0,004	-0,098
-147,818	800,000	0,044	-0,112
-146,804	73,463	0,060	-0,045
-145,789	14,831	0,142	0,080
-144,775	241,694	0,093	-0,112
-143,760	325,332	0,066	0,092
-142,745	-200,000	0,012	0,074
-141,731	-200,000	-0,039	-0,133
-140,716	-16,156	0,060	0,027
-139,702	-28,549	-0,131	0,054
-138,687	391,547	-0,044	0,066
-137,672	800,000	-0,023	-0,051
-136,658	135,474	-0,097	0,091
-135,643	-114,872	-0,026	-0,003
-134,629	-200,000	0,002	-0,037
-133,614	-200,000	-0,026	0,119
-132,599	-200,000	0,020	0,079
-131,585	227,029	-0,014	-0,016
-130,570	135,419	0,040	-0,037
-129,556	114,492	0,083	-0,073
-128,541	94,420	-0,064	0,052
-127,526	800,000	0,012	0,029
-126,512	532,685	-0,018	-0,031
-125,497	58,714	0,061	0,043
-124,483	363,496	0,024	0,034
-123,468	-115,373	-0,110	-0,015
-122,453	-200,000	0,000	0,009
-121,439	-200,000	0,005	0,048
-120,424	800,000	-0,081	-0,176
-119,410	800,000	0,035	0,077
-118,395	-28,646	0,054	0,022
-117,380	-188,540	0,164	-0,001
-116,366	-200,000	-0,062	-0,235
-115,351	10,271	-0,018	0,010
-114,337	51,488	0,093	-0,063
-113,322	14,012	-0,162	0,090
-112,307	401,623	0,049	0,075
-111,293	2,417	0,065	0,034
-110,278	11,649	0,123	0,068
-109,264	338,146	-0,029	-0,041
-108,249	800,000	0,029	-0,067
-107,234	168,272	-0,025	-0,026
-106,220	74,744	0,059	-0,045
-105,205	-132,965	0,174	-0,016
-104,191	628,184	-0,070	0,127
-103,176	-200,000	0,042	0,219
-102,162	-200,000	-0,060	0,225
-101,147	-200,000	0,001	0,083
-100,132	18,553	0,085	-0,049
-99,118	82,741	-0,046	-0,036
-98,103	278,586	0,028	-0,036
-97,089	1,671	0,066	-0,034
-96,074	-146,819	-0,071	-0,004
-95,059	-200,000	-0,003	0,023
-94,045	127,171	0,061	0,056
-93,030	-200,000	-0,000	0,050
-92,016	800,000	-0,007	0,020
-91,001	800,000	0,017	-0,042
-89,986	28,410	0,055	-0,034
-88,972	800,000	-0,030	0,082
-87,957	800,000	-0,007	0,018
-86,943	-131,496	-0,027	0,003
-85,928	42,209	0,094	-0,061
-84,913	100,008	-0,038	-0,032
-83,899	547,263	0,029	-0,050
-82,884	513,251	-0,060	-0,101
-81,870	-17,890	-0,099	-0,044
-80,855	-200,000	0,018	0,106
-79,840	-68,954	-0,123	-0,034
-78,826	-200,000	0,018	0,068
-77,811	-200,000	-0,012	-0,097
-76,797	-58,691	0,088	-0,027
-75,782	396,279	0,056	-0,085
-74,767	-193,803	0,022	-0,000
-73,753	118,798	0,012	0,010
-72,738	10,702	0,095	-0,052
-71,724	-52,065	-0,150	-0,050
-70,709	-200,000	-0,003	0,118
-69,694	-200,000	-0,000	-0,043
-68,680	789,429	-0,024	0,047
-67,665	25,338	-0,053	-0,031
-66,651	-200,000	-0,013	-0,042
-65,636	16,530	-0,127	-0,072
-64,622	33,979	-0,075	0,047
-63,607	213,040	-0,023	0,027
-62,592	298,228	-0,018	0,024
-61,578	-28,641	-0,131	0,054
-60,563	689,276	0,053	0,100
-59,549	-200,000	-0,026	0,093
-58,534	20,948	-1,899	-1,102
-57,519	-200,000	-0,214	-0,941
-56,505	-200,000	-1,176	-5,082
-55,490	28,245	0,789	0,477
-54,476	800,000	5,291	12,306
-53,461	-200,000	17,535	283,972
-52,446	800,000	727,934	2216,287
-51,432	535,032	1643,975	2808,629
-50,417	110,118	1634,295	1407,707
-49,403	75,870	1286,519	975,162
-48,388	32,070	1027,458	634,263
-47,373	20,180	989,410	571,572
-46,359	18,478	977,404	559,037
-45,344	15,662	973,269	547,435
-44,330	15,851	971,946	547,289
-43,315	15,382	970,024	544,651
-42,300	15,296	968,779	543,649
-41,286	15,325	967,826	543,189
-40,271	15,311	966,987	542,650
-39,257	15,332	966,070	542,182
-38,242	15,328	965,076	541,591
-37,227	15,369	964,285	541,257
-36,213	15,354	963,314	540,645
-35,198	15,344	962,545	540,157
-34,184	15,403	961,876	539,951
-33,169	15,316	960,868	539,082
-32,154	15,351	959,916	538,639
-31,140	15,388	958,877	538,155
-30,125	15,331	958,447	537,710
-29,111	15,347	957,481	537,199
-28,096	15,335	956,939	536,833
-27,082	15,329	956,185	536,369
-26,067	15,304	955,387	535,819
-25,052	15,327	954,585	535,425
-24,038	15,339	954,033	535,131
-23,023	15,384	953,374	534,884
-22,009	15,340	952,749	534,371
-20,994	15,376	952,092	534,097
-19,979	15,363	951,379	533,634
-18,965	15,332	950,882	533,235
-17,950	15,382	950,242	533,015
-16,936	15,258	949,546	532,208
-15,921	15,273	948,881	531,863
-14,906	15,255	948,031	531,307
-13,892	15,282	947,559	531,107
-12,877	15,229	946,739	530,458
-11,863	15,211	946,110	530,026
-10,848	15,227	945,752	529,857
-9,833	15,315	945,131	529,765
-8,819	15,297	944,560	529,370
-7,804	15,181	944,136	528,743
-6,790	15,239	943,243	528,406
-5,775	15,222	942,960	528,172
-4,760	15,293	942,218	527,959
-3,746	15,245	941,492	527,379
-2,731	15,096	940,738	526,464
-1,717	15,075	940,143	526,045
-0,702	15,055	939,610	525,661
0,313	14,890	938,837	525,502
1,327	18,138	936,791	534,540
2,342	27,076	794,149	476,826
3,356	23,769	459,249	270,660
4,371	-3,464	315,053	156,671
5,386	-7,336	296,766	143,638
6,400	-9,482	290,720	138,566
7,415	-9,809	288,256	137,056
8,429	-9,974	286,779	136,180
9,444	-10,020	285,721	135,620
10,459	-9,896	285,031	135,401
11,473	-10,012	284,734	135,135
12,488	-9,922	284,136	134,927
13,502	-10,011	283,583	134,567
14,517	-9,863	283,003	134,423
15,531	-9,995	282,753	134,164
16,546	-9,901	282,384	134,068
17,561	-10,012	281,947	133,741
18,575	-9,901	281,649	133,695
19,590	-9,889	281,094	133,431
20,604	-9,787	280,848	133,400
21,619	-9,987	280,545	133,053
22,634	-9,984	280,251	132,905
23,648	-10,010	280,003	132,751
24,663	-9,885	279,583	132,658
25,677	-9,993	279,479	132,494
26,692	-10,019	279,042	132,250
27,707	-10,002	278,944	132,209
28,721	-10,019	278,620	132,027
29,736	-9,904	278,376	132,009
30,750	-10,017	278,098	131,758
31,765	-10,061	277,806	131,566
32,780	-10,129	277,626	131,404
33,794	-9,936	277,311	131,427
34,809	-9,995	276,953	131,189
35,823	-9,964	276,734	131,103
36,838	-10,219	276,508	130,744
37,853	-9,968	276,264	130,853
38,867	-10,071	276,097	130,666
39,882	-10,122	275,798	130,464
40,896	-9,967	275,587	130,499
41,911	-9,970	275,267	130,333
42,926	-9,918	275,058	130,271
43,940	-10,027	274,759	130,015
44,955	-10,053	274,631	129,919
45,969	-9,963	274,229	129,801
46,984	-10,226	274,116	129,490
47,999	-10,496	273,812	129,083
49,013	-10,254	273,482	129,142
50,028	-10,596	273,349	128,749
51,042	-10,695	273,016	128,488
52,057	-10,729	272,714	128,303
53,071	-10,547	272,596	128,405
54,086	-10,649	272,472	128,241
55,101	-10,426	272,248	128,331
56,115	-10,157	272,058	128,479
57,130	-9,944	271,933	128,606
58,144	-9,980	271,711	128,456
59,159	-9,914	271,447	128,381
60,174	-9,824	271,214	128,342
61,188	-10,028	271,165	128,119
62,203	-10,041	270,725	127,888
63,217	-10,021	270,771	127,917
64,232	-9,872	270,467	127,899
65,247	-9,873	270,160	127,741
66,261	-9,856	269,881	127,614
67,276	-10,071	269,545	127,246
68,290	-10,189	269,408	127,062
69,305	-10,262	269,095	126,836
70,320	-10,127	268,898	126,856
71,334	-10,031	268,780	126,876
72,349	-9,845	268,473	126,890
73,363	-9,794	268,278	126,833
74,378	-10,016	268,117	126,544
75,393	-9,879	268,015	126,609
76,407	-9,926	267,836	126,471
77,422	-9,706	267,517	126,508
78,436	-9,974	267,295	126,148
79,451	-9,744	267,153	126,279
80,466	-9,783	266,613	125,978
81,480	-9,968	266,610	125,797
82,495	-9,954	266,248	125,628
83,509	-10,215	266,262	125,386
84,524	-10,034	265,957	125,396
85,539	-10,215	265,694	125,097
86,553	-10,180	265,555	125,052
87,568	-10,035	265,292	125,048
88,582	-9,934	265,014	124,997
89,597	-10,066	264,906	124,816
90,611	-10,045	264,881	124,812
91,626	-9,820	264,646	124,892
92,641	-9,954	264,492	124,688
93,655	-9,941	264,095	124,501
94,670	-10,134	263,933	124,241
95,684	-9,973	263,732	124,279
96,699	-10,031	263,619	124,163
97,714	-10,068	263,428	124,029
98,728	-10,129	263,123	123,820
99,743	-10,181	262,923	123,668
100,757	-10,047	262,619	123,634
101,772	-10,153	262,627	123,532
102,787	-10,077	262,398	123,480
103,801	-10,009	262,149	123,414
104,816	-9,853	262,078	123,507
105,830	-9,838	261,844	123,399
106,845	-9,797	261,718	123,366
107,860	-9,964	261,517	123,112
108,874	-9,910	261,221	123,009
109,889	-10,090	261,089	122,776
110,903	-10,056	260,861	122,689
111,918	-9,968	260,569	122,618
112,933	-10,075	260,560	122,509
113,947	-9,830	260,138	122,515
114,962	-10,025	260,110	122,319
115,976	-10,102	259,962	122,170
116,991	-9,975	259,677	122,138
118,006	-9,824	259,543	122,197
119,020	-10,015	259,407	121,953
120,035	-9,962	259,234	121,908
121,049	-9,829	258,906	121,860
122,064	-9,950	258,937	121,757
123,079	-9,873	258,671	121,688
124,093	-9,980	258,478	121,493
125,108	-10,016	258,040	121,245
126,122	-10,189	257,900	121,018
127,137	-10,446	257,908	120,785
128,151	-10,174	257,569	120,853
129,166	-9,938	257,397	120,968
130,181	-10,194	257,084	120,587
131,195	-10,206	257,059	120,554
132,210	-10,015	256,862	120,617
133,224	-9,778	256,577	120,678
134,239	-9,969	256,439	120,437
135,254	-9,990	256,248	120,318
136,268	-10,045	256,044	120,164
137,283	-10,275	255,835	119,856
138,297	-10,256	255,491	119,700
139,312	-10,386	255,269	119,474
140,327	-9,890	255,198	119,858
141,341	-9,867	255,128	119,834
142,356	-9,847	254,966	119,765
143,370	-9,909	255,042	119,736
144,385	-9,699	254,771	119,779
145,400	-9,608	254,404	119,674
146,414	-9,799	254,238	119,421
147,429	-9,727	254,081	119,399
148,443	-9,742	253,890	119,285
149,458	-9,889	253,671	119,047
150,473	-9,788	253,547	119,064
151,487	-9,787	253,202	118,892
152,502	-9,765	253,218	118,908
153,516	-9,839	252,983	118,724
154,531	-9,777	252,725	118,645
155,546	-9,744	252,576	118,592
156,560	-9,833	252,602	118,518
157,575	-9,814	252,204	118,337
158,589	-9,920	252,113	118,194
159,604	-9,698	251,746	118,200
160,619	-9,655	251,576	118,146
161,633	-9,756	251,444	117,988
162,648	-9,702	251,368	117,988
163,662	-9,873	251,454	117,872
164,677	-9,818	251,108	117,746
165,692	-9,679	250,907	117,759
166,706	-9,637	250,617	117,648
167,721	-9,629	250,526	117,601
168,735	-9,759	250,435	117,438
169,750	-9,508	250,259	117,557
170,764	-9,538	250,219	117,503
171,779	-9,592	249,940	117,316
172,794	-9,667	249,823	117,188
173,808	-9,668	249,433	116,993
174,823	-10,076	249,309	116,581
175,837	-10,404	249,155	116,223
176,852	-9,897	248,979	116,556
177,867	-9,617	248,795	116,695
178,881	-9,777	248,838	116,571
179,896	-9,631	248,670	116,603
180,910	-9,639	248,382	116,452
181,925	-9,620	248,120	116,334
182,940	-9,628	248,029	116,274
183,954	-9,565	247,797	116,208
184,969	-9,645	247,701	116,085
185,983	-9,666	247,504	115,966
186,998	-9,678	247,290	115,845
188,013	-9,721	247,295	115,801
189,027	-9,586	247,000	115,765
190,042	-9,652	246,747	115,581
191,056	-9,543	246,526	115,558
192,071	-9,723	246,485	115,379
193,086	-9,814	246,273	115,194
194,100	-9,625	246,134	115,276
195,115	-9,690	245,975	115,136
196,129	-9,672	245,732	115,027
197,144	-9,757	245,560	114,867
198,159	-9,743	245,343	114,767
199,173	-9,722	245,257	114,733
200,188	-9,880	245,143	114,539
201,202	-10,082	244,712	114,161
202,217	-10,203	244,416	113,914
203,232	-10,080	244,257	113,931
204,246	-9,999	244,253	113,985
205,261	-9,475	244,141	114,353
206,275	-10,484	243,761	113,337
207,290	-7,544	244,900	116,277
208,304	-0,605	247,090	123,056
209,319	3,126	248,237	126,713
210,334	3,628	248,272	127,135
211,348	3,908	248,224	127,331
212,363	4,113	247,993	127,370
213,377	4,317	247,936	127,498
214,392	4,232	247,685	127,288
215,407	4,047	247,568	127,063
216,421	4,153	247,296	127,000
217,436	4,442	247,193	127,174
218,450	4,263	247,151	126,994
219,465	3,937	246,897	126,583
220,480	3,823	246,616	126,335
221,494	3,847	246,408	126,236
222,509	3,844	246,285	126,159
223,523	3,649	246,201	125,945
224,538	3,272	245,964	125,504
225,553	3,576	245,639	125,576
226,567	3,719	245,646	125,685
227,582	3,753	245,576	125,666
228,596	3,745	245,453	125,585
229,611	3,611	245,087	125,277
230,626	3,285	244,908	124,909
231,640	3,413	244,953	125,025
232,655	3,715	244,641	125,101
233,669	3,599	244,416	124,880
234,684	3,431	244,330	124,688
235,699	3,702	244,335	124,900
236,713	3,889	244,132	124,937
237,728	3,516	243,806	124,457
238,742	3,422	243,632	124,281
239,757	3,307	243,528	124,123
240,772	3,457	243,376	124,155
241,786	3,520	243,323	124,168
242,801	3,470	242,965	123,935
243,815	3,393	242,899	123,828
244,830	3,718	242,738	123,997
245,844	3,830	242,587	124,000
246,859	3,754	242,302	123,782
247,874	3,440	242,241	123,486
248,888	3,490	242,049	123,418
249,903	3,669	241,964	123,507
250,917	3,791	241,791	123,506
251,932	3,820	241,830	123,538
252,947	3,746	241,544	123,321
253,961	3,533	241,256	122,993
254,976	3,660	241,191	123,051
255,990	3,661	241,115	123,002
257,005	3,670	240,753	122,813
258,020	3,339	240,638	122,479
259,034	3,294	240,622	122,424
260,049	3,606	240,313	122,505
261,063	3,599	239,990	122,324
262,078	3,536	239,931	122,232
263,093	3,753	240,031	122,445
264,107	3,704	239,749	122,252
265,122	3,509	239,530	121,973
266,136	3,524	239,471	121,945
267,151	3,979	239,389	122,254
268,166	3,529	239,130	121,753
269,180	3,305	238,993	121,495
270,195	4,090	238,958	122,089
271,209	3,864	238,862	121,850
272,224	3,575	238,539	121,446
273,239	3,243	238,333	121,067
274,253	3,376	238,068	121,027
275,268	3,311	238,169	121,016
276,282	3,724	237,941	121,215
277,297	3,383	237,604	120,764
278,312	3,405	237,650	120,794
279,326	3,714	237,463	120,932
280,341	3,685	237,387	120,859
281,355	3,661	237,188	120,729
282,370	3,874	237,077	120,829
283,384	3,757	236,847	120,608
284,399	3,571	236,726	120,390
285,414	3,052	236,729	119,974
286,428	3,642	236,362	120,240
287,443	3,440	236,362	120,070
288,457	3,675	236,133	120,127
289,472	3,759	236,067	120,148
290,487	3,709	235,850	119,989
291,501	3,400	235,637	119,628
292,516	3,283	235,341	119,376
293,530	3,234	235,150	119,230
294,545	3,610	235,266	119,572
295,560	3,486	235,087	119,373
296,574	3,255	234,800	119,037
297,589	3,519	234,908	119,286
298,603	3,762	234,687	119,353
299,618	3,807	234,467	119,265
300,633	3,663	234,407	119,112
301,647	3,855	234,243	119,167
302,662	4,085	234,230	119,328
303,676	4,021	233,967	119,134
304,691	3,998	233,826	119,034
305,706	4,127	233,736	119,077
306,720	3,893	233,640	118,837
307,735	3,826	233,381	118,643
308,749	3,863	233,346	118,643
309,764	3,838	232,898	118,385
310,779	3,596	232,741	118,109
311,793	3,300	232,622	117,810
312,808	3,323	232,550	117,780
313,822	3,268	232,379	117,641
314,837	3,357	232,187	117,602
315,852	3,455	232,107	117,627
316,866	3,592	232,051	117,693
317,881	3,706	231,939	117,713
318,895	3,959	231,682	117,766
319,910	3,874	231,679	117,688
320,925	3,686	231,456	117,420
321,939	3,652	231,207	117,258
322,954	3,478	231,077	117,049
323,968	3,424	231,005	116,960
324,983	3,329	230,704	116,725
325,997	3,582	230,739	116,925
327,012	3,891	230,471	117,015
328,027	3,460	230,291	116,585
329,041	4,008	230,288	116,990
330,056	4,194	230,351	117,153
331,070	3,905	230,180	116,836
332,085	3,987	229,940	116,766
333,100	3,961	229,663	116,595
334,114	4,059	229,496	116,574
335,129	4,167	229,340	116,566
336,143	3,918	229,267	116,330
337,158	3,908	229,145	116,251
338,173	4,023	229,061	116,284
339,187	3,926	228,850	116,093
340,202	3,879	228,700	115,971
341,216	3,980	228,610	115,992
342,231	3,900	228,423	115,826
343,246	3,666	228,300	115,578
344,260	3,942	227,985	115,615
345,275	3,967	228,102	115,683
346,289	3,864	228,029	115,558
347,304	4,138	227,801	115,638
348,319	4,146	227,567	115,515
349,333	3,747	227,431	115,136
350,348	3,675	227,271	114,991
351,362	3,909	226,998	115,018
352,377	3,679	226,994	114,833
353,392	3,731	226,739	114,734
354,406	3,619	226,569	114,553
355,421	194,606	1322,124	1395,951
356,435	155,968	1455,595	1395,944
