DTS Sentinel unit serial number:	SN410029Multiplexer serial number:	ORYXHardware model number:	OX2-SRSoftware version number:	ORYX F/W v4,00 Oryx Data Collector v3.7.2.0data status	okinstallation	B5 Nyhavnadifferential loss correction	single-endedforward channel	channel 2reverse channel	N/Adate	2023/12/12time	18:07:13forward acquisition time	300,00reverse acquisition time	0,00gamma	499,1914k internal	0,3157k external	0,3157temperature offset calibration	1,0000default loss term (dB/km)	0,3820temperature slope calibration	1,0000multiplexer offset coefficient	1,0000multiplexer slope coefficient	1,0000fibre end	0,00T internal ref (°C)	15,64T ext. ref 1 (°C)	-0,80T ext. ref 2 (°C)	-1,13length (m)	temperature (°C)	Stokes	anti-Stokes-744,400	-200,000	-0,024	-0,080
-743,385	-102,517	-0,245	0,043
-742,371	-200,000	-0,001	-0,007
-741,356	-90,455	-0,327	0,069
-740,342	98,614	-0,022	0,018
-739,327	-26,685	-0,354	-0,152
-738,312	-62,998	0,121	0,037
-737,298	-141,547	-0,286	0,021
-736,283	92,515	0,154	0,128
-735,269	-37,907	-0,320	0,125
-734,254	-122,009	0,138	-0,016
-733,239	-105,176	-0,574	-0,096
-732,225	30,674	0,138	-0,087
-731,210	-200,000	-0,002	0,074
-730,196	437,926	0,036	-0,058
-729,181	-200,000	0,004	-0,039
-728,167	-181,350	-0,209	0,003
-727,152	101,115	-0,097	-0,083
-726,137	-165,159	-0,188	-0,006
-725,123	-55,209	-0,156	-0,051
-724,108	-100,497	-0,118	-0,021
-723,094	97,487	-0,068	-0,057
-722,079	125,281	-0,156	-0,145
-721,064	-200,000	0,004	-0,045
-720,050	-13,258	-0,082	0,039
-719,035	-90,887	-0,128	-0,027
-718,021	-200,000	-0,036	-0,117
-717,006	218,971	0,055	-0,065
-715,991	566,774	-0,065	-0,116
-714,977	-16,779	0,040	-0,019
-713,962	229,771	0,017	-0,021
-712,948	-200,000	0,015	0,051
-711,933	195,740	-0,100	0,112
-710,918	800,000	-0,026	0,081
-709,904	146,236	0,034	0,033
-708,889	5,109	-0,102	-0,055
-707,875	-200,000	-0,006	-0,154
-706,860	-200,000	-0,009	0,078
-705,845	-200,000	-0,012	0,114
-704,831	-200,000	-0,009	-0,059
-703,816	-200,000	0,010	-0,049
-702,802	448,351	-0,059	-0,096
-701,787	119,909	-0,012	-0,011
-700,772	-200,000	-0,009	-0,038
-699,758	2,179	0,107	-0,057
-698,743	-1,588	0,112	0,058
-697,729	169,941	0,060	0,063
-696,714	105,443	-0,058	0,050
-695,699	800,000	-0,042	-0,134
-694,685	71,319	0,045	0,034
-693,670	197,588	-0,029	0,032
-692,656	-16,604	-0,101	-0,047
-691,641	800,000	-0,025	0,074
-690,627	122,036	-0,031	-0,029
-689,612	-200,000	-0,010	0,049
-688,597	783,062	-0,044	-0,089
-687,583	47,707	-0,090	-0,062
-686,568	67,238	0,159	-0,119
-685,554	278,540	0,056	-0,074
-684,539	797,534	-0,024	-0,048
-683,524	-200,000	0,019	0,141
-682,510	-10,960	0,061	0,030
-681,495	-200,000	0,012	0,074
-680,481	19,983	-0,101	-0,060
-679,466	151,540	-0,016	-0,016
-678,451	-48,280	-0,070	-0,025
-677,437	-200,000	-0,028	0,094
-676,422	141,248	0,105	0,102
-675,408	87,953	0,103	-0,084
-674,393	16,831	-0,081	0,047
-673,378	771,681	-0,017	-0,034
-672,364	50,922	-0,030	0,021
-671,349	-200,000	-0,039	-0,130
-670,335	124,564	0,031	-0,028
-669,320	-129,963	-0,026	0,003
-668,305	-200,000	0,011	0,054
-667,291	126,504	0,046	0,043
-666,276	-25,249	-0,064	0,028
-665,262	435,315	0,048	0,077
-664,247	-200,000	-0,003	-0,166
-663,232	-4,903	-0,067	-0,034
-662,218	488,044	-0,108	0,182
-661,203	-181,500	-0,113	-0,002
-660,189	800,000	0,050	-0,109
-659,174	108,860	-0,047	-0,041
-658,159	800,000	-0,038	-0,099
-657,145	-109,327	-0,013	0,002
-656,130	-200,000	-0,021	0,098
-655,116	-85,239	-0,069	0,016
-654,101	59,746	0,046	0,033
-653,086	-200,000	0,012	-0,189
-652,072	2,886	-0,078	-0,042
-651,057	-200,000	-0,103	-0,000
-650,043	232,337	-0,047	-0,057
-649,028	-84,748	-0,071	-0,016
-648,014	69,824	0,118	-0,089
-646,999	-170,814	-0,046	-0,001
-645,984	-121,153	-0,062	-0,008
-644,970	525,581	-0,014	-0,024
-643,955	1,286	-0,102	-0,054
-642,941	-105,922	-0,101	-0,017
-641,926	-200,000	0,021	0,123
-640,911	-200,000	0,006	-0,054
-639,897	800,000	-0,012	0,029
-638,882	-150,525	-0,027	-0,001
-637,868	94,273	-0,044	0,037
-636,853	800,000	-0,017	0,039
-635,838	168,543	-0,031	-0,032
-634,824	-200,000	-0,033	-0,127
-633,809	-140,752	0,039	-0,003
-632,795	-200,000	-0,015	-0,090
-631,780	251,524	-0,048	0,060
-630,765	-31,279	-0,138	0,057
-629,751	143,512	-0,104	0,101
-628,736	249,196	-0,069	-0,086
-627,722	709,029	0,048	0,095
-626,707	-49,686	-0,056	-0,020
-625,692	270,287	0,089	-0,115
-624,678	437,321	-0,053	0,085
-623,663	23,298	-0,067	0,040
-622,649	800,000	0,013	-0,029
-621,634	252,179	-0,059	0,073
-620,619	-164,288	0,083	0,003
-619,605	-200,000	-0,002	0,014
-618,590	119,057	0,050	-0,046
-617,576	34,748	-0,102	-0,065
-616,561	-200,000	-0,038	0,152
-615,546	207,152	0,021	0,024
-614,532	-200,000	0,029	-0,104
-613,517	-18,347	-0,038	-0,018
-612,503	-200,000	-0,001	-0,005
-611,488	-200,000	0,043	-0,206
-610,474	-200,000	0,000	0,043
-609,459	-23,826	0,109	0,048
-608,444	321,686	-0,110	-0,154
-607,430	800,000	0,019	-0,053
-606,415	-151,788	-0,099	0,005
-605,401	-200,000	-0,004	0,029
-604,386	-1,498	0,066	0,034
-603,371	352,504	-0,074	-0,108
-602,357	60,958	0,055	0,040
-601,342	-34,527	-0,051	0,021
-600,328	234,576	-0,101	-0,123
-599,313	261,423	0,015	-0,019
-598,298	181,788	-0,054	0,058
-597,284	4,640	0,130	0,070
-596,269	190,892	0,072	0,080
-595,255	-200,000	-0,012	0,093
-594,240	800,000	0,006	-0,017
-593,225	800,000	-0,024	0,051
-592,211	96,518	-0,070	-0,059
-591,196	676,354	0,103	0,197
-590,182	514,215	0,043	-0,075
-589,167	-4,319	-0,032	-0,016
-588,152	-127,042	-0,061	-0,006
-587,138	800,000	-0,021	-0,056
-586,123	98,831	-0,092	-0,078
-585,109	-200,000	0,005	-0,062
-584,094	-200,000	-0,007	0,093
-583,079	612,467	0,119	0,219
-582,065	5,775	-0,032	-0,017
-581,050	-200,000	-0,003	0,093
-580,036	-200,000	-0,018	0,098
-579,021	234,287	0,014	0,017
-578,006	-88,592	-0,136	-0,029
-576,992	-200,000	-0,030	-0,123
-575,977	83,803	0,157	0,125
-574,963	-200,000	-0,014	0,057
-573,948	2,108	0,056	-0,029
-572,934	-158,011	0,118	0,005
-571,919	-200,000	0,014	-0,059
-570,904	631,476	0,069	-0,129
-569,890	800,000	-0,037	-0,112
-568,875	-200,000	0,005	0,072
-567,861	16,615	0,084	-0,048
-566,846	-200,000	0,001	0,157
-565,831	800,000	-0,049	-0,117
-564,817	137,655	-0,023	0,022
-563,802	800,000	-0,025	-0,053
-562,788	41,249	0,073	-0,048
-561,773	800,000	0,052	-0,115
-560,758	155,451	0,108	-0,108
-559,744	800,000	0,047	-0,150
-558,729	9,875	-0,047	-0,026
-557,715	221,917	-0,123	-0,145
-556,700	437,706	0,066	-0,106
-555,685	-200,000	-0,020	-0,095
-554,671	454,074	0,012	-0,020
-553,656	800,000	-0,040	-0,092
-552,642	-200,000	0,014	-0,067
-551,627	-200,000	0,036	0,181
-550,612	186,540	-0,075	0,082
-549,598	236,495	0,039	-0,047
-548,583	153,627	-0,072	0,072
-547,569	800,000	-0,078	0,165
-546,554	753,832	0,061	-0,121
-545,539	13,083	-0,093	-0,053
-544,525	-78,497	0,045	-0,011
-543,510	-95,502	-0,076	0,015
-542,496	-111,824	-0,198	0,029
-541,481	-66,654	0,020	0,006
-540,466	127,412	-0,025	-0,023
-539,452	69,243	-0,028	-0,021
-538,437	800,000	-0,057	0,124
-537,423	-200,000	0,019	-0,073
-536,408	575,102	-0,022	-0,039
-535,393	800,000	-0,016	0,038
-534,379	-140,326	0,055	0,004
-533,364	-200,000	0,002	-0,008
-532,350	49,204	0,131	0,090
-531,335	324,347	0,054	0,076
-530,321	800,000	0,060	0,152
-529,306	-200,000	0,026	0,137
-528,291	-200,000	0,003	-0,114
-527,277	384,328	-0,056	-0,084
-526,262	350,151	-0,039	-0,056
-525,248	27,652	0,129	0,079
-524,233	-86,003	0,149	0,033
-523,218	-200,000	0,023	0,080
-522,204	-200,000	0,012	0,088
-521,189	81,635	-0,131	-0,104
-520,175	-97,766	-0,065	-0,012
-519,160	-127,813	0,097	-0,010
-518,145	53,404	0,071	0,049
-517,131	187,824	-0,085	0,093
-516,116	-14,762	0,102	-0,048
-515,102	97,944	-0,083	0,070
-514,087	-137,009	0,031	0,003
-513,072	-24,907	-0,115	-0,050
-512,058	-200,000	-0,026	-0,169
-511,043	440,540	0,051	-0,081
-510,029	-200,000	0,019	-0,089
-509,014	133,980	-0,040	-0,038
-507,999	352,275	0,053	0,077
-506,985	-200,000	-0,053	-0,184
-505,970	-18,028	-0,056	0,025
-504,956	-91,765	-0,011	-0,002
-503,941	-8,287	-0,112	-0,055
-502,926	220,732	0,075	0,088
-501,912	-200,000	0,040	0,206
-500,897	-9,551	-0,072	0,035
-499,883	19,613	-0,127	0,074
-498,868	800,000	-0,045	-0,093
-497,853	-42,149	0,037	-0,014
-496,839	-200,000	0,016	-0,113
-495,824	800,000	0,073	0,201
-494,810	-113,505	0,099	0,014
-493,795	285,691	0,063	0,084
-492,781	-161,931	-0,061	0,002
-491,766	-200,000	0,002	-0,071
-490,751	112,936	0,097	-0,086
-489,737	247,112	-0,091	0,113
-488,722	-141,051	-0,064	-0,005
-487,708	-200,000	0,023	-0,115
-486,693	800,000	0,013	0,039
-485,678	-200,000	-0,004	0,158
-484,664	-200,000	0,011	-0,060
-483,649	-200,000	-0,022	-0,101
-482,635	-200,000	-0,003	0,023
-481,620	195,262	0,028	-0,031
-480,605	456,757	-0,101	-0,164
-479,591	62,081	-0,027	-0,019
-478,576	-200,000	0,001	0,015
-477,562	-200,000	-0,033	0,200
-476,547	-200,000	-0,015	-0,087
-475,532	-133,791	0,059	-0,005
-474,518	38,168	0,141	-0,091
-473,503	-78,891	0,118	0,029
-472,489	121,564	0,054	0,049
-471,474	8,997	-0,018	0,010
-470,459	800,000	0,016	0,045
-469,445	-17,508	-0,177	-0,081
-468,430	43,334	0,095	0,063
-467,416	171,567	-0,074	0,078
-466,401	-200,000	-0,011	0,154
-465,386	-200,000	0,000	-0,134
-464,372	-200,000	-0,012	-0,123
-463,357	514,147	-0,026	-0,045
-462,343	-200,000	-0,007	0,056
-461,328	-124,035	0,124	-0,014
-460,313	11,596	-0,109	0,061
-459,299	-69,724	0,077	0,021
-458,284	239,666	-0,021	-0,025
-457,270	346,481	-0,029	0,041
-456,255	-2,950	0,067	-0,034
-455,241	-120,283	-0,035	0,004
-454,226	-80,448	-0,103	0,025
-453,211	-17,977	0,089	-0,040
-452,197	288,547	-0,064	-0,085
-451,182	29,251	0,060	-0,037
-450,168	-23,524	0,069	0,030
-449,153	-10,017	-0,018	-0,009
-448,138	183,897	0,078	0,084
-447,124	94,667	-0,036	0,030
-446,109	-99,754	0,036	0,007
-445,095	-200,000	-0,039	0,149
-444,080	127,182	0,051	0,047
-443,065	-200,000	0,019	0,189
-442,051	557,469	0,114	0,201
-441,036	-200,000	0,041	0,000
-440,022	800,000	0,054	-0,110
-439,007	477,429	0,046	0,077
-437,992	138,520	0,028	-0,027
-436,978	237,783	0,018	0,022
-435,963	-200,000	-0,002	-0,060
-434,949	800,000	-0,049	-0,128
-433,934	-123,108	-0,077	0,009
-432,919	346,128	-0,029	-0,042
-431,905	397,256	-0,111	0,169
-430,890	-200,000	-0,006	0,092
-429,876	386,005	-0,097	0,147
-428,861	29,424	0,149	0,092
-427,846	-166,393	-0,066	0,002
-426,832	654,945	0,017	-0,032
-425,817	800,000	-0,045	-0,135
-424,803	800,000	0,054	-0,164
-423,788	-48,538	0,103	-0,036
-422,773	43,613	-0,051	-0,034
-421,759	-21,089	-0,064	0,028
-420,744	-44,753	-0,100	-0,036
-419,730	800,000	0,017	0,036
-418,715	-200,000	-0,008	-0,089
-417,701	2,217	0,049	-0,026
-416,686	183,345	0,078	0,084
-415,671	-76,898	-0,116	-0,029
-414,657	-200,000	-0,019	0,111
-413,642	-200,000	0,011	0,057
-412,628	-200,000	0,002	-0,018
-411,613	800,000	-0,008	0,020
-410,598	201,325	0,134	0,150
-409,584	-200,000	0,029	0,100
-408,569	604,144	0,041	0,074
-407,555	138,801	0,128	0,123
-406,540	800,000	-0,018	0,049
-405,525	-200,000	-0,009	0,043
-404,511	10,854	-0,082	-0,045
-403,496	122,803	0,086	0,079
-402,482	6,477	0,058	0,031
-401,467	178,183	0,158	0,168
-400,452	248,199	0,115	0,142
-399,438	183,854	0,112	0,121
-398,423	-200,000	0,007	-0,089
-397,409	-200,000	0,001	0,064
-396,394	-182,478	0,047	-0,001
-395,379	204,207	0,041	-0,046
-394,365	-10,794	-0,071	0,034
-393,350	-68,375	0,130	-0,037
-392,336	198,622	0,171	0,191
-391,321	143,118	0,083	0,080
-390,306	-41,937	-0,060	0,022
-389,292	739,568	-0,034	0,067
-388,277	-158,547	-0,079	0,003
-387,263	800,000	0,039	0,098
-386,248	82,694	-0,054	0,042
-385,233	292,461	0,074	0,099
-384,219	-41,755	-0,094	0,035
-383,204	-200,000	0,004	0,058
-382,190	-55,142	-0,063	0,020
-381,175	800,000	0,064	0,136
-380,160	-200,000	0,000	0,035
-379,146	551,323	-0,084	0,147
-378,131	475,967	0,027	-0,044
-377,117	-200,000	0,014	0,064
-376,102	800,000	0,045	-0,136
-375,088	-35,297	-0,105	-0,041
-374,073	800,000	-0,040	-0,115
-373,058	52,600	-0,067	0,047
-372,044	-200,000	0,013	-0,052
-371,029	-200,000	0,013	-0,112
-370,015	85,948	0,051	0,041
-369,000	-79,895	-0,052	-0,013
-367,985	91,515	-0,055	0,045
-366,971	49,612	-0,105	0,072
-365,956	89,456	0,092	0,074
-364,942	-200,000	0,048	0,185
-363,927	-200,000	0,002	0,130
-362,912	800,000	-0,014	-0,036
-361,898	428,862	-0,022	0,035
-360,883	800,000	0,035	-0,086
-359,869	-13,988	0,037	-0,017
-358,854	-200,000	0,003	-0,128
-357,839	360,644	-0,043	0,063
-356,825	276,893	-0,109	0,142
-355,810	29,965	0,083	0,051
-354,796	-22,940	-0,075	0,033
-353,781	1,488	-0,050	-0,026
-352,766	-85,188	-0,102	0,023
-351,752	27,549	0,091	0,056
-350,737	-104,111	-0,029	0,005
-349,723	-27,355	0,103	-0,043
-348,708	3,306	0,034	0,018
-347,693	-93,075	-0,068	0,014
-346,679	184,675	-0,062	-0,067
-345,664	-200,000	0,002	-0,119
-344,650	240,288	0,109	-0,132
-343,635	799,001	0,068	-0,137
-342,620	-200,000	0,015	0,186
-341,606	57,872	0,052	0,037
-340,591	-200,000	-0,011	0,044
-339,577	-67,872	-0,117	-0,033
-338,562	800,000	0,036	0,082
-337,548	10,480	-0,057	-0,031
-336,533	42,293	0,038	-0,025
-335,518	-95,105	-0,062	-0,012
-334,504	15,117	0,072	-0,041
-333,489	-200,000	-0,043	-0,215
-332,475	419,477	0,010	-0,016
-331,460	-200,000	0,007	-0,123
-330,445	197,302	-0,102	0,113
-329,431	-162,093	0,031	0,001
-328,416	63,397	0,108	-0,078
-327,402	221,287	-0,057	0,066
-326,387	-200,000	0,008	0,094
-325,372	120,270	-0,035	0,031
-324,358	351,741	0,070	-0,100
-323,343	-60,118	0,054	-0,017
-322,329	800,000	0,029	0,059
-321,314	417,212	0,041	0,063
-320,299	-66,333	0,035	0,010
-319,285	-200,000	0,033	-0,107
-318,270	-78,757	-0,140	-0,034
-317,256	-200,000	-0,029	-0,157
-316,241	469,962	-0,106	0,174
-315,226	-105,880	0,053	0,009
-314,212	-85,869	0,089	-0,020
-313,197	-35,384	0,107	0,042
-312,183	-100,404	-0,179	-0,032
-311,168	-4,752	0,126	-0,063
-310,153	800,000	0,012	-0,038
-309,139	-200,000	-0,049	-0,177
-308,124	-106,632	-0,053	-0,008
-307,110	-200,000	0,014	0,051
-306,095	138,401	0,099	0,095
-305,080	69,600	-0,087	-0,065
-304,066	38,564	0,099	-0,064
-303,051	407,136	-0,072	-0,111
-302,037	141,380	0,042	0,040
-301,022	-97,279	-0,164	0,031
-300,008	800,000	-0,035	0,094
-298,993	-155,738	0,020	0,001
-297,978	72,384	0,169	-0,128
-296,964	800,000	0,012	-0,025
-295,949	195,135	0,041	-0,045
-294,935	22,574	-0,051	-0,030
-293,920	-8,834	0,135	0,066
-292,905	-200,000	0,002	0,021
-291,891	-61,533	0,201	-0,061
-290,876	149,236	-0,022	0,021
-289,862	-7,732	0,016	-0,008
-288,847	158,800	-0,098	-0,099
-287,832	-200,000	0,015	0,071
-286,818	-136,400	-0,084	0,007
-285,803	-38,434	0,197	-0,075
-284,789	297,616	-0,035	0,046
-283,774	10,863	0,017	0,009
-282,759	1,486	-0,103	-0,054
-281,745	-21,756	0,119	-0,052
-280,730	206,728	0,070	-0,080
-279,716	131,334	0,063	-0,058
-278,701	-200,000	-0,022	-0,137
-277,686	178,980	0,001	0,001
-276,672	800,000	0,044	0,111
-275,657	129,061	-0,098	-0,090
-274,643	-200,000	-0,001	-0,044
-273,628	800,000	-0,020	0,043
-272,613	138,781	0,087	-0,083
-271,599	-192,851	-0,108	0,001
-270,584	-51,799	-0,056	-0,019
-269,570	-107,739	-0,172	0,027
-268,555	-30,092	-0,026	-0,011
-267,540	-19,720	-0,108	-0,048
-266,526	-11,125	-0,267	-0,127
-265,511	-200,000	-0,008	-0,058
-264,497	54,430	-0,105	-0,073
-263,482	800,000	0,024	0,057
-262,467	96,042	0,104	-0,086
-261,453	201,218	-0,056	0,063
-260,438	125,704	-0,123	0,112
-259,424	800,000	0,040	-0,083
-258,409	-200,000	-0,010	-0,076
-257,395	-200,000	0,001	0,025
-256,380	-200,000	0,021	-0,140
-255,365	800,000	0,063	-0,164
-254,351	255,555	0,011	0,014
-253,336	-67,217	-0,087	0,025
-252,322	-31,688	-0,115	-0,046
-251,307	-70,384	-0,100	0,027
-250,292	-27,083	0,134	-0,056
-249,278	32,447	-0,050	-0,031
-248,263	144,721	-0,064	-0,062
-247,249	192,086	0,035	0,038
-246,234	113,900	-0,088	-0,077
-245,219	237,617	-0,071	-0,086
-244,205	-200,000	-0,002	-0,008
-243,190	-131,941	0,163	0,015
-242,176	375,518	0,019	-0,028
-241,161	327,007	-0,095	0,132
-240,146	593,678	-0,033	0,059
-239,132	129,877	0,057	-0,052
-238,117	-37,729	0,041	-0,016
-237,103	-200,000	-0,013	0,058
-236,088	796,209	-0,006	0,012
-235,073	-140,725	-0,081	0,006
-234,059	2,894	0,099	0,052
-233,044	800,000	-0,051	0,113
-232,030	-200,000	0,019	0,075
-231,015	11,376	-0,095	0,052
-230,000	-163,757	0,128	0,004
-228,986	800,000	-0,042	-0,101
-227,971	79,407	-0,026	-0,020
-226,957	439,203	-0,022	-0,034
-225,942	-200,000	0,002	-0,050
-224,927	800,000	0,016	-0,052
-223,913	93,568	-0,035	-0,028
-222,898	800,000	-0,017	0,052
-221,884	-200,000	-0,007	0,055
-220,869	194,873	0,093	-0,103
-219,855	277,017	0,055	-0,070
-218,840	266,695	-0,043	0,054
-217,825	339,716	-0,037	0,052
-216,811	-64,577	0,058	0,017
-215,796	-200,000	-0,014	0,062
-214,782	202,178	0,082	0,092
-213,767	-200,000	0,022	0,159
-212,752	246,846	-0,024	0,029
-211,738	800,000	0,036	0,104
-210,723	139,637	0,057	0,054
-209,709	81,756	0,027	-0,021
-208,694	293,273	-0,040	0,053
-207,679	-25,547	0,036	-0,015
-206,665	782,741	-0,024	-0,048
-205,650	89,183	0,042	-0,034
-204,636	776,527	-0,065	0,130
-203,621	-83,322	0,096	0,022
-202,606	-67,163	-0,097	-0,027
-201,592	62,251	-0,037	-0,027
-200,577	781,526	-0,060	-0,119
-199,563	-200,000	-0,009	-0,034
-198,548	-200,000	0,024	-0,110
-197,533	503,932	0,056	0,093
-196,519	40,663	-0,073	-0,047
-195,504	290,095	-0,152	0,199
-194,490	334,412	0,050	0,070
-193,475	-200,000	-0,002	-0,046
-192,460	-200,000	0,019	-0,072
-191,446	800,000	-0,018	-0,058
-190,431	-98,757	0,107	0,019
-189,417	-38,331	-0,126	-0,048
-188,402	-173,689	0,060	-0,001
-187,387	-141,993	-0,086	0,006
-186,373	190,704	0,090	-0,098
-185,358	186,939	-0,102	-0,110
-184,344	16,045	-0,039	0,022
-183,329	20,673	0,089	-0,052
-182,315	-17,127	0,033	-0,015
-181,300	-200,000	-0,009	-0,058
-180,285	35,871	-0,037	-0,024
-179,271	201,066	-0,036	-0,040
-178,256	-200,000	-0,019	-0,108
-177,242	515,705	0,011	0,019
-176,227	181,428	0,102	0,108
-175,212	178,896	0,056	-0,059
-174,198	-72,057	0,042	0,011
-173,183	-200,000	-0,023	-0,160
-172,169	113,107	0,041	-0,035
-171,154	203,568	-0,043	-0,048
-170,139	548,285	0,027	-0,047
-169,125	-200,000	0,047	0,152
-168,110	-21,102	0,110	0,049
-167,096	-200,000	-0,004	0,133
-166,081	67,803	-0,079	-0,058
-165,066	-105,732	-0,052	-0,008
-164,052	-81,141	0,248	-0,059
-163,037	279,845	-0,182	0,235
-162,023	-122,110	0,145	-0,017
-161,008	99,964	0,121	0,101
-159,993	-71,018	0,055	0,015
-158,979	-200,000	-0,023	-0,094
-157,964	95,649	-0,111	-0,092
-156,950	800,000	0,047	-0,127
-155,935	-37,621	-0,042	0,016
-154,920	-102,105	0,076	0,013
-153,906	-200,000	0,007	-0,136
-152,891	-200,000	-0,032	-0,204
-151,877	-200,000	-0,029	-0,112
-150,862	263,688	-0,073	-0,092
-149,847	-200,000	0,016	-0,072
-148,833	472,329	0,042	0,068
-147,818	14,025	-0,090	-0,050
-146,804	505,610	0,062	0,103
-145,789	334,195	-0,075	0,105
-144,775	-71,234	-0,119	0,032
-143,760	133,124	0,053	-0,050
-142,745	-200,000	0,012	0,176
-141,731	-200,000	-0,012	-0,145
-140,716	-51,093	0,115	-0,039
-139,702	56,006	0,047	0,033
-138,687	-200,000	0,001	-0,129
-137,672	123,193	0,087	-0,078
-136,658	46,647	-0,107	0,072
-135,643	303,690	-0,038	0,050
-134,629	800,000	-0,024	0,063
-133,614	-104,939	0,100	0,016
-132,599	-200,000	-0,015	-0,050
-131,585	-132,439	-0,010	-0,001
-130,570	-153,665	0,032	-0,002
-129,556	800,000	-0,031	-0,070
-128,541	-104,115	0,108	0,018
-127,526	-200,000	0,003	0,030
-126,512	581,184	0,023	0,041
-125,497	-85,405	-0,039	-0,009
-124,483	341,780	0,090	0,126
-123,468	89,372	-0,054	0,043
-122,453	-142,756	0,024	0,002
-121,439	-137,282	-0,149	0,012
-120,424	-148,755	-0,044	0,003
-119,410	180,712	-0,031	-0,032
-118,395	74,534	-0,035	0,027
-117,380	800,000	0,032	-0,093
-116,366	-200,000	0,005	0,225
-115,351	-23,278	0,099	0,042
-114,337	-16,053	-0,074	-0,034
-113,322	-96,513	0,062	-0,012
-112,307	36,472	-0,129	0,082
-111,293	17,405	0,093	-0,053
-110,278	-200,000	0,020	0,087
-109,264	-200,000	0,001	-0,061
-108,249	316,129	-0,089	-0,121
-107,234	-125,710	0,091	-0,010
-106,220	180,306	-0,064	-0,068
-105,205	232,045	-0,041	0,048
-104,191	-23,763	-0,067	-0,029
-103,176	-146,999	-0,058	0,003
-102,162	482,913	0,047	0,077
-101,147	-200,000	0,011	0,103
-100,132	4,597	-0,085	0,045
-99,118	223,064	0,025	-0,029
-98,103	209,619	0,062	-0,070
-97,089	-6,528	0,046	0,022
-96,074	26,233	0,037	-0,022
-95,059	800,000	0,009	-0,025
-94,045	-56,247	-0,077	0,024
-93,030	81,842	0,101	0,079
-92,016	340,496	-0,047	0,066
-91,001	239,612	0,062	-0,074
-89,986	-46,679	-0,128	-0,045
-88,972	449,168	0,114	0,182
-87,957	215,261	-0,078	0,090
-86,943	187,029	0,077	0,082
-85,928	800,000	-0,024	-0,052
-84,913	3,100	0,092	-0,048
-83,899	-200,000	-0,045	-0,175
-82,884	-16,961	0,041	-0,019
-81,870	271,390	-0,048	-0,060
-80,855	152,072	-0,061	0,060
-79,840	207,388	0,127	-0,143
-78,826	-200,000	-0,003	-0,056
-77,811	-200,000	-0,005	-0,052
-76,797	-200,000	0,007	-0,033
-75,782	247,578	0,040	0,049
-74,767	-71,578	0,151	0,040
-73,753	14,177	0,074	0,041
-72,738	-200,000	-0,004	0,067
-71,724	96,451	0,013	0,011
-70,709	180,234	-0,084	-0,088
-69,694	-200,000	-0,035	0,113
-68,680	-200,000	0,003	0,025
-67,665	41,823	0,078	-0,050
-66,651	-47,838	0,029	0,010
-65,636	111,160	-0,080	0,069
-64,622	800,000	0,012	0,025
-63,607	98,621	-0,114	-0,094
-62,592	95,902	0,082	-0,067
-61,578	88,432	-0,087	-0,069
-60,563	-45,502	0,160	0,057
-59,549	-24,593	-0,121	0,051
-58,534	-18,943	-1,952	-0,868
-57,519	800,000	-0,370	-0,972
-56,505	-200,000	-1,325	-4,975
-55,490	0,519	0,749	0,383
-54,476	800,000	5,238	12,116
-53,461	-200,000	17,460	284,573
-52,446	800,000	724,768	2223,369
-51,432	540,056	1640,705	2814,590
-50,417	110,941	1632,130	1410,189
-49,403	75,274	1286,428	972,997
-48,388	32,356	1027,954	635,727
-47,373	20,156	990,067	572,042
-46,359	18,601	977,855	559,862
-45,344	15,975	973,903	548,980
-44,330	16,165	972,622	548,859
-43,315	15,682	970,745	546,197
-42,300	15,733	969,524	545,657
-41,286	15,671	968,589	544,905
-40,271	15,673	967,502	544,280
-39,257	15,706	966,687	543,906
-38,242	15,683	965,891	543,362
-37,227	15,639	965,100	542,754
-36,213	15,654	964,407	542,391
-35,198	15,645	963,394	541,770
-34,184	15,758	962,416	541,566
-33,169	15,698	961,593	540,885
-32,154	15,654	960,782	540,265
-31,140	15,699	959,848	539,865
-30,125	15,700	959,065	539,406
-29,111	15,695	958,162	538,862
-28,096	15,694	957,626	538,535
-27,082	15,649	957,135	538,093
-26,067	15,607	956,327	537,482
-25,052	15,661	955,537	537,190
-24,038	15,685	954,660	536,752
-23,023	15,662	953,970	536,269
-22,009	15,628	953,553	535,905
-20,994	15,667	952,950	535,669
-19,979	15,668	952,160	535,208
-18,965	15,651	951,708	534,878
-17,950	15,656	951,012	534,481
-16,936	15,679	950,365	534,170
-15,921	15,613	949,831	533,637
-14,906	15,560	949,035	533,001
-13,892	15,572	948,376	532,647
-12,877	15,531	947,781	532,160
-11,863	15,531	946,983	531,693
-10,848	15,498	946,728	531,422
-9,833	15,630	946,065	531,449
-8,819	15,671	945,445	531,209
-7,804	15,625	944,786	530,673
-6,790	15,567	944,143	530,105
-5,775	15,597	943,604	529,878
-4,760	15,603	943,034	529,555
-3,746	15,575	942,373	529,075
-2,731	15,417	941,624	528,134
-1,717	15,466	940,911	527,867
-0,702	15,436	940,259	527,385
0,313	15,150	940,044	527,156
1,327	18,406	937,481	535,938
2,342	27,105	794,894	477,489
3,356	23,791	459,163	270,723
4,371	-3,174	314,040	156,525
5,386	-7,186	295,881	143,404
6,400	-9,289	289,793	138,356
7,415	-9,743	287,336	136,724
8,429	-9,840	285,956	135,960
9,444	-9,997	285,128	135,402
10,459	-9,875	284,492	135,206
11,473	-9,834	283,726	134,870
12,488	-9,761	283,120	134,640
13,502	-9,821	282,745	134,392
14,517	-9,909	282,384	134,124
15,531	-9,790	281,935	134,013
16,546	-9,877	281,478	133,700
17,561	-9,729	281,166	133,682
18,575	-9,756	280,874	133,506
19,590	-9,777	280,350	133,225
20,604	-9,725	280,131	133,159
21,619	-9,898	279,734	132,793
22,634	-9,941	279,383	132,573
23,648	-9,770	279,094	132,587
24,663	-9,804	278,870	132,437
25,677	-9,914	278,708	132,243
26,692	-9,831	278,354	132,142
27,707	-9,778	278,103	132,062
28,721	-9,688	277,835	132,008
29,736	-9,862	277,570	131,706
30,750	-9,805	277,141	131,544
31,765	-9,726	277,081	131,578
32,780	-9,783	276,839	131,398
33,794	-10,029	276,698	131,087
34,809	-9,733	276,308	131,169
35,823	-9,566	275,989	131,164
36,838	-10,081	275,946	130,647
37,853	-9,959	275,569	130,571
38,867	-9,824	275,380	130,597
39,882	-9,886	275,054	130,373
40,896	-9,946	274,824	130,195
41,911	-9,784	274,481	130,173
42,926	-9,922	274,319	129,955
43,940	-9,918	274,178	129,881
44,955	-9,956	273,860	129,683
45,969	-9,913	273,522	129,552
46,984	-10,105	273,482	129,343
47,999	-10,281	273,107	128,989
49,013	-10,316	272,940	128,866
50,028	-10,425	272,592	128,589
51,042	-10,523	272,438	128,414
52,057	-10,390	272,067	128,351
53,071	-10,502	271,892	128,153
54,086	-10,388	271,603	128,111
55,101	-10,246	271,507	128,186
56,115	-9,893	271,301	128,403
57,130	-9,811	271,257	128,447
58,144	-9,769	271,012	128,359
59,159	-9,728	270,760	128,266
60,174	-9,829	270,542	128,058
61,188	-9,752	270,339	128,021
62,203	-9,639	270,034	127,969
63,217	-9,728	269,944	127,833
64,232	-9,622	269,664	127,787
65,247	-9,672	269,421	127,615
66,261	-9,729	269,190	127,441
67,276	-9,979	269,137	127,175
68,290	-9,948	268,708	126,990
69,305	-10,158	268,394	126,639
70,320	-10,088	268,268	126,631
71,334	-9,854	268,234	126,817
72,349	-9,765	267,998	126,776
73,363	-9,689	267,699	126,692
74,378	-9,729	267,533	126,566
75,393	-9,795	267,222	126,348
76,407	-9,727	267,109	126,345
77,422	-9,774	266,854	126,171
78,436	-9,824	266,551	125,971
79,451	-9,794	266,424	125,926
80,466	-9,951	266,203	125,669
81,480	-9,809	265,913	125,649
82,495	-9,837	265,721	125,521
83,509	-9,909	265,538	125,359
84,524	-9,973	265,461	125,254
85,539	-10,050	265,095	125,000
86,553	-10,094	264,754	124,789
87,568	-10,104	264,702	124,744
88,582	-10,095	264,488	124,641
89,597	-9,930	264,303	124,690
90,611	-9,833	264,144	124,692
91,626	-9,862	264,113	124,640
92,641	-9,892	263,918	124,510
93,655	-9,906	263,741	124,403
94,670	-9,977	263,301	124,120
95,684	-9,801	263,049	124,148
96,699	-9,926	263,000	124,002
97,714	-9,800	262,652	123,939
98,728	-9,936	262,525	123,746
99,743	-10,055	262,293	123,521
100,757	-10,090	262,042	123,360
101,772	-9,938	261,929	123,431
102,787	-9,882	261,700	123,362
103,801	-9,819	261,643	123,380
104,816	-9,868	261,391	123,207
105,830	-9,629	261,102	123,271
106,845	-9,563	260,842	123,196
107,860	-9,731	260,864	123,046
108,874	-9,763	260,589	122,878
109,889	-10,008	260,542	122,628
110,903	-9,781	260,285	122,696
111,918	-9,843	260,003	122,498
112,933	-9,898	259,878	122,380
113,947	-9,740	259,714	122,431
114,962	-9,716	259,498	122,339
115,976	-9,786	259,143	122,099
116,991	-9,695	259,033	122,117
118,006	-9,630	258,849	122,076
119,020	-9,746	258,877	121,976
120,035	-9,700	258,598	121,874
121,049	-9,873	258,434	121,635
122,064	-9,867	258,276	121,555
123,079	-9,893	258,002	121,392
124,093	-9,733	257,805	121,429
125,108	-9,965	257,449	121,047
126,122	-10,355	257,461	120,703
127,137	-10,229	257,261	120,708
128,151	-10,273	257,077	120,572
129,166	-10,054	256,878	120,658
130,181	-10,143	256,526	120,405
131,195	-10,158	256,429	120,336
132,210	-9,973	256,316	120,433
133,224	-9,862	256,220	120,473
134,239	-9,689	255,850	120,439
135,254	-9,666	255,742	120,396
136,268	-9,944	255,529	120,046
137,283	-10,228	255,380	119,719
138,297	-10,123	254,954	119,599
139,312	-10,211	254,705	119,396
140,327	-10,035	254,770	119,568
141,341	-9,645	254,581	119,804
142,356	-9,794	254,519	119,636
143,370	-9,962	254,289	119,373
144,385	-9,501	254,126	119,682
145,400	-9,526	253,958	119,570
146,414	-9,479	253,750	119,502
147,429	-9,502	253,460	119,335
148,443	-9,612	253,348	119,178
149,458	-9,596	253,171	119,097
150,473	-9,592	252,902	118,964
151,487	-9,808	252,693	118,670
152,502	-9,725	252,639	118,705
153,516	-9,583	252,396	118,702
154,531	-9,536	252,190	118,634
155,546	-9,558	252,177	118,599
156,560	-9,570	251,779	118,390
157,575	-9,768	251,673	118,162
158,589	-9,608	251,488	118,200
159,604	-9,671	251,398	118,094
160,619	-9,855	251,194	117,832
161,633	-9,410	250,999	118,107
162,648	-9,601	250,833	117,856
163,662	-9,534	250,711	117,846
164,677	-9,537	250,453	117,711
165,692	-9,593	250,476	117,664
166,706	-9,553	250,172	117,544
167,721	-9,634	250,053	117,410
168,735	-9,642	249,875	117,309
169,750	-9,703	249,792	117,208
170,764	-9,450	249,549	117,297
171,779	-9,510	249,490	117,208
172,794	-9,424	249,176	117,123
173,808	-9,477	249,089	117,027
174,823	-9,891	248,661	116,468
175,837	-9,956	248,539	116,346
176,852	-9,651	248,374	116,513
177,867	-9,604	248,377	116,544
178,881	-9,644	248,244	116,438
179,896	-9,590	248,052	116,382
180,910	-9,593	247,811	116,257
181,925	-9,608	247,766	116,212
182,940	-9,325	247,363	116,249
183,954	-9,427	247,327	116,137
184,969	-9,451	247,205	116,049
185,983	-9,474	246,943	115,897
186,998	-9,487	246,966	115,886
188,013	-9,427	246,528	115,720
189,027	-9,583	246,501	115,567
190,042	-9,543	246,302	115,497
191,056	-9,829	246,243	115,222
192,071	-9,558	245,978	115,312
193,086	-9,681	245,820	115,126
194,100	-9,422	245,634	115,243
195,115	-9,499	245,454	115,085
196,129	-9,535	245,157	114,906
197,144	-9,697	245,027	114,701
198,159	-9,627	244,806	114,644
199,173	-9,506	244,677	114,674
200,188	-9,550	244,486	114,538
201,202	-9,810	244,149	114,156
202,217	-10,130	244,019	113,822
203,232	-10,014	243,706	113,761
204,246	-9,719	243,797	114,036
205,261	-9,385	243,601	114,208
206,275	-10,268	243,174	113,274
207,290	-7,184	244,424	116,381
208,304	-0,107	246,810	123,364
209,319	3,879	247,879	127,190
210,334	4,574	247,655	127,638
211,348	4,537	247,773	127,657
212,363	4,780	247,670	127,793
213,377	4,796	247,564	127,740
214,392	4,685	247,370	127,537
215,407	4,485	247,122	127,233
216,421	4,480	247,116	127,215
217,436	4,709	246,822	127,240
218,450	4,913	246,802	127,386
219,465	4,304	246,654	126,798
220,480	4,343	246,306	126,640
221,494	4,160	246,173	126,410
222,509	4,255	245,979	126,377
223,523	4,262	245,782	126,270
224,538	4,023	245,419	125,877
225,553	4,096	245,320	125,875
226,567	4,119	245,334	125,889
227,582	4,090	245,043	125,706
228,596	4,216	244,913	125,730
229,611	4,110	244,760	125,554
230,626	3,611	244,543	125,025
231,640	4,106	244,467	125,378
232,655	4,024	244,332	125,231
233,669	3,974	243,985	125,001
234,684	3,873	243,779	124,802
235,699	4,328	243,770	125,156
236,713	4,397	243,953	125,295
237,728	4,165	243,482	124,854
238,742	3,904	243,237	124,506
239,757	4,009	243,072	124,496
240,772	3,836	242,988	124,302
241,786	4,091	242,802	124,401
242,801	3,898	242,709	124,187
243,815	3,874	242,587	124,093
244,830	3,987	242,484	124,121
245,844	4,052	242,399	124,118
246,859	4,083	242,105	123,982
247,874	4,032	241,889	123,819
248,888	4,113	241,652	123,752
249,903	4,018	241,612	123,644
250,917	4,324	241,504	123,824
251,932	4,297	241,440	123,758
252,947	4,294	241,216	123,630
253,961	4,163	240,900	123,352
254,976	4,182	240,828	123,320
255,990	4,235	240,666	123,267
257,005	3,993	240,425	122,940
258,020	3,643	240,406	122,640
259,034	3,971	240,106	122,738
260,049	4,212	240,101	122,916
261,063	4,086	239,819	122,661
262,078	4,100	239,586	122,542
263,093	4,053	239,680	122,541
264,107	4,261	239,537	122,622
265,122	4,095	239,182	122,298
266,136	4,096	239,101	122,246
267,151	4,272	239,122	122,386
268,166	4,123	238,801	122,093
269,180	3,840	238,695	121,804
270,195	4,307	238,676	122,153
271,209	4,648	238,555	122,350
272,224	4,353	238,234	121,942
273,239	3,848	237,961	121,392
274,253	3,925	237,793	121,356
275,268	4,022	237,725	121,387
276,282	4,143	237,478	121,346
277,297	3,970	237,202	121,057
278,312	3,789	237,355	120,982
279,326	4,075	237,179	121,107
280,341	4,080	236,919	120,967
281,355	4,107	236,742	120,887
282,370	4,372	236,738	121,083
283,384	4,066	236,537	120,729
284,399	4,149	236,240	120,631
285,414	3,758	236,161	120,275
286,428	4,142	235,942	120,452
287,443	3,967	236,054	120,362
288,457	4,144	235,837	120,379
289,472	4,279	235,754	120,431
290,487	4,233	235,464	120,236
291,501	3,803	235,318	119,816
292,516	3,917	235,059	119,762
293,530	3,533	234,958	119,401
294,545	4,192	234,908	119,878
295,560	4,065	234,688	119,656
296,574	3,919	234,488	119,430
297,589	3,807	234,405	119,290
298,603	4,149	234,406	119,545
299,618	4,475	234,138	119,651
300,633	4,417	233,903	119,475
301,647	4,318	233,820	119,346
302,662	4,639	233,749	119,547
303,676	4,362	233,704	119,299
304,691	4,418	233,455	119,204
305,706	4,466	233,341	119,173
306,720	4,280	233,271	118,983
307,735	4,202	233,140	118,845
308,749	4,204	232,840	118,683
309,764	3,908	232,729	118,388
310,779	3,746	232,384	118,078
311,793	3,765	232,130	117,953
312,808	3,428	232,189	117,714
313,822	3,617	231,892	117,698
314,837	3,828	231,755	117,779
315,852	3,769	231,670	117,680
316,866	3,907	231,443	117,660
317,881	4,109	231,393	117,779
318,895	4,332	231,358	117,921
319,910	4,752	231,255	118,178
320,925	4,299	231,026	117,705
321,939	3,911	230,765	117,266
322,954	4,210	230,744	117,473
323,968	4,118	230,447	117,241
324,983	3,978	230,367	117,083
325,997	4,391	230,383	117,395
327,012	4,424	230,226	117,330
328,027	4,226	229,936	117,022
329,041	4,489	229,973	117,229
330,056	4,811	230,019	117,486
331,070	4,795	229,871	117,388
332,085	4,583	229,591	117,075
333,100	4,588	229,111	116,823
334,114	4,377	229,092	116,643
335,129	4,452	229,189	116,739
336,143	4,518	228,994	116,679
337,158	4,541	228,794	116,584
338,173	4,218	228,648	116,256
339,187	4,192	228,360	116,080
340,202	4,458	228,314	116,246
341,216	4,109	228,241	115,935
342,231	4,215	227,885	115,824
343,246	4,151	227,746	115,695
344,260	4,275	227,753	115,781
345,275	4,509	227,643	115,891
346,289	4,384	227,667	115,799
347,304	4,349	227,484	115,670
348,319	4,463	227,311	115,656
349,333	4,308	227,074	115,410
350,348	4,048	226,884	115,108
351,362	4,251	226,748	115,181
352,377	4,022	226,553	114,900
353,392	3,864	226,372	114,681
354,406	4,005	226,274	114,726
355,421	196,219	1322,691	1402,097
356,435	157,316	1456,264	1402,096
