DTS Sentinel unit serial number:	SN410029Multiplexer serial number:	ORYXHardware model number:	OX2-SRSoftware version number:	ORYX F/W v4,00 Oryx Data Collector v3.7.2.0data status	okinstallation	B5 Nyhavnadifferential loss correction	single-endedforward channel	channel 2reverse channel	N/Adate	2023/12/12time	03:37:13forward acquisition time	300,00reverse acquisition time	0,00gamma	499,1914k internal	0,3156k external	0,3156temperature offset calibration	1,0000default loss term (dB/km)	0,3820temperature slope calibration	1,0000multiplexer offset coefficient	1,0000multiplexer slope coefficient	1,0000fibre end	0,00T internal ref (°C)	15,66T ext. ref 1 (°C)	-0,82T ext. ref 2 (°C)	-1,12length (m)	temperature (°C)	Stokes	anti-Stokes-744,400	-17,615	0,103	-0,048
-743,385	27,858	-0,171	-0,106
-742,371	170,320	0,064	0,067
-741,356	-106,375	-0,315	-0,051
-740,342	36,963	0,139	0,090
-739,327	-143,590	-0,287	-0,020
-738,312	-67,914	0,066	-0,019
-737,298	-200,000	-0,302	0,000
-736,283	800,000	0,019	0,060
-735,269	-15,395	-0,132	0,062
-734,254	-81,637	0,056	0,013
-733,239	-107,389	-0,464	-0,074
-732,225	120,244	0,093	0,085
-731,210	-31,859	0,131	0,054
-730,196	800,000	0,053	-0,108
-729,181	416,353	-0,045	-0,072
-728,167	176,560	-0,058	0,062
-727,152	205,191	0,011	0,013
-726,137	91,350	-0,039	-0,032
-725,123	-200,000	0,011	-0,098
-724,108	800,000	0,049	-0,150
-723,094	-135,275	-0,184	0,016
-722,079	-37,591	-0,048	0,019
-721,064	-45,019	-0,083	-0,030
-720,050	-119,516	-0,207	-0,026
-719,035	-32,716	-0,059	0,024
-718,021	-200,000	0,016	-0,193
-717,006	369,526	0,046	-0,069
-715,991	800,000	-0,096	-0,256
-714,977	-156,166	-0,011	-0,001
-713,962	-200,000	-0,002	-0,129
-712,948	1,667	-0,124	0,065
-711,933	-100,674	0,069	-0,012
-710,918	-165,905	0,094	-0,003
-709,904	143,642	-0,186	-0,183
-708,889	-200,000	0,002	-0,105
-707,875	-200,000	0,015	-0,089
-706,860	-200,000	0,017	0,056
-705,845	-50,656	-0,064	-0,022
-704,831	800,000	-0,024	0,065
-703,816	-200,000	-0,096	0,000
-702,802	-200,000	0,045	-0,168
-701,787	14,515	-0,075	-0,043
-700,772	-104,461	0,074	0,013
-699,758	-77,091	-0,162	0,041
-698,743	800,000	0,035	-0,084
-697,729	-200,000	-0,006	0,097
-696,714	117,516	-0,080	0,073
-695,699	250,475	-0,054	0,068
-694,685	170,011	-0,080	-0,084
-693,670	-200,000	0,000	0,054
-692,656	-200,000	0,000	-0,116
-691,641	176,148	0,079	-0,085
-690,627	105,284	-0,056	0,049
-689,612	-200,000	-0,013	-0,132
-688,597	-200,000	-0,050	-0,182
-687,583	-45,352	-0,119	-0,043
-686,568	-73,630	-0,057	-0,015
-685,554	139,308	0,040	0,039
-684,539	-200,000	0,015	0,079
-683,524	248,845	-0,078	-0,097
-682,510	-58,607	0,094	0,030
-681,495	267,986	-0,007	-0,008
-680,481	342,910	-0,033	0,048
-679,466	-9,340	-0,114	0,056
-678,451	-200,000	0,031	0,120
-677,437	-155,349	0,052	0,002
-676,422	16,889	-0,044	0,025
-675,408	800,000	-0,043	0,097
-674,393	44,813	0,050	0,034
-673,378	800,000	-0,040	-0,102
-672,364	-28,886	-0,099	0,041
-671,349	800,000	0,063	-0,192
-670,335	328,631	-0,074	-0,104
-669,320	385,399	0,014	-0,021
-668,305	-36,819	0,068	-0,027
-667,291	31,537	-0,030	-0,019
-666,276	-200,000	0,005	0,044
-665,262	-200,000	-0,009	-0,039
-664,247	-8,273	-0,136	-0,067
-663,232	119,539	-0,054	0,049
-662,218	6,743	-0,057	0,031
-661,203	800,000	-0,042	0,090
-660,189	-200,000	0,010	0,114
-659,174	163,453	-0,068	-0,070
-658,159	-40,978	-0,023	0,009
-657,145	800,000	0,030	0,065
-656,130	-21,261	-0,193	0,087
-655,116	-200,000	0,005	-0,029
-654,101	-200,000	-0,008	-0,034
-653,086	-200,000	0,010	-0,107
-652,072	-90,341	-0,052	0,011
-651,057	502,304	-0,090	-0,153
-650,043	305,911	0,031	-0,042
-649,028	-200,000	0,026	-0,119
-648,014	78,781	0,043	0,034
-646,999	-200,000	-0,013	-0,108
-645,984	352,442	0,025	-0,037
-644,970	800,000	0,027	0,088
-643,955	-200,000	0,004	-0,070
-642,941	4,292	-0,067	-0,036
-641,926	-82,817	0,126	-0,030
-640,911	800,000	0,052	-0,118
-639,897	-2,251	0,117	-0,060
-638,882	-88,323	-0,060	0,013
-637,868	800,000	0,090	0,200
-636,853	-76,739	-0,072	-0,018
-635,838	-200,000	0,164	0,000
-634,824	-173,343	-0,072	0,002
-633,809	405,418	0,044	0,068
-632,795	-200,000	0,012	-0,073
-631,780	-88,323	0,306	0,067
-630,765	-38,459	-0,030	-0,012
-629,751	38,214	-0,085	-0,056
-628,736	-0,608	-0,076	0,040
-627,722	-200,000	0,009	0,079
-626,707	119,935	0,087	0,079
-625,692	-34,942	0,069	0,028
-624,678	29,296	-0,098	0,061
-623,663	-200,000	-0,015	0,103
-622,649	-29,774	0,046	0,019
-621,634	215,710	-0,063	-0,074
-620,619	-91,532	-0,045	0,009
-619,605	-200,000	0,018	-0,163
-618,590	18,102	-0,064	-0,037
-617,576	-78,198	0,050	0,012
-616,561	510,523	-0,046	0,079
-615,546	-18,103	-0,103	-0,047
-614,532	375,991	-0,139	-0,208
-613,517	-200,000	-0,020	-0,102
-612,503	-36,254	-0,156	-0,061
-611,488	800,000	-0,012	0,030
-610,474	-200,000	0,003	-0,046
-609,459	446,929	0,079	0,128
-608,444	149,825	-0,144	0,143
-607,430	800,000	-0,092	-0,225
-606,415	-90,372	-0,011	0,002
-605,401	-200,000	0,007	-0,034
-604,386	800,000	0,028	-0,090
-603,371	800,000	-0,005	-0,012
-602,357	800,000	0,033	-0,075
-601,342	223,653	-0,032	-0,038
-600,328	719,613	-0,047	-0,093
-599,313	800,000	-0,052	-0,112
-598,298	302,034	0,087	-0,119
-597,284	-67,084	0,040	-0,012
-596,269	-42,944	0,047	-0,017
-595,255	233,834	0,110	0,133
-594,240	-71,675	0,061	-0,016
-593,225	473,883	-0,014	0,023
-592,211	800,000	-0,006	-0,017
-591,196	800,000	-0,008	-0,023
-590,182	-65,185	-0,106	-0,031
-589,167	-200,000	-0,004	-0,038
-588,152	-200,000	-0,007	0,068
-587,138	-170,136	-0,094	0,002
-586,123	-79,413	-0,074	-0,018
-585,109	724,432	0,026	-0,051
-584,094	0,135	-0,078	0,041
-583,079	-160,442	0,056	-0,002
-582,065	-147,824	0,064	-0,004
-581,050	373,859	0,035	0,052
-580,036	390,087	0,012	0,018
-579,021	-200,000	-0,044	-0,181
-578,006	-77,880	-0,164	-0,041
-576,992	-8,254	0,053	-0,026
-575,977	-123,267	0,138	0,016
-574,963	40,824	-0,066	-0,044
-573,948	-136,845	-0,084	-0,007
-572,934	800,000	0,003	-0,008
-571,919	-200,000	-0,017	-0,130
-570,904	-54,910	-0,129	-0,042
-569,890	-200,000	-0,012	-0,145
-568,875	-147,461	0,055	-0,003
-567,861	-187,220	0,128	-0,001
-566,846	222,907	0,101	0,120
-565,831	800,000	0,023	0,059
-564,817	-33,396	-0,073	0,029
-563,802	800,000	0,034	-0,093
-562,788	98,938	0,060	0,051
-561,773	0,808	0,033	-0,017
-560,758	118,119	0,031	0,028
-559,744	-200,000	0,003	0,016
-558,729	54,891	-0,041	0,029
-557,715	-200,000	-0,013	0,077
-556,700	-66,366	-0,093	0,027
-555,685	800,000	0,034	-0,087
-554,671	-200,000	0,004	0,080
-553,656	-40,815	-0,070	-0,026
-552,642	800,000	-0,044	0,101
-551,627	-11,858	-0,067	0,032
-550,612	-200,000	0,006	0,038
-549,598	130,859	-0,013	0,012
-548,583	268,931	-0,087	-0,111
-547,569	3,820	-0,084	0,045
-546,554	-17,634	0,131	-0,060
-545,539	5,883	0,040	0,022
-544,525	261,705	-0,072	-0,091
-543,510	-54,114	-0,005	0,002
-542,496	30,777	-0,139	-0,087
-541,481	-12,764	0,078	-0,037
-540,466	-8,031	-0,099	-0,048
-539,452	31,216	0,040	0,025
-538,437	64,285	0,141	-0,104
-537,423	104,990	-0,036	0,031
-536,408	295,463	-0,005	0,007
-535,393	-51,089	-0,141	0,048
-534,379	128,547	0,046	0,043
-533,364	702,684	0,082	0,158
-532,350	800,000	-0,010	0,022
-531,335	-200,000	0,028	0,156
-530,321	-200,000	-0,019	0,079
-529,306	87,561	-0,059	0,047
-528,291	307,263	0,024	-0,032
-527,277	-200,000	-0,001	-0,170
-526,262	-119,070	-0,078	-0,010
-525,248	2,542	0,067	-0,035
-524,233	43,613	0,114	0,076
-523,218	800,000	0,059	0,120
-522,204	800,000	-0,016	0,041
-521,189	54,771	-0,045	-0,031
-520,175	-107,366	0,103	0,016
-519,160	148,638	-0,078	0,077
-518,145	800,000	0,075	0,168
-517,131	800,000	0,019	0,047
-516,116	-200,000	0,001	0,047
-515,102	68,306	-0,108	0,081
-514,087	75,787	-0,106	-0,082
-513,072	284,126	-0,078	-0,102
-512,058	-200,000	-0,002	-0,125
-511,043	-121,898	0,194	0,023
-510,029	83,428	0,036	0,029
-509,014	51,756	0,128	0,089
-507,999	5,724	0,132	0,071
-506,985	800,000	0,037	-0,114
-505,970	266,028	0,060	-0,077
-504,956	25,946	-0,028	-0,017
-503,941	-167,144	0,090	0,003
-502,926	-186,733	0,102	0,001
-501,912	-200,000	0,017	-0,154
-500,897	580,450	0,056	0,102
-499,883	-200,000	-0,022	0,181
-498,868	-66,388	-0,049	0,014
-497,853	666,266	-0,063	-0,119
-496,839	14,888	0,206	-0,117
-495,824	-200,000	-0,006	0,119
-494,810	765,102	0,035	0,070
-493,795	733,316	0,014	0,028
-492,781	58,834	0,077	0,055
-491,766	-200,000	-0,007	-0,030
-490,751	-143,823	-0,130	-0,009
-489,737	7,522	-0,027	0,015
-488,722	10,783	-0,072	0,040
-487,708	-50,015	0,051	-0,018
-486,693	-16,260	-0,027	-0,012
-485,678	488,492	-0,036	0,060
-484,664	73,851	-0,168	-0,128
-483,649	4,107	-0,040	0,021
-482,635	800,000	-0,023	0,053
-481,620	236,225	0,025	-0,030
-480,605	-19,339	0,038	0,017
-479,591	84,352	-0,052	0,041
-478,576	-6,806	-0,048	-0,024
-477,562	-185,849	-0,114	0,001
-476,547	-72,738	0,111	-0,030
-475,532	-200,000	-0,005	0,039
-474,518	-36,229	0,035	0,014
-473,503	608,160	-0,014	-0,026
-472,489	-200,000	0,012	0,070
-471,474	-154,137	-0,135	-0,007
-470,459	-122,311	-0,130	0,015
-469,445	-200,000	-0,025	-0,081
-468,430	241,933	-0,112	0,138
-467,416	778,901	-0,042	-0,083
-466,401	330,284	-0,045	0,063
-465,386	-47,899	0,082	0,029
-464,372	202,866	0,065	0,073
-463,357	172,642	0,050	-0,053
-462,343	183,024	-0,139	-0,150
-461,328	-200,000	0,009	-0,064
-460,313	134,461	0,110	-0,104
-459,299	266,637	-0,074	0,095
-458,284	9,881	0,111	0,061
-457,270	387,211	-0,014	0,021
-456,255	61,575	0,055	-0,040
-455,241	77,535	-0,106	-0,083
-454,226	800,000	0,032	-0,069
-453,211	-200,000	0,005	-0,134
-452,197	77,668	-0,046	-0,036
-451,182	-36,681	0,148	0,058
-450,168	-28,373	-0,086	-0,036
-449,153	-85,942	0,068	-0,015
-448,138	250,308	0,032	0,039
-447,124	57,673	-0,125	-0,089
-446,109	-8,787	0,051	-0,025
-445,095	88,151	0,048	0,039
-444,080	721,891	0,025	-0,049
-443,065	800,000	-0,037	-0,097
-442,051	-11,264	0,073	0,035
-441,036	-200,000	0,005	0,086
-440,022	800,000	-0,025	-0,055
-439,007	389,007	-0,114	0,173
-437,992	33,791	0,045	0,028
-436,978	-107,402	0,039	-0,006
-435,963	120,844	-0,015	-0,014
-434,949	63,492	-0,036	0,027
-433,934	-200,000	0,013	-0,159
-432,919	406,037	-0,035	-0,054
-431,905	-200,000	-0,002	0,148
-430,890	295,038	0,044	-0,059
-429,876	-200,000	0,020	0,110
-428,861	-200,000	0,003	0,156
-427,846	800,000	0,056	-0,126
-426,832	-200,000	-0,001	-0,051
-425,817	10,888	-0,066	-0,037
-424,803	-68,710	0,076	0,021
-423,788	53,931	0,097	-0,068
-422,773	-200,000	0,052	0,205
-421,759	211,079	0,039	0,045
-420,744	-92,620	0,085	0,017
-419,730	-200,000	0,022	0,107
-418,715	143,582	0,040	0,038
-417,701	-12,155	0,076	-0,036
-416,686	34,943	0,023	-0,015
-415,671	-200,000	0,024	0,103
-414,657	-92,852	0,053	-0,011
-413,642	-51,855	-0,097	0,033
-412,628	-200,000	-0,024	-0,092
-411,613	-131,681	-0,208	0,020
-410,598	84,667	0,057	0,046
-409,584	-20,835	-0,030	0,013
-408,569	319,206	0,070	0,096
-407,555	-200,000	-0,042	-0,177
-406,540	113,178	0,044	0,039
-405,525	257,116	0,087	0,109
-404,511	626,940	-0,015	0,028
-403,496	93,695	0,067	-0,055
-402,482	263,897	-0,060	0,077
-401,467	-200,000	0,151	-0,000
-400,452	630,581	0,059	0,110
-399,438	800,000	0,075	0,166
-398,423	2,719	0,084	0,044
-397,409	344,470	-0,032	-0,046
-396,394	-47,093	0,078	-0,027
-395,379	800,000	0,022	0,056
-394,365	-200,000	-0,014	-0,072
-393,350	-200,000	0,016	0,167
-392,336	-41,495	-0,119	-0,044
-391,321	-200,000	-0,013	-0,116
-390,306	-102,504	-0,137	0,024
-389,292	328,010	-0,043	-0,061
-388,277	-145,391	-0,137	0,009
-387,263	-82,153	0,113	0,027
-386,248	-48,392	0,035	-0,012
-385,233	319,498	-0,050	-0,069
-384,219	13,577	-0,082	-0,046
-383,204	207,038	0,075	-0,085
-382,190	277,828	-0,094	-0,121
-381,175	238,355	-0,023	0,028
-380,160	247,489	-0,056	0,069
-379,146	81,412	0,085	0,067
-378,131	784,407	0,054	0,107
-377,117	800,000	-0,023	-0,047
-376,102	72,288	-0,117	-0,089
-375,088	800,000	-0,015	0,046
-374,073	-122,044	0,123	-0,015
-373,058	-200,000	-0,002	-0,102
-372,044	-123,026	-0,010	0,001
-371,029	-13,010	0,049	0,023
-370,015	679,332	-0,031	0,060
-369,000	50,855	0,067	0,046
-367,985	197,195	-0,031	0,035
-366,971	800,000	0,026	-0,063
-365,956	-175,495	0,150	-0,003
-364,942	109,662	0,052	-0,045
-363,927	39,642	0,192	0,125
-362,912	271,096	0,038	0,048
-361,898	770,156	-0,049	-0,097
-360,883	34,321	-0,075	0,048
-359,869	116,240	-0,055	0,049
-358,854	798,840	0,032	0,064
-357,839	-21,125	-0,154	0,068
-356,825	800,000	0,051	0,126
-355,810	85,389	0,065	-0,052
-354,796	-200,000	0,007	-0,076
-353,781	-83,716	-0,107	0,025
-352,766	-200,000	0,023	-0,075
-351,752	-44,646	0,056	-0,020
-350,737	225,501	-0,068	-0,080
-349,723	-105,578	-0,035	-0,006
-348,708	162,969	0,069	-0,070
-347,693	-79,877	-0,099	0,024
-346,679	-23,940	-0,134	-0,058
-345,664	-101,509	-0,126	-0,022
-344,650	421,980	0,045	-0,070
-343,635	-200,000	-0,004	-0,033
-342,620	1,968	-0,090	0,047
-341,606	573,265	-0,053	-0,094
-340,591	-57,247	-0,076	0,024
-339,577	-200,000	-0,008	0,082
-338,562	800,000	-0,024	0,067
-337,548	648,824	-0,054	0,102
-336,533	800,000	-0,037	0,094
-335,518	-200,000	-0,009	-0,044
-334,504	758,011	0,073	0,145
-333,489	-200,000	0,004	-0,050
-332,475	248,475	-0,013	-0,015
-331,460	35,138	0,063	0,040
-330,445	-200,000	0,001	0,051
-329,431	-200,000	0,001	0,068
-328,416	183,399	-0,068	0,073
-327,402	-115,775	0,078	-0,010
-326,387	18,967	-0,072	-0,042
-325,372	-200,000	0,006	-0,035
-324,358	-157,880	0,094	-0,004
-323,343	1,287	0,092	0,048
-322,329	111,288	0,027	-0,024
-321,314	362,703	0,083	-0,122
-320,299	-94,312	-0,039	0,008
-319,285	-172,352	-0,033	-0,001
-318,270	327,612	0,018	-0,025
-317,256	-89,263	0,050	-0,011
-316,241	-200,000	-0,009	0,070
-315,226	-200,000	0,015	0,239
-314,212	-200,000	-0,008	-0,069
-313,197	10,950	0,045	-0,025
-312,183	208,981	-0,031	-0,036
-311,168	800,000	0,040	0,107
-310,153	-200,000	0,011	-0,112
-309,139	554,620	0,083	-0,145
-308,124	220,283	0,067	-0,078
-307,110	-200,000	0,004	-0,054
-306,095	-141,986	0,049	0,004
-305,080	178,556	0,101	0,107
-304,066	-114,556	0,051	0,007
-303,051	-63,479	-0,124	-0,037
-302,037	279,332	-0,088	-0,115
-301,022	-189,353	-0,115	-0,001
-300,008	-200,000	-0,032	0,121
-298,993	120,156	0,090	0,081
-297,978	300,848	-0,020	-0,027
-296,964	-63,411	-0,156	0,046
-295,949	-31,728	-0,100	-0,041
-294,935	-200,000	0,028	-0,094
-293,920	800,000	0,020	-0,045
-292,905	479,947	-0,073	0,121
-291,891	-106,957	-0,038	-0,006
-290,876	-6,781	-0,035	0,017
-289,862	-88,120	0,066	0,014
-288,847	44,901	0,067	-0,044
-287,832	-35,341	0,172	-0,067
-286,818	49,750	0,047	0,032
-285,803	82,979	-0,074	0,058
-284,789	52,869	0,115	0,080
-283,774	-200,000	0,030	0,133
-282,759	68,279	0,033	-0,024
-281,745	175,749	0,073	-0,077
-280,730	116,150	-0,113	-0,100
-279,716	-166,865	0,109	0,003
-278,701	-200,000	-0,003	-0,130
-277,686	-134,903	-0,041	0,004
-276,672	38,861	0,026	0,017
-275,657	-81,532	0,148	-0,035
-274,643	309,898	-0,055	-0,075
-273,628	305,795	-0,031	-0,042
-272,613	-200,000	-0,014	0,096
-271,599	-122,610	0,106	-0,012
-270,584	800,000	-0,021	-0,053
-269,570	73,722	-0,095	0,072
-268,555	435,028	-0,044	0,070
-267,540	34,967	-0,038	-0,024
-266,526	9,005	-0,079	0,043
-265,511	-49,081	-0,086	0,030
-264,497	516,437	-0,015	0,026
-263,482	81,351	0,037	-0,029
-262,467	-200,000	0,016	0,115
-261,453	572,178	-0,036	0,063
-260,438	-11,642	-0,158	0,075
-259,424	14,018	-0,035	0,020
-258,409	800,000	0,061	0,127
-257,395	-77,735	0,068	-0,017
-256,380	163,232	0,110	0,112
-255,365	-200,000	-0,002	0,061
-254,351	-200,000	0,019	-0,083
-253,336	49,060	-0,072	-0,049
-252,322	43,523	0,043	0,028
-251,307	563,066	0,084	0,147
-250,292	-51,951	-0,048	-0,016
-249,278	94,880	0,055	-0,045
-248,263	800,000	-0,031	-0,064
-247,249	800,000	-0,017	0,045
-246,234	800,000	0,042	0,097
-245,219	-200,000	0,002	-0,010
-244,205	-200,000	0,041	-0,158
-243,190	473,408	0,028	-0,046
-242,176	-200,000	-0,005	0,041
-241,161	800,000	-0,017	0,041
-240,146	800,000	-0,045	-0,096
-239,132	676,451	-0,072	-0,136
-238,117	285,724	0,014	0,018
-237,103	800,000	-0,016	0,038
-236,088	-43,816	0,023	-0,008
-235,073	327,507	0,058	0,080
-234,059	-200,000	0,001	0,031
-233,044	-200,000	-0,055	0,283
-232,030	122,252	-0,055	0,049
-231,015	256,891	0,076	-0,094
-230,000	-56,882	-0,105	0,033
-228,986	-46,794	0,051	-0,018
-227,971	-200,000	-0,005	0,028
-226,957	-10,594	0,066	0,031
-225,942	800,000	-0,028	-0,074
-224,927	510,744	0,063	-0,106
-223,913	-41,921	-0,168	-0,062
-222,898	-122,414	0,141	0,016
-221,884	800,000	-0,017	-0,034
-220,869	-56,147	0,090	0,029
-219,855	-121,628	0,111	0,013
-218,840	-200,000	-0,018	-0,163
-217,825	800,000	0,052	-0,137
-216,811	506,317	-0,028	0,047
-215,796	800,000	-0,052	-0,151
-214,782	7,616	-0,038	0,020
-213,767	474,292	-0,050	0,081
-212,752	-11,139	0,126	0,060
-211,738	-200,000	0,015	0,109
-210,723	-25,759	0,119	-0,050
-209,709	-20,798	-0,079	-0,035
-208,694	207,421	-0,095	-0,108
-207,679	-92,308	0,137	-0,028
-206,665	97,071	-0,082	0,068
-205,650	-21,490	0,082	-0,036
-204,636	-200,000	-0,006	-0,047
-203,621	115,164	-0,045	0,039
-202,606	-81,259	-0,035	-0,008
-201,592	395,699	-0,058	-0,088
-200,577	-200,000	-0,012	-0,075
-199,563	-45,016	-0,108	-0,039
-198,548	291,644	0,070	0,092
-197,533	77,348	0,098	-0,075
-196,519	27,263	-0,111	-0,067
-195,504	282,701	0,051	-0,066
-194,490	-109,124	-0,118	-0,018
-193,475	-200,000	0,032	-0,132
-192,460	216,265	0,043	-0,049
-191,446	366,557	0,040	0,059
-190,431	-61,141	-0,048	0,015
-189,417	-79,456	-0,130	-0,031
-188,402	88,312	-0,103	0,083
-187,387	152,027	-0,088	-0,086
-186,373	462,854	-0,098	-0,159
-185,358	-16,141	0,070	-0,032
-184,344	658,676	-0,026	0,049
-183,329	-200,000	-0,000	0,075
-182,315	142,024	0,108	0,104
-181,300	24,407	0,076	0,045
-180,285	-138,049	0,022	0,002
-179,271	-200,000	-0,003	0,052
-178,256	-4,345	-0,036	-0,018
-177,242	-96,874	-0,070	-0,013
-176,227	97,903	0,111	0,092
-175,212	393,131	-0,015	-0,022
-174,198	-44,193	-0,069	0,025
-173,183	39,501	-0,058	-0,037
-172,169	-91,578	0,099	0,020
-171,154	-200,000	0,015	-0,090
-170,139	147,285	-0,054	-0,052
-169,125	-200,000	0,003	-0,013
-168,110	245,630	0,096	0,117
-167,096	111,866	0,065	0,057
-166,081	-7,961	-0,130	0,063
-165,066	-35,913	0,128	-0,050
-164,052	-70,042	-0,089	0,024
-163,037	295,367	-0,069	0,091
-162,023	282,880	0,022	0,029
-161,008	194,608	-0,066	0,072
-159,993	-200,000	-0,023	0,115
-158,979	292,372	-0,025	0,033
-157,964	176,628	0,036	-0,038
-156,950	118,954	-0,079	-0,070
-155,935	800,000	0,038	0,090
-154,920	-47,655	-0,066	-0,023
-153,906	-68,796	-0,132	-0,037
-152,891	-200,000	0,037	-0,128
-151,877	92,791	-0,057	0,046
-150,862	583,954	-0,056	-0,100
-149,847	800,000	-0,060	-0,169
-148,833	-146,440	0,049	0,003
-147,818	-48,494	-0,114	0,039
-146,804	-104,257	-0,100	-0,017
-145,789	800,000	-0,053	0,140
-144,775	-78,623	0,016	0,004
-143,760	12,092	-0,115	0,063
-142,745	45,928	-0,077	-0,051
-141,731	470,794	-0,048	-0,078
-140,716	800,000	-0,018	-0,040
-139,702	-200,000	-0,004	-0,062
-138,687	-200,000	0,011	0,167
-137,672	-141,985	-0,045	0,003
-136,658	51,944	-0,193	0,132
-135,643	95,879	0,156	-0,129
-134,629	27,471	-0,108	0,065
-133,614	171,388	-0,084	0,086
-132,599	14,951	0,185	0,104
-131,585	154,440	0,028	0,027
-130,570	-200,000	-0,006	0,124
-129,556	204,576	-0,033	0,036
-128,541	66,246	-0,100	-0,073
-127,526	-200,000	0,019	0,098
-126,512	-200,000	-0,011	0,043
-125,497	231,695	0,057	0,067
-124,483	371,456	0,030	0,045
-123,468	-178,353	-0,063	-0,001
-122,453	-200,000	0,008	-0,119
-121,439	378,100	-0,019	-0,029
-120,424	-119,429	-0,031	-0,004
-119,410	-168,457	-0,070	-0,002
-118,395	439,426	-0,018	0,028
-117,380	60,401	-0,125	0,089
-116,366	1,503	-0,052	-0,027
-115,351	-119,363	-0,124	0,015
-114,337	800,000	-0,053	-0,112
-113,322	-200,000	-0,016	-0,067
-112,307	800,000	0,040	-0,120
-111,293	-50,970	-0,064	0,022
-110,278	-92,611	-0,042	-0,008
-109,264	26,820	-0,056	0,034
-108,249	329,554	0,062	-0,086
-107,234	689,815	-0,030	0,057
-106,220	8,391	0,098	-0,053
-105,205	305,259	0,025	0,033
-104,191	-200,000	-0,001	0,062
-103,176	-105,451	0,080	0,013
-102,162	9,052	-0,063	-0,034
-101,147	-200,000	0,018	-0,119
-100,132	69,206	-0,077	-0,057
-99,118	800,000	-0,014	-0,028
-98,103	-200,000	0,015	-0,081
-97,089	-200,000	0,003	0,143
-96,074	-20,911	-0,053	0,023
-95,059	-51,320	0,067	0,022
-94,045	32,872	-0,075	-0,047
-93,030	116,219	-0,054	-0,047
-92,016	-122,209	0,083	0,010
-91,001	800,000	0,065	0,148
-89,986	166,709	0,086	0,087
-88,972	-44,527	-0,065	0,023
-87,957	-72,946	-0,072	0,019
-86,943	285,930	-0,058	0,075
-85,928	800,000	-0,049	-0,101
-84,913	41,949	0,078	0,051
-83,899	-112,135	0,037	0,005
-82,884	2,301	0,097	-0,050
-81,870	-67,954	0,080	0,022
-80,855	15,549	0,074	-0,042
-79,840	191,912	0,028	0,031
-78,826	238,809	0,113	0,135
-77,811	-32,748	-0,091	0,036
-76,797	726,122	0,053	0,103
-75,782	336,452	-0,070	0,098
-74,767	-200,000	-0,016	-0,065
-73,753	-200,000	0,036	0,146
-72,738	17,582	-0,143	-0,082
-71,724	-57,097	-0,102	0,032
-70,709	-67,134	-0,120	0,034
-69,694	-200,000	-0,014	-0,078
-68,680	-0,715	-0,080	-0,040
-67,665	273,463	-0,021	-0,026
-66,651	800,000	-0,029	0,088
-65,636	45,877	-0,059	-0,039
-64,622	-60,932	-0,070	0,021
-63,607	126,315	0,065	-0,059
-62,592	302,592	0,011	-0,014
-61,578	22,105	0,028	0,017
-60,563	26,101	0,022	-0,013
-59,549	-200,000	-0,021	0,105
-58,534	8,490	-1,957	-1,055
-57,519	-200,000	-0,258	-0,945
-56,505	-200,000	-1,190	-5,018
-55,490	18,688	0,904	0,518
-54,476	800,000	5,318	12,057
-53,461	-200,000	17,397	283,245
-52,446	800,000	725,161	2218,810
-51,432	538,177	1641,593	2812,358
-50,417	110,763	1632,463	1409,748
-49,403	75,344	1286,324	973,283
-48,388	32,335	1028,164	635,841
-47,373	20,211	990,003	572,238
-46,359	18,644	978,021	560,149
-45,344	15,974	974,139	549,158
-44,330	16,207	972,448	548,944
-43,315	15,716	970,783	546,378
-42,300	15,677	969,566	545,544
-41,286	15,658	968,572	544,903
-40,271	15,704	967,463	544,407
-39,257	15,685	966,607	543,842
-38,242	15,721	965,833	543,502
-37,227	15,725	965,076	543,066
-36,213	15,696	964,264	542,493
-35,198	15,667	963,410	541,898
-34,184	15,728	962,582	541,608
-33,169	15,656	961,654	540,830
-32,154	15,700	960,657	540,392
-31,140	15,738	959,732	539,974
-30,125	15,763	958,926	539,577
-29,111	15,725	958,126	538,985
-28,096	15,738	957,791	538,816
-27,082	15,687	957,177	538,286
-26,067	15,706	956,018	537,672
-25,052	15,690	955,352	537,225
-24,038	15,672	954,962	536,927
-23,023	15,644	954,246	536,412
-22,009	15,753	953,443	536,290
-20,994	15,661	952,869	535,651
-19,979	15,690	952,241	535,368
-18,965	15,679	951,536	534,917
-17,950	15,682	951,049	534,632
-16,936	15,626	950,572	534,163
-15,921	15,613	949,592	533,551
-14,906	15,544	948,976	532,964
-13,892	15,608	948,277	532,751
-12,877	15,559	947,760	532,285
-11,863	15,574	947,098	531,941
-10,848	15,564	946,637	531,629
-9,833	15,638	946,134	531,559
-8,819	15,662	945,357	531,180
-7,804	15,624	944,763	530,702
-6,790	15,593	944,150	530,239
-5,775	15,558	943,660	529,833
-4,760	15,633	943,001	529,679
-3,746	15,611	942,430	529,267
-2,731	15,452	941,699	528,333
-1,717	15,433	940,984	527,849
-0,702	15,394	940,326	527,336
0,313	15,239	939,876	527,392
1,327	18,380	937,469	535,895
2,342	27,139	794,712	477,512
3,356	23,827	458,796	270,585
4,371	-3,307	313,966	156,359
5,386	-7,247	295,615	143,226
6,400	-9,090	289,598	138,472
7,415	-9,595	287,135	136,786
8,429	-9,691	285,588	135,943
9,444	-9,805	284,796	135,443
10,459	-9,778	284,205	135,176
11,473	-9,811	283,581	134,835
12,488	-9,811	283,021	134,557
13,502	-9,888	282,583	134,262
14,517	-9,931	282,196	134,024
15,531	-9,870	281,700	133,836
16,546	-9,656	281,333	133,856
17,561	-10,009	281,002	133,347
18,575	-9,613	280,609	133,529
19,590	-9,779	280,221	133,173
20,604	-9,770	279,973	133,052
21,619	-9,649	279,478	132,921
22,634	-9,686	279,168	132,726
23,648	-9,861	278,913	132,426
24,663	-9,593	278,596	132,519
25,677	-9,693	278,465	132,349
26,692	-9,828	278,304	132,133
27,707	-9,706	277,889	132,040
28,721	-9,854	277,606	131,753
29,736	-9,890	277,410	131,614
30,750	-9,710	277,187	131,668
31,765	-9,800	276,790	131,382
32,780	-9,897	276,701	131,237
33,794	-9,847	276,323	131,093
34,809	-9,620	276,055	131,168
35,823	-9,865	275,767	130,788
36,838	-9,781	275,670	130,810
37,853	-9,818	275,171	130,527
38,867	-9,885	275,082	130,409
39,882	-9,920	274,874	130,266
40,896	-9,752	274,618	130,291
41,911	-9,745	274,359	130,164
42,926	-9,584	274,136	130,196
43,940	-9,881	273,856	129,774
44,955	-9,785	273,564	129,714
45,969	-9,944	273,513	129,530
46,984	-10,121	273,196	129,203
47,999	-10,141	273,026	129,093
49,013	-10,382	272,758	128,730
50,028	-10,476	272,510	128,514
51,042	-10,648	272,161	128,178
52,057	-10,500	271,990	128,223
53,071	-10,633	271,690	127,947
54,086	-10,365	271,424	128,059
55,101	-10,172	271,393	128,212
56,115	-10,220	271,348	128,135
57,130	-9,768	271,089	128,418
58,144	-9,674	270,835	128,373
59,159	-9,581	270,502	128,290
60,174	-9,777	270,377	128,039
61,188	-9,750	270,297	128,014
62,203	-9,606	269,912	127,953
63,217	-9,646	269,779	127,842
64,232	-9,673	269,363	127,608
65,247	-9,749	269,249	127,473
66,261	-9,545	268,854	127,462
67,276	-9,807	268,788	127,179
68,290	-10,029	268,500	126,829
69,305	-9,942	268,150	126,732
70,320	-10,091	268,222	126,618
71,334	-9,812	267,783	126,654
72,349	-9,775	267,752	126,662
73,363	-9,752	267,642	126,620
74,378	-9,749	267,363	126,479
75,393	-9,834	267,078	126,255
76,407	-9,657	266,806	126,277
77,422	-9,779	266,716	126,111
78,436	-9,790	266,550	126,012
79,451	-9,697	266,266	125,951
80,466	-9,674	265,935	125,804
81,480	-9,884	265,686	125,485
82,495	-9,756	265,557	125,529
83,509	-9,731	265,309	125,422
84,524	-10,069	265,370	125,135
85,539	-10,111	264,978	124,901
86,553	-10,048	264,761	124,845
87,568	-9,903	264,560	124,869
88,582	-9,878	264,397	124,803
89,597	-10,050	264,270	124,577
90,611	-9,854	263,968	124,601
91,626	-9,749	263,843	124,625
92,641	-9,677	263,578	124,553
93,655	-9,614	263,360	124,495
94,670	-9,737	263,128	124,264
95,684	-9,527	262,720	124,248
96,699	-9,641	262,843	124,193
97,714	-9,835	262,547	123,869
98,728	-9,953	262,337	123,654
99,743	-9,941	262,020	123,504
100,757	-10,011	261,832	123,342
101,772	-10,065	261,697	123,220
102,787	-9,781	261,363	123,304
103,801	-9,845	261,301	123,206
104,816	-9,679	261,226	123,307
105,830	-9,775	261,062	123,134
106,845	-9,554	260,781	123,186
107,860	-9,628	260,764	123,102
108,874	-9,802	260,347	122,740
109,889	-9,706	260,376	122,827
110,903	-9,822	259,946	122,511
111,918	-9,908	259,816	122,363
112,933	-9,743	259,584	122,388
113,947	-9,758	259,394	122,275
114,962	-9,540	259,119	122,326
115,976	-9,748	259,100	122,123
116,991	-9,822	258,787	121,900
118,006	-9,838	258,798	121,880
119,020	-9,746	258,705	121,906
120,035	-9,816	258,583	121,776
121,049	-9,699	258,108	121,644
122,064	-9,846	258,057	121,481
123,079	-9,732	257,736	121,418
124,093	-9,761	257,512	121,276
125,108	-10,002	257,352	120,981
126,122	-10,070	257,000	120,744
127,137	-10,361	256,964	120,463
128,151	-10,236	256,773	120,472
129,166	-10,006	256,562	120,562
130,181	-10,050	256,312	120,396
131,195	-9,930	256,178	120,427
132,210	-9,795	255,803	120,357
133,224	-9,746	255,877	120,423
134,239	-9,832	255,874	120,336
135,254	-9,768	255,466	120,189
136,268	-9,899	255,282	119,979
137,283	-10,159	254,919	119,573
138,297	-10,273	254,828	119,421
139,312	-10,085	254,593	119,462
140,327	-10,006	254,540	119,495
141,341	-9,657	254,382	119,711
142,356	-9,611	254,107	119,610
143,370	-9,608	254,039	119,570
144,385	-9,508	253,816	119,540
145,400	-9,623	253,611	119,335
146,414	-9,261	253,381	119,525
147,429	-9,467	253,194	119,251
148,443	-9,467	253,142	119,215
149,458	-9,589	253,015	119,040
150,473	-9,522	252,756	118,965
151,487	-9,768	252,453	118,602
152,502	-9,636	252,285	118,625
153,516	-9,365	252,040	118,730
154,531	-9,642	252,121	118,522
155,546	-9,529	251,896	118,502
156,560	-9,642	251,595	118,254
157,575	-9,508	251,398	118,264
158,589	-9,693	251,211	118,008
159,604	-9,238	251,039	118,303
160,619	-9,326	250,713	118,065
161,633	-9,604	250,847	117,881
162,648	-9,441	250,664	117,923
163,662	-9,527	250,350	117,692
164,677	-9,631	250,104	117,478
165,692	-9,474	250,059	117,579
166,706	-9,361	249,945	117,610
167,721	-9,631	249,772	117,291
168,735	-9,595	249,537	117,200
169,750	-9,517	249,482	117,230
170,764	-9,555	249,342	117,122
171,779	-9,398	249,087	117,123
172,794	-9,746	249,024	116,790
173,808	-9,661	248,711	116,705
174,823	-9,876	248,273	116,309
175,837	-10,127	248,232	116,069
176,852	-9,880	248,204	116,253
177,867	-9,615	248,140	116,434
178,881	-9,557	247,930	116,374
179,896	-9,503	247,676	116,288
180,910	-9,701	247,583	116,069
181,925	-9,387	247,341	116,207
182,940	-9,550	247,292	116,038
183,954	-9,591	247,055	115,882
184,969	-9,478	246,939	115,912
185,983	-9,714	246,860	115,668
186,998	-9,645	246,634	115,609
188,013	-9,446	246,469	115,687
189,027	-9,324	246,230	115,666
190,042	-9,648	246,010	115,284
191,056	-9,572	245,987	115,326
192,071	-9,511	245,811	115,282
193,086	-9,575	245,528	115,087
194,100	-9,671	245,467	114,969
195,115	-9,573	245,109	114,872
196,129	-9,403	245,021	114,960
197,144	-9,612	244,815	114,681
198,159	-9,595	244,597	114,583
199,173	-9,531	244,394	114,531
200,188	-9,562	244,239	114,422
201,202	-9,874	243,891	113,993
202,217	-10,126	243,795	113,731
203,232	-9,950	243,451	113,704
204,246	-9,656	243,508	113,962
205,261	-9,378	243,262	114,064
206,275	-10,280	242,727	113,066
207,290	-7,608	244,219	115,946
208,304	-0,620	246,348	122,721
209,319	3,193	247,348	126,362
210,334	3,307	247,298	126,420
211,348	3,530	247,246	126,566
212,363	3,771	247,150	126,704
213,377	3,898	246,978	126,709
214,392	3,860	246,817	126,584
215,407	3,528	246,778	126,279
216,421	3,876	246,327	126,323
217,436	4,135	246,354	126,538
218,450	4,011	246,251	126,372
219,465	3,742	245,882	125,951
220,480	3,549	245,802	125,741
221,494	3,698	245,619	125,758
222,509	3,513	245,614	125,593
223,523	3,581	245,209	125,430
224,538	3,152	244,872	124,896
225,553	3,361	244,769	125,003
226,567	3,396	244,757	125,014
227,582	3,839	244,468	125,217
228,596	3,769	244,472	125,151
229,611	3,249	244,106	124,529
230,626	3,079	244,010	124,331
231,640	3,166	243,917	124,343
232,655	3,187	243,806	124,293
233,669	3,156	243,559	124,130
234,684	3,117	243,443	124,028
235,699	3,514	243,487	124,362
236,713	3,698	243,193	124,350
237,728	3,581	242,881	124,084
238,742	3,153	242,621	123,595
239,757	3,228	242,472	123,568
240,772	3,384	242,359	123,626
241,786	3,409	242,289	123,599
242,801	3,273	242,059	123,361
243,815	3,100	242,040	123,201
244,830	3,264	241,819	123,209
245,844	3,476	241,769	123,344
246,859	3,226	241,519	123,004
247,874	3,282	241,202	122,877
248,888	3,254	241,271	122,878
249,903	3,366	241,040	122,839
250,917	3,254	240,968	122,702
251,932	3,697	240,954	123,039
252,947	3,600	240,689	122,815
253,961	3,258	240,529	122,449
254,976	3,574	240,148	122,496
255,990	3,766	240,056	122,592
257,005	3,478	239,822	122,232
258,020	3,282	239,661	121,983
259,034	3,228	239,554	121,874
260,049	3,358	239,508	121,943
261,063	3,077	239,394	121,651
262,078	3,162	239,135	121,576
263,093	3,448	239,140	121,795
264,107	3,492	238,995	121,746
265,122	3,225	238,682	121,364
266,136	3,128	238,709	121,289
267,151	3,433	238,501	121,415
268,166	3,258	238,157	121,090
269,180	3,090	238,012	120,873
270,195	3,723	238,078	121,396
271,209	3,744	238,118	121,422
272,224	3,414	237,638	120,906
273,239	3,063	237,467	120,531
274,253	3,049	237,335	120,442
275,268	3,369	237,186	120,608
276,282	3,432	237,090	120,599
277,297	3,192	236,933	120,320
278,312	3,026	236,824	120,122
279,326	3,412	236,692	120,348
280,341	3,379	236,489	120,208
281,355	3,539	236,271	120,212
282,370	3,684	236,334	120,347
283,384	3,376	236,064	119,958
284,399	3,419	235,775	119,834
285,414	3,081	235,618	119,479
286,428	3,261	235,472	119,535
287,443	3,148	235,371	119,385
288,457	3,316	235,197	119,417
289,472	3,480	235,135	119,503
290,487	3,377	235,016	119,351
291,501	3,238	234,651	119,047
292,516	3,022	234,507	118,795
293,530	3,054	234,281	118,695
294,545	3,316	234,418	118,957
295,560	3,418	234,244	118,938
296,574	3,181	233,875	118,556
297,589	3,312	233,833	118,626
298,603	3,741	233,769	118,915
299,618	3,368	233,730	118,596
300,633	3,289	233,486	118,400
301,647	3,605	233,493	118,638
302,662	3,754	233,305	118,647
303,676	3,894	233,238	118,710
304,691	3,880	232,975	118,555
305,706	3,973	232,815	118,535
306,720	3,702	232,612	118,212
307,735	3,687	232,473	118,120
308,749	3,530	232,330	117,916
309,764	3,284	232,063	117,580
310,779	3,075	232,037	117,396
311,793	3,054	231,673	117,185
312,808	3,205	231,578	117,243
313,822	3,210	231,495	117,194
314,837	2,903	231,197	116,798
315,852	2,915	231,167	116,781
316,866	3,393	231,041	117,073
317,881	3,585	231,044	117,211
318,895	3,688	230,818	117,164
319,910	3,791	230,747	117,196
320,925	3,512	230,447	116,821
321,939	3,204	230,268	116,485
322,954	3,517	230,321	116,740
323,968	3,466	230,126	116,592
324,983	3,058	229,826	116,120
325,997	3,024	229,722	116,032
327,012	3,490	229,602	116,314
328,027	3,601	229,504	116,338
329,041	3,631	229,571	116,384
330,056	4,053	229,388	116,601
331,070	3,905	229,242	116,404
332,085	3,420	228,956	115,882
333,100	3,685	228,729	115,957
334,114	3,773	228,702	115,999
335,129	3,853	228,641	116,018
336,143	3,711	228,393	115,775
337,158	3,576	228,335	115,634
338,173	3,562	228,167	115,527
339,187	3,673	227,992	115,512
340,202	3,802	227,861	115,533
341,216	3,784	227,675	115,415
342,231	3,395	227,537	115,041
343,246	3,485	227,311	114,985
344,260	3,623	227,320	115,083
345,275	3,871	227,133	115,163
346,289	3,841	227,077	115,103
347,304	3,973	226,927	115,115
348,319	3,807	226,786	114,909
349,333	3,732	226,475	114,685
350,348	3,607	226,366	114,527
351,362	3,554	226,271	114,429
352,377	3,481	226,127	114,291
353,392	3,371	225,829	114,049
354,406	3,554	225,723	114,121
355,421	196,454	1321,578	1401,784
356,435	157,500	1455,096	1401,788
