DTS Sentinel unit serial number:	SN410029Multiplexer serial number:	ORYXHardware model number:	OX2-SRSoftware version number:	ORYX F/W v4,00 Oryx Data Collector v3.7.2.0data status	okinstallation	B5 Nyhavnadifferential loss correction	single-endedforward channel	channel 2reverse channel	N/Adate	2023/12/14time	16:47:13forward acquisition time	300,00reverse acquisition time	0,00gamma	499,1914k internal	0,3157k external	0,3157temperature offset calibration	1,0000default loss term (dB/km)	0,3820temperature slope calibration	1,0000multiplexer offset coefficient	1,0000multiplexer slope coefficient	1,0000fibre end	0,00T internal ref (°C)	8,06T ext. ref 1 (°C)	-7,39T ext. ref 2 (°C)	-7,45length (m)	temperature (°C)	Stokes	anti-Stokes-744,400	86,587	0,124	0,101
-743,385	-143,227	-0,474	0,033
-742,371	-113,075	0,185	0,027
-741,356	-3,926	-0,277	-0,141
-740,342	30,726	0,094	0,059
-739,327	-78,615	-0,415	-0,104
-738,312	40,691	0,120	0,080
-737,298	-92,618	-0,402	-0,082
-736,283	4,439	0,112	0,060
-735,269	-112,914	-0,365	-0,053
-734,254	486,556	0,091	0,154
-733,239	-26,545	-0,528	-0,227
-732,225	-82,683	0,153	-0,036
-731,210	209,605	0,019	0,022
-730,196	-137,706	0,026	0,002
-729,181	-167,546	-0,137	0,004
-728,167	-18,504	0,106	-0,049
-727,152	-85,290	-0,081	-0,018
-726,137	-18,446	-0,114	-0,052
-725,123	-179,068	-0,043	-0,001
-724,108	-69,866	-0,175	-0,049
-723,094	793,654	-0,065	-0,132
-722,079	-27,872	-0,210	-0,089
-721,064	465,674	-0,026	-0,044
-720,050	-147,135	-0,029	0,002
-719,035	-200,000	0,025	-0,092
-718,021	-149,209	-0,092	-0,005
-717,006	77,861	-0,150	-0,117
-715,991	800,000	-0,037	-0,110
-714,977	800,000	-0,031	0,074
-713,962	-54,718	0,199	0,066
-712,948	-161,881	0,099	-0,004
-711,933	55,199	0,109	0,077
-710,918	791,797	0,036	0,072
-709,904	-143,518	0,084	0,006
-708,889	-200,000	0,014	-0,146
-707,875	-200,000	-0,008	0,062
-706,860	101,247	0,056	0,048
-705,845	-200,000	0,003	0,011
-704,831	189,438	-0,026	-0,029
-703,816	692,969	0,033	0,065
-702,802	-35,487	0,048	-0,019
-701,787	193,409	0,090	-0,101
-700,772	-200,000	-0,005	-0,113
-699,758	697,460	0,034	0,066
-698,743	258,197	-0,021	-0,027
-697,729	-30,312	0,088	-0,036
-696,714	-157,856	0,175	-0,008
-695,699	191,559	0,083	-0,092
-694,685	96,137	-0,066	-0,056
-693,670	131,569	-0,102	-0,096
-692,656	-200,000	-0,029	0,116
-691,641	-200,000	-0,005	0,080
-690,627	13,625	-0,052	0,030
-689,612	-3,497	0,073	-0,037
-688,597	800,000	-0,033	-0,089
-687,583	800,000	-0,044	-0,103
-686,568	93,914	0,026	-0,021
-685,554	-200,000	0,060	0,000
-684,539	-35,267	-0,048	-0,019
-683,524	-101,864	0,117	-0,021
-682,510	-0,172	0,112	-0,058
-681,495	-39,370	-0,059	-0,023
-680,481	-28,358	-0,037	0,016
-679,466	66,997	-0,084	-0,063
-678,451	-111,379	-0,096	-0,014
-677,437	220,633	-0,050	0,059
-676,422	216,975	-0,052	0,061
-675,408	-200,000	-0,052	0,182
-674,393	-32,191	0,066	0,027
-673,378	-109,679	-0,083	-0,013
-672,364	-47,725	0,157	0,056
-671,349	-200,000	-0,005	-0,087
-670,335	662,952	0,014	-0,027
-669,320	-200,000	-0,011	-0,137
-668,305	-75,160	0,094	-0,025
-667,291	21,846	-0,158	-0,094
-666,276	800,000	-0,050	0,131
-665,262	81,397	-0,120	-0,095
-664,247	-148,430	-0,026	0,002
-663,232	800,000	-0,012	0,027
-662,218	84,628	0,076	0,061
-661,203	-200,000	-0,002	-0,050
-660,189	515,874	0,049	-0,084
-659,174	-28,059	-0,044	0,018
-658,159	-120,774	-0,135	-0,017
-657,145	800,000	-0,060	-0,153
-656,130	-200,000	0,038	0,156
-655,116	410,260	-0,054	-0,084
-654,101	-200,000	-0,014	0,140
-653,086	104,021	-0,011	-0,009
-652,072	448,497	-0,085	-0,138
-651,057	-76,425	-0,088	-0,023
-650,043	91,187	-0,118	-0,097
-649,028	-40,543	0,100	-0,038
-648,014	37,414	-0,055	-0,036
-646,999	-200,000	0,004	0,131
-645,984	366,080	0,033	0,050
-644,970	-200,000	0,002	0,028
-643,955	58,247	0,065	-0,047
-642,941	-89,449	0,019	0,004
-641,926	414,126	-0,013	-0,020
-640,911	5,410	0,043	0,023
-639,897	-122,252	-0,123	-0,015
-638,882	-200,000	0,003	0,069
-637,868	109,077	-0,012	-0,011
-636,853	-23,784	0,015	0,007
-635,838	-66,701	-0,170	0,049
-634,824	27,156	0,086	0,053
-633,809	133,664	0,060	-0,057
-632,795	623,448	0,060	0,111
-631,780	-27,599	0,066	0,028
-630,765	778,372	-0,039	-0,078
-629,751	577,602	-0,055	-0,099
-628,736	-45,779	0,031	0,011
-627,722	121,838	-0,026	0,024
-626,707	800,000	-0,015	-0,035
-625,692	305,019	-0,083	0,113
-624,678	-200,000	-0,017	-0,177
-623,663	242,445	0,031	-0,038
-622,649	416,940	-0,045	0,071
-621,634	-200,000	0,007	-0,072
-620,619	-23,689	-0,033	0,014
-619,605	800,000	-0,037	0,097
-618,590	426,781	-0,078	0,124
-617,576	724,544	-0,013	0,026
-616,561	-70,811	-0,123	0,034
-615,546	192,464	-0,093	-0,103
-614,532	-49,555	-0,055	-0,019
-613,517	126,351	-0,122	-0,113
-612,503	402,591	-0,052	-0,080
-611,488	800,000	0,024	-0,057
-610,474	-200,000	-0,035	0,159
-609,459	-21,071	0,162	-0,073
-608,444	222,425	-0,073	0,086
-607,430	-200,000	0,003	-0,033
-606,415	18,589	0,093	0,054
-605,401	335,449	-0,064	0,091
-604,386	44,513	0,097	0,065
-603,371	57,370	-0,113	0,081
-602,357	89,463	0,005	-0,004
-601,342	800,000	0,017	0,051
-600,328	-200,000	-0,007	-0,222
-599,313	172,757	-0,083	-0,087
-598,298	500,878	-0,033	-0,056
-597,284	-79,977	0,029	-0,007
-596,269	21,282	-0,102	-0,061
-595,255	-169,354	-0,039	0,001
-594,240	278,781	-0,091	-0,120
-593,225	-156,963	-0,062	-0,003
-592,211	-28,600	-0,067	0,028
-591,196	234,097	0,114	-0,138
-590,182	-123,143	0,128	-0,015
-589,167	121,155	-0,054	-0,049
-588,152	-200,000	-0,042	-0,144
-587,138	59,734	-0,102	-0,074
-586,123	711,827	-0,066	-0,129
-585,109	800,000	0,023	0,060
-584,094	800,000	-0,009	0,025
-583,079	762,827	-0,027	0,054
-582,065	-5,741	-0,049	0,024
-581,050	268,118	-0,060	-0,077
-580,036	800,000	-0,026	-0,056
-579,021	-105,999	-0,152	0,025
-578,006	-200,000	-0,026	0,139
-576,992	2,193	0,099	-0,052
-575,977	79,064	0,006	-0,005
-574,963	59,426	-0,108	0,078
-573,948	-12,852	0,064	0,030
-572,934	-34,745	-0,107	-0,043
-571,919	-200,000	0,010	-0,040
-570,904	-9,280	-0,114	0,055
-569,890	-67,283	0,111	0,032
-568,875	800,000	0,036	0,089
-567,861	5,201	-0,030	-0,016
-566,846	-50,977	0,175	-0,060
-565,831	49,028	0,090	-0,062
-564,817	277,087	-0,060	-0,079
-563,802	800,000	-0,035	-0,099
-562,788	-89,670	-0,107	-0,023
-561,773	44,244	-0,035	0,024
-560,758	294,796	-0,027	0,036
-559,744	271,239	0,038	-0,049
-558,729	-121,364	-0,183	-0,022
-557,715	46,552	0,131	-0,089
-556,700	137,748	0,038	-0,037
-555,685	234,183	-0,085	-0,103
-554,671	-91,809	0,209	-0,043
-553,656	-200,000	0,029	0,099
-552,642	161,373	0,064	0,066
-551,627	-44,674	0,079	0,029
-550,612	-200,000	0,018	0,113
-549,598	-117,120	-0,181	-0,024
-548,583	-200,000	0,003	0,060
-547,569	-200,000	0,020	-0,074
-546,554	315,323	-0,035	0,049
-545,539	-200,000	-0,006	0,095
-544,525	-59,398	-0,077	0,024
-543,510	-200,000	-0,013	0,074
-542,496	310,616	-0,084	0,115
-541,481	276,459	0,034	0,044
-540,466	800,000	0,011	-0,030
-539,452	639,165	0,060	0,112
-538,437	800,000	-0,010	0,024
-537,423	71,222	0,026	0,019
-536,408	-200,000	-0,031	-0,102
-535,393	790,720	0,028	0,056
-534,379	131,817	0,078	0,074
-533,364	-49,478	0,036	0,013
-532,350	147,887	0,053	0,052
-531,335	625,678	0,055	-0,102
-530,321	-23,976	-0,034	-0,015
-529,306	305,855	-0,074	0,100
-528,291	80,199	-0,109	-0,086
-527,277	46,677	-0,038	-0,026
-526,262	-200,000	-0,007	0,059
-525,248	-130,383	0,089	0,009
-524,233	407,841	0,040	0,062
-523,218	800,000	0,025	0,064
-522,204	29,707	-0,052	0,032
-521,189	137,797	-0,014	0,013
-520,175	18,681	-0,087	-0,051
-519,160	27,299	0,057	-0,035
-518,145	-200,000	-0,065	0,247
-517,131	-54,887	-0,021	0,007
-516,116	-49,011	0,109	-0,038
-515,102	800,000	-0,038	-0,121
-514,087	800,000	-0,058	-0,140
-513,072	-92,168	-0,125	-0,026
-512,058	-200,000	-0,012	0,081
-511,043	-90,291	0,113	0,024
-510,029	-200,000	-0,013	0,158
-509,014	393,031	0,066	-0,100
-507,999	-200,000	-0,003	-0,027
-506,985	-39,759	0,023	0,009
-505,970	213,683	0,015	-0,018
-504,956	-44,536	0,191	0,070
-503,941	800,000	0,058	-0,170
-502,926	-34,281	0,103	0,041
-501,912	-200,000	-0,019	0,107
-500,897	12,463	-0,071	-0,040
-499,883	-55,427	0,035	0,011
-498,868	70,433	-0,098	-0,074
-497,853	-200,000	0,003	-0,103
-496,839	800,000	0,038	0,082
-495,824	-156,694	0,162	-0,007
-494,810	-14,337	-0,134	-0,063
-493,795	-200,000	-0,012	0,046
-492,781	-79,285	-0,030	-0,007
-491,766	14,086	-0,083	-0,047
-490,751	-200,000	0,015	-0,141
-489,737	207,427	0,030	-0,035
-488,722	-24,593	0,056	-0,024
-487,708	70,305	-0,032	0,024
-486,693	742,324	-0,057	0,113
-485,678	185,555	0,052	0,057
-484,664	261,121	-0,115	-0,146
-483,649	520,138	-0,061	-0,105
-482,635	107,659	0,035	0,031
-481,620	-28,809	0,196	0,082
-480,605	285,888	-0,069	0,091
-479,591	126,743	0,077	-0,071
-478,576	-127,747	0,098	-0,010
-477,562	-157,024	0,092	-0,004
-476,547	800,000	0,093	-0,201
-475,532	347,897	-0,048	0,069
-474,518	84,919	0,080	0,064
-473,503	106,179	0,067	-0,058
-472,489	-30,749	-0,090	0,037
-471,474	800,000	-0,033	0,072
-470,459	-68,938	0,127	-0,035
-469,445	-200,000	-0,015	-0,068
-468,430	59,754	0,129	0,093
-467,416	-101,745	-0,076	0,013
-466,401	480,892	0,042	0,070
-465,386	118,442	0,081	0,073
-464,372	-139,963	0,083	0,006
-463,357	30,092	-0,154	0,096
-462,343	-200,000	0,008	-0,084
-461,328	2,915	-0,126	0,066
-460,313	131,512	0,182	0,170
-459,299	800,000	-0,062	0,163
-458,284	36,085	0,084	-0,054
-457,270	800,000	-0,044	0,116
-456,255	338,169	0,003	0,004
-455,241	204,931	0,016	-0,018
-454,226	187,453	0,076	-0,082
-453,211	-134,953	0,085	-0,007
-452,197	451,955	0,109	0,176
-451,182	6,034	-0,103	0,055
-450,168	223,178	0,091	-0,107
-449,153	-84,537	0,057	-0,013
-448,138	-200,000	0,006	-0,066
-447,124	-200,000	-0,003	0,013
-446,109	-4,250	-0,063	0,032
-445,095	21,904	0,170	0,100
-444,080	-13,678	0,065	0,031
-443,065	800,000	-0,015	0,034
-442,051	-200,000	-0,034	0,139
-441,036	800,000	-0,055	-0,158
-440,022	-200,000	-0,011	-0,039
-439,007	121,899	-0,073	-0,067
-437,992	43,225	0,027	-0,018
-436,978	-11,419	-0,005	0,002
-435,963	-73,882	-0,128	0,034
-434,949	199,379	-0,067	0,075
-433,934	151,307	-0,103	-0,102
-432,919	-13,268	-0,069	-0,033
-431,905	-200,000	-0,017	0,092
-430,890	337,668	0,053	-0,075
-429,876	-78,119	0,048	-0,012
-428,861	25,122	-0,052	0,031
-427,846	315,096	0,049	0,068
-426,832	-147,522	0,092	0,006
-425,817	-88,367	0,081	0,018
-424,803	800,000	-0,040	-0,082
-423,788	800,000	0,017	0,051
-422,773	390,376	-0,036	0,054
-421,759	-35,450	0,106	-0,042
-420,744	-189,803	0,114	-0,001
-419,730	365,956	-0,111	-0,164
-418,715	191,831	-0,038	0,042
-417,701	-200,000	-0,006	-0,045
-416,686	105,663	0,065	0,056
-415,671	-9,666	0,088	0,043
-414,657	60,271	-0,102	-0,073
-413,642	35,284	0,080	0,051
-412,628	-200,000	0,000	-0,035
-411,613	485,056	-0,045	-0,075
-410,598	77,097	0,047	-0,037
-409,584	-118,735	0,081	-0,010
-408,569	185,886	0,077	-0,084
-407,555	-200,000	0,007	0,110
-406,540	354,320	0,046	-0,066
-405,525	427,417	-0,006	0,010
-404,511	143,122	-0,026	-0,025
-403,496	-200,000	-0,013	0,070
-402,482	47,997	0,052	0,035
-401,467	-200,000	0,023	0,158
-400,452	-200,000	-0,002	-0,065
-399,438	-200,000	-0,004	-0,033
-398,423	80,760	-0,083	0,065
-397,409	-3,080	0,035	-0,018
-396,394	-158,145	-0,092	0,004
-395,379	608,672	0,048	-0,087
-394,365	-200,000	0,009	0,126
-393,350	-37,120	0,061	0,024
-392,336	-200,000	-0,026	0,126
-391,321	-200,000	-0,004	0,024
-390,306	800,000	-0,065	-0,144
-389,292	-66,521	0,031	-0,009
-388,277	-90,531	0,111	0,023
-387,263	-200,000	-0,005	-0,036
-386,248	202,326	0,121	0,136
-385,233	-49,474	0,052	-0,018
-384,219	532,924	0,044	0,075
-383,204	20,028	-0,093	-0,054
-382,190	-1,135	0,158	0,081
-381,175	-6,796	-0,080	-0,039
-380,160	11,931	-0,032	-0,018
-379,146	800,000	0,039	0,079
-378,131	340,951	0,030	0,043
-377,117	34,793	-0,065	-0,041
-376,102	-200,000	-0,007	-0,179
-375,088	-200,000	0,011	0,055
-374,073	-200,000	0,021	-0,101
-373,058	800,000	0,018	-0,043
-372,044	-178,932	0,111	0,002
-371,029	-155,709	0,107	-0,005
-370,015	15,166	-0,101	0,057
-369,000	-37,529	-0,106	-0,041
-367,985	477,741	-0,045	-0,074
-366,971	-189,979	-0,089	0,001
-365,956	-140,266	-0,054	-0,004
-364,942	631,780	0,052	0,097
-363,927	-200,000	0,056	0,000
-362,912	-143,844	-0,148	0,010
-361,898	-200,000	0,014	0,056
-360,883	-200,000	-0,004	0,020
-359,869	-200,000	0,007	0,045
-358,854	-200,000	0,007	0,085
-357,839	446,835	-0,024	-0,039
-356,825	669,952	0,069	-0,130
-355,810	800,000	0,039	-0,119
-354,796	-200,000	0,003	0,038
-353,781	-200,000	-0,000	-0,025
-352,766	130,311	0,096	0,089
-351,752	12,515	0,113	0,063
-350,737	-200,000	0,006	0,056
-349,723	800,000	-0,046	-0,113
-348,708	39,697	0,126	0,082
-347,693	160,175	-0,129	0,131
-346,679	-200,000	-0,007	0,028
-345,664	33,940	-0,076	-0,048
-344,650	51,966	0,040	-0,027
-343,635	-200,000	0,019	0,094
-342,620	80,854	-0,065	0,051
-341,606	-72,387	-0,140	0,037
-340,591	-200,000	0,017	0,056
-339,577	-56,417	0,081	0,026
-338,562	-88,810	-0,107	-0,023
-337,548	-126,160	-0,084	0,009
-336,533	-36,442	-0,151	-0,059
-335,518	17,939	0,051	0,030
-334,504	425,700	-0,055	0,086
-333,489	-20,472	-0,062	-0,028
-332,475	800,000	-0,044	-0,091
-331,460	-73,950	0,127	-0,033
-330,445	4,473	-0,136	-0,072
-329,431	800,000	0,018	-0,052
-328,416	-98,764	0,033	-0,006
-327,402	599,269	0,029	-0,052
-326,387	102,996	-0,019	0,016
-325,372	133,674	-0,082	-0,077
-324,358	-61,809	-0,154	0,047
-323,343	-37,505	-0,058	0,022
-322,329	-117,948	0,083	0,011
-321,314	183,035	0,098	0,105
-320,299	-41,737	-0,103	0,038
-319,285	-200,000	0,017	0,131
-318,270	177,193	-0,098	0,104
-317,256	-124,137	0,095	0,011
-316,241	234,690	0,043	-0,051
-315,226	143,248	-0,033	-0,032
-314,212	800,000	0,036	-0,076
-313,197	196,645	0,008	-0,008
-312,183	506,751	-0,058	-0,098
-311,168	800,000	-0,027	-0,065
-310,153	-200,000	-0,034	-0,193
-309,139	770,463	0,024	-0,048
-308,124	-200,000	-0,003	-0,013
-307,110	-2,088	0,166	0,084
-306,095	-54,225	-0,038	-0,012
-305,080	193,400	-0,091	0,100
-304,066	251,710	-0,091	-0,113
-303,051	754,925	-0,061	-0,121
-302,037	-41,046	-0,143	-0,053
-301,022	151,551	-0,066	-0,066
-300,008	-168,055	0,131	-0,004
-298,993	82,807	0,087	0,068
-297,978	-126,897	0,076	0,008
-296,964	800,000	0,075	-0,153
-295,949	176,027	0,082	-0,087
-294,935	-200,000	0,001	0,015
-293,920	238,923	0,039	-0,047
-292,905	-200,000	0,021	0,080
-291,891	126,238	0,160	0,147
-290,876	800,000	-0,017	-0,048
-289,862	-182,979	-0,141	-0,002
-288,847	31,060	-0,047	-0,029
-287,832	297,919	-0,044	0,059
-286,818	-56,073	0,061	0,020
-285,803	15,974	0,025	0,014
-284,789	-200,000	-0,011	0,127
-283,774	800,000	-0,057	0,144
-282,759	144,975	-0,075	-0,073
-281,745	-87,575	0,139	0,030
-280,730	2,954	-0,113	-0,059
-279,716	-200,000	0,045	-0,163
-278,701	508,577	0,071	0,120
-277,686	-29,277	0,094	-0,039
-276,672	-200,000	0,005	-0,031
-275,657	-127,641	0,070	-0,007
-274,643	147,710	-0,039	-0,038
-273,628	481,045	-0,024	-0,039
-272,613	80,448	0,088	-0,069
-271,599	800,000	-0,042	-0,106
-270,584	800,000	-0,051	-0,139
-269,570	147,704	-0,064	0,063
-268,555	800,000	0,027	0,073
-267,540	9,847	-0,132	-0,072
-266,526	-85,798	-0,167	-0,037
-265,511	-38,769	-0,106	0,040
-264,497	53,154	0,062	-0,043
-263,482	-15,899	0,055	0,025
-262,467	-200,000	0,059	0,198
-261,453	-108,773	-0,013	0,002
-260,438	-200,000	-0,002	-0,069
-259,424	-126,896	0,060	0,006
-258,409	800,000	0,019	0,047
-257,395	-62,117	-0,116	0,035
-256,380	62,506	0,120	0,087
-255,365	-200,000	0,016	-0,105
-254,351	-200,000	-0,003	-0,047
-253,336	-200,000	0,024	-0,100
-252,322	43,794	0,102	-0,067
-251,307	184,943	-0,103	-0,111
-250,292	197,084	-0,083	-0,092
-249,278	-32,447	0,169	-0,068
-248,263	-66,798	0,161	-0,046
-247,249	4,594	-0,050	-0,027
-246,234	-200,000	0,002	-0,051
-245,219	-200,000	0,034	-0,141
-244,205	800,000	-0,066	-0,159
-243,190	-200,000	0,030	-0,106
-242,176	53,601	0,102	-0,071
-241,161	566,929	0,037	0,066
-240,146	391,240	0,099	-0,150
-239,132	626,562	-0,041	-0,076
-238,117	800,000	-0,032	-0,094
-237,103	188,999	-0,079	-0,086
-236,088	800,000	0,052	0,140
-235,073	196,277	0,047	-0,052
-234,059	77,865	-0,090	0,070
-233,044	-200,000	-0,026	0,111
-232,030	-52,828	0,042	-0,014
-231,015	88,734	0,017	-0,014
-230,000	-142,033	-0,060	-0,004
-228,986	-4,589	-0,179	0,089
-227,971	-58,416	0,111	-0,035
-226,957	-140,482	-0,117	0,009
-225,942	53,726	0,014	-0,010
-224,927	210,465	-0,043	0,049
-223,913	-200,000	0,023	-0,082
-222,898	800,000	0,041	0,102
-221,884	223,075	-0,101	0,118
-220,869	-200,000	0,014	0,054
-219,855	-61,220	0,066	-0,020
-218,840	-105,363	0,051	0,008
-217,825	80,200	0,124	0,096
-216,811	-86,686	-0,111	0,024
-215,796	145,581	-0,114	-0,110
-214,782	752,658	0,076	0,149
-213,767	115,762	0,058	-0,051
-212,752	214,354	0,055	-0,063
-211,738	75,260	0,064	0,049
-210,723	-200,000	-0,028	0,297
-209,709	36,792	-0,114	0,073
-208,694	-200,000	-0,013	-0,079
-207,679	127,052	0,046	0,042
-206,665	-103,063	-0,048	0,008
-205,650	73,840	-0,035	0,026
-204,636	-7,639	0,084	0,041
-203,621	115,165	-0,038	-0,033
-202,606	-88,521	-0,180	0,038
-201,592	643,023	-0,044	0,082
-200,577	-129,407	-0,079	-0,008
-199,563	85,746	0,058	0,046
-198,548	-85,596	0,179	0,040
-197,533	678,022	-0,019	-0,036
-196,519	-121,206	-0,045	-0,005
-195,504	-200,000	0,004	-0,019
-194,490	-200,000	-0,024	-0,086
-193,475	-44,072	0,149	0,054
-192,460	35,212	-0,077	-0,048
-191,446	-13,633	0,141	0,066
-190,431	-75,529	-0,153	0,039
-189,417	-200,000	-0,013	-0,139
-188,402	193,198	-0,077	0,084
-187,387	-56,978	-0,086	0,027
-186,373	-13,244	0,111	-0,052
-185,358	111,980	-0,084	-0,074
-184,344	-81,026	0,135	0,032
-183,329	308,517	-0,044	0,059
-182,315	800,000	-0,047	-0,109
-181,300	63,061	-0,113	-0,082
-180,285	46,549	0,024	-0,016
-179,271	800,000	-0,052	-0,152
-178,256	511,839	0,064	0,108
-177,242	-57,521	0,116	0,036
-176,227	316,982	-0,013	-0,018
-175,212	800,000	0,062	0,127
-174,198	14,953	-0,028	0,016
-173,183	-200,000	-0,009	-0,082
-172,169	64,356	-0,082	-0,059
-171,154	-200,000	0,008	-0,027
-170,139	-73,154	-0,072	-0,019
-169,125	-200,000	-0,007	0,031
-168,110	561,917	-0,070	0,122
-167,096	-200,000	0,015	0,159
-166,081	-9,861	-0,036	-0,017
-165,066	800,000	-0,028	0,087
-164,052	96,140	-0,080	-0,066
-163,037	-36,219	0,189	0,073
-162,023	32,002	0,124	0,077
-161,008	800,000	0,017	-0,037
-159,993	-200,000	0,012	0,105
-158,979	-150,040	0,072	0,004
-157,964	-65,980	0,073	-0,021
-156,950	-36,763	-0,005	-0,002
-155,935	227,486	-0,013	0,016
-154,920	89,711	0,001	-0,001
-153,906	-100,582	-0,063	-0,011
-152,891	38,788	0,167	-0,107
-151,877	-200,000	-0,007	-0,193
-150,862	465,854	-0,084	-0,136
-149,847	47,667	-0,056	0,038
-148,833	-43,761	0,025	-0,009
-147,818	526,378	0,043	-0,074
-146,804	519,198	0,056	0,095
-145,789	-18,412	0,080	0,036
-144,775	800,000	0,054	-0,117
-143,760	67,284	0,023	0,017
-142,745	800,000	-0,023	-0,057
-141,731	35,928	0,066	0,042
-140,716	-129,522	0,046	0,004
-139,702	800,000	0,026	-0,059
-138,687	114,325	-0,065	0,057
-137,672	-200,000	-0,021	0,079
-136,658	-99,356	-0,119	-0,021
-135,643	800,000	-0,053	-0,139
-134,629	221,983	-0,015	0,018
-133,614	800,000	0,036	0,111
-132,599	335,340	0,028	0,039
-131,585	-200,000	0,033	0,127
-130,570	-200,000	0,002	-0,152
-129,556	349,411	-0,077	-0,109
-128,541	-200,000	0,000	0,068
-127,526	20,477	-0,127	-0,074
-126,512	-200,000	-0,007	-0,030
-125,497	3,995	0,116	0,061
-124,483	-200,000	-0,018	0,079
-123,468	-11,762	0,032	0,015
-122,453	-72,565	0,139	-0,037
-121,439	63,925	-0,058	-0,042
-120,424	330,403	-0,048	-0,067
-119,410	-12,332	0,122	0,057
-118,395	-71,419	0,057	0,015
-117,380	-15,120	0,077	0,035
-116,366	-200,000	-0,010	0,044
-115,351	45,756	0,053	-0,035
-114,337	225,272	0,078	-0,091
-113,322	114,668	0,079	0,069
-112,307	-200,000	-0,017	-0,081
-111,293	-200,000	0,010	-0,104
-110,278	-200,000	-0,001	-0,100
-109,264	-71,588	0,156	-0,042
-108,249	-200,000	-0,040	0,153
-107,234	-109,888	0,044	-0,007
-106,220	-200,000	0,015	0,079
-105,205	-158,603	-0,100	0,004
-104,191	411,606	-0,048	0,073
-103,176	-200,000	-0,003	-0,019
-102,162	800,000	0,058	-0,162
-101,147	-21,366	-0,123	-0,054
-100,132	496,831	0,082	-0,136
-99,118	33,533	-0,078	0,048
-98,103	-200,000	0,008	0,031
-97,089	38,059	-0,070	0,045
-96,074	83,094	0,021	-0,016
-95,059	-200,000	0,022	0,084
-94,045	-200,000	0,009	0,033
-93,030	344,785	-0,047	0,067
-92,016	136,354	-0,090	0,084
-91,001	800,000	-0,006	0,013
-89,986	-200,000	0,009	0,097
-88,972	-35,271	-0,136	-0,053
-87,957	-200,000	0,058	0,279
-86,943	-63,141	0,070	0,021
-85,928	102,342	0,020	0,017
-84,913	-90,632	0,082	0,017
-83,899	53,369	0,101	0,070
-82,884	-90,025	0,074	0,015
-81,870	408,696	0,034	0,051
-80,855	800,000	0,041	0,095
-79,840	356,804	0,105	0,151
-78,826	800,000	0,017	-0,041
-77,811	39,954	-0,042	0,027
-76,797	271,970	0,126	0,160
-75,782	-157,835	-0,084	0,004
-74,767	302,745	0,021	0,027
-73,753	-200,000	-0,025	0,102
-72,738	410,989	0,019	-0,030
-71,724	411,603	-0,092	-0,141
-70,709	-94,486	-0,181	0,035
-69,694	-113,120	-0,054	-0,008
-68,680	164,817	-0,043	0,044
-67,665	-200,000	-0,014	0,066
-66,651	-200,000	0,005	0,184
-65,636	-72,522	-0,004	-0,001
-64,622	247,218	0,049	0,059
-63,607	371,975	-0,089	-0,130
-62,592	-164,684	-0,117	0,004
-61,578	100,051	0,071	0,059
-60,563	168,936	0,171	0,175
-59,549	-80,148	-0,161	0,039
-58,534	100,390	-2,614	-2,177
-57,519	-26,489	0,435	-0,182
-56,505	-200,000	-1,652	-5,499
-55,490	399,709	1,294	1,953
-54,476	800,000	5,076	11,245
-53,461	-200,000	22,071	347,224
-52,446	800,000	760,524	2300,047
-51,432	515,316	1647,094	2771,127
-50,417	98,668	1610,882	1333,130
-49,403	66,831	1267,441	924,952
-48,388	23,452	1018,467	599,598
-47,373	19,228	985,469	566,213
-46,359	12,865	972,388	537,851
-45,344	8,675	969,192	522,330
-44,330	9,142	967,032	522,674
-43,315	8,170	965,339	518,562
-42,300	8,086	964,171	517,640
-41,286	8,106	963,235	517,181
-40,271	8,074	962,234	516,520
-39,257	8,112	961,311	516,127
-38,242	8,096	960,367	515,547
-37,227	8,078	959,613	515,064
-36,213	8,066	958,787	514,560
-35,198	8,022	957,986	513,969
-34,184	8,093	957,276	513,796
-33,169	8,107	956,284	513,289
-32,154	8,162	955,290	512,914
-31,140	8,113	954,664	512,399
-30,125	8,177	953,555	511,991
-29,111	8,135	952,876	511,470
-28,096	8,120	952,343	511,115
-27,082	8,120	951,495	510,639
-26,067	8,050	951,017	510,137
-25,052	8,031	950,112	509,571
-24,038	8,109	949,181	509,302
-23,023	8,045	948,789	508,866
-22,009	8,084	948,170	508,638
-20,994	8,060	947,649	508,261
-19,979	8,090	946,925	507,950
-18,965	8,092	945,998	507,439
-17,950	8,146	945,682	507,421
-16,936	8,070	944,885	506,730
-15,921	8,058	944,216	506,313
-14,906	8,006	943,566	505,778
-13,892	8,019	942,954	505,473
-12,877	7,966	942,331	504,948
-11,863	7,965	941,661	504,565
-10,848	7,960	941,220	504,294
-9,833	8,118	940,475	504,379
-8,819	8,010	940,049	503,785
-7,804	8,045	939,153	503,396
-6,790	7,909	938,895	502,808
-5,775	8,026	938,236	502,805
-4,760	8,002	937,765	502,458
-3,746	7,961	937,055	501,928
-2,731	7,875	936,258	501,208
-1,717	7,827	935,660	500,717
-0,702	7,791	935,210	500,342
0,313	7,691	934,296	500,292
1,327	11,142	932,024	509,914
2,342	19,873	780,388	449,846
3,356	14,938	448,691	251,181
4,371	-11,187	313,419	147,597
5,386	-14,781	295,930	135,703
6,400	-16,768	289,765	130,890
7,415	-17,277	286,978	129,118
8,429	-18,045	285,220	127,565
9,444	-18,186	284,134	126,930
10,459	-18,081	283,551	126,761
11,473	-18,061	282,856	126,458
12,488	-17,976	282,609	126,418
13,502	-17,936	282,130	126,232
14,517	-18,101	281,582	125,816
15,531	-18,147	281,171	125,577
16,546	-18,073	280,668	125,412
17,561	-18,093	280,180	125,164
18,575	-18,044	280,102	125,165
19,590	-18,225	279,735	124,816
20,604	-17,996	279,400	124,875
21,619	-18,050	278,767	124,529
22,634	-18,086	278,700	124,454
23,648	-18,241	278,429	124,173
24,663	-18,204	278,109	124,055
25,677	-18,109	277,706	123,955
26,692	-18,040	277,457	123,898
27,707	-17,849	277,031	123,878
28,721	-17,976	276,908	123,692
29,736	-17,982	276,726	123,593
30,750	-17,987	276,411	123,437
31,765	-18,090	276,250	123,257
32,780	-18,055	276,010	123,172
33,794	-18,128	275,787	122,993
34,809	-17,904	275,342	122,994
35,823	-18,055	275,093	122,730
36,838	-17,989	274,718	122,614
37,853	-18,071	274,615	122,480
38,867	-18,048	274,505	122,441
39,882	-17,925	274,021	122,330
40,896	-18,109	273,939	122,110
41,911	-18,152	273,650	121,930
42,926	-18,071	273,407	121,887
43,940	-18,173	273,103	121,645
44,955	-18,089	273,039	121,684
45,969	-17,912	272,591	121,638
46,984	-17,954	272,569	121,579
47,999	-18,020	272,429	121,444
49,013	-17,764	272,208	121,573
50,028	-17,805	271,883	121,379
51,042	-17,901	271,615	121,159
52,057	-17,828	271,343	121,094
53,071	-17,742	271,084	121,047
54,086	-17,807	270,904	120,897
55,101	-17,835	270,777	120,803
56,115	-17,969	270,424	120,511
57,130	-17,959	270,170	120,396
58,144	-18,050	270,054	120,250
59,159	-18,017	269,816	120,164
60,174	-18,064	269,429	119,938
61,188	-18,004	269,257	119,905
62,203	-18,140	269,104	119,701
63,217	-17,961	268,866	119,750
64,232	-18,251	268,695	119,397
65,247	-18,138	268,461	119,385
66,261	-18,032	267,981	119,258
67,276	-18,036	267,935	119,223
68,290	-18,148	267,683	118,999
69,305	-17,779	267,383	119,191
70,320	-17,903	267,183	118,978
71,334	-17,747	266,853	118,963
72,349	-18,126	266,689	118,534
73,363	-17,895	266,456	118,630
74,378	-17,741	266,295	118,688
75,393	-17,927	265,968	118,363
76,407	-17,869	265,828	118,342
77,422	-17,857	265,688	118,281
78,436	-17,866	265,224	118,055
79,451	-18,005	265,141	117,882
80,466	-18,020	264,843	117,726
81,480	-17,903	264,633	117,728
82,495	-17,939	264,601	117,670
83,509	-17,879	264,267	117,565
84,524	-17,887	264,167	117,503
85,539	-17,827	263,962	117,455
86,553	-17,874	263,587	117,235
87,568	-17,901	263,551	117,185
88,582	-17,896	263,181	117,015
89,597	-18,107	263,197	116,822
90,611	-17,922	263,024	116,901
91,626	-17,924	262,801	116,789
92,641	-17,799	262,476	116,746
93,655	-17,927	262,137	116,471
94,670	-17,845	261,918	116,436
95,684	-17,890	261,739	116,306
96,699	-18,144	261,772	116,084
97,714	-17,971	261,499	116,106
98,728	-18,004	261,171	115,921
99,743	-17,784	261,066	116,060
100,757	-17,749	260,873	115,994
101,772	-17,977	260,688	115,699
102,787	-17,942	260,396	115,591
103,801	-17,958	260,058	115,416
104,816	-17,800	259,842	115,450
105,830	-17,942	259,791	115,291
106,845	-17,892	259,596	115,239
107,860	-17,869	259,474	115,194
108,874	-17,854	259,157	115,056
109,889	-18,062	258,940	114,767
110,903	-17,923	258,714	114,779
111,918	-17,912	258,594	114,725
112,933	-17,876	258,294	114,613
113,947	-17,791	258,061	114,574
114,962	-17,873	257,969	114,451
115,976	-17,838	257,828	114,409
116,991	-18,002	257,557	114,135
118,006	-17,785	257,303	114,202
119,020	-17,842	257,249	114,118
120,035	-17,772	256,997	114,058
121,049	-17,991	256,770	113,755
122,064	-17,894	256,628	113,767
123,079	-17,843	256,379	113,690
124,093	-17,761	256,032	113,598
125,108	-17,801	255,970	113,526
126,122	-17,784	255,846	113,475
127,137	-17,876	255,662	113,304
128,151	-17,906	255,678	113,274
129,166	-17,720	255,307	113,261
130,181	-17,659	255,098	113,211
131,195	-17,774	254,812	112,975
132,210	-17,823	254,615	112,836
133,224	-18,006	254,492	112,613
134,239	-17,854	254,249	112,626
135,254	-17,776	253,925	112,539
136,268	-17,780	253,942	112,534
137,283	-17,698	253,612	112,448
138,297	-17,817	253,569	112,317
139,312	-17,795	253,100	112,118
140,327	-17,601	252,998	112,229
141,341	-17,904	252,873	111,904
142,356	-17,929	252,708	111,800
143,370	-18,065	252,583	111,618
144,385	-17,796	252,320	111,722
145,400	-17,780	251,938	111,556
146,414	-17,840	251,775	111,423
147,429	-17,912	251,726	111,330
148,443	-17,793	251,416	111,285
149,458	-17,736	251,248	111,248
150,473	-17,766	251,191	111,187
151,487	-17,576	250,855	111,190
152,502	-17,779	250,701	110,940
153,516	-17,967	250,490	110,677
154,531	-17,887	250,319	110,659
155,546	-17,876	250,125	110,574
156,560	-17,801	249,955	110,552
157,575	-17,594	249,665	110,589
158,589	-17,825	249,786	110,437
159,604	-17,792	249,348	110,261
160,619	-17,773	249,095	110,155
161,633	-17,842	249,156	110,114
162,648	-17,599	248,890	110,192
163,662	-17,822	248,779	109,945
164,677	-17,655	248,590	109,992
165,692	-17,712	248,346	109,827
166,706	-17,702	248,360	109,832
167,721	-17,892	248,153	109,571
168,735	-17,809	247,893	109,516
169,750	-17,826	247,691	109,403
170,764	-17,867	247,727	109,374
171,779	-17,902	247,488	109,230
172,794	-17,771	247,201	109,202
173,808	-17,775	247,077	109,135
174,823	-17,679	246,911	109,132
175,837	-17,703	246,790	109,049
176,852	-17,665	246,545	108,962
177,867	-17,873	246,457	108,741
178,881	-17,796	246,437	108,787
179,896	-17,793	246,016	108,593
180,910	-17,916	245,914	108,436
181,925	-17,727	245,682	108,481
182,940	-17,711	245,526	108,416
183,954	-17,557	245,175	108,379
184,969	-17,657	245,079	108,244
185,983	-17,784	245,011	108,099
186,998	-17,772	244,901	108,050
188,013	-17,855	244,577	107,830
189,027	-17,690	244,487	107,917
190,042	-17,861	244,232	107,654
191,056	-17,740	244,052	107,664
192,071	-17,648	243,893	107,660
193,086	-17,706	243,835	107,577
194,100	-17,720	243,573	107,441
195,115	-17,798	243,427	107,302
196,129	-17,584	243,057	107,305
197,144	-17,806	242,954	107,068
198,159	-17,764	242,863	107,053
199,173	-17,661	242,679	107,047
200,188	-17,583	242,426	106,989
201,202	-17,690	242,342	106,855
202,217	-17,523	242,246	106,940
203,232	-17,362	241,756	106,845
204,246	-17,654	241,836	106,633
205,261	-17,506	241,740	106,702
206,275	-15,919	241,983	108,094
207,290	-11,575	243,716	112,424
208,304	-5,710	245,402	118,029
209,319	-3,186	246,176	120,475
210,334	-2,407	246,284	121,160
211,348	-1,782	246,250	121,648
212,363	-1,323	246,310	122,045
213,377	-0,745	246,373	122,542
214,392	-0,301	246,455	122,938
215,407	0,356	246,373	123,428
216,421	0,228	246,363	123,306
217,436	0,358	246,225	123,333
218,450	0,411	245,900	123,202
219,465	0,621	245,879	123,353
220,480	0,606	245,869	123,325
221,494	0,323	245,653	122,974
222,509	0,013	245,494	122,629
223,523	0,216	245,093	122,584
224,538	-0,029	244,917	122,285
225,553	0,034	244,806	122,270
226,567	-0,065	244,537	122,044
227,582	0,078	244,498	122,130
228,596	0,086	244,226	121,989
229,611	0,013	244,055	121,834
230,626	-0,061	244,035	121,753
231,640	-0,022	243,785	121,649
232,655	-0,193	243,619	121,416
233,669	0,031	243,353	121,455
234,684	0,131	243,117	121,407
235,699	0,118	243,071	121,363
236,713	0,041	242,956	121,232
237,728	0,138	242,767	121,205
238,742	-0,152	242,669	120,911
239,757	-0,056	242,500	120,894
240,772	-0,109	242,322	120,752
241,786	-0,017	242,231	120,770
242,801	0,041	242,051	120,716
243,815	-0,069	241,817	120,500
244,830	0,011	241,576	120,434
245,844	-0,122	241,509	120,282
246,859	0,045	241,236	120,270
247,874	0,057	241,099	120,201
248,888	0,004	240,941	120,069
249,903	-0,041	240,923	120,013
250,917	-0,123	240,985	119,967
251,932	0,007	240,624	119,881
252,947	-0,151	240,580	119,722
253,961	0,102	240,193	119,721
254,976	0,016	239,986	119,539
255,990	0,082	239,861	119,518
257,005	0,061	239,820	119,470
258,020	0,084	239,589	119,363
259,034	-0,035	239,508	119,217
260,049	0,052	239,266	119,155
261,063	-0,160	239,231	118,958
262,078	-0,183	239,038	118,833
263,093	0,132	238,750	118,930
264,107	0,199	238,680	118,937
265,122	-0,021	238,529	118,677
266,136	-0,075	238,390	118,554
267,151	-0,064	238,279	118,497
268,166	-0,016	238,089	118,430
269,180	-0,028	237,861	118,297
270,195	0,127	237,673	118,315
271,209	-0,026	237,565	118,130
272,224	0,088	237,361	118,108
273,239	-0,081	237,371	117,969
274,253	-0,007	237,186	117,925
275,268	-0,034	237,052	117,826
276,282	0,076	236,866	117,811
277,297	0,093	236,598	117,680
278,312	0,086	236,602	117,666
279,326	0,080	236,400	117,550
280,341	0,075	236,322	117,497
281,355	0,055	235,962	117,292
282,370	0,261	235,876	117,401
283,384	0,073	235,726	117,168
284,399	-0,048	235,681	117,040
285,414	0,057	235,516	117,030
286,428	0,087	235,450	117,010
287,443	-0,060	235,150	116,736
288,457	-0,030	235,186	116,767
289,472	0,021	234,852	116,630
290,487	0,266	234,741	116,756
291,501	0,006	234,575	116,461
292,516	0,178	234,480	116,536
293,530	0,084	234,325	116,376
294,545	0,277	234,342	116,525
295,560	0,183	234,053	116,297
296,574	0,155	233,770	116,124
297,589	0,228	233,725	116,148
298,603	0,084	233,578	115,953
299,618	0,172	233,402	115,924
300,633	0,382	233,255	116,003
301,647	0,305	233,187	115,899
302,662	0,334	233,096	115,866
303,676	0,083	232,890	115,559
304,691	0,437	232,642	115,699
305,706	0,251	232,610	115,530
306,720	0,352	232,435	115,510
307,735	0,288	232,303	115,385
308,749	0,339	232,202	115,363
309,764	0,389	231,978	115,281
310,779	0,398	231,871	115,224
311,793	0,112	231,785	114,951
312,808	0,376	231,514	115,009
313,822	0,324	231,371	114,888
314,837	0,335	231,209	114,806
315,852	0,430	231,087	114,808
316,866	0,593	230,809	114,784
317,881	0,427	230,845	114,665
318,895	0,387	230,641	114,523
319,910	0,164	230,556	114,300
320,925	0,361	230,275	114,300
321,939	0,293	230,151	114,177
322,954	0,342	230,064	114,161
323,968	0,409	229,955	114,148
324,983	0,565	229,877	114,218
325,997	0,024	229,707	113,711
327,012	0,415	229,459	113,876
328,027	0,444	229,293	113,805
329,041	0,524	229,056	113,738
330,056	0,564	228,923	113,692
331,070	0,378	228,906	113,533
332,085	0,452	228,653	113,453
333,100	0,441	228,591	113,404
334,114	0,251	228,434	113,172
335,129	0,577	228,191	113,288
336,143	0,456	228,112	113,147
337,158	0,477	227,946	113,071
338,173	0,578	227,837	113,083
339,187	0,445	227,801	112,955
340,202	0,462	227,577	112,846
341,216	0,379	227,446	112,709
342,231	0,386	227,290	112,627
343,246	0,614	227,204	112,746
344,260	0,633	227,011	112,654
345,275	0,430	226,962	112,467
346,289	0,543	226,725	112,425
347,304	0,704	226,656	112,501
348,319	0,654	226,240	112,246
349,333	0,769	226,134	112,270
350,348	0,380	226,158	111,981
351,362	0,938	225,853	112,237
352,377	0,606	225,781	111,943
353,392	0,707	225,779	112,007
354,406	0,513	225,695	111,811
355,421	193,244	1312,261	1381,373
356,435	154,840	1444,494	1381,206
