DTS Sentinel unit serial number:	SN410029Multiplexer serial number:	ORYXHardware model number:	OX2-SRSoftware version number:	ORYX F/W v4,00 Oryx Data Collector v3.7.2.0data status	okinstallation	B5 Nyhavnadifferential loss correction	single-endedforward channel	channel 2reverse channel	N/Adate	2023/12/14time	09:07:13forward acquisition time	300,00reverse acquisition time	0,00gamma	499,1914k internal	0,3161k external	0,3161temperature offset calibration	1,0000default loss term (dB/km)	0,3820temperature slope calibration	1,0000multiplexer offset coefficient	1,0000multiplexer slope coefficient	1,0000fibre end	0,00T internal ref (°C)	7,00T ext. ref 1 (°C)	-9,20T ext. ref 2 (°C)	-9,26length (m)	temperature (°C)	Stokes	anti-Stokes-744,400	800,000	0,055	0,134
-743,385	-173,502	-0,401	0,009
-742,371	-28,932	0,243	0,102
-741,356	-176,260	-0,452	0,008
-740,342	144,689	0,225	0,222
-739,327	-43,548	-0,418	-0,155
-738,312	-200,000	0,002	0,120
-737,298	-39,012	-0,384	-0,148
-736,283	97,080	0,105	0,089
-735,269	-101,863	-0,327	-0,058
-734,254	179,054	0,166	0,179
-733,239	40,807	-0,392	-0,260
-732,225	39,551	0,183	0,120
-731,210	800,000	0,026	0,081
-730,196	800,000	-0,012	0,034
-729,181	800,000	-0,043	-0,094
-728,167	294,205	-0,083	-0,111
-727,152	-200,000	0,002	-0,010
-726,137	-46,483	-0,082	-0,029
-725,123	380,224	-0,029	-0,043
-724,108	-39,562	-0,125	0,048
-723,094	-127,308	-0,114	-0,012
-722,079	-1,252	0,046	0,024
-721,064	-0,696	-0,043	0,022
-720,050	800,000	0,041	0,116
-719,035	-67,818	0,138	0,039
-718,021	-200,000	-0,005	-0,058
-717,006	-89,746	0,067	0,014
-715,991	800,000	-0,075	-0,191
-714,977	97,332	-0,094	-0,080
-713,962	237,860	-0,033	-0,040
-712,948	-146,758	-0,075	0,005
-711,933	-200,000	0,012	0,152
-710,918	-200,000	0,002	-0,155
-709,904	234,694	-0,049	-0,059
-708,889	44,156	-0,127	-0,085
-707,875	800,000	-0,055	-0,115
-706,860	800,000	0,039	-0,100
-705,845	16,980	-0,043	0,025
-704,831	-13,270	0,062	0,030
-703,816	388,300	0,012	0,018
-702,802	-36,503	-0,033	0,013
-701,787	384,918	-0,035	0,054
-700,772	-200,000	-0,001	-0,076
-699,758	88,768	0,036	0,030
-698,743	-200,000	-0,013	0,194
-697,729	-21,223	-0,200	0,089
-696,714	20,054	-0,030	-0,018
-695,699	57,448	0,041	0,029
-694,685	-52,649	-0,075	-0,025
-693,670	-27,453	-0,101	-0,043
-692,656	-7,256	-0,078	0,039
-691,641	258,407	0,038	0,048
-690,627	-200,000	0,023	0,080
-689,612	-200,000	0,024	0,117
-688,597	-200,000	-0,008	-0,082
-687,583	487,796	-0,039	0,065
-686,568	288,984	-0,062	-0,083
-685,554	-39,447	-0,074	-0,028
-684,539	-30,102	0,122	-0,051
-683,524	-39,439	-0,216	-0,083
-682,510	-98,267	0,115	0,021
-681,495	-190,469	-0,131	-0,001
-680,481	328,341	-0,055	0,078
-679,466	-72,797	0,070	-0,019
-678,451	513,570	-0,043	0,074
-677,437	346,006	-0,071	0,102
-676,422	50,130	-0,108	0,075
-675,408	-173,354	0,092	0,002
-674,393	800,000	0,040	0,128
-673,378	357,515	-0,080	-0,117
-672,364	167,590	0,023	-0,025
-671,349	20,258	0,029	-0,017
-670,335	-200,000	0,002	-0,039
-669,320	-200,000	0,011	0,065
-668,305	800,000	0,028	-0,077
-667,291	365,099	0,033	-0,050
-666,276	-34,567	-0,146	0,059
-665,262	107,572	0,054	-0,047
-664,247	-200,000	0,035	0,137
-663,232	756,421	0,061	-0,121
-662,218	69,478	0,022	0,017
-661,203	-180,652	-0,151	0,002
-660,189	712,693	-0,031	0,060
-659,174	249,759	-0,129	0,161
-658,159	-33,472	0,093	0,038
-657,145	99,870	-0,065	0,055
-656,130	333,089	-0,027	0,039
-655,116	-7,511	0,133	0,066
-654,101	143,930	0,134	0,131
-653,086	85,742	-0,095	0,076
-652,072	121,468	-0,033	0,030
-651,057	158,469	-0,075	0,076
-650,043	-200,000	-0,024	0,077
-649,028	-1,509	0,052	-0,027
-648,014	97,780	-0,044	-0,037
-646,999	172,415	0,114	0,120
-645,984	-200,000	-0,027	-0,111
-644,970	-143,936	-0,031	-0,002
-643,955	800,000	0,021	0,051
-642,941	10,120	-0,083	-0,046
-641,926	-133,084	0,125	-0,011
-640,911	113,546	-0,021	0,019
-639,897	79,669	0,084	0,066
-638,882	-7,337	-0,129	-0,064
-637,868	800,000	0,002	-0,004
-636,853	-200,000	-0,012	0,092
-635,838	139,423	-0,069	0,066
-634,824	362,730	-0,060	0,088
-633,809	39,157	0,070	0,046
-632,795	246,850	0,075	0,093
-631,780	-128,043	0,157	-0,016
-630,765	222,657	-0,027	-0,032
-629,751	62,224	-0,027	-0,020
-628,736	206,157	-0,122	-0,139
-627,722	245,410	-0,009	0,011
-626,707	-10,100	0,143	-0,069
-625,692	-200,000	0,021	0,116
-624,678	-20,384	-0,115	-0,052
-623,663	292,723	-0,087	0,116
-622,649	320,873	0,036	0,050
-621,634	800,000	0,016	-0,036
-620,619	-8,845	-0,181	0,089
-619,605	-200,000	0,051	0,181
-618,590	30,013	-0,102	0,063
-617,576	800,000	0,047	0,114
-616,561	238,740	-0,059	0,072
-615,546	-28,232	0,030	-0,012
-614,532	800,000	0,050	0,117
-613,517	221,042	-0,024	-0,028
-612,503	-41,469	0,057	0,021
-611,488	-200,000	0,001	0,055
-610,474	683,494	0,034	0,064
-609,459	800,000	0,021	0,063
-608,444	74,062	0,026	-0,020
-607,430	410,153	0,055	-0,086
-606,415	-200,000	-0,002	0,011
-605,401	-86,981	0,169	0,037
-604,386	360,216	0,069	-0,101
-603,371	-133,339	0,066	-0,006
-602,357	36,247	0,093	0,060
-601,342	-200,000	0,016	-0,157
-600,328	-73,507	-0,113	-0,030
-599,313	568,378	-0,045	0,081
-598,298	144,778	-0,078	-0,076
-597,284	437,780	-0,077	-0,123
-596,269	-200,000	0,001	-0,090
-595,255	-75,678	-0,151	0,039
-594,240	-200,000	0,036	0,183
-593,225	630,994	-0,034	-0,063
-592,211	193,446	-0,034	-0,038
-591,196	404,705	-0,018	-0,028
-590,182	446,016	0,066	-0,107
-589,167	-69,342	0,105	-0,029
-588,152	454,424	-0,087	0,142
-587,138	-38,857	-0,112	0,043
-586,123	-200,000	0,022	-0,161
-585,109	-124,837	0,066	0,007
-584,094	113,621	0,122	0,108
-583,079	185,020	0,032	0,035
-582,065	188,091	-0,050	0,055
-581,050	94,249	0,127	0,106
-580,036	-200,000	-0,008	0,045
-579,021	-200,000	-0,006	-0,093
-578,006	0,850	-0,105	0,055
-576,992	46,469	0,078	-0,053
-575,977	-200,000	-0,008	0,032
-574,963	-2,947	0,105	-0,054
-573,948	-31,471	-0,088	0,036
-572,934	216,909	0,081	-0,094
-571,919	174,627	-0,129	-0,137
-570,904	263,937	0,057	0,073
-569,890	-2,398	0,005	-0,003
-568,875	467,829	0,018	-0,029
-567,861	-61,328	0,030	0,009
-566,846	-200,000	-0,004	-0,049
-565,831	50,656	-0,045	-0,031
-564,817	-59,702	-0,165	0,051
-563,802	-47,762	-0,102	0,036
-562,788	502,070	0,038	-0,065
-561,773	210,070	-0,049	0,056
-560,758	195,691	-0,038	-0,042
-559,744	-200,000	0,006	-0,029
-558,729	-146,162	-0,026	-0,002
-557,715	-30,875	0,100	-0,041
-556,700	34,378	0,152	0,097
-555,685	-70,164	-0,095	-0,026
-554,671	-103,083	0,119	0,020
-553,656	-200,000	-0,003	-0,061
-552,642	23,327	0,100	0,060
-551,627	-56,218	0,070	-0,023
-550,612	-64,942	0,133	-0,039
-549,598	-200,000	-0,018	-0,201
-548,583	-200,000	0,040	-0,141
-547,569	800,000	0,045	-0,112
-546,554	310,654	0,113	-0,156
-545,539	800,000	0,044	-0,088
-544,525	5,338	-0,049	-0,026
-543,510	800,000	0,085	-0,177
-542,496	421,338	-0,048	-0,075
-541,481	-69,235	0,155	-0,043
-540,466	-51,600	-0,081	0,027
-539,452	178,519	0,093	-0,099
-538,437	764,075	0,075	0,149
-537,423	-200,000	0,013	0,128
-536,408	-16,583	-0,095	-0,044
-535,393	-37,391	-0,202	-0,078
-534,379	-23,442	-0,097	-0,043
-533,364	-49,104	-0,079	-0,027
-532,350	35,799	0,154	-0,099
-531,335	85,747	-0,076	-0,061
-530,321	800,000	-0,068	0,146
-529,306	-79,200	-0,025	0,006
-528,291	800,000	0,012	-0,030
-527,277	-112,160	-0,051	-0,007
-526,262	472,192	-0,080	0,132
-525,248	-200,000	0,040	0,146
-524,233	145,132	0,138	0,135
-523,218	106,813	-0,060	0,052
-522,204	-53,490	-0,083	-0,028
-521,189	49,997	-0,015	-0,010
-520,175	250,203	0,039	-0,048
-519,160	-200,000	-0,004	0,076
-518,145	287,120	0,033	0,044
-517,131	-113,629	-0,026	0,004
-516,116	800,000	0,008	-0,019
-515,102	179,259	0,127	-0,136
-514,087	-26,808	-0,177	-0,075
-513,072	435,350	-0,050	-0,080
-512,058	-200,000	0,004	-0,028
-511,043	430,542	-0,038	0,061
-510,029	-200,000	0,021	-0,073
-509,014	800,000	0,013	-0,037
-507,999	-105,246	0,177	0,029
-506,985	209,336	-0,035	-0,040
-505,970	-200,000	0,019	-0,173
-504,956	-95,559	0,100	0,019
-503,941	-200,000	0,003	0,030
-502,926	-22,843	-0,033	-0,014
-501,912	-200,000	0,009	0,071
-500,897	166,503	0,046	0,047
-499,883	-200,000	-0,004	-0,062
-498,868	-35,317	-0,128	-0,051
-497,853	32,552	0,022	0,014
-496,839	-127,191	0,144	-0,015
-495,824	-200,000	-0,017	0,109
-494,810	-33,910	-0,035	-0,014
-493,795	269,569	0,096	0,124
-492,781	800,000	0,005	0,012
-491,766	27,965	-0,126	-0,077
-490,751	-145,138	-0,075	0,005
-489,737	367,278	-0,095	-0,140
-488,722	-200,000	-0,023	0,090
-487,708	-103,166	0,168	-0,029
-486,693	-114,538	-0,021	0,003
-485,678	126,635	-0,085	-0,079
-484,664	250,160	0,085	-0,106
-483,649	-84,084	-0,180	0,041
-482,635	-200,000	0,008	-0,032
-481,620	132,346	-0,049	-0,046
-480,605	561,235	0,043	0,076
-479,591	4,510	-0,008	-0,004
-478,576	-200,000	-0,004	-0,018
-477,562	633,968	-0,015	-0,027
-476,547	-19,352	-0,126	0,057
-475,532	-200,000	-0,002	0,020
-474,518	-131,096	0,071	-0,007
-473,503	-200,000	-0,008	0,105
-472,489	190,440	0,069	-0,076
-471,474	-47,217	0,139	0,049
-470,459	-200,000	0,009	0,035
-469,445	138,809	0,082	-0,079
-468,430	-118,398	0,055	-0,007
-467,416	47,937	-0,070	0,048
-466,401	334,342	0,109	0,154
-465,386	-200,000	-0,001	-0,016
-464,372	417,611	0,002	0,003
-463,357	800,000	-0,031	-0,097
-462,343	-38,825	-0,087	0,033
-461,328	439,041	0,064	-0,103
-460,313	-140,902	0,035	0,003
-459,299	-200,000	0,043	0,149
-458,284	-25,313	0,146	0,063
-457,270	-40,002	0,050	0,019
-456,255	-200,000	0,012	0,082
-455,241	-54,856	0,105	0,034
-454,226	-35,047	0,152	-0,060
-453,211	37,471	0,054	0,035
-452,197	130,734	0,108	0,101
-451,182	-147,459	-0,103	0,006
-450,168	-200,000	0,019	-0,085
-449,153	-69,432	-0,134	0,037
-448,138	210,301	-0,118	0,135
-447,124	-158,129	-0,064	0,003
-446,109	-200,000	-0,020	0,113
-445,095	-113,599	0,118	-0,017
-444,080	107,235	0,034	0,029
-443,065	-68,051	-0,104	0,029
-442,051	-60,029	-0,040	0,012
-441,036	-200,000	0,003	0,025
-440,022	-162,176	0,047	-0,002
-439,007	-200,000	0,006	0,099
-437,992	-133,995	0,060	0,005
-436,978	136,699	0,056	0,054
-435,963	-126,187	0,123	-0,013
-434,949	-115,755	-0,121	0,016
-433,934	-115,853	0,004	-0,000
-432,919	800,000	-0,041	-0,100
-431,905	-200,000	0,010	0,142
-430,890	-64,708	0,143	0,042
-429,876	263,853	-0,058	-0,073
-428,861	-77,757	-0,088	-0,022
-427,846	-62,049	-0,042	-0,013
-426,832	-200,000	0,022	0,107
-425,817	453,828	-0,030	0,049
-424,803	153,987	0,071	-0,071
-423,788	-10,891	-0,137	0,066
-422,773	746,604	-0,028	0,055
-421,759	-140,407	-0,059	0,004
-420,744	-84,946	0,089	-0,020
-419,730	-102,189	0,055	0,009
-418,715	68,297	-0,113	-0,084
-417,701	100,538	0,026	-0,022
-416,686	658,755	0,030	-0,057
-415,671	514,419	0,007	-0,012
-414,657	350,643	0,062	0,089
-413,642	142,229	0,063	-0,061
-412,628	-200,000	0,026	0,122
-411,613	-21,541	-0,073	-0,032
-410,598	800,000	0,042	-0,098
-409,584	-69,535	0,026	-0,007
-408,569	-75,716	0,118	-0,030
-407,555	-85,510	0,044	-0,010
-406,540	143,261	-0,050	0,048
-405,525	800,000	-0,018	-0,054
-404,511	-147,700	0,082	0,005
-403,496	180,674	-0,005	-0,005
-402,482	479,006	0,080	-0,133
-401,467	-200,000	0,011	-0,094
-400,452	-200,000	0,032	0,138
-399,438	800,000	-0,024	0,051
-398,423	136,041	-0,080	-0,076
-397,409	-200,000	-0,018	-0,137
-396,394	68,888	-0,021	0,016
-395,379	118,931	-0,023	-0,021
-394,365	-200,000	-0,016	0,095
-393,350	43,758	-0,035	0,023
-392,336	100,504	-0,072	0,061
-391,321	151,281	-0,027	0,027
-390,306	800,000	-0,033	-0,089
-389,292	-200,000	0,032	-0,154
-388,277	-9,788	-0,137	-0,066
-387,263	114,341	0,109	-0,096
-386,248	-200,000	-0,005	0,073
-385,233	-134,315	-0,084	-0,007
-384,219	-200,000	0,043	-0,145
-383,204	151,638	-0,064	-0,063
-382,190	111,476	0,089	-0,078
-381,175	800,000	-0,024	-0,073
-380,160	12,076	-0,124	-0,069
-379,146	-200,000	0,008	-0,114
-378,131	-47,313	0,092	0,032
-377,117	472,173	0,062	0,103
-376,102	800,000	-0,041	0,092
-375,088	-200,000	0,027	0,152
-374,073	-107,383	-0,189	0,030
-373,058	0,660	0,227	0,118
-372,044	-42,678	0,043	0,016
-371,029	-200,000	0,073	0,256
-370,015	-200,000	0,007	-0,045
-369,000	581,774	0,028	-0,051
-367,985	610,844	0,065	-0,118
-366,971	-48,669	-0,097	-0,034
-365,956	800,000	0,040	0,095
-364,942	-200,000	0,021	0,100
-363,927	632,663	-0,089	0,164
-362,912	430,821	0,029	-0,045
-361,898	251,890	-0,071	0,088
-360,883	21,974	0,092	-0,054
-359,869	347,785	-0,034	-0,049
-358,854	-40,386	0,131	0,049
-357,839	-200,000	0,006	0,138
-356,825	83,366	0,097	-0,076
-355,810	94,540	-0,019	0,016
-354,796	56,234	0,088	0,062
-353,781	800,000	-0,061	-0,167
-352,766	214,443	0,020	-0,023
-351,752	488,614	0,045	0,075
-350,737	-96,436	0,094	0,018
-349,723	-200,000	-0,026	0,129
-348,708	800,000	-0,036	0,090
-347,693	-199,314	-0,154	-0,001
-346,679	-120,238	0,135	-0,017
-345,664	-200,000	0,016	-0,165
-344,650	147,336	0,019	0,019
-343,635	353,238	-0,037	0,053
-342,620	-171,677	0,118	0,003
-341,606	-200,000	-0,012	0,061
-340,591	-76,757	-0,166	-0,042
-339,577	-46,003	-0,048	-0,017
-338,562	48,668	-0,132	-0,090
-337,548	239,854	-0,083	0,100
-336,533	677,272	0,083	0,156
-335,518	-200,000	0,050	0,172
-334,504	-104,703	0,068	-0,011
-333,489	233,703	0,103	0,123
-332,475	-200,000	-0,011	-0,102
-331,460	-200,000	0,008	-0,102
-330,445	65,013	-0,157	-0,114
-329,431	799,826	0,053	0,107
-328,416	39,103	0,040	-0,026
-327,402	-12,832	0,128	-0,060
-326,387	-81,771	0,034	-0,008
-325,372	-69,004	-0,070	0,020
-324,358	800,000	0,010	-0,030
-323,343	-200,000	0,039	-0,139
-322,329	-101,792	0,063	-0,011
-321,314	-72,742	0,143	0,038
-320,299	-119,941	0,085	-0,010
-319,285	-143,865	-0,113	0,008
-318,270	-200,000	-0,030	0,110
-317,256	-200,000	-0,001	-0,066
-316,241	77,161	-0,031	-0,024
-315,226	-38,585	0,181	0,069
-314,212	800,000	0,039	0,114
-313,197	-1,338	-0,056	0,028
-312,183	800,000	-0,068	0,145
-311,168	117,233	0,080	-0,071
-310,153	800,000	-0,020	-0,061
-309,139	-200,000	0,005	-0,073
-308,124	-200,000	0,012	-0,177
-307,110	229,184	0,022	0,026
-306,095	800,000	-0,026	0,064
-305,080	-200,000	0,001	0,153
-304,066	690,824	-0,030	-0,056
-303,051	301,143	0,057	0,077
-302,037	-121,552	-0,132	0,016
-301,022	-37,777	0,056	-0,022
-300,008	-69,393	-0,057	0,016
-298,993	-200,000	0,016	-0,061
-297,978	-200,000	0,010	0,148
-296,964	62,121	-0,149	-0,107
-295,949	26,137	-0,071	0,043
-294,935	-54,320	-0,076	-0,025
-293,920	5,082	0,028	-0,015
-292,905	125,661	0,192	0,175
-291,891	-54,797	-0,057	0,018
-290,876	61,813	-0,043	0,031
-289,862	-136,990	-0,105	0,009
-288,847	-200,000	-0,032	-0,145
-287,832	15,698	0,090	0,051
-286,818	-200,000	-0,017	-0,099
-285,803	-17,916	0,034	-0,015
-284,789	5,480	0,071	0,038
-283,774	-56,230	-0,192	-0,061
-282,759	36,759	-0,066	0,042
-281,745	2,766	-0,129	0,067
-280,730	800,000	0,015	0,035
-279,716	381,119	0,042	-0,062
-278,701	-87,949	0,120	-0,026
-277,686	-200,000	0,007	0,086
-276,672	-200,000	0,003	0,136
-275,657	-86,600	-0,130	0,029
-274,643	-200,000	-0,023	-0,160
-273,628	-151,734	0,054	-0,003
-272,613	339,050	-0,061	0,085
-271,599	-30,735	-0,056	-0,023
-270,584	467,340	0,034	0,055
-269,570	-200,000	0,051	0,225
-268,555	118,598	-0,063	0,056
-267,540	-138,938	-0,140	-0,011
-266,526	37,724	-0,043	-0,028
-265,511	800,000	-0,030	-0,062
-264,497	-156,457	0,150	0,007
-263,482	58,868	0,059	-0,042
-262,467	73,803	-0,107	-0,081
-261,453	-200,000	0,005	-0,048
-260,438	-200,000	0,003	0,046
-259,424	129,220	-0,127	-0,117
-258,409	118,447	0,095	-0,085
-257,395	-200,000	-0,003	0,123
-256,380	-200,000	0,028	0,122
-255,365	508,768	-0,040	0,068
-254,351	94,592	-0,047	-0,039
-253,336	5,829	0,063	0,034
-252,322	14,010	-0,032	0,018
-251,307	-200,000	0,004	-0,012
-250,292	-200,000	-0,010	0,041
-249,278	-82,257	-0,096	0,022
-248,263	44,805	0,035	0,023
-247,249	33,013	-0,070	-0,043
-246,234	402,811	-0,055	-0,083
-245,219	-200,000	0,008	-0,087
-244,205	800,000	0,057	-0,115
-243,190	190,978	-0,080	-0,087
-242,176	-13,508	-0,106	0,049
-241,161	31,241	0,045	-0,028
-240,146	-29,689	0,078	0,032
-239,132	156,349	0,006	0,006
-238,117	138,561	-0,053	-0,050
-237,103	-74,792	-0,049	-0,013
-236,088	214,317	0,057	-0,065
-235,073	-200,000	0,008	0,099
-234,059	-102,874	0,177	-0,030
-233,044	390,379	-0,059	0,088
-232,030	-200,000	-0,003	-0,157
-231,015	38,790	0,030	-0,019
-230,000	275,757	-0,138	-0,177
-228,986	-3,156	-0,030	0,015
-227,971	432,323	0,061	0,096
-226,957	-71,177	-0,105	0,028
-225,942	-103,661	-0,093	0,016
-224,927	-164,538	-0,025	-0,001
-223,913	-68,158	-0,140	0,039
-222,898	-51,839	0,083	-0,028
-221,884	277,268	-0,098	-0,126
-220,869	380,705	-0,061	-0,090
-219,855	198,331	0,046	-0,051
-218,840	-200,000	0,001	-0,044
-217,825	-20,027	-0,142	-0,063
-216,811	-36,406	0,146	0,057
-215,796	800,000	-0,041	-0,108
-214,782	478,484	-0,043	0,071
-213,767	-101,616	0,078	0,014
-212,752	48,937	-0,056	-0,038
-211,738	-200,000	-0,009	-0,162
-210,723	-121,038	-0,008	-0,001
-209,709	-7,699	-0,071	-0,035
-208,694	27,601	-0,059	-0,035
-207,679	800,000	0,019	-0,049
-206,665	160,740	0,081	0,082
-205,650	800,000	0,022	0,050
-204,636	-200,000	0,002	0,027
-203,621	-122,280	0,077	-0,009
-202,606	101,002	0,040	-0,034
-201,592	-200,000	0,018	-0,098
-200,577	22,924	-0,101	-0,059
-199,563	23,896	-0,074	-0,044
-198,548	-51,384	0,097	0,033
-197,533	586,465	-0,052	0,092
-196,519	-134,867	0,130	-0,011
-195,504	-8,633	0,043	0,021
-194,490	800,000	-0,044	-0,089
-193,475	-48,603	-0,215	-0,074
-192,460	56,616	0,095	0,067
-191,446	-131,409	0,023	0,002
-190,431	-200,000	0,003	0,038
-189,417	-75,302	-0,146	0,037
-188,402	-120,702	-0,015	-0,002
-187,387	-35,750	0,048	-0,019
-186,373	228,446	-0,064	-0,075
-185,358	-200,000	0,011	0,082
-184,344	732,530	0,034	-0,066
-183,329	785,775	-0,054	0,108
-182,315	-192,018	0,153	0,001
-181,300	800,000	-0,024	0,073
-180,285	-165,200	0,150	-0,005
-179,271	-27,718	0,019	-0,008
-178,256	-17,185	-0,050	-0,023
-177,242	-60,558	0,029	0,009
-176,227	11,137	0,069	0,038
-175,212	467,842	0,056	-0,091
-174,198	101,899	-0,117	0,099
-173,183	2,672	-0,140	-0,073
-172,169	800,000	-0,090	-0,187
-171,154	-58,747	-0,150	0,046
-170,139	374,831	0,083	-0,122
-169,125	259,211	-0,067	0,083
-168,110	-137,395	-0,146	0,012
-167,096	8,108	-0,115	-0,062
-166,081	-82,369	0,075	0,017
-165,066	174,815	0,045	0,047
-164,052	-200,000	0,038	-0,121
-163,037	499,873	-0,092	0,153
-162,023	-61,716	0,095	0,028
-161,008	142,117	-0,034	-0,033
-159,993	278,568	0,015	0,020
-158,979	314,508	-0,075	-0,102
-157,964	282,979	0,089	-0,115
-156,950	105,390	-0,017	0,015
-155,935	369,330	-0,058	0,085
-154,920	800,000	0,011	0,031
-153,906	-37,924	0,126	0,048
-152,891	-133,298	-0,090	0,008
-151,877	-15,943	0,090	-0,041
-150,862	-72,974	0,073	-0,019
-149,847	-124,647	-0,074	-0,008
-148,833	-200,000	-0,001	-0,031
-147,818	-124,702	0,027	0,003
-146,804	294,929	-0,070	-0,092
-145,789	-200,000	0,030	-0,099
-144,775	-200,000	-0,013	0,121
-143,760	-28,969	0,066	-0,027
-142,745	331,129	-0,049	0,069
-141,731	-151,268	0,158	0,008
-140,716	-200,000	0,007	-0,038
-139,702	-200,000	0,015	0,099
-138,687	231,937	0,065	0,077
-137,672	235,294	-0,041	0,049
-136,658	-200,000	-0,009	-0,036
-135,643	-200,000	-0,000	-0,080
-134,629	37,621	-0,048	0,031
-133,614	-116,390	-0,064	0,008
-132,599	-200,000	-0,019	-0,060
-131,585	148,627	-0,065	-0,064
-130,570	116,057	-0,097	-0,085
-129,556	-200,000	0,015	0,106
-128,541	-200,000	0,001	-0,035
-127,526	800,000	0,022	0,066
-126,512	20,799	-0,018	0,010
-125,497	296,290	-0,064	-0,084
-124,483	41,171	0,089	-0,058
-123,468	-200,000	0,017	-0,081
-122,453	82,624	-0,100	-0,078
-121,439	112,137	-0,100	-0,087
-120,424	800,000	0,036	-0,111
-119,410	-114,911	-0,048	-0,007
-118,395	-200,000	-0,008	-0,038
-117,380	-200,000	0,024	0,190
-116,366	-200,000	-0,001	-0,137
-115,351	800,000	-0,026	-0,077
-114,337	-200,000	-0,019	-0,094
-113,322	-200,000	-0,012	-0,100
-112,307	258,001	0,049	0,060
-111,293	-200,000	-0,011	0,104
-110,278	-200,000	-0,002	-0,076
-109,264	-105,703	0,092	0,015
-108,249	473,089	0,079	0,128
-107,234	-72,032	-0,131	-0,035
-106,220	560,999	0,056	-0,098
-105,205	18,070	-0,094	0,054
-104,191	-200,000	-0,000	0,010
-103,176	749,179	0,044	0,086
-102,162	663,945	-0,048	0,089
-101,147	800,000	0,030	0,090
-100,132	-200,000	0,012	0,170
-99,118	712,825	0,040	0,077
-98,103	129,860	-0,089	0,082
-97,089	800,000	-0,032	0,077
-96,074	800,000	0,051	0,101
-95,059	10,123	-0,049	-0,027
-94,045	-104,711	-0,083	-0,014
-93,030	-120,658	-0,149	0,018
-92,016	-84,490	0,187	0,042
-91,001	87,300	-0,027	0,021
-89,986	-200,000	0,029	0,169
-88,972	552,631	0,095	0,164
-87,957	177,180	0,042	0,044
-86,943	9,836	-0,030	-0,016
-85,928	114,615	0,074	-0,065
-84,913	468,718	0,062	-0,100
-83,899	-200,000	-0,019	-0,093
-82,884	15,184	-0,065	0,037
-81,870	-104,814	-0,034	0,005
-80,855	299,518	0,073	0,096
-79,840	800,000	-0,042	-0,088
-78,826	295,550	0,027	0,036
-77,811	-5,855	0,134	-0,065
-76,797	-187,118	0,106	-0,001
-75,782	800,000	-0,025	0,056
-74,767	-200,000	-0,013	0,100
-73,753	800,000	-0,028	-0,059
-72,738	800,000	-0,028	-0,085
-71,724	334,630	0,110	-0,153
-70,709	-62,581	0,019	0,006
-69,694	60,129	-0,126	-0,089
-68,680	800,000	-0,024	-0,048
-67,665	-43,062	0,097	0,035
-66,651	800,000	0,075	0,157
-65,636	800,000	0,025	-0,051
-64,622	23,521	-0,212	-0,125
-63,607	800,000	0,055	-0,137
-62,592	87,954	-0,049	-0,039
-61,578	-200,000	0,006	0,037
-60,563	31,915	0,101	0,062
-59,549	41,499	-0,075	-0,049
-58,534	103,016	-2,717	-2,282
-57,519	-106,494	0,385	-0,061
-56,505	-200,000	-1,734	-5,629
-55,490	710,123	1,192	2,272
-54,476	800,000	5,197	11,142
-53,461	-200,000	23,054	348,167
-52,446	800,000	765,763	2263,194
-51,432	496,791	1642,897	2719,074
-50,417	93,054	1598,717	1294,587
-49,403	60,663	1253,623	889,331
-48,388	21,081	1005,929	583,551
-47,373	18,410	973,728	556,137
-46,359	11,834	960,534	527,328
-45,344	7,697	957,339	512,166
-44,330	8,022	955,216	512,062
-43,315	7,095	953,357	508,053
-42,300	6,981	952,403	507,155
-41,286	7,028	951,341	506,722
-40,271	7,136	950,116	506,398
-39,257	7,089	949,362	505,823
-38,242	7,032	948,511	505,166
-37,227	7,034	947,830	504,790
-36,213	7,003	947,095	504,280
-35,198	7,030	946,064	503,797
-34,184	7,057	945,476	503,549
-33,169	7,012	944,498	502,865
-32,154	7,074	943,661	502,600
-31,140	7,036	942,751	501,973
-30,125	7,091	941,938	501,696
-29,111	7,026	941,295	501,127
-28,096	7,048	940,650	500,832
-27,082	7,041	939,989	500,438
-26,067	7,066	939,242	500,100
-25,052	7,030	938,358	499,496
-24,038	7,039	937,696	499,153
-23,023	6,953	937,165	498,577
-22,009	7,052	936,526	498,532
-20,994	7,071	935,751	498,158
-19,979	7,085	935,079	497,827
-18,965	7,066	934,581	497,481
-17,950	7,008	934,172	497,058
-16,936	7,037	933,412	496,726
-15,921	7,013	932,719	496,262
-14,906	6,937	932,180	495,716
-13,892	6,924	931,420	495,251
-12,877	6,902	930,670	494,763
-11,863	6,875	930,180	494,397
-10,848	6,868	929,849	494,182
-9,833	7,034	929,099	494,286
-8,819	6,915	928,569	493,608
-7,804	6,894	928,012	493,229
-6,790	6,877	927,328	492,790
-5,775	6,931	926,819	492,669
-4,760	6,950	926,123	492,340
-3,746	6,915	925,564	491,914
-2,731	6,798	924,753	491,097
-1,717	6,755	924,230	490,667
-0,702	6,794	923,616	490,444
0,313	6,555	923,022	490,120
1,327	10,003	920,455	499,452
2,342	18,526	769,669	439,672
3,356	13,374	442,683	245,197
4,371	-12,401	310,276	144,656
5,386	-16,070	293,128	132,966
6,400	-18,248	287,118	128,085
7,415	-18,419	284,372	126,682
8,429	-19,121	282,551	125,180
9,444	-19,124	281,704	124,791
10,459	-19,112	280,982	124,471
11,473	-19,116	280,427	124,211
12,488	-19,086	280,055	124,064
13,502	-19,192	279,606	123,753
14,517	-19,037	279,272	123,742
15,531	-18,966	278,693	123,542
16,546	-18,851	278,251	123,444
17,561	-18,834	277,789	123,245
18,575	-18,814	277,609	123,173
19,590	-18,890	277,072	122,851
20,604	-18,802	277,020	122,901
21,619	-19,009	276,639	122,525
22,634	-18,831	276,302	122,533
23,648	-18,899	275,986	122,318
24,663	-18,894	275,680	122,175
25,677	-19,075	275,523	121,924
26,692	-18,984	275,187	121,851
27,707	-18,913	274,886	121,773
28,721	-18,871	274,537	121,647
29,736	-18,890	274,371	121,545
30,750	-18,926	273,994	121,334
31,765	-18,926	273,814	121,244
32,780	-18,821	273,653	121,259
33,794	-18,996	273,286	120,922
34,809	-18,789	273,068	121,009
35,823	-19,086	272,846	120,623
36,838	-18,691	272,481	120,818
37,853	-18,991	272,299	120,447
38,867	-18,898	272,112	120,440
39,882	-18,837	271,833	120,363
40,896	-18,776	271,611	120,310
41,911	-18,801	271,214	120,101
42,926	-18,908	271,133	119,954
43,940	-18,943	270,760	119,747
44,955	-18,963	270,613	119,652
45,969	-18,660	270,303	119,785
46,984	-18,750	270,180	119,637
47,999	-18,608	269,997	119,676
49,013	-18,629	269,818	119,566
50,028	-18,718	269,587	119,371
51,042	-18,698	269,415	119,304
52,057	-18,713	269,089	119,134
53,071	-18,802	268,966	118,987
54,086	-18,755	268,559	118,840
55,101	-18,733	268,564	118,851
56,115	-18,706	268,238	118,721
57,130	-18,908	267,887	118,371
58,144	-18,793	267,542	118,313
59,159	-18,909	267,478	118,169
60,174	-18,931	267,166	117,999
61,188	-18,793	266,919	118,006
62,203	-19,030	266,762	117,710
63,217	-18,712	266,388	117,824
64,232	-18,697	266,070	117,686
65,247	-18,927	265,982	117,428
66,261	-18,898	265,713	117,325
67,276	-18,712	265,469	117,375
68,290	-18,987	265,391	117,082
69,305	-18,757	265,128	117,162
70,320	-18,795	264,838	116,991
71,334	-18,914	264,675	116,800
72,349	-18,667	264,250	116,824
73,363	-18,908	264,267	116,604
74,378	-18,864	263,906	116,475
75,393	-18,766	263,682	116,454
76,407	-18,778	263,704	116,442
77,422	-18,853	263,264	116,170
78,436	-18,791	263,121	116,152
79,451	-18,755	262,780	116,024
80,466	-18,787	262,511	115,866
81,480	-18,820	262,461	115,804
82,495	-18,934	262,199	115,576
83,509	-18,855	262,031	115,563
84,524	-18,645	261,723	115,604
85,539	-18,810	261,600	115,392
86,553	-18,594	261,374	115,474
87,568	-18,811	261,069	115,136
88,582	-18,777	260,988	115,120
89,597	-18,869	260,734	114,917
90,611	-18,825	260,708	114,934
91,626	-18,662	260,319	114,896
92,641	-18,836	260,167	114,665
93,655	-18,789	259,955	114,603
94,670	-18,951	259,697	114,336
95,684	-18,878	259,439	114,276
96,699	-18,736	259,264	114,315
97,714	-18,692	258,991	114,222
98,728	-18,668	258,809	114,153
99,743	-18,716	258,734	114,068
100,757	-18,509	258,493	114,133
101,772	-18,709	258,215	113,825
102,787	-18,688	258,042	113,757
103,801	-18,999	257,859	113,394
104,816	-18,699	257,663	113,559
105,830	-18,843	257,521	113,361
106,845	-18,679	257,194	113,350
107,860	-18,524	257,033	113,405
108,874	-18,734	256,768	113,095
109,889	-18,728	256,620	113,024
110,903	-18,852	256,414	112,816
111,918	-18,667	256,146	112,848
112,933	-18,706	255,930	112,709
113,947	-18,658	255,723	112,650
114,962	-18,756	255,514	112,463
115,976	-18,752	255,459	112,432
116,991	-18,694	255,035	112,286
118,006	-18,840	255,041	112,151
119,020	-18,635	254,799	112,212
120,035	-18,828	254,732	112,006
121,049	-18,721	254,474	111,975
122,064	-19,003	254,412	111,695
123,079	-18,807	254,056	111,697
124,093	-18,662	253,887	111,738
125,108	-18,858	253,707	111,479
126,122	-18,653	253,605	111,602
127,137	-18,577	253,324	111,533
128,151	-18,752	253,285	111,356
129,166	-18,696	252,966	111,253
130,181	-18,615	252,676	111,186
131,195	-18,747	252,504	110,987
132,210	-18,746	252,335	110,904
133,224	-18,690	252,139	110,855
134,239	-18,636	251,991	110,827
135,254	-18,782	251,679	110,555
136,268	-18,592	251,416	110,592
137,283	-18,537	251,324	110,588
138,297	-18,478	250,934	110,457
139,312	-18,619	250,810	110,273
140,327	-18,639	250,655	110,178
141,341	-18,695	250,377	109,998
142,356	-18,656	250,239	109,961
143,370	-18,778	250,071	109,774
144,385	-18,581	249,861	109,839
145,400	-18,866	249,722	109,526
146,414	-18,655	249,429	109,567
147,429	-18,765	249,411	109,456
148,443	-18,705	249,217	109,411
149,458	-18,495	248,890	109,435
150,473	-18,629	248,735	109,244
151,487	-18,815	248,630	109,032
152,502	-18,548	248,412	109,151
153,516	-18,648	248,166	108,949
154,531	-18,698	247,935	108,796
155,546	-18,705	247,828	108,734
156,560	-18,810	247,690	108,576
157,575	-18,482	247,167	108,611
158,589	-18,559	247,074	108,496
159,604	-18,664	247,001	108,367
160,619	-18,746	246,864	108,228
161,633	-18,755	246,629	108,109
162,648	-18,726	246,485	108,059
163,662	-18,652	246,326	108,042
164,677	-18,581	246,218	108,044
165,692	-18,686	246,046	107,871
166,706	-18,674	246,045	107,871
167,721	-18,740	245,655	107,636
168,735	-18,885	245,543	107,457
169,750	-18,613	245,439	107,628
170,764	-18,645	245,359	107,556
171,779	-18,574	245,066	107,477
172,794	-18,729	244,973	107,299
173,808	-18,585	244,647	107,265
174,823	-18,443	244,531	107,322
175,837	-18,519	244,397	107,191
176,852	-18,568	244,119	107,019
177,867	-18,831	243,968	106,727
178,881	-18,662	243,893	106,824
179,896	-18,789	243,752	106,647
180,910	-18,620	243,587	106,704
181,925	-18,515	243,305	106,658
182,940	-18,718	243,167	106,421
183,954	-18,604	242,918	106,396
184,969	-18,748	242,853	106,240
185,983	-18,596	242,700	106,288
186,998	-18,762	242,566	106,084
188,013	-18,612	242,155	106,018
189,027	-18,784	242,078	105,834
190,042	-18,713	241,779	105,752
191,056	-18,717	241,786	105,742
192,071	-18,611	241,425	105,661
193,086	-18,714	241,463	105,584
194,100	-18,738	241,249	105,462
195,115	-18,659	241,014	105,414
196,129	-18,592	240,795	105,363
197,144	-18,575	240,696	105,325
198,159	-18,608	240,397	105,157
199,173	-18,583	240,271	105,114
200,188	-18,470	239,983	105,069
201,202	-18,632	240,027	104,949
202,217	-18,525	239,776	104,915
203,232	-18,510	239,642	104,860
204,246	-18,511	239,361	104,726
205,261	-18,703	239,229	104,504
206,275	-17,376	239,619	105,737
207,290	-12,389	241,340	110,536
208,304	-5,532	243,368	117,058
209,319	-2,400	244,489	120,152
210,334	-1,131	244,573	121,221
211,348	-0,431	244,905	121,948
212,363	0,129	244,585	122,234
213,377	0,283	244,683	122,399
214,392	0,525	244,616	122,551
215,407	0,698	244,565	122,657
216,421	0,869	244,392	122,699
217,436	0,878	244,138	122,567
218,450	0,899	244,158	122,583
219,465	1,102	243,907	122,611
220,480	1,000	243,936	122,532
221,494	0,906	243,562	122,257
222,509	0,586	243,382	121,896
223,523	0,515	243,021	121,647
224,538	0,261	242,811	121,326
225,553	0,469	242,674	121,414
226,567	0,279	242,586	121,205
227,582	0,511	242,380	121,280
228,596	0,269	242,434	121,100
229,611	0,406	242,223	121,095
230,626	0,448	241,951	120,982
231,640	0,314	241,780	120,777
232,655	0,411	241,535	120,722
233,669	0,299	241,392	120,550
234,684	0,359	241,284	120,533
235,699	0,521	241,058	120,540
236,713	0,586	241,051	120,578
237,728	0,448	240,746	120,304
238,742	0,565	240,649	120,339
239,757	0,275	240,560	120,051
240,772	0,305	240,443	120,006
241,786	0,309	240,211	119,882
242,801	0,255	240,015	119,731
243,815	0,474	239,824	119,800
244,830	0,417	239,668	119,665
245,844	0,355	239,623	119,583
246,859	0,303	239,375	119,408
247,874	0,426	239,177	119,396
248,888	0,542	239,020	119,399
249,903	0,374	239,060	119,275
250,917	0,444	238,656	119,118
251,932	0,440	238,668	119,110
252,947	0,405	238,406	118,941
253,961	0,358	238,438	118,909
254,976	0,468	238,079	118,807
255,990	0,374	237,994	118,679
257,005	0,496	237,775	118,656
258,020	0,511	237,763	118,651
259,034	0,273	237,666	118,404
260,049	0,548	237,311	118,434
261,063	0,443	237,062	118,216
262,078	0,305	237,027	118,079
263,093	0,274	236,882	117,972
264,107	0,230	236,750	117,861
265,122	0,474	236,671	118,003
266,136	0,552	236,438	117,938
267,151	0,456	236,236	117,751
268,166	0,351	236,124	117,603
269,180	0,500	235,918	117,606
270,195	0,489	235,812	117,534
271,209	0,391	235,652	117,367
272,224	0,433	235,596	117,362
273,239	0,389	235,372	117,206
274,253	0,289	235,355	117,109
275,268	0,376	235,083	117,031
276,282	0,281	234,900	116,855
277,297	0,397	234,693	116,832
278,312	0,431	234,659	116,831
279,326	0,591	234,471	116,851
280,341	0,494	234,370	116,715
281,355	0,586	234,220	116,702
282,370	0,649	234,086	116,674
283,384	0,569	233,810	116,464
284,399	0,549	233,755	116,410
285,414	0,467	233,530	116,225
286,428	0,452	233,497	116,186
287,443	0,369	233,326	116,026
288,457	0,441	233,236	116,026
289,472	0,685	233,045	116,110
290,487	0,669	232,823	115,977
291,501	0,611	232,709	115,864
292,516	0,635	232,500	115,769
293,530	0,491	232,549	115,672
294,545	0,458	232,385	115,555
295,560	0,690	232,164	115,613
296,574	0,510	231,975	115,370
297,589	0,638	231,772	115,358
298,603	0,786	231,596	115,373
299,618	0,706	231,372	115,189
300,633	0,702	231,303	115,142
301,647	0,761	231,219	115,135
302,662	0,788	231,000	115,036
303,676	0,874	230,980	115,082
304,691	0,723	230,736	114,835
305,706	0,576	230,545	114,617
306,720	0,623	230,518	114,629
307,735	0,990	230,276	114,779
308,749	0,786	230,259	114,605
309,764	0,551	230,136	114,354
310,779	0,719	229,780	114,295
311,793	0,795	229,700	114,302
312,808	0,628	229,545	114,088
313,822	0,742	229,443	114,114
314,837	1,039	229,214	114,215
315,852	0,810	229,032	113,941
316,866	0,956	228,907	113,980
317,881	0,798	228,908	113,850
318,895	0,791	228,739	113,750
319,910	0,813	228,544	113,660
320,925	0,808	228,370	113,559
321,939	0,598	228,264	113,338
322,954	0,612	228,178	113,296
323,968	0,727	227,982	113,275
324,983	0,877	227,880	113,327
325,997	0,727	227,684	113,107
327,012	0,989	227,515	113,210
328,027	0,722	227,382	112,933
329,041	0,783	227,345	112,951
330,056	1,030	227,053	112,980
331,070	0,830	226,987	112,788
332,085	0,834	226,776	112,676
333,100	0,783	226,660	112,570
334,114	0,603	226,505	112,348
335,129	0,526	226,425	112,240
336,143	0,763	226,323	112,357
337,158	0,843	226,162	112,327
338,173	0,875	226,049	112,285
339,187	0,842	225,875	112,164
340,202	0,814	225,693	112,043
341,216	1,041	225,478	112,095
342,231	0,644	225,485	111,792
343,246	0,653	225,231	111,663
344,260	0,816	225,160	111,739
345,275	0,931	225,014	111,743
346,289	0,870	224,870	111,616
347,304	0,963	224,743	111,612
348,319	0,969	224,610	111,540
349,333	0,874	224,319	111,316
350,348	0,979	224,261	111,354
351,362	1,050	224,152	111,343
352,377	1,048	224,085	111,298
353,392	1,041	223,935	111,209
354,406	0,895	223,632	110,941
355,421	191,691	1311,250	1373,763
356,435	153,473	1443,599	1373,580
