DTS Sentinel unit serial number:	SN410029Multiplexer serial number:	ORYXHardware model number:	OX2-SRSoftware version number:	ORYX F/W v4,00 Oryx Data Collector v3.7.2.0data status	okinstallation	B5 Nyhavnadifferential loss correction	single-endedforward channel	channel 2reverse channel	N/Adate	2023/12/11time	18:32:13forward acquisition time	300,00reverse acquisition time	0,00gamma	499,1914k internal	0,3161k external	0,3161temperature offset calibration	1,0000default loss term (dB/km)	0,3820temperature slope calibration	1,0000multiplexer offset coefficient	1,0000multiplexer slope coefficient	1,0000fibre end	0,00T internal ref (°C)	15,23T ext. ref 1 (°C)	-0,35T ext. ref 2 (°C)	-0,61length (m)	temperature (°C)	Stokes	anti-Stokes-744,400	-109,649	-0,135	-0,021
-743,385	-124,855	-0,274	-0,031
-742,371	-200,000	0,008	0,070
-741,356	95,342	-0,179	0,150
-740,342	355,288	0,059	0,086
-739,327	-104,806	-0,393	0,066
-738,312	-74,652	0,021	-0,005
-737,298	-110,839	-0,219	-0,033
-736,283	58,863	0,058	0,042
-735,269	82,639	-0,292	0,234
-734,254	-139,495	0,210	0,016
-733,239	-68,934	-0,478	-0,135
-732,225	-58,327	0,159	-0,051
-731,210	370,323	0,004	0,006
-730,196	-200,000	-0,012	0,071
-729,181	127,989	-0,094	-0,088
-728,167	-200,000	-0,006	0,065
-727,152	-30,193	0,065	-0,027
-726,137	-148,958	-0,037	0,002
-725,123	81,292	-0,075	-0,059
-724,108	38,449	-0,062	-0,041
-723,094	-200,000	0,003	-0,105
-722,079	336,273	-0,069	-0,099
-721,064	-59,324	-0,017	-0,005
-720,050	800,000	-0,024	0,072
-719,035	402,454	-0,103	0,160
-718,021	94,944	-0,052	0,044
-717,006	550,396	-0,069	-0,122
-715,991	30,101	-0,076	-0,048
-714,977	-200,000	-0,022	-0,158
-713,962	-200,000	-0,006	-0,022
-712,948	603,502	-0,024	-0,043
-711,933	134,449	-0,070	0,067
-710,918	-37,151	-0,191	-0,075
-709,904	-78,225	0,034	0,008
-708,889	800,000	-0,072	-0,184
-707,875	-200,000	0,001	0,004
-706,860	-112,993	0,085	0,012
-705,845	800,000	-0,015	-0,037
-704,831	-200,000	-0,001	-0,005
-703,816	-200,000	-0,010	-0,052
-702,802	800,000	-0,034	-0,074
-701,787	84,540	-0,067	-0,054
-700,772	800,000	0,013	0,038
-699,758	-76,918	0,161	-0,041
-698,743	381,311	0,034	0,051
-697,729	457,162	-0,010	-0,016
-696,714	-12,885	0,129	0,061
-695,699	45,316	0,031	0,021
-694,685	800,000	0,039	0,086
-693,670	-200,000	0,004	0,079
-692,656	-200,000	-0,021	-0,086
-691,641	183,502	0,138	0,150
-690,627	582,921	0,048	0,087
-689,612	-200,000	-0,003	0,040
-688,597	-91,701	-0,166	-0,034
-687,583	800,000	0,051	-0,163
-686,568	518,984	0,041	-0,071
-685,554	297,096	-0,094	-0,126
-684,539	-179,820	-0,072	0,001
-683,524	409,971	0,086	0,134
-682,510	-200,000	0,001	0,107
-681,495	170,690	0,027	0,028
-680,481	-5,933	-0,143	-0,071
-679,466	-7,098	-0,059	-0,029
-678,451	100,599	-0,065	-0,055
-677,437	-200,000	-0,019	0,079
-676,422	-86,486	0,009	0,002
-675,408	3,821	-0,083	-0,044
-674,393	181,239	0,088	-0,095
-673,378	81,181	-0,029	0,023
-672,364	-200,000	-0,029	-0,107
-671,349	800,000	-0,082	-0,182
-670,335	-37,156	-0,050	-0,020
-669,320	594,778	-0,054	0,098
-668,305	185,801	-0,044	0,048
-667,291	-200,000	0,039	-0,186
-666,276	321,856	-0,033	0,047
-665,262	-110,495	-0,127	-0,019
-664,247	131,524	-0,064	-0,061
-663,232	11,701	-0,123	0,069
-662,218	165,976	-0,049	0,051
-661,203	800,000	0,041	0,092
-660,189	517,875	-0,060	-0,104
-659,174	41,290	-0,068	-0,045
-658,159	95,872	-0,099	0,083
-657,145	-200,000	0,008	-0,092
-656,130	-30,029	-0,182	-0,076
-655,116	-200,000	-0,001	-0,007
-654,101	42,308	-0,127	-0,085
-653,086	52,338	-0,096	0,067
-652,072	-95,623	-0,095	0,018
-651,057	261,100	0,055	-0,069
-650,043	65,792	0,069	-0,051
-649,028	800,000	-0,032	-0,092
-648,014	131,454	0,079	0,075
-646,999	220,060	-0,031	0,037
-645,984	92,129	0,092	0,076
-644,970	-98,055	0,064	0,012
-643,955	-68,627	-0,040	-0,011
-642,941	800,000	0,047	-0,112
-641,926	-173,541	-0,048	-0,001
-640,911	54,315	-0,045	0,031
-639,897	-100,287	0,087	-0,016
-638,882	24,164	0,066	-0,040
-637,868	-200,000	0,022	0,132
-636,853	713,165	-0,068	-0,133
-635,838	569,191	0,054	-0,097
-634,824	236,295	-0,025	-0,030
-633,809	510,321	-0,047	-0,080
-632,795	473,450	0,051	-0,084
-631,780	-200,000	0,034	-0,129
-630,765	67,541	-0,013	-0,010
-629,751	102,385	0,056	-0,048
-628,736	-161,950	0,019	0,001
-627,722	186,150	-0,024	-0,027
-626,707	-129,171	0,006	0,001
-625,692	111,778	0,030	0,026
-624,678	-200,000	0,002	0,051
-623,663	-200,000	0,035	0,235
-622,649	785,121	0,049	-0,099
-621,634	-200,000	0,023	-0,146
-620,619	150,612	-0,067	-0,067
-619,605	9,655	0,093	-0,051
-618,590	-62,216	0,011	-0,003
-617,576	-200,000	-0,004	-0,043
-616,561	-200,000	-0,012	-0,058
-615,546	-200,000	-0,017	-0,121
-614,532	73,774	0,082	-0,063
-613,517	800,000	-0,079	-0,189
-612,503	48,331	0,034	-0,024
-611,488	800,000	-0,027	0,059
-610,474	-67,783	-0,146	-0,042
-609,459	-45,360	-0,093	0,034
-608,444	-120,376	0,046	-0,006
-607,430	-200,000	-0,027	-0,157
-606,415	484,464	-0,057	0,095
-605,401	800,000	-0,009	-0,024
-604,386	800,000	-0,025	-0,078
-603,371	386,646	-0,045	0,068
-602,357	-95,485	-0,009	-0,002
-601,342	110,950	-0,030	0,026
-600,328	353,165	-0,032	0,047
-599,313	143,116	0,091	-0,088
-598,298	46,862	0,088	-0,060
-597,284	-200,000	0,014	-0,124
-596,269	314,013	0,049	0,068
-595,255	112,335	0,042	0,037
-594,240	-200,000	-0,010	0,070
-593,225	-130,113	0,041	-0,004
-592,211	423,601	-0,025	-0,039
-591,196	800,000	-0,038	0,117
-590,182	46,416	0,075	-0,051
-589,167	415,073	0,043	-0,067
-588,152	90,711	-0,057	0,047
-587,138	311,408	0,023	-0,031
-586,123	-200,000	0,015	-0,193
-585,109	335,220	-0,107	0,152
-584,094	-72,976	-0,096	-0,026
-583,079	-64,488	0,062	-0,018
-582,065	-200,000	0,039	-0,150
-581,050	-200,000	0,016	-0,086
-580,036	800,000	0,040	0,104
-579,021	18,608	-0,139	-0,081
-578,006	-153,074	0,038	-0,002
-576,992	-123,062	0,101	-0,012
-575,977	800,000	0,028	-0,066
-574,963	-116,060	0,149	-0,020
-573,948	120,178	0,099	-0,090
-572,934	214,633	0,027	-0,032
-571,919	179,151	-0,050	0,054
-570,904	330,544	-0,019	-0,027
-569,890	800,000	-0,061	-0,192
-568,875	800,000	-0,075	-0,183
-567,861	-152,609	-0,032	0,002
-566,846	87,106	0,057	0,046
-565,831	800,000	-0,044	0,129
-564,817	-200,000	-0,011	-0,078
-563,802	242,231	-0,072	0,089
-562,788	-200,000	-0,002	-0,062
-561,773	800,000	0,050	-0,108
-560,758	-200,000	0,001	-0,005
-559,744	-200,000	-0,009	-0,057
-558,729	214,324	0,124	-0,143
-557,715	-200,000	0,025	-0,082
-556,700	22,445	-0,040	-0,024
-555,685	-59,440	0,052	-0,016
-554,671	719,746	0,041	-0,081
-553,656	19,797	0,142	0,083
-552,642	-89,429	0,077	-0,016
-551,627	-200,000	-0,005	0,085
-550,612	-65,067	0,052	-0,015
-549,598	-200,000	-0,010	-0,033
-548,583	-68,208	-0,025	-0,007
-547,569	-6,580	-0,034	0,017
-546,554	-200,000	0,008	-0,033
-545,539	69,210	-0,141	0,106
-544,525	27,324	0,117	0,072
-543,510	800,000	-0,058	0,129
-542,496	-200,000	-0,018	-0,135
-541,481	-99,736	0,121	-0,022
-540,466	301,966	0,029	0,040
-539,452	53,898	-0,066	-0,046
-538,437	-58,729	0,036	0,011
-537,423	800,000	-0,044	0,099
-536,408	17,606	-0,068	0,040
-535,393	-200,000	0,031	-0,100
-534,379	-200,000	-0,126	-0,000
-533,364	-200,000	-0,003	0,119
-532,350	800,000	-0,048	0,104
-531,335	48,178	-0,098	0,067
-530,321	-52,593	0,088	-0,030
-529,306	-200,000	0,010	-0,052
-528,291	205,521	0,082	-0,093
-527,277	54,262	-0,054	0,038
-526,262	246,268	-0,076	-0,094
-525,248	14,203	0,132	-0,075
-524,233	782,465	0,028	0,056
-523,218	800,000	0,036	-0,087
-522,204	-111,850	-0,028	-0,004
-521,189	559,479	-0,016	0,029
-520,175	412,691	0,115	0,179
-519,160	395,637	-0,024	-0,037
-518,145	608,339	0,046	-0,085
-517,131	788,379	0,072	0,145
-516,116	-200,000	0,017	0,069
-515,102	-133,020	-0,089	0,008
-514,087	40,278	0,054	-0,036
-513,072	-138,156	-0,198	-0,016
-512,058	800,000	-0,021	-0,059
-511,043	198,008	-0,055	-0,062
-510,029	39,032	-0,114	0,074
-509,014	-200,000	0,009	0,205
-507,999	-200,000	0,002	-0,018
-506,985	-109,865	-0,040	-0,006
-505,970	230,998	0,064	0,076
-504,956	-152,480	-0,093	0,005
-503,941	800,000	-0,048	0,134
-502,926	25,606	0,160	0,097
-501,912	-200,000	0,020	0,117
-500,897	253,224	-0,047	0,059
-499,883	91,023	-0,050	-0,041
-498,868	35,623	0,054	-0,035
-497,853	134,833	-0,108	-0,102
-496,839	800,000	0,044	-0,115
-495,824	265,755	0,040	-0,051
-494,810	-200,000	0,050	0,200
-493,795	147,912	0,058	0,057
-492,781	800,000	-0,065	-0,160
-491,766	-200,000	0,002	-0,027
-490,751	800,000	-0,046	-0,098
-489,737	-68,149	-0,076	-0,022
-488,722	-100,355	0,106	0,019
-487,708	800,000	0,044	0,115
-486,693	-200,000	-0,021	0,089
-485,678	111,604	-0,036	-0,032
-484,664	-200,000	0,025	-0,110
-483,649	800,000	-0,064	-0,181
-482,635	-200,000	-0,032	0,142
-481,620	-200,000	-0,010	0,084
-480,605	-11,971	0,109	0,052
-479,591	390,651	0,062	0,094
-478,576	-197,742	-0,082	0,000
-477,562	800,000	0,046	-0,129
-476,547	445,735	0,041	0,066
-475,532	214,286	0,032	0,037
-474,518	-200,000	-0,003	0,020
-473,503	-150,413	-0,146	-0,008
-472,489	800,000	0,028	0,087
-471,474	53,970	-0,066	-0,046
-470,459	800,000	-0,039	-0,090
-469,445	-200,000	0,003	-0,062
-468,430	-86,972	0,033	-0,007
-467,416	-33,273	0,070	0,028
-466,401	-200,000	-0,004	-0,074
-465,386	-55,744	-0,034	0,011
-464,372	-200,000	0,012	0,106
-463,357	800,000	-0,040	0,092
-462,343	120,318	-0,016	-0,015
-461,328	283,354	0,059	0,077
-460,313	175,103	0,063	-0,067
-459,299	248,935	0,086	0,106
-458,284	800,000	0,030	0,088
-457,270	800,000	0,036	0,113
-456,255	800,000	0,013	0,030
-455,241	129,020	-0,045	-0,042
-454,226	-200,000	-0,028	-0,097
-453,211	701,556	-0,094	-0,182
-452,197	549,070	-0,060	-0,105
-451,182	-200,000	0,014	-0,084
-450,168	800,000	0,036	0,088
-449,153	150,721	0,007	0,007
-448,138	800,000	0,007	-0,023
-447,124	40,131	-0,059	-0,039
-446,109	-200,000	0,024	0,212
-445,095	752,460	0,064	0,127
-444,080	-56,148	-0,036	0,012
-443,065	16,101	-0,079	-0,045
-442,051	81,138	-0,031	0,024
-441,036	116,951	0,089	-0,079
-440,022	-115,429	-0,071	0,010
-439,007	-200,000	-0,010	-0,112
-437,992	-200,000	-0,009	-0,054
-436,978	800,000	0,032	0,065
-435,963	-68,866	-0,094	-0,026
-434,949	54,083	-0,049	-0,034
-433,934	342,725	0,019	0,027
-432,919	-9,927	0,035	-0,017
-431,905	-195,746	-0,090	0,000
-430,890	792,620	0,057	-0,114
-429,876	254,440	0,072	0,090
-428,861	-200,000	0,009	0,029
-427,846	380,440	0,083	-0,124
-426,832	519,704	-0,032	-0,055
-425,817	-64,749	-0,082	-0,024
-424,803	-200,000	0,014	-0,090
-423,788	11,314	-0,147	0,082
-422,773	222,430	0,095	0,112
-421,759	40,301	0,200	0,131
-420,744	215,714	-0,050	0,058
-419,730	795,282	-0,046	0,093
-418,715	-200,000	0,033	-0,137
-417,701	800,000	-0,034	-0,090
-416,686	32,225	0,073	0,045
-415,671	-65,971	0,110	0,032
-414,657	-7,749	0,044	-0,022
-413,642	-82,481	-0,073	-0,017
-412,628	501,016	-0,087	-0,147
-411,613	-29,724	-0,223	-0,092
-410,598	-81,076	-0,103	-0,025
-409,584	800,000	-0,042	0,090
-408,569	54,020	0,074	0,052
-407,555	260,002	0,108	-0,136
-406,540	303,768	0,027	0,036
-405,525	-200,000	-0,003	-0,076
-404,511	760,073	-0,077	0,152
-403,496	269,872	-0,056	0,072
-402,482	-200,000	0,015	-0,076
-401,467	212,944	0,108	0,124
-400,452	711,152	-0,049	0,094
-399,438	551,947	-0,071	-0,124
-398,423	-200,000	0,009	0,047
-397,409	71,669	-0,140	0,106
-396,394	800,000	-0,059	-0,179
-395,379	116,300	0,049	-0,044
-394,365	-124,860	-0,091	0,010
-393,350	381,508	0,036	0,054
-392,336	-200,000	-0,025	-0,093
-391,321	433,311	0,038	0,061
-390,306	244,651	-0,075	-0,092
-389,292	-91,375	-0,055	-0,011
-388,277	372,613	0,059	-0,088
-387,263	-162,047	0,071	-0,003
-386,248	-200,000	-0,005	0,087
-385,233	-69,660	0,131	-0,036
-384,219	-118,729	0,069	0,009
-383,204	742,549	-0,073	-0,144
-382,190	800,000	0,048	-0,143
-381,175	-75,373	0,066	-0,017
-380,160	800,000	-0,053	0,149
-379,146	-121,135	0,114	0,014
-378,131	800,000	-0,062	0,155
-377,117	-200,000	-0,003	0,137
-376,102	-200,000	-0,012	0,079
-375,088	447,494	-0,051	-0,082
-374,073	-20,074	-0,110	-0,049
-373,058	-108,907	-0,062	-0,009
-372,044	80,434	0,089	-0,070
-371,029	-152,537	0,084	-0,004
-370,015	-200,000	-0,007	0,088
-369,000	789,105	0,009	0,018
-367,985	414,853	-0,069	0,108
-366,971	-133,517	0,092	-0,008
-365,956	-200,000	-0,004	0,124
-364,942	-55,575	0,029	0,009
-363,927	352,483	-0,033	0,048
-362,912	660,755	-0,082	0,153
-361,898	800,000	0,024	0,057
-360,883	-119,163	0,056	-0,007
-359,869	-144,822	-0,055	-0,004
-358,854	19,469	-0,104	-0,061
-357,839	-37,006	0,017	0,007
-356,825	122,095	0,066	0,060
-355,810	-12,798	0,161	0,076
-354,796	800,000	0,092	-0,196
-353,781	57,833	0,037	-0,026
-352,766	-24,688	0,118	0,051
-351,752	-10,230	0,089	-0,043
-350,737	-91,520	-0,147	0,030
-349,723	24,363	-0,019	-0,011
-348,708	-200,000	-0,002	-0,037
-347,693	-97,888	0,107	-0,020
-346,679	-181,135	-0,086	0,001
-345,664	-122,738	-0,103	-0,012
-344,650	359,122	0,055	0,080
-343,635	800,000	0,066	0,149
-342,620	165,537	-0,022	0,022
-341,606	94,452	-0,041	-0,034
-340,591	-200,000	0,024	0,107
-339,577	800,000	0,060	0,161
-338,562	-49,373	-0,069	-0,024
-337,548	218,603	0,046	0,054
-336,533	-20,585	-0,015	-0,007
-335,518	-200,000	-0,002	0,094
-334,504	-8,243	-0,084	0,041
-333,489	107,442	0,058	0,050
-332,475	141,012	-0,070	0,067
-331,460	-80,140	-0,087	-0,021
-330,445	800,000	-0,011	0,026
-329,431	145,325	0,123	0,120
-328,416	542,682	-0,005	-0,009
-327,402	739,570	0,036	-0,070
-326,387	-30,118	0,033	-0,014
-325,372	29,420	0,076	0,047
-324,358	176,832	-0,118	-0,124
-323,343	-84,426	0,130	0,030
-322,329	160,919	-0,112	0,114
-321,314	-108,440	0,068	-0,010
-320,299	281,478	0,060	0,078
-319,285	-200,000	-0,015	-0,179
-318,270	-23,120	-0,061	0,027
-317,256	83,730	0,053	-0,042
-316,241	146,593	0,148	-0,144
-315,226	-51,611	-0,083	-0,028
-314,212	15,594	0,114	-0,065
-313,197	-200,000	-0,023	0,155
-312,183	-159,948	0,056	0,002
-311,168	-142,147	-0,133	0,009
-310,153	9,593	0,065	-0,035
-309,139	30,835	-0,086	-0,054
-308,124	53,838	-0,029	-0,020
-307,110	-200,000	-0,002	-0,020
-306,095	-32,044	-0,049	0,020
-305,080	110,540	-0,117	0,102
-304,066	-200,000	0,001	0,163
-303,051	800,000	0,064	-0,146
-302,037	98,231	-0,157	0,131
-301,022	-200,000	0,001	0,024
-300,008	-78,537	0,084	0,021
-298,993	-17,208	0,157	0,071
-297,978	-36,209	-0,039	-0,015
-296,964	-169,746	-0,189	-0,005
-295,949	-13,636	0,115	0,053
-294,935	-148,184	-0,143	-0,008
-293,920	380,590	0,027	-0,040
-292,905	261,595	0,012	-0,015
-291,891	-200,000	0,000	-0,052
-290,876	409,179	0,072	0,111
-289,862	-7,025	0,152	0,074
-288,847	684,396	0,016	-0,030
-287,832	-200,000	0,049	0,236
-286,818	-200,000	0,000	-0,056
-285,803	28,219	-0,031	-0,019
-284,789	-50,594	0,273	0,093
-283,774	-200,000	0,008	-0,093
-282,759	6,882	-0,060	-0,032
-281,745	-113,397	-0,124	0,017
-280,730	-124,978	-0,142	-0,016
-279,716	-75,357	-0,041	-0,010
-278,701	-144,696	0,064	-0,004
-277,686	-21,193	0,067	-0,030
-276,672	772,587	0,083	0,164
-275,657	800,000	-0,024	0,062
-274,643	122,121	-0,049	-0,045
-273,628	115,498	0,029	0,026
-272,613	117,181	-0,043	-0,038
-271,599	-104,663	-0,090	-0,015
-270,584	73,259	0,017	0,013
-269,570	34,567	0,118	0,074
-268,555	512,079	-0,136	0,230
-267,540	485,571	-0,022	0,036
-266,526	69,853	-0,059	0,044
-265,511	800,000	0,021	0,054
-264,497	32,558	-0,042	-0,026
-263,482	-200,000	0,009	0,045
-262,467	-200,000	-0,031	0,118
-261,453	22,120	-0,060	-0,035
-260,438	-37,184	-0,046	-0,018
-259,424	303,299	-0,075	-0,100
-258,409	152,271	0,077	-0,076
-257,395	321,528	-0,039	0,054
-256,380	619,592	0,057	-0,103
-255,365	-115,326	0,133	0,018
-254,351	-93,145	-0,078	-0,016
-253,336	-77,556	0,037	0,009
-252,322	748,629	-0,016	-0,031
-251,307	349,760	0,059	-0,085
-250,292	-200,000	0,036	-0,122
-249,278	800,000	-0,033	-0,100
-248,263	-200,000	-0,012	-0,042
-247,249	-3,803	-0,124	-0,062
-246,234	800,000	-0,017	-0,035
-245,219	-4,075	-0,022	0,011
-244,205	23,724	-0,057	0,034
-243,190	210,815	-0,022	-0,025
-242,176	-94,929	0,016	-0,003
-241,161	800,000	0,020	0,056
-240,146	177,174	-0,065	0,068
-239,132	-200,000	0,035	-0,125
-238,117	-200,000	0,008	0,131
-237,103	26,826	0,049	0,029
-236,088	132,178	0,132	-0,123
-235,073	-200,000	0,002	-0,067
-234,059	21,085	0,112	-0,066
-233,044	46,102	0,064	-0,043
-232,030	-102,134	0,013	0,002
-231,015	800,000	-0,017	0,038
-230,000	-200,000	-0,003	0,087
-228,986	71,286	-0,028	-0,021
-227,971	-200,000	0,003	-0,108
-226,957	-187,474	0,101	-0,001
-225,942	-13,785	0,064	0,030
-224,927	549,803	-0,019	-0,033
-223,913	-162,132	-0,053	0,002
-222,898	115,582	-0,025	0,022
-221,884	-28,700	-0,099	0,041
-220,869	177,879	0,023	0,024
-219,855	-200,000	0,015	0,132
-218,840	-104,500	0,052	-0,009
-217,825	-200,000	0,008	-0,040
-216,811	448,672	0,035	0,056
-215,796	-200,000	0,002	0,074
-214,782	31,939	0,025	-0,016
-213,767	286,707	0,063	0,082
-212,752	800,000	-0,035	0,105
-211,738	-78,804	-0,035	0,009
-210,723	-12,559	-0,056	0,026
-209,709	4,512	-0,076	0,040
-208,694	289,800	0,074	-0,097
-207,679	-181,036	-0,082	-0,001
-206,665	-48,364	0,054	-0,019
-205,650	146,955	-0,050	0,048
-204,636	-200,000	-0,008	0,069
-203,621	-0,092	-0,003	0,002
-202,606	-91,576	-0,019	0,004
-201,592	-165,902	-0,081	-0,002
-200,577	-200,000	-0,020	-0,092
-199,563	-200,000	0,011	-0,078
-198,548	-131,220	0,175	0,017
-197,533	712,522	0,093	0,179
-196,519	681,992	0,051	0,095
-195,504	52,819	-0,169	-0,116
-194,490	-200,000	0,002	-0,124
-193,475	685,092	-0,033	-0,062
-192,460	43,130	0,120	-0,079
-191,446	800,000	-0,045	0,118
-190,431	-200,000	0,007	0,045
-189,417	-94,028	0,133	0,026
-188,402	57,933	0,071	0,050
-187,387	800,000	-0,068	0,136
-186,373	332,520	0,048	-0,067
-185,358	-200,000	-0,024	-0,109
-184,344	-136,371	0,103	-0,009
-183,329	-60,688	-0,059	0,018
-182,315	97,845	-0,160	0,133
-181,300	-200,000	0,011	-0,086
-180,285	404,195	-0,096	-0,146
-179,271	-41,009	-0,066	-0,024
-178,256	-200,000	-0,005	-0,089
-177,242	-200,000	0,016	0,174
-176,227	308,165	-0,058	0,078
-175,212	-200,000	-0,016	0,098
-174,198	-152,612	-0,123	-0,006
-173,183	173,986	0,007	-0,007
-172,169	40,805	-0,131	0,085
-171,154	5,518	0,016	0,008
-170,139	312,653	-0,017	0,023
-169,125	597,536	0,053	-0,095
-168,110	295,112	0,098	0,129
-167,096	-161,035	-0,180	-0,007
-166,081	-200,000	-0,010	-0,128
-165,066	252,807	0,035	-0,043
-164,052	-200,000	0,016	-0,099
-163,037	-200,000	0,004	-0,073
-162,023	-69,127	-0,177	-0,049
-161,008	-200,000	-0,021	0,088
-159,993	-52,795	-0,018	-0,006
-158,979	152,077	-0,033	-0,032
-157,964	-6,630	-0,095	0,046
-156,950	-200,000	0,009	-0,067
-155,935	505,714	0,074	-0,124
-154,920	6,638	-0,044	0,024
-153,906	-104,465	0,090	-0,015
-152,891	-200,000	-0,014	0,052
-151,877	-200,000	-0,004	0,043
-150,862	800,000	0,020	-0,041
-149,847	-51,275	-0,064	0,021
-148,833	-110,391	0,099	0,015
-147,818	800,000	-0,012	0,028
-146,804	800,000	-0,025	-0,075
-145,789	-9,185	0,090	0,043
-144,775	800,000	-0,020	0,052
-143,760	-200,000	-0,026	-0,100
-142,745	-200,000	0,001	-0,127
-141,731	342,224	0,048	-0,067
-140,716	-93,089	0,069	-0,014
-139,702	-200,000	-0,008	0,099
-138,687	570,186	-0,005	0,008
-137,672	-200,000	-0,006	-0,037
-136,658	17,534	0,087	-0,050
-135,643	-73,030	-0,107	0,028
-134,629	225,194	0,027	0,031
-133,614	-89,132	0,067	0,014
-132,599	-200,000	-0,001	0,181
-131,585	-165,724	0,118	0,004
-130,570	29,338	-0,072	0,044
-129,556	152,484	-0,042	0,041
-128,541	-200,000	0,018	-0,061
-127,526	3,976	-0,035	0,018
-126,512	27,964	-0,038	0,023
-125,497	-2,450	0,040	0,020
-124,483	800,000	-0,017	-0,042
-123,468	707,956	0,033	0,062
-122,453	-200,000	-0,025	-0,107
-121,439	96,026	0,118	0,097
-120,424	-200,000	-0,025	0,177
-119,410	-200,000	0,001	0,154
-118,395	-200,000	-0,006	0,026
-117,380	-32,536	0,063	-0,025
-116,366	-200,000	-0,027	-0,115
-115,351	-200,000	-0,012	-0,044
-114,337	182,872	-0,075	-0,079
-113,322	800,000	0,042	-0,101
-112,307	21,082	-0,109	-0,064
-111,293	-21,042	0,043	-0,019
-110,278	-71,322	0,020	-0,005
-109,264	386,719	0,036	0,053
-108,249	140,928	-0,036	0,034
-107,234	800,000	-0,067	-0,179
-106,220	-190,776	-0,039	-0,000
-105,205	30,721	-0,036	-0,022
-104,191	-200,000	0,030	0,137
-103,176	-75,419	0,088	0,022
-102,162	-200,000	0,005	-0,024
-101,147	155,228	-0,075	0,074
-100,132	228,494	-0,058	-0,068
-99,118	-94,934	-0,160	0,031
-98,103	-200,000	-0,007	0,049
-97,089	101,480	-0,003	0,003
-96,074	-200,000	-0,005	-0,069
-95,059	800,000	0,037	-0,099
-94,045	584,379	0,059	0,105
-93,030	79,138	-0,173	0,133
-92,016	800,000	0,033	0,067
-91,001	-66,399	0,103	0,029
-89,986	-154,572	0,102	0,005
-88,972	-101,329	-0,083	-0,014
-87,957	-183,679	-0,105	-0,001
-86,943	30,841	0,068	0,042
-85,928	800,000	0,056	-0,131
-84,913	800,000	0,069	-0,196
-83,899	-1,787	0,176	-0,089
-82,884	-33,572	-0,071	-0,028
-81,870	-67,995	0,089	-0,025
-80,855	800,000	-0,047	0,102
-79,840	-5,337	0,101	0,050
-78,826	206,867	0,050	-0,056
-77,811	503,326	-0,076	-0,126
-76,797	800,000	0,036	-0,094
-75,782	-67,241	-0,076	0,021
-74,767	132,722	0,075	0,070
-73,753	324,642	0,056	0,077
-72,738	800,000	-0,074	-0,157
-71,724	-119,434	-0,103	0,013
-70,709	-75,196	-0,074	0,019
-69,694	-10,590	-0,074	-0,035
-68,680	-200,000	-0,025	0,132
-67,665	-200,000	0,029	0,151
-66,651	57,935	0,090	-0,063
-65,636	520,898	-0,081	0,137
-64,622	-15,703	0,065	-0,030
-63,607	-200,000	0,036	-0,164
-62,592	351,701	-0,045	-0,064
-61,578	800,000	-0,037	0,075
-60,563	800,000	0,034	-0,075
-59,549	-200,000	-0,004	-0,082
-58,534	-7,475	-1,945	-0,941
-57,519	-200,000	-0,287	-0,996
-56,505	-200,000	-1,197	-4,923
-55,490	111,916	0,717	0,621
-54,476	800,000	5,279	12,160
-53,461	-200,000	17,613	283,271
-52,446	800,000	727,105	2210,227
-51,432	531,976	1643,131	2797,365
-50,417	109,709	1633,919	1403,798
-49,403	75,109	1286,154	970,715
-48,388	31,944	1027,038	632,838
-47,373	20,041	988,923	570,169
-46,359	18,359	976,972	557,750
-45,344	15,567	972,794	546,222
-44,330	15,809	971,287	546,146
-43,315	15,275	969,571	543,418
-42,300	15,196	968,481	542,528
-41,286	15,245	967,519	542,127
-40,271	15,221	966,514	541,466
-39,257	15,288	965,532	541,109
-38,242	15,245	964,742	540,505
-37,227	15,317	963,755	540,165
-36,213	15,245	962,971	539,470
-35,198	15,217	962,183	538,918
-34,184	15,232	961,403	538,509
-33,169	15,172	960,384	537,723
-32,154	15,328	959,502	537,711
-31,140	15,343	958,692	537,285
-30,125	15,314	957,732	536,630
-29,111	15,229	957,150	536,008
-28,096	15,257	956,441	535,681
-27,082	15,314	955,599	535,371
-26,067	15,324	954,902	534,991
-25,052	15,240	954,228	534,323
-24,038	15,246	953,525	533,927
-23,023	15,282	952,940	533,696
-22,009	15,244	952,357	533,227
-20,994	15,283	951,718	532,970
-19,979	15,317	950,870	532,585
-18,965	15,266	950,317	532,089
-17,950	15,306	949,666	531,832
-16,936	15,196	949,075	531,127
-15,921	15,187	948,576	530,801
-14,906	15,207	947,697	530,350
-13,892	15,188	946,948	529,851
-12,877	15,118	946,470	529,339
-11,863	15,101	945,762	528,869
-10,848	15,136	945,192	528,638
-9,833	15,236	944,734	528,679
-8,819	15,144	944,230	528,085
-7,804	15,209	943,573	527,901
-6,790	15,183	943,031	527,497
-5,775	15,212	942,490	527,263
-4,760	15,196	941,915	526,871
-3,746	15,189	941,224	526,442
-2,731	14,995	940,469	525,385
-1,717	15,055	939,631	525,087
-0,702	14,983	939,173	524,581
0,313	14,808	938,600	524,503
1,327	18,197	936,247	533,796
2,342	27,362	793,570	476,678
3,356	24,268	458,056	270,406
4,371	-3,076	313,518	156,141
5,386	-6,971	295,320	143,141
6,400	-8,821	289,414	138,437
7,415	-9,348	286,810	136,663
8,429	-9,655	285,365	135,663
9,444	-9,829	284,499	135,069
10,459	-9,781	283,829	134,787
11,473	-9,589	283,219	134,671
12,488	-9,456	282,562	134,475
13,502	-9,715	282,119	134,002
14,517	-9,728	281,730	133,792
15,531	-9,861	281,262	133,431
16,546	-9,821	280,889	133,280
17,561	-9,844	280,340	132,986
18,575	-9,926	280,133	132,797
19,590	-10,092	279,751	132,445
20,604	-9,903	279,365	132,432
21,619	-10,086	279,142	132,139
22,634	-9,862	278,759	132,160
23,648	-9,873	278,320	131,929
24,663	-9,856	278,161	131,858
25,677	-10,098	277,954	131,518
26,692	-10,153	277,643	131,307
27,707	-9,913	277,319	131,370
28,721	-10,030	277,151	131,168
29,736	-9,874	276,801	131,138
30,750	-9,969	276,609	130,945
31,765	-10,025	276,279	130,726
32,780	-9,844	275,989	130,747
33,794	-10,064	275,818	130,447
34,809	-9,885	275,430	130,420
35,823	-10,113	275,124	130,050
36,838	-10,010	275,016	130,083
37,853	-10,108	274,520	129,745
38,867	-10,083	274,580	129,786
39,882	-10,059	274,421	129,722
40,896	-10,024	274,123	129,601
41,911	-10,107	273,826	129,373
42,926	-9,966	273,465	129,321
43,940	-10,083	273,363	129,153
44,955	-10,077	273,083	129,014
45,969	-10,020	272,720	128,885
46,984	-10,254	272,678	128,636
47,999	-10,426	272,393	128,330
49,013	-10,493	272,186	128,159
50,028	-10,414	271,828	128,053
51,042	-10,751	271,606	127,624
52,057	-10,713	271,366	127,536
53,071	-10,629	271,199	127,524
54,086	-10,497	270,933	127,509
55,101	-10,400	270,830	127,538
56,115	-10,136	270,595	127,660
57,130	-10,030	270,485	127,693
58,144	-9,918	270,246	127,672
59,159	-9,795	270,177	127,741
60,174	-9,764	269,897	127,626
61,188	-9,592	269,506	127,588
62,203	-9,946	269,473	127,236
63,217	-9,942	269,152	127,077
64,232	-9,930	268,901	126,958
65,247	-9,944	268,721	126,850
66,261	-10,055	268,514	126,639
67,276	-10,105	268,176	126,423
68,290	-10,013	267,768	126,303
69,305	-10,257	267,712	126,043
70,320	-10,166	267,522	126,024
71,334	-10,034	267,388	126,070
72,349	-9,842	267,373	126,227
73,363	-9,760	266,930	126,080
74,378	-9,815	266,740	125,930
75,393	-9,779	266,480	125,829
76,407	-9,931	266,265	125,578
77,422	-9,932	265,903	125,395
78,436	-9,786	265,835	125,484
79,451	-9,887	265,638	125,289
80,466	-9,978	265,289	125,031
81,480	-10,220	265,232	124,775
82,495	-10,046	264,912	124,769
83,509	-10,125	264,829	124,648
84,524	-10,085	264,406	124,474
85,539	-10,165	264,377	124,378
86,553	-10,257	264,097	124,153
87,568	-10,053	263,843	124,205
88,582	-9,965	263,630	124,172
89,597	-10,041	263,363	123,967
90,611	-9,870	263,168	124,017
91,626	-9,894	263,052	123,930
92,641	-9,918	263,023	123,884
93,655	-9,865	262,659	123,749
94,670	-9,884	262,572	123,679
95,684	-9,994	262,335	123,459
96,699	-9,867	262,322	123,555
97,714	-10,000	261,966	123,258
98,728	-9,834	261,596	123,220
99,743	-10,180	261,404	122,812
100,757	-10,128	261,175	122,740
101,772	-10,120	261,107	122,704
102,787	-10,045	260,912	122,667
103,801	-9,932	260,725	122,669
104,816	-9,823	260,496	122,646
105,830	-9,876	260,419	122,552
106,845	-9,727	260,190	122,565
107,860	-9,910	260,053	122,328
108,874	-9,857	259,796	122,243
109,889	-9,816	259,639	122,194
110,903	-9,595	259,406	122,268
111,918	-9,728	259,172	122,030
112,933	-9,864	259,029	121,832
113,947	-9,766	258,814	121,806
114,962	-9,775	258,629	121,700
115,976	-9,942	258,265	121,372
116,991	-9,818	258,209	121,444
118,006	-10,046	258,002	121,136
119,020	-9,918	257,951	121,213
120,035	-9,841	257,851	121,222
121,049	-9,801	257,454	121,060
122,064	-9,899	257,499	120,985
123,079	-9,829	257,102	120,849
124,093	-9,771	256,904	120,796
125,108	-9,820	256,736	120,663
126,122	-10,236	256,406	120,136
127,137	-10,157	256,249	120,120
128,151	-10,114	256,124	120,088
129,166	-9,968	255,851	120,075
130,181	-10,143	255,643	119,817
131,195	-10,416	255,744	119,616
132,210	-10,119	255,533	119,764
133,224	-9,900	255,344	119,854
134,239	-9,750	255,133	119,874
135,254	-9,466	254,827	119,964
136,268	-9,951	254,709	119,480
137,283	-10,081	254,400	119,213
138,297	-10,092	254,146	119,073
139,312	-10,168	253,936	118,899
140,327	-9,983	253,895	119,028
141,341	-9,690	253,802	119,225
142,356	-9,755	253,683	119,103
143,370	-9,687	253,440	119,036
144,385	-9,785	253,333	118,892
145,400	-9,699	253,182	118,884
146,414	-9,748	252,875	118,687
147,429	-9,476	252,473	118,720
148,443	-9,792	252,455	118,431
149,458	-9,532	252,297	118,569
150,473	-9,682	252,200	118,384
151,487	-9,849	252,005	118,140
152,502	-9,826	251,841	118,072
153,516	-9,735	251,504	117,981
154,531	-9,690	251,344	117,934
155,546	-9,626	251,253	117,934
156,560	-9,833	250,982	117,621
157,575	-9,728	250,774	117,602
158,589	-9,646	250,646	117,602
159,604	-9,446	250,350	117,620
160,619	-9,474	250,297	117,561
161,633	-9,596	250,164	117,386
162,648	-9,705	249,999	117,206
163,662	-9,519	249,736	117,229
164,677	-9,687	249,844	117,128
165,692	-9,723	249,472	116,913
166,706	-9,533	249,365	117,012
167,721	-9,503	249,105	116,905
168,735	-9,558	249,164	116,875
169,750	-9,565	248,880	116,726
170,764	-9,428	248,773	116,781
171,779	-9,403	248,530	116,677
172,794	-9,460	248,375	116,546
173,808	-9,558	248,029	116,292
174,823	-9,888	247,823	115,909
175,837	-10,345	247,793	115,502
176,852	-9,670	247,722	116,023
177,867	-9,642	247,519	115,941
178,881	-9,548	247,284	115,899
179,896	-9,543	247,328	115,913
180,910	-9,616	246,966	115,672
181,925	-9,608	246,846	115,613
182,940	-9,398	246,471	115,601
183,954	-9,680	246,481	115,362
184,969	-9,643	246,319	115,306
185,983	-9,563	246,330	115,367
186,998	-9,623	246,132	115,214
188,013	-9,609	245,970	115,140
189,027	-9,600	245,773	115,045
190,042	-9,555	245,500	114,943
191,056	-9,085	245,276	115,217
192,071	-9,273	245,231	115,030
193,086	-9,253	244,934	114,897
194,100	-9,716	244,911	114,494
195,115	-9,453	244,727	114,615
196,129	-9,467	244,423	114,451
197,144	-9,473	244,350	114,402
198,159	-9,579	244,063	114,170
199,173	-9,561	243,877	114,087
200,188	-9,466	243,718	114,081
201,202	-9,579	243,456	113,856
202,217	-10,150	243,275	113,294
203,232	-9,902	243,039	113,376
204,246	-9,481	243,032	113,706
205,261	-8,903	243,114	114,207
206,275	-9,652	242,734	113,408
207,290	-7,645	243,434	115,364
208,304	-2,516	245,106	120,360
209,319	0,734	245,871	123,397
210,334	1,106	245,829	123,670
211,348	1,382	245,855	123,898
212,363	1,630	245,699	124,012
213,377	1,679	245,629	124,006
214,392	1,820	245,533	124,062
215,407	1,643	245,303	123,789
216,421	1,761	245,109	123,777
217,436	1,982	244,966	123,874
218,450	1,821	244,847	123,672
219,465	1,655	244,702	123,452
220,480	1,615	244,416	123,264
221,494	1,599	244,520	123,293
222,509	1,758	244,243	123,271
223,523	1,655	244,138	123,123
224,538	1,564	243,704	122,820
225,553	1,525	243,549	122,699
226,567	1,724	243,490	122,820
227,582	1,800	243,407	122,828
228,596	1,929	243,196	122,816
229,611	1,486	242,989	122,341
230,626	1,543	243,013	122,388
231,640	1,769	242,749	122,428
232,655	1,830	242,484	122,332
233,669	1,591	242,394	122,084
234,684	1,605	242,197	121,985
235,699	1,870	242,234	122,206
236,713	1,909	242,030	122,123
237,728	1,903	241,664	121,923
238,742	1,603	241,575	121,626
239,757	1,664	241,357	121,554
240,772	1,514	241,348	121,419
241,786	1,520	241,235	121,356
242,801	1,428	240,879	121,092
243,815	1,371	240,684	120,938
244,830	1,704	240,739	121,221
245,844	1,808	240,556	121,201
246,859	1,854	240,293	121,095
247,874	1,663	240,128	120,849
248,888	1,611	239,983	120,723
249,903	1,723	239,871	120,746
250,917	2,086	239,806	120,991
251,932	2,074	239,650	120,892
252,947	1,793	239,457	120,561
253,961	1,544	239,104	120,174
254,976	1,764	239,204	120,388
255,990	2,102	238,748	120,417
257,005	1,429	238,751	119,873
258,020	1,385	238,562	119,732
259,034	1,548	238,402	119,771
260,049	1,544	238,304	119,708
261,063	1,446	238,124	119,529
262,078	1,752	237,954	119,675
263,093	1,891	237,820	119,707
264,107	1,688	237,791	119,521
265,122	1,460	237,436	119,152
266,136	1,782	237,420	119,388
267,151	1,851	237,343	119,393
268,166	1,486	237,104	118,974
269,180	1,534	236,907	118,903
270,195	2,084	236,928	119,335
271,209	2,114	236,834	119,301
272,224	1,754	236,527	118,853
273,239	1,412	236,251	118,436
274,253	1,536	236,120	118,456
275,268	1,614	236,075	118,484
276,282	1,788	235,751	118,447
277,297	1,473	235,563	118,096
278,312	1,635	235,583	118,222
279,326	1,814	235,384	118,251
280,341	1,754	235,329	118,166
281,355	1,693	235,215	118,051
282,370	2,093	235,027	118,258
283,384	1,985	234,857	118,078
284,399	1,519	234,688	117,620
285,414	1,375	234,531	117,419
286,428	1,576	234,422	117,510
287,443	1,891	234,214	117,640
288,457	1,879	234,235	117,630
289,472	1,956	234,133	117,628
290,487	1,783	233,883	117,358
291,501	1,326	233,682	116,893
292,516	1,202	233,384	116,638
293,530	1,276	233,223	116,604
294,545	1,694	233,248	116,929
295,560	1,607	233,154	116,804
296,574	1,478	232,688	116,461
297,589	1,529	232,591	116,441
298,603	1,818	232,547	116,631
299,618	1,912	232,499	116,669
300,633	1,785	232,375	116,499
301,647	1,988	232,345	116,629
302,662	2,462	232,140	116,881
303,676	2,332	231,918	116,659
304,691	1,999	231,910	116,389
305,706	2,050	231,773	116,348
306,720	2,092	231,458	116,212
307,735	2,127	231,333	116,165
308,749	1,761	231,148	115,783
309,764	1,569	231,039	115,571
310,779	1,625	230,678	115,423
311,793	1,590	230,516	115,305
312,808	1,693	230,388	115,309
313,822	1,384	230,146	114,942
314,837	1,452	230,225	115,023
315,852	1,360	230,065	114,863
316,866	1,721	229,872	115,031
317,881	1,785	230,002	115,134
318,895	2,027	229,770	115,192
319,910	2,408	229,617	115,393
320,925	2,039	229,433	115,012
321,939	1,756	229,205	114,673
322,954	2,103	229,044	114,845
323,968	2,214	228,993	114,893
324,983	2,110	228,973	114,793
325,997	1,900	228,768	114,522
327,012	1,966	228,554	114,454
328,027	1,710	228,216	114,082
329,041	1,907	228,107	114,165
330,056	2,093	228,270	114,377
331,070	2,438	228,137	114,560
332,085	2,245	228,073	114,373
333,100	2,205	227,719	114,155
334,114	2,168	227,648	114,081
335,129	2,039	227,516	113,908
336,143	2,144	227,212	113,825
337,158	2,042	227,150	113,707
338,173	2,068	226,989	113,635
339,187	2,094	226,841	113,571
340,202	1,767	226,758	113,274
341,216	2,089	226,572	113,412
342,231	2,005	226,365	113,235
343,246	2,155	226,166	113,238
344,260	2,251	226,164	113,298
345,275	2,199	226,016	113,175
346,289	2,485	225,849	113,295
347,304	2,474	225,641	113,172
348,319	2,378	225,655	113,097
349,333	2,308	225,429	112,922
350,348	1,836	225,191	112,443
351,362	2,022	225,084	112,517
352,377	2,050	224,853	112,413
353,392	1,983	224,682	112,267
354,406	2,036	224,827	112,369
355,421	196,371	1320,242	1397,946
356,435	157,411	1453,690	1397,938
