DTS Sentinel unit serial number:	SN410029Multiplexer serial number:	ORYXHardware model number:	OX2-SRSoftware version number:	ORYX F/W v4,00 Oryx Data Collector v3.7.2.0data status	okinstallation	B5 Nyhavnadifferential loss correction	single-endedforward channel	channel 2reverse channel	N/Adate	2023/12/14time	08:17:13forward acquisition time	300,00reverse acquisition time	0,00gamma	499,1914k internal	0,3160k external	0,3160temperature offset calibration	1,0000default loss term (dB/km)	0,3820temperature slope calibration	1,0000multiplexer offset coefficient	1,0000multiplexer slope coefficient	1,0000fibre end	0,00T internal ref (°C)	7,06T ext. ref 1 (°C)	-9,16T ext. ref 2 (°C)	-9,25length (m)	temperature (°C)	Stokes	anti-Stokes-744,400	-131,966	0,223	-0,021
-743,385	-81,266	-0,318	-0,077
-742,371	15,027	0,131	0,075
-741,356	-84,421	-0,281	-0,065
-740,342	-65,388	0,214	-0,063
-739,327	-23,138	-0,393	-0,173
-738,312	-20,858	0,104	-0,047
-737,298	-44,875	-0,451	-0,165
-736,283	-128,360	0,110	0,011
-735,269	-74,768	-0,372	-0,098
-734,254	270,697	0,111	0,144
-733,239	8,280	-0,570	-0,314
-732,225	-42,177	0,203	0,076
-731,210	-200,000	0,000	-0,045
-730,196	42,311	-0,064	-0,043
-729,181	-200,000	-0,012	-0,044
-728,167	53,956	0,145	-0,103
-727,152	288,528	-0,084	0,113
-726,137	13,796	-0,095	-0,054
-725,123	-77,190	-0,078	-0,020
-724,108	10,909	-0,075	-0,042
-723,094	176,429	-0,107	0,115
-722,079	-200,000	-0,024	0,094
-721,064	-92,779	0,067	-0,014
-720,050	15,443	-0,133	0,077
-719,035	-92,270	0,048	-0,010
-718,021	-37,045	-0,114	-0,045
-717,006	-30,176	-0,103	-0,043
-715,991	-38,015	-0,189	-0,074
-714,977	-200,000	-0,035	-0,219
-713,962	-96,420	0,120	-0,023
-712,948	-130,800	-0,031	0,003
-711,933	-200,000	0,012	-0,081
-710,918	-70,367	-0,069	0,019
-709,904	-200,000	0,010	0,057
-708,889	191,865	-0,103	-0,115
-707,875	345,488	0,048	-0,069
-706,860	-39,657	-0,032	0,012
-705,845	-124,288	0,137	-0,016
-704,831	-103,683	0,061	0,010
-703,816	535,811	0,030	-0,053
-702,802	-62,729	-0,059	0,018
-701,787	800,000	-0,080	-0,166
-700,772	-200,000	-0,016	0,149
-699,758	121,739	-0,010	-0,009
-698,743	0,161	0,126	0,066
-697,729	96,407	-0,077	0,065
-696,714	146,985	0,049	0,048
-695,699	-55,230	-0,088	-0,029
-694,685	72,296	-0,099	0,076
-693,670	-200,000	0,016	-0,074
-692,656	-43,685	-0,094	0,035
-691,641	-200,000	0,024	0,082
-690,627	-94,016	-0,049	0,010
-689,612	11,738	0,099	0,056
-688,597	-200,000	0,018	0,114
-687,583	800,000	-0,031	-0,100
-686,568	52,284	-0,084	-0,059
-685,554	-41,272	0,065	-0,025
-684,539	800,000	0,019	-0,051
-683,524	4,659	-0,081	-0,044
-682,510	-200,000	-0,009	-0,096
-681,495	-200,000	-0,001	-0,127
-680,481	-74,288	-0,204	0,054
-679,466	-200,000	0,014	-0,104
-678,451	113,333	0,017	-0,016
-677,437	749,639	0,058	0,115
-676,422	800,000	0,024	-0,077
-675,408	-200,000	0,006	-0,177
-674,393	6,505	0,077	0,042
-673,378	-142,071	-0,054	-0,004
-672,364	-89,966	-0,149	-0,032
-671,349	248,762	-0,037	-0,046
-670,335	51,408	0,033	0,023
-669,320	-54,940	0,109	0,036
-668,305	231,638	0,039	-0,048
-667,291	42,155	-0,085	0,057
-666,276	461,668	-0,050	0,083
-665,262	580,569	-0,056	-0,102
-664,247	-145,065	-0,061	-0,004
-663,232	212,214	0,037	0,043
-662,218	800,000	-0,046	-0,095
-661,203	363,022	-0,070	0,103
-660,189	173,753	-0,059	0,063
-659,174	40,329	-0,125	-0,082
-658,159	114,904	-0,081	-0,073
-657,145	-200,000	0,010	-0,036
-656,130	-200,000	0,006	0,078
-655,116	800,000	0,044	0,123
-654,101	81,989	-0,095	0,075
-653,086	-42,958	0,088	-0,033
-652,072	-10,245	-0,228	0,111
-651,057	800,000	-0,034	-0,070
-650,043	-175,603	-0,155	0,003
-649,028	-52,933	0,148	0,050
-648,014	-27,507	-0,028	0,012
-646,999	-200,000	0,034	-0,122
-645,984	721,740	0,052	-0,101
-644,970	-131,308	-0,114	0,011
-643,955	202,474	0,037	0,042
-642,941	800,000	0,074	-0,191
-641,926	87,932	0,020	-0,016
-640,911	-116,648	0,124	0,017
-639,897	30,490	0,076	0,047
-638,882	245,306	0,050	-0,061
-637,868	-200,000	0,006	0,155
-636,853	-200,000	0,007	0,086
-635,838	-21,228	-0,170	0,076
-634,824	123,024	-0,020	0,018
-633,809	325,643	0,040	0,056
-632,795	800,000	-0,036	0,083
-631,780	-200,000	0,036	0,151
-630,765	14,481	-0,072	-0,041
-629,751	79,767	-0,039	-0,031
-628,736	76,076	-0,135	0,105
-627,722	-17,626	-0,049	-0,023
-626,707	-200,000	0,002	-0,105
-625,692	800,000	0,053	-0,115
-624,678	-200,000	-0,016	0,058
-623,663	800,000	0,049	-0,104
-622,649	49,813	0,057	0,040
-621,634	577,054	-0,077	-0,139
-620,619	800,000	-0,038	-0,085
-619,605	34,287	-0,026	0,016
-618,590	497,634	-0,049	0,082
-617,576	141,365	-0,079	-0,077
-616,561	291,323	0,052	0,069
-615,546	104,027	-0,108	0,093
-614,532	81,612	-0,032	-0,025
-613,517	-200,000	-0,013	0,081
-612,503	58,686	-0,129	0,093
-611,488	35,862	0,085	-0,055
-610,474	84,933	0,126	-0,101
-609,459	-200,000	-0,058	0,208
-608,444	116,190	-0,067	-0,060
-607,430	-35,581	-0,134	0,053
-606,415	-200,000	0,004	-0,015
-605,401	800,000	-0,031	0,090
-604,386	-99,205	0,054	-0,010
-603,371	-200,000	-0,004	0,018
-602,357	260,311	0,089	-0,113
-601,342	221,131	-0,073	-0,086
-600,328	412,202	-0,069	-0,108
-599,313	406,101	-0,023	-0,036
-598,298	-200,000	-0,010	0,105
-597,284	800,000	-0,034	0,088
-596,269	-18,438	0,004	0,002
-595,255	-164,557	0,060	-0,002
-594,240	-200,000	0,002	-0,011
-593,225	-144,042	-0,051	0,003
-592,211	109,775	-0,124	0,109
-591,196	99,726	0,088	0,074
-590,182	-38,078	0,064	-0,025
-589,167	-67,487	0,108	0,031
-588,152	-200,000	-0,028	-0,100
-587,138	-78,465	-0,053	-0,013
-586,123	800,000	0,005	-0,015
-585,109	-61,283	0,148	-0,045
-584,094	-200,000	-0,012	0,108
-583,079	-200,000	-0,008	0,092
-582,065	-127,237	0,070	-0,007
-581,050	-200,000	0,007	0,034
-580,036	344,421	-0,017	-0,025
-579,021	26,160	-0,089	0,054
-578,006	336,989	0,044	-0,062
-576,992	-114,591	-0,041	-0,006
-575,977	-62,844	0,104	-0,031
-574,963	537,953	0,064	0,111
-573,948	800,000	0,044	0,123
-572,934	-200,000	0,159	-0,000
-571,919	702,838	-0,013	-0,025
-570,904	-88,697	-0,077	-0,017
-569,890	800,000	0,024	-0,059
-568,875	-200,000	-0,002	0,067
-567,861	-110,775	0,037	0,006
-566,846	124,979	-0,052	0,048
-565,831	25,319	-0,135	0,082
-564,817	-200,000	0,013	0,042
-563,802	-47,343	-0,147	0,052
-562,788	-27,958	0,089	0,037
-561,773	-151,265	0,028	-0,002
-560,758	-103,888	0,028	-0,005
-559,744	-200,000	0,006	0,063
-558,729	-171,651	-0,064	-0,002
-557,715	-200,000	0,016	-0,082
-556,700	-6,145	-0,033	-0,016
-555,685	41,820	0,065	0,043
-554,671	-200,000	0,016	0,112
-553,656	800,000	0,068	0,204
-552,642	-162,652	-0,040	0,001
-551,627	23,346	-0,112	-0,067
-550,612	800,000	0,026	-0,072
-549,598	-200,000	-0,022	-0,136
-548,583	16,037	0,115	0,066
-547,569	252,722	0,011	0,013
-546,554	-200,000	-0,000	0,016
-545,539	-66,126	0,112	-0,032
-544,525	-200,000	0,001	-0,080
-543,510	25,841	-0,070	0,042
-542,496	-200,000	-0,024	-0,086
-541,481	-200,000	0,009	-0,038
-540,466	-200,000	0,054	0,268
-539,452	-200,000	-0,017	0,102
-538,437	800,000	0,034	0,098
-537,423	800,000	0,009	-0,025
-536,408	800,000	-0,016	0,033
-535,393	-200,000	0,023	-0,098
-534,379	-89,444	-0,043	0,009
-533,364	521,174	-0,036	-0,062
-532,350	155,537	0,102	-0,102
-531,335	88,631	0,039	-0,032
-530,321	20,105	0,006	0,003
-529,306	-25,396	-0,068	-0,029
-528,291	-0,406	0,107	0,055
-527,277	104,818	-0,027	0,023
-526,262	-46,552	-0,115	-0,041
-525,248	-58,040	0,135	-0,043
-524,233	-96,462	0,084	-0,016
-523,218	-19,598	0,066	-0,030
-522,204	443,498	0,015	-0,024
-521,189	406,264	0,043	-0,067
-520,175	-200,000	0,003	0,085
-519,160	-200,000	0,009	-0,073
-518,145	-200,000	-0,006	0,054
-517,131	235,019	0,088	-0,106
-516,116	143,546	0,063	0,061
-515,102	-93,904	0,090	-0,018
-514,087	128,442	-0,087	0,081
-513,072	-84,012	-0,058	-0,013
-512,058	275,741	0,064	-0,083
-511,043	-200,000	-0,020	0,109
-510,029	-48,217	0,034	0,012
-509,014	-200,000	-0,014	0,112
-507,999	-146,352	0,138	-0,009
-506,985	462,096	0,036	-0,059
-505,970	-200,000	0,017	-0,118
-504,956	-88,227	-0,035	0,008
-503,941	-102,003	-0,072	0,013
-502,926	-125,918	0,022	0,002
-501,912	-200,000	0,007	-0,072
-500,897	-200,000	0,036	0,118
-499,883	72,686	0,067	0,051
-498,868	800,000	0,013	-0,033
-497,853	-26,463	0,175	0,074
-496,839	204,457	0,037	0,042
-495,824	-42,037	0,139	0,052
-494,810	-118,399	-0,108	0,014
-493,795	-119,180	0,092	-0,012
-492,781	-200,000	-0,011	-0,069
-491,766	800,000	-0,026	0,074
-490,751	138,237	-0,043	0,041
-489,737	190,059	-0,089	-0,098
-488,722	-90,305	-0,201	-0,042
-487,708	-200,000	-0,012	-0,106
-486,693	-41,339	-0,044	0,017
-485,678	800,000	-0,023	0,051
-484,664	-200,000	0,011	-0,090
-483,649	14,264	-0,085	0,048
-482,635	800,000	-0,019	0,040
-481,620	-3,570	0,215	-0,109
-480,605	-47,576	0,053	-0,019
-479,591	-22,555	-0,060	-0,026
-478,576	-187,943	-0,070	0,001
-477,562	-26,609	-0,064	-0,027
-476,547	-200,000	0,006	0,053
-475,532	-149,829	0,073	0,004
-474,518	54,062	0,080	-0,056
-473,503	752,835	-0,020	0,040
-472,489	-63,036	0,079	-0,024
-471,474	-200,000	-0,010	0,060
-470,459	559,609	0,041	-0,073
-469,445	-200,000	0,011	-0,143
-468,430	-139,988	-0,067	-0,005
-467,416	800,000	-0,011	0,022
-466,401	426,171	0,079	-0,125
-465,386	-129,963	0,078	-0,008
-464,372	-16,739	0,018	0,008
-463,357	800,000	0,026	-0,056
-462,343	-135,722	0,072	-0,006
-461,328	-119,606	-0,039	0,005
-460,313	41,390	0,086	0,056
-459,299	29,538	0,032	0,020
-458,284	373,574	-0,075	0,112
-457,270	-107,382	0,087	-0,014
-456,255	-50,035	-0,105	-0,036
-455,241	48,840	-0,103	-0,070
-454,226	-200,000	-0,017	-0,071
-453,211	-200,000	-0,018	0,079
-452,197	-200,000	0,048	0,158
-451,182	-40,567	-0,080	0,030
-450,168	800,000	0,059	0,153
-449,153	48,452	-0,056	-0,038
-448,138	800,000	0,036	-0,080
-447,124	100,593	-0,097	-0,082
-446,109	219,334	-0,120	-0,140
-445,095	149,982	0,050	-0,050
-444,080	-200,000	-0,010	-0,077
-443,065	800,000	0,032	0,086
-442,051	101,043	-0,032	0,027
-441,036	800,000	0,024	-0,071
-440,022	-43,029	-0,049	0,018
-439,007	-105,006	0,117	0,019
-437,992	146,386	-0,088	0,086
-436,978	-10,798	0,133	0,064
-435,963	40,817	0,072	-0,047
-434,949	-46,272	0,049	0,018
-433,934	800,000	0,028	-0,082
-432,919	-149,740	-0,117	0,007
-431,905	-200,000	-0,029	0,096
-430,890	71,841	-0,064	0,048
-429,876	178,915	0,036	-0,039
-428,861	-171,212	0,000	0,000
-427,846	-41,570	0,106	0,040
-426,832	15,766	0,054	0,031
-425,817	343,263	0,035	-0,050
-424,803	417,134	0,056	-0,088
-423,788	-106,853	0,191	0,031
-422,773	287,097	0,085	0,112
-421,759	101,040	0,083	-0,070
-420,744	748,435	-0,014	-0,027
-419,730	-150,046	0,046	0,003
-418,715	19,958	-0,060	0,035
-417,701	171,436	0,057	-0,060
-416,686	-200,000	0,027	0,101
-415,671	-47,271	0,057	-0,020
-414,657	56,764	0,131	0,093
-413,642	-168,080	-0,024	-0,001
-412,628	231,971	-0,172	-0,205
-411,613	-200,000	-0,032	-0,148
-410,598	79,219	0,065	0,050
-409,584	-117,586	0,024	0,003
-408,569	-43,241	0,155	-0,057
-407,555	474,321	-0,071	-0,117
-406,540	125,905	-0,122	-0,112
-405,525	43,219	0,113	0,075
-404,511	800,000	0,038	-0,095
-403,496	9,533	0,042	-0,023
-402,482	-200,000	0,004	-0,112
-401,467	-86,429	0,103	-0,023
-400,452	800,000	-0,024	0,061
-399,438	-114,845	-0,052	-0,007
-398,423	-129,344	0,102	0,010
-397,409	124,100	0,030	0,028
-396,394	-200,000	0,014	-0,131
-395,379	-200,000	-0,025	0,102
-394,365	33,967	-0,129	0,081
-393,350	175,546	-0,057	0,061
-392,336	127,219	0,090	0,083
-391,321	314,638	-0,086	-0,117
-390,306	800,000	-0,046	-0,146
-389,292	15,588	-0,069	-0,039
-388,277	-53,982	0,043	-0,014
-387,263	5,108	0,029	0,015
-386,248	-200,000	0,022	-0,135
-385,233	-200,000	-0,004	0,045
-384,219	1,505	-0,106	0,055
-383,204	-125,271	-0,045	-0,005
-382,190	-108,815	0,004	-0,001
-381,175	-46,861	0,039	0,014
-380,160	309,943	-0,028	0,039
-379,146	20,036	0,089	0,052
-378,131	283,138	0,039	0,052
-377,117	208,779	-0,032	0,037
-376,102	19,532	0,046	-0,027
-375,088	-5,084	-0,081	0,040
-374,073	-66,065	-0,078	-0,023
-373,058	32,915	-0,075	-0,047
-372,044	-200,000	-0,008	0,122
-371,029	14,799	0,043	0,024
-370,015	255,614	0,025	-0,031
-369,000	205,816	-0,069	0,078
-367,985	141,885	-0,170	-0,163
-366,971	-200,000	0,017	-0,179
-365,956	683,394	0,055	-0,105
-364,942	-85,020	0,080	0,018
-363,927	12,866	0,083	-0,046
-362,912	-115,530	0,035	-0,005
-361,898	800,000	-0,014	0,031
-360,883	44,908	-0,048	-0,032
-359,869	-200,000	-0,011	0,054
-358,854	-87,190	-0,086	0,019
-357,839	-126,301	0,092	0,010
-356,825	177,940	-0,064	-0,068
-355,810	485,605	-0,053	0,087
-354,796	510,865	-0,061	0,103
-353,781	159,818	-0,166	-0,168
-352,766	441,243	-0,049	-0,078
-351,752	292,735	0,044	-0,059
-350,737	46,148	0,072	0,048
-349,723	760,581	-0,045	-0,089
-348,708	92,424	-0,067	0,055
-347,693	715,873	0,016	-0,032
-346,679	70,271	0,029	-0,022
-345,664	-200,000	0,007	-0,188
-344,650	-93,628	0,127	0,025
-343,635	65,903	-0,070	0,051
-342,620	-97,794	0,049	-0,009
-341,606	35,121	-0,113	-0,071
-340,591	-7,707	-0,156	-0,076
-339,577	-192,423	0,064	0,000
-338,562	-167,904	-0,124	-0,003
-337,548	-200,000	0,000	-0,029
-336,533	-50,938	0,072	0,024
-335,518	-20,057	-0,139	0,062
-334,504	107,949	-0,032	0,027
-333,489	-154,666	-0,091	0,004
-332,475	138,803	0,065	-0,062
-331,460	-51,036	-0,024	0,008
-330,445	-56,569	0,163	0,052
-329,431	-200,000	0,002	0,149
-328,416	313,420	0,096	0,132
-327,402	-69,124	0,075	0,021
-326,387	-62,294	0,036	-0,011
-325,372	-63,649	0,053	-0,016
-324,358	-200,000	-0,001	0,112
-323,343	126,967	-0,039	-0,036
-322,329	800,000	-0,051	-0,152
-321,314	-43,138	-0,117	-0,043
-320,299	372,186	-0,021	-0,031
-319,285	-85,004	0,085	0,019
-318,270	650,143	-0,019	0,035
-317,256	-200,000	-0,030	-0,120
-316,241	800,000	-0,028	-0,059
-315,226	800,000	-0,036	0,109
-314,212	3,874	0,048	0,025
-313,197	84,804	0,065	-0,052
-312,183	25,204	0,013	0,008
-311,168	236,964	0,080	-0,096
-310,153	-48,413	0,031	0,011
-309,139	-200,000	-0,024	0,105
-308,124	241,676	0,102	0,124
-307,110	249,717	-0,036	0,045
-306,095	-200,000	0,005	0,049
-305,080	800,000	-0,041	0,112
-304,066	-200,000	-0,015	-0,139
-303,051	160,246	0,076	-0,077
-302,037	111,711	-0,067	-0,059
-301,022	269,894	0,093	-0,118
-300,008	-53,647	-0,030	-0,010
-298,993	166,248	-0,063	0,065
-297,978	67,593	0,019	0,014
-296,964	227,362	-0,050	0,059
-295,949	623,675	-0,068	-0,124
-294,935	367,254	0,063	-0,092
-293,920	800,000	-0,025	0,058
-292,905	-200,000	-0,011	-0,165
-291,891	240,670	0,072	0,087
-290,876	800,000	-0,020	0,047
-289,862	-71,305	-0,139	0,037
-288,847	800,000	-0,060	-0,138
-287,832	-200,000	-0,006	-0,059
-286,818	-200,000	-0,004	0,027
-285,803	-30,685	-0,110	-0,045
-284,789	-125,023	0,072	0,008
-283,774	-82,722	0,169	-0,039
-282,759	800,000	-0,079	-0,184
-281,745	800,000	-0,070	0,151
-280,730	-45,250	-0,089	-0,032
-279,716	-200,000	0,005	-0,025
-278,701	-116,321	-0,058	0,008
-277,686	800,000	0,028	0,081
-276,672	334,729	0,023	0,033
-275,657	-200,000	-0,008	0,058
-274,643	800,000	-0,041	-0,096
-273,628	65,001	-0,110	-0,080
-272,613	-200,000	-0,015	0,184
-271,599	800,000	-0,054	0,167
-270,584	714,205	0,079	0,153
-269,570	17,192	0,134	0,077
-268,555	158,136	0,070	0,070
-267,540	-3,733	-0,093	0,047
-266,526	162,067	0,110	0,112
-265,511	640,160	-0,081	0,150
-264,497	174,686	0,053	0,056
-263,482	201,660	0,035	0,039
-262,467	800,000	0,028	0,075
-261,453	-30,293	0,104	-0,042
-260,438	33,771	-0,043	-0,027
-259,424	211,183	0,051	-0,058
-258,409	360,693	0,047	-0,068
-257,395	-125,248	-0,171	0,019
-256,380	-109,732	0,067	0,010
-255,365	689,371	-0,054	-0,102
-254,351	260,166	-0,008	0,010
-253,336	314,561	-0,044	-0,061
-252,322	-200,000	-0,006	-0,039
-251,307	800,000	-0,046	-0,103
-250,292	-200,000	0,003	0,104
-249,278	-144,547	-0,143	0,009
-248,263	-200,000	0,040	0,191
-247,249	-131,472	-0,131	0,012
-246,234	800,000	0,050	-0,141
-245,219	-23,214	-0,137	-0,059
-244,205	356,237	-0,068	0,098
-243,190	160,027	0,110	-0,111
-242,176	70,591	-0,079	-0,059
-241,161	-46,837	0,029	0,010
-240,146	-200,000	-0,019	-0,077
-239,132	-200,000	0,006	0,046
-238,117	-23,247	0,074	-0,032
-237,103	134,541	-0,050	0,047
-236,088	352,097	0,046	-0,065
-235,073	142,501	0,030	-0,029
-234,059	-200,000	-0,068	-0,000
-233,044	172,103	0,120	0,125
-232,030	-0,551	-0,073	-0,037
-231,015	-200,000	-0,007	-0,056
-230,000	68,424	-0,064	-0,047
-228,986	-200,000	-0,020	-0,093
-227,971	-200,000	-0,010	-0,059
-226,957	-6,981	0,121	0,059
-225,942	103,428	-0,026	0,022
-224,927	800,000	-0,030	0,085
-223,913	205,701	0,006	-0,006
-222,898	192,702	0,080	0,087
-221,884	6,995	-0,059	-0,032
-220,869	-200,000	-0,011	0,037
-219,855	800,000	0,040	-0,093
-218,840	352,954	0,022	-0,031
-217,825	-200,000	-0,013	0,082
-216,811	-22,128	-0,073	-0,032
-215,796	21,114	-0,040	-0,023
-214,782	56,788	0,024	0,017
-213,767	800,000	0,050	-0,117
-212,752	290,090	-0,046	0,060
-211,738	-36,949	0,030	-0,011
-210,723	347,430	-0,081	0,116
-209,709	26,663	-0,105	0,063
-208,694	45,112	-0,034	0,023
-207,679	-36,656	-0,096	-0,037
-206,665	-200,000	0,029	-0,145
-205,650	-140,593	0,088	0,006
-204,636	800,000	-0,056	0,139
-203,621	19,434	-0,107	-0,062
-202,606	-200,000	-0,014	-0,050
-201,592	151,018	0,062	-0,061
-200,577	-120,540	-0,074	-0,009
-199,563	-53,519	-0,080	0,026
-198,548	9,637	0,127	0,069
-197,533	-200,000	-0,021	0,096
-196,519	800,000	0,030	-0,067
-195,504	37,726	-0,136	0,087
-194,490	-200,000	-0,006	-0,141
-193,475	-200,000	0,003	-0,031
-192,460	148,811	0,045	-0,043
-191,446	800,000	0,075	0,160
-190,431	39,981	0,127	-0,082
-189,417	347,016	-0,029	0,042
-188,402	142,119	0,045	-0,043
-187,387	-34,006	-0,129	-0,051
-186,373	-200,000	0,008	0,078
-185,358	-120,766	-0,026	0,003
-184,344	453,704	0,072	0,115
-183,329	-200,000	-0,010	-0,067
-182,315	311,596	-0,055	0,075
-181,300	800,000	0,052	-0,108
-180,285	-200,000	-0,026	-0,142
-179,271	-66,109	-0,174	0,050
-178,256	171,660	0,087	0,090
-177,242	-98,713	-0,010	-0,002
-176,227	391,561	0,048	0,071
-175,212	37,917	0,020	0,013
-174,198	1,910	-0,090	0,046
-173,183	-200,000	-0,027	-0,153
-172,169	-153,333	-0,087	0,004
-171,154	93,475	0,046	0,037
-170,139	-200,000	0,003	0,090
-169,125	289,607	0,049	0,064
-168,110	-200,000	0,005	0,017
-167,096	-109,153	0,091	-0,014
-166,081	99,034	-0,060	0,050
-165,066	800,000	-0,023	-0,063
-164,052	-200,000	-0,002	-0,075
-163,037	800,000	0,037	-0,113
-162,023	293,010	0,071	0,094
-161,008	190,799	-0,055	-0,059
-159,993	-16,486	-0,035	-0,016
-158,979	800,000	-0,020	0,051
-157,964	-169,807	0,042	0,001
-156,950	-200,000	0,006	0,020
-155,935	584,950	-0,058	0,104
-154,920	61,004	0,064	0,046
-153,906	124,346	-0,135	-0,122
-152,891	-200,000	-0,026	0,099
-151,877	55,262	-0,039	-0,027
-150,862	-200,000	0,003	-0,198
-149,847	-200,000	0,010	-0,085
-148,833	-200,000	-0,011	-0,093
-147,818	-98,029	-0,122	0,022
-146,804	434,629	-0,082	0,128
-145,789	-2,166	0,114	0,058
-144,775	123,305	-0,105	0,095
-143,760	258,905	-0,061	-0,076
-142,745	160,363	-0,062	-0,062
-141,731	-87,033	-0,050	0,011
-140,716	675,249	-0,019	0,036
-139,702	800,000	0,068	0,154
-138,687	-22,054	-0,102	-0,044
-137,672	800,000	0,024	-0,067
-136,658	110,566	-0,114	0,099
-135,643	800,000	-0,077	-0,171
-134,629	44,449	-0,050	-0,033
-133,614	24,896	0,137	-0,081
-132,599	-93,620	0,078	0,015
-131,585	49,324	-0,099	0,067
-130,570	800,000	0,017	-0,055
-129,556	194,572	-0,041	-0,045
-128,541	-53,914	-0,075	0,025
-127,526	-200,000	0,004	0,055
-126,512	294,322	-0,053	0,069
-125,497	-200,000	0,005	-0,087
-124,483	-144,964	-0,022	-0,001
-123,468	506,214	-0,076	-0,127
-122,453	-54,933	-0,074	0,024
-121,439	229,240	0,080	0,095
-120,424	-200,000	0,029	0,097
-119,410	-200,000	-0,020	-0,084
-118,395	-146,710	0,118	0,007
-117,380	800,000	-0,028	-0,085
-116,366	287,475	-0,024	0,031
-115,351	23,015	-0,058	-0,034
-114,337	525,938	-0,087	-0,148
-113,322	177,141	-0,110	0,115
-112,307	376,690	0,033	0,048
-111,293	-44,872	0,138	-0,049
-110,278	30,316	0,180	-0,110
-109,264	-3,553	-0,055	0,028
-108,249	-57,647	-0,089	-0,028
-107,234	-200,000	-0,005	-0,056
-106,220	201,082	-0,103	-0,114
-105,205	108,064	0,184	-0,157
-104,191	800,000	0,014	-0,033
-103,176	-98,995	0,091	0,017
-102,162	346,575	0,064	0,091
-101,147	101,178	-0,078	0,065
-100,132	495,330	-0,105	-0,174
-99,118	62,622	-0,151	-0,108
-98,103	800,000	-0,012	-0,033
-97,089	214,143	0,097	0,111
-96,074	-200,000	-0,045	0,200
-95,059	-121,687	0,080	0,009
-94,045	-98,896	-0,102	-0,018
-93,030	800,000	-0,036	0,084
-92,016	-200,000	-0,016	0,096
-91,001	82,864	0,091	0,071
-89,986	79,114	0,025	-0,020
-88,972	130,149	-0,114	-0,105
-87,957	-129,330	0,066	-0,006
-86,943	9,372	-0,051	-0,028
-85,928	-200,000	0,018	0,068
-84,913	736,863	0,033	0,065
-83,899	-200,000	0,025	-0,107
-82,884	8,212	0,121	-0,065
-81,870	-66,527	-0,042	-0,012
-80,855	-200,000	-0,010	0,115
-79,840	-25,182	-0,115	-0,049
-78,826	497,483	-0,091	-0,150
-77,811	74,783	-0,046	0,035
-76,797	-200,000	-0,012	-0,061
-75,782	-57,132	-0,042	-0,013
-74,767	-45,546	0,146	-0,052
-73,753	-110,447	-0,184	0,027
-72,738	800,000	-0,049	0,119
-71,724	800,000	-0,056	-0,113
-70,709	-137,986	-0,041	0,003
-69,694	800,000	-0,012	-0,025
-68,680	114,181	0,136	-0,119
-67,665	110,659	-0,061	0,053
-66,651	-200,000	0,003	-0,020
-65,636	732,879	-0,054	-0,105
-64,622	13,559	-0,127	-0,071
-63,607	-163,366	-0,135	0,005
-62,592	30,385	-0,126	-0,077
-61,578	800,000	-0,004	0,010
-60,563	114,006	-0,068	0,059
-59,549	94,818	-0,034	0,028
-58,534	101,550	-2,708	-2,263
-57,519	-36,111	0,563	-0,217
-56,505	-200,000	-1,675	-5,538
-55,490	544,251	1,232	2,119
-54,476	800,000	5,325	11,278
-53,461	-200,000	22,752	348,284
-52,446	800,000	765,537	2263,873
-51,432	496,714	1643,478	2720,846
-50,417	93,203	1599,741	1296,603
-49,403	60,905	1255,071	891,649
-48,388	21,138	1007,084	584,626
-47,373	18,423	974,729	556,953
-46,359	11,738	961,797	527,901
-45,344	7,662	958,627	512,927
-44,330	8,115	956,208	513,079
-43,315	7,172	954,481	509,084
-42,300	7,069	953,541	508,231
-41,286	7,109	952,449	507,757
-40,271	7,115	951,344	507,168
-39,257	7,136	950,621	506,830
-38,242	7,136	949,803	506,375
-37,227	7,074	948,830	505,634
-36,213	7,156	947,984	505,426
-35,198	7,093	947,234	504,804
-34,184	7,100	946,683	504,514
-33,169	7,055	945,484	503,712
-32,154	7,111	944,880	503,550
-31,140	7,103	943,914	502,989
-30,125	7,171	943,206	502,809
-29,111	7,138	942,450	502,281
-28,096	7,079	941,958	501,809
-27,082	7,096	941,336	501,511
-26,067	7,035	940,426	500,813
-25,052	7,081	939,486	500,439
-24,038	7,101	938,982	500,214
-23,023	7,144	938,089	499,854
-22,009	7,065	937,595	499,320
-20,994	7,149	936,760	499,124
-19,979	7,057	936,460	498,652
-18,965	7,058	935,731	498,247
-17,950	7,109	935,260	498,140
-16,936	7,021	934,559	497,466
-15,921	7,058	933,783	497,150
-14,906	6,970	933,171	496,528
-13,892	6,976	932,732	496,292
-12,877	6,952	932,002	495,808
-11,863	6,938	931,399	495,423
-10,848	6,945	930,850	495,136
-9,833	7,029	930,471	495,179
-8,819	7,003	929,628	494,629
-7,804	6,942	929,000	494,084
-6,790	6,943	928,372	493,732
-5,775	7,024	927,912	493,721
-4,760	7,002	927,377	493,348
-3,746	6,949	926,772	492,842
-2,731	6,811	926,043	492,000
-1,717	6,866	925,332	491,777
-0,702	6,819	924,830	491,344
0,313	6,659	924,035	491,162
1,327	10,125	921,439	500,546
2,342	18,677	770,438	440,661
3,356	13,645	442,486	245,580
4,371	-12,304	309,630	144,510
5,386	-16,095	292,492	132,701
6,400	-18,070	286,379	127,977
7,415	-18,237	283,777	126,640
8,429	-18,966	281,956	125,112
9,444	-19,264	281,185	124,471
10,459	-19,106	280,564	124,337
11,473	-19,208	279,922	123,944
12,488	-19,060	279,495	123,886
13,502	-18,819	278,851	123,819
14,517	-18,926	278,583	123,587
15,531	-18,871	278,071	123,401
16,546	-18,761	277,587	123,281
17,561	-18,797	277,292	123,104
18,575	-18,760	276,902	122,954
19,590	-18,888	276,626	122,700
20,604	-18,684	276,293	122,735
21,619	-18,919	276,094	122,413
22,634	-18,915	275,708	122,235
23,648	-18,737	275,270	122,198
24,663	-19,054	275,157	121,837
25,677	-18,687	274,785	122,008
26,692	-18,803	274,588	121,800
27,707	-18,779	274,143	121,615
28,721	-18,748	273,975	121,558
29,736	-18,724	273,801	121,492
30,750	-18,812	273,384	121,214
31,765	-18,828	273,187	121,101
32,780	-18,961	272,963	120,867
33,794	-18,876	272,749	120,840
34,809	-18,761	272,395	120,780
35,823	-18,768	272,305	120,723
36,838	-18,831	272,058	120,544
37,853	-18,962	271,890	120,337
38,867	-18,897	271,547	120,235
39,882	-18,878	271,262	120,115
40,896	-18,679	270,984	120,166
41,911	-18,963	270,788	119,806
42,926	-18,887	270,502	119,739
43,940	-18,761	270,146	119,686
44,955	-18,801	270,012	119,580
45,969	-18,618	269,832	119,658
46,984	-18,669	269,657	119,523
47,999	-18,656	269,574	119,488
49,013	-18,489	269,309	119,513
50,028	-18,588	269,077	119,308
51,042	-18,518	268,833	119,253
52,057	-18,706	268,670	118,998
53,071	-18,568	268,331	118,964
54,086	-18,759	268,236	118,737
55,101	-18,583	267,858	118,719
56,115	-18,789	267,571	118,393
57,130	-18,773	267,366	118,307
58,144	-18,659	266,997	118,237
59,159	-18,777	266,892	118,072
60,174	-19,039	266,629	117,707
61,188	-18,713	266,303	117,849
62,203	-18,941	266,209	117,589
63,217	-18,725	265,919	117,647
64,232	-18,771	265,697	117,497
65,247	-18,745	265,371	117,366
66,261	-18,686	265,125	117,300
67,276	-18,739	265,056	117,210
68,290	-18,796	264,902	117,081
69,305	-18,555	264,585	117,147
70,320	-18,551	264,418	117,066
71,334	-18,557	264,120	116,919
72,349	-18,845	263,887	116,546
73,363	-18,820	263,603	116,433
74,378	-18,775	263,406	116,376
75,393	-18,895	263,279	116,202
76,407	-18,668	262,967	116,257
77,422	-18,584	262,685	116,197
78,436	-18,782	262,561	115,956
79,451	-18,616	262,333	115,992
80,466	-18,780	262,129	115,746
81,480	-18,743	261,747	115,599
82,495	-18,695	261,663	115,595
83,509	-18,658	261,463	115,529
84,524	-18,572	261,244	115,498
85,539	-18,554	261,110	115,445
86,553	-18,578	260,775	115,265
87,568	-18,801	260,661	115,006
88,582	-18,539	260,369	115,100
89,597	-18,610	260,169	114,939
90,611	-18,696	259,873	114,721
91,626	-18,626	259,794	114,738
92,641	-18,667	259,585	114,599
93,655	-18,754	259,399	114,430
94,670	-18,870	259,316	114,280
95,684	-18,749	258,874	114,182
96,699	-18,651	258,669	114,168
97,714	-18,467	258,420	114,210
98,728	-18,559	258,328	114,078
99,743	-18,585	258,123	113,955
100,757	-18,374	257,821	113,996
101,772	-18,607	257,717	113,736
102,787	-18,920	257,584	113,393
103,801	-18,919	257,361	113,286
104,816	-18,630	257,050	113,391
105,830	-18,546	256,866	113,373
106,845	-18,547	256,685	113,282
107,860	-18,613	256,562	113,161
108,874	-18,694	256,287	112,958
109,889	-18,732	256,182	112,869
110,903	-18,941	256,050	112,619
111,918	-18,823	255,824	112,612
112,933	-18,664	255,496	112,596
113,947	-18,507	255,305	112,638
114,962	-18,610	255,098	112,447
115,976	-18,662	254,887	112,299
116,991	-18,595	254,581	112,212
118,006	-18,684	254,538	112,106
119,020	-18,679	254,328	112,008
120,035	-18,706	254,237	111,935
121,049	-18,629	254,060	111,913
122,064	-18,677	253,832	111,761
123,079	-18,710	253,610	111,625
124,093	-18,744	253,311	111,454
125,108	-18,628	253,175	111,484
126,122	-18,598	253,061	111,450
127,137	-18,372	252,858	111,544
128,151	-18,617	252,731	111,268
129,166	-18,510	252,318	111,168
130,181	-18,462	252,194	111,145
131,195	-18,560	252,089	111,005
132,210	-18,583	251,824	110,858
133,224	-18,587	251,579	110,737
134,239	-18,617	251,433	110,638
135,254	-18,682	251,206	110,472
136,268	-18,633	251,007	110,416
137,283	-18,494	250,849	110,456
138,297	-18,651	250,743	110,266
139,312	-18,583	250,416	110,170
140,327	-18,485	250,171	110,135
141,341	-18,604	249,942	109,924
142,356	-18,747	249,893	109,771
143,370	-18,705	249,598	109,667
144,385	-18,704	249,480	109,607
145,400	-18,590	249,287	109,609
146,414	-18,578	249,042	109,501
147,429	-18,625	248,829	109,358
148,443	-18,597	248,701	109,315
149,458	-18,640	248,408	109,141
150,473	-18,925	248,313	108,850
151,487	-18,408	248,058	109,162
152,502	-18,655	247,931	108,890
153,516	-18,738	247,697	108,708
154,531	-18,632	247,600	108,744
155,546	-18,660	247,351	108,601
156,560	-18,636	247,285	108,583
157,575	-18,615	246,915	108,428
158,589	-18,523	246,899	108,488
159,604	-18,486	246,471	108,321
160,619	-18,558	246,382	108,213
161,633	-18,676	246,307	108,072
162,648	-18,587	246,124	108,056
163,662	-18,639	246,035	107,964
164,677	-18,510	245,840	107,976
165,692	-18,639	245,544	107,730
166,706	-18,681	245,402	107,623
167,721	-18,610	245,354	107,651
168,735	-18,557	245,107	107,577
169,750	-18,523	244,823	107,470
170,764	-18,607	244,784	107,375
171,779	-18,478	244,514	107,353
172,794	-18,627	244,554	107,238
173,808	-18,670	244,281	107,073
174,823	-18,317	244,113	107,281
175,837	-18,413	243,894	107,096
176,852	-18,719	243,787	106,788
177,867	-18,635	243,735	106,825
178,881	-18,639	243,365	106,650
179,896	-18,668	243,309	106,592
180,910	-18,502	242,969	106,569
181,925	-18,559	242,698	106,394
182,940	-18,506	242,587	106,380
183,954	-18,398	242,441	106,395
184,969	-18,666	242,399	106,148
185,983	-18,610	242,186	106,091
186,998	-18,611	242,070	106,030
188,013	-18,510	241,865	106,012
189,027	-18,602	241,716	105,863
190,042	-18,649	241,493	105,718
191,056	-18,667	241,281	105,600
192,071	-18,373	241,109	105,755
193,086	-18,626	240,979	105,483
194,100	-18,445	240,781	105,534
195,115	-18,691	240,441	105,176
196,129	-18,587	240,176	105,135
197,144	-18,616	240,087	105,063
198,159	-18,477	239,901	105,085
199,173	-18,504	239,955	105,077
200,188	-18,633	239,745	104,872
201,202	-18,300	239,461	105,007
202,217	-18,540	239,464	104,805
203,232	-18,362	239,172	104,811
204,246	-18,608	238,960	104,511
205,261	-18,757	238,790	104,307
206,275	-17,093	239,212	105,823
207,290	-12,516	240,962	110,301
208,304	-6,000	242,974	116,530
209,319	-2,248	244,014	120,087
210,334	-1,201	244,230	121,037
211,348	-0,218	244,330	121,879
212,363	0,233	244,233	122,188
213,377	0,384	244,054	122,211
214,392	0,492	244,127	122,324
215,407	0,788	243,993	122,487
216,421	0,902	243,925	122,535
217,436	0,796	243,721	122,336
218,450	1,123	243,506	122,483
219,465	1,085	243,541	122,459
220,480	1,091	243,282	122,323
221,494	1,088	243,019	122,176
222,509	0,655	242,792	121,701
223,523	0,534	242,597	121,494
224,538	0,423	242,464	121,327
225,553	0,279	242,347	121,141
226,567	0,596	242,134	121,280
227,582	0,383	242,033	121,046
228,596	0,280	241,934	120,903
229,611	0,570	241,642	120,980
230,626	0,443	241,415	120,753
231,640	0,260	241,334	120,555
232,655	0,360	241,142	120,528
233,669	0,241	240,942	120,323
234,684	0,272	240,753	120,242
235,699	0,438	240,727	120,352
236,713	0,571	240,508	120,339
237,728	0,395	240,458	120,161
238,742	0,540	240,128	120,102
239,757	0,459	239,989	119,956
240,772	0,457	239,928	119,914
241,786	0,428	239,761	119,797
242,801	0,327	239,597	119,623
243,815	0,328	239,449	119,540
244,830	0,394	239,263	119,489
245,844	0,340	239,130	119,368
246,859	0,406	238,983	119,337
247,874	0,432	238,807	119,259
248,888	0,328	238,710	119,117
249,903	0,353	238,492	119,018
250,917	0,564	238,393	119,125
251,932	0,589	238,094	118,985
252,947	0,433	238,066	118,837
253,961	0,551	237,793	118,783
254,976	0,326	237,733	118,565
255,990	0,476	237,583	118,598
257,005	0,464	237,328	118,450
258,020	0,350	237,447	118,410
259,034	0,464	237,134	118,333
260,049	0,554	237,003	118,327
261,063	0,352	236,842	118,078
262,078	0,326	236,678	117,965
263,093	0,442	236,418	117,916
264,107	0,502	236,330	117,909
265,122	0,522	236,236	117,867
266,136	0,408	236,049	117,674
267,151	0,648	235,842	117,748
268,166	0,270	235,713	117,377
269,180	0,706	235,386	117,545
270,195	0,566	235,333	117,398
271,209	0,474	235,162	117,231
272,224	0,331	235,105	117,080
273,239	0,435	234,964	117,080
274,253	0,511	234,765	117,031
275,268	0,399	234,622	116,862
276,282	0,426	234,499	116,811
277,297	0,476	234,392	116,786
278,312	0,456	234,127	116,628
279,326	0,548	233,933	116,593
280,341	0,472	233,895	116,504
281,355	0,466	233,728	116,406
282,370	0,577	233,630	116,433
283,384	0,634	233,419	116,362
284,399	0,517	233,318	116,211
285,414	0,322	233,128	115,955
286,428	0,553	232,974	116,045
287,443	0,578	232,838	115,987
288,457	0,492	232,724	115,853
289,472	0,459	232,532	115,723
290,487	0,467	232,404	115,654
291,501	0,516	232,259	115,609
292,516	0,459	232,190	115,521
293,530	0,690	232,009	115,599
294,545	0,625	231,864	115,466
295,560	0,499	231,663	115,259
296,574	0,378	231,680	115,164
297,589	0,528	231,378	115,119
298,603	0,627	231,279	115,135
299,618	0,787	230,995	115,106
300,633	0,396	231,074	114,835
301,647	0,733	230,933	115,013
302,662	0,676	230,779	114,883
303,676	0,738	230,567	114,814
304,691	0,893	230,402	114,840
305,706	0,561	230,061	114,407
306,720	0,711	230,221	114,591
307,735	0,768	229,956	114,492
308,749	0,766	229,769	114,387
309,764	0,667	229,701	114,267
310,779	0,791	229,500	114,252
311,793	0,693	229,270	114,053
312,808	0,770	229,175	114,053
313,822	0,580	229,085	113,855
314,837	0,767	228,869	113,879
315,852	1,051	228,689	113,994
316,866	0,939	228,622	113,866
317,881	0,751	228,425	113,616
318,895	0,672	228,345	113,506
319,910	0,981	228,105	113,610
320,925	0,925	227,947	113,478
321,939	0,583	227,882	113,178
322,954	0,873	227,784	113,338
323,968	0,995	227,638	113,347
324,983	0,854	227,451	113,138
325,997	0,703	227,330	112,954
327,012	0,706	227,120	112,842
328,027	0,718	227,060	112,811
329,041	0,780	226,876	112,756
330,056	0,785	226,733	112,678
331,070	0,901	226,600	112,689
332,085	0,686	226,404	112,421
333,100	1,055	226,192	112,582
334,114	0,989	225,986	112,420
335,129	0,845	225,952	112,285
336,143	0,699	225,812	112,097
337,158	0,963	225,671	112,214
338,173	0,953	225,593	112,158
339,187	0,926	225,530	112,095
340,202	0,890	225,203	111,896
341,216	0,888	225,233	111,900
342,231	0,926	224,970	111,787
343,246	0,830	224,954	111,698
344,260	0,890	224,771	111,642
345,275	0,979	224,597	111,611
346,289	1,060	224,559	111,643
347,304	1,123	224,332	111,567
348,319	0,864	224,189	111,293
349,333	1,050	224,064	111,359
350,348	1,054	223,915	111,278
351,362	0,992	223,692	111,112
352,377	0,932	223,658	111,040
353,392	1,088	223,492	111,064
354,406	0,996	223,239	110,860
355,421	190,934	1311,936	1372,575
356,435	152,822	1444,410	1372,396
