DTS Sentinel unit serial number:	SN410029Multiplexer serial number:	ORYXHardware model number:	OX2-SRSoftware version number:	ORYX F/W v4,00 Oryx Data Collector v3.7.2.0data status	okinstallation	B5 Nyhavnadifferential loss correction	single-endedforward channel	channel 2reverse channel	N/Adate	2023/12/11time	22:32:13forward acquisition time	300,00reverse acquisition time	0,00gamma	499,1914k internal	0,3156k external	0,3156temperature offset calibration	1,0000default loss term (dB/km)	0,3820temperature slope calibration	1,0000multiplexer offset coefficient	1,0000multiplexer slope coefficient	1,0000fibre end	0,00T internal ref (°C)	16,31T ext. ref 1 (°C)	0,14T ext. ref 2 (°C)	-0,14length (m)	temperature (°C)	Stokes	anti-Stokes-744,400	-200,000	0,030	-0,101
-743,385	-194,947	-0,228	-0,001
-742,371	-6,150	0,136	0,068
-741,356	-136,634	-0,097	0,008
-740,342	288,579	0,065	0,087
-739,327	-152,866	-0,323	-0,017
-738,312	800,000	0,063	0,160
-737,298	-139,625	-0,359	0,028
-736,283	-66,931	0,129	0,037
-735,269	-0,034	-0,219	0,115
-734,254	800,000	0,074	0,175
-733,239	-186,511	-0,457	0,005
-732,225	-18,806	0,206	-0,094
-731,210	25,550	0,039	0,024
-730,196	-200,000	-0,006	0,058
-729,181	169,119	-0,053	-0,056
-728,167	29,787	0,170	-0,107
-727,152	-48,002	-0,021	-0,008
-726,137	800,000	0,012	-0,026
-725,123	204,545	-0,084	-0,097
-724,108	449,471	0,050	0,081
-723,094	800,000	-0,112	-0,233
-722,079	800,000	0,012	-0,031
-721,064	-3,180	0,018	0,009
-720,050	85,417	-0,050	-0,040
-719,035	369,871	-0,096	-0,143
-718,021	371,914	-0,023	-0,034
-717,006	-36,914	-0,121	-0,048
-715,991	-200,000	-0,009	-0,031
-714,977	-117,523	-0,105	0,014
-713,962	190,700	-0,077	0,086
-712,948	422,708	-0,048	0,076
-711,933	4,905	0,145	0,079
-710,918	58,565	-0,051	0,037
-709,904	-8,836	-0,093	-0,046
-708,889	28,023	-0,057	0,035
-707,875	404,805	-0,056	-0,087
-706,860	-200,000	0,014	0,073
-705,845	-200,000	0,052	-0,185
-704,831	89,425	-0,013	-0,011
-703,816	-45,982	-0,194	0,070
-702,802	-200,000	-0,026	0,124
-701,787	-200,000	-0,007	-0,202
-700,772	-136,074	-0,072	-0,006
-699,758	-200,000	-0,011	-0,138
-698,743	-76,516	-0,056	-0,014
-697,729	216,024	-0,038	-0,045
-696,714	-200,000	-0,016	0,073
-695,699	-200,000	-0,001	-0,009
-694,685	-145,200	-0,031	-0,002
-693,670	539,797	0,051	-0,090
-692,656	-54,051	0,065	0,022
-691,641	563,160	0,064	-0,114
-690,627	39,793	0,076	0,050
-689,612	-200,000	0,030	-0,156
-688,597	-132,547	-0,096	0,009
-687,583	-200,000	-0,012	-0,051
-686,568	199,779	-0,066	-0,075
-685,554	-137,828	-0,058	0,005
-684,539	-80,950	-0,322	-0,078
-683,524	-184,235	-0,059	0,001
-682,510	800,000	-0,027	-0,057
-681,495	-200,000	-0,003	-0,079
-680,481	-35,224	-0,172	-0,068
-679,466	-37,053	-0,076	0,030
-678,451	-104,159	0,100	-0,017
-677,437	-200,000	-0,011	0,076
-676,422	-28,392	0,040	0,017
-675,408	-128,603	-0,181	0,019
-674,393	-35,750	-0,065	0,026
-673,378	-200,000	-0,003	-0,010
-672,364	121,244	-0,095	-0,087
-671,349	-200,000	0,009	-0,068
-670,335	-200,000	-0,042	0,166
-669,320	98,784	-0,086	0,073
-668,305	391,079	-0,075	-0,115
-667,291	787,627	-0,103	-0,210
-666,276	-65,009	-0,140	0,041
-665,262	-200,000	-0,003	-0,079
-664,247	101,636	-0,096	-0,082
-663,232	-200,000	0,020	-0,081
-662,218	103,691	0,061	-0,053
-661,203	-51,150	0,131	0,045
-660,189	-41,234	-0,196	0,074
-659,174	-42,442	-0,017	0,006
-658,159	-200,000	-0,030	0,124
-657,145	16,039	0,068	0,039
-656,130	72,345	-0,045	-0,034
-655,116	112,597	0,136	-0,121
-654,101	-75,947	0,059	0,015
-653,086	186,129	0,029	0,031
-652,072	-97,149	-0,052	-0,010
-651,057	730,569	-0,060	-0,119
-650,043	536,684	-0,025	0,044
-649,028	-200,000	0,009	0,049
-648,014	143,373	-0,036	0,035
-646,999	-200,000	0,007	-0,102
-645,984	-52,210	-0,143	0,048
-644,970	-75,665	-0,031	-0,008
-643,955	45,938	-0,072	-0,049
-642,941	-126,436	-0,131	0,014
-641,926	-38,959	0,092	-0,035
-640,911	-135,173	-0,008	-0,001
-639,897	216,080	-0,083	0,098
-638,882	612,686	-0,081	-0,149
-637,868	256,034	0,078	-0,098
-636,853	214,196	-0,134	-0,156
-635,838	-73,266	0,095	-0,025
-634,824	26,503	0,132	-0,081
-633,809	29,136	-0,040	-0,025
-632,795	49,656	-0,081	0,056
-631,780	30,566	-0,104	0,065
-630,765	569,363	0,021	0,038
-629,751	115,872	0,053	0,047
-628,736	800,000	-0,031	-0,099
-627,722	220,041	-0,020	-0,024
-626,707	404,435	0,039	-0,060
-625,692	-200,000	0,001	-0,065
-624,678	-155,560	0,055	-0,003
-623,663	-62,465	-0,136	-0,041
-622,649	287,706	-0,082	-0,109
-621,634	-105,219	-0,140	0,023
-620,619	65,266	-0,041	-0,030
-619,605	-64,251	0,074	-0,022
-618,590	239,624	-0,041	0,050
-617,576	-200,000	0,000	-0,004
-616,561	112,897	-0,127	-0,113
-615,546	800,000	-0,057	-0,128
-614,532	278,400	0,114	-0,149
-613,517	158,960	-0,031	0,032
-612,503	-200,000	-0,027	-0,115
-611,488	-200,000	-0,017	0,057
-610,474	74,199	-0,107	0,083
-609,459	60,453	-0,041	0,029
-608,444	-12,909	-0,046	0,022
-607,430	4,882	0,087	0,047
-606,415	15,562	0,116	-0,067
-605,401	770,953	0,004	-0,009
-604,386	-13,825	0,153	-0,072
-603,371	624,022	-0,015	0,027
-602,357	-1,067	-0,146	0,075
-601,342	-21,851	0,026	0,012
-600,328	-200,000	0,007	0,047
-599,313	-166,912	-0,173	0,005
-598,298	213,954	-0,090	-0,105
-597,284	310,924	0,037	-0,052
-596,269	407,285	0,053	-0,082
-595,255	-200,000	0,000	0,082
-594,240	505,635	-0,060	0,103
-593,225	226,757	0,006	0,007
-592,211	-50,620	-0,133	0,046
-591,196	310,763	0,012	-0,016
-590,182	-50,471	0,064	-0,022
-589,167	92,612	-0,084	0,070
-588,152	-200,000	0,029	0,144
-587,138	-200,000	0,009	0,075
-586,123	-200,000	0,034	-0,244
-585,109	-200,000	-0,021	-0,103
-584,094	-200,000	0,005	0,052
-583,079	-200,000	-0,002	-0,072
-582,065	-30,915	0,096	-0,040
-581,050	5,020	-0,090	0,049
-580,036	-200,000	0,025	-0,096
-579,021	-68,356	-0,113	-0,032
-578,006	800,000	-0,018	-0,043
-576,992	-200,000	0,004	0,015
-575,977	-200,000	0,010	-0,039
-574,963	35,303	0,019	0,012
-573,948	206,391	-0,051	-0,059
-572,934	-2,115	-0,137	-0,070
-571,919	-200,000	-0,001	-0,022
-570,904	-38,384	-0,105	-0,041
-569,890	-200,000	-0,008	-0,103
-568,875	-86,167	0,020	0,004
-567,861	149,277	-0,043	0,042
-566,846	-50,199	-0,167	0,057
-565,831	66,748	-0,060	-0,045
-564,817	117,000	0,035	-0,031
-563,802	134,022	-0,023	-0,022
-562,788	220,741	0,087	0,102
-561,773	103,010	-0,065	-0,056
-560,758	200,640	0,036	-0,041
-559,744	461,991	-0,051	0,084
-558,729	494,446	-0,081	-0,136
-557,715	-47,085	-0,083	-0,030
-556,700	800,000	0,020	-0,058
-555,685	-89,550	-0,168	-0,036
-554,671	39,522	0,126	-0,082
-553,656	258,742	0,045	0,057
-552,642	-7,821	0,102	0,050
-551,627	-196,007	-0,076	0,000
-550,612	-200,000	0,032	-0,162
-549,598	-200,000	0,002	-0,115
-548,583	-44,616	-0,159	-0,058
-547,569	-125,580	0,062	-0,007
-546,554	568,256	0,026	-0,046
-545,539	-200,000	0,010	0,050
-544,525	800,000	-0,055	-0,114
-543,510	62,013	0,073	-0,053
-542,496	-90,424	0,142	-0,030
-541,481	-200,000	0,011	0,105
-540,466	-123,837	-0,060	-0,007
-539,452	-179,151	0,112	0,002
-538,437	349,601	-0,058	-0,084
-537,423	-200,000	-0,014	0,081
-536,408	-55,206	0,039	-0,013
-535,393	-53,259	0,185	0,062
-534,379	-38,829	-0,029	0,011
-533,364	561,517	-0,064	0,113
-532,350	47,534	-0,005	-0,004
-531,335	800,000	-0,044	0,105
-530,321	39,956	-0,072	0,047
-529,306	-61,568	0,091	0,028
-528,291	800,000	-0,060	0,169
-527,277	-91,910	-0,112	-0,023
-526,262	87,674	-0,124	-0,100
-525,248	-89,791	-0,108	-0,023
-524,233	-119,323	0,070	-0,009
-523,218	-126,762	-0,068	-0,007
-522,204	-200,000	0,008	-0,163
-521,189	60,345	-0,023	0,017
-520,175	588,789	0,028	-0,051
-519,160	-2,726	0,053	-0,027
-518,145	-26,858	0,047	-0,020
-517,131	21,977	0,059	-0,035
-516,116	26,986	0,024	-0,015
-515,102	800,000	0,025	0,070
-514,087	-16,584	-0,041	0,019
-513,072	-71,201	-0,118	-0,032
-512,058	-156,105	0,120	0,005
-511,043	-200,000	0,015	0,105
-510,029	-77,323	0,010	-0,003
-509,014	197,598	-0,089	0,099
-507,999	324,095	0,010	-0,014
-506,985	-200,000	0,028	0,196
-505,970	-200,000	-0,003	0,048
-504,956	-132,649	-0,013	0,001
-503,941	525,957	-0,090	-0,156
-502,926	-100,770	0,081	0,015
-501,912	139,562	0,067	0,065
-500,897	132,936	-0,063	0,060
-499,883	787,005	-0,050	-0,101
-498,868	55,079	-0,065	0,046
-497,853	199,334	-0,057	0,064
-496,839	-97,477	-0,055	0,010
-495,824	800,000	-0,029	-0,074
-494,810	376,080	0,084	0,125
-493,795	-59,553	-0,022	-0,007
-492,781	656,885	-0,045	0,085
-491,766	-37,946	0,081	0,031
-490,751	55,707	0,066	0,047
-489,737	800,000	0,007	-0,023
-488,722	191,747	0,093	-0,103
-487,708	-134,090	0,133	0,012
-486,693	-200,000	0,026	0,087
-485,678	93,542	-0,113	0,093
-484,664	-102,590	-0,093	0,016
-483,649	445,280	-0,050	0,081
-482,635	11,437	-0,092	-0,051
-481,620	-200,000	-0,008	0,144
-480,605	-61,885	0,169	-0,051
-479,591	171,807	0,063	-0,066
-478,576	-129,319	-0,060	-0,006
-477,562	-57,666	-0,111	-0,035
-476,547	-200,000	-0,006	-0,037
-475,532	-115,633	0,107	0,015
-474,518	309,535	0,031	-0,043
-473,503	-0,103	0,044	-0,023
-472,489	-74,516	0,077	0,020
-471,474	800,000	-0,010	-0,031
-470,459	-122,784	-0,164	-0,019
-469,445	144,141	-0,025	0,024
-468,430	186,073	0,097	0,106
-467,416	-200,000	-0,003	0,097
-466,401	-134,322	0,244	0,022
-465,386	-169,810	-0,137	-0,004
-464,372	800,000	0,070	0,155
-463,357	-200,000	-0,004	-0,218
-462,343	-200,000	0,003	0,050
-461,328	-200,000	0,025	0,132
-460,313	-200,000	-0,001	0,055
-459,299	118,415	-0,023	0,020
-458,284	-122,586	0,098	0,011
-457,270	153,533	0,010	-0,010
-456,255	370,343	-0,024	-0,035
-455,241	251,691	-0,076	0,095
-454,226	-71,712	-0,118	-0,032
-453,211	740,953	0,024	0,047
-452,197	-200,000	-0,025	0,110
-451,182	339,384	-0,075	0,107
-450,168	-105,850	-0,056	-0,009
-449,153	-200,000	-0,005	-0,021
-448,138	-153,556	0,112	0,006
-447,124	69,881	0,032	-0,024
-446,109	-22,268	-0,045	-0,020
-445,095	-72,656	0,094	0,025
-444,080	-70,879	-0,116	-0,032
-443,065	114,916	0,030	0,026
-442,051	375,728	0,022	0,032
-441,036	-200,000	-0,011	-0,105
-440,022	-200,000	0,022	0,095
-439,007	800,000	-0,039	-0,093
-437,992	124,303	0,078	0,071
-436,978	-6,528	0,036	-0,018
-435,963	-109,866	0,107	-0,016
-434,949	-37,086	0,077	0,030
-433,934	-25,777	-0,039	0,017
-432,919	800,000	0,029	0,082
-431,905	141,658	-0,127	0,122
-430,890	-200,000	0,038	0,127
-429,876	800,000	-0,009	0,021
-428,861	-200,000	0,004	-0,013
-427,846	291,080	0,108	-0,144
-426,832	141,968	-0,074	0,072
-425,817	264,298	-0,052	-0,066
-424,803	164,039	0,028	-0,029
-423,788	143,741	0,151	0,147
-422,773	-200,000	-0,027	0,131
-421,759	-84,956	0,179	-0,041
-420,744	-200,000	-0,003	-0,097
-419,730	-200,000	0,014	-0,050
-418,715	-200,000	0,004	0,027
-417,701	346,470	0,044	0,063
-416,686	-47,252	0,110	0,039
-415,671	-54,753	0,040	0,013
-414,657	800,000	0,014	-0,029
-413,642	-200,000	0,003	0,065
-412,628	345,956	-0,020	0,028
-411,613	-72,628	0,057	-0,015
-410,598	590,905	-0,079	0,143
-409,584	-112,366	0,025	0,004
-408,569	-155,344	0,199	-0,009
-407,555	89,250	-0,118	-0,096
-406,540	-25,723	0,076	0,032
-405,525	7,047	-0,050	0,027
-404,511	-200,000	0,012	0,080
-403,496	-65,527	-0,071	-0,021
-402,482	-73,530	0,093	0,024
-401,467	472,631	0,046	-0,076
-400,452	-128,597	0,116	0,012
-399,438	133,353	0,090	-0,085
-398,423	702,484	-0,009	0,018
-397,409	161,970	-0,048	0,049
-396,394	-42,581	-0,024	-0,009
-395,379	-130,679	-0,056	0,005
-394,365	59,612	0,111	0,080
-393,350	271,749	0,042	-0,054
-392,336	55,791	0,083	-0,058
-391,321	-21,091	-0,097	0,043
-390,306	-88,495	0,144	-0,031
-389,292	-112,809	-0,034	-0,005
-388,277	-35,450	0,076	0,030
-387,263	-200,000	0,011	-0,095
-386,248	-171,541	-0,084	0,002
-385,233	-200,000	-0,008	0,149
-384,219	-175,224	-0,101	0,002
-383,204	39,248	-0,044	0,028
-382,190	116,484	-0,031	-0,027
-381,175	-200,000	-0,000	-0,051
-380,160	-115,621	0,035	0,005
-379,146	653,830	0,032	-0,060
-378,131	43,351	0,117	0,078
-377,117	-124,503	-0,075	-0,008
-376,102	133,914	0,050	-0,047
-375,088	-45,946	-0,100	0,036
-374,073	113,262	0,035	0,031
-373,058	183,334	0,026	-0,028
-372,044	121,869	-0,066	0,060
-371,029	-25,663	0,094	0,040
-370,015	800,000	-0,007	-0,020
-369,000	-60,586	0,081	-0,025
-367,985	50,288	0,084	-0,058
-366,971	139,465	0,061	-0,058
-365,956	-144,769	-0,177	-0,012
-364,942	232,834	-0,057	-0,068
-363,927	-72,259	0,167	0,045
-362,912	24,946	0,033	-0,020
-361,898	-200,000	0,004	0,031
-360,883	-20,566	-0,064	-0,028
-359,869	14,645	-0,172	-0,097
-358,854	194,641	-0,075	0,083
-357,839	-61,220	0,068	-0,021
-356,825	800,000	-0,021	0,046
-355,810	45,484	0,022	0,015
-354,796	800,000	-0,021	-0,057
-353,781	-94,044	0,043	0,008
-352,766	9,030	-0,074	-0,041
-351,752	111,825	0,085	-0,075
-350,737	303,460	0,032	0,044
-349,723	84,740	0,064	0,051
-348,708	-15,552	0,104	-0,048
-347,693	800,000	-0,023	0,055
-346,679	-200,000	-0,019	-0,077
-345,664	-181,377	0,111	0,002
-344,650	-200,000	-0,011	-0,072
-343,635	-71,783	0,083	-0,022
-342,620	586,109	-0,076	0,137
-341,606	-87,933	-0,083	0,018
-340,591	-200,000	0,013	-0,104
-339,577	800,000	-0,024	-0,065
-338,562	137,965	0,072	-0,069
-337,548	-16,615	0,112	-0,051
-336,533	-180,146	-0,126	0,002
-335,518	-200,000	-0,011	-0,036
-334,504	-122,254	0,123	0,014
-333,489	768,488	0,026	-0,052
-332,475	-166,838	-0,072	-0,002
-331,460	354,584	-0,067	-0,097
-330,445	186,556	0,049	0,053
-329,431	385,416	-0,020	0,029
-328,416	-200,000	-0,032	0,156
-327,402	800,000	0,018	0,036
-326,387	153,046	-0,049	0,049
-325,372	383,334	-0,036	0,054
-324,358	17,475	0,032	0,018
-323,343	94,533	0,052	0,043
-322,329	800,000	-0,057	-0,141
-321,314	32,116	-0,069	0,043
-320,299	168,497	0,019	0,019
-319,285	-112,153	-0,033	-0,005
-318,270	-47,374	-0,166	0,058
-317,256	-200,000	-0,007	0,097
-316,241	237,041	0,025	0,030
-315,226	12,445	-0,078	0,043
-314,212	-35,661	0,113	-0,044
-313,197	-196,546	0,100	0,000
-312,183	23,935	0,112	0,067
-311,168	-200,000	0,008	0,086
-310,153	13,256	-0,109	-0,061
-309,139	-200,000	0,007	0,029
-308,124	474,592	-0,044	-0,072
-307,110	84,788	0,066	0,053
-306,095	800,000	0,096	0,197
-305,080	-85,799	0,114	0,025
-304,066	14,365	-0,109	-0,061
-303,051	-33,080	-0,121	-0,049
-302,037	-200,000	0,023	-0,110
-301,022	800,000	0,029	-0,084
-300,008	125,544	0,039	0,036
-298,993	-16,564	0,119	-0,054
-297,978	-10,969	0,008	0,004
-296,964	-200,000	-0,000	0,013
-295,949	-138,043	-0,104	-0,008
-294,935	310,449	0,042	0,057
-293,920	223,242	0,065	0,076
-292,905	-105,738	0,034	0,006
-291,891	132,323	-0,076	-0,071
-290,876	195,735	-0,066	0,072
-289,862	-58,631	-0,176	-0,055
-288,847	-31,776	-0,072	0,029
-287,832	235,493	0,034	0,041
-286,818	-140,648	-0,079	0,006
-285,803	6,293	-0,104	0,056
-284,789	587,384	0,068	0,122
-283,774	-104,932	0,030	-0,005
-282,759	675,321	0,040	-0,075
-281,745	5,566	-0,067	-0,036
-280,730	-34,983	0,072	-0,028
-279,716	176,857	0,016	0,017
-278,701	-200,000	0,000	0,136
-277,686	-3,140	0,085	0,043
-276,672	565,672	0,014	-0,024
-275,657	-46,826	0,164	-0,058
-274,643	-103,320	-0,042	0,007
-273,628	-200,000	-0,003	0,034
-272,613	800,000	0,016	-0,040
-271,599	-85,103	0,066	0,015
-270,584	-148,533	0,077	0,004
-269,570	-93,474	0,065	0,013
-268,555	-144,694	0,117	0,008
-267,540	800,000	-0,024	0,062
-266,526	-94,750	-0,125	-0,024
-265,511	800,000	0,082	-0,185
-264,497	800,000	0,046	-0,104
-263,482	-200,000	-0,009	0,144
-262,467	-200,000	-0,051	0,201
-261,453	-103,678	0,073	0,012
-260,438	800,000	-0,049	-0,149
-259,424	185,376	0,048	-0,052
-258,409	800,000	0,033	-0,068
-257,395	608,557	-0,008	-0,015
-256,380	-200,000	-0,005	0,054
-255,365	215,939	0,076	0,087
-254,351	-200,000	-0,008	0,088
-253,336	-90,626	0,088	-0,018
-252,322	82,314	-0,071	0,055
-251,307	-200,000	-0,019	0,076
-250,292	-200,000	0,011	0,051
-249,278	317,533	0,035	0,048
-248,263	-200,000	0,021	0,075
-247,249	96,772	0,025	-0,020
-246,234	795,474	-0,041	-0,083
-245,219	-200,000	0,001	-0,179
-244,205	65,622	-0,045	0,033
-243,190	43,093	-0,095	0,063
-242,176	800,000	0,005	0,012
-241,161	-31,337	0,055	-0,022
-240,146	244,586	0,039	-0,048
-239,132	-200,000	0,047	0,154
-238,117	10,368	0,049	-0,027
-237,103	800,000	-0,022	-0,044
-236,088	47,000	0,006	0,004
-235,073	-81,580	-0,052	-0,012
-234,059	-200,000	-0,019	0,148
-233,044	-200,000	0,018	-0,108
-232,030	800,000	-0,059	-0,133
-231,015	-34,856	-0,088	-0,035
-230,000	-155,925	-0,095	-0,004
-228,986	426,503	0,062	0,097
-227,971	154,435	-0,112	0,112
-226,957	-27,526	0,218	0,091
-225,942	263,938	-0,052	-0,066
-224,927	-74,468	0,168	0,044
-223,913	-76,074	-0,032	0,008
-222,898	-113,949	-0,023	-0,003
-221,884	800,000	-0,037	-0,101
-220,869	515,917	-0,036	0,062
-219,855	105,584	-0,072	-0,061
-218,840	800,000	0,050	0,141
-217,825	283,562	0,086	0,112
-216,811	39,391	0,067	-0,043
-215,796	-140,750	-0,026	0,002
-214,782	-74,644	0,045	0,012
-213,767	800,000	0,019	0,046
-212,752	-200,000	0,004	0,139
-211,738	363,105	-0,097	-0,142
-210,723	800,000	0,039	-0,089
-209,709	-200,000	-0,001	0,070
-208,694	-144,641	0,085	0,006
-207,679	-105,584	0,105	0,017
-206,665	-108,807	0,043	-0,007
-205,650	76,102	-0,071	-0,054
-204,636	98,480	0,104	0,086
-203,621	-200,000	0,019	0,113
-202,606	-20,057	-0,108	-0,048
-201,592	-200,000	-0,012	-0,052
-200,577	213,450	-0,015	0,017
-199,563	-200,000	0,006	-0,107
-198,548	-200,000	-0,011	0,056
-197,533	800,000	0,019	-0,046
-196,519	-8,493	-0,080	0,039
-195,504	-98,406	-0,072	-0,013
-194,490	800,000	-0,007	-0,021
-193,475	-200,000	-0,014	-0,085
-192,460	-200,000	0,024	0,110
-191,446	-115,508	0,135	-0,018
-190,431	800,000	0,013	-0,038
-189,417	-152,178	0,026	0,001
-188,402	428,597	-0,032	-0,050
-187,387	-200,000	-0,011	0,053
-186,373	651,855	0,031	0,057
-185,358	-200,000	0,001	-0,022
-184,344	-58,418	0,130	0,040
-183,329	800,000	-0,037	0,080
-182,315	800,000	0,041	0,116
-181,300	607,159	-0,020	-0,037
-180,285	-126,900	-0,146	0,015
-179,271	800,000	0,048	0,116
-178,256	554,024	-0,038	0,067
-177,242	-149,643	0,096	-0,005
-176,227	-139,881	-0,055	-0,004
-175,212	782,730	-0,016	-0,031
-174,198	-200,000	0,061	-0,196
-173,183	-200,000	-0,001	0,033
-172,169	568,065	0,074	-0,131
-171,154	-48,593	0,075	-0,026
-170,139	134,945	-0,041	-0,039
-169,125	-200,000	-0,015	0,062
-168,110	-52,482	-0,106	-0,035
-167,096	375,910	0,049	-0,072
-166,081	120,635	-0,099	-0,089
-165,066	-200,000	0,008	-0,115
-164,052	45,105	-0,085	-0,057
-163,037	14,437	0,075	-0,042
-162,023	294,301	0,039	-0,052
-161,008	800,000	0,016	0,051
-159,993	-200,000	-0,011	-0,045
-158,979	59,573	-0,084	-0,059
-157,964	381,543	0,078	-0,116
-156,950	800,000	-0,016	0,039
-155,935	16,057	-0,094	-0,053
-154,920	800,000	0,062	-0,134
-153,906	-200,000	0,009	0,034
-152,891	-105,293	-0,111	-0,018
-151,877	599,274	-0,062	-0,111
-150,862	158,751	-0,127	-0,127
-149,847	269,440	0,069	-0,087
-148,833	-200,000	0,012	-0,079
-147,818	-178,709	0,091	0,001
-146,804	-138,981	-0,033	0,003
-145,789	-12,221	0,172	-0,081
-144,775	25,469	0,076	0,045
-143,760	134,847	0,076	-0,071
-142,745	279,259	0,004	0,006
-141,731	289,630	0,090	0,118
-140,716	-73,476	0,172	0,045
-139,702	-65,530	-0,126	-0,036
-138,687	800,000	-0,019	0,043
-137,672	-135,040	-0,125	0,011
-136,658	-107,603	0,034	0,005
-135,643	71,567	0,047	0,035
-134,629	800,000	0,015	-0,040
-133,614	74,661	0,153	0,116
-132,599	792,692	-0,016	0,032
-131,585	209,617	-0,142	0,160
-130,570	-147,489	-0,067	0,004
-129,556	500,469	0,058	-0,097
-128,541	-200,000	-0,037	-0,122
-127,526	330,520	0,067	0,094
-126,512	-57,945	0,050	-0,016
-125,497	62,969	0,070	-0,050
-124,483	83,215	0,083	0,065
-123,468	644,651	0,032	0,060
-122,453	800,000	-0,035	-0,073
-121,439	-200,000	-0,029	-0,104
-120,424	-23,507	-0,176	0,076
-119,410	-200,000	0,005	0,090
-118,395	59,180	0,141	0,100
-117,380	800,000	0,008	0,017
-116,366	355,939	-0,019	0,028
-115,351	141,157	-0,023	0,022
-114,337	134,087	-0,101	-0,094
-113,322	-171,477	-0,118	0,003
-112,307	-26,788	0,096	0,040
-111,293	-28,953	0,082	-0,034
-110,278	-200,000	-0,014	0,094
-109,264	467,234	-0,014	-0,022
-108,249	-151,150	-0,133	0,007
-107,234	311,143	-0,035	0,048
-106,220	-200,000	-0,003	-0,049
-105,205	627,076	-0,004	-0,007
-104,191	183,129	0,016	0,018
-103,176	-200,000	0,009	-0,055
-102,162	215,658	-0,071	-0,081
-101,147	-200,000	-0,009	-0,045
-100,132	-100,094	-0,108	0,019
-99,118	800,000	-0,002	-0,004
-98,103	48,243	-0,103	-0,069
-97,089	-200,000	0,012	-0,077
-96,074	283,732	-0,104	0,135
-95,059	300,529	-0,031	-0,042
-94,045	800,000	-0,038	-0,098
-93,030	-12,600	0,056	-0,026
-92,016	-84,308	0,064	0,014
-91,001	45,667	-0,127	0,084
-89,986	-33,050	-0,042	0,017
-88,972	388,129	0,046	-0,068
-87,957	311,252	-0,057	0,078
-86,943	-15,752	-0,125	0,057
-85,928	-200,000	-0,010	-0,080
-84,913	-200,000	0,022	-0,095
-83,899	-161,198	0,093	-0,003
-82,884	198,180	0,076	0,084
-81,870	-54,584	0,043	-0,014
-80,855	-82,688	0,023	0,005
-79,840	-200,000	0,016	-0,060
-78,826	-200,000	-0,032	-0,180
-77,811	-96,343	-0,130	-0,025
-76,797	-61,100	-0,041	-0,012
-75,782	-200,000	-0,003	0,036
-74,767	407,291	-0,049	0,074
-73,753	800,000	0,021	0,054
-72,738	99,619	0,063	0,052
-71,724	800,000	-0,026	0,060
-70,709	71,246	-0,028	0,021
-69,694	-200,000	-0,043	-0,149
-68,680	74,462	0,091	-0,069
-67,665	24,924	-0,038	-0,023
-66,651	32,938	0,118	0,074
-65,636	-91,903	-0,098	-0,020
-64,622	-65,633	-0,150	-0,043
-63,607	-184,594	-0,080	0,001
-62,592	-200,000	-0,035	-0,169
-61,578	800,000	0,044	0,116
-60,563	800,000	0,032	0,090
-59,549	-44,233	0,077	0,028
-58,534	-10,170	-1,864	-0,886
-57,519	800,000	-0,392	-1,010
-56,505	-200,000	-1,174	-4,847
-55,490	5,434	0,631	0,334
-54,476	800,000	5,202	12,225
-53,461	-200,000	16,998	278,900
-52,446	800,000	719,473	2219,126
-51,432	544,877	1634,656	2815,181
-50,417	113,338	1629,931	1420,090
-49,403	76,809	1287,938	980,558
-48,388	33,426	1031,065	641,483
-47,373	20,459	992,625	574,693
-46,359	19,011	980,859	563,093
-45,344	16,681	976,996	553,202
-44,330	16,725	975,545	552,502
-43,315	16,417	973,726	550,441
-42,300	16,381	972,423	549,564
-41,286	16,286	971,770	548,864
-40,271	16,331	970,671	548,368
-39,257	16,396	969,585	547,946
-38,242	16,362	968,951	547,453
-37,227	16,370	968,118	546,987
-36,213	16,323	967,199	546,295
-35,198	16,366	966,149	545,821
-34,184	16,323	965,708	545,409
-33,169	16,301	964,611	544,697
-32,154	16,349	963,626	544,275
-31,140	16,380	962,772	543,870
-30,125	16,427	961,828	543,468
-29,111	16,341	961,161	542,792
-28,096	16,344	960,506	542,411
-27,082	16,315	959,964	541,988
-26,067	16,372	959,120	541,673
-25,052	16,369	958,203	541,125
-24,038	16,334	957,608	540,654
-23,023	16,317	956,988	540,229
-22,009	16,381	956,261	540,004
-20,994	16,350	955,705	539,567
-19,979	16,376	955,085	539,278
-18,965	16,367	954,372	538,828
-17,950	16,314	953,936	538,390
-16,936	16,293	953,157	537,860
-15,921	16,294	952,409	537,422
-14,906	16,166	951,865	536,681
-13,892	16,193	951,207	536,375
-12,877	16,196	950,636	536,041
-11,863	16,226	949,619	535,545
-10,848	16,246	949,148	535,320
-9,833	16,293	948,736	535,218
-8,819	16,298	948,137	534,874
-7,804	16,275	947,457	534,396
-6,790	16,224	946,886	533,891
-5,775	16,284	946,250	533,701
-4,760	16,257	945,603	533,229
-3,746	16,231	944,995	532,782
-2,731	16,108	944,440	532,060
-1,717	16,069	943,700	531,498
-0,702	16,032	943,216	531,087
0,313	15,827	942,648	530,917
1,327	19,238	940,258	540,303
2,342	28,420	797,737	482,823
3,356	25,363	461,368	274,520
4,371	-2,389	315,184	157,985
5,386	-6,397	296,725	144,655
6,400	-8,530	290,546	139,510
7,415	-8,878	288,356	138,103
8,429	-9,110	286,809	137,122
9,444	-9,099	285,773	136,625
10,459	-9,209	285,225	136,243
11,473	-9,099	284,664	136,070
12,488	-9,135	284,155	135,780
13,502	-9,126	283,660	135,540
14,517	-9,049	283,186	135,377
15,531	-9,091	282,522	135,007
16,546	-9,045	282,277	134,922
17,561	-9,014	282,021	134,818
18,575	-8,962	281,586	134,648
19,590	-9,111	281,156	134,286
20,604	-9,103	280,961	134,188
21,619	-9,191	280,628	133,933
22,634	-9,188	280,195	133,718
23,648	-9,229	279,987	133,567
24,663	-9,062	279,545	133,504
25,677	-9,071	279,453	133,440
26,692	-9,169	279,207	133,216
27,707	-9,153	278,796	133,024
28,721	-9,096	278,618	132,981
29,736	-9,313	278,469	132,692
30,750	-9,085	277,962	132,655
31,765	-9,221	277,834	132,453
32,780	-9,155	277,609	132,397
33,794	-9,272	277,526	132,234
34,809	-9,073	276,926	132,125
35,823	-9,237	276,934	131,961
36,838	-9,042	276,472	131,914
37,853	-9,311	276,240	131,538
38,867	-9,321	276,140	131,469
39,882	-9,215	275,756	131,374
40,896	-9,037	275,594	131,453
41,911	-9,109	275,245	131,207
42,926	-9,336	275,159	130,941
43,940	-9,293	274,780	130,790
44,955	-9,336	274,542	130,624
45,969	-9,278	274,414	130,606
46,984	-9,525	274,017	130,174
47,999	-9,626	273,788	129,960
49,013	-9,784	273,746	129,781
50,028	-9,950	273,311	129,408
51,042	-9,828	273,170	129,443
52,057	-10,015	272,815	129,090
53,071	-9,875	272,665	129,138
54,086	-9,759	272,445	129,129
55,101	-9,585	272,325	129,222
56,115	-9,441	272,080	129,229
57,130	-9,142	272,103	129,505
58,144	-8,981	271,756	129,477
59,159	-8,990	271,528	129,349
60,174	-9,181	271,365	129,083
61,188	-8,868	270,923	129,150
62,203	-9,107	270,966	128,939
63,217	-8,969	270,558	128,861
64,232	-8,973	270,323	128,733
65,247	-9,035	270,317	128,662
66,261	-9,020	270,129	128,575
67,276	-9,070	269,661	128,294
68,290	-9,473	269,548	127,860
69,305	-9,539	269,295	127,667
70,320	-9,443	269,146	127,673
71,334	-9,126	268,890	127,831
72,349	-9,234	268,731	127,645
73,363	-8,930	268,421	127,764
74,378	-9,129	268,302	127,514
75,393	-9,111	268,191	127,467
76,407	-8,947	267,879	127,457
77,422	-9,114	267,589	127,155
78,436	-8,998	267,530	127,222
79,451	-8,878	267,172	127,149
80,466	-9,154	267,060	126,833
81,480	-9,302	266,740	126,536
82,495	-9,269	266,543	126,461
83,509	-9,192	266,298	126,403
84,524	-9,191	266,089	126,293
85,539	-9,360	265,978	126,077
86,553	-9,325	265,690	125,961
87,568	-9,169	265,579	126,038
88,582	-9,109	265,250	125,925
89,597	-9,246	265,049	125,695
90,611	-9,062	264,890	125,774
91,626	-9,138	264,766	125,635
92,641	-9,122	264,618	125,568
93,655	-9,219	264,371	125,353
94,670	-9,169	264,182	125,296
95,684	-9,038	263,971	125,303
96,699	-9,105	263,746	125,125
97,714	-9,205	263,449	124,883
98,728	-9,379	263,332	124,661
99,743	-9,385	263,115	124,542
100,757	-9,547	262,942	124,304
101,772	-9,346	262,771	124,392
102,787	-9,243	262,585	124,384
103,801	-8,974	262,273	124,464
104,816	-9,070	262,198	124,333
105,830	-8,955	261,971	124,316
106,845	-9,212	261,753	123,974
107,860	-8,971	261,459	124,037
108,874	-9,226	261,220	123,687
109,889	-9,001	261,183	123,857
110,903	-9,149	260,817	123,542
111,918	-9,176	260,697	123,450
112,933	-9,152	260,657	123,441
113,947	-9,066	260,456	123,411
114,962	-9,146	260,269	123,241
115,976	-9,278	260,036	123,003
116,991	-9,067	259,839	123,085
118,006	-9,134	259,706	122,952
119,020	-8,985	259,436	122,944
120,035	-9,051	259,399	122,857
121,049	-9,159	259,271	122,691
122,064	-8,943	258,991	122,737
123,079	-9,120	258,817	122,489
124,093	-9,162	258,585	122,331
125,108	-9,362	258,200	121,963
126,122	-9,573	258,043	121,694
127,137	-9,616	257,955	121,604
128,151	-9,563	257,868	121,598
129,166	-9,364	257,422	121,551
130,181	-9,319	257,159	121,455
131,195	-9,306	257,025	121,391
132,210	-9,314	256,915	121,322
133,224	-8,956	256,753	121,546
134,239	-9,091	256,676	121,381
135,254	-8,995	256,513	121,377
136,268	-9,177	256,313	121,114
137,283	-9,420	255,917	120,705
138,297	-9,382	255,702	120,626
139,312	-9,476	255,445	120,413
140,327	-9,182	255,374	120,623
141,341	-8,895	255,215	120,784
142,356	-9,126	255,219	120,576
143,370	-8,957	254,894	120,558
144,385	-8,746	254,822	120,694
145,400	-8,891	254,623	120,465
146,414	-8,967	254,505	120,333
147,429	-8,918	254,257	120,247
148,443	-8,937	254,110	120,151
149,458	-8,839	253,784	120,069
150,473	-9,074	253,722	119,828
151,487	-9,175	253,493	119,623
152,502	-8,980	253,339	119,706
153,516	-8,782	253,104	119,754
154,531	-9,191	253,090	119,386
155,546	-8,967	252,789	119,426
156,560	-8,778	252,417	119,400
157,575	-9,222	252,319	118,964
158,589	-8,917	252,210	119,162
159,604	-8,996	252,078	119,023
160,619	-8,931	251,813	118,942
161,633	-8,843	251,649	118,929
162,648	-8,864	251,545	118,851
163,662	-9,041	251,456	118,648
164,677	-9,035	251,304	118,571
165,692	-8,877	251,040	118,569
166,706	-8,968	250,858	118,396
167,721	-8,840	250,844	118,488
168,735	-9,081	250,698	118,204
169,750	-8,861	250,369	118,224
170,764	-8,847	250,313	118,198
171,779	-8,706	250,041	118,179
172,794	-8,768	249,934	118,065
173,808	-8,899	249,770	117,867
174,823	-9,363	249,489	117,334
175,837	-9,311	249,172	117,218
176,852	-9,018	249,153	117,445
177,867	-8,978	249,216	117,498
178,881	-8,928	249,094	117,471
179,896	-8,907	248,819	117,349
180,910	-8,832	248,617	117,306
181,925	-8,737	248,426	117,285
182,940	-9,015	248,286	116,975
183,954	-8,774	248,010	117,036
184,969	-8,902	247,943	116,887
185,983	-8,685	247,809	116,995
186,998	-8,736	247,621	116,853
188,013	-8,835	247,383	116,648
189,027	-8,566	247,221	116,785
190,042	-8,836	247,177	116,530
191,056	-8,872	246,887	116,352
192,071	-8,794	246,655	116,297
193,086	-8,896	246,485	116,122
194,100	-8,957	246,300	115,974
195,115	-8,687	246,165	116,124
196,129	-8,982	246,064	115,822
197,144	-8,792	245,709	115,802
198,159	-8,815	245,508	115,678
199,173	-8,897	245,488	115,590
200,188	-8,906	245,184	115,429
201,202	-9,133	244,996	115,143
202,217	-9,333	244,843	114,896
203,232	-9,463	244,486	114,612
204,246	-9,283	244,489	114,751
205,261	-8,807	244,501	115,138
206,275	-9,505	243,991	114,314
207,290	-6,090	245,279	117,724
208,304	-0,209	247,036	123,429
209,319	1,759	247,745	125,403
210,334	2,197	247,752	125,757
211,348	2,581	247,570	125,972
212,363	2,790	247,568	126,132
213,377	3,210	247,391	126,378
214,392	3,144	247,239	126,235
215,407	2,904	247,082	125,945
216,421	3,115	246,857	125,993
217,436	3,082	246,880	125,966
218,450	3,489	246,628	126,162
219,465	2,939	246,461	125,612
220,480	2,989	246,217	125,518
221,494	2,820	246,154	125,336
222,509	3,084	246,006	125,467
223,523	2,894	245,664	125,125
224,538	2,672	245,472	124,835
225,553	2,682	245,295	124,741
226,567	2,548	245,296	124,621
227,582	2,884	245,116	124,793
228,596	2,713	244,898	124,532
229,611	2,410	244,807	124,227
230,626	2,469	244,538	124,127
231,640	2,825	244,321	124,296
232,655	2,691	244,347	124,188
233,669	2,705	243,995	124,010
234,684	2,660	243,752	123,839
235,699	2,903	243,982	124,143
236,713	3,012	243,690	124,072
237,728	2,935	243,425	123,863
238,742	2,730	243,116	123,528
239,757	2,623	243,053	123,399
240,772	2,819	242,872	123,454
241,786	2,922	242,747	123,463
242,801	2,519	242,651	123,078
243,815	2,330	242,354	122,763
244,830	2,664	242,383	123,037
245,844	2,905	242,282	123,169
246,859	2,816	242,064	122,975
247,874	2,753	241,770	122,765
248,888	2,562	241,820	122,625
249,903	2,740	241,602	122,647
250,917	2,743	241,554	122,614
251,932	2,928	241,360	122,654
252,947	2,887	241,147	122,501
253,961	2,425	241,015	122,053
254,976	2,827	240,688	122,198
255,990	2,899	240,729	122,266
257,005	2,844	240,327	122,006
258,020	2,585	240,199	121,724
259,034	2,756	240,057	121,777
260,049	2,713	240,132	121,770
261,063	2,578	239,878	121,523
262,078	2,488	239,586	121,293
263,093	2,687	239,569	121,432
264,107	2,917	239,409	121,523
265,122	2,581	239,197	121,137
266,136	2,863	239,127	121,315
267,151	2,856	238,982	121,225
268,166	2,599	238,709	120,872
269,180	2,453	238,620	120,700
270,195	3,069	238,652	121,194
271,209	3,262	238,467	121,242
272,224	2,684	238,132	120,604
273,239	2,432	237,893	120,273
274,253	2,635	237,860	120,406
275,268	2,873	237,766	120,535
276,282	2,912	237,520	120,431
277,297	2,633	237,375	120,127
278,312	2,610	237,276	120,048
279,326	2,841	237,164	120,162
280,341	2,757	236,998	120,002
281,355	2,626	236,857	119,816
282,370	3,004	236,757	120,052
283,384	2,766	236,653	119,802
284,399	2,631	236,329	119,521
285,414	2,331	236,220	119,220
286,428	2,489	236,005	119,225
287,443	2,784	235,893	119,388
288,457	2,958	235,746	119,440
289,472	2,919	235,698	119,374
290,487	2,667	235,416	119,024
291,501	2,551	235,310	118,869
292,516	2,231	235,166	118,536
293,530	2,130	234,971	118,349
294,545	2,523	234,915	118,615
295,560	2,822	234,737	118,748
296,574	2,681	234,525	118,521
297,589	2,601	234,292	118,330
298,603	2,973	234,160	118,542
299,618	2,921	234,155	118,488
300,633	2,795	233,950	118,277
301,647	2,976	233,836	118,348
302,662	3,171	233,845	118,493
303,676	3,301	233,698	118,509
304,691	3,094	233,393	118,184
305,706	3,079	233,406	118,168
306,720	3,066	233,315	118,101
307,735	2,909	233,029	117,825
308,749	2,957	232,768	117,720
309,764	2,915	232,497	117,540
310,779	2,532	232,514	117,243
311,793	2,544	232,198	117,082
312,808	2,358	232,080	116,870
313,822	2,437	231,925	116,842
314,837	2,687	231,696	116,908
315,852	2,508	231,551	116,687
316,866	2,722	231,532	116,831
317,881	3,196	231,294	117,064
318,895	2,978	231,312	116,895
319,910	3,272	231,127	117,016
320,925	2,916	230,909	116,623
321,939	2,716	230,941	116,477
322,954	2,860	230,840	116,525
323,968	2,749	230,536	116,277
324,983	2,458	230,460	116,006
325,997	2,904	230,271	116,240
327,012	2,910	229,964	116,079
328,027	2,706	229,925	115,894
329,041	3,304	229,977	116,365
330,056	3,839	229,981	116,763
331,070	3,623	229,578	116,384
332,085	3,242	229,390	115,990
333,100	2,772	229,278	115,567
334,114	2,946	228,948	115,521
335,129	3,312	228,997	115,813
336,143	3,523	228,840	115,882
337,158	3,268	228,819	115,669
338,173	3,222	228,787	115,607
339,187	3,134	228,392	115,331
340,202	3,164	228,329	115,312
341,216	3,064	228,171	115,147
342,231	3,093	227,986	115,065
343,246	2,972	227,858	114,899
344,260	3,009	227,728	114,851
345,275	3,289	227,786	115,080
346,289	3,355	227,608	115,030
347,304	3,106	227,394	114,725
348,319	3,391	227,189	114,824
349,333	3,119	226,954	114,492
350,348	2,977	226,795	114,295
351,362	2,845	226,833	114,205
352,377	3,004	226,595	114,193
353,392	2,773	226,547	113,988
354,406	3,079	226,192	114,026
355,421	196,148	1322,068	1401,611
356,435	157,258	1455,592	1401,631
