DTS Sentinel unit serial number:	SN410029Multiplexer serial number:	ORYXHardware model number:	OX2-SRSoftware version number:	ORYX F/W v4,00 Oryx Data Collector v3.7.2.0data status	okinstallation	B5 Nyhavnadifferential loss correction	single-endedforward channel	channel 2reverse channel	N/Adate	2023/12/14time	07:47:13forward acquisition time	300,00reverse acquisition time	0,00gamma	499,1914k internal	0,3159k external	0,3159temperature offset calibration	1,0000default loss term (dB/km)	0,3820temperature slope calibration	1,0000multiplexer offset coefficient	1,0000multiplexer slope coefficient	1,0000fibre end	0,00T internal ref (°C)	7,10T ext. ref 1 (°C)	-9,24T ext. ref 2 (°C)	-9,33length (m)	temperature (°C)	Stokes	anti-Stokes-744,400	800,000	0,024	0,058
-743,385	-87,106	-0,277	-0,062
-742,371	-70,260	0,280	0,078
-741,356	-68,095	-0,398	-0,113
-740,342	45,568	0,155	0,105
-739,327	20,210	-0,242	-0,143
-738,312	3,309	0,118	0,063
-737,298	-98,293	-0,427	-0,080
-736,283	84,515	0,102	0,082
-735,269	-118,501	-0,270	-0,035
-734,254	-65,439	0,146	0,043
-733,239	-73,136	-0,629	-0,169
-732,225	17,616	0,307	0,179
-731,210	-99,969	0,043	-0,008
-730,196	-45,201	-0,121	-0,044
-729,181	-150,413	0,039	-0,002
-728,167	187,817	-0,092	0,102
-727,152	-200,000	-0,019	0,086
-726,137	-106,327	-0,195	-0,032
-725,123	422,655	-0,032	0,051
-724,108	-200,000	0,008	-0,072
-723,094	-26,644	-0,034	-0,015
-722,079	21,203	-0,085	0,051
-721,064	127,631	-0,057	-0,054
-720,050	-200,000	-0,001	0,179
-719,035	-24,137	0,038	0,017
-718,021	34,276	0,055	0,035
-717,006	7,516	-0,058	-0,032
-715,991	-85,632	-0,165	-0,037
-714,977	-200,000	0,023	-0,122
-713,962	-107,270	-0,111	-0,018
-712,948	-78,379	-0,048	0,012
-711,933	7,265	0,015	-0,008
-710,918	-200,000	0,004	-0,071
-709,904	-126,580	-0,104	0,011
-708,889	-50,747	-0,052	0,018
-707,875	159,382	-0,042	0,043
-706,860	95,947	0,011	0,010
-705,845	-200,000	0,000	-0,034
-704,831	-125,260	0,090	-0,010
-703,816	93,726	-0,121	0,101
-702,802	-200,000	-0,010	-0,065
-701,787	-200,000	0,006	0,060
-700,772	-87,930	-0,094	0,021
-699,758	800,000	-0,067	-0,192
-698,743	-67,593	0,109	0,031
-697,729	800,000	0,044	0,107
-696,714	-98,446	0,017	-0,003
-695,699	-37,608	-0,017	0,007
-694,685	-170,658	-0,126	0,003
-693,670	75,171	0,032	0,025
-692,656	-136,818	-0,050	-0,004
-691,641	589,294	-0,039	0,071
-690,627	-162,941	-0,037	0,001
-689,612	-103,094	0,053	-0,009
-688,597	143,836	-0,102	-0,100
-687,583	95,749	-0,019	-0,016
-686,568	800,000	-0,058	-0,159
-685,554	53,964	0,033	-0,023
-684,539	800,000	-0,041	0,087
-683,524	-200,000	-0,021	0,068
-682,510	8,391	0,059	0,033
-681,495	800,000	-0,055	0,122
-680,481	557,262	-0,000	-0,000
-679,466	-87,978	0,063	-0,014
-678,451	800,000	-0,053	-0,135
-677,437	800,000	-0,014	-0,042
-676,422	-200,000	-0,025	0,132
-675,408	-200,000	-0,024	0,097
-674,393	438,145	0,012	-0,020
-673,378	216,457	-0,042	0,049
-672,364	800,000	0,025	-0,062
-671,349	-32,852	0,077	0,031
-670,335	240,609	0,093	0,115
-669,320	-25,101	-0,117	-0,051
-668,305	-77,908	-0,184	0,046
-667,291	-200,000	-0,031	-0,138
-666,276	-55,097	0,022	-0,007
-665,262	800,000	-0,053	-0,126
-664,247	270,495	0,015	-0,020
-663,232	-123,084	-0,101	-0,012
-662,218	-8,183	0,120	0,059
-661,203	153,722	-0,064	-0,064
-660,189	257,709	-0,030	0,037
-659,174	496,044	-0,074	-0,125
-658,159	-0,482	-0,032	-0,017
-657,145	25,823	-0,040	0,024
-656,130	-94,451	-0,118	-0,023
-655,116	800,000	-0,035	0,114
-654,101	-87,667	0,058	-0,013
-653,086	2,567	-0,093	-0,049
-652,072	165,784	-0,127	-0,132
-651,057	-28,675	-0,098	-0,041
-650,043	60,867	0,030	0,022
-649,028	-180,885	-0,133	-0,002
-648,014	124,609	-0,025	-0,023
-646,999	-2,617	-0,072	-0,037
-645,984	489,412	0,023	-0,038
-644,970	800,000	0,027	-0,083
-643,955	-110,813	-0,144	-0,021
-642,941	363,291	-0,031	0,045
-641,926	-2,504	0,049	0,025
-640,911	190,027	0,140	0,155
-639,897	-200,000	-0,005	0,086
-638,882	-54,939	-0,141	0,046
-637,868	-70,163	0,115	-0,032
-636,853	273,931	-0,068	-0,088
-635,838	-200,000	0,006	-0,122
-634,824	36,490	-0,091	0,059
-633,809	-76,180	0,161	0,041
-632,795	800,000	-0,038	0,121
-631,780	108,825	0,011	-0,010
-630,765	-4,853	0,039	0,020
-629,751	97,223	-0,065	-0,055
-628,736	-115,609	0,017	-0,002
-627,722	222,655	0,045	0,053
-626,707	152,744	-0,085	0,086
-625,692	-200,000	0,037	0,138
-624,678	209,786	0,060	0,069
-623,663	800,000	-0,035	-0,075
-622,649	313,184	0,053	0,073
-621,634	800,000	-0,020	-0,059
-620,619	-137,906	0,115	-0,009
-619,605	-200,000	-0,027	-0,127
-618,590	-132,394	0,028	0,003
-617,576	-55,064	0,208	0,068
-616,561	433,916	-0,054	-0,087
-615,546	-200,000	-0,007	-0,043
-614,532	800,000	-0,059	-0,168
-613,517	-200,000	0,028	-0,112
-612,503	800,000	0,024	-0,064
-611,488	-123,976	0,153	0,017
-610,474	-200,000	-0,001	0,040
-609,459	287,665	-0,041	-0,055
-608,444	2,000	0,102	0,054
-607,430	365,236	-0,058	-0,086
-606,415	337,647	-0,014	-0,020
-605,401	192,697	-0,032	-0,035
-604,386	-106,148	0,128	-0,021
-603,371	166,921	0,062	-0,064
-602,357	-72,454	-0,027	-0,007
-601,342	70,040	-0,061	0,046
-600,328	141,000	-0,091	-0,088
-599,313	800,000	-0,023	0,065
-598,298	-47,735	-0,180	0,064
-597,284	-200,000	-0,008	0,045
-596,269	-152,714	0,114	-0,006
-595,255	-73,561	-0,033	0,009
-594,240	-200,000	0,014	-0,062
-593,225	-105,265	-0,183	0,030
-592,211	-21,824	-0,105	-0,046
-591,196	-200,000	0,004	-0,096
-590,182	-25,156	-0,078	0,034
-589,167	319,525	0,050	0,070
-588,152	-200,000	0,016	-0,055
-587,138	416,897	-0,049	-0,077
-586,123	800,000	-0,035	-0,101
-585,109	-200,000	0,005	-0,071
-584,094	95,247	-0,062	0,052
-583,079	-200,000	0,022	0,119
-582,065	800,000	0,036	0,073
-581,050	-200,000	-0,018	-0,063
-580,036	800,000	-0,079	-0,186
-579,021	800,000	0,012	-0,025
-578,006	73,888	-0,059	0,045
-576,992	-200,000	0,001	0,060
-575,977	-18,689	0,102	0,046
-574,963	-200,000	-0,008	0,084
-573,948	48,819	0,094	0,064
-572,934	337,227	-0,064	-0,092
-571,919	-200,000	0,017	-0,085
-570,904	-135,428	-0,081	-0,007
-569,890	523,662	0,014	0,024
-568,875	-200,000	-0,001	0,040
-567,861	192,439	0,047	-0,052
-566,846	-200,000	-0,009	0,048
-565,831	137,689	-0,120	-0,115
-564,817	618,923	0,023	-0,042
-563,802	49,286	-0,079	-0,054
-562,788	-200,000	0,005	0,082
-561,773	-200,000	-0,008	0,077
-560,758	-200,000	0,001	0,121
-559,744	-17,258	-0,077	0,036
-558,729	-153,822	-0,026	-0,001
-557,715	800,000	0,056	-0,144
-556,700	-30,323	0,047	-0,020
-555,685	800,000	-0,065	-0,178
-554,671	-200,000	0,026	-0,091
-553,656	-82,937	0,071	0,017
-552,642	90,617	0,016	-0,013
-551,627	210,639	0,061	0,070
-550,612	112,324	-0,048	0,042
-549,598	220,937	0,015	0,017
-548,583	187,469	0,046	0,050
-547,569	-14,913	-0,080	0,037
-546,554	-200,000	0,043	0,176
-545,539	-200,000	0,004	0,025
-544,525	242,555	0,061	0,075
-543,510	-200,000	0,011	0,062
-542,496	-200,000	-0,017	-0,188
-541,481	-200,000	-0,002	0,030
-540,466	37,025	-0,102	0,066
-539,452	-200,000	0,029	0,190
-538,437	-25,970	-0,061	-0,026
-537,423	24,353	-0,130	0,078
-536,408	-53,745	0,040	-0,013
-535,393	800,000	0,012	-0,031
-534,379	-125,389	0,075	0,008
-533,364	146,463	-0,009	0,009
-532,350	-74,927	0,071	0,018
-531,335	-32,602	0,162	-0,066
-530,321	178,364	-0,039	0,042
-529,306	74,336	0,102	-0,078
-528,291	173,734	-0,079	-0,083
-527,277	-88,099	0,105	0,023
-526,262	148,963	-0,184	0,182
-525,248	476,601	-0,027	-0,044
-524,233	19,426	0,146	0,086
-523,218	-200,000	-0,021	0,080
-522,204	-200,000	-0,032	-0,153
-521,189	574,784	0,028	0,049
-520,175	7,911	-0,115	0,063
-519,160	-200,000	0,026	0,086
-518,145	800,000	-0,024	0,060
-517,131	-21,712	0,118	0,052
-516,116	151,657	-0,108	0,107
-515,102	561,030	-0,061	0,108
-514,087	207,778	-0,052	0,059
-513,072	53,354	-0,071	-0,049
-512,058	-200,000	-0,010	0,079
-511,043	660,101	-0,068	0,128
-510,029	315,425	0,047	-0,065
-509,014	-19,222	-0,019	0,009
-507,999	270,996	-0,078	0,100
-506,985	236,905	-0,054	-0,065
-505,970	-200,000	-0,011	0,104
-504,956	-122,344	-0,128	-0,015
-503,941	324,572	-0,034	-0,048
-502,926	489,418	-0,019	-0,032
-501,912	35,520	0,103	0,066
-500,897	-74,698	-0,120	0,031
-499,883	-101,438	-0,099	0,017
-498,868	16,606	-0,087	-0,050
-497,853	-200,000	0,007	-0,159
-496,839	-7,075	-0,088	0,044
-495,824	-200,000	0,001	-0,036
-494,810	134,222	0,065	0,061
-493,795	619,770	-0,011	0,021
-492,781	-122,712	-0,108	0,013
-491,766	724,901	-0,059	0,116
-490,751	88,348	-0,075	-0,061
-489,737	-200,000	-0,001	-0,016
-488,722	800,000	0,057	0,115
-487,708	-43,323	-0,038	0,014
-486,693	48,423	0,067	0,046
-485,678	238,849	0,068	-0,083
-484,664	49,773	-0,100	0,069
-483,649	-200,000	-0,007	0,079
-482,635	-29,973	-0,061	0,025
-481,620	800,000	-0,019	0,045
-480,605	-200,000	0,005	0,055
-479,591	-34,098	-0,100	-0,040
-478,576	-174,151	0,063	0,001
-477,562	800,000	-0,012	-0,034
-476,547	-74,817	0,104	0,027
-475,532	82,833	0,047	-0,037
-474,518	27,098	0,130	0,079
-473,503	162,699	-0,124	0,127
-472,489	-200,000	0,015	-0,112
-471,474	-200,000	-0,005	0,056
-470,459	800,000	0,069	-0,209
-469,445	214,797	0,058	-0,067
-468,430	-38,713	0,087	0,033
-467,416	-200,000	0,017	-0,118
-466,401	38,999	0,075	-0,049
-465,386	191,727	-0,016	0,018
-464,372	-69,447	0,045	0,013
-463,357	-200,000	-0,001	0,013
-462,343	17,301	-0,065	-0,038
-461,328	69,925	-0,063	0,047
-460,313	-110,516	0,152	-0,023
-459,299	-42,806	0,070	0,026
-458,284	800,000	-0,071	0,149
-457,270	337,537	0,015	-0,022
-456,255	-39,479	-0,063	-0,024
-455,241	800,000	0,023	0,060
-454,226	116,215	0,033	0,030
-453,211	-200,000	0,009	-0,126
-452,197	800,000	-0,042	0,105
-451,182	51,177	0,016	-0,011
-450,168	127,132	-0,092	-0,085
-449,153	24,735	-0,048	0,029
-448,138	595,908	-0,097	0,175
-447,124	-88,260	0,084	-0,018
-446,109	-200,000	0,014	-0,052
-445,095	247,805	0,049	0,060
-444,080	-43,617	-0,014	0,005
-443,065	9,383	0,086	-0,048
-442,051	800,000	-0,016	-0,046
-441,036	-22,663	0,071	0,031
-440,022	-200,000	-0,023	-0,078
-439,007	-190,569	-0,113	-0,001
-437,992	110,429	0,111	0,097
-436,978	-130,062	0,077	-0,008
-435,963	-200,000	0,001	0,058
-434,949	15,031	-0,083	-0,047
-433,934	-200,000	-0,023	-0,085
-432,919	-200,000	-0,013	-0,051
-431,905	-200,000	-0,005	-0,054
-430,890	-7,988	-0,086	0,042
-429,876	71,140	0,038	-0,029
-428,861	0,880	0,069	0,036
-427,846	191,208	0,030	-0,032
-426,832	150,869	-0,134	-0,133
-425,817	299,635	-0,035	0,047
-424,803	800,000	-0,025	-0,070
-423,788	-200,000	-0,012	0,097
-422,773	-145,094	0,050	0,003
-421,759	800,000	0,036	-0,088
-420,744	-106,964	0,063	0,010
-419,730	-200,000	-0,034	-0,113
-418,715	188,076	0,055	0,060
-417,701	41,941	0,097	-0,064
-416,686	-200,000	-0,057	-0,246
-415,671	-156,183	0,108	-0,005
-414,657	-74,393	-0,038	0,010
-413,642	800,000	-0,061	0,162
-412,628	-200,000	0,046	-0,154
-411,613	421,944	-0,034	0,053
-410,598	-200,000	0,022	-0,081
-409,584	800,000	0,032	0,082
-408,569	-62,206	0,155	0,047
-407,555	800,000	-0,026	0,055
-406,540	-31,894	0,076	0,031
-405,525	800,000	-0,027	0,062
-404,511	383,729	-0,074	-0,112
-403,496	339,846	-0,039	-0,055
-402,482	800,000	0,036	0,081
-401,467	165,448	0,044	0,046
-400,452	-200,000	0,018	-0,071
-399,438	-174,512	0,117	0,002
-398,423	-200,000	0,005	-0,100
-397,409	296,762	0,041	0,055
-396,394	398,804	-0,007	-0,010
-395,379	-200,000	0,039	-0,150
-394,365	800,000	0,034	0,087
-393,350	36,203	-0,041	0,026
-392,336	800,000	-0,033	-0,090
-391,321	800,000	0,014	0,031
-390,306	-94,663	-0,083	-0,016
-389,292	75,414	0,159	-0,122
-388,277	360,990	-0,043	0,063
-387,263	-200,000	0,041	0,139
-386,248	-136,150	0,139	-0,012
-385,233	665,783	-0,008	0,015
-384,219	800,000	-0,063	0,145
-383,204	-130,590	-0,026	-0,002
-382,190	56,987	-0,022	0,015
-381,175	-139,892	0,083	-0,006
-380,160	533,228	-0,029	0,050
-379,146	-46,768	0,162	0,057
-378,131	-150,607	0,099	-0,005
-377,117	65,489	-0,127	-0,093
-376,102	-101,600	-0,015	-0,003
-375,088	-74,264	-0,010	0,002
-374,073	-57,996	-0,131	-0,041
-373,058	-200,000	0,000	-0,084
-372,044	-125,410	0,143	0,016
-371,029	-186,238	-0,125	-0,001
-370,015	232,710	-0,087	0,104
-369,000	-200,000	-0,026	-0,090
-367,985	280,466	0,027	0,035
-366,971	-200,000	0,006	0,044
-365,956	-200,000	-0,037	0,185
-364,942	-88,518	0,033	0,007
-363,927	-131,306	0,127	0,012
-362,912	-0,819	-0,026	-0,013
-361,898	278,070	-0,019	-0,025
-360,883	266,865	-0,025	-0,032
-359,869	-91,678	-0,117	-0,024
-358,854	-88,091	-0,045	0,010
-357,839	-200,000	-0,020	0,147
-356,825	664,808	0,060	0,113
-355,810	-160,537	-0,233	0,009
-354,796	37,136	-0,092	-0,059
-353,781	-200,000	-0,001	-0,024
-352,766	-50,817	-0,022	0,007
-351,752	30,891	0,219	-0,136
-350,737	-200,000	-0,002	-0,022
-349,723	-81,768	-0,053	-0,012
-348,708	208,457	-0,007	-0,008
-347,693	258,302	-0,068	-0,085
-346,679	44,768	0,110	-0,073
-345,664	-200,000	-0,003	0,019
-344,650	482,848	-0,028	0,046
-343,635	800,000	0,033	0,081
-342,620	79,917	0,169	0,132
-341,606	203,976	-0,080	0,090
-340,591	-200,000	0,013	-0,189
-339,577	800,000	-0,030	-0,090
-338,562	143,764	-0,048	0,046
-337,548	-30,530	-0,027	-0,011
-336,533	163,747	0,024	0,025
-335,518	25,969	0,080	0,048
-334,504	-200,000	0,013	-0,118
-333,489	-200,000	-0,002	-0,039
-332,475	124,566	0,099	-0,091
-331,460	-69,506	0,034	0,009
-330,445	377,271	-0,094	-0,139
-329,431	-112,016	0,153	0,022
-328,416	134,351	0,153	0,143
-327,402	-90,882	0,063	-0,013
-326,387	-45,607	0,089	-0,032
-325,372	-200,000	-0,052	-0,249
-324,358	-54,501	0,098	0,032
-323,343	99,453	-0,006	-0,005
-322,329	-32,424	-0,048	0,019
-321,314	376,273	0,021	-0,031
-320,299	-127,164	0,061	0,006
-319,285	-158,913	0,147	0,006
-318,270	-15,091	-0,061	0,028
-317,256	210,118	-0,052	-0,059
-316,241	65,967	0,042	0,031
-315,226	59,292	0,099	0,070
-314,212	8,163	-0,067	-0,037
-313,197	200,287	0,147	-0,164
-312,183	99,856	0,077	-0,064
-311,168	-200,000	-0,006	-0,032
-310,153	746,144	-0,031	-0,061
-309,139	110,641	-0,052	-0,045
-308,124	-88,807	0,064	0,014
-307,110	800,000	0,055	0,120
-306,095	5,531	0,039	0,021
-305,080	58,405	0,036	-0,026
-304,066	28,919	-0,062	-0,038
-303,051	-200,000	-0,006	0,062
-302,037	-17,542	-0,189	-0,086
-301,022	800,000	-0,009	-0,020
-300,008	219,244	-0,040	-0,046
-298,993	508,302	0,034	0,058
-297,978	-89,649	-0,069	-0,015
-296,964	-200,000	0,018	0,088
-295,949	61,758	-0,144	-0,104
-294,935	324,373	-0,033	-0,046
-293,920	550,093	-0,069	-0,121
-292,905	218,894	-0,011	0,012
-291,891	98,438	0,042	0,035
-290,876	188,542	-0,107	0,117
-289,862	-200,000	-0,032	0,104
-288,847	-200,000	0,028	-0,119
-287,832	800,000	-0,127	-0,289
-286,818	274,550	0,056	-0,072
-285,803	30,471	-0,038	0,023
-284,789	-93,944	0,119	0,023
-283,774	58,792	-0,062	-0,044
-282,759	-25,510	-0,159	-0,068
-281,745	105,060	-0,017	-0,014
-280,730	168,651	-0,076	0,079
-279,716	-200,000	0,027	0,101
-278,701	19,927	-0,022	-0,013
-277,686	-200,000	-0,023	0,095
-276,672	-176,844	0,096	-0,002
-275,657	16,902	-0,104	0,059
-274,643	307,022	0,018	-0,024
-273,628	-72,954	-0,081	0,021
-272,613	139,625	-0,019	0,018
-271,599	13,582	0,083	-0,047
-270,584	-200,000	0,007	0,033
-269,570	-200,000	0,005	-0,041
-268,555	-67,705	0,118	0,033
-267,540	-130,362	-0,121	-0,012
-266,526	-200,000	0,011	-0,071
-265,511	-125,573	0,109	-0,012
-264,497	-109,464	-0,093	-0,014
-263,482	-200,000	-0,002	0,059
-262,467	695,241	-0,069	0,131
-261,453	-200,000	-0,020	-0,096
-260,438	30,246	0,048	-0,030
-259,424	-200,000	0,006	-0,066
-258,409	800,000	-0,061	-0,132
-257,395	133,027	0,010	0,010
-256,380	70,788	0,146	0,109
-255,365	22,876	0,057	0,034
-254,351	39,773	0,061	-0,040
-253,336	-200,000	-0,004	-0,076
-252,322	532,686	-0,043	-0,075
-251,307	-123,737	-0,092	0,010
-250,292	-200,000	0,008	-0,029
-249,278	183,139	0,037	0,040
-248,263	175,722	0,024	-0,026
-247,249	2,886	0,110	0,057
-246,234	209,963	-0,056	0,063
-245,219	-200,000	0,001	-0,026
-244,205	800,000	-0,017	0,044
-243,190	-112,335	-0,116	0,017
-242,176	541,775	0,075	0,130
-241,161	117,906	-0,116	0,103
-240,146	-200,000	-0,026	-0,131
-239,132	800,000	0,029	0,078
-238,117	-143,237	0,077	0,005
-237,103	378,730	-0,049	-0,072
-236,088	-200,000	0,000	-0,177
-235,073	-200,000	-0,022	0,133
-234,059	508,633	0,085	0,143
-233,044	-33,597	0,036	-0,014
-232,030	800,000	-0,075	-0,189
-231,015	-115,554	-0,046	-0,006
-230,000	47,596	-0,095	0,064
-228,986	-43,354	0,028	0,010
-227,971	-200,000	0,007	0,116
-226,957	-200,000	0,011	0,078
-225,942	-200,000	-0,025	0,095
-224,927	800,000	-0,031	0,071
-223,913	113,091	0,015	-0,013
-222,898	-200,000	0,012	0,109
-221,884	24,796	-0,047	-0,028
-220,869	-58,804	0,045	-0,014
-219,855	103,545	0,029	-0,024
-218,840	-172,900	0,099	0,002
-217,825	-175,850	0,206	-0,004
-216,811	-200,000	0,017	-0,092
-215,796	800,000	0,030	0,080
-214,782	702,668	-0,086	-0,165
-213,767	62,765	-0,050	0,036
-212,752	-200,000	0,010	0,203
-211,738	800,000	0,025	0,059
-210,723	-200,000	-0,014	0,099
-209,709	-85,879	-0,176	-0,039
-208,694	474,375	0,039	-0,063
-207,679	178,397	-0,015	0,016
-206,665	-140,018	0,088	-0,007
-205,650	-1,149	0,072	-0,037
-204,636	800,000	0,019	0,041
-203,621	332,604	0,018	0,025
-202,606	-200,000	0,006	-0,052
-201,592	-166,792	-0,037	-0,001
-200,577	-200,000	-0,014	-0,081
-199,563	273,895	0,044	0,057
-198,548	800,000	-0,035	0,105
-197,533	800,000	-0,004	-0,009
-196,519	-56,383	0,079	0,025
-195,504	83,960	-0,035	0,027
-194,490	-28,485	0,069	-0,029
-193,475	-40,851	-0,143	-0,053
-192,460	74,922	-0,054	-0,041
-191,446	-200,000	0,030	-0,109
-190,431	-200,000	0,009	-0,028
-189,417	101,974	0,032	0,027
-188,402	800,000	-0,037	-0,098
-187,387	-200,000	-0,010	0,056
-186,373	-40,656	0,039	-0,014
-185,358	-60,482	-0,061	-0,019
-184,344	101,549	0,103	0,086
-183,329	114,419	0,123	0,108
-182,315	657,041	-0,030	-0,056
-181,300	162,309	-0,073	-0,074
-180,285	243,086	0,026	-0,032
-179,271	-200,000	0,016	-0,134
-178,256	342,309	0,134	-0,190
-177,242	356,923	0,044	0,064
-176,227	-200,000	0,012	-0,065
-175,212	398,398	0,098	0,148
-174,198	-90,195	0,100	0,021
-173,183	-130,296	-0,115	0,011
-172,169	422,330	-0,043	-0,067
-171,154	-200,000	-0,003	-0,084
-170,139	488,028	0,103	0,171
-169,125	118,877	0,037	-0,033
-168,110	-200,000	-0,019	0,078
-167,096	-200,000	0,031	-0,112
-166,081	144,749	0,036	0,035
-165,066	-85,073	-0,187	-0,042
-164,052	142,737	-0,047	0,045
-163,037	800,000	-0,069	-0,143
-162,023	-200,000	0,030	0,140
-161,008	-200,000	0,018	0,112
-159,993	-96,912	0,040	-0,008
-158,979	-141,508	-0,041	-0,003
-157,964	111,128	-0,098	-0,085
-156,950	800,000	0,066	0,168
-155,935	260,969	0,068	-0,085
-154,920	-200,000	0,005	-0,028
-153,906	800,000	0,027	-0,067
-152,891	-200,000	0,014	0,066
-151,877	-99,555	0,042	-0,007
-150,862	800,000	-0,011	-0,028
-149,847	-30,376	-0,036	-0,015
-148,833	800,000	0,015	0,042
-147,818	800,000	-0,005	0,011
-146,804	-103,756	-0,077	0,013
-145,789	-200,000	-0,031	-0,115
-144,775	-140,085	-0,036	0,003
-143,760	-84,968	-0,173	0,039
-142,745	1,581	-0,038	-0,020
-141,731	-35,165	-0,091	-0,036
-140,716	263,173	0,098	0,123
-139,702	-200,000	-0,003	0,034
-138,687	800,000	0,020	0,055
-137,672	-57,136	-0,083	-0,026
-136,658	-101,554	0,171	0,030
-135,643	41,193	-0,057	-0,037
-134,629	-200,000	-0,028	-0,101
-133,614	234,033	0,074	0,087
-132,599	800,000	0,010	-0,029
-131,585	-200,000	-0,017	-0,094
-130,570	442,476	-0,103	-0,162
-129,556	355,526	-0,041	0,059
-128,541	-130,386	-0,067	-0,006
-127,526	431,068	-0,018	0,028
-126,512	-200,000	-0,019	-0,169
-125,497	-85,073	0,151	-0,034
-124,483	200,329	0,020	0,022
-123,468	103,113	-0,047	0,040
-122,453	-85,409	0,059	0,013
-121,439	-114,367	-0,050	-0,007
-120,424	77,683	-0,060	-0,046
-119,410	387,487	0,014	-0,021
-118,395	75,247	0,090	-0,068
-117,380	31,974	-0,021	-0,013
-116,366	-27,802	0,121	-0,050
-115,351	199,919	0,047	-0,052
-114,337	800,000	-0,025	-0,057
-113,322	-1,239	0,056	-0,028
-112,307	100,922	0,075	-0,063
-111,293	-79,583	-0,077	0,018
-110,278	-200,000	0,019	0,115
-109,264	-200,000	0,004	0,141
-108,249	-51,166	0,007	0,002
-107,234	3,120	-0,121	-0,063
-106,220	-197,524	0,075	-0,000
-105,205	16,679	0,096	-0,054
-104,191	-42,804	-0,092	0,033
-103,176	-121,777	-0,131	-0,015
-102,162	417,534	0,002	-0,003
-101,147	-76,998	-0,030	-0,007
-100,132	85,574	-0,071	-0,056
-99,118	-200,000	0,007	-0,052
-98,103	155,590	0,063	0,063
-97,089	-33,223	0,139	-0,055
-96,074	800,000	0,035	0,106
-95,059	-15,539	0,034	-0,016
-94,045	800,000	-0,038	-0,089
-93,030	57,713	-0,106	-0,074
-92,016	2,850	-0,046	-0,024
-91,001	8,184	0,013	0,007
-89,986	-180,153	-0,044	-0,001
-88,972	-200,000	0,002	0,022
-87,957	-31,847	0,109	-0,044
-86,943	-73,479	-0,139	-0,036
-85,928	-200,000	-0,010	-0,091
-84,913	72,718	0,120	-0,090
-83,899	175,947	-0,004	-0,005
-82,884	800,000	-0,016	0,038
-81,870	-200,000	-0,005	-0,045
-80,855	-145,519	-0,036	0,002
-79,840	222,535	0,036	-0,042
-78,826	263,316	-0,058	-0,072
-77,811	286,106	0,071	0,092
-76,797	-200,000	-0,003	0,082
-75,782	81,735	0,060	-0,046
-74,767	48,155	0,099	-0,067
-73,753	-75,470	0,105	0,027
-72,738	423,030	-0,044	0,068
-71,724	85,706	-0,041	-0,033
-70,709	106,355	0,061	0,052
-69,694	12,501	-0,048	0,026
-68,680	164,120	-0,004	0,004
-67,665	-74,213	-0,171	0,044
-66,651	-10,990	-0,036	-0,017
-65,636	241,239	0,021	0,025
-64,622	164,235	0,059	-0,060
-63,607	49,115	-0,053	-0,036
-62,592	218,519	0,055	-0,063
-61,578	-200,000	0,004	0,062
-60,563	-148,392	0,047	0,003
-59,549	-38,170	-0,059	0,022
-58,534	98,101	-2,738	-2,261
-57,519	-84,190	0,529	-0,119
-56,505	800,000	-1,815	-5,626
-55,490	489,702	1,242	2,045
-54,476	800,000	5,254	11,236
-53,461	-200,000	22,923	347,625
-52,446	800,000	765,680	2263,633
-51,432	497,055	1643,309	2721,709
-50,417	93,184	1599,377	1296,388
-49,403	60,995	1254,681	891,849
-48,388	21,147	1007,041	584,709
-47,373	18,352	974,884	556,883
-46,359	11,799	961,831	528,188
-45,344	7,753	958,481	513,213
-44,330	8,173	956,139	513,299
-43,315	7,168	954,465	509,132
-42,300	7,138	953,346	508,416
-41,286	7,180	952,382	508,019
-40,271	7,108	951,546	507,320
-39,257	7,163	950,431	506,882
-38,242	7,103	949,768	506,315
-37,227	7,090	948,985	505,837
-36,213	7,156	947,914	505,459
-35,198	7,091	947,306	504,905
-34,184	7,121	946,481	504,540
-33,169	7,086	945,649	503,965
-32,154	7,184	944,757	503,783
-31,140	7,183	943,776	503,239
-30,125	7,180	943,308	502,957
-29,111	7,198	942,377	502,499
-28,096	7,151	941,799	502,023
-27,082	7,125	941,087	501,538
-26,067	7,128	940,378	501,151
-25,052	7,101	939,604	500,631
-24,038	7,121	938,757	500,224
-23,023	7,052	938,254	499,718
-22,009	7,180	937,391	499,645
-20,994	7,115	936,910	499,163
-19,979	7,178	936,203	498,967
-18,965	7,148	935,490	498,472
-17,950	7,122	935,322	498,281
-16,936	7,124	934,398	497,774
-15,921	7,096	933,826	497,360
-14,906	7,009	933,301	496,786
-13,892	7,040	932,588	496,485
-12,877	7,005	932,012	496,049
-11,863	6,999	931,457	495,715
-10,848	7,020	930,815	495,420
-9,833	7,093	930,410	495,413
-8,819	7,045	929,609	494,815
-7,804	6,960	929,078	494,248
-6,790	6,980	928,487	493,976
-5,775	7,085	927,740	493,889
-4,760	7,001	927,325	493,383
-3,746	7,051	926,713	493,195
-2,731	6,906	925,977	492,331
-1,717	6,903	925,166	491,870
-0,702	6,820	924,700	491,343
0,313	6,720	924,078	491,442
1,327	10,088	921,601	500,585
2,342	18,570	770,229	440,325
3,356	13,481	442,149	245,182
4,371	-12,301	309,042	144,258
5,386	-15,920	291,867	132,610
6,400	-18,029	285,807	127,778
7,415	-18,315	283,369	126,399
8,429	-18,865	281,349	124,956
9,444	-19,156	280,516	124,296
10,459	-19,092	279,945	124,092
11,473	-19,016	279,291	123,865
12,488	-19,023	278,849	123,650
13,502	-18,993	278,382	123,461
14,517	-18,927	278,003	123,345
15,531	-18,874	277,446	123,137
16,546	-18,822	277,081	123,014
17,561	-18,837	276,627	122,788
18,575	-18,779	276,479	122,766
19,590	-18,791	275,941	122,505
20,604	-18,878	275,827	122,360
21,619	-18,841	275,445	122,215
22,634	-18,713	275,046	122,148
23,648	-18,652	274,683	122,032
24,663	-18,829	274,354	121,710
25,677	-18,780	274,250	121,699
26,692	-18,671	273,893	121,632
27,707	-18,684	273,657	121,504
28,721	-18,682	273,328	121,348
29,736	-18,819	273,156	121,134
30,750	-18,770	272,794	121,008
31,765	-18,677	272,641	121,016
32,780	-18,845	272,476	120,776
33,794	-18,938	272,166	120,541
34,809	-18,919	271,972	120,462
35,823	-18,574	271,483	120,555
36,838	-18,645	271,333	120,411
37,853	-18,746	271,115	120,211
38,867	-18,737	270,790	120,064
39,882	-18,815	270,804	119,987
40,896	-18,871	270,447	119,766
41,911	-18,903	270,294	119,659
42,926	-18,785	269,939	119,599
43,940	-18,770	269,682	119,489
44,955	-18,667	269,341	119,422
45,969	-18,558	269,053	119,384
46,984	-18,645	269,119	119,322
47,999	-18,683	268,978	119,215
49,013	-18,561	268,681	119,184
50,028	-18,588	268,436	119,040
51,042	-18,462	268,248	119,062
52,057	-18,505	268,022	118,911
53,071	-18,524	267,821	118,794
54,086	-18,553	267,524	118,625
55,101	-18,647	267,376	118,463
56,115	-18,579	266,998	118,347
57,130	-18,754	266,800	118,089
58,144	-18,704	266,481	117,983
59,159	-18,816	266,227	117,759
60,174	-18,752	265,915	117,668
61,188	-18,858	265,941	117,573
62,203	-18,601	265,534	117,615
63,217	-18,631	265,464	117,546
64,232	-18,652	265,130	117,369
65,247	-18,671	264,745	117,171
66,261	-18,661	264,564	117,090
67,276	-18,546	264,308	117,070
68,290	-18,665	264,237	116,920
69,305	-18,643	263,986	116,819
70,320	-18,507	263,860	116,875
71,334	-18,603	263,630	116,676
72,349	-18,650	263,312	116,483
73,363	-18,837	262,976	116,156
74,378	-18,781	262,976	116,196
75,393	-18,858	262,578	115,942
76,407	-18,749	262,435	115,965
77,422	-18,583	262,255	116,023
78,436	-18,759	261,953	115,723
79,451	-18,637	261,776	115,743
80,466	-18,554	261,544	115,704
81,480	-18,665	261,355	115,510
82,495	-18,640	261,270	115,485
83,509	-18,621	260,836	115,300
84,524	-18,659	260,726	115,208
85,539	-18,574	260,541	115,191
86,553	-18,636	260,231	114,989
87,568	-18,641	260,176	114,950
88,582	-18,566	259,832	114,853
89,597	-18,743	259,718	114,636
90,611	-18,531	259,429	114,686
91,626	-18,701	259,278	114,459
92,641	-18,618	258,886	114,349
93,655	-18,730	258,867	114,231
94,670	-18,528	258,647	114,302
95,684	-18,622	258,347	114,077
96,699	-18,728	258,144	113,884
97,714	-18,522	258,061	114,018
98,728	-18,671	257,882	113,798
99,743	-18,428	257,531	113,846
100,757	-18,535	257,454	113,708
101,772	-18,519	257,205	113,602
102,787	-18,816	256,966	113,226
103,801	-18,507	256,760	113,396
104,816	-18,717	256,663	113,160
105,830	-18,746	256,274	112,953
106,845	-18,547	256,025	113,006
107,860	-18,689	256,037	112,878
108,874	-18,626	255,658	112,755
109,889	-18,660	255,696	112,732
110,903	-18,443	255,204	112,694
111,918	-18,516	255,211	112,624
112,933	-18,533	254,947	112,482
113,947	-18,722	254,686	112,194
114,962	-18,787	254,588	112,084
115,976	-18,451	254,418	112,289
116,991	-18,705	254,137	111,936
118,006	-18,722	254,077	111,885
119,020	-18,667	253,899	111,844
120,035	-18,354	253,626	111,984
121,049	-18,553	253,393	111,700
122,064	-18,644	253,259	111,552
123,079	-18,606	252,972	111,448
124,093	-18,644	252,871	111,361
125,108	-18,642	252,739	111,295
126,122	-18,434	252,459	111,340
127,137	-18,516	252,383	111,226
128,151	-18,471	252,242	111,193
129,166	-18,253	251,828	111,187
130,181	-18,476	251,667	110,915
131,195	-18,486	251,501	110,823
132,210	-18,458	251,158	110,686
133,224	-18,539	250,929	110,506
134,239	-18,567	250,899	110,460
135,254	-18,595	250,638	110,311
136,268	-18,521	250,554	110,327
137,283	-18,370	250,257	110,315
138,297	-18,419	250,162	110,221
139,312	-18,497	249,874	110,019
140,327	-18,514	249,624	109,884
141,341	-18,807	249,601	109,617
142,356	-18,783	249,367	109,525
143,370	-18,784	249,277	109,475
144,385	-18,640	248,975	109,453
145,400	-18,522	248,630	109,391
146,414	-18,445	248,301	109,302
147,429	-18,673	248,357	109,124
148,443	-18,783	248,219	108,962
149,458	-18,646	248,057	108,996
150,473	-18,655	247,803	108,867
151,487	-18,602	247,573	108,801
152,502	-18,562	247,592	108,833
153,516	-18,452	247,215	108,749
154,531	-18,411	246,884	108,629
155,546	-18,656	246,954	108,445
156,560	-18,418	246,677	108,512
157,575	-18,544	246,391	108,272
158,589	-18,449	246,264	108,286
159,604	-18,515	246,037	108,121
160,619	-18,474	245,862	108,068
161,633	-18,647	245,732	107,858
162,648	-18,524	245,607	107,895
163,662	-18,438	245,485	107,904
164,677	-18,491	245,372	107,801
165,692	-18,704	245,257	107,564
166,706	-18,528	244,977	107,578
167,721	-18,740	244,779	107,305
168,735	-18,489	244,549	107,403
169,750	-18,755	244,513	107,157
170,764	-18,646	244,396	107,186
171,779	-18,534	243,964	107,080
172,794	-18,473	243,962	107,120
173,808	-18,614	243,848	106,944
174,823	-18,195	243,483	107,118
175,837	-18,376	243,377	106,914
176,852	-18,473	243,159	106,729
177,867	-18,425	243,130	106,746
178,881	-18,539	243,021	106,595
179,896	-18,612	242,724	106,396
180,910	-18,475	242,495	106,398
181,925	-18,381	242,217	106,344
182,940	-18,674	242,269	106,117
183,954	-18,644	242,009	106,018
184,969	-18,521	241,711	105,978
185,983	-18,789	241,776	105,779
186,998	-18,570	241,608	105,874
188,013	-18,427	241,131	105,773
189,027	-18,531	241,059	105,646
190,042	-18,557	240,856	105,527
191,056	-18,389	240,779	105,621
192,071	-18,555	240,630	105,411
193,086	-18,551	240,425	105,315
194,100	-18,646	240,245	105,150
195,115	-18,440	240,003	105,202
196,129	-18,683	239,894	104,947
197,144	-18,535	239,623	104,939
198,159	-18,531	239,393	104,832
199,173	-18,646	239,385	104,726
200,188	-18,627	239,188	104,647
201,202	-18,586	238,950	104,566
202,217	-18,656	238,846	104,455
203,232	-18,511	238,623	104,465
204,246	-18,511	238,263	104,298
205,261	-18,668	238,106	104,094
206,275	-16,769	238,694	105,869
207,290	-12,224	240,384	110,286
208,304	-5,724	242,372	116,481
209,319	-2,247	243,450	119,825
210,334	-1,049	243,555	120,843
211,348	-0,299	243,745	121,538
212,363	0,041	243,780	121,821
213,377	0,436	243,546	122,015
214,392	0,430	243,586	122,019
215,407	0,860	243,501	122,316
216,421	1,070	243,470	122,460
217,436	1,116	243,153	122,327
218,450	0,972	243,162	122,204
219,465	1,013	242,984	122,137
220,480	1,023	242,686	121,984
221,494	0,990	242,527	121,866
222,509	0,770	242,130	121,478
223,523	0,431	242,210	121,233
224,538	0,523	241,929	121,155
225,553	0,497	241,797	121,058
226,567	0,487	241,548	120,915
227,582	0,593	241,309	120,870
228,596	0,358	241,347	120,689
229,611	0,559	241,176	120,754
230,626	0,314	240,958	120,437
231,640	0,568	240,681	120,492
232,655	0,240	240,702	120,228
233,669	0,305	240,529	120,183
234,684	0,378	240,359	120,146
235,699	0,414	240,224	120,097
236,713	0,357	239,988	119,923
237,728	0,471	239,796	119,907
238,742	0,476	239,733	119,869
239,757	0,446	239,417	119,676
240,772	0,295	239,311	119,492
241,786	0,505	239,145	119,565
242,801	0,363	239,077	119,408
243,815	0,324	238,897	119,277
244,830	0,492	238,708	119,306
245,844	0,570	238,631	119,318
246,859	0,329	238,409	119,005
247,874	0,469	238,241	119,021
248,888	0,317	238,092	118,816
249,903	0,377	238,057	118,836
250,917	0,509	237,770	118,786
251,932	0,366	237,737	118,646
252,947	0,582	237,519	118,698
253,961	0,605	237,262	118,576
254,976	0,469	237,094	118,375
255,990	0,540	237,051	118,399
257,005	0,533	236,991	118,353
258,020	0,521	236,815	118,245
259,034	0,496	236,631	118,122
260,049	0,247	236,475	117,839
261,063	0,315	236,268	117,778
262,078	0,277	236,091	117,649
263,093	0,365	235,756	117,541
264,107	0,460	235,684	117,569
265,122	0,483	235,589	117,529
266,136	0,470	235,483	117,456
267,151	0,479	235,388	117,405
268,166	0,421	235,183	117,247
269,180	0,487	234,896	117,145
270,195	0,564	234,815	117,154
271,209	0,590	234,666	117,090
272,224	0,679	234,476	117,054
273,239	0,498	234,418	116,873
274,253	0,385	234,143	116,638
275,268	0,461	233,976	116,603
276,282	0,596	233,925	116,673
277,297	0,385	233,798	116,435
278,312	0,401	233,578	116,327
279,326	0,588	233,400	116,373
280,341	0,703	233,270	116,387
281,355	0,532	233,196	116,208
282,370	0,495	233,090	116,116
283,384	0,496	232,858	115,991
284,399	0,533	232,590	115,875
285,414	0,541	232,608	115,880
286,428	0,634	232,446	115,861
287,443	0,458	232,363	115,673
288,457	0,544	232,198	115,647
289,472	0,600	231,998	115,581
290,487	0,442	231,926	115,413
291,501	0,444	231,690	115,287
292,516	0,733	231,559	115,433
293,530	0,587	231,445	115,253
294,545	0,904	231,230	115,379
295,560	0,868	231,167	115,310
296,574	0,382	231,116	114,902
297,589	0,707	230,855	115,010
298,603	0,619	230,546	114,779
299,618	0,527	230,603	114,727
300,633	0,562	230,447	114,665
301,647	0,737	230,281	114,707
302,662	0,691	230,198	114,620
303,676	0,782	229,958	114,560
304,691	0,739	229,806	114,441
305,706	0,761	229,684	114,387
306,720	1,012	229,435	114,443
307,735	0,906	229,395	114,333
308,749	0,696	229,347	114,139
309,764	0,626	229,074	113,940
310,779	0,817	228,875	113,976
311,793	0,695	228,830	113,851
312,808	0,659	228,710	113,753
313,822	0,765	228,421	113,680
314,837	0,684	228,327	113,562
315,852	0,799	228,194	113,572
316,866	0,754	228,074	113,468
317,881	0,941	227,862	113,493
318,895	0,863	227,781	113,384
319,910	0,681	227,589	113,142
320,925	0,951	227,353	113,217
321,939	0,816	227,329	113,094
322,954	0,678	227,266	112,948
323,968	0,903	227,068	113,009
324,983	1,087	226,907	113,057
325,997	0,735	226,772	112,715
327,012	0,846	226,546	112,677
328,027	0,630	226,450	112,457
329,041	0,773	226,387	112,522
330,056	0,715	226,302	112,427
331,070	0,973	225,974	112,447
332,085	0,842	225,916	112,310
333,100	0,893	225,655	112,208
334,114	0,946	225,503	112,162
335,129	1,083	225,316	112,161
336,143	0,906	225,249	111,986
337,158	0,859	225,272	111,952
338,173	0,820	225,173	111,864
339,187	1,105	224,838	111,899
340,202	1,053	224,707	111,786
341,216	0,871	224,660	111,618
342,231	0,986	224,477	111,602
343,246	0,943	224,237	111,441
344,260	0,871	224,226	111,371
345,275	0,960	223,977	111,304
346,289	0,987	224,074	111,362
347,304	1,114	223,711	111,266
348,319	0,841	223,556	110,978
349,333	1,043	223,524	111,101
350,348	0,978	223,302	110,933
351,362	0,854	223,241	110,801
352,377	0,939	223,085	110,776
353,392	1,101	222,901	110,794
354,406	0,913	222,704	110,548
355,421	192,652	1312,222	1378,516
356,435	154,247	1444,811	1378,334
