DTS Sentinel unit serial number:	SN410029Multiplexer serial number:	ORYXHardware model number:	OX2-SRSoftware version number:	ORYX F/W v4,00 Oryx Data Collector v3.7.2.0data status	okinstallation	B5 Nyhavnadifferential loss correction	single-endedforward channel	channel 2reverse channel	N/Adate	2023/12/12time	00:37:13forward acquisition time	300,00reverse acquisition time	0,00gamma	499,1914k internal	0,3156k external	0,3156temperature offset calibration	1,0000default loss term (dB/km)	0,3820temperature slope calibration	1,0000multiplexer offset coefficient	1,0000multiplexer slope coefficient	1,0000fibre end	0,00T internal ref (°C)	16,07T ext. ref 1 (°C)	-0,33T ext. ref 2 (°C)	-0,63length (m)	temperature (°C)	Stokes	anti-Stokes-744,400	-200,000	0,007	-0,034
-743,385	-199,421	-0,388	-0,001
-742,371	201,176	0,068	-0,077
-741,356	3,486	-0,237	0,127
-740,342	-75,275	0,079	0,021
-739,327	-87,538	-0,330	0,073
-738,312	94,066	-0,018	-0,015
-737,298	-74,935	-0,316	-0,083
-736,283	53,965	0,117	-0,083
-735,269	-35,162	-0,158	-0,063
-734,254	209,785	-0,088	0,102
-733,239	-47,096	-0,434	-0,155
-732,225	396,172	0,121	-0,187
-731,210	55,135	-0,017	-0,012
-730,196	-68,760	-0,111	-0,031
-729,181	800,000	-0,024	-0,064
-728,167	-124,109	0,061	-0,007
-727,152	-200,000	-0,025	-0,114
-726,137	327,107	-0,057	0,081
-725,123	21,794	-0,070	-0,042
-724,108	800,000	0,049	-0,126
-723,094	-182,147	-0,115	-0,002
-722,079	-150,510	0,089	-0,005
-721,064	78,616	0,058	-0,046
-720,050	32,014	0,054	0,034
-719,035	65,919	0,042	-0,032
-718,021	-124,157	-0,079	0,009
-717,006	-200,000	-0,012	-0,076
-715,991	-92,360	-0,134	-0,028
-714,977	371,328	0,042	-0,063
-713,962	-5,187	0,057	-0,029
-712,948	-175,564	-0,081	0,002
-711,933	800,000	0,039	-0,094
-710,918	147,108	-0,114	-0,113
-709,904	73,980	-0,091	-0,071
-708,889	-104,892	0,084	-0,014
-707,875	-105,736	-0,083	-0,014
-706,860	5,496	-0,106	-0,057
-705,845	-56,158	0,171	-0,056
-704,831	-200,000	-0,034	0,130
-703,816	-200,000	0,010	-0,126
-702,802	-200,000	-0,001	0,014
-701,787	49,999	-0,036	-0,025
-700,772	-200,000	0,033	-0,132
-699,758	-200,000	0,003	-0,090
-698,743	102,573	0,018	-0,016
-697,729	800,000	-0,028	0,068
-696,714	87,414	-0,044	-0,036
-695,699	-200,000	0,047	-0,218
-694,685	800,000	0,007	-0,016
-693,670	-150,917	-0,068	0,004
-692,656	-36,713	-0,081	-0,032
-691,641	-193,916	0,046	-0,000
-690,627	17,842	-0,130	-0,076
-689,612	-179,224	0,145	0,002
-688,597	122,725	-0,051	-0,047
-687,583	-200,000	0,001	-0,023
-686,568	-97,874	-0,122	-0,023
-685,554	-12,546	0,181	-0,087
-684,539	179,573	-0,072	0,078
-683,524	129,852	-0,020	0,019
-682,510	99,619	-0,042	0,036
-681,495	24,350	-0,083	0,050
-680,481	-144,437	-0,073	0,005
-679,466	744,314	0,081	-0,161
-678,451	377,443	0,043	-0,065
-677,437	-24,183	0,059	0,026
-676,422	97,398	-0,084	-0,071
-675,408	800,000	0,020	-0,055
-674,393	484,230	-0,084	-0,141
-673,378	-61,713	-0,134	0,041
-672,364	-90,025	-0,128	-0,027
-671,349	-17,225	0,078	0,036
-670,335	800,000	0,019	0,048
-669,320	-5,296	0,074	0,037
-668,305	132,024	0,054	0,051
-667,291	43,543	0,021	0,014
-666,276	-1,381	-0,096	-0,050
-665,262	15,049	-0,148	-0,085
-664,247	-200,000	0,008	-0,094
-663,232	42,408	0,035	0,023
-662,218	-44,993	0,040	0,015
-661,203	82,099	-0,086	0,069
-660,189	16,264	0,069	-0,040
-659,174	-88,734	-0,040	0,009
-658,159	133,817	-0,148	-0,141
-657,145	165,679	0,010	0,010
-656,130	-200,000	-0,003	0,064
-655,116	-155,917	0,147	-0,007
-654,101	115,250	-0,139	0,125
-653,086	-113,495	-0,067	0,010
-652,072	600,408	0,035	-0,064
-651,057	308,315	-0,092	-0,126
-650,043	800,000	0,023	-0,055
-649,028	-101,310	0,070	0,012
-648,014	-115,560	0,099	0,014
-646,999	-200,000	0,007	-0,025
-645,984	91,148	0,025	0,021
-644,970	167,822	-0,069	-0,072
-643,955	71,711	-0,047	-0,036
-642,941	239,449	-0,059	-0,072
-641,926	-193,736	0,100	0,001
-640,911	592,401	0,061	-0,112
-639,897	79,821	-0,096	0,076
-638,882	-200,000	0,047	-0,201
-637,868	-103,721	-0,104	-0,018
-636,853	-200,000	-0,010	0,045
-635,838	-167,075	-0,094	0,003
-634,824	-200,000	-0,004	-0,138
-633,809	201,882	-0,077	-0,087
-632,795	-200,000	0,013	0,152
-631,780	51,528	-0,031	-0,022
-630,765	-168,783	0,097	0,003
-629,751	-95,152	0,025	0,005
-628,736	-72,689	-0,030	0,008
-627,722	-200,000	0,011	0,128
-626,707	154,195	0,087	0,088
-625,692	252,747	0,073	-0,092
-624,678	-142,076	0,061	-0,004
-623,663	-134,575	0,092	0,008
-622,649	15,715	-0,097	-0,056
-621,634	293,221	-0,052	0,070
-620,619	-169,157	-0,116	-0,003
-619,605	-100,383	-0,163	0,029
-618,590	-67,657	-0,090	-0,026
-617,576	-200,000	0,009	0,048
-616,561	175,228	-0,036	-0,038
-615,546	554,153	-0,037	0,066
-614,532	-200,000	0,024	0,103
-613,517	-200,000	0,000	-0,006
-612,503	387,738	-0,017	0,026
-611,488	770,918	-0,043	0,087
-610,474	247,432	-0,053	0,066
-609,459	137,088	-0,017	0,016
-608,444	-200,000	-0,053	-0,187
-607,430	-125,306	-0,025	0,003
-606,415	-200,000	0,036	0,154
-605,401	714,255	-0,055	-0,108
-604,386	-59,006	0,092	0,029
-603,371	1,343	0,061	-0,032
-602,357	104,139	0,071	0,061
-601,342	16,965	0,097	0,056
-600,328	-79,757	-0,131	0,032
-599,313	76,590	0,023	0,018
-598,298	-200,000	0,010	-0,045
-597,284	94,392	0,093	0,077
-596,269	573,860	-0,010	-0,017
-595,255	59,746	-0,093	0,067
-594,240	800,000	-0,057	-0,133
-593,225	-84,829	-0,125	-0,029
-592,211	-200,000	0,002	-0,028
-591,196	-200,000	-0,013	-0,069
-590,182	800,000	0,033	0,077
-589,167	-200,000	0,021	0,078
-588,152	169,409	-0,012	0,012
-587,138	212,750	-0,080	0,093
-586,123	-127,877	0,133	0,014
-585,109	167,809	0,008	-0,009
-584,094	800,000	-0,041	-0,130
-583,079	144,531	0,056	-0,055
-582,065	578,705	0,008	0,014
-581,050	-155,855	0,072	0,003
-580,036	146,438	0,124	-0,122
-579,021	800,000	-0,012	-0,038
-578,006	-35,235	-0,111	0,044
-576,992	79,332	0,101	-0,079
-575,977	-158,148	-0,127	-0,005
-574,963	-90,004	-0,067	0,014
-573,948	-192,260	0,103	0,001
-572,934	75,816	-0,012	0,009
-571,919	86,406	-0,184	-0,148
-570,904	-2,502	0,083	-0,042
-569,890	222,075	-0,095	-0,112
-568,875	-89,115	0,085	0,018
-567,861	-81,648	-0,107	-0,026
-566,846	63,127	0,064	0,047
-565,831	46,166	-0,087	-0,059
-564,817	-136,694	-0,029	-0,002
-563,802	86,610	-0,166	-0,134
-562,788	-84,905	-0,085	-0,019
-561,773	-200,000	0,048	-0,166
-560,758	-6,519	-0,058	0,029
-559,744	-200,000	-0,003	0,010
-558,729	-124,404	-0,066	0,007
-557,715	101,855	-0,145	-0,124
-556,700	257,428	-0,036	0,046
-555,685	-60,461	-0,073	-0,023
-554,671	-200,000	0,008	-0,033
-553,656	-31,549	-0,233	-0,095
-552,642	394,345	-0,049	-0,076
-551,627	-200,000	-0,012	0,118
-550,612	-182,497	0,071	0,001
-549,598	251,577	-0,138	-0,173
-548,583	-127,173	0,077	-0,008
-547,569	-200,000	0,009	0,188
-546,554	-119,987	0,157	0,019
-545,539	-151,835	0,140	-0,007
-544,525	114,213	-0,186	0,166
-543,510	-105,536	0,077	-0,013
-542,496	96,056	-0,011	-0,009
-541,481	-17,503	-0,131	-0,060
-540,466	-62,227	0,166	0,050
-539,452	129,451	0,040	-0,038
-538,437	-200,000	0,009	0,049
-537,423	99,665	-0,072	0,061
-536,408	800,000	0,008	0,017
-535,393	800,000	-0,035	0,077
-534,379	-70,463	-0,093	-0,026
-533,364	97,026	0,066	0,055
-532,350	800,000	0,017	0,037
-531,335	-96,552	-0,158	0,030
-530,321	-26,741	-0,145	0,062
-529,306	-200,000	-0,002	-0,084
-528,291	-3,558	-0,022	-0,011
-527,277	-13,699	0,026	-0,012
-526,262	-200,000	-0,014	-0,136
-525,248	-134,009	-0,140	-0,012
-524,233	-35,636	0,191	-0,075
-523,218	-200,000	-0,001	0,065
-522,204	186,442	0,099	-0,108
-521,189	-200,000	-0,015	-0,196
-520,175	739,216	0,014	-0,028
-519,160	-113,511	-0,103	-0,015
-518,145	-65,842	0,174	0,050
-517,131	-20,618	0,035	0,015
-516,116	205,897	0,028	0,031
-515,102	-41,724	0,083	0,031
-514,087	-200,000	0,000	-0,040
-513,072	453,704	-0,046	-0,074
-512,058	-200,000	-0,001	0,092
-511,043	42,758	0,097	0,065
-510,029	70,926	0,104	0,079
-509,014	351,297	-0,026	0,038
-507,999	728,783	-0,046	-0,090
-506,985	-137,338	0,047	-0,004
-505,970	-118,641	0,071	-0,009
-504,956	200,443	-0,095	0,106
-503,941	114,701	0,027	-0,024
-502,926	-116,293	0,091	-0,012
-501,912	-200,000	-0,034	-0,158
-500,897	-200,000	-0,009	-0,154
-499,883	209,297	-0,123	-0,142
-498,868	-80,769	0,024	0,006
-497,853	-45,629	-0,115	-0,042
-496,839	-200,000	-0,000	0,036
-495,824	-50,440	0,023	-0,008
-494,810	-161,161	0,050	0,002
-493,795	-73,057	0,083	-0,022
-492,781	-200,000	0,010	0,097
-491,766	-200,000	0,006	0,061
-490,751	800,000	-0,055	0,158
-489,737	-132,356	-0,104	-0,010
-488,722	-24,036	0,041	-0,018
-487,708	38,237	0,107	0,070
-486,693	-200,000	-0,003	0,076
-485,678	10,647	-0,070	-0,039
-484,664	800,000	-0,003	-0,009
-483,649	7,402	-0,144	-0,078
-482,635	-200,000	0,007	-0,104
-481,620	234,151	-0,059	-0,071
-480,605	-200,000	0,005	0,195
-479,591	-200,000	-0,008	-0,055
-478,576	344,238	-0,019	0,028
-477,562	-29,140	-0,114	-0,047
-476,547	-200,000	-0,014	0,077
-475,532	548,986	0,013	0,023
-474,518	-101,036	-0,053	0,009
-473,503	-98,371	-0,056	-0,010
-472,489	-33,340	0,083	0,033
-471,474	67,179	0,071	-0,053
-470,459	143,811	-0,125	-0,121
-469,445	-54,979	-0,055	-0,018
-468,430	800,000	-0,030	0,066
-467,416	703,941	-0,035	-0,067
-466,401	-150,325	0,132	0,007
-465,386	677,715	0,044	0,084
-464,372	-200,000	0,011	0,119
-463,357	-200,000	-0,008	-0,073
-462,343	389,592	0,031	-0,047
-461,328	133,695	-0,048	0,045
-460,313	-47,603	0,045	0,016
-459,299	-200,000	-0,010	0,097
-458,284	-116,661	0,079	0,011
-457,270	74,928	0,112	0,086
-456,255	800,000	-0,068	-0,206
-455,241	-106,273	-0,112	0,018
-454,226	800,000	-0,010	-0,021
-453,211	39,651	-0,126	0,083
-452,197	81,919	-0,085	-0,067
-451,182	-200,000	-0,004	0,077
-450,168	-144,661	0,071	0,005
-449,153	800,000	-0,064	-0,134
-448,138	56,698	-0,012	0,008
-447,124	9,384	0,117	-0,064
-446,109	143,947	0,033	0,032
-445,095	545,080	0,033	0,057
-444,080	-200,000	-0,005	0,057
-443,065	65,857	-0,072	-0,053
-442,051	-200,000	-0,010	-0,073
-441,036	366,072	-0,126	-0,186
-440,022	650,077	0,050	0,094
-439,007	15,677	-0,092	0,053
-437,992	62,582	0,070	-0,051
-436,978	-200,000	0,044	-0,231
-435,963	-98,286	0,018	0,003
-434,949	432,136	-0,041	0,065
-433,934	232,722	-0,017	0,020
-432,919	-200,000	-0,007	-0,174
-431,905	-135,677	-0,082	0,007
-430,890	-12,208	0,106	0,050
-429,876	-200,000	-0,024	0,089
-428,861	-200,000	0,010	0,108
-427,846	89,983	-0,047	0,039
-426,832	355,733	-0,007	-0,011
-425,817	800,000	-0,023	-0,060
-424,803	144,218	-0,062	-0,060
-423,788	79,970	0,060	-0,047
-422,773	-69,519	0,029	0,008
-421,759	800,000	0,019	-0,062
-420,744	-200,000	-0,106	-0,000
-419,730	-200,000	0,005	0,114
-418,715	-62,523	0,151	-0,045
-417,701	800,000	0,057	0,136
-416,686	800,000	-0,041	-0,122
-415,671	133,089	0,079	-0,075
-414,657	-200,000	-0,016	-0,097
-413,642	800,000	0,048	-0,096
-412,628	254,180	-0,117	0,146
-411,613	395,695	0,055	0,083
-410,598	-200,000	-0,016	-0,082
-409,584	427,449	-0,029	-0,046
-408,569	98,117	0,132	0,110
-407,555	-200,000	0,004	0,046
-406,540	112,546	0,123	0,108
-405,525	44,908	-0,089	-0,060
-404,511	-9,825	0,076	-0,037
-403,496	-28,767	-0,154	-0,064
-402,482	575,961	0,067	-0,120
-401,467	265,528	-0,015	0,019
-400,452	800,000	0,043	0,129
-399,438	800,000	0,029	0,061
-398,423	800,000	-0,057	0,133
-397,409	89,056	0,082	-0,066
-396,394	126,446	0,028	-0,026
-395,379	1,227	-0,079	0,041
-394,365	-200,000	0,003	0,134
-393,350	-200,000	-0,013	0,244
-392,336	781,095	0,050	0,100
-391,321	800,000	0,020	-0,060
-390,306	-96,405	0,266	0,051
-389,292	568,219	0,022	-0,038
-388,277	122,959	-0,081	-0,074
-387,263	159,365	-0,019	-0,019
-386,248	-200,000	0,030	0,108
-385,233	-50,834	-0,039	-0,013
-384,219	480,065	-0,052	0,087
-383,204	486,437	-0,087	-0,144
-382,190	-13,028	-0,066	-0,031
-381,175	-57,979	-0,067	0,021
-380,160	-106,431	0,051	-0,008
-379,146	72,643	0,116	-0,088
-378,131	153,286	0,126	-0,125
-377,117	-60,628	-0,083	0,026
-376,102	-44,390	-0,096	-0,035
-375,088	358,955	0,013	-0,019
-374,073	447,512	0,094	0,151
-373,058	128,392	-0,089	0,082
-372,044	-87,964	0,140	-0,030
-371,029	17,721	0,080	0,046
-370,015	-126,282	-0,143	-0,015
-369,000	350,484	0,057	-0,082
-367,985	234,229	-0,066	-0,079
-366,971	-200,000	-0,018	-0,075
-365,956	-200,000	-0,006	-0,080
-364,942	-46,315	0,049	-0,017
-363,927	-200,000	-0,002	-0,014
-362,912	-200,000	-0,002	-0,053
-361,898	-10,623	-0,060	-0,029
-360,883	-25,117	0,083	-0,036
-359,869	800,000	0,019	0,042
-358,854	456,737	-0,066	-0,107
-357,839	615,051	0,085	0,155
-356,825	-200,000	-0,005	0,098
-355,810	687,024	0,040	-0,077
-354,796	251,997	-0,046	-0,058
-353,781	-135,922	-0,076	-0,006
-352,766	274,426	-0,013	0,016
-351,752	-44,539	-0,078	-0,028
-350,737	-86,491	0,213	0,047
-349,723	509,828	0,041	-0,070
-348,708	325,233	0,083	0,116
-347,693	-14,202	-0,123	0,057
-346,679	186,954	0,033	0,036
-345,664	-200,000	-0,001	0,021
-344,650	93,217	-0,044	-0,036
-343,635	-167,036	0,065	0,002
-342,620	471,494	-0,026	0,042
-341,606	-55,235	0,148	0,048
-340,591	784,244	-0,055	0,111
-339,577	800,000	-0,018	0,044
-338,562	-97,245	-0,115	-0,022
-337,548	-200,000	-0,004	0,029
-336,533	-9,969	0,059	-0,028
-335,518	800,000	0,067	0,141
-334,504	193,978	0,179	0,197
-333,489	-143,371	-0,047	0,003
-332,475	-48,186	-0,108	-0,038
-331,460	-168,631	0,054	-0,001
-330,445	308,837	0,038	0,051
-329,431	404,822	0,112	0,171
-328,416	-18,724	0,124	0,056
-327,402	198,739	0,073	0,082
-326,387	-200,000	0,033	-0,127
-325,372	-200,000	0,006	-0,173
-324,358	213,746	-0,028	0,033
-323,343	-200,000	-0,013	-0,072
-322,329	-40,579	-0,013	-0,005
-321,314	-200,000	-0,043	0,164
-320,299	-89,690	0,063	0,013
-319,285	8,731	-0,065	0,035
-318,270	279,365	-0,015	0,019
-317,256	-110,589	-0,040	0,006
-316,241	593,815	-0,018	0,032
-315,226	-200,000	-0,006	0,027
-314,212	694,427	-0,031	0,059
-313,197	800,000	0,022	0,067
-312,183	74,903	0,089	-0,068
-311,168	84,668	-0,088	-0,070
-310,153	800,000	-0,034	-0,088
-309,139	47,297	-0,062	-0,042
-308,124	69,155	0,110	0,082
-307,110	250,679	-0,029	-0,035
-306,095	145,927	0,037	0,036
-305,080	800,000	0,040	0,088
-304,066	7,283	-0,047	-0,025
-303,051	-83,560	-0,102	-0,023
-302,037	246,277	-0,041	-0,050
-301,022	198,945	0,020	-0,022
-300,008	73,652	0,027	-0,020
-298,993	-145,828	0,186	-0,012
-297,978	249,584	-0,096	-0,118
-296,964	-186,490	0,101	-0,001
-295,949	-200,000	0,007	-0,023
-294,935	-96,245	0,165	0,031
-293,920	-200,000	-0,019	-0,135
-292,905	-137,988	-0,098	0,008
-291,891	-200,000	0,013	0,043
-290,876	800,000	-0,012	-0,037
-289,862	-200,000	-0,017	0,074
-288,847	-200,000	0,017	-0,109
-287,832	-200,000	0,007	-0,024
-286,818	79,472	-0,070	0,054
-285,803	259,100	-0,053	-0,066
-284,789	294,709	0,089	0,119
-283,774	7,496	0,125	0,068
-282,759	-200,000	0,040	-0,179
-281,745	-200,000	-0,011	-0,059
-280,730	60,644	-0,074	0,053
-279,716	314,421	0,056	0,076
-278,701	-45,478	0,119	0,043
-277,686	81,570	0,116	0,091
-276,672	-200,000	0,005	-0,083
-275,657	-200,000	-0,001	-0,032
-274,643	667,008	-0,021	0,040
-273,628	106,420	0,015	-0,013
-272,613	-117,185	0,055	0,007
-271,599	-100,882	0,084	0,015
-270,584	-200,000	0,019	0,089
-269,570	-200,000	0,000	-0,124
-268,555	-59,937	0,057	-0,018
-267,540	-57,108	0,143	-0,045
-266,526	76,467	-0,066	-0,050
-265,511	-56,961	0,067	-0,021
-264,497	-200,000	0,045	0,206
-263,482	21,983	-0,006	-0,004
-262,467	255,117	-0,077	-0,095
-261,453	-200,000	-0,002	0,052
-260,438	360,385	0,013	0,019
-259,424	-200,000	0,019	-0,068
-258,409	800,000	-0,025	-0,055
-257,395	468,935	0,044	-0,071
-256,380	220,097	0,085	0,099
-255,365	-200,000	0,011	0,066
-254,351	-200,000	-0,008	0,035
-253,336	297,435	0,022	0,029
-252,322	-80,216	0,079	-0,019
-251,307	-79,188	-0,155	0,038
-250,292	307,279	0,066	-0,089
-249,278	-39,018	0,046	0,018
-248,263	-136,257	-0,130	0,011
-247,249	217,807	0,141	0,163
-246,234	-5,287	-0,110	-0,055
-245,219	427,165	-0,065	-0,101
-244,205	198,115	0,011	-0,013
-243,190	-76,945	-0,092	-0,023
-242,176	800,000	-0,012	0,034
-241,161	-18,136	0,111	0,050
-240,146	368,266	0,055	0,081
-239,132	-200,000	-0,024	-0,102
-238,117	330,180	-0,056	-0,078
-237,103	449,443	-0,076	-0,122
-236,088	241,296	0,053	-0,064
-235,073	130,856	-0,037	0,035
-234,059	800,000	0,022	0,052
-233,044	-16,953	0,116	0,053
-232,030	-200,000	-0,028	-0,136
-231,015	800,000	-0,024	0,051
-230,000	-200,000	-0,006	0,107
-228,986	-159,709	-0,136	0,005
-227,971	46,893	-0,098	0,065
-226,957	-34,544	0,192	0,076
-225,942	-200,000	0,007	0,024
-224,927	-96,843	0,088	0,017
-223,913	-16,063	-0,046	-0,021
-222,898	748,919	-0,036	-0,071
-221,884	638,711	0,036	-0,066
-220,869	-200,000	-0,002	-0,085
-219,855	42,220	0,040	0,026
-218,840	-200,000	0,017	0,117
-217,825	585,375	-0,031	0,056
-216,811	-200,000	-0,014	-0,074
-215,796	212,497	-0,034	0,039
-214,782	128,708	0,053	0,048
-213,767	86,537	0,127	-0,101
-212,752	86,259	0,023	0,018
-211,738	-200,000	0,006	0,054
-210,723	-69,120	0,064	0,018
-209,709	588,152	0,028	-0,050
-208,694	-200,000	0,016	-0,063
-207,679	509,549	-0,047	0,079
-206,665	93,778	0,098	-0,080
-205,650	-162,490	-0,023	-0,001
-204,636	139,350	0,045	0,042
-203,621	91,611	0,094	0,077
-202,606	-200,000	0,013	0,079
-201,592	-81,148	-0,059	0,014
-200,577	-200,000	-0,018	0,079
-199,563	43,256	0,029	-0,019
-198,548	226,823	-0,087	0,102
-197,533	800,000	0,025	0,072
-196,519	80,690	-0,055	0,043
-195,504	-100,168	-0,042	0,008
-194,490	146,794	-0,044	-0,043
-193,475	-200,000	0,002	-0,014
-192,460	-200,000	-0,000	-0,020
-191,446	-200,000	0,025	-0,163
-190,431	145,702	0,008	0,007
-189,417	800,000	0,029	0,079
-188,402	12,151	-0,106	0,059
-187,387	-200,000	-0,002	-0,053
-186,373	800,000	-0,097	0,237
-185,358	-200,000	0,030	-0,154
-184,344	35,879	-0,057	0,036
-183,329	-101,013	-0,055	-0,010
-182,315	0,560	-0,044	0,023
-181,300	733,935	0,017	0,034
-180,285	800,000	0,039	-0,108
-179,271	-121,728	-0,104	-0,012
-178,256	408,976	0,037	0,057
-177,242	-111,589	0,086	0,012
-176,227	-200,000	-0,016	0,136
-175,212	-89,836	0,047	-0,010
-174,198	800,000	-0,030	-0,082
-173,183	60,740	-0,075	-0,054
-172,169	98,638	-0,031	0,026
-171,154	800,000	-0,022	-0,064
-170,139	800,000	0,064	0,166
-169,125	143,279	-0,051	-0,049
-168,110	-200,000	0,015	0,067
-167,096	-116,435	-0,232	0,031
-166,081	-23,145	-0,050	0,022
-165,066	118,128	-0,046	-0,041
-164,052	800,000	0,028	-0,078
-163,037	-100,108	0,063	-0,011
-162,023	495,963	0,057	0,094
-161,008	113,155	-0,070	-0,061
-159,993	-25,397	0,127	0,054
-158,979	86,394	0,054	0,043
-157,964	144,841	0,086	-0,083
-156,950	46,424	-0,089	-0,059
-155,935	800,000	-0,003	-0,008
-154,920	355,573	-0,012	0,018
-153,906	191,118	0,097	0,106
-152,891	606,814	0,017	-0,031
-151,877	800,000	-0,038	-0,084
-150,862	-200,000	0,001	0,056
-149,847	110,832	0,058	-0,050
-148,833	-200,000	-0,005	0,040
-147,818	-110,748	-0,009	-0,001
-146,804	-4,480	0,092	-0,046
-145,789	2,197	0,057	-0,030
-144,775	285,323	-0,029	-0,038
-143,760	692,011	0,064	-0,121
-142,745	725,383	0,029	-0,055
-141,731	312,124	0,082	0,111
-140,716	-200,000	-0,020	0,097
-139,702	38,554	0,074	0,048
-138,687	60,001	0,047	-0,034
-137,672	-80,965	-0,151	0,036
-136,658	-36,047	-0,025	-0,010
-135,643	-165,872	0,051	0,002
-134,629	-200,000	0,014	-0,083
-133,614	-200,000	0,008	0,028
-132,599	-133,102	0,020	0,002
-131,585	-200,000	-0,080	0,000
-130,570	-200,000	0,001	-0,111
-129,556	-65,315	0,272	0,078
-128,541	277,239	0,096	-0,123
-127,526	-23,323	0,041	0,018
-126,512	-16,840	0,032	-0,014
-125,497	-109,396	0,051	-0,008
-124,483	43,343	-0,066	0,043
-123,468	24,011	0,026	0,016
-122,453	-63,626	-0,085	0,025
-121,439	800,000	-0,022	-0,053
-120,424	298,206	-0,099	-0,132
-119,410	-137,277	0,109	0,009
-118,395	-83,708	0,052	-0,012
-117,380	-14,105	0,046	-0,021
-116,366	650,598	0,023	0,042
-115,351	-38,435	0,042	-0,016
-114,337	501,630	-0,079	-0,131
-113,322	-73,186	0,034	0,009
-112,307	67,977	-0,057	0,042
-111,293	66,631	0,095	-0,070
-110,278	108,261	-0,061	-0,052
-109,264	103,736	0,106	0,090
-108,249	-200,000	-0,002	0,100
-107,234	800,000	0,052	0,111
-106,220	55,111	0,163	0,113
-105,205	17,977	0,095	0,054
-104,191	-146,680	0,122	0,008
-103,176	-21,946	0,094	0,041
-102,162	454,914	-0,067	0,107
-101,147	-173,834	0,220	-0,005
-100,132	-130,317	-0,088	0,008
-99,118	800,000	0,023	-0,052
-98,103	-49,658	-0,133	0,045
-97,089	537,021	-0,020	0,034
-96,074	800,000	0,023	-0,067
-95,059	800,000	-0,027	0,055
-94,045	-18,789	-0,145	0,065
-93,030	-143,595	-0,020	-0,001
-92,016	104,898	-0,065	0,055
-91,001	-158,966	-0,047	0,002
-89,986	628,221	-0,009	-0,016
-88,972	-200,000	0,005	0,017
-87,957	-200,000	0,001	0,038
-86,943	256,832	-0,079	0,097
-85,928	-47,648	-0,106	-0,037
-84,913	800,000	-0,014	0,036
-83,899	-200,000	-0,043	0,143
-82,884	174,190	0,110	-0,115
-81,870	-8,322	0,069	-0,033
-80,855	-200,000	-0,012	0,054
-79,840	-124,293	0,074	0,008
-78,826	-58,032	0,035	-0,011
-77,811	-200,000	-0,024	-0,212
-76,797	800,000	-0,034	0,089
-75,782	-200,000	-0,007	-0,106
-74,767	-200,000	0,018	0,069
-73,753	-200,000	0,014	-0,080
-72,738	233,710	0,061	-0,072
-71,724	-97,790	-0,222	-0,041
-70,709	-200,000	-0,004	0,205
-69,694	50,859	0,032	0,022
-68,680	240,227	-0,032	0,038
-67,665	-65,442	-0,028	0,008
-66,651	-169,528	0,103	-0,003
-65,636	117,598	0,026	0,023
-64,622	-71,005	-0,080	0,021
-63,607	-60,033	0,086	0,026
-62,592	-13,292	-0,076	-0,035
-61,578	-200,000	-0,006	-0,086
-60,563	-114,846	0,087	-0,012
-59,549	697,910	0,052	0,098
-58,534	-8,427	-2,075	-0,998
-57,519	-200,000	-0,263	-0,940
-56,505	-200,000	-1,099	-4,840
-55,490	-23,491	0,803	0,345
-54,476	800,000	5,246	12,150
-53,461	-200,000	17,210	282,168
-52,446	800,000	721,394	2228,270
-51,432	546,066	1637,290	2822,330
-50,417	112,696	1631,030	1418,057
-49,403	76,621	1287,348	979,396
-48,388	33,116	1029,812	639,674
-47,373	20,363	991,490	573,738
-46,359	18,907	979,575	562,036
-45,344	16,352	975,653	551,383
-44,330	16,562	974,078	551,161
-43,315	16,155	972,457	548,890
-42,300	16,103	971,285	548,035
-41,286	16,116	970,287	547,492
-40,271	16,078	969,277	546,777
-39,257	16,116	968,397	546,382
-38,242	16,116	967,473	545,841
-37,227	16,112	966,665	545,351
-36,213	16,098	965,856	544,827
-35,198	16,071	965,031	544,252
-34,184	16,107	964,287	543,928
-33,169	16,093	963,158	543,223
-32,154	16,160	962,107	542,825
-31,140	16,086	961,395	542,163
-30,125	16,082	960,851	541,823
-29,111	16,142	959,780	541,390
-28,096	16,086	959,280	540,906
-27,082	16,095	958,649	540,558
-26,067	16,135	957,628	540,088
-25,052	16,075	957,098	539,575
-24,038	16,121	956,138	539,160
-23,023	16,099	955,661	538,801
-22,009	16,054	955,202	538,376
-20,994	16,141	954,493	538,235
-19,979	16,104	953,912	537,765
-18,965	16,086	953,201	537,287
-17,950	16,105	952,612	536,993
-16,936	16,023	952,083	536,410
-15,921	15,994	951,232	535,817
-14,906	15,996	950,621	535,459
-13,892	15,992	949,899	535,018
-12,877	16,017	949,251	534,712
-11,863	15,924	948,632	534,047
-10,848	16,035	947,874	533,951
-9,833	16,108	947,559	533,986
-8,819	16,064	947,058	533,542
-7,804	15,967	946,343	532,809
-6,790	15,963	945,649	532,385
-5,775	16,009	945,291	532,307
-4,760	16,059	944,389	531,937
-3,746	16,050	943,844	531,580
-2,731	15,892	943,240	530,720
-1,717	15,844	942,508	530,133
-0,702	15,805	942,101	529,761
0,313	15,635	941,294	529,568
1,327	18,827	938,911	538,257
2,342	27,774	796,732	480,524
3,356	24,487	460,636	272,750
4,371	-2,967	315,271	157,412
5,386	-7,040	296,973	144,129
6,400	-9,023	290,923	139,206
7,415	-9,357	288,353	137,635
8,429	-9,473	286,765	136,750
9,444	-9,490	286,089	136,398
10,459	-9,390	285,236	136,077
11,473	-9,505	284,847	135,768
12,488	-9,472	284,303	135,528
13,502	-9,472	283,842	135,297
14,517	-9,487	283,516	135,115
15,531	-9,347	282,938	134,962
16,546	-9,491	282,709	134,703
17,561	-9,247	282,007	134,591
18,575	-9,247	281,793	134,477
19,590	-9,335	281,379	134,182
20,604	-9,404	281,102	133,973
21,619	-9,423	280,856	133,825
22,634	-9,360	280,508	133,708
23,648	-9,313	280,081	133,538
24,663	-9,361	279,965	133,424
25,677	-9,324	279,609	133,278
26,692	-9,324	279,367	133,150
27,707	-9,258	279,059	133,055
28,721	-9,399	278,833	132,801
29,736	-9,413	278,564	132,647
30,750	-9,366	278,296	132,553
31,765	-9,387	278,034	132,397
32,780	-9,371	277,788	132,282
33,794	-9,538	277,670	132,056
34,809	-9,386	277,278	132,002
35,823	-9,190	276,788	131,942
36,838	-9,471	276,711	131,628
37,853	-9,445	276,447	131,515
38,867	-9,304	276,284	131,559
39,882	-9,411	275,954	131,290
40,896	-9,310	275,710	131,256
41,911	-9,596	275,663	130,954
42,926	-9,524	275,428	130,897
43,940	-9,573	275,149	130,708
44,955	-9,416	274,762	130,660
45,969	-9,557	274,636	130,455
46,984	-9,636	274,396	130,255
47,999	-9,944	274,074	129,804
49,013	-10,008	273,918	129,658
50,028	-9,996	273,566	129,492
51,042	-10,072	273,277	129,272
52,057	-10,058	272,980	129,132
53,071	-9,952	272,699	129,086
54,086	-10,126	272,773	128,949
55,101	-9,799	272,392	129,061
56,115	-9,762	272,262	129,022
57,130	-9,446	272,230	129,288
58,144	-9,233	272,073	129,400
59,159	-9,387	271,839	129,134
60,174	-9,198	271,442	129,109
61,188	-9,541	271,433	128,776
62,203	-9,329	271,205	128,853
63,217	-9,162	270,874	128,838
64,232	-9,261	270,613	128,611
65,247	-9,416	270,483	128,395
66,261	-9,286	270,192	128,365
67,276	-9,477	269,896	128,037
68,290	-9,643	269,770	127,814
69,305	-9,774	269,451	127,531
70,320	-9,607	269,240	127,573
71,334	-9,355	269,189	127,768
72,349	-9,187	268,740	127,698
73,363	-9,321	268,661	127,526
74,378	-9,471	268,429	127,267
75,393	-9,450	268,287	127,208
76,407	-9,619	267,994	126,904
77,422	-9,254	267,824	127,145
78,436	-9,226	267,654	127,078
79,451	-9,303	267,420	126,886
80,466	-9,312	267,027	126,680
81,480	-9,577	267,128	126,475
82,495	-9,470	266,781	126,396
83,509	-9,536	266,530	126,206
84,524	-9,435	266,387	126,219
85,539	-9,558	266,055	125,939
86,553	-9,516	265,932	125,908
87,568	-9,498	265,682	125,795
88,582	-9,419	265,557	125,796
89,597	-9,515	265,272	125,563
90,611	-9,411	265,143	125,584
91,626	-9,493	265,069	125,464
92,641	-9,439	264,795	125,372
93,655	-9,258	264,540	125,403
94,670	-9,506	264,311	125,060
95,684	-9,551	264,116	124,916
96,699	-9,274	263,881	125,042
97,714	-9,545	263,778	124,740
98,728	-9,397	263,493	124,726
99,743	-9,517	263,284	124,509
100,757	-9,636	263,022	124,268
101,772	-9,660	262,942	124,197
102,787	-9,436	262,657	124,251
103,801	-9,475	262,528	124,144
104,816	-9,370	262,395	124,164
105,830	-9,479	262,196	123,962
106,845	-9,349	262,059	124,002
107,860	-9,431	261,920	123,852
108,874	-9,441	261,584	123,673
109,889	-9,429	261,291	123,535
110,903	-9,310	261,133	123,554
111,918	-9,447	260,919	123,320
112,933	-9,584	260,908	123,183
113,947	-9,415	260,608	123,180
114,962	-9,337	260,369	123,124
115,976	-9,462	260,324	122,982
116,991	-9,234	260,081	123,057
118,006	-9,430	259,876	122,777
119,020	-9,538	259,817	122,643
120,035	-9,373	259,618	122,683
121,049	-9,186	259,285	122,679
122,064	-9,327	259,182	122,495
123,079	-9,182	258,944	122,500
124,093	-9,417	258,823	122,225
125,108	-9,634	258,540	121,891
126,122	-9,505	258,122	121,796
127,137	-9,593	258,074	121,684
128,151	-9,531	257,836	121,616
129,166	-9,465	257,712	121,604
130,181	-9,612	257,433	121,333
131,195	-9,717	257,286	121,162
132,210	-9,434	257,030	121,277
133,224	-9,424	256,963	121,243
134,239	-9,328	256,949	121,309
135,254	-9,195	256,702	121,298
136,268	-9,554	256,346	120,806
137,283	-9,518	256,176	120,747
138,297	-9,638	255,958	120,530
139,312	-9,722	255,821	120,382
140,327	-9,411	255,612	120,542
141,341	-9,230	255,619	120,690
142,356	-9,220	255,423	120,596
143,370	-9,330	255,217	120,393
144,385	-9,095	255,008	120,487
145,400	-9,014	254,751	120,424
146,414	-9,079	254,570	120,272
147,429	-9,165	254,476	120,143
148,443	-9,193	254,347	120,047
149,458	-9,130	254,044	119,947
150,473	-9,144	253,885	119,849
151,487	-9,247	253,634	119,632
152,502	-9,428	253,550	119,426
153,516	-9,203	253,252	119,469
154,531	-9,202	253,115	119,394
155,546	-9,151	253,030	119,386
156,560	-9,224	252,742	119,178
157,575	-9,276	252,573	119,043
158,589	-9,328	252,437	118,924
159,604	-9,232	252,312	118,937
160,619	-9,336	252,163	118,767
161,633	-8,987	251,919	118,939
162,648	-9,263	251,853	118,662
163,662	-9,162	251,564	118,601
164,677	-9,164	251,340	118,483
165,692	-9,075	251,335	118,546
166,706	-9,038	251,093	118,452
167,721	-9,175	250,876	118,223
168,735	-9,159	250,756	118,170
169,750	-9,117	250,611	118,127
170,764	-9,045	250,555	118,150
171,779	-8,925	250,291	118,117
172,794	-9,238	250,152	117,776
173,808	-9,203	249,931	117,691
174,823	-9,617	249,715	117,230
175,837	-9,826	249,443	116,917
176,852	-9,469	249,320	117,148
177,867	-9,240	249,356	117,348
178,881	-9,266	249,230	117,256
179,896	-9,054	248,944	117,289
180,910	-9,209	248,686	117,027
181,925	-9,191	248,558	116,972
182,940	-9,259	248,525	116,889
183,954	-9,272	248,237	116,731
184,969	-9,111	248,024	116,756
185,983	-9,377	248,014	116,518
186,998	-9,079	247,693	116,606
188,013	-9,127	247,529	116,478
189,027	-9,185	247,467	116,390
190,042	-9,307	247,270	116,186
191,056	-8,994	247,138	116,374
192,071	-8,918	246,849	116,290
193,086	-9,339	246,693	115,857
194,100	-9,171	246,549	115,918
195,115	-9,173	246,399	115,836
196,129	-9,128	246,216	115,777
197,144	-9,164	245,939	115,607
198,159	-9,174	245,821	115,532
199,173	-9,008	245,561	115,537
200,188	-9,200	245,413	115,298
201,202	-9,416	245,249	115,032
202,217	-9,699	245,008	114,676
203,232	-9,763	244,761	114,498
204,246	-9,469	244,704	114,703
205,261	-8,926	244,500	115,044
206,275	-9,849	244,182	114,125
207,290	-6,890	245,402	117,127
208,304	-0,237	247,319	123,551
209,319	2,361	248,000	126,037
210,334	3,114	248,011	126,654
211,348	3,360	247,952	126,816
212,363	3,381	247,923	126,807
213,377	3,453	247,896	126,842
214,392	3,401	247,775	126,726
215,407	3,180	247,572	126,428
216,421	3,124	247,403	126,285
217,436	3,524	247,262	126,531
218,450	3,794	247,002	126,610
219,465	3,259	246,887	126,098
220,480	3,218	246,829	126,024
221,494	3,143	246,545	125,806
222,509	3,323	246,391	125,864
223,523	3,020	246,222	125,518
224,538	2,745	245,919	125,126
225,553	2,777	245,690	125,025
226,567	3,082	245,607	125,222
227,582	3,292	245,422	125,288
228,596	3,222	245,323	125,169
229,611	2,765	245,123	124,683
230,626	2,851	244,857	124,606
231,640	3,131	244,751	124,769
232,655	3,090	244,667	124,682
233,669	3,102	244,280	124,484
234,684	2,846	244,168	124,207
235,699	3,178	244,392	124,581
236,713	3,293	244,115	124,522
237,728	3,201	243,901	124,326
238,742	2,913	243,563	123,909
239,757	3,095	243,272	123,898
240,772	2,871	243,437	123,789
241,786	3,061	243,113	123,767
242,801	3,151	243,026	123,785
243,815	2,632	242,932	123,306
244,830	3,118	242,737	123,589
245,844	3,194	242,675	123,607
246,859	3,096	242,391	123,373
247,874	2,814	242,295	123,085
248,888	2,803	242,139	122,986
249,903	3,027	241,961	123,065
250,917	3,262	241,757	123,139
251,932	3,311	241,886	123,234
252,947	3,097	241,598	122,904
253,961	2,798	241,334	122,519
254,976	3,087	241,117	122,629
255,990	3,359	241,040	122,798
257,005	2,914	240,982	122,400
258,020	2,609	240,656	121,979
259,034	2,862	240,554	122,119
260,049	3,040	240,373	122,159
261,063	2,755	240,180	121,822
262,078	2,940	239,951	121,843
263,093	3,138	239,797	121,912
264,107	3,394	239,642	122,026
265,122	2,910	239,554	121,585
266,136	3,142	239,473	121,718
267,151	3,305	239,381	121,790
268,166	3,086	239,133	121,479
269,180	2,800	238,901	121,122
270,195	3,622	238,881	121,754
271,209	3,598	238,884	121,726
272,224	3,152	238,487	121,159
273,239	2,764	238,343	120,768
274,253	2,889	238,116	120,742
275,268	3,226	238,079	120,978
276,282	3,223	237,862	120,855
277,297	3,087	237,750	120,679
278,312	2,983	237,530	120,475
279,326	3,012	237,604	120,525
280,341	3,049	237,428	120,454
281,355	3,038	237,253	120,346
282,370	3,191	237,094	120,375
283,384	3,155	236,911	120,243
284,399	3,124	236,688	120,095
285,414	2,911	236,384	119,763
286,428	2,968	236,392	119,801
287,443	2,905	236,325	119,706
288,457	3,146	236,106	119,774
289,472	3,408	235,870	119,848
290,487	3,134	235,785	119,580
291,501	2,800	235,606	119,218
292,516	2,856	235,419	119,157
293,530	2,830	235,175	119,002
294,545	2,928	235,310	119,136
295,560	2,991	235,089	119,062
296,574	3,080	234,725	118,937
297,589	2,913	234,667	118,767
298,603	3,140	234,716	118,958
299,618	3,281	234,461	118,928
300,633	3,130	234,339	118,738
301,647	3,291	234,286	118,825
302,662	3,491	234,370	119,013
303,676	3,783	233,971	119,026
304,691	3,304	233,862	118,589
305,706	3,630	233,723	118,760
306,720	3,522	233,462	118,533
307,735	3,421	233,269	118,346
308,749	3,102	233,223	118,066
309,764	2,767	233,118	117,744
310,779	2,970	232,786	117,722
311,793	2,738	232,535	117,407
312,808	2,691	232,401	117,292
313,822	2,821	232,299	117,330
314,837	2,579	232,111	117,039
315,852	2,676	232,066	117,081
316,866	3,103	231,875	117,301
317,881	3,451	231,866	117,553
318,895	3,274	231,694	117,320
319,910	3,552	231,563	117,456
320,925	3,195	231,406	117,092
321,939	2,991	231,182	116,813
322,954	3,005	231,106	116,775
323,968	3,003	230,927	116,673
324,983	3,074	230,705	116,604
325,997	2,730	230,613	116,284
327,012	2,799	230,401	116,220
328,027	3,101	230,330	116,403
329,041	3,368	230,227	116,545
330,056	3,788	230,401	116,942
331,070	3,851	230,149	116,852
332,085	3,307	229,771	116,236
333,100	3,220	229,584	116,065
334,114	3,427	229,576	116,208
335,129	3,356	229,429	116,070
336,143	3,373	229,306	116,010
337,158	3,553	229,072	116,017
338,173	3,436	229,090	115,927
339,187	3,192	228,889	115,631
340,202	3,234	228,870	115,642
341,216	3,281	228,595	115,529
342,231	3,262	228,425	115,418
343,246	3,202	228,173	115,236
344,260	3,427	228,138	115,377
345,275	3,506	228,076	115,394
346,289	3,603	227,912	115,374
347,304	3,642	227,851	115,362
348,319	3,607	227,621	115,210
349,333	3,409	227,365	114,921
350,348	3,237	227,217	114,708
351,362	3,419	227,033	114,741
352,377	3,123	226,923	114,453
353,392	3,124	226,665	114,314
354,406	3,086	226,731	114,308
355,421	195,771	1320,996	1399,334
356,435	156,967	1454,310	1399,353
