DTS Sentinel unit serial number:	SN410029Multiplexer serial number:	ORYXHardware model number:	OX2-SRSoftware version number:	ORYX F/W v4,00 Oryx Data Collector v3.7.2.0data status	okinstallation	B5 Nyhavnadifferential loss correction	single-endedforward channel	channel 2reverse channel	N/Adate	2023/12/11time	23:12:13forward acquisition time	300,00reverse acquisition time	0,00gamma	499,1914k internal	0,3156k external	0,3156temperature offset calibration	1,0000default loss term (dB/km)	0,3820temperature slope calibration	1,0000multiplexer offset coefficient	1,0000multiplexer slope coefficient	1,0000fibre end	0,00T internal ref (°C)	16,28T ext. ref 1 (°C)	-0,02T ext. ref 2 (°C)	-0,30length (m)	temperature (°C)	Stokes	anti-Stokes-744,400	141,642	-0,047	0,046
-743,385	-57,353	-0,214	-0,069
-742,371	323,014	0,034	0,048
-741,356	-18,866	-0,165	0,075
-740,342	-135,234	0,149	-0,013
-739,327	-93,476	-0,246	0,050
-738,312	88,441	0,052	0,043
-737,298	-133,345	-0,232	-0,021
-736,283	147,022	-0,049	-0,048
-735,269	49,119	-0,202	0,140
-734,254	-200,000	0,033	0,137
-733,239	-151,793	-0,466	-0,025
-732,225	-19,914	0,229	0,104
-731,210	203,031	0,111	0,127
-730,196	-174,128	-0,106	-0,002
-729,181	-200,000	-0,018	-0,091
-728,167	-16,277	-0,047	0,022
-727,152	98,712	-0,033	-0,028
-726,137	-200,000	0,023	-0,127
-725,123	-25,366	-0,088	-0,038
-724,108	-107,889	-0,112	0,018
-723,094	105,173	-0,098	-0,086
-722,079	436,553	-0,061	-0,098
-721,064	800,000	-0,024	0,067
-720,050	-200,000	-0,033	-0,141
-719,035	637,414	-0,065	-0,123
-718,021	-108,343	-0,037	0,006
-717,006	-200,000	-0,035	-0,164
-715,991	-3,177	-0,046	-0,024
-714,977	-200,000	0,020	-0,133
-713,962	800,000	-0,053	-0,111
-712,948	-200,000	-0,005	-0,160
-711,933	-200,000	-0,031	-0,109
-710,918	49,985	-0,080	0,055
-709,904	10,308	-0,062	-0,034
-708,889	39,977	0,115	-0,076
-707,875	-200,000	0,001	-0,033
-706,860	-52,514	0,061	0,021
-705,845	-156,899	0,082	-0,004
-704,831	65,604	-0,065	-0,049
-703,816	104,647	0,102	0,088
-702,802	385,581	-0,070	-0,107
-701,787	-200,000	-0,029	-0,142
-700,772	-88,678	0,082	-0,018
-699,758	800,000	-0,049	0,108
-698,743	-200,000	-0,002	0,060
-697,729	40,141	0,117	0,078
-696,714	701,851	0,045	-0,087
-695,699	-124,510	0,035	0,004
-694,685	800,000	-0,073	-0,233
-693,670	800,000	0,055	-0,152
-692,656	-100,450	-0,058	-0,010
-691,641	800,000	-0,057	0,157
-690,627	-200,000	-0,006	-0,040
-689,612	-135,149	0,126	-0,011
-688,597	-95,855	-0,091	0,018
-687,583	-104,003	-0,134	-0,023
-686,568	-200,000	0,013	-0,048
-685,554	-164,795	-0,028	0,001
-684,539	800,000	0,041	0,115
-683,524	-89,749	-0,069	-0,015
-682,510	-200,000	0,026	0,101
-681,495	144,095	-0,014	-0,014
-680,481	199,438	-0,069	0,078
-679,466	-200,000	-0,021	0,080
-678,451	800,000	-0,041	0,095
-677,437	-200,000	-0,018	0,177
-676,422	114,970	-0,053	-0,048
-675,408	-200,000	-0,006	-0,060
-674,393	751,254	0,024	0,049
-673,378	-84,032	-0,123	-0,028
-672,364	-200,000	0,011	-0,173
-671,349	-200,000	0,002	-0,028
-670,335	-35,825	0,135	0,053
-669,320	-119,149	-0,024	-0,003
-668,305	204,214	0,079	-0,090
-667,291	256,756	-0,085	-0,108
-666,276	-82,041	0,092	0,022
-665,262	783,614	-0,058	0,117
-664,247	-200,000	-0,005	-0,144
-663,232	381,584	0,016	-0,025
-662,218	-200,000	-0,009	-0,045
-661,203	295,219	0,057	0,077
-660,189	-148,877	-0,048	-0,003
-659,174	800,000	-0,024	-0,070
-658,159	800,000	-0,020	-0,057
-657,145	-98,515	0,124	0,023
-656,130	-68,091	-0,078	0,022
-655,116	-8,493	0,044	0,022
-654,101	38,103	0,106	-0,069
-653,086	-200,000	-0,033	-0,119
-652,072	800,000	-0,063	-0,153
-651,057	-29,357	0,086	-0,036
-650,043	-200,000	0,005	0,084
-649,028	-44,367	0,151	-0,055
-648,014	3,725	0,035	0,019
-646,999	296,786	0,028	0,038
-645,984	17,578	0,042	-0,024
-644,970	60,153	-0,023	-0,016
-643,955	800,000	-0,023	-0,067
-642,941	-113,094	-0,075	-0,011
-641,926	-66,205	0,070	-0,020
-640,911	-74,587	-0,113	-0,030
-639,897	-200,000	-0,007	0,110
-638,882	226,552	-0,096	0,114
-637,868	335,776	0,041	0,059
-636,853	280,078	-0,033	0,044
-635,838	377,069	-0,030	0,046
-634,824	62,899	0,094	0,069
-633,809	-40,698	0,156	0,059
-632,795	800,000	-0,033	0,088
-631,780	254,299	-0,041	0,052
-630,765	559,469	-0,070	-0,125
-629,751	-89,983	-0,104	-0,022
-628,736	800,000	-0,026	-0,062
-627,722	-32,153	-0,042	0,017
-626,707	-97,591	-0,130	-0,025
-625,692	-105,245	0,094	-0,016
-624,678	323,036	0,060	-0,084
-623,663	-200,000	-0,003	0,036
-622,649	24,257	0,061	0,037
-621,634	-200,000	0,010	0,073
-620,619	212,778	0,072	0,084
-619,605	72,163	-0,087	0,066
-618,590	34,835	-0,112	-0,072
-617,576	-200,000	0,035	-0,170
-616,561	4,867	-0,063	-0,034
-615,546	129,835	-0,090	-0,084
-614,532	259,384	0,054	-0,069
-613,517	609,769	-0,051	-0,094
-612,503	-169,555	0,114	-0,003
-611,488	26,649	-0,073	0,045
-610,474	78,578	0,120	-0,094
-609,459	9,858	-0,121	-0,067
-608,444	219,836	0,050	0,059
-607,430	490,056	0,050	-0,084
-606,415	332,468	-0,006	0,009
-605,401	143,124	0,063	-0,062
-604,386	57,481	0,021	-0,015
-603,371	433,342	0,050	-0,079
-602,357	800,000	0,024	0,071
-601,342	800,000	0,030	0,066
-600,328	373,985	0,035	-0,053
-599,313	800,000	-0,026	0,059
-598,298	-200,000	0,017	-0,073
-597,284	-200,000	-0,000	-0,157
-596,269	-28,134	0,182	-0,077
-595,255	-200,000	0,008	0,083
-594,240	-50,094	-0,109	0,038
-593,225	-167,099	-0,133	0,004
-592,211	-139,359	-0,061	-0,005
-591,196	800,000	-0,041	0,091
-590,182	284,574	0,055	0,073
-589,167	257,339	0,015	-0,019
-588,152	154,237	-0,073	-0,074
-587,138	-200,000	-0,003	0,091
-586,123	352,480	-0,071	0,103
-585,109	-150,928	0,064	0,003
-584,094	159,443	-0,037	0,038
-583,079	-176,801	-0,165	-0,003
-582,065	-88,147	0,212	0,046
-581,050	159,480	0,022	-0,023
-580,036	333,565	0,048	-0,068
-579,021	744,760	-0,016	0,032
-578,006	82,683	-0,116	-0,092
-576,992	404,582	-0,026	-0,040
-575,977	245,407	-0,095	0,117
-574,963	214,123	0,050	-0,058
-573,948	-200,000	0,004	0,101
-572,934	76,579	-0,062	-0,048
-571,919	-133,325	-0,127	0,012
-570,904	-200,000	-0,005	0,052
-569,890	-45,104	-0,073	0,026
-568,875	19,159	-0,022	0,013
-567,861	74,224	-0,075	0,058
-566,846	-32,363	0,070	0,029
-565,831	50,492	-0,105	-0,072
-564,817	125,357	-0,072	0,066
-563,802	417,624	0,032	0,050
-562,788	-52,764	-0,148	-0,050
-561,773	0,673	-0,064	0,033
-560,758	24,341	0,081	0,049
-559,744	-200,000	-0,010	0,138
-558,729	274,044	0,071	0,092
-557,715	47,421	0,049	0,033
-556,700	-28,036	-0,086	-0,036
-555,685	50,223	-0,032	-0,022
-554,671	800,000	-0,008	-0,021
-553,656	13,198	0,119	0,067
-552,642	650,274	-0,068	-0,129
-551,627	-9,738	0,083	-0,040
-550,612	-200,000	0,037	-0,134
-549,598	692,041	-0,039	-0,076
-548,583	-1,409	-0,055	-0,028
-547,569	-200,000	-0,016	0,153
-546,554	12,313	0,095	0,053
-545,539	-200,000	-0,017	0,158
-544,525	69,490	-0,112	0,084
-543,510	226,592	-0,037	-0,044
-542,496	800,000	0,009	-0,025
-541,481	-200,000	-0,007	0,070
-540,466	-91,674	-0,031	0,006
-539,452	-45,207	-0,014	0,005
-538,437	800,000	-0,022	0,059
-537,423	-142,827	0,081	0,006
-536,408	18,455	0,104	0,060
-535,393	-200,000	0,003	0,048
-534,379	-200,000	-0,010	0,049
-533,364	-24,088	0,028	0,012
-532,350	85,210	-0,054	-0,043
-531,335	17,791	0,042	-0,025
-530,321	331,782	-0,060	0,085
-529,306	230,298	0,004	-0,005
-528,291	-200,000	0,010	0,037
-527,277	-200,000	-0,011	0,042
-526,262	341,674	-0,059	-0,084
-525,248	-79,629	-0,017	-0,004
-524,233	-120,509	0,062	0,008
-523,218	-199,198	-0,123	0,000
-522,204	800,000	-0,019	-0,054
-521,189	538,152	-0,054	-0,095
-520,175	-59,397	-0,178	-0,055
-519,160	-200,000	-0,026	0,000
-518,145	-200,000	-0,014	0,094
-517,131	-200,000	0,022	0,072
-516,116	560,991	-0,037	0,065
-515,102	800,000	-0,023	-0,066
-514,087	-30,448	-0,036	-0,015
-513,072	324,466	-0,026	-0,036
-512,058	-200,000	-0,011	0,049
-511,043	455,934	0,046	-0,075
-510,029	-200,000	-0,010	0,173
-509,014	632,148	0,107	0,198
-507,999	-200,000	-0,032	0,154
-506,985	76,227	-0,061	-0,047
-505,970	-14,504	-0,058	-0,027
-504,956	-81,995	-0,153	0,036
-503,941	152,643	-0,073	-0,073
-502,926	42,182	0,052	-0,034
-501,912	-192,254	0,046	-0,000
-500,897	-200,000	0,024	0,144
-499,883	242,138	0,063	-0,077
-498,868	-136,342	-0,121	-0,010
-497,853	-43,755	-0,110	0,040
-496,839	237,786	-0,071	-0,086
-495,824	205,307	0,122	0,138
-494,810	92,537	-0,078	0,064
-493,795	-200,000	0,024	0,138
-492,781	-10,561	0,067	0,032
-491,766	-200,000	0,007	-0,064
-490,751	-113,246	0,063	0,009
-489,737	528,304	-0,005	-0,008
-488,722	800,000	0,052	0,108
-487,708	-200,000	0,011	-0,046
-486,693	-200,000	0,010	-0,067
-485,678	-200,000	0,007	-0,060
-484,664	800,000	0,018	-0,039
-483,649	-129,260	0,162	-0,016
-482,635	-139,095	-0,099	0,008
-481,620	165,196	0,169	0,174
-480,605	-75,687	-0,065	-0,017
-479,591	-38,197	-0,135	-0,052
-478,576	-134,704	-0,081	-0,007
-477,562	-64,657	-0,141	0,042
-476,547	788,842	0,043	-0,086
-475,532	-14,939	-0,022	-0,010
-474,518	800,000	0,016	0,035
-473,503	138,333	0,043	-0,041
-472,489	-200,000	-0,005	-0,056
-471,474	75,293	0,073	0,056
-470,459	64,908	-0,055	-0,040
-469,445	-191,471	0,074	-0,001
-468,430	-185,734	0,104	0,001
-467,416	273,360	-0,029	-0,038
-466,401	18,435	0,085	0,049
-465,386	800,000	0,022	0,066
-464,372	-30,124	-0,093	-0,038
-463,357	-200,000	0,013	0,100
-462,343	-56,189	0,085	0,027
-461,328	-99,727	-0,119	0,022
-460,313	759,635	0,029	0,059
-459,299	339,175	0,014	0,020
-458,284	-23,577	0,192	-0,084
-457,270	-119,073	0,087	0,011
-456,255	-200,000	0,003	0,045
-455,241	654,932	0,033	-0,062
-454,226	-1,398	-0,080	-0,041
-453,211	293,697	0,139	-0,185
-452,197	314,640	0,103	0,142
-451,182	13,441	0,131	0,074
-450,168	0,146	-0,131	-0,068
-449,153	13,802	-0,063	-0,036
-448,138	17,454	-0,077	0,044
-447,124	-112,574	-0,177	-0,025
-446,109	-200,000	-0,010	0,058
-445,095	231,016	0,079	-0,094
-444,080	-62,661	-0,044	0,013
-443,065	29,025	-0,107	0,066
-442,051	-4,956	0,073	0,036
-441,036	-38,026	-0,103	-0,040
-440,022	800,000	0,033	-0,089
-439,007	536,809	-0,059	0,103
-437,992	800,000	0,064	0,164
-436,978	-5,397	0,086	-0,043
-435,963	-106,726	-0,159	0,026
-434,949	499,437	0,077	0,130
-433,934	-200,000	-0,019	-0,078
-432,919	93,684	-0,065	-0,053
-431,905	232,021	0,064	0,077
-430,890	232,526	0,083	0,100
-429,876	95,810	0,140	0,117
-428,861	-200,000	0,028	0,122
-427,846	-113,869	-0,034	-0,005
-426,832	800,000	0,046	0,109
-425,817	478,546	-0,041	0,068
-424,803	-200,000	0,067	0,000
-423,788	277,502	0,026	-0,034
-422,773	800,000	0,014	-0,036
-421,759	166,427	0,076	0,078
-420,744	134,957	-0,118	0,112
-419,730	800,000	-0,073	-0,173
-418,715	421,379	0,051	-0,080
-417,701	314,600	0,074	-0,102
-416,686	-134,877	0,160	0,014
-415,671	514,519	0,034	0,057
-414,657	-154,585	-0,109	0,005
-413,642	800,000	0,067	0,156
-412,628	272,800	-0,069	-0,088
-411,613	-200,000	-0,017	-0,136
-410,598	-160,794	0,149	0,006
-409,584	109,645	0,082	-0,071
-408,569	-17,884	0,049	0,022
-407,555	-200,000	0,003	0,055
-406,540	479,238	0,067	0,112
-405,525	181,338	0,006	-0,006
-404,511	28,556	-0,036	0,022
-403,496	-125,518	-0,035	0,004
-402,482	53,503	0,124	0,086
-401,467	800,000	-0,020	-0,060
-400,452	390,437	0,039	0,059
-399,438	85,891	-0,142	-0,113
-398,423	5,304	-0,076	-0,041
-397,409	14,612	0,045	-0,026
-396,394	-92,109	-0,165	-0,034
-395,379	83,809	0,066	-0,052
-394,365	-200,000	-0,038	0,142
-393,350	227,936	-0,019	0,022
-392,336	-200,000	0,035	0,190
-391,321	97,754	-0,072	-0,060
-390,306	88,081	-0,077	0,062
-389,292	23,732	0,034	0,020
-388,277	-200,000	0,008	0,059
-387,263	-96,735	0,070	0,013
-386,248	800,000	0,075	0,154
-385,233	-200,000	0,003	-0,122
-384,219	186,500	-0,113	-0,123
-383,204	-42,929	0,047	0,017
-382,190	-200,000	0,001	-0,006
-381,175	15,936	-0,062	0,035
-380,160	-147,882	-0,006	0,000
-379,146	365,330	-0,034	0,050
-378,131	540,686	0,069	-0,120
-377,117	629,028	0,025	-0,047
-376,102	262,970	0,052	0,066
-375,088	800,000	0,047	0,131
-374,073	-200,000	-0,017	0,060
-373,058	-50,184	0,049	0,017
-372,044	-22,067	-0,050	-0,022
-371,029	-8,829	-0,142	-0,069
-370,015	264,402	0,045	0,057
-369,000	-200,000	-0,010	0,060
-367,985	-200,000	-0,006	-0,065
-366,971	-43,570	-0,035	-0,013
-365,956	-200,000	-0,006	0,028
-364,942	-53,842	0,046	-0,015
-363,927	529,407	0,021	0,037
-362,912	-127,194	0,078	0,008
-361,898	-200,000	-0,004	-0,097
-360,883	800,000	0,038	-0,093
-359,869	519,476	0,065	-0,111
-358,854	30,742	0,071	0,044
-357,839	-176,173	0,111	0,002
-356,825	609,592	0,062	0,113
-355,810	155,806	0,070	-0,070
-354,796	48,789	0,024	-0,016
-353,781	6,269	-0,079	0,042
-352,766	-68,873	-0,168	0,047
-351,752	800,000	0,012	-0,037
-350,737	261,066	-0,016	0,021
-349,723	-200,000	-0,025	0,105
-348,708	206,206	0,047	-0,053
-347,693	757,800	-0,063	0,124
-346,679	139,328	0,079	-0,076
-345,664	427,710	0,061	-0,095
-344,650	-43,807	-0,111	0,040
-343,635	-172,892	0,083	-0,002
-342,620	-200,000	0,017	-0,090
-341,606	-157,888	0,031	0,001
-340,591	800,000	0,085	-0,213
-339,577	800,000	0,015	-0,042
-338,562	-19,825	0,086	-0,038
-337,548	34,122	0,097	-0,061
-336,533	102,703	0,082	0,069
-335,518	-17,582	-0,059	-0,027
-334,504	315,333	0,065	-0,090
-333,489	-200,000	-0,007	0,029
-332,475	449,481	0,073	0,117
-331,460	-200,000	0,012	0,082
-330,445	175,789	0,049	-0,052
-329,431	261,721	-0,035	0,044
-328,416	55,849	0,028	0,020
-327,402	-200,000	0,014	0,117
-326,387	136,543	-0,090	0,085
-325,372	-57,347	-0,115	-0,036
-324,358	-143,807	-0,060	-0,004
-323,343	-200,000	0,007	0,042
-322,329	-32,729	-0,128	0,051
-321,314	800,000	-0,017	-0,042
-320,299	23,162	0,093	-0,055
-319,285	800,000	-0,009	-0,029
-318,270	669,793	-0,042	-0,080
-317,256	-78,059	-0,171	-0,042
-316,241	-59,491	-0,053	0,017
-315,226	408,633	0,050	-0,076
-314,212	-137,300	0,093	-0,008
-313,197	309,010	0,049	-0,066
-312,183	162,164	-0,014	0,014
-311,168	-200,000	-0,004	0,151
-310,153	-200,000	-0,013	-0,177
-309,139	-200,000	0,005	-0,041
-308,124	61,123	0,041	0,030
-307,110	-160,003	-0,117	0,005
-306,095	-144,209	0,174	0,012
-305,080	95,083	0,040	-0,033
-304,066	141,557	0,072	-0,070
-303,051	-111,982	-0,128	-0,019
-302,037	286,441	0,045	-0,059
-301,022	298,157	0,029	-0,039
-300,008	800,000	0,043	0,123
-298,993	185,698	-0,039	0,043
-297,978	1,872	0,032	-0,016
-296,964	-159,593	0,246	-0,010
-295,949	800,000	-0,062	-0,147
-294,935	788,491	-0,022	-0,044
-293,920	-200,000	-0,125	-0,000
-292,905	-200,000	0,042	0,171
-291,891	-200,000	-0,012	0,118
-290,876	156,388	0,058	0,058
-289,862	-200,000	0,012	0,079
-288,847	-9,257	-0,091	0,044
-287,832	113,778	0,104	0,091
-286,818	800,000	-0,029	-0,070
-285,803	764,063	-0,046	0,092
-284,789	133,738	-0,038	-0,035
-283,774	-200,000	-0,037	-0,125
-282,759	22,397	0,071	0,042
-281,745	402,065	0,050	-0,077
-280,730	424,483	-0,049	-0,077
-279,716	800,000	-0,044	0,113
-278,701	-200,000	-0,001	0,031
-277,686	-43,005	0,069	0,025
-276,672	250,210	0,004	0,004
-275,657	357,448	0,086	-0,124
-274,643	3,501	-0,127	0,067
-273,628	-38,800	0,007	0,003
-272,613	-61,474	-0,162	0,049
-271,599	-165,833	0,104	0,003
-270,584	-150,160	0,125	-0,007
-269,570	-25,317	0,030	0,013
-268,555	800,000	-0,052	-0,120
-267,540	800,000	-0,043	-0,099
-266,526	800,000	0,056	-0,149
-265,511	-200,000	0,011	0,058
-264,497	800,000	0,104	-0,210
-263,482	770,532	0,056	0,111
-262,467	-78,856	0,042	-0,010
-261,453	182,173	-0,058	0,062
-260,438	-22,112	-0,075	-0,033
-259,424	-1,157	0,090	0,046
-258,409	0,214	-0,058	0,030
-257,395	-89,143	-0,082	0,017
-256,380	-200,000	0,006	-0,028
-255,365	-81,566	-0,031	-0,007
-254,351	308,672	0,050	0,068
-253,336	-77,981	-0,003	-0,001
-252,322	-50,176	0,070	-0,024
-251,307	-200,000	-0,018	0,091
-250,292	24,381	-0,101	-0,060
-249,278	-129,320	-0,084	-0,008
-248,263	-200,000	0,038	0,125
-247,249	6,108	-0,117	-0,063
-246,234	-200,000	-0,020	-0,110
-245,219	-84,365	-0,080	0,018
-244,205	800,000	0,056	-0,135
-243,190	55,001	0,133	0,093
-242,176	50,964	-0,026	-0,017
-241,161	-110,355	0,072	-0,011
-240,146	-48,619	-0,159	0,055
-239,132	324,816	-0,015	-0,021
-238,117	375,570	-0,038	-0,056
-237,103	-200,000	-0,010	-0,083
-236,088	-87,722	-0,074	0,016
-235,073	526,167	0,078	-0,134
-234,059	-115,611	0,096	-0,013
-233,044	153,005	0,044	-0,044
-232,030	-200,000	0,014	-0,114
-231,015	108,888	-0,025	-0,022
-230,000	-9,594	-0,099	0,048
-228,986	14,608	-0,057	0,032
-227,971	-29,049	0,208	-0,086
-226,957	-4,351	0,111	0,055
-225,942	8,966	-0,103	0,056
-224,927	-176,802	0,131	-0,002
-223,913	-41,416	0,039	0,014
-222,898	2,283	-0,111	-0,058
-221,884	800,000	0,037	0,099
-220,869	-200,000	-0,032	0,107
-219,855	-27,411	0,175	-0,073
-218,840	-200,000	0,039	0,124
-217,825	-200,000	0,030	0,131
-216,811	-65,539	-0,163	0,047
-215,796	-200,000	0,027	0,093
-214,782	51,334	0,074	-0,051
-213,767	-87,354	0,158	-0,034
-212,752	-200,000	0,016	-0,111
-211,738	79,931	-0,098	-0,076
-210,723	-200,000	0,004	0,088
-209,709	145,399	0,096	-0,093
-208,694	-200,000	0,029	-0,103
-207,679	253,798	0,050	-0,062
-206,665	22,177	-0,200	-0,118
-205,650	634,197	0,052	-0,096
-204,636	-37,671	-0,129	0,049
-203,621	578,041	0,027	-0,049
-202,606	-118,228	0,148	0,019
-201,592	249,318	-0,049	-0,060
-200,577	-125,960	-0,090	0,010
-199,563	-200,000	0,010	0,061
-198,548	-122,997	-0,080	-0,009
-197,533	220,062	0,083	0,097
-196,519	320,983	-0,093	-0,128
-195,504	-49,722	0,161	-0,055
-194,490	252,454	-0,044	-0,055
-193,475	-200,000	-0,008	-0,149
-192,460	25,321	0,099	0,059
-191,446	469,977	-0,046	-0,074
-190,431	118,283	0,054	0,048
-189,417	191,032	0,088	0,096
-188,402	-129,826	-0,087	0,009
-187,387	191,827	0,039	-0,043
-186,373	800,000	-0,039	0,119
-185,358	-29,571	-0,073	-0,030
-184,344	800,000	0,022	-0,048
-183,329	39,451	0,101	-0,065
-182,315	258,285	0,071	0,089
-181,300	257,731	-0,051	-0,063
-180,285	369,317	-0,086	-0,126
-179,271	-73,136	0,115	-0,030
-178,256	206,180	0,060	-0,068
-177,242	0,992	-0,131	-0,068
-176,227	-200,000	0,043	0,139
-175,212	138,346	-0,119	0,113
-174,198	104,436	-0,048	-0,040
-173,183	-200,000	0,027	-0,092
-172,169	-200,000	-0,035	-0,176
-171,154	713,716	0,066	-0,126
-170,139	-200,000	0,010	0,084
-169,125	-192,966	0,101	-0,001
-168,110	800,000	0,038	-0,098
-167,096	-52,262	-0,140	-0,046
-166,081	195,357	0,026	-0,029
-165,066	-200,000	0,007	-0,030
-164,052	123,390	-0,148	-0,134
-163,037	426,153	0,012	-0,018
-162,023	-200,000	-0,006	0,050
-161,008	-31,235	-0,102	0,041
-159,993	-81,609	-0,076	-0,018
-158,979	-200,000	0,021	-0,116
-157,964	-200,000	0,006	-0,052
-156,950	-27,142	0,013	-0,005
-155,935	-200,000	0,042	-0,165
-154,920	800,000	-0,020	-0,062
-153,906	83,222	-0,096	0,075
-152,891	-118,657	-0,133	-0,017
-151,877	-98,560	-0,108	-0,020
-150,862	587,170	-0,061	0,109
-149,847	464,539	0,050	0,081
-148,833	539,248	0,071	-0,123
-147,818	125,121	0,068	-0,062
-146,804	77,709	0,065	0,050
-145,789	2,665	0,064	0,033
-144,775	178,969	-0,064	0,068
-143,760	-64,990	-0,058	0,017
-142,745	-119,905	0,156	0,019
-141,731	-50,873	-0,117	-0,039
-140,716	-57,993	0,077	0,024
-139,702	746,289	0,022	-0,043
-138,687	-200,000	0,008	0,047
-137,672	547,999	0,042	-0,073
-136,658	-137,326	-0,013	-0,001
-135,643	368,094	0,043	-0,063
-134,629	9,147	0,060	-0,032
-133,614	-200,000	0,015	0,114
-132,599	-119,673	0,160	-0,020
-131,585	476,741	0,019	-0,031
-130,570	22,093	-0,094	0,055
-129,556	-108,755	0,096	0,015
-128,541	-38,675	-0,180	0,068
-127,526	111,850	0,045	0,039
-126,512	800,000	-0,027	-0,079
-125,497	408,965	0,032	0,050
-124,483	246,455	0,105	0,128
-123,468	73,772	0,072	-0,054
-122,453	183,189	-0,151	-0,161
-121,439	259,539	-0,117	0,146
-120,424	371,176	0,047	0,069
-119,410	13,734	-0,008	0,004
-118,395	-76,942	0,156	-0,039
-117,380	-148,431	-0,027	-0,002
-116,366	45,155	-0,053	-0,035
-115,351	-12,717	0,024	-0,011
-114,337	-18,427	-0,135	0,060
-113,322	-80,374	-0,131	0,031
-112,307	12,164	0,030	0,016
-111,293	2,563	0,054	0,028
-110,278	-38,126	0,147	-0,056
-109,264	446,309	0,020	0,031
-108,249	-114,036	0,107	-0,015
-107,234	-10,045	-0,121	-0,058
-106,220	-200,000	0,000	0,023
-105,205	513,568	0,029	0,048
-104,191	223,432	0,093	0,109
-103,176	-200,000	-0,027	-0,138
-102,162	-48,279	0,036	0,013
-101,147	-7,111	-0,098	-0,048
-100,132	259,639	-0,033	-0,041
-99,118	-200,000	0,017	-0,078
-98,103	387,213	0,053	0,079
-97,089	-7,587	0,076	0,037
-96,074	-200,000	-0,007	0,124
-95,059	800,000	0,037	0,110
-94,045	70,133	0,057	-0,042
-93,030	800,000	-0,057	-0,136
-92,016	250,323	-0,121	-0,149
-91,001	-200,000	-0,011	0,046
-89,986	800,000	0,031	-0,070
-88,972	40,797	-0,041	-0,027
-87,957	-200,000	-0,023	-0,085
-86,943	4,376	-0,113	-0,059
-85,928	77,602	-0,073	-0,056
-84,913	83,493	0,017	-0,013
-83,899	800,000	0,057	0,119
-82,884	800,000	0,029	0,068
-81,870	-48,665	-0,156	0,054
-80,855	-167,186	-0,058	0,002
-79,840	126,047	-0,081	-0,074
-78,826	243,347	-0,048	0,058
-77,811	199,234	0,025	0,027
-76,797	531,682	-0,028	-0,047
-75,782	-23,747	0,158	-0,068
-74,767	-162,764	0,048	0,002
-73,753	-200,000	-0,004	0,021
-72,738	34,827	-0,075	0,047
-71,724	24,701	0,108	-0,064
-70,709	105,324	-0,053	0,045
-69,694	-200,000	-0,010	-0,082
-68,680	-65,113	0,132	-0,038
-67,665	-106,212	-0,054	0,009
-66,651	-139,698	-0,036	0,003
-65,636	800,000	-0,044	-0,101
-64,622	800,000	-0,012	-0,025
-63,607	-200,000	0,045	-0,161
-62,592	211,439	0,086	-0,098
-61,578	155,645	0,059	0,059
-60,563	160,107	0,072	0,072
-59,549	419,409	-0,078	0,120
-58,534	-35,651	-1,845	-0,715
-57,519	800,000	-0,354	-0,884
-56,505	-200,000	-1,200	-4,851
-55,490	-41,693	0,841	0,309
-54,476	800,000	5,243	12,161
-53,461	-200,000	17,098	280,463
-52,446	800,000	720,406	2222,980
-51,432	545,465	1635,328	2817,573
-50,417	113,172	1630,283	1419,611
-49,403	76,721	1287,679	980,010
-48,388	33,408	1030,747	641,223
-47,373	20,449	992,519	574,598
-46,359	19,002	980,750	563,001
-45,344	16,691	976,821	553,137
-44,330	16,787	975,224	552,525
-43,315	16,350	973,580	550,139
-42,300	16,383	972,254	549,477
-41,286	16,354	971,261	548,799
-40,271	16,377	970,362	548,344
-39,257	16,355	969,514	547,771
-38,242	16,326	968,718	547,207
-37,227	16,291	967,983	546,656
-36,213	16,321	966,977	546,164
-35,198	16,299	966,184	545,621
-34,184	16,342	965,558	545,385
-33,169	16,269	964,340	544,441
-32,154	16,342	963,395	544,120
-31,140	16,323	962,600	543,590
-30,125	16,380	961,649	543,215
-29,111	16,343	960,856	542,625
-28,096	16,265	960,411	542,099
-27,082	16,325	959,600	541,816
-26,067	16,273	958,970	541,271
-25,052	16,296	958,205	540,892
-24,038	16,307	957,610	540,571
-23,023	16,297	956,633	539,964
-22,009	16,283	956,188	539,645
-20,994	16,339	955,603	539,474
-19,979	16,404	954,898	539,263
-18,965	16,387	954,162	538,774
-17,950	16,321	953,842	538,360
-16,936	16,221	953,117	537,607
-15,921	16,286	952,383	537,381
-14,906	16,215	951,586	536,682
-13,892	16,168	951,106	536,240
-12,877	16,172	950,412	535,840
-11,863	16,169	949,560	535,327
-10,848	16,266	949,019	535,313
-9,833	16,293	948,630	535,157
-8,819	16,299	947,938	534,765
-7,804	16,169	947,469	534,064
-6,790	16,195	946,668	533,677
-5,775	16,173	946,085	533,256
-4,760	16,211	945,493	533,023
-3,746	16,221	944,930	532,715
-2,731	16,152	944,191	532,058
-1,717	16,074	943,581	531,447
-0,702	16,068	942,992	531,073
0,313	15,819	942,291	530,692
1,327	19,133	940,189	539,934
2,342	28,224	797,490	482,153
3,356	24,990	461,193	273,842
4,371	-2,448	315,118	157,887
5,386	-6,522	296,640	144,487
6,400	-8,771	290,885	139,433
7,415	-9,073	288,265	137,867
8,429	-9,113	286,783	137,107
9,444	-9,300	285,942	136,509
10,459	-9,270	285,465	136,299
11,473	-9,399	284,908	135,895
12,488	-9,080	284,259	135,884
13,502	-9,179	283,665	135,491
14,517	-9,273	283,304	135,216
15,531	-9,173	282,726	135,024
16,546	-9,052	282,260	134,907
17,561	-9,246	282,177	134,668
18,575	-9,151	281,654	134,497
19,590	-9,094	281,274	134,360
20,604	-9,064	281,014	134,252
21,619	-9,189	280,584	133,914
22,634	-9,031	280,329	133,932
23,648	-9,356	280,065	133,483
24,663	-9,230	279,880	133,503
25,677	-9,119	279,408	133,373
26,692	-9,167	279,235	133,232
27,707	-9,214	278,896	133,013
28,721	-9,214	278,691	132,904
29,736	-9,308	278,663	132,790
30,750	-9,305	278,107	132,516
31,765	-9,302	277,944	132,428
32,780	-9,108	277,685	132,478
33,794	-9,308	277,501	132,188
34,809	-9,244	277,328	132,155
35,823	-9,349	276,981	131,878
36,838	-9,114	276,713	131,961
37,853	-9,154	276,304	131,717
38,867	-9,272	276,123	131,507
39,882	-9,427	275,956	131,270
40,896	-9,247	275,587	131,252
41,911	-9,289	275,490	131,155
42,926	-9,221	275,271	131,103
43,940	-9,189	274,978	130,982
44,955	-9,249	274,775	130,816
45,969	-9,335	274,573	130,629
46,984	-9,566	274,363	130,301
47,999	-9,620	274,074	130,101
49,013	-9,782	273,799	129,808
50,028	-9,944	273,480	129,494
51,042	-9,976	273,138	129,291
52,057	-10,093	272,985	129,098
53,071	-9,911	272,810	129,173
54,086	-9,819	272,691	129,190
55,101	-9,662	272,426	129,199
56,115	-9,413	272,163	129,294
57,130	-9,168	272,186	129,521
58,144	-9,125	271,941	129,432
59,159	-9,042	271,641	129,355
60,174	-8,884	271,342	129,347
61,188	-9,179	271,200	128,995
62,203	-9,082	271,077	129,015
63,217	-9,158	270,721	128,764
64,232	-9,221	270,602	128,637
65,247	-8,996	270,296	128,687
66,261	-8,949	270,014	128,585
67,276	-9,271	269,906	128,227
68,290	-9,412	269,489	127,887
69,305	-9,570	269,570	127,770
70,320	-9,284	269,243	127,865
71,334	-9,150	268,992	127,858
72,349	-9,203	268,858	127,734
73,363	-9,050	268,530	127,706
74,378	-9,187	268,443	127,529
75,393	-9,232	268,265	127,391
76,407	-9,098	268,030	127,391
77,422	-9,247	267,816	127,142
78,436	-9,218	267,512	127,012
79,451	-9,014	267,335	127,103
80,466	-9,083	267,025	126,882
81,480	-9,140	266,841	126,731
82,495	-9,037	266,518	126,659
83,509	-9,357	266,416	126,310
84,524	-9,349	266,289	126,246
85,539	-9,411	265,896	125,992
86,553	-9,486	265,812	125,874
87,568	-9,220	265,610	126,006
88,582	-9,360	265,417	125,778
89,597	-9,252	265,146	125,735
90,611	-9,070	264,926	125,783
91,626	-9,180	264,928	125,674
92,641	-9,313	264,677	125,424
93,655	-9,127	264,405	125,451
94,670	-9,289	264,247	125,220
95,684	-9,266	264,141	125,179
96,699	-9,040	263,744	125,182
97,714	-9,368	263,585	124,802
98,728	-9,161	263,343	124,862
99,743	-9,385	263,099	124,534
100,757	-9,269	262,913	124,539
101,772	-9,244	262,826	124,509
102,787	-9,217	262,618	124,423
103,801	-9,249	262,488	124,322
104,816	-9,209	262,220	124,220
105,830	-9,013	262,100	124,326
106,845	-9,172	261,979	124,116
107,860	-9,073	261,572	124,000
108,874	-9,168	261,514	123,877
109,889	-9,132	261,304	123,799
110,903	-9,097	260,907	123,631
111,918	-9,096	260,801	123,571
112,933	-9,117	260,576	123,434
113,947	-9,115	260,384	123,334
114,962	-9,075	260,386	123,359
115,976	-9,123	260,180	123,208
116,991	-9,156	259,907	123,038
118,006	-9,238	259,828	122,918
119,020	-9,432	259,489	122,576
120,035	-9,061	259,562	122,926
121,049	-9,103	259,247	122,729
122,064	-9,261	259,137	122,527
123,079	-9,175	258,985	122,520
124,093	-9,177	258,643	122,345
125,108	-9,315	258,427	122,111
126,122	-9,511	257,962	121,709
127,137	-9,410	257,867	121,742
128,151	-9,405	257,850	121,727
129,166	-9,473	257,618	121,548
130,181	-9,414	257,343	121,459
131,195	-9,454	257,187	121,339
132,210	-9,183	256,971	121,463
133,224	-9,181	256,933	121,435
134,239	-8,991	256,666	121,463
135,254	-9,157	256,429	121,197
136,268	-9,180	256,263	121,087
137,283	-9,383	255,963	120,758
138,297	-9,476	255,698	120,543
139,312	-9,537	255,539	120,404
140,327	-9,360	255,557	120,555
141,341	-9,006	255,363	120,759
142,356	-9,002	255,215	120,681
143,370	-8,985	255,103	120,632
144,385	-9,074	254,885	120,442
145,400	-9,028	254,666	120,367
146,414	-9,023	254,512	120,288
147,429	-9,061	254,284	120,137
148,443	-8,915	254,149	120,187
149,458	-8,940	253,932	120,053
150,473	-9,001	253,774	119,915
151,487	-8,880	253,657	119,952
152,502	-9,064	253,414	119,670
153,516	-8,879	253,191	119,712
154,531	-8,950	252,855	119,482
155,546	-8,891	252,834	119,512
156,560	-9,022	252,740	119,345
157,575	-9,083	252,472	119,156
158,589	-9,033	252,248	119,082
159,604	-8,945	252,174	119,111
160,619	-8,892	251,937	119,033
161,633	-9,057	251,861	118,847
162,648	-8,934	251,729	118,878
163,662	-9,066	251,561	118,677
164,677	-9,024	251,321	118,588
165,692	-8,914	251,084	118,559
166,706	-8,826	250,998	118,582
167,721	-8,944	250,964	118,456
168,735	-9,047	250,683	118,225
169,750	-8,941	250,539	118,237
170,764	-8,788	250,458	118,317
171,779	-8,971	250,202	118,031
172,794	-8,915	250,164	118,050
173,808	-9,105	249,719	117,669
174,823	-9,220	249,555	117,485
175,837	-9,444	249,283	117,158
176,852	-9,176	249,206	117,337
177,867	-8,796	248,994	117,545
178,881	-8,802	248,878	117,476
179,896	-8,797	248,600	117,337
180,910	-8,980	248,608	117,178
181,925	-8,905	248,411	117,137
182,940	-9,000	248,237	116,965
183,954	-8,817	248,066	117,027
184,969	-8,912	248,041	116,925
185,983	-8,970	247,823	116,764
186,998	-8,688	247,464	116,820
188,013	-8,856	247,475	116,675
189,027	-8,962	247,214	116,452
190,042	-8,793	247,056	116,508
191,056	-9,064	246,878	116,189
192,071	-8,728	246,726	116,386
193,086	-8,979	246,486	116,054
194,100	-8,792	246,333	116,127
195,115	-8,950	246,266	115,953
196,129	-8,932	246,120	115,889
197,144	-8,896	245,826	115,770
198,159	-8,954	245,778	115,690
199,173	-8,855	245,401	115,584
200,188	-8,898	245,301	115,491
201,202	-9,018	245,082	115,278
202,217	-9,463	244,745	114,743
203,232	-9,566	244,392	114,482
204,246	-9,198	244,553	114,850
205,261	-8,542	244,343	115,281
206,275	-9,583	243,812	114,166
207,290	-6,354	245,159	117,448
208,304	0,003	247,138	123,655
209,319	2,045	247,754	125,644
210,334	2,699	247,701	126,147
211,348	3,018	247,481	126,288
212,363	3,186	247,479	126,415
213,377	3,168	247,460	126,379
214,392	3,303	247,237	126,365
215,407	3,158	247,229	126,230
216,421	3,171	246,925	126,074
217,436	3,475	246,932	126,317
218,450	3,583	246,776	126,315
219,465	3,204	246,391	125,795
220,480	2,991	246,268	125,546
221,494	3,129	246,142	125,584
222,509	3,360	246,031	125,706
223,523	3,034	245,897	125,359
224,538	2,492	245,582	124,742
225,553	2,694	245,411	124,810
226,567	2,859	245,313	124,884
227,582	2,630	245,263	124,660
228,596	2,984	244,931	124,769
229,611	2,704	244,781	124,454
230,626	2,560	244,631	124,248
231,640	2,739	244,369	124,250
232,655	2,809	244,330	124,276
233,669	2,749	244,047	124,072
234,684	2,664	244,002	123,970
235,699	3,174	243,881	124,311
236,713	3,154	243,725	124,204
237,728	2,838	243,565	123,855
238,742	2,718	243,266	123,595
239,757	2,659	243,197	123,501
240,772	2,774	242,965	123,466
241,786	2,856	242,942	123,509
242,801	2,663	242,655	123,196
243,815	2,690	242,509	123,133
244,830	2,989	242,341	123,278
245,844	3,011	242,247	123,237
246,859	2,754	242,050	122,918
247,874	2,982	241,856	122,993
248,888	2,706	241,724	122,693
249,903	2,762	241,773	122,752
250,917	3,110	241,576	122,921
251,932	3,184	241,482	122,921
252,947	3,207	241,191	122,781
253,961	2,713	240,921	122,236
254,976	3,036	240,848	122,447
255,990	2,959	240,819	122,360
257,005	2,731	240,602	122,056
258,020	2,733	240,211	121,848
259,034	2,668	240,146	121,752
260,049	2,863	240,201	121,925
261,063	2,813	239,818	121,680
262,078	2,649	239,722	121,490
263,093	2,992	239,686	121,734
264,107	2,777	239,476	121,446
265,122	2,530	239,179	121,087
266,136	2,979	238,996	121,341
267,151	3,175	239,018	121,497
268,166	2,878	238,781	121,130
269,180	2,543	238,633	120,778
270,195	3,330	238,544	121,347
271,209	3,395	238,465	121,347
272,224	2,840	238,286	120,806
273,239	2,559	237,920	120,388
274,253	2,590	237,863	120,372
275,268	2,972	237,814	120,638
276,282	2,903	237,510	120,419
277,297	2,686	237,404	120,183
278,312	2,730	237,332	120,171
279,326	2,719	237,226	120,098
280,341	2,962	237,072	120,200
281,355	2,849	236,854	119,991
282,370	3,038	236,649	120,024
283,384	2,930	236,628	119,918
284,399	2,870	236,270	119,679
285,414	2,555	236,158	119,365
286,428	2,736	236,059	119,446
287,443	2,916	235,880	119,485
288,457	3,011	235,826	119,522
289,472	3,117	235,713	119,536
290,487	3,043	235,427	119,324
291,501	2,839	235,182	119,029
292,516	2,713	234,951	118,803
293,530	2,507	234,921	118,617
294,545	2,905	234,924	118,918
295,560	3,027	234,754	118,917
296,574	2,494	234,476	118,351
297,589	2,476	234,386	118,280
298,603	3,086	234,335	118,718
299,618	3,113	234,213	118,667
300,633	3,042	234,002	118,494
301,647	2,944	234,050	118,432
302,662	3,433	233,920	118,735
303,676	3,298	233,676	118,496
304,691	3,102	233,554	118,272
305,706	3,431	233,353	118,414
306,720	3,149	233,177	118,096
307,735	3,091	232,995	117,949
308,749	3,008	232,893	117,822
309,764	2,672	232,626	117,418
310,779	2,500	232,466	117,194
311,793	2,532	232,226	117,087
312,808	2,540	232,071	117,005
313,822	2,549	231,918	116,924
314,837	2,518	231,747	116,804
315,852	2,647	231,705	116,872
316,866	2,847	231,723	117,023
317,881	2,931	231,686	117,059
318,895	3,130	231,359	117,035
319,910	3,221	231,258	117,043
320,925	2,907	231,010	116,667
321,939	2,864	230,901	116,569
322,954	2,910	230,847	116,567
323,968	3,016	230,688	116,556
324,983	2,892	230,365	116,289
325,997	2,910	230,228	116,223
327,012	2,800	230,060	116,044
328,027	2,871	230,069	116,092
329,041	3,391	230,008	116,446
330,056	3,758	230,044	116,733
331,070	3,541	229,725	116,396
332,085	3,086	229,447	115,900
333,100	2,694	229,236	115,486
334,114	3,239	229,109	115,824
335,129	3,179	229,271	115,851
336,143	3,169	228,936	115,664
337,158	3,284	228,870	115,707
338,173	3,404	228,717	115,710
339,187	3,109	228,562	115,399
340,202	3,369	228,340	115,472
341,216	3,234	228,084	115,230
342,231	3,032	228,037	115,045
343,246	3,011	228,048	115,024
344,260	3,081	227,790	114,937
345,275	3,293	227,753	115,066
346,289	3,295	227,589	114,975
347,304	3,341	227,428	114,918
348,319	3,329	227,377	114,873
349,333	3,098	227,078	114,539
350,348	2,924	226,866	114,291
351,362	3,055	226,847	114,369
352,377	3,052	226,639	114,252
353,392	2,786	226,561	114,004
354,406	2,921	226,343	113,985
355,421	195,364	1321,551	1398,570
356,435	156,603	1454,997	1398,585
