DTS Sentinel unit serial number:	SN410029Multiplexer serial number:	ORYXHardware model number:	OX2-SRSoftware version number:	ORYX F/W v4,00 Oryx Data Collector v3.7.2.0data status	okinstallation	B5 Nyhavnadifferential loss correction	single-endedforward channel	channel 2reverse channel	N/Adate	2023/12/11time	16:12:13forward acquisition time	300,00reverse acquisition time	0,00gamma	499,1914k internal	0,3166k external	0,3166temperature offset calibration	1,0000default loss term (dB/km)	0,3820temperature slope calibration	1,0000multiplexer offset coefficient	1,0000multiplexer slope coefficient	1,0000fibre end	0,00T internal ref (°C)	13,82T ext. ref 1 (°C)	-1,11T ext. ref 2 (°C)	-1,20length (m)	temperature (°C)	Stokes	anti-Stokes-744,400	86,318	0,182	0,147
-743,385	-82,738	-0,278	-0,066
-742,371	328,973	0,102	0,145
-741,356	-2,605	-0,207	0,106
-740,342	-35,833	0,139	-0,055
-739,327	-121,486	-0,296	0,036
-738,312	253,862	0,026	0,033
-737,298	17,015	-0,222	0,129
-736,283	240,249	-0,006	0,007
-735,269	-63,526	-0,160	-0,048
-734,254	307,600	0,026	-0,036
-733,239	-60,968	-0,462	-0,143
-732,225	-33,446	0,172	0,070
-731,210	438,722	0,024	0,038
-730,196	70,951	0,013	0,010
-729,181	-88,568	-0,041	0,009
-728,167	-200,000	-0,041	-0,146
-727,152	-200,000	-0,017	-0,100
-726,137	-18,192	-0,091	0,042
-725,123	2,460	0,093	-0,049
-724,108	80,328	-0,128	-0,101
-723,094	-200,000	-0,016	-0,160
-722,079	-142,466	-0,135	0,010
-721,064	708,175	0,077	-0,151
-720,050	172,914	-0,024	0,025
-719,035	-131,067	-0,080	0,008
-718,021	-32,698	0,099	-0,040
-717,006	358,240	-0,059	0,086
-715,991	-99,156	-0,167	-0,031
-714,977	145,965	0,116	-0,115
-713,962	-102,636	-0,045	-0,008
-712,948	-200,000	0,007	-0,027
-711,933	41,685	-0,053	0,035
-710,918	37,755	-0,143	-0,093
-709,904	-62,824	-0,112	-0,034
-708,889	-95,364	-0,094	-0,018
-707,875	-80,532	-0,067	-0,016
-706,860	-200,000	0,003	0,016
-705,845	-200,000	-0,037	0,133
-704,831	-200,000	-0,009	0,047
-703,816	265,898	-0,070	-0,089
-702,802	-1,158	-0,034	-0,017
-701,787	748,996	-0,075	-0,150
-700,772	-161,070	-0,067	-0,003
-699,758	72,751	0,122	-0,093
-698,743	30,425	0,118	0,074
-697,729	131,103	0,019	0,018
-696,714	-23,702	0,049	0,021
-695,699	-200,000	0,003	-0,068
-694,685	-59,550	-0,099	0,031
-693,670	81,606	-0,146	-0,116
-692,656	-200,000	-0,003	0,111
-691,641	-200,000	0,005	0,054
-690,627	-200,000	0,005	-0,072
-689,612	-200,000	-0,023	-0,151
-688,597	-50,516	-0,160	-0,055
-687,583	238,875	-0,079	-0,097
-686,568	-87,618	-0,183	-0,040
-685,554	72,943	-0,042	0,032
-684,539	-102,859	0,093	0,016
-683,524	16,172	-0,150	0,087
-682,510	-200,000	0,007	0,035
-681,495	-12,843	-0,137	-0,065
-680,481	800,000	-0,076	-0,163
-679,466	222,098	-0,109	0,129
-678,451	-200,000	0,002	0,039
-677,437	800,000	0,039	-0,097
-676,422	800,000	-0,045	-0,116
-675,408	-18,141	-0,126	0,058
-674,393	-58,019	-0,051	-0,016
-673,378	-10,184	-0,184	-0,090
-672,364	145,677	-0,172	-0,169
-671,349	538,297	0,030	0,053
-670,335	9,273	0,132	0,073
-669,320	-56,248	0,150	-0,048
-668,305	439,764	-0,055	0,088
-667,291	-46,726	-0,145	0,052
-666,276	509,708	-0,088	0,151
-665,262	125,990	-0,075	-0,069
-664,247	-200,000	-0,005	-0,049
-663,232	52,554	-0,061	0,042
-662,218	348,375	-0,035	-0,051
-661,203	-96,886	0,113	0,022
-660,189	-43,545	0,068	0,025
-659,174	800,000	-0,028	-0,079
-658,159	-141,156	0,103	0,008
-657,145	90,514	0,029	0,024
-656,130	70,435	-0,125	0,094
-655,116	10,594	-0,071	0,040
-654,101	34,776	0,063	0,040
-653,086	282,285	-0,067	-0,088
-652,072	27,284	0,079	0,049
-651,057	3,540	-0,087	-0,046
-650,043	-200,000	-0,015	-0,117
-649,028	180,582	0,049	0,053
-648,014	800,000	0,072	0,150
-646,999	-200,000	0,035	0,127
-645,984	-200,000	0,032	0,130
-644,970	-108,870	-0,125	0,019
-643,955	-29,212	-0,087	-0,036
-642,941	45,273	0,118	-0,080
-641,926	121,205	-0,052	-0,048
-640,911	-1,006	0,025	-0,013
-639,897	104,853	-0,069	0,060
-638,882	-200,000	0,006	0,066
-637,868	39,982	-0,107	0,070
-636,853	-78,305	-0,192	-0,048
-635,838	-200,000	0,030	-0,198
-634,824	679,178	-0,046	-0,088
-633,809	800,000	0,051	0,155
-632,795	-149,330	0,058	0,003
-631,780	232,965	-0,072	0,086
-630,765	-200,000	0,027	-0,095
-629,751	321,721	-0,050	-0,070
-628,736	-137,715	-0,059	0,005
-627,722	800,000	-0,065	-0,133
-626,707	-12,031	0,078	-0,037
-625,692	153,831	0,125	0,125
-624,678	173,392	0,066	0,070
-623,663	-85,300	-0,110	0,025
-622,649	499,851	-0,049	-0,082
-621,634	-28,687	-0,143	-0,060
-620,619	-61,735	0,085	-0,026
-619,605	-17,248	0,126	0,058
-618,590	577,343	0,046	-0,083
-617,576	-200,000	0,018	-0,187
-616,561	800,000	-0,007	0,021
-615,546	568,918	-0,050	0,089
-614,532	398,456	-0,077	0,118
-613,517	-28,889	-0,038	0,016
-612,503	-164,853	-0,034	0,001
-611,488	-200,000	0,028	0,120
-610,474	322,206	-0,073	-0,102
-609,459	800,000	-0,029	0,092
-608,444	51,443	0,124	0,086
-607,430	800,000	-0,038	0,103
-606,415	-200,000	0,017	-0,066
-605,401	-188,501	0,043	0,000
-604,386	-19,717	-0,014	-0,006
-603,371	358,115	-0,038	0,056
-602,357	73,296	-0,080	-0,061
-601,342	-41,392	-0,082	0,031
-600,328	-61,461	-0,152	0,046
-599,313	95,978	0,071	0,059
-598,298	325,830	-0,082	-0,115
-597,284	56,332	0,047	-0,033
-596,269	-75,668	-0,043	-0,011
-595,255	176,448	-0,058	0,062
-594,240	665,197	-0,048	0,092
-593,225	800,000	0,014	0,039
-592,211	197,144	0,046	0,051
-591,196	-200,000	-0,020	-0,083
-590,182	235,445	0,051	0,062
-589,167	-126,793	0,129	0,014
-588,152	-46,835	-0,033	-0,012
-587,138	800,000	-0,019	0,046
-586,123	-165,796	-0,014	-0,000
-585,109	-200,000	-0,037	-0,121
-584,094	-145,992	0,039	0,002
-583,079	-180,602	0,085	0,001
-582,065	-62,275	0,067	0,020
-581,050	-55,843	0,166	0,054
-580,036	63,513	-0,112	-0,082
-579,021	-200,000	0,066	-0,227
-578,006	800,000	0,055	-0,123
-576,992	-98,072	-0,017	0,003
-575,977	-65,932	0,070	-0,020
-574,963	337,841	-0,049	0,070
-573,948	-200,000	0,011	0,056
-572,934	-200,000	0,002	-0,045
-571,919	-162,720	-0,132	0,005
-570,904	160,900	0,059	-0,060
-569,890	-107,580	-0,076	-0,012
-568,875	-61,483	0,060	0,018
-567,861	492,884	-0,036	0,061
-566,846	-200,000	-0,035	0,131
-565,831	79,754	-0,070	-0,055
-564,817	-65,233	-0,071	-0,021
-563,802	-200,000	-0,009	0,042
-562,788	-65,869	0,037	-0,011
-561,773	381,171	0,052	-0,078
-560,758	-12,565	0,085	0,040
-559,744	654,297	-0,036	-0,068
-558,729	800,000	0,027	-0,072
-557,715	-23,022	-0,029	0,013
-556,700	-24,634	-0,075	-0,032
-555,685	-6,572	0,099	-0,049
-554,671	-91,783	0,058	0,012
-553,656	800,000	-0,027	-0,057
-552,642	172,923	0,082	0,086
-551,627	-200,000	0,014	0,147
-550,612	800,000	-0,027	-0,060
-549,598	-143,171	-0,062	0,004
-548,583	355,461	-0,056	-0,082
-547,569	139,388	-0,082	0,079
-546,554	55,366	0,056	0,040
-545,539	86,071	0,084	0,068
-544,525	-200,000	-0,010	-0,080
-543,510	-200,000	0,014	-0,074
-542,496	-140,848	-0,081	-0,006
-541,481	-150,601	0,159	0,009
-540,466	108,969	-0,093	-0,081
-539,452	-19,464	-0,075	-0,034
-538,437	13,647	0,084	0,047
-537,423	-2,307	0,031	0,016
-536,408	36,716	0,014	-0,009
-535,393	-200,000	-0,033	-0,190
-534,379	-24,788	0,050	-0,021
-533,364	-200,000	-0,077	0,000
-532,350	-200,000	0,005	-0,131
-531,335	234,587	0,075	0,090
-530,321	-200,000	0,025	0,112
-529,306	800,000	-0,046	0,092
-528,291	116,885	-0,046	0,041
-527,277	144,642	-0,093	-0,091
-526,262	247,450	-0,064	0,079
-525,248	-85,969	-0,021	-0,005
-524,233	-200,000	0,042	0,208
-523,218	478,078	-0,027	-0,045
-522,204	56,995	0,044	-0,031
-521,189	158,706	0,039	0,039
-520,175	-200,000	0,032	-0,142
-519,160	-200,000	0,009	-0,063
-518,145	800,000	0,017	0,050
-517,131	197,224	-0,073	-0,082
-516,116	-143,702	-0,052	0,004
-515,102	-200,000	-0,034	-0,145
-514,087	-47,782	-0,117	-0,041
-513,072	-79,951	-0,060	0,015
-512,058	157,889	0,047	-0,047
-511,043	-200,000	-0,011	0,100
-510,029	199,314	0,073	0,081
-509,014	800,000	0,070	0,156
-507,999	30,660	0,141	-0,088
-506,985	-117,725	-0,153	-0,020
-505,970	-3,718	0,098	-0,049
-504,956	190,715	0,067	-0,073
-503,941	252,843	0,007	0,009
-502,926	211,719	0,097	0,111
-501,912	147,398	0,078	0,076
-500,897	-200,000	0,018	0,119
-499,883	445,827	0,068	0,109
-498,868	-200,000	-0,012	-0,076
-497,853	-8,779	-0,098	0,048
-496,839	115,289	-0,105	-0,094
-495,824	-0,567	0,093	-0,048
-494,810	-50,753	-0,025	0,009
-493,795	584,720	0,022	0,040
-492,781	800,000	-0,073	-0,219
-491,766	-57,636	-0,048	0,015
-490,751	67,466	-0,084	0,063
-489,737	-2,172	-0,005	0,003
-488,722	-200,000	0,014	-0,048
-487,708	-104,590	-0,074	-0,012
-486,693	134,819	0,074	0,070
-485,678	521,501	0,043	0,073
-484,664	800,000	-0,010	-0,020
-483,649	378,919	-0,057	-0,086
-482,635	35,993	-0,073	-0,047
-481,620	71,870	-0,016	0,012
-480,605	329,630	-0,009	0,013
-479,591	177,560	-0,088	0,094
-478,576	-200,000	0,003	0,100
-477,562	-74,369	-0,145	0,038
-476,547	-200,000	-0,016	-0,086
-475,532	45,390	0,035	-0,023
-474,518	47,533	0,082	0,055
-473,503	-67,297	0,102	-0,029
-472,489	26,512	0,063	-0,038
-471,474	138,246	-0,011	-0,011
-470,459	351,148	0,037	-0,054
-469,445	-171,105	-0,195	-0,005
-468,430	-14,068	-0,050	0,023
-467,416	794,011	0,033	-0,067
-466,401	-26,295	-0,169	0,072
-465,386	167,027	-0,050	0,052
-464,372	215,279	0,048	0,055
-463,357	-30,136	0,065	-0,027
-462,343	79,756	0,088	0,068
-461,328	477,957	0,032	0,052
-460,313	468,425	-0,043	-0,070
-459,299	-10,618	0,063	-0,030
-458,284	800,000	0,014	0,041
-457,270	73,672	-0,075	-0,057
-456,255	791,390	-0,018	0,036
-455,241	-77,531	-0,084	-0,021
-454,226	291,701	-0,060	-0,079
-453,211	178,455	0,071	-0,076
-452,197	281,550	0,042	0,055
-451,182	28,430	0,016	-0,010
-450,168	665,142	0,045	0,085
-449,153	-94,826	-0,091	-0,018
-448,138	-200,000	0,015	0,052
-447,124	245,355	0,022	0,027
-446,109	-200,000	-0,025	-0,154
-445,095	71,015	0,103	0,078
-444,080	-200,000	-0,026	0,152
-443,065	481,992	0,073	0,121
-442,051	770,852	0,035	0,071
-441,036	800,000	-0,035	-0,090
-440,022	-200,000	0,022	0,086
-439,007	-200,000	0,020	0,170
-437,992	-111,766	-0,059	-0,009
-436,978	576,003	0,064	0,113
-435,963	582,972	-0,028	0,049
-434,949	-45,047	0,048	0,017
-433,934	-79,526	-0,041	0,010
-432,919	-200,000	-0,014	-0,096
-431,905	95,027	0,061	0,050
-430,890	207,994	-0,086	0,098
-429,876	263,471	0,122	0,154
-428,861	300,303	-0,030	0,040
-427,846	-2,295	0,102	-0,052
-426,832	800,000	0,044	0,124
-425,817	44,707	-0,090	-0,060
-424,803	800,000	0,031	-0,086
-423,788	800,000	0,014	0,037
-422,773	-200,000	0,003	0,055
-421,759	517,932	0,057	-0,098
-420,744	56,882	0,095	-0,067
-419,730	18,603	-0,025	0,015
-418,715	-167,917	-0,006	0,000
-417,701	194,935	-0,050	0,055
-416,686	420,624	-0,013	0,020
-415,671	13,958	-0,098	0,055
-414,657	373,586	0,071	0,106
-413,642	-13,877	-0,026	-0,012
-412,628	39,897	-0,065	-0,042
-411,613	-123,859	-0,054	-0,006
-410,598	417,568	-0,058	-0,090
-409,584	337,953	-0,051	0,072
-408,569	29,320	-0,061	0,038
-407,555	335,324	-0,001	0,002
-406,540	294,179	0,055	-0,073
-405,525	-85,233	-0,029	-0,006
-404,511	78,086	-0,070	-0,054
-403,496	-31,513	0,070	0,029
-402,482	-74,241	-0,074	-0,019
-401,467	-192,587	0,215	0,001
-400,452	-200,000	0,019	0,063
-399,438	-200,000	-0,013	0,114
-398,423	800,000	-0,033	0,078
-397,409	63,649	-0,024	0,018
-396,394	186,420	0,055	0,060
-395,379	-54,056	0,099	-0,032
-394,365	800,000	-0,036	0,073
-393,350	800,000	-0,016	0,047
-392,336	-86,708	0,092	0,020
-391,321	512,499	-0,009	-0,015
-390,306	68,721	0,092	-0,068
-389,292	127,687	-0,026	0,024
-388,277	-3,544	-0,075	-0,038
-387,263	800,000	0,035	-0,093
-386,248	109,254	0,032	0,028
-385,233	21,650	0,079	-0,046
-384,219	-132,159	0,077	-0,007
-383,204	-169,618	-0,155	0,004
-382,190	30,187	-0,097	-0,060
-381,175	800,000	-0,042	-0,103
-380,160	293,990	0,057	-0,076
-379,146	63,978	-0,054	0,039
-378,131	7,118	0,110	0,060
-377,117	95,233	-0,078	0,065
-376,102	118,625	-0,046	0,041
-375,088	571,429	0,041	-0,074
-374,073	104,978	-0,110	-0,094
-373,058	584,169	-0,033	0,060
-372,044	500,284	0,032	0,053
-371,029	155,939	0,140	0,140
-370,015	523,909	-0,041	0,070
-369,000	561,578	-0,022	-0,038
-367,985	-200,000	0,012	0,097
-366,971	800,000	0,022	0,056
-365,956	-200,000	-0,012	-0,145
-364,942	60,612	0,136	-0,098
-363,927	-23,269	-0,101	0,044
-362,912	86,355	-0,021	-0,017
-361,898	-118,825	-0,093	-0,012
-360,883	146,766	-0,058	-0,056
-359,869	-200,000	0,027	-0,088
-358,854	670,480	-0,008	0,015
-357,839	-89,243	-0,051	-0,011
-356,825	-200,000	-0,006	0,096
-355,810	137,747	0,047	-0,045
-354,796	-75,433	-0,072	-0,018
-353,781	-23,834	-0,101	0,044
-352,766	-76,848	0,070	0,017
-351,752	151,972	0,077	-0,076
-350,737	92,212	-0,029	0,024
-349,723	800,000	0,021	-0,057
-348,708	-200,000	0,016	0,125
-347,693	-152,945	0,070	-0,004
-346,679	-32,116	-0,076	-0,030
-345,664	800,000	-0,026	0,054
-344,650	-16,438	0,081	-0,037
-343,635	212,412	0,033	-0,038
-342,620	165,257	-0,015	0,015
-341,606	105,384	-0,028	0,024
-340,591	-21,140	-0,123	-0,054
-339,577	-149,637	0,068	0,004
-338,562	480,042	-0,074	-0,122
-337,548	146,355	-0,069	0,067
-336,533	-36,079	0,079	0,031
-335,518	187,047	0,039	-0,042
-334,504	160,183	-0,058	0,058
-333,489	636,985	-0,034	-0,062
-332,475	-0,100	-0,157	0,081
-331,460	800,000	-0,041	-0,101
-330,445	-90,588	0,205	0,042
-329,431	103,266	0,058	0,049
-328,416	-26,777	0,230	0,097
-327,402	-6,618	-0,132	-0,065
-326,387	42,588	0,063	-0,042
-325,372	-200,000	0,007	0,029
-324,358	-73,832	0,080	-0,021
-323,343	7,739	0,131	0,071
-322,329	687,141	0,078	-0,147
-321,314	-200,000	-0,014	0,061
-320,299	-200,000	-0,002	0,087
-319,285	-200,000	0,011	0,064
-318,270	-85,278	-0,036	0,008
-317,256	55,506	0,075	-0,052
-316,241	-200,000	-0,003	0,035
-315,226	-175,461	-0,042	-0,001
-314,212	-1,151	0,033	0,017
-313,197	329,634	-0,080	0,112
-312,183	-106,949	0,083	-0,013
-311,168	133,099	-0,096	-0,090
-310,153	-200,000	0,047	-0,160
-309,139	800,000	0,059	-0,121
-308,124	358,823	0,056	-0,081
-307,110	-91,060	0,020	-0,004
-306,095	-132,879	0,091	-0,008
-305,080	-200,000	-0,001	0,017
-304,066	800,000	-0,047	-0,099
-303,051	-200,000	-0,043	-0,163
-302,037	101,812	0,114	-0,096
-301,022	611,406	0,051	0,093
-300,008	363,557	0,036	0,053
-298,993	122,888	-0,028	0,025
-297,978	22,240	-0,111	0,065
-296,964	-200,000	0,029	-0,107
-295,949	-200,000	-0,015	-0,097
-294,935	800,000	-0,050	-0,125
-293,920	4,525	0,069	0,037
-292,905	541,469	0,061	-0,105
-291,891	-200,000	0,009	0,059
-290,876	118,478	0,077	-0,069
-289,862	800,000	-0,019	0,059
-288,847	800,000	-0,022	-0,059
-287,832	723,867	0,035	-0,067
-286,818	-200,000	-0,002	0,023
-285,803	-200,000	-0,022	-0,219
-284,789	-145,274	0,177	0,011
-283,774	304,817	-0,032	-0,043
-282,759	-17,854	-0,050	-0,023
-281,745	-200,000	-0,013	0,058
-280,730	176,945	0,057	-0,060
-279,716	157,039	-0,104	0,104
-278,701	247,922	0,047	0,057
-277,686	-62,086	0,082	-0,025
-276,672	-42,586	0,096	0,035
-275,657	16,581	0,083	-0,047
-274,643	800,000	-0,063	-0,180
-273,628	53,614	0,085	-0,059
-272,613	800,000	-0,026	0,053
-271,599	118,482	-0,072	-0,064
-270,584	-84,167	0,054	0,012
-269,570	268,310	0,047	0,059
-268,555	7,983	-0,091	0,049
-267,540	-200,000	0,003	0,041
-266,526	-46,759	-0,056	-0,020
-265,511	-72,935	0,024	-0,006
-264,497	283,127	-0,060	0,078
-263,482	31,617	-0,045	-0,028
-262,467	-200,000	-0,026	0,085
-261,453	-113,697	-0,096	-0,013
-260,438	-200,000	0,017	0,074
-259,424	43,605	-0,016	0,011
-258,409	800,000	0,041	0,101
-257,395	660,810	-0,034	0,063
-256,380	-26,965	-0,019	0,008
-255,365	-40,378	0,134	0,050
-254,351	-34,488	-0,051	0,020
-253,336	556,128	-0,037	-0,065
-252,322	-103,673	-0,082	-0,014
-251,307	114,407	0,036	0,031
-250,292	77,288	-0,045	-0,035
-249,278	-31,914	0,105	-0,042
-248,263	-100,803	0,123	-0,022
-247,249	141,117	0,038	-0,037
-246,234	702,622	0,044	-0,085
-245,219	-200,000	-0,006	0,118
-244,205	765,087	0,098	-0,193
-243,190	-200,000	0,006	0,025
-242,176	391,364	-0,042	0,063
-241,161	374,918	0,072	0,105
-240,146	-104,953	-0,147	-0,024
-239,132	48,980	0,118	-0,080
-238,117	800,000	-0,023	0,050
-237,103	-200,000	-0,010	-0,044
-236,088	154,437	-0,052	0,052
-235,073	282,364	0,043	0,056
-234,059	-200,000	0,013	-0,048
-233,044	14,231	-0,049	-0,027
-232,030	457,942	-0,091	-0,146
-231,015	290,377	-0,062	-0,081
-230,000	-12,076	-0,068	-0,032
-228,986	12,908	0,052	-0,029
-227,971	800,000	-0,034	-0,094
-226,957	800,000	0,018	0,056
-225,942	800,000	0,022	0,048
-224,927	-200,000	-0,007	0,027
-223,913	800,000	-0,031	-0,080
-222,898	230,192	-0,010	-0,012
-221,884	-200,000	0,013	0,061
-220,869	212,774	0,046	-0,052
-219,855	-200,000	0,038	0,000
-218,840	-200,000	0,006	0,084
-217,825	499,855	-0,037	0,061
-216,811	-200,000	0,012	-0,067
-215,796	141,827	-0,093	-0,089
-214,782	-200,000	-0,006	-0,041
-213,767	-17,975	0,100	0,045
-212,752	-200,000	0,035	0,136
-211,738	43,739	0,043	0,028
-210,723	-200,000	0,012	0,104
-209,709	32,067	0,045	0,028
-208,694	-200,000	-0,029	-0,203
-207,679	82,701	0,069	0,054
-206,665	-200,000	0,003	0,039
-205,650	-200,000	-0,053	0,187
-204,636	-200,000	-0,056	0,182
-203,621	-50,937	0,046	0,015
-202,606	5,617	-0,150	-0,079
-201,592	-119,405	-0,134	-0,017
-200,577	145,868	-0,069	0,066
-199,563	-49,564	0,131	-0,045
-198,548	466,580	0,032	0,052
-197,533	-200,000	0,060	0,200
-196,519	-164,229	0,113	0,004
-195,504	800,000	0,035	-0,075
-194,490	159,099	-0,019	0,019
-193,475	-200,000	-0,043	-0,178
-192,460	115,586	0,100	-0,088
-191,446	-200,000	0,013	0,059
-190,431	-69,879	0,070	0,019
-189,417	-200,000	0,016	-0,078
-188,402	143,964	-0,043	0,041
-187,387	469,055	-0,083	-0,135
-186,373	-200,000	0,002	-0,065
-185,358	-1,484	-0,054	-0,027
-184,344	161,072	-0,056	0,056
-183,329	-200,000	0,010	0,138
-182,315	-200,000	-0,033	0,107
-181,300	-68,501	-0,112	-0,031
-180,285	129,683	-0,102	-0,094
-179,271	-53,903	-0,114	0,037
-178,256	187,354	-0,005	-0,005
-177,242	-200,000	0,028	-0,091
-176,227	-34,630	0,074	-0,029
-175,212	-200,000	0,003	0,113
-174,198	275,654	0,082	0,105
-173,183	800,000	0,044	-0,133
-172,169	42,546	-0,071	-0,046
-171,154	-101,345	0,051	-0,009
-170,139	330,892	-0,078	-0,109
-169,125	800,000	0,055	-0,155
-168,110	105,182	0,098	-0,083
-167,096	758,381	0,050	0,099
-166,081	106,076	-0,019	0,017
-165,066	258,513	-0,130	-0,162
-164,052	-14,527	-0,089	-0,041
-163,037	110,723	-0,091	-0,078
-162,023	110,101	-0,082	-0,071
-161,008	130,732	0,152	0,140
-159,993	444,639	-0,034	0,053
-158,979	-200,000	-0,012	-0,057
-157,964	35,895	-0,050	-0,032
-156,950	32,418	-0,081	-0,050
-155,935	800,000	0,025	-0,057
-154,920	21,469	0,087	0,051
-153,906	669,527	0,051	0,096
-152,891	38,009	0,091	0,058
-151,877	-91,167	-0,088	0,018
-150,862	800,000	-0,059	-0,129
-149,847	321,936	-0,026	-0,035
-148,833	299,757	0,084	-0,112
-147,818	-200,000	-0,002	-0,171
-146,804	-200,000	-0,018	0,109
-145,789	-176,378	-0,148	-0,003
-144,775	369,345	-0,068	-0,099
-143,760	-96,064	0,047	0,009
-142,745	218,228	-0,098	-0,113
-141,731	-113,280	-0,097	0,013
-140,716	-112,941	0,094	-0,013
-139,702	-185,988	-0,042	-0,000
-138,687	401,954	0,044	-0,067
-137,672	109,285	-0,096	-0,082
-136,658	-200,000	0,006	0,043
-135,643	-27,072	0,021	-0,009
-134,629	-200,000	-0,015	-0,067
-133,614	300,590	-0,035	0,047
-132,599	-85,604	0,080	-0,018
-131,585	550,485	-0,032	0,055
-130,570	-200,000	-0,036	-0,134
-129,556	-200,000	0,000	-0,137
-128,541	-118,882	-0,136	-0,017
-127,526	-88,212	0,026	-0,006
-126,512	401,771	0,141	0,213
-125,497	255,669	0,052	0,064
-124,483	-137,877	-0,033	0,003
-123,468	800,000	0,064	0,138
-122,453	-200,000	0,015	0,084
-121,439	-200,000	-0,002	-0,025
-120,424	-200,000	0,014	0,142
-119,410	-95,428	0,118	0,023
-118,395	-33,997	0,084	-0,033
-117,380	44,554	0,059	0,039
-116,366	800,000	0,030	0,084
-115,351	-97,858	-0,087	0,016
-114,337	17,311	0,003	0,002
-113,322	-58,505	-0,053	0,016
-112,307	-129,012	0,032	-0,003
-111,293	-200,000	0,015	-0,058
-110,278	-147,359	-0,095	-0,006
-109,264	800,000	0,038	-0,096
-108,249	117,910	-0,093	-0,082
-107,234	800,000	0,004	-0,009
-106,220	399,314	0,124	-0,187
-105,205	800,000	0,027	0,075
-104,191	-101,313	-0,130	-0,023
-103,176	340,580	-0,036	0,051
-102,162	77,093	0,096	0,073
-101,147	-200,000	0,002	-0,174
-100,132	-3,655	0,032	-0,016
-99,118	-200,000	0,004	-0,128
-98,103	-98,472	0,069	-0,013
-97,089	-47,149	-0,098	0,034
-96,074	-65,387	-0,163	0,047
-95,059	-200,000	-0,019	0,090
-94,045	113,322	-0,123	-0,107
-93,030	384,961	-0,088	-0,130
-92,016	182,546	0,027	0,029
-91,001	247,081	-0,089	0,108
-89,986	248,500	-0,031	-0,038
-88,972	123,117	0,028	-0,025
-87,957	413,561	0,079	0,120
-86,943	-79,529	-0,080	0,019
-85,928	-19,879	-0,102	-0,045
-84,913	-200,000	-0,010	-0,038
-83,899	752,452	-0,043	0,083
-82,884	-131,884	0,125	-0,012
-81,870	-72,099	0,097	0,026
-80,855	-80,841	0,081	0,019
-79,840	-26,045	-0,145	-0,061
-78,826	108,665	0,053	-0,045
-77,811	-119,213	-0,063	0,008
-76,797	141,590	-0,063	0,060
-75,782	739,792	0,045	0,087
-74,767	-200,000	-0,021	0,070
-73,753	75,015	-0,104	0,078
-72,738	579,727	-0,046	0,081
-71,724	800,000	0,034	-0,087
-70,709	40,489	0,050	-0,032
-69,694	-200,000	0,004	-0,022
-68,680	35,793	-0,121	0,076
-67,665	113,654	0,073	0,063
-66,651	-37,794	0,110	0,042
-65,636	-200,000	0,008	-0,062
-64,622	-200,000	0,004	-0,176
-63,607	559,330	0,012	-0,021
-62,592	265,593	-0,019	-0,024
-61,578	-200,000	0,008	0,108
-60,563	222,133	0,052	0,060
-59,549	-183,431	-0,058	-0,001
-58,534	31,199	-2,104	-1,290
-57,519	-200,000	-0,205	-0,878
-56,505	-200,000	-1,428	-5,171
-55,490	42,633	0,919	0,598
-54,476	800,000	5,397	12,178
-53,461	-200,000	18,406	313,259
-52,446	800,000	739,615	2322,163
-51,432	556,381	1655,578	2866,373
-50,417	110,937	1640,110	1412,999
-49,403	74,621	1290,128	970,379
-48,388	30,374	1030,836	628,936
-47,373	19,919	993,064	571,339
-46,359	17,496	980,809	556,310
-45,344	14,254	976,886	543,434
-44,330	14,589	975,247	543,598
-43,315	13,915	973,335	540,305
-42,300	13,840	972,486	539,565
-41,286	13,834	971,592	539,031
-40,271	13,852	970,573	538,502
-39,257	13,777	969,892	537,857
-38,242	13,850	968,898	537,525
-37,227	13,925	967,925	537,206
-36,213	13,786	967,260	536,364
-35,198	13,873	966,183	536,027
-34,184	13,856	965,389	535,511
-33,169	13,849	964,488	534,967
-32,154	13,877	963,523	534,500
-31,140	13,819	962,742	533,861
-30,125	13,869	961,991	533,582
-29,111	13,823	961,140	532,943
-28,096	13,849	960,684	532,752
-27,082	13,879	959,897	532,392
-26,067	13,905	959,045	531,981
-25,052	13,891	958,182	531,437
-24,038	13,875	957,728	531,111
-23,023	13,825	957,165	530,618
-22,009	13,856	956,400	530,273
-20,994	13,879	955,699	529,937
-19,979	13,872	954,979	529,494
-18,965	13,906	954,479	529,305
-17,950	13,856	954,016	528,865
-16,936	13,902	953,233	528,559
-15,921	13,784	952,703	527,865
-14,906	13,785	951,734	527,312
-13,892	13,676	951,275	526,689
-12,877	13,753	950,515	526,494
-11,863	13,701	949,838	525,931
-10,848	13,683	949,337	525,573
-9,833	13,811	948,968	525,759
-8,819	13,797	948,248	525,294
-7,804	13,806	947,453	524,859
-6,790	13,778	946,926	524,457
-5,775	13,822	946,469	524,324
-4,760	13,792	945,787	523,832
-3,746	13,732	945,364	523,386
-2,731	13,699	944,374	522,710
-1,717	13,632	943,665	522,085
-0,702	13,585	943,198	521,659
0,313	13,380	942,640	521,486
1,327	16,694	940,193	530,553
2,342	25,761	795,267	472,795
3,356	22,306	459,829	268,064
4,371	-4,463	317,092	156,200
5,386	-8,087	298,796	143,483
6,400	-9,865	292,633	138,736
7,415	-10,606	290,015	136,748
8,429	-10,896	288,343	135,662
9,444	-11,132	287,347	134,950
10,459	-11,230	286,866	134,616
11,473	-11,364	286,376	134,243
12,488	-11,186	285,788	134,130
13,502	-11,168	285,159	133,839
14,517	-11,193	284,771	133,621
15,531	-11,341	284,193	133,195
16,546	-11,220	283,752	133,093
17,561	-11,498	283,469	132,679
18,575	-11,037	282,897	132,845
19,590	-11,499	282,661	132,277
20,604	-11,313	282,441	132,342
21,619	-11,403	281,973	132,024
22,634	-11,335	281,608	131,907
23,648	-11,506	281,490	131,676
24,663	-11,481	281,180	131,542
25,677	-11,484	280,826	131,362
26,692	-11,400	280,511	131,284
27,707	-11,632	280,332	130,967
28,721	-11,625	280,030	130,820
29,736	-11,564	279,778	130,749
30,750	-11,596	279,417	130,538
31,765	-11,463	279,189	130,546
32,780	-11,479	278,953	130,410
33,794	-11,483	278,588	130,224
34,809	-11,354	278,327	130,212
35,823	-11,555	278,134	129,919
36,838	-11,336	277,832	129,974
37,853	-11,387	277,681	129,843
38,867	-11,380	277,380	129,699
39,882	-11,534	277,252	129,481
40,896	-11,574	277,104	129,363
41,911	-11,590	276,809	129,198
42,926	-11,555	276,480	129,066
43,940	-11,457	276,165	129,000
44,955	-11,790	276,104	128,647
45,969	-11,519	275,600	128,654
46,984	-11,522	275,561	128,622
47,999	-11,504	275,262	128,489
49,013	-11,679	275,124	128,248
50,028	-11,661	274,788	128,097
51,042	-11,621	274,476	127,978
52,057	-11,757	274,303	127,759
53,071	-11,453	274,104	127,938
54,086	-11,620	273,946	127,697
55,101	-11,515	273,742	127,689
56,115	-11,476	273,555	127,627
57,130	-11,360	273,313	127,610
58,144	-11,384	273,038	127,448
59,159	-11,285	272,887	127,458
60,174	-11,408	272,730	127,260
61,188	-11,208	272,394	127,276
62,203	-11,250	272,162	127,118
63,217	-11,249	271,834	126,955
64,232	-11,374	271,796	126,809
65,247	-11,443	271,426	126,562
66,261	-11,186	271,148	126,658
67,276	-11,485	271,052	126,326
68,290	-11,450	270,824	126,241
69,305	-11,521	270,612	126,066
70,320	-11,422	270,360	126,028
71,334	-11,565	270,251	125,834
72,349	-11,421	269,785	125,739
73,363	-11,317	269,690	125,778
74,378	-11,253	269,463	125,719
75,393	-11,390	269,451	125,578
76,407	-11,391	269,050	125,379
77,422	-11,357	268,817	125,290
78,436	-11,324	268,610	125,212
79,451	-11,255	268,454	125,192
80,466	-11,396	268,144	124,907
81,480	-11,277	267,840	124,863
82,495	-11,408	267,628	124,633
83,509	-11,361	267,559	124,633
84,524	-11,413	267,390	124,496
85,539	-11,342	267,150	124,438
86,553	-11,468	266,821	124,159
87,568	-11,458	266,693	124,097
88,582	-11,524	266,440	123,909
89,597	-11,387	266,218	123,919
90,611	-11,292	266,244	124,005
91,626	-11,318	265,933	123,826
92,641	-11,491	265,801	123,598
93,655	-11,506	265,577	123,469
94,670	-11,405	265,196	123,372
95,684	-11,500	265,118	123,239
96,699	-11,258	264,833	123,313
97,714	-11,398	264,669	123,100
98,728	-11,435	264,554	123,002
99,743	-11,431	264,338	122,894
100,757	-11,547	264,142	122,688
101,772	-11,256	263,826	122,790
102,787	-11,510	263,779	122,531
103,801	-11,379	263,631	122,568
104,816	-11,408	263,220	122,341
105,830	-11,339	263,123	122,346
106,845	-11,254	262,951	122,330
107,860	-11,305	262,704	122,160
108,874	-11,268	262,505	122,089
109,889	-11,237	262,339	122,028
110,903	-11,439	261,978	121,670
111,918	-11,315	261,915	121,740
112,933	-11,256	261,691	121,677
113,947	-11,474	261,632	121,446
114,962	-11,220	261,368	121,538
115,976	-11,254	261,126	121,384
116,991	-11,274	260,902	121,251
118,006	-11,284	260,861	121,212
119,020	-11,231	260,607	121,131
120,035	-11,298	260,511	121,016
121,049	-11,236	260,111	120,874
122,064	-11,308	260,096	120,793
123,079	-11,257	259,811	120,695
124,093	-11,223	259,733	120,678
125,108	-11,256	259,472	120,516
126,122	-11,223	259,074	120,350
127,137	-11,322	258,914	120,178
128,151	-11,454	258,850	120,022
129,166	-11,321	258,642	120,031
130,181	-11,277	258,380	119,937
131,195	-11,283	258,205	119,841
132,210	-11,256	258,075	119,793
133,224	-11,214	257,868	119,723
134,239	-11,269	257,721	119,596
135,254	-11,384	257,551	119,406
136,268	-11,334	257,291	119,318
137,283	-11,540	256,872	118,935
138,297	-11,437	256,796	118,979
139,312	-11,389	256,670	118,951
140,327	-11,182	256,400	118,994
141,341	-11,232	256,399	118,940
142,356	-11,153	256,194	118,903
143,370	-11,149	256,004	118,808
144,385	-11,128	255,763	118,703
145,400	-11,133	255,554	118,591
146,414	-11,054	255,296	118,529
147,429	-11,235	255,161	118,300
148,443	-11,104	255,030	118,342
149,458	-11,257	254,891	118,135
150,473	-11,349	254,816	118,010
151,487	-11,109	254,359	117,994
152,502	-11,345	254,456	117,826
153,516	-11,119	254,150	117,867
154,531	-11,052	253,877	117,788
155,546	-11,194	253,833	117,635
156,560	-11,134	253,604	117,570
157,575	-11,066	253,304	117,479
158,589	-11,100	253,112	117,350
159,604	-11,134	252,921	117,222
160,619	-11,354	252,941	117,033
161,633	-11,113	252,631	117,085
162,648	-11,195	252,461	116,926
163,662	-11,219	252,324	116,831
164,677	-11,039	252,116	116,877
165,692	-11,174	252,010	116,703
166,706	-11,172	251,939	116,661
167,721	-11,310	251,631	116,391
168,735	-11,089	251,495	116,505
169,750	-11,171	251,448	116,404
170,764	-11,032	251,226	116,408
171,779	-11,189	251,035	116,177
172,794	-10,946	250,914	116,316
173,808	-11,344	250,926	115,975
174,823	-11,180	250,530	115,919
175,837	-11,499	250,319	115,543
176,852	-11,262	250,303	115,725
177,867	-11,000	250,045	115,816
178,881	-11,205	249,778	115,509
179,896	-11,208	249,729	115,474
180,910	-10,899	249,430	115,585
181,925	-10,990	249,350	115,461
182,940	-11,091	249,091	115,246
183,954	-11,057	249,010	115,227
184,969	-11,030	248,755	115,121
185,983	-11,065	248,705	115,059
186,998	-11,215	248,567	114,859
188,013	-11,155	248,369	114,808
189,027	-11,070	248,193	114,787
190,042	-11,117	248,140	114,712
191,056	-10,964	247,769	114,658
192,071	-11,045	247,612	114,508
193,086	-10,966	247,547	114,533
194,100	-10,911	247,263	114,438
195,115	-10,733	247,043	114,473
196,129	-11,181	246,870	114,012
197,144	-11,070	246,575	113,957
198,159	-11,149	246,606	113,895
199,173	-11,022	246,400	113,895
200,188	-10,844	246,183	113,932
201,202	-11,048	246,012	113,674
202,217	-11,263	245,721	113,353
203,232	-11,327	245,460	113,169
204,246	-10,730	245,647	113,738
205,261	-9,801	245,591	114,467
206,275	-9,860	245,643	114,432
207,290	-8,430	246,051	115,792
208,304	-5,651	246,922	118,491
209,319	-3,087	247,209	120,738
210,334	-2,395	247,547	121,464
211,348	-1,647	247,610	122,103
212,363	-1,274	247,689	122,439
213,377	-0,901	247,645	122,716
214,392	-0,647	247,566	122,875
215,407	-0,686	247,617	122,858
216,421	-0,601	247,129	122,674
217,436	-0,786	247,078	122,486
218,450	-0,938	246,845	122,234
219,465	-0,576	246,662	122,431
220,480	-0,754	246,565	122,224
221,494	-0,672	246,523	122,260
222,509	-0,740	246,283	122,075
223,523	-0,681	245,976	121,960
224,538	-0,748	245,939	121,876
225,553	-0,811	245,831	121,760
226,567	-0,625	245,529	121,751
227,582	-0,721	245,398	121,597
228,596	-0,657	245,084	121,484
229,611	-0,669	245,150	121,495
230,626	-0,602	244,936	121,433
231,640	-0,758	244,737	121,196
232,655	-0,740	244,637	121,151
233,669	-0,711	244,449	121,071
234,684	-0,563	243,988	120,952
235,699	-0,812	244,107	120,797
236,713	-0,798	243,931	120,711
237,728	-0,742	243,801	120,681
238,742	-0,945	243,586	120,399
239,757	-0,795	243,466	120,451
240,772	-0,779	243,244	120,343
241,786	-0,783	243,050	120,233
242,801	-0,817	243,005	120,173
243,815	-0,702	242,836	120,172
244,830	-0,554	242,614	120,171
245,844	-0,591	242,237	119,943
246,859	-0,812	242,231	119,751
247,874	-0,706	242,084	119,754
248,888	-0,760	242,064	119,689
249,903	-0,840	241,797	119,482
250,917	-0,720	241,550	119,446
251,932	-0,586	241,475	119,506
252,947	-0,862	241,272	119,174
253,961	-0,858	241,228	119,144
254,976	-0,835	240,945	119,012
255,990	-0,774	240,712	118,936
257,005	-0,687	240,700	118,989
258,020	-0,906	240,744	118,825
259,034	-0,890	240,411	118,662
260,049	-0,950	240,374	118,585
261,063	-0,888	240,072	118,476
262,078	-0,724	240,036	118,578
263,093	-0,742	239,808	118,440
264,107	-0,798	239,657	118,311
265,122	-0,780	239,580	118,276
266,136	-0,639	239,296	118,238
267,151	-0,600	239,080	118,151
268,166	-0,580	238,950	118,092
269,180	-0,823	238,898	117,863
270,195	-0,887	238,608	117,659
271,209	-0,725	238,663	117,804
272,224	-0,646	238,414	117,733
273,239	-0,942	238,353	117,458
274,253	-0,657	238,069	117,533
275,268	-0,523	237,963	117,576
276,282	-0,675	237,829	117,379
277,297	-0,756	237,690	117,236
278,312	-0,783	237,539	117,130
279,326	-0,643	237,428	117,176
280,341	-0,760	237,307	117,013
281,355	-0,625	237,060	116,988
282,370	-0,569	236,879	116,931
283,384	-0,522	236,629	116,834
284,399	-0,389	236,575	116,901
285,414	-0,655	236,566	116,678
286,428	-0,474	236,336	116,696
287,443	-0,619	236,141	116,476
288,457	-0,619	236,061	116,426
289,472	-0,690	235,968	116,314
290,487	-0,586	235,742	116,274
291,501	-0,468	235,463	116,217
292,516	-0,729	235,372	115,959
293,530	-0,571	235,358	116,065
294,545	-0,475	235,168	116,036
295,560	-0,620	235,108	115,883
296,574	-0,586	234,940	115,816
297,589	-0,554	234,669	115,697
298,603	-0,588	234,440	115,547
299,618	-0,582	234,359	115,502
300,633	-0,464	234,233	115,521
301,647	-0,563	234,101	115,369
302,662	-0,659	233,990	115,230
303,676	-0,719	233,784	115,071
304,691	-0,399	233,560	115,198
305,706	-0,505	233,418	115,036
306,720	-0,558	233,301	114,928
307,735	-0,732	233,280	114,773
308,749	-0,511	232,979	114,784
309,764	-0,666	232,911	114,621
310,779	-0,254	232,724	114,836
311,793	-0,517	232,602	114,563
312,808	-0,372	232,358	114,544
313,822	-0,524	232,259	114,369
314,837	-0,390	231,971	114,319
315,852	-0,404	231,988	114,307
316,866	-0,236	231,842	114,353
317,881	-0,378	231,583	114,106
318,895	-0,441	231,558	114,036
319,910	-0,430	231,385	113,949
320,925	-0,434	231,187	113,839
321,939	-0,509	231,017	113,687
322,954	-0,369	230,980	113,765
323,968	-0,376	230,815	113,669
324,983	-0,258	230,727	113,705
325,997	-0,416	230,462	113,444
327,012	-0,160	230,341	113,569
328,027	-0,253	230,166	113,402
329,041	-0,290	230,038	113,302
330,056	-0,293	230,005	113,273
331,070	-0,300	229,818	113,165
332,085	-0,500	229,690	112,940
333,100	-0,316	229,436	112,945
334,114	-0,303	229,207	112,831
335,129	-0,599	229,177	112,583
336,143	-0,326	229,078	112,730
337,158	-0,413	228,883	112,559
338,173	-0,196	228,807	112,675
339,187	-0,334	228,687	112,502
340,202	-0,356	228,547	112,406
341,216	-0,180	228,418	112,466
342,231	-0,432	228,285	112,201
343,246	-0,149	228,044	112,285
344,260	-0,273	227,994	112,157
345,275	-0,314	227,858	112,049
346,289	-0,062	227,614	112,109
347,304	-0,087	227,513	112,029
348,319	-0,146	227,150	111,797
349,333	-0,195	227,186	111,769
350,348	-0,323	227,047	111,594
351,362	-0,141	226,883	111,640
352,377	-0,015	226,737	111,652
353,392	-0,022	226,629	111,584
354,406	-0,052	226,553	111,513
355,421	196,872	1318,880	1396,106
356,435	157,887	1451,944	1396,067
