DTS Sentinel unit serial number:	SN410029Multiplexer serial number:	ORYXHardware model number:	OX2-SRSoftware version number:	ORYX F/W v4,00 Oryx Data Collector v3.7.2.0data status	okinstallation	B5 Nyhavnadifferential loss correction	single-endedforward channel	channel 2reverse channel	N/Adate	2023/12/13time	20:32:13forward acquisition time	300,00reverse acquisition time	0,00gamma	499,1914k internal	0,3157k external	0,3157temperature offset calibration	1,0000default loss term (dB/km)	0,3820temperature slope calibration	1,0000multiplexer offset coefficient	1,0000multiplexer slope coefficient	1,0000fibre end	0,00T internal ref (°C)	10,72T ext. ref 1 (°C)	-6,30T ext. ref 2 (°C)	-6,40length (m)	temperature (°C)	Stokes	anti-Stokes-744,400	8,795	0,139	-0,077
-743,385	-140,319	-0,355	0,027
-742,371	800,000	0,082	0,250
-741,356	-186,077	-0,264	0,003
-740,342	240,854	0,143	0,177
-739,327	-80,578	-0,364	-0,089
-738,312	249,530	-0,038	0,047
-737,298	-46,361	-0,249	-0,090
-736,283	-139,684	0,128	-0,010
-735,269	-123,885	-0,286	-0,033
-734,254	15,728	0,130	-0,075
-733,239	101,479	-0,385	-0,330
-732,225	54,883	0,190	0,135
-731,210	-200,000	0,024	-0,178
-730,196	40,666	0,037	-0,025
-729,181	-200,000	-0,008	0,030
-728,167	-200,000	0,017	0,055
-727,152	-200,000	-0,003	-0,173
-726,137	-115,275	-0,206	0,028
-725,123	49,450	-0,022	-0,015
-724,108	-106,723	-0,161	-0,026
-723,094	61,002	-0,112	-0,082
-722,079	-153,341	-0,226	0,011
-721,064	800,000	-0,023	-0,055
-720,050	-64,591	0,092	-0,027
-719,035	93,268	0,052	-0,043
-718,021	-146,872	-0,084	-0,005
-717,006	-120,362	-0,084	0,010
-715,991	576,906	-0,081	-0,146
-714,977	-116,689	-0,151	0,020
-713,962	800,000	0,035	0,091
-712,948	-2,247	-0,021	-0,011
-711,933	362,977	0,085	0,126
-710,918	-108,336	-0,138	-0,022
-709,904	-9,991	0,063	-0,030
-708,889	186,058	-0,038	-0,041
-707,875	129,194	-0,089	-0,084
-706,860	-178,916	-0,221	-0,004
-705,845	-200,000	0,000	0,031
-704,831	-200,000	-0,020	0,123
-703,816	427,716	0,029	0,046
-702,802	-18,065	-0,098	-0,045
-701,787	-43,911	-0,059	-0,022
-700,772	71,356	0,032	-0,025
-699,758	245,486	-0,048	0,060
-698,743	312,497	-0,019	-0,027
-697,729	228,254	-0,056	0,067
-696,714	800,000	0,054	0,126
-695,699	-200,000	0,035	0,136
-694,685	8,271	-0,062	-0,034
-693,670	-200,000	0,003	-0,016
-692,656	388,780	-0,022	0,034
-691,641	188,119	-0,022	-0,024
-690,627	-30,947	0,098	0,041
-689,612	-72,819	-0,101	-0,027
-688,597	-200,000	0,004	-0,094
-687,583	-200,000	0,007	-0,137
-686,568	-104,478	-0,041	-0,007
-685,554	25,473	0,066	0,040
-684,539	729,220	0,046	0,090
-683,524	502,175	-0,025	0,043
-682,510	249,253	-0,056	-0,070
-681,495	800,000	0,013	-0,037
-680,481	-200,000	-0,007	-0,054
-679,466	129,770	-0,028	-0,027
-678,451	321,803	-0,068	-0,096
-677,437	45,403	0,052	0,035
-676,422	800,000	0,071	0,153
-675,408	-31,414	-0,088	0,036
-674,393	-116,582	0,063	-0,008
-673,378	-200,000	-0,035	-0,128
-672,364	800,000	-0,038	-0,080
-671,349	-200,000	-0,015	-0,130
-670,335	800,000	0,032	0,079
-669,320	-185,141	0,131	0,001
-668,305	-32,371	-0,029	-0,012
-667,291	-124,761	-0,031	0,004
-666,276	800,000	0,081	-0,174
-665,262	344,848	-0,066	-0,096
-664,247	476,613	0,060	-0,099
-663,232	-200,000	-0,074	-0,000
-662,218	-46,462	-0,104	0,037
-661,203	-16,078	0,017	0,008
-660,189	431,463	0,069	-0,110
-659,174	730,665	-0,055	-0,108
-658,159	40,889	0,023	-0,015
-657,145	-188,811	-0,118	0,001
-656,130	142,203	0,064	0,063
-655,116	-200,000	0,006	0,083
-654,101	-84,207	-0,076	-0,018
-653,086	51,096	-0,097	0,068
-652,072	-200,000	0,016	-0,106
-651,057	243,087	0,066	0,082
-650,043	640,795	-0,058	-0,108
-649,028	427,366	-0,060	-0,096
-648,014	-200,000	-0,002	0,074
-646,999	694,269	0,029	0,057
-645,984	-200,000	-0,026	-0,126
-644,970	44,543	-0,103	-0,069
-643,955	30,398	-0,079	-0,049
-642,941	182,321	-0,082	-0,089
-641,926	-200,000	-0,011	-0,097
-640,911	-131,815	0,137	-0,013
-639,897	-151,609	-0,207	-0,011
-638,882	-86,036	0,068	-0,015
-637,868	-90,359	-0,110	0,023
-636,853	-118,971	-0,159	-0,020
-635,838	-92,549	0,034	-0,007
-634,824	-61,187	-0,128	0,039
-633,809	-200,000	-0,009	-0,078
-632,795	800,000	-0,029	0,067
-631,780	-200,000	-0,004	0,137
-630,765	634,246	0,077	-0,144
-629,751	490,608	-0,042	0,070
-628,736	-54,233	-0,086	-0,029
-627,722	289,924	0,053	-0,071
-626,707	-200,000	-0,019	-0,165
-625,692	-200,000	-0,001	0,095
-624,678	229,330	0,086	0,103
-623,663	0,448	0,081	0,043
-622,649	-12,194	0,122	0,058
-621,634	27,929	-0,156	-0,096
-620,619	-200,000	0,036	-0,140
-619,605	-200,000	0,002	0,025
-618,590	800,000	-0,012	-0,025
-617,576	-200,000	-0,001	0,165
-616,561	149,177	0,026	-0,026
-615,546	-200,000	0,032	-0,213
-614,532	-21,318	-0,041	-0,018
-613,517	48,803	0,096	0,066
-612,503	-103,989	0,109	0,019
-611,488	-200,000	0,023	-0,084
-610,474	54,524	0,153	-0,108
-609,459	-200,000	0,009	-0,050
-608,444	-200,000	0,036	-0,128
-607,430	151,550	0,045	-0,045
-606,415	16,959	-0,045	-0,026
-605,401	-200,000	0,012	-0,059
-604,386	85,910	0,123	0,100
-603,371	424,262	0,085	0,135
-602,357	800,000	0,011	0,030
-601,342	-200,000	0,007	0,064
-600,328	800,000	-0,045	-0,106
-599,313	-200,000	0,010	-0,098
-598,298	139,754	-0,021	0,020
-597,284	335,460	0,047	0,067
-596,269	269,218	-0,055	0,071
-595,255	-118,688	0,094	0,012
-594,240	-200,000	-0,016	0,051
-593,225	63,835	0,067	-0,049
-592,211	86,925	-0,104	-0,084
-591,196	23,257	-0,135	0,081
-590,182	65,588	0,023	-0,017
-589,167	800,000	0,030	-0,069
-588,152	299,085	-0,060	0,081
-587,138	32,265	0,084	0,053
-586,123	-15,550	-0,113	-0,053
-585,109	447,505	-0,073	-0,119
-584,094	81,208	0,068	-0,054
-583,079	-200,000	-0,001	0,005
-582,065	24,645	-0,108	0,066
-581,050	68,761	0,038	0,029
-580,036	-164,345	0,041	-0,001
-579,021	393,221	0,060	-0,091
-578,006	-200,000	0,023	0,077
-576,992	-88,178	-0,025	0,005
-575,977	-110,872	0,123	0,018
-574,963	277,636	-0,006	-0,008
-573,948	-81,875	-0,066	0,016
-572,934	-27,314	-0,072	-0,030
-571,919	399,224	-0,044	-0,068
-570,904	38,207	-0,033	-0,021
-569,890	17,125	-0,098	-0,057
-568,875	34,637	0,019	0,012
-567,861	-200,000	0,032	0,185
-566,846	4,508	-0,048	-0,026
-565,831	-94,180	-0,070	0,014
-564,817	800,000	0,030	0,094
-563,802	-200,000	-0,014	-0,220
-562,788	-200,000	-0,023	-0,136
-561,773	800,000	-0,053	-0,108
-560,758	41,534	-0,063	0,042
-559,744	-140,316	-0,102	0,008
-558,729	-12,507	-0,068	0,032
-557,715	-51,431	-0,099	0,034
-556,700	126,727	0,046	-0,043
-555,685	105,093	-0,037	0,032
-554,671	-172,558	0,128	0,003
-553,656	-200,000	0,000	-0,062
-552,642	-84,948	-0,152	-0,035
-551,627	392,309	-0,032	0,048
-550,612	288,247	-0,070	-0,093
-549,598	-200,000	0,004	0,081
-548,583	565,056	0,055	-0,098
-547,569	419,176	0,065	-0,101
-546,554	203,021	0,089	-0,101
-545,539	-4,264	-0,037	0,019
-544,525	170,333	0,079	0,083
-543,510	-112,811	-0,130	-0,019
-542,496	-200,000	0,063	-0,213
-541,481	339,720	-0,081	-0,116
-540,466	800,000	-0,044	-0,122
-539,452	800,000	0,031	0,068
-538,437	-110,675	0,051	-0,008
-537,423	30,210	0,084	-0,052
-536,408	-200,000	-0,001	0,097
-535,393	759,054	-0,064	0,127
-534,379	-106,685	-0,070	0,011
-533,364	-200,000	-0,010	0,131
-532,350	-70,049	0,217	0,060
-531,335	-200,000	0,014	-0,056
-530,321	800,000	-0,018	-0,044
-529,306	139,736	0,070	0,067
-528,291	-98,893	-0,023	0,004
-527,277	51,840	-0,040	-0,028
-526,262	-31,769	0,130	0,053
-525,248	-186,794	-0,060	0,001
-524,233	18,833	0,030	0,018
-523,218	-103,831	0,009	0,002
-522,204	136,853	-0,024	0,023
-521,189	-81,165	-0,100	-0,024
-520,175	-56,876	-0,095	-0,031
-519,160	115,037	0,110	0,098
-518,145	800,000	0,047	-0,115
-517,131	-10,428	0,071	0,034
-516,116	-97,497	-0,054	-0,010
-515,102	747,273	0,102	0,201
-514,087	-200,000	-0,052	0,217
-513,072	51,308	0,023	0,016
-512,058	362,472	-0,147	0,217
-511,043	43,626	0,079	-0,053
-510,029	219,266	0,059	0,069
-509,014	-53,249	0,130	0,043
-507,999	134,074	0,038	0,036
-506,985	-200,000	-0,047	0,171
-505,970	40,772	-0,065	-0,043
-504,956	-50,193	-0,046	-0,016
-503,941	800,000	-0,054	-0,135
-502,926	-200,000	0,002	0,069
-501,912	785,946	-0,026	-0,052
-500,897	-144,479	-0,056	-0,004
-499,883	117,803	0,073	0,065
-498,868	24,263	-0,140	-0,084
-497,853	-119,741	0,040	-0,005
-496,839	26,501	-0,084	0,051
-495,824	159,293	-0,024	-0,024
-494,810	198,759	0,014	0,016
-493,795	-200,000	0,000	0,022
-492,781	-200,000	-0,006	0,047
-491,766	-65,894	-0,055	0,016
-490,751	471,013	-0,032	-0,053
-489,737	287,636	0,040	-0,053
-488,722	-95,683	0,127	0,025
-487,708	800,000	0,057	0,160
-486,693	-200,000	-0,028	0,103
-485,678	-200,000	-0,027	-0,141
-484,664	800,000	-0,055	-0,160
-483,649	-200,000	0,009	0,070
-482,635	261,530	-0,049	0,062
-481,620	800,000	0,029	0,064
-480,605	-134,177	0,074	-0,007
-479,591	-52,957	0,023	-0,008
-478,576	800,000	0,063	-0,192
-477,562	332,047	-0,028	0,039
-476,547	-200,000	0,020	-0,196
-475,532	-143,236	-0,036	-0,003
-474,518	-109,251	-0,055	-0,008
-473,503	-58,809	-0,027	-0,009
-472,489	-84,693	-0,171	-0,039
-471,474	-145,284	-0,153	-0,010
-470,459	56,369	0,033	0,023
-469,445	-140,397	-0,069	-0,005
-468,430	-125,103	-0,193	-0,021
-467,416	-119,033	0,061	0,008
-466,401	50,805	0,104	0,072
-465,386	-96,439	0,021	0,004
-464,372	392,417	-0,013	0,020
-463,357	-200,000	-0,005	0,044
-462,343	-93,627	-0,101	-0,020
-461,328	-109,102	0,192	-0,030
-460,313	156,884	0,045	0,045
-459,299	-7,025	0,072	0,036
-458,284	-53,819	0,023	-0,007
-457,270	148,086	-0,081	0,080
-456,255	527,203	0,063	-0,108
-455,241	35,007	-0,070	0,045
-454,226	-137,134	-0,076	0,006
-453,211	-200,000	-0,005	0,143
-452,197	-200,000	0,009	-0,058
-451,182	442,145	-0,033	-0,053
-450,168	800,000	-0,029	-0,094
-449,153	-200,000	-0,006	0,088
-448,138	319,258	0,018	-0,025
-447,124	-153,344	-0,077	0,004
-446,109	-200,000	-0,005	-0,080
-445,095	176,535	0,012	-0,013
-444,080	256,264	-0,012	0,015
-443,065	14,985	-0,099	-0,056
-442,051	552,428	0,052	-0,092
-441,036	800,000	0,049	0,099
-440,022	800,000	0,010	-0,024
-439,007	-59,081	-0,059	0,018
-437,992	95,606	0,099	0,082
-436,978	66,986	0,138	0,102
-435,963	36,553	-0,004	-0,002
-434,949	474,161	-0,063	0,104
-433,934	-200,000	0,002	-0,008
-432,919	-200,000	0,015	-0,083
-431,905	590,859	-0,007	-0,012
-430,890	330,687	-0,027	0,038
-429,876	775,845	0,029	0,057
-428,861	780,309	-0,030	0,060
-427,846	439,819	-0,059	-0,095
-426,832	-200,000	0,008	-0,205
-425,817	266,297	0,036	-0,046
-424,803	45,759	-0,057	-0,039
-423,788	-200,000	0,023	-0,129
-422,773	-20,666	0,078	-0,035
-421,759	-166,543	0,093	0,003
-420,744	800,000	-0,028	0,057
-419,730	800,000	-0,016	0,042
-418,715	-78,148	0,043	0,011
-417,701	240,240	0,044	-0,054
-416,686	25,541	-0,093	-0,056
-415,671	-10,664	0,100	-0,048
-414,657	524,498	0,025	0,043
-413,642	800,000	0,040	0,127
-412,628	154,857	0,034	0,034
-411,613	800,000	0,043	-0,119
-410,598	-101,750	-0,065	0,011
-409,584	-75,738	0,029	-0,007
-408,569	183,842	0,025	-0,027
-407,555	-32,276	0,083	-0,034
-406,540	224,716	0,148	-0,174
-405,525	43,721	0,162	0,108
-404,511	-136,977	-0,177	0,015
-403,496	-200,000	-0,022	-0,101
-402,482	800,000	0,047	0,095
-401,467	-200,000	0,040	0,184
-400,452	-116,197	0,101	0,013
-399,438	-200,000	-0,026	-0,088
-398,423	-56,639	-0,187	0,060
-397,409	-0,420	-0,098	0,050
-396,394	-200,000	0,016	-0,056
-395,379	-200,000	0,002	0,098
-394,365	550,138	-0,040	0,070
-393,350	-0,434	-0,036	-0,019
-392,336	-92,984	0,139	-0,028
-391,321	363,112	-0,062	-0,091
-390,306	-91,980	0,061	-0,013
-389,292	-191,461	0,069	0,000
-388,277	-66,703	-0,071	-0,020
-387,263	-200,000	0,055	0,193
-386,248	800,000	-0,016	-0,047
-385,233	82,456	0,255	0,201
-384,219	-200,000	-0,024	-0,110
-383,204	-29,498	-0,048	-0,020
-382,190	192,250	0,052	-0,057
-381,175	4,635	0,094	0,050
-380,160	167,266	-0,025	-0,026
-379,146	-102,296	0,089	0,015
-378,131	-200,000	-0,022	0,105
-377,117	-33,576	0,034	-0,014
-376,102	131,236	0,061	-0,057
-375,088	-78,040	0,056	-0,014
-374,073	-65,049	0,077	0,022
-373,058	-200,000	-0,037	0,217
-372,044	49,168	0,061	-0,042
-371,029	800,000	-0,028	0,069
-370,015	-200,000	-0,017	0,112
-369,000	-15,815	0,064	-0,030
-367,985	800,000	-0,014	0,042
-366,971	240,064	-0,043	-0,052
-365,956	-82,744	-0,030	-0,007
-364,942	-200,000	0,013	0,127
-363,927	-163,143	0,078	0,003
-362,912	-19,383	-0,120	0,054
-361,898	-200,000	0,001	0,081
-360,883	395,195	-0,009	0,013
-359,869	-200,000	-0,018	0,086
-358,854	234,689	-0,029	0,035
-357,839	217,505	-0,068	0,079
-356,825	64,156	0,027	-0,020
-355,810	-62,526	-0,050	-0,015
-354,796	-155,259	-0,185	-0,009
-353,781	52,549	-0,038	0,026
-352,766	800,000	0,059	0,138
-351,752	70,782	0,051	0,038
-350,737	-53,413	0,058	0,019
-349,723	335,104	0,026	-0,037
-348,708	-32,523	0,082	-0,033
-347,693	17,560	0,050	0,029
-346,679	800,000	0,058	-0,134
-345,664	99,152	-0,095	-0,079
-344,650	288,536	-0,034	-0,045
-343,635	-52,502	0,157	-0,052
-342,620	-65,819	-0,028	0,008
-341,606	-89,282	-0,063	-0,013
-340,591	110,916	-0,040	-0,035
-339,577	159,591	-0,055	-0,056
-338,562	63,322	-0,059	-0,043
-337,548	-200,000	-0,037	-0,120
-336,533	-200,000	0,021	0,110
-335,518	-200,000	-0,007	0,067
-334,504	-200,000	0,015	-0,071
-333,489	-200,000	0,004	-0,020
-332,475	353,744	-0,014	-0,020
-331,460	22,651	-0,039	-0,023
-330,445	134,377	0,054	-0,051
-329,431	-183,320	0,055	-0,001
-328,416	-39,099	-0,031	-0,012
-327,402	800,000	0,049	0,138
-326,387	25,668	-0,116	0,070
-325,372	-5,481	-0,057	-0,028
-324,358	-200,000	0,003	-0,164
-323,343	-200,000	-0,015	-0,130
-322,329	280,944	-0,015	0,019
-321,314	800,000	0,050	0,130
-320,299	68,975	-0,046	0,034
-319,285	800,000	0,047	0,111
-318,270	-79,545	-0,203	0,049
-317,256	109,210	-0,052	0,045
-316,241	-200,000	0,001	-0,095
-315,226	566,133	0,055	0,098
-314,212	10,020	-0,071	-0,039
-313,197	-200,000	-0,001	0,010
-312,183	67,718	-0,162	0,120
-311,168	800,000	0,018	0,049
-310,153	-147,740	-0,117	0,007
-309,139	-200,000	-0,002	0,018
-308,124	-106,278	-0,141	0,023
-307,110	412,680	-0,096	0,148
-306,095	9,198	0,062	-0,034
-305,080	143,922	0,111	-0,108
-304,066	800,000	-0,024	0,053
-303,051	-200,000	0,032	0,115
-302,037	242,759	-0,071	-0,087
-301,022	296,023	-0,018	0,024
-300,008	-22,094	0,045	-0,020
-298,993	-53,615	0,063	0,021
-297,978	800,000	0,059	0,143
-296,964	-200,000	0,001	-0,061
-295,949	800,000	0,036	0,105
-294,935	55,229	-0,123	-0,086
-293,920	-66,443	0,086	0,025
-292,905	156,726	0,099	0,099
-291,891	-111,185	-0,076	0,011
-290,876	90,579	0,067	0,054
-289,862	-200,000	0,001	0,019
-288,847	-200,000	-0,013	0,088
-287,832	79,004	0,067	0,052
-286,818	1,324	0,147	-0,076
-285,803	-200,000	0,002	0,028
-284,789	-200,000	0,005	0,058
-283,774	-200,000	-0,033	0,118
-282,759	800,000	0,043	0,115
-281,745	4,332	-0,100	-0,053
-280,730	-22,614	-0,048	-0,021
-279,716	54,568	-0,100	-0,070
-278,701	-200,000	0,006	0,126
-277,686	800,000	0,084	0,177
-276,672	-108,134	-0,074	-0,011
-275,657	-14,290	0,057	-0,026
-274,643	-174,319	-0,083	0,002
-273,628	800,000	0,042	-0,088
-272,613	153,773	0,054	0,053
-271,599	-107,132	0,149	0,024
-270,584	-146,363	-0,060	0,004
-269,570	-69,580	0,104	-0,029
-268,555	-49,534	0,144	0,049
-267,540	47,404	0,074	0,050
-266,526	267,461	-0,027	0,034
-265,511	-200,000	0,025	-0,169
-264,497	800,000	-0,040	0,093
-263,482	306,794	-0,047	0,063
-262,467	382,454	0,012	-0,017
-261,453	-34,032	-0,061	0,024
-260,438	-200,000	0,009	-0,037
-259,424	-200,000	0,006	-0,074
-258,409	-141,680	0,097	-0,007
-257,395	-41,153	-0,009	0,003
-256,380	217,179	0,080	-0,092
-255,365	109,181	0,038	0,033
-254,351	152,436	0,025	0,024
-253,336	-81,266	0,067	0,016
-252,322	61,421	0,038	-0,027
-251,307	800,000	-0,036	-0,085
-250,292	692,892	-0,042	0,081
-249,278	-16,132	0,072	0,033
-248,263	-200,000	0,021	0,227
-247,249	-200,000	-0,005	-0,031
-246,234	800,000	-0,068	-0,204
-245,219	-68,915	0,073	-0,020
-244,205	-200,000	0,007	-0,024
-243,190	466,089	-0,034	0,055
-242,176	44,646	0,065	0,043
-241,161	-200,000	0,023	-0,189
-240,146	800,000	0,021	-0,047
-239,132	-32,928	-0,081	-0,032
-238,117	800,000	-0,017	-0,037
-237,103	-81,856	-0,094	-0,022
-236,088	343,463	-0,068	-0,097
-235,073	130,297	0,103	-0,095
-234,059	-200,000	0,007	-0,028
-233,044	182,044	0,024	-0,025
-232,030	-153,275	-0,114	-0,006
-231,015	108,116	0,048	0,041
-230,000	800,000	0,036	-0,075
-228,986	-109,675	0,176	0,027
-227,971	362,139	-0,062	-0,089
-226,957	573,104	0,069	0,123
-225,942	483,367	0,015	-0,025
-224,927	163,452	0,061	0,062
-223,913	74,121	0,104	-0,079
-222,898	22,767	-0,123	-0,073
-221,884	-200,000	0,016	-0,159
-220,869	-200,000	-0,025	0,106
-219,855	-119,863	-0,136	0,017
-218,840	149,391	0,124	-0,122
-217,825	137,030	-0,045	-0,043
-216,811	-200,000	-0,005	0,052
-215,796	-41,802	-0,071	0,026
-214,782	-200,000	0,001	-0,178
-213,767	624,033	-0,013	0,025
-212,752	-74,495	0,097	0,025
-211,738	-200,000	-0,011	0,052
-210,723	-200,000	-0,000	0,009
-209,709	315,911	-0,005	0,007
-208,694	-200,000	0,039	-0,135
-207,679	73,780	-0,190	-0,143
-206,665	96,159	0,077	0,064
-205,650	256,915	0,019	-0,024
-204,636	-200,000	0,013	0,053
-203,621	69,079	-0,076	0,057
-202,606	-200,000	0,005	-0,018
-201,592	-200,000	-0,012	-0,053
-200,577	-200,000	-0,006	0,042
-199,563	21,127	-0,061	-0,036
-198,548	-45,838	0,058	-0,021
-197,533	-200,000	0,004	-0,103
-196,519	361,239	0,045	-0,065
-195,504	438,619	0,097	-0,153
-194,490	-26,142	-0,083	0,035
-193,475	-200,000	-0,001	0,041
-192,460	-200,000	-0,037	-0,122
-191,446	52,366	0,129	0,089
-190,431	199,270	0,095	0,105
-189,417	38,698	0,098	0,063
-188,402	-200,000	-0,008	0,100
-187,387	-162,702	-0,108	0,004
-186,373	800,000	-0,040	0,109
-185,358	-200,000	0,005	-0,079
-184,344	-13,258	-0,129	0,060
-183,329	491,134	-0,053	0,089
-182,315	112,947	0,012	0,010
-181,300	-177,558	0,093	0,002
-180,285	-130,026	-0,144	0,014
-179,271	-200,000	-0,009	-0,129
-178,256	-75,170	-0,031	-0,008
-177,242	-200,000	-0,002	0,101
-176,227	-57,561	0,018	0,006
-175,212	-150,871	-0,091	-0,005
-174,198	-5,919	-0,025	0,012
-173,183	-6,078	0,127	0,062
-172,169	506,158	0,070	0,118
-171,154	696,950	0,033	-0,063
-170,139	-200,000	0,014	0,092
-169,125	-40,890	0,025	0,009
-168,110	-200,000	0,002	-0,053
-167,096	-200,000	0,002	0,056
-166,081	139,705	-0,102	-0,097
-165,066	-200,000	-0,042	-0,178
-164,052	45,373	-0,043	0,029
-163,037	105,323	-0,075	-0,064
-162,023	22,672	0,090	0,053
-161,008	-200,000	0,000	0,032
-159,993	-9,604	0,099	-0,048
-158,979	-200,000	-0,024	-0,086
-157,964	-87,020	-0,128	0,028
-156,950	-200,000	-0,013	0,000
-155,935	-11,386	0,034	-0,016
-154,920	149,185	0,069	0,068
-153,906	-131,450	-0,024	0,002
-152,891	291,667	0,057	-0,075
-151,877	-6,084	-0,139	-0,068
-150,862	-200,000	0,021	-0,106
-149,847	102,857	0,064	-0,054
-148,833	593,552	-0,023	0,040
-147,818	-14,414	0,187	0,086
-146,804	-41,058	0,170	-0,063
-145,789	-119,733	-0,078	-0,010
-144,775	-131,479	0,062	-0,006
-143,760	215,749	-0,037	-0,043
-142,745	175,728	0,067	0,070
-141,731	-200,000	-0,005	0,106
-140,716	800,000	0,036	0,086
-139,702	-152,182	0,235	-0,012
-138,687	-18,116	0,042	0,019
-137,672	215,237	-0,074	-0,084
-136,658	604,897	-0,039	-0,071
-135,643	-170,202	-0,132	-0,003
-134,629	-15,462	0,066	-0,030
-133,614	-165,705	-0,147	0,004
-132,599	360,976	-0,045	0,065
-131,585	47,747	0,048	0,032
-130,570	-200,000	-0,006	0,045
-129,556	-104,943	0,102	-0,017
-128,541	-121,820	0,082	-0,010
-127,526	800,000	-0,010	-0,028
-126,512	323,703	0,054	-0,074
-125,497	5,736	0,127	-0,067
-124,483	146,956	-0,066	-0,064
-123,468	-17,987	-0,071	0,032
-122,453	-168,981	-0,062	-0,002
-121,439	-200,000	-0,036	-0,118
-120,424	240,659	0,050	-0,060
-119,410	-200,000	0,004	-0,075
-118,395	-200,000	-0,000	0,063
-117,380	283,582	0,010	0,013
-116,366	-200,000	-0,010	0,085
-115,351	800,000	-0,029	0,085
-114,337	-200,000	-0,009	-0,083
-113,322	-200,000	0,008	-0,129
-112,307	800,000	0,030	-0,063
-111,293	124,663	-0,056	0,051
-110,278	-84,864	0,121	0,027
-109,264	-200,000	-0,009	0,095
-108,249	-53,727	-0,059	0,019
-107,234	-6,650	-0,102	0,050
-106,220	-200,000	-0,009	-0,048
-105,205	92,440	0,076	-0,062
-104,191	-200,000	-0,011	-0,062
-103,176	426,434	0,030	0,047
-102,162	175,362	0,030	-0,031
-101,147	800,000	-0,022	-0,061
-100,132	580,633	-0,027	-0,047
-99,118	242,875	-0,111	-0,133
-98,103	-200,000	-0,003	0,073
-97,089	-86,595	0,065	-0,014
-96,074	-33,693	0,084	-0,033
-95,059	800,000	0,013	0,035
-94,045	-200,000	0,017	-0,122
-93,030	-200,000	0,037	-0,156
-92,016	-81,690	-0,089	-0,021
-91,001	64,892	-0,039	-0,028
-89,986	126,381	0,055	0,050
-88,972	229,383	-0,042	0,049
-87,957	271,932	0,071	-0,090
-86,943	234,309	-0,052	-0,061
-85,928	25,692	-0,040	-0,024
-84,913	-113,217	0,005	-0,001
-83,899	-18,909	-0,093	-0,041
-82,884	92,724	-0,098	-0,079
-81,870	297,151	0,055	0,073
-80,855	-5,614	0,072	-0,035
-79,840	-14,794	-0,128	0,059
-78,826	-200,000	0,008	0,130
-77,811	-200,000	0,003	-0,068
-76,797	-118,981	-0,163	-0,020
-75,782	273,892	0,038	0,048
-74,767	-70,891	0,159	0,043
-73,753	244,465	0,064	0,077
-72,738	578,332	-0,080	-0,142
-71,724	703,530	-0,048	-0,092
-70,709	-200,000	0,017	-0,094
-69,694	-200,000	0,030	-0,109
-68,680	800,000	0,043	0,103
-67,665	758,427	0,028	0,056
-66,651	-90,362	-0,187	0,039
-65,636	488,094	0,058	-0,096
-64,622	-89,410	0,048	-0,010
-63,607	-200,000	-0,004	-0,064
-62,592	327,079	-0,044	-0,060
-61,578	109,059	0,096	-0,083
-60,563	73,903	0,156	-0,117
-59,549	-109,075	0,082	-0,012
-58,534	64,455	-2,390	-1,726
-57,519	-200,000	0,184	-0,586
-56,505	-200,000	-1,589	-5,276
-55,490	273,130	1,013	1,287
-54,476	800,000	5,427	11,992
-53,461	-200,000	20,478	336,633
-52,446	800,000	759,809	2353,082
-51,432	539,746	1665,968	2856,422
-50,417	111,997	1637,059	1419,082
-49,403	80,185	1286,060	991,992
-48,388	28,767	1027,401	622,980
-47,373	19,834	991,283	571,507
-46,359	15,273	978,920	549,355
-45,344	11,253	975,375	534,115
-44,330	11,777	973,540	534,814
-43,315	10,811	971,350	530,420
-42,300	10,714	970,480	529,604
-41,286	10,746	969,459	529,131
-40,271	10,712	968,668	528,566
-39,257	10,748	967,544	528,049
-38,242	10,679	966,697	527,340
-37,227	10,758	965,880	527,131
-36,213	10,734	964,949	526,526
-35,198	10,677	964,093	525,850
-34,184	10,792	963,256	525,749
-33,169	10,716	962,612	525,130
-32,154	10,761	961,583	524,694
-31,140	10,769	960,598	524,159
-30,125	10,788	959,859	523,797
-29,111	10,775	958,938	523,232
-28,096	10,756	958,500	522,911
-27,082	10,749	957,793	522,483
-26,067	10,804	956,728	522,058
-25,052	10,761	956,177	521,597
-24,038	10,690	955,380	520,912
-23,023	10,727	954,736	520,662
-22,009	10,758	954,357	520,533
-20,994	10,811	953,630	520,288
-19,979	10,730	953,118	519,726
-18,965	10,772	952,141	519,308
-17,950	10,746	951,677	518,949
-16,936	10,693	951,232	518,516
-15,921	10,666	950,650	518,094
-14,906	10,644	949,664	517,465
-13,892	10,659	948,963	517,108
-12,877	10,584	948,374	516,529
-11,863	10,569	947,586	516,029
-10,848	10,641	947,053	515,949
-9,833	10,727	946,695	516,008
-8,819	10,739	945,769	515,521
-7,804	10,680	945,438	515,133
-6,790	10,684	944,741	514,745
-5,775	10,694	944,196	514,460
-4,760	10,625	943,671	513,933
-3,746	10,652	943,014	513,642
-2,731	10,554	942,361	512,953
-1,717	10,521	941,604	512,416
-0,702	10,479	941,150	512,015
0,313	10,281	940,446	511,776
1,327	13,596	938,298	521,064
2,342	22,258	788,373	460,694
3,356	17,499	454,187	258,143
4,371	-9,460	315,137	150,254
5,386	-13,434	297,106	137,601
6,400	-15,592	290,996	132,606
7,415	-15,540	288,697	131,598
8,429	-15,829	287,059	130,555
9,444	-15,849	286,156	130,113
10,459	-15,828	285,590	129,865
11,473	-15,730	284,905	129,638
12,488	-15,748	284,483	129,417
13,502	-15,862	284,005	129,077
14,517	-15,573	283,350	129,047
15,531	-15,366	283,112	129,129
16,546	-15,351	282,843	129,009
17,561	-15,393	282,435	128,771
18,575	-15,321	282,294	128,764
19,590	-15,286	281,737	128,533
20,604	-15,085	281,434	128,577
21,619	-15,252	281,114	128,259
22,634	-15,210	280,814	128,151
23,648	-15,262	280,495	127,944
24,663	-15,331	280,199	127,731
25,677	-15,290	280,008	127,672
26,692	-15,145	279,781	127,696
27,707	-14,962	279,396	127,684
28,721	-15,339	279,095	127,175
29,736	-15,156	278,825	127,216
30,750	-15,138	278,537	127,090
31,765	-15,058	278,222	127,011
32,780	-15,033	277,999	126,922
33,794	-15,086	277,760	126,751
34,809	-15,116	277,467	126,577
35,823	-15,128	277,292	126,474
36,838	-15,119	276,964	126,322
37,853	-15,236	276,712	126,085
38,867	-15,077	276,448	126,104
39,882	-15,113	276,299	125,991
40,896	-15,194	276,094	125,810
41,911	-15,316	275,875	125,583
42,926	-15,188	275,692	125,610
43,940	-15,075	275,310	125,531
44,955	-15,075	275,096	125,422
45,969	-15,147	274,704	125,165
46,984	-15,172	274,732	125,142
47,999	-15,117	274,510	125,082
49,013	-14,966	274,189	125,066
50,028	-15,225	273,987	124,720
51,042	-15,116	273,708	124,685
52,057	-15,030	273,514	124,665
53,071	-14,855	273,220	124,684
54,086	-15,171	273,177	124,358
55,101	-15,208	272,972	124,219
56,115	-15,020	272,592	124,209
57,130	-15,233	272,328	123,880
58,144	-15,317	272,159	123,714
59,159	-15,170	271,720	123,640
60,174	-15,344	271,641	123,432
61,188	-15,203	271,231	123,364
62,203	-15,301	271,180	123,241
63,217	-15,231	270,949	123,188
64,232	-15,266	270,844	123,098
65,247	-15,239	270,486	122,949
66,261	-15,388	270,230	122,685
67,276	-15,111	270,086	122,863
68,290	-15,161	269,791	122,672
69,305	-15,234	269,628	122,520
70,320	-15,108	269,517	122,575
71,334	-15,280	269,132	122,231
72,349	-15,356	268,960	122,072
73,363	-15,249	268,593	121,992
74,378	-15,286	268,376	121,849
75,393	-15,199	268,268	121,868
76,407	-15,132	267,984	121,790
77,422	-15,175	267,796	121,655
78,436	-15,161	267,382	121,468
79,451	-15,462	267,417	121,199
80,466	-15,265	266,987	121,173
81,480	-15,224	266,961	121,187
82,495	-15,256	266,769	121,060
83,509	-15,254	266,591	120,971
84,524	-14,995	266,237	121,034
85,539	-15,185	266,024	120,754
86,553	-15,125	265,867	120,726
87,568	-15,141	265,625	120,592
88,582	-15,320	265,517	120,370
89,597	-15,148	265,371	120,448
90,611	-15,129	264,902	120,241
91,626	-15,175	264,753	120,122
92,641	-15,036	264,671	120,199
93,655	-15,111	264,468	120,029
94,670	-15,251	264,231	119,784
95,684	-15,202	264,112	119,764
96,699	-15,077	263,743	119,698
97,714	-15,069	263,571	119,617
98,728	-14,973	263,371	119,601
99,743	-15,088	263,196	119,408
100,757	-15,116	262,919	119,247
101,772	-15,082	262,856	119,238
102,787	-15,214	262,548	118,970
103,801	-15,223	262,424	118,895
104,816	-15,182	262,140	118,793
105,830	-15,110	261,851	118,715
106,845	-15,390	261,741	118,405
107,860	-15,134	261,405	118,470
108,874	-15,348	261,330	118,235
109,889	-15,384	261,136	118,105
110,903	-15,284	260,905	118,079
111,918	-15,136	260,618	118,070
112,933	-15,268	260,485	117,882
113,947	-15,269	260,268	117,772
114,962	-15,287	260,051	117,648
115,976	-15,274	260,039	117,643
116,991	-15,322	259,671	117,424
118,006	-15,207	259,516	117,444
119,020	-15,115	259,383	117,455
120,035	-15,214	259,369	117,351
121,049	-14,998	259,031	117,378
122,064	-15,267	258,848	117,048
123,079	-15,120	258,580	117,046
124,093	-15,210	258,423	116,885
125,108	-15,285	258,326	116,765
126,122	-14,954	258,112	116,948
127,137	-15,129	257,985	116,726
128,151	-15,189	257,689	116,529
129,166	-15,266	257,605	116,414
130,181	-15,090	257,172	116,362
131,195	-15,151	257,008	116,223
132,210	-15,258	256,768	116,011
133,224	-15,171	256,494	115,953
134,239	-15,182	256,204	115,802
135,254	-15,230	256,293	115,790
136,268	-15,192	255,895	115,633
137,283	-15,243	255,916	115,587
138,297	-15,056	255,551	115,574
139,312	-15,054	255,304	115,455
140,327	-15,191	255,024	115,199
141,341	-15,170	255,057	115,222
142,356	-15,214	254,710	115,017
143,370	-15,152	254,379	114,911
144,385	-15,100	254,360	114,936
145,400	-15,167	254,263	114,825
146,414	-15,276	254,016	114,610
147,429	-15,154	253,964	114,680
148,443	-15,165	253,659	114,523
149,458	-15,339	253,426	114,259
150,473	-15,302	253,385	114,262
151,487	-15,199	253,070	114,197
152,502	-15,242	252,863	114,057
153,516	-15,019	252,624	114,130
154,531	-15,115	252,452	113,960
155,546	-15,138	252,306	113,864
156,560	-15,206	252,151	113,726
157,575	-15,198	251,886	113,603
158,589	-15,289	251,741	113,451
159,604	-15,302	251,471	113,307
160,619	-15,143	251,297	113,354
161,633	-15,300	251,285	113,205
162,648	-15,195	251,050	113,178
163,662	-15,175	250,719	113,036
164,677	-15,231	250,773	113,003
165,692	-15,106	250,446	112,951
166,706	-14,884	250,324	113,073
167,721	-15,255	250,288	112,734
168,735	-15,090	249,960	112,715
169,750	-15,065	249,829	112,668
170,764	-15,268	249,689	112,423
171,779	-15,200	249,714	112,482
172,794	-15,163	249,330	112,330
173,808	-15,261	249,369	112,255
174,823	-15,212	249,172	112,197
175,837	-15,270	248,778	111,961
176,852	-15,106	248,629	112,021
177,867	-15,270	248,641	111,879
178,881	-15,095	248,287	111,857
179,896	-15,190	247,995	111,636
180,910	-15,127	247,914	111,642
181,925	-15,359	247,851	111,410
182,940	-15,322	247,488	111,268
183,954	-15,200	247,388	111,315
184,969	-15,305	247,315	111,184
185,983	-15,136	247,112	111,224
186,998	-15,084	246,996	111,205
188,013	-15,004	246,642	111,103
189,027	-15,085	246,444	110,936
190,042	-15,252	246,176	110,667
191,056	-15,275	246,121	110,613
192,071	-15,486	246,007	110,376
193,086	-15,341	245,777	110,384
194,100	-15,317	245,610	110,319
195,115	-15,326	245,379	110,198
196,129	-15,258	245,140	110,137
197,144	-15,395	245,075	109,985
198,159	-15,201	244,740	109,984
199,173	-15,492	244,535	109,642
200,188	-15,458	244,286	109,550
201,202	-15,200	244,241	109,732
202,217	-15,063	244,131	109,785
203,232	-15,385	243,953	109,431
204,246	-15,589	243,648	109,116
205,261	-16,248	243,256	108,391
206,275	-15,540	243,317	108,989
207,290	-11,416	244,919	113,098
208,304	-4,506	247,110	119,837
209,319	-0,438	248,284	123,779
210,334	0,584	248,486	124,718
211,348	1,688	248,520	125,641
212,363	1,844	248,600	125,799
213,377	2,178	248,724	126,129
214,392	2,487	248,475	126,248
215,407	2,804	248,432	126,477
216,421	2,955	248,180	126,462
217,436	2,855	248,054	126,304
218,450	2,857	247,877	126,205
219,465	2,667	247,786	125,990
220,480	2,501	247,640	125,767
221,494	2,419	247,382	125,558
222,509	1,921	247,231	125,059
223,523	1,825	246,824	124,763
224,538	1,748	246,560	124,555
225,553	1,624	246,325	124,323
226,567	1,231	246,272	123,962
227,582	1,470	246,025	124,023
228,596	1,449	245,777	123,870
229,611	1,417	245,722	123,804
230,626	1,364	245,576	123,677
231,640	1,480	245,389	123,666
232,655	1,741	245,178	123,763
233,669	1,377	245,023	123,376
234,684	1,295	244,867	123,219
235,699	1,537	244,828	123,387
236,713	1,466	244,695	123,251
237,728	1,411	244,495	123,094
238,742	1,419	244,310	122,996
239,757	1,615	244,084	123,031
240,772	1,556	243,914	122,886
241,786	1,582	243,796	122,838
242,801	1,671	243,526	122,762
243,815	1,545	243,546	122,659
244,830	1,700	243,317	122,658
245,844	1,431	243,101	122,321
246,859	1,541	242,894	122,295
247,874	1,619	242,845	122,322
248,888	1,702	242,735	122,323
249,903	1,328	242,674	121,979
250,917	1,527	242,448	122,015
251,932	1,803	242,213	122,109
252,947	1,737	242,028	121,952
253,961	1,636	241,896	121,793
254,976	1,668	241,781	121,750
255,990	1,680	241,718	121,716
257,005	1,737	241,422	121,603
258,020	1,639	241,271	121,437
259,034	1,603	241,067	121,294
260,049	1,738	240,951	121,334
261,063	1,592	240,734	121,097
262,078	1,731	240,624	121,141
263,093	1,598	240,644	121,034
264,107	1,403	240,449	120,770
265,122	1,687	240,164	120,843
266,136	1,527	240,093	120,668
267,151	1,716	239,790	120,656
268,166	1,649	239,555	120,474
269,180	1,608	239,458	120,382
270,195	1,569	239,423	120,323
271,209	1,606	239,243	120,251
272,224	1,625	239,010	120,138
273,239	1,401	238,952	119,920
274,253	1,489	238,806	119,906
275,268	1,402	238,753	119,800
276,282	1,537	238,364	119,701
277,297	1,493	238,187	119,566
278,312	1,515	238,047	119,502
279,326	1,485	238,063	119,477
280,341	1,641	237,769	119,441
281,355	1,593	237,842	119,429
282,370	1,673	237,540	119,330
283,384	1,543	237,511	119,203
284,399	1,574	237,273	119,097
285,414	1,469	237,247	118,991
286,428	1,591	236,936	118,920
287,443	1,688	236,825	118,930
288,457	1,500	236,771	118,745
289,472	1,740	236,438	118,755
290,487	1,453	236,231	118,416
291,501	1,520	236,127	118,405
292,516	1,548	235,947	118,326
293,530	1,581	235,808	118,273
294,545	1,568	235,916	118,306
295,560	1,612	235,703	118,222
296,574	1,637	235,401	118,080
297,589	1,723	235,267	118,069
298,603	1,661	235,297	118,025
299,618	1,582	235,032	117,820
300,633	1,812	235,020	117,983
301,647	1,803	234,895	117,903
302,662	1,790	234,650	117,759
303,676	1,971	234,460	117,794
304,691	1,708	234,212	117,455
305,706	1,606	234,157	117,337
306,720	1,813	233,979	117,399
307,735	1,839	233,925	117,381
308,749	1,958	233,723	117,361
309,764	1,803	233,457	117,097
310,779	1,633	233,414	116,934
311,793	1,694	233,205	116,866
312,808	1,681	233,249	116,867
313,822	1,925	232,850	116,846
314,837	1,636	232,727	116,551
315,852	1,727	232,607	116,550
316,866	1,738	232,513	116,501
317,881	1,867	232,353	116,509
318,895	2,028	232,168	116,530
319,910	1,925	231,940	116,326
320,925	1,814	231,887	116,204
321,939	1,631	231,732	115,976
322,954	1,881	231,490	116,036
323,968	1,664	231,394	115,811
324,983	1,735	231,336	115,827
325,997	1,759	231,037	115,684
327,012	1,784	230,917	115,633
328,027	1,696	230,867	115,531
329,041	1,763	230,653	115,465
330,056	1,691	230,610	115,378
331,070	1,809	230,471	115,388
332,085	1,819	230,245	115,272
333,100	1,611	230,060	115,011
334,114	1,668	229,836	114,932
335,129	1,705	229,776	114,920
336,143	1,751	229,658	114,885
337,158	1,915	229,551	114,946
338,173	1,927	229,484	114,912
339,187	1,872	229,377	114,806
340,202	1,611	229,157	114,488
341,216	1,702	228,989	114,463
342,231	1,855	228,814	114,480
343,246	1,697	228,745	114,317
344,260	1,708	228,703	114,294
345,275	1,779	228,432	114,202
346,289	1,909	228,284	114,216
347,304	1,980	228,068	114,150
348,319	1,808	227,863	113,908
349,333	1,905	227,776	113,928
350,348	1,656	227,509	113,597
351,362	1,832	227,526	113,727
352,377	1,813	227,401	113,640
353,392	2,012	227,100	113,629
354,406	1,853	227,076	113,488
355,421	192,427	1313,963	1380,427
356,435	154,189	1446,286	1380,320
