DTS Sentinel unit serial number:	SN410029Multiplexer serial number:	ORYXHardware model number:	OX2-SRSoftware version number:	ORYX F/W v4,00 Oryx Data Collector v3.7.2.0data status	okinstallation	B5 Nyhavnadifferential loss correction	single-endedforward channel	channel 2reverse channel	N/Adate	2023/12/12time	15:02:13forward acquisition time	300,00reverse acquisition time	0,00gamma	499,1914k internal	0,3156k external	0,3156temperature offset calibration	1,0000default loss term (dB/km)	0,3820temperature slope calibration	1,0000multiplexer offset coefficient	1,0000multiplexer slope coefficient	1,0000fibre end	0,00T internal ref (°C)	15,91T ext. ref 1 (°C)	-0,35T ext. ref 2 (°C)	-0,61length (m)	temperature (°C)	Stokes	anti-Stokes-744,400	-200,000	0,023	0,108
-743,385	-25,842	-0,267	-0,115
-742,371	-68,371	0,126	0,036
-741,356	-138,977	-0,260	-0,020
-740,342	-161,077	0,136	0,005
-739,327	-134,136	-0,380	0,034
-738,312	-8,964	0,109	0,054
-737,298	-104,632	-0,288	0,048
-736,283	222,311	0,157	-0,187
-735,269	16,660	-0,253	0,147
-734,254	788,821	0,078	0,160
-733,239	-142,981	-0,518	-0,036
-732,225	-137,585	0,130	0,011
-731,210	-64,043	-0,047	-0,014
-730,196	93,849	-0,059	-0,049
-729,181	-7,354	-0,036	-0,018
-728,167	-200,000	0,039	-0,133
-727,152	-63,999	-0,026	-0,008
-726,137	-200,000	0,008	0,035
-725,123	-0,236	-0,092	-0,048
-724,108	-160,700	-0,068	-0,003
-723,094	-200,000	-0,022	-0,078
-722,079	149,204	-0,181	-0,181
-721,064	-200,000	-0,006	-0,122
-720,050	173,115	-0,020	-0,021
-719,035	-200,000	0,007	-0,112
-718,021	96,699	0,098	0,083
-717,006	454,785	-0,049	-0,080
-715,991	185,396	-0,109	-0,120
-714,977	-200,000	0,024	-0,124
-713,962	68,619	-0,195	-0,147
-712,948	-25,867	-0,136	-0,059
-711,933	47,715	-0,105	0,072
-710,918	-31,908	-0,037	-0,015
-709,904	505,501	-0,032	0,055
-708,889	146,310	-0,064	-0,063
-707,875	-200,000	-0,023	0,080
-706,860	564,484	-0,069	0,123
-705,845	107,490	0,040	0,035
-704,831	-200,000	-0,007	0,112
-703,816	-200,000	-0,011	0,042
-702,802	800,000	-0,024	-0,056
-701,787	14,347	-0,107	-0,061
-700,772	-107,012	0,087	-0,014
-699,758	800,000	-0,035	0,093
-698,743	-81,895	0,093	0,022
-697,729	-0,640	0,067	-0,035
-696,714	-200,000	-0,006	0,058
-695,699	800,000	0,086	-0,183
-694,685	35,453	-0,102	0,066
-693,670	-58,188	-0,095	-0,030
-692,656	-130,617	0,109	0,011
-691,641	-115,714	0,059	0,008
-690,627	-8,321	-0,104	-0,051
-689,612	-47,786	-0,059	0,021
-688,597	-13,621	-0,106	0,050
-687,583	-200,000	-0,028	0,092
-686,568	-56,314	0,061	-0,020
-685,554	-200,000	0,024	-0,079
-684,539	194,994	-0,007	-0,008
-683,524	-103,290	-0,065	0,011
-682,510	-46,788	0,127	-0,045
-681,495	-127,613	-0,148	0,016
-680,481	800,000	-0,018	-0,047
-679,466	-200,000	-0,026	-0,148
-678,451	-106,778	-0,168	-0,027
-677,437	1,764	-0,105	0,056
-676,422	276,768	0,060	0,079
-675,408	589,130	0,028	-0,051
-674,393	-126,802	-0,078	0,008
-673,378	1,482	-0,025	-0,013
-672,364	-53,078	-0,051	0,017
-671,349	800,000	-0,068	-0,164
-670,335	-200,000	-0,017	0,063
-669,320	508,098	0,032	0,054
-668,305	512,142	-0,026	0,045
-667,291	26,088	-0,100	0,061
-666,276	-65,905	0,108	0,032
-665,262	19,648	-0,030	-0,018
-664,247	-22,745	-0,040	0,018
-663,232	354,255	0,018	0,026
-662,218	206,683	-0,059	-0,067
-661,203	-200,000	-0,007	0,032
-660,189	-84,091	-0,065	-0,015
-659,174	-63,247	-0,160	0,048
-658,159	800,000	-0,041	-0,093
-657,145	194,837	-0,084	0,094
-656,130	-54,909	0,161	-0,053
-655,116	-56,546	-0,079	0,026
-654,101	800,000	-0,072	0,153
-653,086	-121,158	-0,101	0,012
-652,072	54,486	0,102	0,072
-651,057	-95,209	-0,145	-0,028
-650,043	-200,000	0,006	-0,044
-649,028	-200,000	0,019	-0,099
-648,014	230,596	-0,022	-0,027
-646,999	-200,000	0,006	0,162
-645,984	1,873	-0,043	0,023
-644,970	-107,749	-0,096	-0,015
-643,955	-118,835	-0,112	0,014
-642,941	-105,718	-0,065	-0,011
-641,926	214,002	0,065	-0,076
-640,911	157,685	-0,053	0,054
-639,897	-145,623	0,116	-0,008
-638,882	-131,576	-0,060	0,006
-637,868	214,070	-0,059	0,069
-636,853	428,106	-0,032	0,052
-635,838	213,918	-0,019	0,022
-634,824	0,692	0,026	-0,014
-633,809	17,974	0,155	-0,090
-632,795	-200,000	-0,010	0,129
-631,780	85,621	-0,108	-0,087
-630,765	800,000	0,040	-0,097
-629,751	-123,724	-0,096	0,011
-628,736	47,526	-0,108	0,073
-627,722	135,093	0,065	-0,062
-626,707	800,000	-0,055	0,135
-625,692	197,915	0,111	0,125
-624,678	-112,005	0,037	0,005
-623,663	-59,925	-0,085	-0,027
-622,649	49,302	0,071	0,049
-621,634	351,066	-0,086	-0,125
-620,619	3,233	-0,073	-0,039
-619,605	-71,624	0,110	0,030
-618,590	-24,165	0,183	-0,080
-617,576	800,000	-0,049	0,142
-616,561	-151,285	0,073	-0,004
-615,546	-74,415	-0,186	-0,049
-614,532	168,104	-0,108	-0,113
-613,517	-20,385	0,079	-0,035
-612,503	-129,168	0,080	0,008
-611,488	800,000	-0,034	-0,071
-610,474	-185,004	0,071	-0,001
-609,459	-37,550	-0,100	0,039
-608,444	57,641	-0,104	-0,075
-607,430	699,524	0,022	-0,042
-606,415	749,026	-0,034	0,067
-605,401	-200,000	-0,006	0,085
-604,386	800,000	0,032	-0,072
-603,371	-200,000	0,025	0,106
-602,357	-165,088	0,163	-0,005
-601,342	-71,045	0,165	-0,045
-600,328	87,829	-0,012	-0,010
-599,313	-200,000	-0,002	-0,113
-598,298	-200,000	-0,022	-0,072
-597,284	-15,557	0,094	0,044
-596,269	-90,402	-0,025	0,005
-595,255	-200,000	-0,014	-0,053
-594,240	-200,000	0,022	-0,072
-593,225	602,254	-0,017	-0,032
-592,211	800,000	-0,050	-0,139
-591,196	800,000	0,053	-0,157
-590,182	800,000	-0,053	-0,159
-589,167	13,942	0,042	0,024
-588,152	-105,210	-0,012	-0,002
-587,138	210,624	0,020	-0,023
-586,123	120,617	-0,049	0,044
-585,109	59,574	-0,145	-0,104
-584,094	800,000	-0,059	0,142
-583,079	-123,468	-0,091	-0,010
-582,065	-69,525	0,090	-0,025
-581,050	-50,546	0,021	-0,007
-580,036	-102,267	-0,083	0,014
-579,021	800,000	0,037	-0,094
-578,006	64,650	-0,050	-0,037
-576,992	800,000	0,052	0,131
-575,977	363,615	0,098	-0,144
-574,963	800,000	-0,024	-0,054
-573,948	-79,478	0,061	0,015
-572,934	-200,000	0,003	-0,062
-571,919	171,309	-0,030	-0,032
-570,904	800,000	-0,029	0,059
-569,890	800,000	-0,013	-0,035
-568,875	-200,000	-0,018	-0,072
-567,861	-87,426	-0,080	0,018
-566,846	210,751	-0,006	-0,007
-565,831	-200,000	-0,011	0,113
-564,817	-168,126	-0,071	0,002
-563,802	-127,921	0,115	-0,012
-562,788	161,097	-0,052	-0,053
-561,773	240,219	0,105	0,129
-560,758	349,090	-0,094	0,136
-559,744	13,540	0,049	0,027
-558,729	113,632	0,046	-0,041
-557,715	-20,900	-0,039	0,017
-556,700	-200,000	-0,000	-0,192
-555,685	-29,301	-0,118	-0,049
-554,671	-44,296	-0,093	-0,034
-553,656	116,807	0,081	-0,073
-552,642	152,649	0,083	-0,083
-551,627	-200,000	-0,002	-0,150
-550,612	166,695	0,120	0,125
-549,598	-200,000	-0,001	0,085
-548,583	56,577	-0,029	0,021
-547,569	104,429	0,168	-0,144
-546,554	-96,646	0,091	0,017
-545,539	-80,156	-0,049	0,012
-544,525	800,000	-0,033	0,091
-543,510	14,551	-0,069	-0,039
-542,496	-200,000	-0,010	0,094
-541,481	-117,492	-0,154	-0,020
-540,466	-200,000	0,009	-0,052
-539,452	-200,000	-0,000	0,192
-538,437	-51,151	-0,197	0,067
-537,423	25,294	-0,058	-0,035
-536,408	251,678	-0,106	-0,132
-535,393	352,346	-0,043	-0,063
-534,379	220,593	0,070	0,083
-533,364	126,423	-0,026	0,024
-532,350	21,072	0,045	-0,027
-531,335	182,960	0,129	-0,140
-530,321	-15,743	-0,086	0,040
-529,306	476,108	0,024	0,040
-528,291	219,624	0,015	-0,018
-527,277	-200,000	0,001	-0,020
-526,262	90,965	-0,089	0,073
-525,248	34,556	-0,049	0,031
-524,233	-4,882	0,086	0,043
-523,218	345,566	0,042	0,061
-522,204	-92,837	0,020	0,004
-521,189	215,980	-0,110	-0,128
-520,175	414,484	0,052	-0,081
-519,160	473,154	0,065	0,108
-518,145	-2,360	0,081	-0,041
-517,131	-200,000	-0,003	0,058
-516,116	20,612	0,064	-0,038
-515,102	-35,270	-0,121	0,048
-514,087	200,965	-0,096	-0,109
-513,072	-24,588	0,063	0,027
-512,058	106,555	-0,050	0,043
-511,043	407,477	-0,080	0,124
-510,029	428,570	-0,023	0,036
-509,014	-200,000	-0,001	0,123
-507,999	62,429	-0,074	0,054
-506,985	-62,223	-0,103	0,031
-505,970	-1,420	0,033	0,017
-504,956	230,834	0,035	-0,042
-503,941	-200,000	0,001	0,030
-502,926	230,621	0,111	-0,133
-501,912	-200,000	-0,063	0,206
-500,897	-200,000	0,032	0,149
-499,883	-10,286	-0,147	-0,071
-498,868	19,897	-0,069	-0,040
-497,853	431,603	-0,072	-0,115
-496,839	66,794	-0,044	-0,033
-495,824	287,007	-0,055	-0,073
-494,810	-200,000	-0,001	-0,098
-493,795	112,515	0,093	-0,082
-492,781	-98,699	-0,069	-0,013
-491,766	30,495	-0,051	-0,032
-490,751	355,778	-0,033	-0,048
-489,737	-148,278	-0,119	0,007
-488,722	800,000	0,086	0,200
-487,708	481,208	-0,059	0,099
-486,693	800,000	0,023	0,068
-485,678	800,000	0,065	0,184
-484,664	14,532	-0,100	0,057
-483,649	-135,797	-0,023	0,002
-482,635	-144,762	-0,074	-0,005
-481,620	65,009	-0,081	-0,060
-480,605	731,553	0,059	-0,116
-479,591	242,759	0,058	0,071
-478,576	800,000	-0,046	-0,108
-477,562	243,878	0,031	-0,038
-476,547	-28,924	-0,054	-0,022
-475,532	145,188	0,030	-0,029
-474,518	-192,124	0,106	0,001
-473,503	263,338	0,028	-0,036
-472,489	149,499	-0,053	-0,053
-471,474	293,450	-0,057	0,077
-470,459	-115,435	-0,079	0,011
-469,445	-29,182	-0,078	0,033
-468,430	-81,831	0,031	-0,007
-467,416	-159,872	-0,094	0,004
-466,401	-200,000	-0,017	0,059
-465,386	-97,809	0,049	0,009
-464,372	-66,125	0,067	0,019
-463,357	800,000	-0,054	0,129
-462,343	800,000	0,015	-0,034
-461,328	504,508	-0,071	-0,120
-460,313	87,847	-0,154	0,125
-459,299	-200,000	-0,013	0,136
-458,284	-200,000	0,012	0,092
-457,270	146,044	0,043	-0,042
-456,255	-200,000	-0,006	-0,050
-455,241	351,940	0,076	0,110
-454,226	25,356	-0,106	-0,064
-453,211	-35,863	0,071	-0,028
-452,197	302,174	-0,069	0,093
-451,182	800,000	0,026	0,083
-450,168	511,843	0,052	-0,089
-449,153	-32,821	-0,093	-0,038
-448,138	747,517	-0,037	0,073
-447,124	-65,634	-0,065	-0,019
-446,109	-48,627	0,104	-0,036
-445,095	148,654	-0,103	0,102
-444,080	800,000	0,002	-0,005
-443,065	-200,000	-0,014	-0,147
-442,051	-200,000	-0,018	-0,090
-441,036	800,000	0,026	-0,058
-440,022	159,008	0,042	0,043
-439,007	-200,000	0,012	-0,077
-437,992	-86,511	0,049	0,011
-436,978	20,858	0,124	0,073
-435,963	-200,000	0,008	0,090
-434,949	286,147	-0,064	0,084
-433,934	800,000	0,009	0,027
-432,919	-94,694	0,082	0,016
-431,905	279,137	0,062	-0,080
-430,890	-200,000	0,001	-0,041
-429,876	-200,000	-0,006	-0,040
-428,861	17,746	0,067	0,039
-427,846	-200,000	-0,007	0,144
-426,832	800,000	0,020	0,061
-425,817	-200,000	-0,010	0,112
-424,803	-12,714	-0,156	-0,074
-423,788	-2,712	0,069	0,035
-422,773	-33,107	-0,050	0,020
-421,759	-38,591	0,065	-0,025
-420,744	-85,054	0,018	-0,004
-419,730	-200,000	-0,000	-0,014
-418,715	-174,273	0,061	-0,001
-417,701	800,000	-0,038	0,098
-416,686	54,274	-0,038	0,026
-415,671	28,009	-0,021	-0,013
-414,657	228,415	-0,060	0,072
-413,642	-122,585	-0,011	-0,001
-412,628	26,907	-0,013	0,008
-411,613	-132,397	0,076	-0,007
-410,598	-200,000	0,008	-0,029
-409,584	-200,000	-0,017	-0,069
-408,569	-69,455	0,089	0,025
-407,555	-200,000	0,009	0,057
-406,540	-111,551	0,140	0,021
-405,525	129,664	-0,096	-0,089
-404,511	41,636	-0,105	-0,069
-403,496	-200,000	-0,010	-0,035
-402,482	-137,656	0,064	-0,005
-401,467	147,967	-0,031	0,030
-400,452	121,194	0,107	-0,097
-399,438	69,289	0,182	0,136
-398,423	-89,294	-0,062	0,013
-397,409	800,000	0,041	-0,115
-396,394	454,195	0,032	0,051
-395,379	-91,561	0,180	-0,037
-394,365	-200,000	-0,029	0,114
-393,350	-200,000	-0,001	0,233
-392,336	-200,000	-0,014	0,156
-391,321	267,505	-0,049	0,062
-390,306	20,969	0,176	-0,104
-389,292	-200,000	-0,000	-0,061
-388,277	-100,656	-0,110	-0,020
-387,263	246,092	0,038	-0,047
-386,248	132,931	0,074	0,070
-385,233	-170,224	-0,046	0,001
-384,219	8,667	-0,089	0,049
-383,204	-200,000	0,013	-0,073
-382,190	-22,125	-0,051	-0,022
-381,175	277,763	-0,044	-0,057
-380,160	-200,000	0,004	-0,096
-379,146	-200,000	-0,001	0,066
-378,131	-200,000	-0,001	0,008
-377,117	-200,000	0,007	-0,040
-376,102	473,944	-0,070	-0,115
-375,088	-46,875	-0,059	-0,021
-374,073	635,340	0,023	-0,043
-373,058	563,719	0,083	0,147
-372,044	399,221	0,026	0,040
-371,029	680,347	0,087	-0,165
-370,015	205,739	-0,063	0,072
-369,000	-200,000	-0,033	0,119
-367,985	60,691	-0,089	-0,064
-366,971	-58,469	-0,043	-0,014
-365,956	31,370	0,048	-0,030
-364,942	-79,414	-0,059	0,014
-363,927	24,997	0,082	0,049
-362,912	21,977	-0,033	-0,020
-361,898	161,987	0,053	0,054
-360,883	-136,488	0,056	-0,005
-359,869	275,773	0,026	0,034
-358,854	146,477	0,050	-0,049
-357,839	-98,088	0,162	0,030
-356,825	-9,633	-0,069	0,033
-355,810	-200,000	0,020	0,126
-354,796	-200,000	-0,002	-0,033
-353,781	-200,000	-0,011	0,041
-352,766	90,489	0,110	0,090
-351,752	-154,068	0,160	-0,008
-350,737	39,578	-0,132	0,086
-349,723	800,000	0,039	0,115
-348,708	-200,000	0,044	0,174
-347,693	-108,172	-0,053	-0,008
-346,679	800,000	0,015	-0,040
-345,664	800,000	0,039	-0,089
-344,650	800,000	0,060	-0,165
-343,635	-117,499	0,134	0,017
-342,620	-76,274	0,023	0,006
-341,606	29,891	-0,059	-0,036
-340,591	800,000	-0,042	0,105
-339,577	-200,000	-0,009	-0,043
-338,562	-61,117	0,117	-0,036
-337,548	800,000	-0,033	0,084
-336,533	403,638	-0,131	0,201
-335,518	-34,303	0,088	-0,035
-334,504	-200,000	0,029	0,162
-333,489	800,000	-0,037	0,079
-332,475	-200,000	-0,047	-0,244
-331,460	-200,000	0,060	-0,195
-330,445	-15,731	-0,098	-0,045
-329,431	-200,000	0,008	0,045
-328,416	255,932	-0,091	0,114
-327,402	800,000	-0,023	0,064
-326,387	481,999	-0,048	-0,080
-325,372	-152,655	-0,049	0,003
-324,358	450,336	0,058	-0,093
-323,343	-1,216	-0,101	0,052
-322,329	54,473	0,052	-0,036
-321,314	-186,584	-0,126	-0,001
-320,299	-11,000	0,075	0,036
-319,285	-134,226	-0,106	-0,009
-318,270	-3,171	-0,099	0,050
-317,256	-200,000	-0,012	-0,103
-316,241	-65,158	-0,083	-0,024
-315,226	-54,465	0,070	-0,023
-314,212	-8,142	0,093	-0,045
-313,197	800,000	0,081	0,174
-312,183	800,000	0,001	-0,002
-311,168	145,839	-0,038	0,037
-310,153	-200,000	-0,023	-0,172
-309,139	19,337	-0,013	0,008
-308,124	-18,611	0,042	-0,019
-307,110	459,835	0,094	0,152
-306,095	-200,000	0,005	0,082
-305,080	-200,000	-0,004	-0,085
-304,066	-111,858	0,054	0,008
-303,051	-200,000	-0,020	-0,068
-302,037	555,920	0,041	-0,072
-301,022	133,478	-0,020	0,019
-300,008	-200,000	-0,011	0,076
-298,993	47,880	-0,055	-0,037
-297,978	-164,336	0,061	-0,002
-296,964	262,422	0,085	-0,107
-295,949	-0,863	-0,067	0,035
-294,935	800,000	0,036	0,087
-293,920	-44,480	-0,122	-0,044
-292,905	-200,000	-0,013	-0,054
-291,891	63,049	0,049	0,035
-290,876	800,000	-0,009	0,027
-289,862	800,000	0,049	0,104
-288,847	-200,000	0,013	0,060
-287,832	495,098	-0,021	0,035
-286,818	214,967	-0,049	-0,056
-285,803	647,405	0,073	0,136
-284,789	522,209	-0,046	0,079
-283,774	-200,000	-0,001	-0,096
-282,759	-200,000	-0,029	0,103
-281,745	568,568	-0,003	-0,006
-280,730	81,914	-0,049	0,039
-279,716	124,253	-0,051	-0,047
-278,701	800,000	0,039	0,108
-277,686	421,031	-0,032	0,049
-276,672	-200,000	0,002	0,072
-275,657	-200,000	-0,041	0,161
-274,643	-46,188	0,114	-0,040
-273,628	279,464	0,096	-0,125
-272,613	495,496	0,086	-0,143
-271,599	2,693	0,043	-0,022
-270,584	-200,000	0,022	-0,121
-269,570	668,700	-0,085	0,159
-268,555	-114,468	-0,076	-0,010
-267,540	216,322	0,036	0,042
-266,526	134,762	0,075	0,071
-265,511	-0,181	-0,125	-0,064
-264,497	58,190	-0,008	0,005
-263,482	35,496	0,084	0,053
-262,467	638,814	0,041	-0,076
-261,453	-117,006	-0,076	-0,010
-260,438	800,000	-0,027	-0,081
-259,424	-200,000	0,009	-0,041
-258,409	47,689	0,037	0,025
-257,395	-170,434	0,060	0,001
-256,380	281,303	0,033	0,043
-255,365	-77,285	0,095	0,024
-254,351	-59,402	0,072	0,022
-253,336	-157,803	-0,078	-0,003
-252,322	-141,904	-0,141	0,010
-251,307	-200,000	-0,007	-0,024
-250,292	-152,319	0,062	0,003
-249,278	-8,360	-0,047	-0,023
-248,263	9,077	0,096	0,052
-247,249	178,612	0,068	0,072
-246,234	-82,686	-0,237	-0,055
-245,219	-57,735	0,074	0,023
-244,205	-200,000	-0,009	-0,037
-243,190	800,000	0,030	-0,070
-242,176	293,712	0,045	-0,059
-241,161	-38,585	0,056	0,021
-240,146	-200,000	-0,036	-0,200
-239,132	107,073	0,015	-0,013
-238,117	268,852	0,021	-0,027
-237,103	522,846	0,030	-0,052
-236,088	251,489	0,088	0,109
-235,073	-45,909	-0,031	-0,011
-234,059	410,611	0,028	0,042
-233,044	31,986	-0,044	0,027
-232,030	-200,000	-0,008	0,222
-231,015	-200,000	0,025	-0,095
-230,000	-200,000	-0,021	-0,111
-228,986	-125,776	0,082	-0,009
-227,971	252,056	-0,130	-0,161
-226,957	63,045	-0,083	0,060
-225,942	800,000	0,042	0,114
-224,927	521,454	0,025	-0,042
-223,913	-190,886	0,098	-0,001
-222,898	-200,000	-0,013	0,081
-221,884	-200,000	-0,007	0,077
-220,869	218,169	0,054	-0,063
-219,855	-200,000	-0,019	0,073
-218,840	-39,061	0,013	-0,005
-217,825	58,405	0,066	-0,046
-216,811	-200,000	0,010	0,089
-215,796	552,995	0,028	0,049
-214,782	617,705	0,012	0,022
-213,767	-200,000	0,032	0,104
-212,752	-200,000	-0,012	-0,040
-211,738	-67,417	-0,015	0,004
-210,723	-200,000	-0,016	-0,178
-209,709	340,509	0,055	-0,078
-208,694	-200,000	0,003	-0,060
-207,679	-200,000	0,035	-0,173
-206,665	800,000	-0,012	-0,033
-205,650	-200,000	-0,007	-0,101
-204,636	-101,057	0,060	0,010
-203,621	227,660	0,015	0,018
-202,606	-183,616	0,057	-0,001
-201,592	254,164	0,026	-0,032
-200,577	84,190	0,036	0,028
-199,563	299,021	-0,042	0,056
-198,548	-200,000	0,001	0,056
-197,533	-180,449	0,094	-0,001
-196,519	-108,426	-0,083	-0,013
-195,504	800,000	0,055	-0,122
-194,490	800,000	0,003	-0,008
-193,475	37,296	0,078	0,050
-192,460	186,054	0,054	-0,058
-191,446	324,026	-0,073	0,101
-190,431	-200,000	-0,027	0,091
-189,417	94,920	0,102	-0,084
-188,402	-128,828	-0,108	-0,011
-187,387	49,761	-0,061	-0,041
-186,373	90,768	-0,126	-0,102
-185,358	-200,000	-0,012	0,072
-184,344	-68,343	0,045	-0,012
-183,329	140,985	-0,118	0,113
-182,315	13,490	0,093	0,052
-181,300	196,277	-0,059	0,064
-180,285	641,615	-0,016	-0,029
-179,271	68,753	0,076	0,056
-178,256	-200,000	0,005	-0,091
-177,242	446,911	0,062	-0,099
-176,227	71,946	-0,097	-0,073
-175,212	-200,000	-0,014	0,073
-174,198	743,674	-0,020	-0,038
-173,183	-200,000	-0,011	0,036
-172,169	-129,767	-0,086	-0,008
-171,154	2,029	0,109	-0,056
-170,139	800,000	-0,014	-0,043
-169,125	-200,000	0,002	-0,077
-168,110	691,287	0,011	-0,020
-167,096	87,692	0,072	0,057
-166,081	107,951	-0,074	-0,064
-165,066	110,744	0,062	0,053
-164,052	-200,000	0,014	-0,122
-163,037	-200,000	-0,000	-0,075
-162,023	435,842	0,050	0,079
-161,008	409,398	0,041	-0,063
-159,993	-39,864	0,032	-0,012
-158,979	-200,000	-0,032	-0,126
-157,964	238,118	0,046	0,055
-156,950	800,000	0,019	0,043
-155,935	-49,624	0,105	0,036
-154,920	299,248	-0,050	-0,066
-153,906	11,376	0,154	-0,085
-152,891	291,896	-0,086	-0,113
-151,877	800,000	0,030	-0,060
-150,862	-68,701	0,052	0,015
-149,847	-98,876	-0,167	-0,030
-148,833	-200,000	-0,022	0,177
-147,818	384,621	0,049	0,073
-146,804	-200,000	0,107	0,000
-145,789	556,635	-0,050	0,088
-144,775	-83,542	-0,079	-0,018
-143,760	-200,000	0,032	-0,215
-142,745	668,864	-0,030	0,057
-141,731	152,438	-0,086	-0,084
-140,716	-200,000	-0,045	0,178
-139,702	-75,370	0,057	0,015
-138,687	68,260	0,032	-0,023
-137,672	563,394	-0,095	-0,167
-136,658	16,224	-0,115	0,065
-135,643	239,174	-0,089	-0,107
-134,629	-200,000	-0,016	0,053
-133,614	203,001	-0,029	0,032
-132,599	800,000	0,036	0,096
-131,585	123,526	-0,070	0,064
-130,570	-200,000	-0,003	-0,144
-129,556	-200,000	-0,013	-0,077
-128,541	-35,779	-0,118	-0,046
-127,526	-128,096	-0,239	-0,024
-126,512	-200,000	0,013	-0,085
-125,497	-200,000	-0,008	0,040
-124,483	-80,125	-0,096	0,023
-123,468	-200,000	-0,019	-0,101
-122,453	-178,887	0,049	0,001
-121,439	-200,000	-0,021	-0,092
-120,424	800,000	0,030	-0,079
-119,410	-113,999	-0,078	-0,011
-118,395	-155,214	-0,018	-0,001
-117,380	-200,000	-0,007	-0,032
-116,366	-83,856	-0,117	0,027
-115,351	800,000	-0,036	0,095
-114,337	386,423	0,014	0,021
-113,322	561,071	-0,021	0,036
-112,307	-46,049	0,057	0,020
-111,293	-24,838	0,139	0,059
-110,278	800,000	-0,053	0,114
-109,264	404,766	-0,092	0,139
-108,249	195,153	0,013	0,014
-107,234	800,000	0,011	-0,025
-106,220	-101,971	-0,054	0,009
-105,205	-200,000	0,014	-0,047
-104,191	-152,794	0,057	-0,003
-103,176	-200,000	-0,004	0,013
-102,162	800,000	-0,016	0,033
-101,147	18,347	0,115	0,066
-100,132	-200,000	-0,054	-0,310
-99,118	800,000	-0,027	-0,084
-98,103	-55,856	-0,086	-0,028
-97,089	384,311	0,029	0,043
-96,074	232,537	-0,024	0,028
-95,059	-75,659	-0,060	0,015
-94,045	113,633	-0,057	0,050
-93,030	89,602	0,056	-0,045
-92,016	-200,000	-0,031	-0,181
-91,001	-200,000	-0,009	0,035
-89,986	32,116	-0,010	0,006
-88,972	34,136	0,054	-0,034
-87,957	95,527	0,122	-0,100
-86,943	-6,829	0,077	-0,038
-85,928	146,194	-0,061	0,059
-84,913	800,000	-0,054	0,114
-83,899	800,000	0,033	-0,100
-82,884	33,786	0,123	-0,077
-81,870	175,368	0,092	0,096
-80,855	602,072	0,038	-0,068
-79,840	95,985	-0,061	-0,050
-78,826	144,697	0,107	-0,103
-77,811	10,908	0,090	0,049
-76,797	-200,000	0,049	0,000
-75,782	344,722	0,022	0,031
-74,767	-200,000	-0,003	0,014
-73,753	-200,000	0,016	0,074
-72,738	93,278	-0,007	-0,005
-71,724	79,372	0,055	0,042
-70,709	800,000	0,011	0,022
-69,694	626,788	-0,053	-0,096
-68,680	82,642	0,066	0,051
-67,665	-109,284	0,148	0,022
-66,651	-23,468	-0,148	-0,064
-65,636	800,000	-0,020	0,059
-64,622	-105,973	-0,085	0,014
-63,607	800,000	-0,107	-0,217
-62,592	-200,000	-0,006	-0,100
-61,578	800,000	0,016	-0,047
-60,563	-83,918	-0,074	-0,017
-59,549	36,081	-0,137	0,086
-58,534	-17,710	-1,870	-0,840
-57,519	800,000	-0,316	-0,865
-56,505	-200,000	-1,236	-4,980
-55,490	50,781	0,672	0,456
-54,476	800,000	5,191	11,962
-53,461	-200,000	17,235	284,754
-52,446	800,000	722,493	2230,913
-51,432	545,395	1638,192	2821,831
-50,417	112,249	1630,927	1415,516
-49,403	76,392	1286,300	977,461
-48,388	32,933	1028,886	638,330
-47,373	20,313	990,630	572,946
-46,359	18,830	978,799	561,210
-45,344	16,278	975,038	550,666
-44,330	16,427	973,445	550,235
-43,315	15,991	971,718	547,810
-42,300	15,933	970,523	546,924
-41,286	15,909	969,729	546,378
-40,271	15,984	968,468	545,891
-39,257	15,948	967,763	545,355
-38,242	16,005	966,593	544,857
-37,227	15,945	966,047	544,333
-36,213	15,961	965,178	543,873
-35,198	15,928	964,174	543,180
-34,184	15,954	963,655	542,951
-33,169	15,985	962,517	542,387
-32,154	15,999	961,493	541,836
-31,140	15,911	960,722	541,095
-30,125	15,937	960,186	540,857
-29,111	15,969	959,006	540,271
-28,096	15,942	958,696	539,991
-27,082	15,923	957,970	539,498
-26,067	15,920	957,152	539,005
-25,052	15,907	956,447	538,544
-24,038	15,942	955,450	538,075
-23,023	15,908	954,955	537,666
-22,009	15,952	954,420	537,485
-20,994	15,960	953,827	537,155
-19,979	15,929	953,145	536,649
-18,965	15,901	952,524	536,189
-17,950	15,973	951,879	536,034
-16,936	15,887	951,402	535,470
-15,921	15,864	950,648	534,952
-14,906	15,824	949,881	534,370
-13,892	15,867	949,103	534,050
-12,877	15,826	948,694	533,666
-11,863	15,793	948,079	533,194
-10,848	15,778	947,561	532,834
-9,833	15,934	947,020	533,007
-8,819	15,938	946,179	532,524
-7,804	15,802	945,559	531,721
-6,790	15,818	945,124	531,508
-5,775	15,835	944,456	531,164
-4,760	15,841	944,003	530,908
-3,746	15,857	943,270	530,524
-2,731	15,674	942,633	529,565
-1,717	15,662	941,921	529,107
-0,702	15,656	941,382	528,764
0,313	15,485	940,547	528,551
1,327	18,572	938,441	537,060
2,342	27,329	796,014	478,803
3,356	23,946	460,252	271,630
4,371	-2,807	314,623	157,225
5,386	-6,686	296,094	144,028
6,400	-8,817	290,221	139,043
7,415	-9,230	287,842	137,484
8,429	-9,466	286,391	136,547
9,444	-9,465	285,599	136,159
10,459	-9,383	284,699	135,797
11,473	-9,335	284,147	135,568
12,488	-9,436	283,643	135,217
13,502	-9,350	283,251	135,102
14,517	-9,419	282,694	134,758
15,531	-9,334	282,312	134,646
16,546	-9,393	281,945	134,402
17,561	-9,497	281,544	134,099
18,575	-9,234	281,156	134,155
19,590	-9,357	280,648	133,782
20,604	-9,296	280,460	133,740
21,619	-9,598	280,143	133,286
22,634	-9,505	279,871	133,235
23,648	-9,397	279,366	133,086
24,663	-9,412	279,258	133,007
25,677	-9,507	279,061	132,812
26,692	-9,416	278,748	132,737
27,707	-9,282	278,529	132,749
28,721	-9,397	278,272	132,505
29,736	-9,323	277,829	132,353
30,750	-9,371	277,545	132,160
31,765	-9,604	277,476	131,895
32,780	-9,319	277,167	132,006
33,794	-9,475	276,899	131,719
34,809	-9,406	276,654	131,656
35,823	-9,474	276,414	131,465
36,838	-9,578	275,984	131,151
37,853	-9,557	275,824	131,083
38,867	-9,502	275,670	131,050
39,882	-9,520	275,415	130,900
40,896	-9,367	275,068	130,868
41,911	-9,562	274,873	130,580
42,926	-9,487	274,755	130,582
43,940	-9,550	274,420	130,353
44,955	-9,498	274,173	130,273
45,969	-9,577	273,975	130,093
46,984	-9,729	273,911	129,909
47,999	-9,956	273,384	129,435
49,013	-10,034	273,207	129,268
50,028	-9,945	272,699	129,099
51,042	-10,229	272,644	128,798
52,057	-10,205	272,356	128,672
53,071	-10,211	272,167	128,566
54,086	-10,084	271,950	128,570
55,101	-9,853	271,853	128,727
56,115	-9,815	271,809	128,729
57,130	-9,311	271,566	129,069
58,144	-9,407	271,332	128,858
59,159	-9,298	271,085	128,829
60,174	-9,255	270,995	128,815
61,188	-9,253	270,710	128,670
62,203	-9,387	270,495	128,433
63,217	-9,552	270,267	128,161
64,232	-9,338	269,937	128,189
65,247	-9,291	269,886	128,198
66,261	-9,324	269,399	127,924
67,276	-9,435	269,310	127,769
68,290	-9,798	269,165	127,356
69,305	-9,727	268,873	127,271
70,320	-9,842	268,847	127,142
71,334	-9,466	268,417	127,272
72,349	-9,286	268,160	127,303
73,363	-9,356	268,157	127,226
74,378	-9,391	267,927	127,074
75,393	-9,319	267,663	127,003
76,407	-9,487	267,518	126,770
77,422	-9,386	267,314	126,753
78,436	-9,145	267,008	126,815
79,451	-9,328	266,854	126,566
80,466	-9,319	266,501	126,395
81,480	-9,447	266,254	126,150
82,495	-9,531	266,116	125,998
83,509	-9,486	265,893	125,922
84,524	-9,597	265,672	125,706
85,539	-9,574	265,442	125,606
86,553	-9,585	265,192	125,467
87,568	-9,522	264,985	125,415
88,582	-9,449	264,826	125,394
89,597	-9,462	264,575	125,252
90,611	-9,486	264,461	125,165
91,626	-9,466	264,302	125,097
92,641	-9,283	264,075	125,143
93,655	-9,427	263,885	124,912
94,670	-9,385	263,650	124,827
95,684	-9,448	263,384	124,634
96,699	-9,495	263,316	124,549
97,714	-9,614	263,196	124,374
98,728	-9,445	262,874	124,362
99,743	-9,543	262,469	124,072
100,757	-9,856	262,391	123,745
101,772	-9,656	262,221	123,832
102,787	-9,414	262,112	123,985
103,801	-9,543	261,755	123,690
104,816	-9,383	261,784	123,835
105,830	-9,334	261,462	123,716
106,845	-9,314	261,408	123,697
107,860	-9,354	261,103	123,505
108,874	-9,364	260,909	123,394
109,889	-9,302	260,664	123,322
110,903	-9,503	260,585	123,096
111,918	-9,616	260,369	122,882
112,933	-9,594	260,174	122,799
113,947	-9,390	259,992	122,883
114,962	-9,289	259,805	122,872
115,976	-9,175	259,458	122,797
116,991	-9,351	259,252	122,535
118,006	-9,558	259,271	122,350
119,020	-9,481	259,058	122,307
120,035	-9,296	258,989	122,425
121,049	-9,369	258,902	122,309
122,064	-9,152	258,430	122,266
123,079	-9,315	258,306	122,053
124,093	-9,547	258,162	121,771
125,108	-9,695	257,904	121,510
126,122	-9,820	257,642	121,266
127,137	-9,780	257,242	121,102
128,151	-9,662	257,167	121,159
129,166	-9,558	257,065	121,190
130,181	-9,691	256,777	120,928
131,195	-9,727	256,591	120,799
132,210	-9,537	256,580	120,947
133,224	-9,357	256,428	121,022
134,239	-9,405	256,167	120,846
135,254	-9,417	256,107	120,796
136,268	-9,601	255,728	120,448
137,283	-9,674	255,436	120,236
138,297	-9,787	255,276	120,052
139,312	-9,712	254,977	119,966
140,327	-9,379	254,984	120,245
141,341	-9,198	254,983	120,390
142,356	-9,128	254,749	120,330
143,370	-9,107	254,680	120,304
144,385	-9,233	254,495	120,098
145,400	-9,083	254,194	120,074
146,414	-9,119	254,061	119,970
147,429	-9,360	253,913	119,682
148,443	-9,242	253,774	119,707
149,458	-9,431	253,454	119,383
150,473	-9,249	253,251	119,433
151,487	-9,206	253,020	119,351
152,502	-9,318	252,899	119,187
153,516	-9,245	252,682	119,136
154,531	-9,260	252,547	119,049
155,546	-9,252	252,458	119,004
156,560	-9,260	252,237	118,882
157,575	-9,349	252,021	118,694
158,589	-9,134	251,752	118,739
159,604	-8,998	251,626	118,785
160,619	-9,106	251,550	118,646
161,633	-9,235	251,347	118,431
162,648	-9,213	251,233	118,385
163,662	-9,317	251,145	118,245
164,677	-9,314	250,935	118,138
165,692	-9,183	250,656	118,107
166,706	-9,101	250,442	118,065
167,721	-9,050	250,272	118,017
168,735	-9,107	250,151	117,902
169,750	-9,268	250,072	117,718
170,764	-9,007	249,864	117,830
171,779	-9,077	249,806	117,733
172,794	-8,917	249,605	117,763
173,808	-9,059	249,299	117,488
174,823	-9,378	248,970	117,055
175,837	-9,735	248,808	116,669
176,852	-9,248	248,728	117,029
177,867	-9,178	248,709	117,068
178,881	-9,036	248,581	117,117
179,896	-9,031	248,209	116,935
180,910	-8,961	248,079	116,922
181,925	-8,937	247,955	116,874
182,940	-9,009	247,839	116,748
183,954	-9,096	247,511	116,511
184,969	-9,190	247,469	116,402
185,983	-9,208	247,382	116,335
186,998	-9,138	247,132	116,266
188,013	-9,110	247,056	116,243
189,027	-9,002	246,949	116,272
190,042	-9,220	246,632	115,932
191,056	-9,182	246,468	115,876
192,071	-9,161	246,381	115,842
193,086	-9,222	246,085	115,642
194,100	-8,923	245,901	115,793
195,115	-9,023	245,848	115,675
196,129	-9,097	245,534	115,455
197,144	-9,223	245,222	115,195
198,159	-9,088	245,221	115,295
199,173	-9,018	244,996	115,236
200,188	-9,006	244,793	115,141
201,202	-9,356	244,468	114,689
202,217	-9,408	244,212	114,517
203,232	-9,752	244,194	114,215
204,246	-9,175	244,090	114,630
205,261	-8,765	243,949	114,891
206,275	-9,578	243,565	114,033
207,290	-6,225	245,009	117,460
208,304	0,591	247,299	124,199
209,319	3,825	247,818	127,127
210,334	4,071	248,105	127,466
211,348	4,155	247,957	127,448
212,363	4,571	247,794	127,697
213,377	4,437	247,750	127,552
214,392	4,413	247,529	127,407
215,407	4,354	247,327	127,243
216,421	4,301	247,155	127,100
217,436	4,583	247,054	127,269
218,450	4,752	246,875	127,305
219,465	4,565	246,549	126,971
220,480	4,268	246,532	126,707
221,494	4,011	246,331	126,381
222,509	4,165	246,158	126,408
223,523	4,064	246,012	126,239
224,538	3,889	245,636	125,891
225,553	3,978	245,408	125,836
226,567	3,829	245,349	125,673
227,582	3,922	245,288	125,706
228,596	4,027	245,117	125,693
229,611	3,950	244,858	125,486
230,626	3,973	244,586	125,354
231,640	3,752	244,516	125,127
232,655	3,892	244,424	125,182
233,669	3,730	244,196	124,923
234,684	3,759	243,890	124,779
235,699	4,171	243,886	125,101
236,713	4,521	243,867	125,363
237,728	4,003	243,592	124,791
238,742	3,920	243,293	124,560
239,757	3,734	243,209	124,355
240,772	3,870	243,075	124,385
241,786	3,889	242,808	124,253
242,801	3,648	242,829	124,058
243,815	4,019	242,667	124,264
244,830	4,002	242,415	124,110
245,844	4,088	242,366	124,143
246,859	3,838	242,091	123,790
247,874	3,830	241,949	123,700
248,888	3,818	241,855	123,631
249,903	3,943	241,878	123,732
250,917	3,892	241,818	123,650
251,932	4,151	241,572	123,720
252,947	3,937	241,320	123,409
253,961	3,979	240,960	123,248
254,976	3,969	240,917	123,206
255,990	4,286	240,814	123,396
257,005	3,775	240,642	122,889
258,020	3,625	240,451	122,661
259,034	3,880	240,201	122,725
260,049	4,215	239,951	122,853
261,063	3,746	239,904	122,445
262,078	3,824	239,718	122,401
263,093	3,997	239,610	122,473
264,107	4,069	239,568	122,497
265,122	3,883	239,422	122,264
266,136	3,976	239,366	122,298
267,151	4,271	239,212	122,444
268,166	3,798	238,921	121,908
269,180	3,702	238,693	121,705
270,195	4,250	238,710	122,137
271,209	4,778	238,631	122,503
272,224	4,161	238,254	121,811
273,239	3,504	238,137	121,221
274,253	3,698	237,998	121,293
275,268	3,752	237,865	121,257
276,282	3,909	237,821	121,348
277,297	3,661	237,407	120,931
278,312	3,918	237,470	121,155
279,326	4,088	237,080	121,078
280,341	4,000	237,113	121,015
281,355	3,769	237,102	120,817
282,370	4,102	236,804	120,916
283,384	4,186	236,548	120,840
284,399	3,757	236,398	120,417
285,414	3,588	236,338	120,243
286,428	3,915	236,024	120,328
287,443	3,896	236,105	120,344
288,457	4,016	235,945	120,346
289,472	4,156	235,792	120,366
290,487	4,055	235,601	120,179
291,501	3,656	235,358	119,733
292,516	3,668	235,030	119,565
293,530	3,563	235,142	119,530
294,545	4,195	235,000	119,939
295,560	3,844	234,969	119,639
296,574	3,866	234,536	119,426
297,589	3,851	234,484	119,377
298,603	4,142	234,427	119,563
299,618	4,036	234,223	119,366
300,633	4,109	234,088	119,343
301,647	4,019	233,932	119,183
302,662	4,392	234,138	119,566
303,676	4,406	233,726	119,356
304,691	4,211	233,645	119,153
305,706	4,399	233,519	119,224
306,720	4,323	233,369	119,078
307,735	4,120	233,010	118,727
308,749	4,115	232,785	118,598
309,764	3,789	232,706	118,296
310,779	4,034	232,471	118,355
311,793	3,838	232,391	118,153
312,808	3,549	232,234	117,841
313,822	3,712	231,992	117,833
314,837	3,729	231,865	117,771
315,852	3,502	231,855	117,581
316,866	3,986	231,639	117,832
317,881	3,943	231,500	117,717
318,895	3,851	231,415	117,593
319,910	3,942	231,432	117,661
320,925	4,313	231,223	117,827
321,939	3,780	231,021	117,308
322,954	4,111	230,744	117,409
323,968	4,165	230,635	117,384
324,983	3,835	230,472	117,039
325,997	4,143	230,317	117,184
327,012	4,120	230,413	117,206
328,027	4,305	230,080	117,166
329,041	4,350	230,033	117,166
330,056	4,905	230,020	117,570
331,070	4,786	229,973	117,445
332,085	4,294	229,677	116,911
333,100	4,190	229,428	116,695
334,114	3,962	229,363	116,479
335,129	4,263	229,282	116,655
336,143	4,574	229,256	116,867
337,158	4,393	228,990	116,584
338,173	4,365	228,775	116,443
339,187	4,038	228,599	116,096
340,202	4,252	228,438	116,166
341,216	4,289	228,206	116,065
342,231	3,982	228,064	115,751
343,246	4,164	227,772	115,730
344,260	4,105	227,904	115,742
345,275	4,521	227,733	115,957
346,289	4,051	227,655	115,554
347,304	4,469	227,524	115,791
348,319	4,395	227,288	115,605
349,333	4,120	227,110	115,299
350,348	4,114	226,866	115,160
351,362	4,180	226,928	115,230
352,377	3,795	226,785	114,860
353,392	3,767	226,552	114,711
354,406	3,744	226,306	114,559
355,421	194,712	1324,169	1398,999
356,435	156,039	1457,934	1399,007
