DTS Sentinel unit serial number:	SN410029Multiplexer serial number:	ORYXHardware model number:	OX2-SRSoftware version number:	ORYX F/W v4,00 Oryx Data Collector v3.7.2.0data status	okinstallation	B5 Nyhavnadifferential loss correction	single-endedforward channel	channel 2reverse channel	N/Adate	2023/12/14time	00:32:13forward acquisition time	300,00reverse acquisition time	0,00gamma	499,1914k internal	0,3155k external	0,3155temperature offset calibration	1,0000default loss term (dB/km)	0,3820temperature slope calibration	1,0000multiplexer offset coefficient	1,0000multiplexer slope coefficient	1,0000fibre end	0,00T internal ref (°C)	8,67T ext. ref 1 (°C)	-7,28T ext. ref 2 (°C)	-7,33length (m)	temperature (°C)	Stokes	anti-Stokes-744,400	799,915	0,049	0,101
-743,385	-57,581	-0,304	-0,098
-742,371	-13,748	0,228	0,108
-741,356	-92,701	-0,365	0,075
-740,342	506,783	0,075	0,129
-739,327	-54,239	-0,319	-0,106
-738,312	-200,000	0,012	0,070
-737,298	-97,002	-0,328	-0,063
-736,283	12,677	0,171	0,097
-735,269	-46,036	-0,445	-0,161
-734,254	-13,389	0,234	0,112
-733,239	-41,204	-0,639	-0,242
-732,225	0,799	0,299	0,158
-731,210	-175,836	0,124	0,002
-730,196	29,370	-0,090	0,056
-729,181	-200,000	-0,011	-0,194
-728,167	-164,020	-0,016	0,001
-727,152	-200,000	0,016	0,071
-726,137	22,933	0,018	-0,011
-725,123	800,000	0,037	0,080
-724,108	113,644	-0,152	-0,136
-723,094	-200,000	0,025	-0,263
-722,079	-200,000	0,011	-0,115
-721,064	-124,897	0,112	0,013
-720,050	-59,797	-0,071	0,022
-719,035	-165,969	-0,181	-0,006
-718,021	-200,000	0,008	-0,103
-717,006	800,000	-0,054	-0,170
-715,991	-60,898	-0,146	-0,045
-714,977	87,011	0,088	-0,072
-713,962	-128,485	-0,136	0,014
-712,948	-37,484	-0,041	-0,016
-711,933	104,048	0,089	-0,077
-710,918	-112,622	-0,158	0,023
-709,904	398,896	-0,024	0,037
-708,889	-200,000	0,041	-0,166
-707,875	-200,000	-0,008	-0,087
-706,860	-139,890	-0,090	0,007
-705,845	165,350	-0,015	0,015
-704,831	-159,301	-0,064	0,003
-703,816	-68,832	0,056	0,016
-702,802	800,000	-0,050	-0,147
-701,787	800,000	0,037	-0,109
-700,772	-11,695	0,062	0,030
-699,758	-33,267	-0,145	0,059
-698,743	50,602	0,024	0,017
-697,729	-53,739	-0,127	-0,042
-696,714	-188,270	0,045	-0,000
-695,699	60,848	0,049	-0,036
-694,685	455,045	-0,081	-0,132
-693,670	29,415	-0,031	-0,019
-692,656	800,000	-0,024	-0,074
-691,641	94,522	0,005	0,004
-690,627	-200,000	-0,003	-0,021
-689,612	-74,198	0,108	0,029
-688,597	84,116	-0,059	-0,048
-687,583	-76,778	0,064	0,016
-686,568	91,282	-0,067	-0,055
-685,554	-137,477	0,146	-0,012
-684,539	-50,663	-0,112	-0,039
-683,524	-35,970	-0,041	0,016
-682,510	-200,000	0,009	-0,053
-681,495	-28,621	-0,082	-0,035
-680,481	97,482	-0,080	-0,068
-679,466	4,050	-0,055	-0,029
-678,451	800,000	0,007	-0,018
-677,437	275,119	-0,039	0,051
-676,422	-35,603	0,059	-0,024
-675,408	58,390	0,111	-0,080
-674,393	-62,248	-0,052	-0,016
-673,378	250,442	-0,114	-0,143
-672,364	-83,663	0,089	0,021
-671,349	223,778	-0,059	-0,070
-670,335	-98,240	-0,124	0,023
-669,320	800,000	0,063	-0,183
-668,305	135,463	0,064	-0,062
-667,291	-37,291	-0,102	0,040
-666,276	-6,709	0,026	-0,013
-665,262	-34,846	0,084	-0,034
-664,247	-48,932	-0,111	0,039
-663,232	300,768	0,081	-0,111
-662,218	294,760	-0,068	0,091
-661,203	-200,000	0,030	-0,101
-660,189	-80,594	-0,115	-0,028
-659,174	-180,457	-0,122	-0,002
-658,159	-200,000	0,002	-0,007
-657,145	800,000	-0,048	-0,143
-656,130	800,000	-0,040	-0,094
-655,116	-200,000	-0,006	0,070
-654,101	473,487	0,037	0,062
-653,086	-139,880	-0,032	-0,002
-652,072	-42,216	-0,173	0,065
-651,057	475,886	-0,065	-0,108
-650,043	-200,000	-0,003	-0,171
-649,028	654,958	-0,010	-0,020
-648,014	-43,769	0,076	-0,028
-646,999	233,917	0,096	0,116
-645,984	800,000	-0,008	0,017
-644,970	800,000	-0,068	-0,138
-643,955	800,000	0,031	-0,078
-642,941	-73,649	-0,118	-0,031
-641,926	-82,186	-0,068	0,016
-640,911	800,000	0,057	-0,158
-639,897	-68,960	0,046	-0,013
-638,882	800,000	-0,029	0,079
-637,868	45,568	0,071	0,048
-636,853	-4,273	-0,106	-0,054
-635,838	64,205	0,058	-0,043
-634,824	221,524	0,016	-0,019
-633,809	346,774	0,052	0,075
-632,795	321,500	-0,028	-0,039
-631,780	156,542	-0,124	0,126
-630,765	800,000	-0,019	-0,051
-629,751	-200,000	0,000	-0,047
-628,736	-200,000	0,004	0,095
-627,722	-200,000	0,029	0,148
-626,707	153,701	-0,041	0,042
-625,692	-51,062	-0,065	0,022
-624,678	304,302	0,067	0,092
-623,663	-200,000	0,008	-0,064
-622,649	65,472	0,054	0,040
-621,634	-200,000	0,001	-0,037
-620,619	329,470	0,036	0,051
-619,605	-62,042	0,139	0,042
-618,590	20,946	-0,100	0,059
-617,576	-43,800	0,198	0,073
-616,561	-200,000	-0,005	0,018
-615,546	800,000	0,041	-0,102
-614,532	-77,424	-0,146	-0,037
-613,517	-172,514	0,070	-0,002
-612,503	46,867	-0,111	0,075
-611,488	492,577	-0,058	0,098
-610,474	75,807	-0,111	-0,086
-609,459	312,548	0,021	-0,028
-608,444	-139,125	-0,047	-0,004
-607,430	334,779	-0,057	-0,081
-606,415	-101,346	-0,112	0,020
-605,401	139,169	0,031	0,030
-604,386	-133,369	0,053	-0,005
-603,371	446,073	-0,032	0,052
-602,357	-200,000	0,024	0,133
-601,342	595,633	-0,037	-0,067
-600,328	282,574	-0,044	-0,058
-599,313	-49,524	0,120	-0,042
-598,298	800,000	-0,013	0,027
-597,284	36,260	0,026	0,017
-596,269	-98,866	-0,110	0,020
-595,255	-64,394	0,077	0,023
-594,240	243,780	0,044	0,054
-593,225	-90,372	0,092	-0,019
-592,211	-8,723	0,108	0,053
-591,196	50,326	0,025	0,017
-590,182	-116,528	0,120	-0,016
-589,167	639,405	-0,012	0,022
-588,152	212,829	-0,074	0,085
-587,138	759,705	-0,053	0,105
-586,123	152,672	-0,102	-0,102
-585,109	-66,185	-0,177	-0,051
-584,094	-100,188	-0,100	-0,018
-583,079	227,500	-0,027	0,033
-582,065	-200,000	-0,029	0,099
-581,050	96,553	0,067	-0,056
-580,036	-10,622	0,019	-0,009
-579,021	-142,361	-0,200	-0,014
-578,006	487,400	-0,022	-0,037
-576,992	-53,847	-0,120	-0,040
-575,977	122,116	0,117	-0,107
-574,963	-38,579	0,090	0,035
-573,948	-200,000	-0,000	0,027
-572,934	800,000	0,021	0,062
-571,919	-79,723	-0,075	-0,018
-570,904	273,390	-0,099	-0,129
-569,890	-30,691	0,034	-0,014
-568,875	-76,785	0,091	0,023
-567,861	-200,000	-0,011	-0,079
-566,846	597,936	-0,084	0,153
-565,831	-71,252	0,079	-0,021
-564,817	800,000	-0,029	-0,064
-563,802	230,200	0,028	-0,034
-562,788	407,104	0,029	0,046
-561,773	-200,000	0,003	0,024
-560,758	-200,000	0,022	0,146
-559,744	-200,000	-0,023	-0,096
-558,729	144,990	-0,123	0,121
-557,715	-156,665	0,063	0,003
-556,700	800,000	0,043	-0,088
-555,685	-9,670	-0,210	0,102
-554,671	37,394	-0,138	-0,089
-553,656	-106,289	0,243	-0,039
-552,642	-200,000	-0,020	0,087
-551,627	-200,000	0,016	0,099
-550,612	51,031	-0,096	0,067
-549,598	660,979	0,050	-0,094
-548,583	512,281	0,052	0,089
-547,569	800,000	0,044	-0,099
-546,554	165,153	0,028	0,029
-545,539	246,229	0,052	-0,065
-544,525	800,000	-0,076	-0,174
-543,510	-79,509	-0,053	-0,013
-542,496	-79,565	-0,137	0,033
-541,481	-83,680	0,073	0,017
-540,466	552,582	0,041	-0,073
-539,452	800,000	-0,028	0,075
-538,437	728,688	0,027	0,053
-537,423	-200,000	-0,006	-0,094
-536,408	6,041	0,048	0,026
-535,393	-13,895	0,061	0,029
-534,379	800,000	0,054	-0,115
-533,364	800,000	0,019	0,058
-532,350	800,000	0,022	-0,057
-531,335	800,000	0,076	0,223
-530,321	-200,000	-0,001	0,041
-529,306	26,981	-0,088	-0,054
-528,291	-200,000	0,001	-0,168
-527,277	-149,428	-0,013	-0,001
-526,262	-200,000	-0,004	0,204
-525,248	-135,297	-0,065	-0,006
-524,233	-62,737	-0,013	-0,004
-523,218	-200,000	-0,006	0,061
-522,204	315,472	-0,048	-0,067
-521,189	745,776	0,012	-0,023
-520,175	240,223	-0,096	-0,117
-519,160	-200,000	0,002	-0,037
-518,145	-92,927	-0,074	0,015
-517,131	233,763	0,028	-0,034
-516,116	220,511	-0,043	-0,050
-515,102	-128,801	-0,031	0,003
-514,087	-0,865	-0,059	-0,031
-513,072	298,210	-0,073	-0,098
-512,058	80,686	-0,077	0,061
-511,043	-200,000	-0,003	-0,095
-510,029	-200,000	0,001	0,049
-509,014	33,769	-0,064	0,040
-507,999	-28,272	-0,143	0,060
-506,985	376,511	-0,044	-0,066
-505,970	127,842	0,116	0,108
-504,956	800,000	0,050	-0,102
-503,941	-200,000	0,009	-0,092
-502,926	800,000	0,065	0,188
-501,912	-77,192	0,120	0,030
-500,897	38,624	0,102	0,066
-499,883	-25,344	-0,099	-0,043
-498,868	-200,000	-0,003	-0,011
-497,853	-22,720	0,031	-0,014
-496,839	160,549	0,070	-0,071
-495,824	63,598	0,076	0,056
-494,810	-200,000	-0,019	0,076
-493,795	172,717	-0,045	-0,047
-492,781	243,847	0,040	0,050
-491,766	800,000	-0,012	-0,039
-490,751	-200,000	-0,001	-0,079
-489,737	225,385	0,064	0,075
-488,722	-200,000	0,004	0,176
-487,708	800,000	0,054	0,152
-486,693	800,000	0,038	-0,096
-485,678	800,000	0,022	-0,066
-484,664	312,344	0,023	-0,031
-483,649	-200,000	-0,018	-0,103
-482,635	38,180	0,038	0,025
-481,620	-157,771	-0,116	-0,005
-480,605	17,221	-0,072	0,042
-479,591	-3,133	-0,089	0,045
-478,576	-58,546	-0,078	-0,024
-477,562	283,450	-0,020	-0,026
-476,547	496,723	-0,010	0,017
-475,532	288,758	-0,078	0,103
-474,518	-92,306	0,048	-0,010
-473,503	-200,000	0,001	-0,185
-472,489	800,000	-0,043	0,118
-471,474	32,977	0,085	-0,054
-470,459	519,600	-0,032	-0,056
-469,445	17,031	-0,142	-0,082
-468,430	14,787	0,118	0,067
-467,416	-85,330	-0,083	-0,019
-466,401	-200,000	-0,018	0,128
-465,386	-99,083	0,113	0,021
-464,372	133,482	-0,103	-0,098
-463,357	639,680	0,015	-0,028
-462,343	-41,493	0,033	-0,012
-461,328	-200,000	0,017	-0,074
-460,313	606,973	-0,062	0,113
-459,299	-145,147	0,255	0,017
-458,284	115,649	-0,049	-0,043
-457,270	-124,306	0,094	0,011
-456,255	246,826	-0,030	-0,037
-455,241	417,589	-0,058	-0,090
-454,226	800,000	-0,019	-0,057
-453,211	30,561	0,094	0,059
-452,197	-200,000	-0,045	0,191
-451,182	-130,989	0,169	0,016
-450,168	218,414	-0,047	0,055
-449,153	-91,292	-0,122	0,025
-448,138	356,700	-0,060	-0,087
-447,124	92,311	0,049	-0,040
-446,109	-200,000	-0,027	-0,100
-445,095	-200,000	0,020	-0,065
-444,080	-73,896	0,104	0,027
-443,065	40,939	0,122	0,080
-442,051	-84,789	-0,072	-0,016
-441,036	75,823	-0,095	-0,073
-440,022	-200,000	-0,007	-0,136
-439,007	390,109	-0,084	0,127
-437,992	-196,053	0,106	-0,001
-436,978	74,443	-0,074	-0,056
-435,963	3,895	-0,065	-0,034
-434,949	169,334	0,069	-0,072
-433,934	-200,000	-0,004	-0,038
-432,919	-200,000	0,001	0,051
-431,905	800,000	-0,053	-0,118
-430,890	800,000	0,038	0,092
-429,876	-200,000	-0,031	0,138
-428,861	800,000	0,033	0,089
-427,846	32,901	-0,138	-0,087
-426,832	800,000	0,014	0,029
-425,817	-82,756	-0,042	-0,010
-424,803	-127,716	0,101	-0,010
-423,788	220,002	0,081	-0,094
-422,773	-121,146	-0,117	-0,014
-421,759	356,010	0,021	0,031
-420,744	-166,100	-0,054	0,002
-419,730	-9,023	-0,099	-0,048
-418,715	391,463	-0,027	0,041
-417,701	-123,832	-0,079	-0,009
-416,686	800,000	-0,016	-0,033
-415,671	24,348	0,062	0,037
-414,657	160,195	0,040	0,041
-413,642	464,784	-0,083	-0,135
-412,628	48,345	0,115	-0,079
-411,613	-200,000	0,013	-0,117
-410,598	623,551	-0,056	-0,102
-409,584	610,441	0,054	-0,099
-408,569	-200,000	-0,003	-0,095
-407,555	-200,000	-0,002	0,047
-406,540	-200,000	-0,004	-0,104
-405,525	-58,721	-0,092	0,029
-404,511	12,339	-0,039	0,022
-403,496	91,501	0,101	-0,083
-402,482	-200,000	0,018	-0,064
-401,467	800,000	-0,038	0,084
-400,452	-52,230	0,068	-0,023
-399,438	-54,158	0,040	-0,013
-398,423	800,000	0,029	-0,069
-397,409	-200,000	0,001	-0,127
-396,394	546,389	-0,033	-0,058
-395,379	121,174	0,146	-0,132
-394,365	-200,000	-0,003	-0,020
-393,350	126,379	0,028	-0,026
-392,336	-200,000	0,001	0,081
-391,321	-63,001	-0,108	-0,032
-390,306	-94,071	0,091	0,018
-389,292	800,000	-0,015	0,041
-388,277	-200,000	0,016	0,095
-387,263	372,135	0,074	0,110
-386,248	173,107	-0,059	-0,062
-385,233	-200,000	0,015	0,118
-384,219	304,013	-0,123	0,167
-383,204	81,801	-0,037	-0,029
-382,190	800,000	0,018	0,057
-381,175	407,186	0,048	0,074
-380,160	545,616	-0,044	0,077
-379,146	387,741	0,045	0,068
-378,131	27,098	-0,063	0,038
-377,117	93,896	0,062	-0,051
-376,102	800,000	0,029	-0,087
-375,088	-200,000	-0,011	0,150
-374,073	-18,110	-0,057	0,026
-373,058	800,000	-0,018	0,045
-372,044	166,211	0,060	0,062
-371,029	355,648	0,074	0,107
-370,015	-200,000	-0,010	0,088
-369,000	312,109	0,080	0,109
-367,985	-25,034	-0,123	0,053
-366,971	-200,000	0,015	-0,115
-365,956	-200,000	0,105	0,000
-364,942	69,546	0,096	0,072
-363,927	800,000	0,079	0,166
-362,912	-200,000	-0,032	0,113
-361,898	-189,996	-0,153	0,001
-360,883	-14,248	0,026	-0,012
-359,869	-200,000	-0,008	0,103
-358,854	-87,476	0,039	-0,009
-357,839	93,356	-0,021	-0,017
-356,825	800,000	0,086	0,201
-355,810	644,307	0,089	0,165
-354,796	-89,588	-0,128	0,027
-353,781	322,223	0,067	-0,092
-352,766	-71,367	-0,061	0,017
-351,752	-200,000	-0,010	-0,052
-350,737	-124,792	0,095	-0,011
-349,723	-143,428	0,112	-0,008
-348,708	38,816	-0,105	0,068
-347,693	800,000	-0,022	-0,047
-346,679	12,375	0,143	-0,080
-345,664	-114,584	0,044	0,006
-344,650	-22,840	0,121	-0,053
-343,635	-95,929	0,200	-0,038
-342,620	110,370	0,114	-0,100
-341,606	765,049	0,041	-0,081
-340,591	800,000	0,036	0,082
-339,577	-88,878	-0,048	-0,010
-338,562	665,650	-0,026	-0,049
-337,548	61,074	-0,113	-0,081
-336,533	583,967	-0,062	0,112
-335,518	-200,000	-0,015	0,060
-334,504	185,844	-0,042	0,046
-333,489	135,093	0,056	-0,053
-332,475	-129,980	0,071	0,007
-331,460	-31,789	-0,051	0,021
-330,445	629,245	-0,057	-0,106
-329,431	383,184	0,033	0,049
-328,416	167,568	-0,035	0,037
-327,402	-29,689	0,131	0,054
-326,387	-40,182	-0,085	0,032
-325,372	147,748	-0,046	-0,045
-324,358	39,420	-0,072	-0,046
-323,343	114,457	0,102	0,091
-322,329	-200,000	-0,003	0,057
-321,314	16,696	-0,060	-0,034
-320,299	-15,443	0,085	-0,039
-319,285	-4,609	-0,120	0,060
-318,270	-200,000	0,008	-0,088
-317,256	-1,951	-0,086	0,044
-316,241	800,000	0,008	-0,018
-315,226	150,741	-0,054	0,053
-314,212	210,487	-0,053	0,060
-313,197	-200,000	-0,006	0,039
-312,183	-200,000	-0,025	0,130
-311,168	-52,992	-0,080	-0,027
-310,153	102,718	-0,102	0,087
-309,139	172,917	-0,020	0,021
-308,124	800,000	-0,039	0,096
-307,110	26,176	-0,119	0,072
-306,095	-200,000	0,005	-0,054
-305,080	281,482	0,028	0,036
-304,066	-90,736	0,121	0,025
-303,051	-200,000	-0,023	-0,099
-302,037	-200,000	-0,012	-0,077
-301,022	-23,318	0,088	0,038
-300,008	-200,000	0,009	0,150
-298,993	255,150	0,059	0,074
-297,978	648,973	0,103	0,193
-296,964	800,000	0,008	-0,019
-295,949	483,743	-0,041	0,067
-294,935	369,978	0,056	0,083
-293,920	74,409	0,059	0,045
-292,905	800,000	0,052	-0,106
-291,891	28,937	0,083	0,051
-290,876	159,606	0,040	-0,040
-289,862	-200,000	0,096	0,000
-288,847	490,132	0,019	-0,032
-287,832	75,084	-0,031	0,024
-286,818	-200,000	-0,020	0,095
-285,803	129,395	0,089	-0,082
-284,789	240,520	0,126	-0,152
-283,774	522,820	-0,011	-0,020
-282,759	-200,000	-0,023	0,073
-281,745	-200,000	-0,008	-0,038
-280,730	-77,367	-0,150	-0,037
-279,716	41,436	-0,024	-0,016
-278,701	-184,796	0,046	-0,001
-277,686	-200,000	0,003	0,046
-276,672	0,369	0,091	-0,047
-275,657	-200,000	-0,036	-0,165
-274,643	-118,096	-0,092	-0,012
-273,628	800,000	-0,039	-0,086
-272,613	-200,000	-0,000	-0,070
-271,599	-200,000	-0,031	0,148
-270,584	195,195	0,108	-0,119
-269,570	278,834	0,080	-0,104
-268,555	-40,536	-0,095	-0,036
-267,540	352,201	-0,053	-0,076
-266,526	-200,000	0,003	-0,015
-265,511	-200,000	0,040	-0,155
-264,497	-200,000	0,005	-0,081
-263,482	-40,002	0,111	0,042
-262,467	-200,000	-0,031	0,205
-261,453	157,986	0,082	-0,082
-260,438	49,221	-0,097	-0,066
-259,424	-200,000	0,012	-0,097
-258,409	-200,000	0,010	-0,049
-257,395	-143,382	-0,130	0,009
-256,380	-200,000	-0,010	-0,070
-255,365	11,617	0,039	0,022
-254,351	-181,343	-0,079	0,001
-253,336	800,000	0,046	-0,106
-252,322	-200,000	0,001	-0,033
-251,307	800,000	-0,017	-0,044
-250,292	223,546	0,075	-0,088
-249,278	-200,000	0,006	-0,022
-248,263	800,000	-0,020	0,055
-247,249	-200,000	-0,003	-0,029
-246,234	800,000	-0,035	0,077
-245,219	-133,726	-0,115	0,010
-244,205	-11,921	-0,117	-0,055
-243,190	-82,670	0,135	0,031
-242,176	206,567	0,067	0,076
-241,161	-120,978	0,066	0,008
-240,146	-27,891	-0,064	-0,027
-239,132	107,332	0,105	0,091
-238,117	-72,613	0,089	0,024
-237,103	800,000	-0,027	-0,056
-236,088	-85,754	0,131	0,029
-235,073	-80,238	0,044	0,011
-234,059	-75,312	0,025	0,006
-233,044	800,000	-0,033	0,083
-232,030	800,000	0,034	-0,076
-231,015	172,671	-0,106	-0,111
-230,000	-83,654	-0,102	0,023
-228,986	800,000	0,064	0,132
-227,971	26,832	0,068	0,041
-226,957	7,102	-0,075	-0,040
-225,942	800,000	0,043	-0,091
-224,927	2,444	-0,065	-0,034
-223,913	800,000	0,004	0,014
-222,898	-69,007	-0,029	0,008
-221,884	800,000	-0,061	-0,138
-220,869	75,249	0,092	0,070
-219,855	192,098	-0,108	0,118
-218,840	-32,227	0,094	0,038
-217,825	61,425	0,033	0,024
-216,811	-200,000	-0,046	0,179
-215,796	-200,000	-0,008	0,088
-214,782	520,067	-0,070	-0,120
-213,767	545,838	0,081	-0,140
-212,752	-141,491	0,066	-0,005
-211,738	267,991	0,028	-0,036
-210,723	-33,351	-0,005	-0,002
-209,709	-20,434	-0,171	0,076
-208,694	211,178	0,051	-0,058
-207,679	-200,000	0,044	-0,149
-206,665	-200,000	-0,003	0,130
-205,650	800,000	0,031	0,080
-204,636	253,952	-0,074	0,091
-203,621	-79,513	0,041	-0,010
-202,606	-139,657	-0,134	-0,010
-201,592	800,000	-0,021	0,049
-200,577	41,350	0,154	0,100
-199,563	800,000	-0,043	-0,112
-198,548	800,000	0,017	0,050
-197,533	629,423	0,030	0,055
-196,519	800,000	0,050	-0,114
-195,504	-200,000	-0,020	-0,213
-194,490	-200,000	-0,015	-0,172
-193,475	-10,915	0,184	0,088
-192,460	-200,000	-0,004	0,037
-191,446	-200,000	0,009	0,076
-190,431	587,870	0,044	0,078
-189,417	-78,488	0,215	-0,053
-188,402	-200,000	0,000	0,024
-187,387	-14,650	-0,099	0,046
-186,373	58,530	0,072	-0,051
-185,358	-200,000	-0,014	-0,155
-184,344	430,245	-0,100	-0,157
-183,329	23,628	-0,155	-0,092
-182,315	-198,634	0,107	-0,000
-181,300	461,176	0,045	0,072
-180,285	149,612	-0,073	-0,071
-179,271	-12,105	-0,139	-0,066
-178,256	-200,000	-0,003	-0,022
-177,242	800,000	0,031	0,066
-176,227	35,915	0,019	-0,012
-175,212	-35,308	-0,050	-0,020
-174,198	800,000	-0,049	0,098
-173,183	-200,000	-0,033	0,127
-172,169	-200,000	0,000	-0,067
-171,154	27,772	-0,052	-0,032
-170,139	-200,000	0,004	-0,057
-169,125	-16,677	0,144	0,066
-168,110	-155,131	-0,098	0,005
-167,096	800,000	0,063	-0,195
-166,081	-200,000	-0,005	-0,082
-165,066	337,412	-0,032	0,045
-164,052	21,878	-0,019	-0,011
-163,037	57,136	0,174	0,122
-162,023	178,399	0,076	-0,080
-161,008	-200,000	-0,022	-0,080
-159,993	80,933	0,054	0,042
-158,979	15,010	-0,031	-0,018
-157,964	-72,390	-0,096	-0,025
-156,950	-77,837	-0,076	0,019
-155,935	47,416	-0,109	-0,073
-154,920	652,442	-0,037	0,069
-153,906	-117,233	0,043	0,006
-152,891	-135,320	-0,085	-0,007
-151,877	39,720	0,091	-0,059
-150,862	-32,012	-0,112	0,045
-149,847	188,040	0,067	-0,072
-148,833	-200,000	0,011	-0,075
-147,818	245,336	-0,017	-0,020
-146,804	800,000	0,019	-0,057
-145,789	390,772	-0,055	-0,083
-144,775	-40,075	0,078	-0,029
-143,760	800,000	0,024	-0,051
-142,745	-200,000	0,013	-0,056
-141,731	548,390	-0,045	-0,078
-140,716	-200,000	0,008	-0,066
-139,702	-76,679	-0,151	-0,038
-138,687	216,144	0,019	0,022
-137,672	77,656	0,014	-0,011
-136,658	69,982	-0,101	-0,075
-135,643	-95,791	0,035	0,007
-134,629	25,010	0,038	0,022
-133,614	125,140	-0,038	0,035
-132,599	-200,000	-0,000	0,012
-131,585	4,082	0,114	0,060
-130,570	-34,558	-0,034	-0,013
-129,556	207,783	0,036	-0,041
-128,541	391,359	0,013	-0,020
-127,526	93,491	-0,077	-0,063
-126,512	198,496	0,047	-0,051
-125,497	527,301	-0,015	0,025
-124,483	619,377	0,017	0,030
-123,468	-200,000	0,015	0,105
-122,453	16,902	-0,126	-0,072
-121,439	180,410	0,053	0,056
-120,424	-148,807	-0,129	-0,007
-119,410	267,528	-0,053	0,067
-118,395	-200,000	0,020	-0,106
-117,380	800,000	0,035	0,076
-116,366	555,374	-0,031	0,053
-115,351	-118,870	0,132	0,017
-114,337	-200,000	-0,007	0,048
-113,322	-73,802	-0,146	-0,038
-112,307	29,176	0,124	-0,075
-111,293	338,583	-0,026	-0,036
-110,278	269,136	-0,036	-0,045
-109,264	105,935	-0,142	0,121
-108,249	-200,000	-0,004	0,160
-107,234	-200,000	0,008	-0,092
-106,220	-65,866	-0,076	-0,022
-105,205	-98,541	-0,069	0,013
-104,191	-163,374	0,119	0,004
-103,176	-200,000	-0,015	0,061
-102,162	800,000	-0,025	0,055
-101,147	-115,501	-0,222	0,030
-100,132	-200,000	0,002	-0,174
-99,118	-70,693	0,182	-0,049
-98,103	81,875	0,011	0,008
-97,089	-31,092	0,052	0,021
-96,074	-200,000	-0,004	-0,059
-95,059	134,779	0,014	0,013
-94,045	-96,008	-0,056	-0,011
-93,030	-71,053	-0,205	-0,055
-92,016	-3,194	-0,060	-0,030
-91,001	104,857	0,020	-0,017
-89,986	-107,907	-0,025	0,004
-88,972	-71,258	-0,094	0,025
-87,957	332,306	-0,022	-0,031
-86,943	396,007	-0,073	0,110
-85,928	-96,527	0,045	0,009
-84,913	-37,830	-0,096	-0,037
-83,899	646,922	-0,031	-0,057
-82,884	174,010	-0,078	0,081
-81,870	-200,000	-0,035	-0,155
-80,855	117,488	-0,080	0,071
-79,840	-39,667	-0,067	0,025
-78,826	800,000	0,022	-0,044
-77,811	800,000	0,048	-0,110
-76,797	64,088	-0,127	-0,091
-75,782	-94,291	0,075	-0,015
-74,767	-200,000	0,020	-0,069
-73,753	174,044	-0,115	-0,120
-72,738	-8,029	0,072	-0,035
-71,724	85,534	-0,081	-0,064
-70,709	-16,980	-0,120	-0,054
-69,694	-200,000	0,009	-0,055
-68,680	229,720	-0,044	-0,052
-67,665	39,328	-0,041	0,026
-66,651	-200,000	0,035	0,113
-65,636	-200,000	-0,004	-0,061
-64,622	-82,597	-0,168	0,039
-63,607	61,478	0,132	-0,094
-62,592	800,000	0,020	-0,054
-61,578	42,264	-0,020	-0,013
-60,563	415,251	-0,040	0,062
-59,549	-200,000	-0,016	0,147
-58,534	64,990	-2,559	-1,854
-57,519	63,153	0,400	-0,288
-56,505	-200,000	-1,607	-5,482
-55,490	444,857	1,152	1,822
-54,476	800,000	5,172	11,334
-53,461	-200,000	21,904	343,910
-52,446	800,000	761,034	2311,341
-51,432	519,374	1652,506	2790,978
-50,417	103,672	1617,026	1363,129
-49,403	73,279	1272,841	955,216
-48,388	25,359	1021,522	608,271
-47,373	19,164	988,068	567,843
-46,359	13,441	975,315	541,699
-45,344	9,283	972,235	526,297
-44,330	9,854	969,905	526,889
-43,315	8,764	968,331	522,439
-42,300	8,740	966,798	521,512
-41,286	8,749	965,828	520,997
-40,271	8,747	964,803	520,420
-39,257	8,749	963,933	519,934
-38,242	8,708	963,310	519,443
-37,227	8,672	962,456	518,845
-36,213	8,620	961,706	518,253
-35,198	8,642	960,773	517,799
-34,184	8,738	959,842	517,591
-33,169	8,681	958,930	516,892
-32,154	8,748	958,086	516,632
-31,140	8,727	957,443	516,198
-30,125	8,740	956,345	515,628
-29,111	8,686	955,643	515,055
-28,096	8,750	954,956	514,869
-27,082	8,756	954,344	514,540
-26,067	8,686	953,508	513,841
-25,052	8,661	952,729	513,321
-24,038	8,703	951,873	512,976
-23,023	8,616	951,539	512,495
-22,009	8,717	950,862	512,436
-20,994	8,707	950,226	512,041
-19,979	8,725	949,777	511,837
-18,965	8,697	949,046	511,332
-17,950	8,720	948,530	511,108
-16,936	8,682	947,697	510,514
-15,921	8,657	947,103	510,097
-14,906	8,615	946,235	509,472
-13,892	8,606	945,651	509,111
-12,877	8,561	945,013	508,602
-11,863	8,527	944,611	508,258
-10,848	8,607	943,696	508,001
-9,833	8,678	943,273	507,979
-8,819	8,678	942,613	507,602
-7,804	8,630	941,920	507,058
-6,790	8,556	941,585	506,619
-5,775	8,632	940,885	506,464
-4,760	8,591	940,285	505,991
-3,746	8,581	939,701	505,626
-2,731	8,508	938,849	504,916
-1,717	8,467	938,232	504,432
-0,702	8,463	937,546	504,033
0,313	8,270	937,093	503,936
1,327	11,663	934,781	513,382
2,342	20,337	783,413	453,087
3,356	15,614	450,031	253,112
4,371	-10,711	313,052	148,025
5,386	-14,338	295,647	136,107
6,400	-16,452	289,504	131,167
7,415	-16,690	286,830	129,709
8,429	-17,367	285,213	128,304
9,444	-17,497	283,989	127,615
10,459	-17,370	283,478	127,498
11,473	-17,240	282,810	127,312
12,488	-17,259	282,516	127,150
13,502	-17,295	281,797	126,781
14,517	-17,184	281,499	126,742
15,531	-17,281	281,076	126,447
16,546	-17,147	280,610	126,355
17,561	-17,215	280,312	126,144
18,575	-17,215	280,007	125,995
19,590	-17,225	279,599	125,791
20,604	-16,998	279,288	125,858
21,619	-17,159	278,917	125,525
22,634	-17,298	278,701	125,283
23,648	-17,191	278,230	125,164
24,663	-17,160	277,946	125,053
25,677	-17,227	277,777	124,903
26,692	-17,088	277,306	124,812
27,707	-17,163	277,204	124,684
28,721	-17,129	276,874	124,556
29,736	-17,260	276,579	124,288
30,750	-17,226	276,367	124,214
31,765	-17,131	276,176	124,207
32,780	-17,088	275,901	124,113
33,794	-17,034	275,557	123,998
34,809	-16,979	275,366	123,953
35,823	-17,133	275,100	123,676
36,838	-17,188	274,856	123,505
37,853	-17,233	274,630	123,350
38,867	-17,092	274,421	123,377
39,882	-17,185	274,250	123,202
40,896	-17,165	273,950	123,075
41,911	-17,101	273,668	122,997
42,926	-17,167	273,561	122,877
43,940	-17,171	273,227	122,712
44,955	-17,305	272,964	122,458
45,969	-17,106	272,684	122,507
46,984	-17,075	272,554	122,467
47,999	-17,041	272,273	122,360
49,013	-17,093	272,294	122,311
50,028	-17,111	271,985	122,145
51,042	-17,103	271,644	121,988
52,057	-17,201	271,426	121,789
53,071	-17,118	271,135	121,724
54,086	-17,075	270,998	121,691
55,101	-17,104	270,769	121,551
56,115	-17,084	270,515	121,444
57,130	-16,967	270,266	121,429
58,144	-17,110	269,986	121,161
59,159	-17,249	269,660	120,876
60,174	-17,145	269,352	120,823
61,188	-16,875	269,221	121,002
62,203	-17,041	269,001	120,740
63,217	-17,019	268,991	120,745
64,232	-17,048	268,588	120,526
65,247	-17,099	268,485	120,423
66,261	-17,013	268,079	120,308
67,276	-17,044	267,928	120,201
68,290	-17,057	267,713	120,082
69,305	-16,992	267,493	120,032
70,320	-17,005	267,113	119,839
71,334	-17,229	267,177	119,653
72,349	-17,115	266,740	119,550
73,363	-17,299	266,595	119,307
74,378	-17,179	266,198	119,228
75,393	-17,260	266,129	119,113
76,407	-17,106	265,958	119,166
77,422	-16,927	265,595	119,155
78,436	-17,046	265,339	118,921
79,451	-17,031	265,216	118,869
80,466	-17,199	264,921	118,574
81,480	-17,042	264,706	118,609
82,495	-17,055	264,514	118,501
83,509	-16,999	264,445	118,510
84,524	-16,965	264,087	118,370
85,539	-16,860	263,967	118,400
86,553	-17,076	263,708	118,079
87,568	-17,150	263,519	117,917
88,582	-17,031	263,218	117,879
89,597	-16,937	263,033	117,869
90,611	-17,230	262,948	117,559
91,626	-16,963	262,618	117,639
92,641	-17,067	262,550	117,505
93,655	-17,071	262,186	117,329
94,670	-17,103	262,175	117,285
95,684	-17,108	261,949	117,168
96,699	-17,119	261,645	117,012
97,714	-16,985	261,452	117,035
98,728	-16,793	261,329	117,140
99,743	-16,826	261,065	116,982
100,757	-16,771	260,736	116,874
101,772	-16,961	260,587	116,627
102,787	-16,842	260,363	116,622
103,801	-16,950	260,200	116,443
104,816	-16,949	259,920	116,309
105,830	-16,876	259,742	116,283
106,845	-17,248	259,588	115,875
107,860	-17,283	259,429	115,763
108,874	-17,093	259,101	115,773
109,889	-16,761	258,887	115,960
110,903	-17,174	258,619	115,467
111,918	-17,012	258,589	115,585
112,933	-17,140	258,479	115,413
113,947	-16,959	258,180	115,428
114,962	-17,039	257,838	115,195
115,976	-16,984	257,653	115,150
116,991	-16,992	257,536	115,080
118,006	-17,009	257,423	115,005
119,020	-17,015	257,195	114,888
120,035	-17,067	257,175	114,823
121,049	-16,962	256,843	114,756
122,064	-17,003	256,759	114,673
123,079	-17,060	256,390	114,448
124,093	-17,029	256,125	114,346
125,108	-16,948	256,001	114,351
126,122	-16,967	256,107	114,372
127,137	-17,045	255,755	114,137
128,151	-17,018	255,623	114,091
129,166	-16,884	255,167	113,993
130,181	-17,005	255,138	113,865
131,195	-16,923	254,813	113,781
132,210	-16,947	254,723	113,710
133,224	-17,130	254,520	113,451
134,239	-16,937	254,392	113,551
135,254	-17,004	254,102	113,353
136,268	-16,838	253,793	113,348
137,283	-17,033	253,709	113,133
138,297	-16,930	253,460	113,100
139,312	-17,002	253,215	112,919
140,327	-17,178	253,082	112,699
141,341	-17,126	252,981	112,688
142,356	-16,959	252,640	112,669
143,370	-17,078	252,497	112,494
144,385	-16,882	252,171	112,506
145,400	-17,005	252,031	112,329
146,414	-17,020	251,874	112,235
147,429	-16,797	251,587	112,288
148,443	-16,841	251,536	112,218
149,458	-16,929	251,441	112,090
150,473	-17,038	251,302	111,926
151,487	-17,036	251,035	111,798
152,502	-17,048	250,789	111,669
153,516	-16,896	250,552	111,682
154,531	-16,726	250,365	111,733
155,546	-16,785	250,191	111,595
156,560	-17,138	250,158	111,271
157,575	-16,976	249,806	111,242
158,589	-17,079	249,573	111,041
159,604	-17,111	249,556	110,997
160,619	-16,992	249,180	110,920
161,633	-16,849	249,172	111,027
162,648	-16,963	248,982	110,837
163,662	-17,126	248,912	110,658
164,677	-16,789	248,687	110,832
165,692	-16,713	248,513	110,808
166,706	-16,853	248,274	110,574
167,721	-17,190	248,090	110,200
168,735	-16,769	247,849	110,435
169,750	-16,926	247,853	110,296
170,764	-16,947	247,756	110,226
171,779	-16,824	247,381	110,152
172,794	-16,898	247,309	110,049
173,808	-17,008	247,142	109,872
174,823	-16,909	246,913	109,843
175,837	-16,830	246,754	109,828
176,852	-16,967	246,557	109,617
177,867	-16,734	246,331	109,701
178,881	-16,753	246,211	109,621
179,896	-16,991	246,215	109,416
180,910	-17,002	245,886	109,250
181,925	-17,004	245,758	109,182
182,940	-16,940	245,477	109,101
183,954	-17,121	245,347	108,883
184,969	-17,003	245,177	108,896
185,983	-16,925	245,151	108,939
186,998	-16,940	244,971	108,837
188,013	-17,058	244,713	108,615
189,027	-16,993	244,564	108,593
190,042	-16,914	244,272	108,519
191,056	-17,033	244,276	108,412
192,071	-17,166	243,980	108,162
193,086	-16,897	243,855	108,319
194,100	-17,025	243,531	108,060
195,115	-16,989	243,336	107,993
196,129	-16,910	243,141	107,962
197,144	-16,767	243,069	108,037
198,159	-16,857	242,782	107,826
199,173	-16,987	242,716	107,681
200,188	-17,047	242,643	107,590
201,202	-16,805	242,307	107,629
202,217	-16,885	242,225	107,518
203,232	-16,920	242,020	107,388
204,246	-16,982	241,805	107,233
205,261	-17,028	241,483	107,043
206,275	-15,585	242,232	108,544
207,290	-10,267	243,904	113,654
208,304	-4,215	245,754	119,505
209,319	-1,990	246,365	121,630
210,334	-0,929	246,569	122,597
211,348	0,312	246,779	123,715
212,363	1,153	246,806	124,412
213,377	1,133	246,873	124,418
214,392	1,531	246,923	124,760
215,407	1,842	246,592	124,839
216,421	1,799	246,621	124,807
217,436	1,946	246,459	124,835
218,450	1,582	246,337	124,462
219,465	1,833	246,141	124,558
220,480	1,894	245,933	124,492
221,494	1,655	245,797	124,217
222,509	1,387	245,415	123,792
223,523	0,900	245,218	123,283
224,538	0,992	244,894	123,184
225,553	1,007	244,672	123,074
226,567	0,838	244,535	122,855
227,582	0,800	244,588	122,840
228,596	0,984	244,192	122,781
229,611	1,014	244,178	122,787
230,626	0,919	243,957	122,588
231,640	0,978	243,785	122,538
232,655	0,881	243,581	122,346
233,669	0,751	243,417	122,147
234,684	0,789	243,271	122,094
235,699	0,817	243,204	122,072
236,713	0,864	243,006	122,000
237,728	0,841	242,997	121,966
238,742	0,925	242,806	121,927
239,757	0,912	242,541	121,772
240,772	1,064	242,365	121,797
241,786	0,669	242,296	121,432
242,801	0,815	242,058	121,419
243,815	0,984	241,924	121,478
244,830	0,784	241,851	121,268
245,844	0,783	241,619	121,141
246,859	0,748	241,354	120,969
247,874	0,593	241,225	120,768
248,888	0,820	241,134	120,895
249,903	1,010	240,941	120,941
250,917	1,197	240,878	121,048
251,932	1,008	240,748	120,820
252,947	0,927	240,693	120,717
253,961	1,011	240,286	120,569
254,976	1,178	240,057	120,577
255,990	0,950	239,974	120,342
257,005	0,818	239,946	120,211
258,020	1,013	239,721	120,245
259,034	1,133	239,653	120,295
260,049	0,947	239,460	120,039
261,063	0,923	239,265	119,912
262,078	0,891	239,169	119,828
263,093	0,941	238,913	119,728
264,107	0,853	238,824	119,603
265,122	0,831	238,607	119,466
266,136	0,970	238,489	119,507
267,151	1,074	238,235	119,451
268,166	0,844	238,241	119,261
269,180	0,827	238,021	119,127
270,195	0,857	237,813	119,036
271,209	0,882	237,597	118,937
272,224	0,890	237,533	118,901
273,239	0,811	237,382	118,752
274,253	1,006	237,238	118,823
275,268	0,814	237,017	118,551
276,282	0,905	236,872	118,539
277,297	0,792	236,828	118,418
278,312	0,984	236,603	118,446
279,326	0,954	236,504	118,362
280,341	0,923	236,212	118,181
281,355	0,937	236,356	118,254
282,370	1,123	235,905	118,163
283,384	0,956	235,940	118,039
284,399	0,905	235,856	117,947
285,414	0,895	235,581	117,790
286,428	0,981	235,421	117,768
287,443	0,960	235,180	117,620
288,457	0,786	235,073	117,421
289,472	0,984	234,947	117,501
290,487	1,175	234,667	117,500
291,501	0,907	234,698	117,295
292,516	1,009	234,497	117,265
293,530	1,120	234,306	117,244
294,545	0,895	234,354	117,083
295,560	0,994	234,020	116,983
296,574	0,938	233,995	116,917
297,589	0,821	233,803	116,720
298,603	0,959	233,643	116,735
299,618	1,133	233,613	116,846
300,633	0,944	233,367	116,566
301,647	1,282	233,232	116,749
302,662	1,180	233,110	116,599
303,676	1,125	232,975	116,478
304,691	1,404	232,684	116,538
305,706	1,201	232,503	116,280
306,720	1,123	232,454	116,185
307,735	1,307	232,244	116,212
308,749	1,256	232,241	116,161
309,764	0,995	232,031	115,844
310,779	1,194	231,851	115,897
311,793	1,096	231,806	115,789
312,808	1,029	231,566	115,608
313,822	1,356	231,398	115,764
314,837	1,312	231,251	115,647
315,852	1,176	231,069	115,441
316,866	1,136	231,082	115,407
317,881	1,439	230,764	115,470
318,895	1,341	230,646	115,325
319,910	1,332	230,472	115,221
320,925	1,171	230,324	115,014
321,939	1,106	230,316	114,950
322,954	1,259	230,151	114,974
323,968	1,015	230,025	114,715
324,983	1,195	229,832	114,746
325,997	1,240	229,673	114,690
327,012	1,223	229,576	114,618
328,027	1,169	229,446	114,502
329,041	1,057	229,288	114,328
330,056	1,270	229,086	114,378
331,070	1,179	228,895	114,204
332,085	1,300	228,765	114,220
333,100	1,160	228,542	113,993
334,114	1,122	228,497	113,932
335,129	1,209	228,252	113,865
336,143	1,221	228,090	113,784
337,158	1,359	228,030	113,847
338,173	1,263	227,767	113,634
339,187	1,316	227,732	113,646
340,202	1,322	227,765	113,657
341,216	1,157	227,413	113,347
342,231	1,032	227,383	113,228
343,246	1,209	227,163	113,241
344,260	1,116	227,056	113,108
345,275	1,237	226,842	113,082
346,289	1,208	226,873	113,065
347,304	1,352	226,681	113,068
348,319	1,179	226,499	112,838
349,333	1,156	226,358	112,740
350,348	1,169	226,167	112,645
351,362	1,391	225,975	112,705
352,377	1,226	225,885	112,527
353,392	1,423	225,766	112,604
354,406	1,531	225,478	112,531
355,421	191,602	1313,336	1378,135
356,435	153,446	1445,748	1377,993
