DTS Sentinel unit serial number:	SN410029Multiplexer serial number:	ORYXHardware model number:	OX2-SRSoftware version number:	ORYX F/W v4,00 Oryx Data Collector v3.7.2.0data status	okinstallation	B5 Nyhavnadifferential loss correction	single-endedforward channel	channel 2reverse channel	N/Adate	2023/12/13time	14:57:13forward acquisition time	300,00reverse acquisition time	0,00gamma	499,1914k internal	0,3160k external	0,3160temperature offset calibration	1,0000default loss term (dB/km)	0,3820temperature slope calibration	1,0000multiplexer offset coefficient	1,0000multiplexer slope coefficient	1,0000fibre end	0,00T internal ref (°C)	15,00T ext. ref 1 (°C)	-1,27T ext. ref 2 (°C)	-1,55length (m)	temperature (°C)	Stokes	anti-Stokes-744,400	-200,000	0,013	0,164
-743,385	-64,429	-0,244	0,072
-742,371	49,985	0,074	-0,051
-741,356	-83,894	-0,274	0,064
-740,342	-200,000	0,027	0,092
-739,327	-76,803	-0,268	-0,069
-738,312	800,000	-0,012	0,026
-737,298	-107,408	-0,286	0,046
-736,283	17,105	0,094	0,055
-735,269	217,185	-0,126	0,148
-734,254	-77,047	0,141	-0,036
-733,239	-77,682	-0,551	-0,139
-732,225	-96,287	0,278	0,054
-731,210	-200,000	0,018	0,117
-730,196	-135,086	0,142	-0,012
-729,181	800,000	-0,030	0,063
-728,167	-200,000	-0,031	-0,161
-727,152	18,613	0,043	0,025
-726,137	24,983	-0,081	0,049
-725,123	-174,853	-0,013	0,000
-724,108	-60,520	-0,166	-0,051
-723,094	800,000	-0,084	-0,215
-722,079	-200,000	0,033	-0,181
-721,064	638,937	0,042	-0,079
-720,050	667,553	0,029	-0,055
-719,035	-31,657	-0,135	0,055
-718,021	-200,000	-0,018	-0,073
-717,006	133,929	-0,143	-0,136
-715,991	-135,874	-0,099	-0,008
-714,977	-200,000	-0,007	-0,121
-713,962	800,000	0,004	-0,012
-712,948	33,823	0,128	0,082
-711,933	-55,116	-0,011	-0,004
-710,918	800,000	-0,023	-0,049
-709,904	40,640	-0,104	0,069
-708,889	800,000	0,040	-0,089
-707,875	800,000	0,017	0,045
-706,860	-200,000	-0,046	0,154
-705,845	93,913	0,033	0,027
-704,831	-200,000	0,007	0,148
-703,816	-200,000	0,020	0,137
-702,802	-25,760	-0,095	0,041
-701,787	-27,654	0,052	0,022
-700,772	-116,516	0,162	-0,022
-699,758	416,270	0,045	-0,070
-698,743	-94,420	0,073	0,015
-697,729	233,657	-0,013	0,015
-696,714	340,414	-0,068	0,097
-695,699	145,894	0,039	-0,039
-694,685	800,000	-0,054	-0,121
-693,670	-200,000	-0,004	-0,078
-692,656	-200,000	0,000	-0,076
-691,641	16,385	0,063	-0,036
-690,627	-157,922	0,095	-0,004
-689,612	-200,000	-0,021	-0,071
-688,597	40,826	-0,104	-0,069
-687,583	-125,323	-0,077	0,009
-686,568	380,214	0,029	-0,043
-685,554	800,000	-0,031	-0,092
-684,539	145,689	0,037	-0,037
-683,524	-200,000	0,002	-0,011
-682,510	327,458	-0,076	0,107
-681,495	-200,000	0,018	0,093
-680,481	78,128	-0,069	-0,054
-679,466	-90,712	0,096	0,020
-678,451	-0,109	-0,083	-0,043
-677,437	664,690	-0,052	0,099
-676,422	299,906	0,073	0,099
-675,408	-200,000	0,012	0,055
-674,393	50,478	0,067	0,047
-673,378	800,000	0,020	0,045
-672,364	36,408	0,096	-0,062
-671,349	494,223	-0,033	-0,055
-670,335	800,000	0,028	-0,070
-669,320	-176,599	-0,033	-0,001
-668,305	389,012	0,045	0,068
-667,291	-61,754	-0,019	-0,006
-666,276	26,218	-0,096	-0,059
-665,262	-200,000	0,011	-0,121
-664,247	800,000	-0,016	0,051
-663,232	443,496	-0,011	0,017
-662,218	49,718	-0,047	0,032
-661,203	-157,222	-0,034	-0,001
-660,189	-200,000	0,001	0,024
-659,174	-132,411	-0,096	-0,009
-658,159	800,000	-0,054	-0,140
-657,145	-200,000	-0,005	0,025
-656,130	31,671	0,084	-0,053
-655,116	800,000	0,029	0,070
-654,101	-85,224	0,012	-0,003
-653,086	-79,122	-0,094	0,023
-652,072	147,851	0,037	0,037
-651,057	138,427	-0,049	-0,048
-650,043	-98,232	-0,064	0,012
-649,028	440,211	-0,028	0,046
-648,014	-31,551	-0,064	0,026
-646,999	15,429	0,076	0,044
-645,984	-135,263	-0,152	0,013
-644,970	332,721	0,038	-0,054
-643,955	-200,000	-0,015	-0,082
-642,941	-95,337	0,152	-0,030
-641,926	604,364	-0,049	-0,090
-640,911	-13,249	0,088	-0,042
-639,897	320,300	-0,051	0,072
-638,882	53,510	0,026	0,018
-637,868	-104,192	-0,067	0,011
-636,853	-1,443	-0,069	0,036
-635,838	2,099	-0,117	-0,062
-634,824	-71,600	0,067	-0,018
-633,809	240,993	0,020	-0,024
-632,795	800,000	-0,043	0,116
-631,780	-13,220	0,049	0,023
-630,765	-200,000	0,010	-0,043
-629,751	-57,134	-0,063	-0,020
-628,736	800,000	0,026	-0,067
-627,722	-200,000	0,015	-0,063
-626,707	-66,122	0,064	0,019
-625,692	26,385	0,086	-0,053
-624,678	114,808	-0,065	-0,058
-623,663	-79,357	0,038	-0,009
-622,649	-200,000	-0,001	-0,052
-621,634	104,598	-0,065	0,056
-620,619	103,762	-0,044	-0,038
-619,605	-97,982	-0,069	0,013
-618,590	360,590	0,024	0,036
-617,576	85,289	0,118	0,095
-616,561	47,612	0,028	0,019
-615,546	-200,000	0,002	0,015
-614,532	-174,086	-0,153	-0,003
-613,517	800,000	-0,067	-0,215
-612,503	-16,226	0,048	-0,022
-611,488	-132,025	0,122	0,011
-610,474	-83,936	-0,133	0,031
-609,459	-186,234	0,150	0,002
-608,444	-95,534	-0,134	0,026
-607,430	-16,382	-0,049	0,023
-606,415	-200,000	-0,001	-0,021
-605,401	-121,861	0,068	-0,008
-604,386	-52,256	-0,040	-0,013
-603,371	25,894	0,021	-0,013
-602,357	-200,000	-0,022	0,072
-601,342	211,425	-0,055	0,064
-600,328	306,621	-0,099	-0,136
-599,313	800,000	0,054	-0,128
-598,298	-200,000	0,007	0,052
-597,284	522,536	-0,026	-0,046
-596,269	57,425	-0,054	0,038
-595,255	368,817	0,048	0,071
-594,240	684,545	-0,042	0,082
-593,225	49,948	0,065	-0,045
-592,211	174,593	-0,027	0,028
-591,196	-200,000	-0,022	-0,085
-590,182	37,897	0,032	-0,021
-589,167	-175,112	0,161	-0,003
-588,152	-62,135	-0,037	-0,011
-587,138	-82,713	-0,112	0,026
-586,123	344,392	0,039	-0,057
-585,109	93,628	-0,055	-0,045
-584,094	421,627	0,035	0,056
-583,079	-94,396	-0,049	0,010
-582,065	29,457	0,080	0,050
-581,050	-87,354	-0,110	0,024
-580,036	-122,705	-0,052	-0,006
-579,021	-200,000	-0,001	0,011
-578,006	59,469	-0,151	-0,109
-576,992	-43,735	-0,068	0,025
-575,977	180,074	-0,063	0,067
-574,963	296,623	0,101	0,137
-573,948	-6,406	-0,079	-0,039
-572,934	174,816	0,048	-0,051
-571,919	800,000	-0,040	-0,081
-570,904	-116,456	-0,148	-0,020
-569,890	-200,000	0,022	0,071
-568,875	120,121	-0,031	-0,028
-567,861	232,564	0,032	-0,038
-566,846	56,791	0,082	0,059
-565,831	-160,967	0,036	-0,001
-564,817	-43,758	-0,138	-0,051
-563,802	342,924	-0,108	-0,156
-562,788	209,660	-0,125	-0,144
-561,773	17,949	0,080	-0,047
-560,758	-152,791	0,085	0,004
-559,744	28,977	0,056	-0,035
-558,729	-200,000	-0,028	0,093
-557,715	320,854	0,050	-0,070
-556,700	59,983	-0,053	0,038
-555,685	-31,904	-0,047	-0,019
-554,671	800,000	0,018	0,056
-553,656	-200,000	-0,002	0,096
-552,642	-200,000	0,005	0,286
-551,627	-130,716	-0,092	-0,009
-550,612	800,000	-0,023	0,052
-549,598	-38,405	-0,131	-0,050
-548,583	149,452	-0,146	-0,145
-547,569	-21,990	-0,089	0,039
-546,554	-200,000	0,022	0,119
-545,539	362,273	0,054	-0,079
-544,525	-98,829	-0,039	0,007
-543,510	800,000	-0,045	-0,108
-542,496	-154,745	-0,101	0,005
-541,481	-200,000	0,031	-0,104
-540,466	-3,613	-0,029	0,015
-539,452	35,747	0,071	-0,045
-538,437	-66,829	0,161	-0,046
-537,423	-130,045	-0,049	0,005
-536,408	800,000	-0,019	0,050
-535,393	-200,000	0,017	-0,065
-534,379	193,468	-0,065	-0,072
-533,364	-72,074	0,059	0,016
-532,350	-111,343	-0,054	0,008
-531,335	367,004	0,032	-0,048
-530,321	38,925	-0,103	0,067
-529,306	-119,030	-0,012	-0,001
-528,291	73,502	0,046	0,035
-527,277	466,688	-0,043	-0,070
-526,262	590,562	-0,011	0,021
-525,248	800,000	-0,008	0,025
-524,233	800,000	0,037	-0,094
-523,218	-96,149	-0,044	-0,008
-522,204	717,645	0,103	0,200
-521,189	-113,479	-0,106	-0,015
-520,175	-72,800	-0,103	-0,027
-519,160	51,427	-0,097	0,067
-518,145	-16,290	0,107	0,049
-517,131	-36,265	-0,075	-0,030
-516,116	-25,597	-0,041	0,018
-515,102	212,053	-0,028	0,033
-514,087	-92,145	-0,067	-0,014
-513,072	265,642	-0,064	0,082
-512,058	800,000	0,069	0,151
-511,043	-200,000	0,004	0,066
-510,029	569,541	0,055	0,097
-509,014	-23,425	-0,080	-0,035
-507,999	-98,957	-0,084	-0,015
-506,985	800,000	-0,016	0,049
-505,970	11,451	-0,078	-0,043
-504,956	800,000	0,016	0,039
-503,941	-200,000	-0,109	0,000
-502,926	-200,000	-0,016	-0,088
-501,912	-144,878	0,096	-0,006
-500,897	181,369	0,036	0,038
-499,883	-200,000	0,003	0,110
-498,868	-151,396	-0,122	0,007
-497,853	245,395	-0,004	0,005
-496,839	39,961	-0,103	0,067
-495,824	-10,242	0,126	0,061
-494,810	-93,547	0,065	-0,013
-493,795	-123,572	0,106	0,012
-492,781	-200,000	-0,012	0,090
-491,766	330,464	-0,025	-0,035
-490,751	-21,961	0,103	0,046
-489,737	-200,000	0,021	0,131
-488,722	800,000	-0,035	0,105
-487,708	800,000	0,021	0,042
-486,693	-27,246	-0,054	0,023
-485,678	4,822	-0,030	0,016
-484,664	383,151	-0,070	-0,105
-483,649	-8,618	-0,089	-0,043
-482,635	-200,000	0,008	0,142
-481,620	-100,698	0,125	-0,022
-480,605	55,610	0,176	0,124
-479,591	-200,000	-0,001	0,128
-478,576	-42,091	0,088	0,033
-477,562	172,246	-0,024	0,025
-476,547	15,685	0,038	0,022
-475,532	-200,000	0,005	0,045
-474,518	-200,000	0,009	-0,038
-473,503	265,018	0,095	0,121
-472,489	-200,000	0,013	0,170
-471,474	-200,000	-0,018	0,067
-470,459	55,912	-0,068	-0,048
-469,445	95,212	0,035	-0,029
-468,430	267,680	-0,082	0,105
-467,416	-52,580	0,085	-0,028
-466,401	9,620	0,167	-0,092
-465,386	-55,182	-0,072	0,024
-464,372	-200,000	-0,017	0,082
-463,357	800,000	0,053	-0,137
-462,343	189,764	-0,019	-0,020
-461,328	-44,298	0,084	0,030
-460,313	6,693	0,088	-0,047
-459,299	-200,000	-0,001	0,062
-458,284	221,448	0,127	0,149
-457,270	-200,000	-0,033	0,105
-456,255	-200,000	-0,003	0,029
-455,241	142,680	0,160	-0,155
-454,226	-110,287	0,022	-0,003
-453,211	-97,092	-0,089	0,017
-452,197	607,504	0,053	0,096
-451,182	-200,000	-0,009	0,047
-450,168	-200,000	-0,012	0,101
-449,153	519,268	-0,056	0,096
-448,138	327,141	0,003	0,004
-447,124	-200,000	-0,013	-0,174
-446,109	-70,195	-0,025	0,007
-445,095	-49,284	0,166	-0,057
-444,080	-29,532	0,147	-0,061
-443,065	800,000	-0,054	-0,115
-442,051	1,732	0,105	-0,055
-441,036	168,393	0,048	-0,050
-440,022	226,237	0,003	-0,004
-439,007	73,030	-0,112	0,085
-437,992	128,223	0,133	0,123
-436,978	-200,000	-0,022	0,087
-435,963	800,000	0,031	0,076
-434,949	800,000	-0,033	0,097
-433,934	-200,000	0,035	-0,128
-432,919	-26,679	0,073	-0,031
-431,905	-200,000	-0,008	0,079
-430,890	-87,810	0,082	0,018
-429,876	-105,369	0,032	0,005
-428,861	38,529	0,072	0,047
-427,846	797,905	-0,061	-0,123
-426,832	-200,000	0,014	-0,169
-425,817	-19,421	0,063	-0,028
-424,803	450,898	0,031	0,049
-423,788	335,500	-0,024	-0,034
-422,773	-200,000	-0,005	-0,058
-421,759	-125,577	0,114	-0,012
-420,744	344,911	0,058	0,084
-419,730	-80,304	-0,092	-0,022
-418,715	-200,000	0,001	-0,092
-417,701	59,206	-0,055	-0,039
-416,686	-170,276	0,157	0,004
-415,671	-25,995	0,148	0,063
-414,657	444,843	0,082	0,132
-413,642	-90,321	-0,042	0,009
-412,628	-172,813	0,037	-0,001
-411,613	-98,164	-0,039	0,007
-410,598	-45,100	0,044	-0,016
-409,584	120,503	-0,091	0,082
-408,569	800,000	-0,026	-0,072
-407,555	134,205	0,035	0,033
-406,540	480,821	0,084	-0,138
-405,525	-200,000	-0,011	-0,060
-404,511	641,375	-0,085	-0,157
-403,496	-200,000	0,009	-0,120
-402,482	800,000	0,024	0,071
-401,467	329,671	-0,051	-0,071
-400,452	72,776	-0,066	-0,050
-399,438	-200,000	0,008	0,140
-398,423	34,383	0,174	0,110
-397,409	-144,041	0,027	-0,002
-396,394	-109,806	0,113	-0,017
-395,379	-200,000	0,000	-0,125
-394,365	-130,223	-0,013	-0,001
-393,350	-120,471	-0,085	0,010
-392,336	384,929	0,097	0,146
-391,321	-109,525	-0,134	0,020
-390,306	61,951	-0,127	-0,092
-389,292	213,391	0,029	0,033
-388,277	-200,000	-0,009	-0,075
-387,263	15,383	0,063	0,036
-386,248	-200,000	-0,002	0,059
-385,233	-17,664	0,037	0,017
-384,219	-48,027	0,055	0,019
-383,204	-200,000	-0,004	0,020
-382,190	-200,000	0,024	-0,162
-381,175	202,929	-0,088	-0,099
-380,160	800,000	-0,048	-0,108
-379,146	308,306	0,116	0,157
-378,131	800,000	0,024	-0,064
-377,117	64,010	0,072	0,053
-376,102	-200,000	0,003	0,113
-375,088	590,687	-0,054	-0,097
-374,073	-49,788	-0,044	0,015
-373,058	-79,028	0,046	0,011
-372,044	800,000	-0,047	-0,144
-371,029	-138,453	0,144	0,011
-370,015	-200,000	-0,017	0,091
-369,000	55,467	-0,086	-0,060
-367,985	-76,065	-0,095	0,024
-366,971	587,783	-0,053	-0,095
-365,956	120,572	0,035	0,031
-364,942	-56,277	0,059	0,019
-363,927	350,931	-0,145	0,208
-362,912	250,339	0,091	0,113
-361,898	236,803	-0,040	-0,048
-360,883	676,316	0,017	-0,032
-359,869	-200,000	0,019	-0,116
-358,854	33,990	-0,119	0,075
-357,839	59,598	0,101	-0,072
-356,825	-200,000	-0,013	-0,056
-355,810	159,489	-0,052	0,052
-354,796	109,594	0,069	-0,060
-353,781	28,433	-0,135	-0,083
-352,766	-200,000	-0,017	-0,060
-351,752	-76,024	0,070	-0,018
-350,737	-200,000	-0,007	0,052
-349,723	191,802	-0,056	-0,062
-348,708	-6,462	0,104	0,051
-347,693	-24,557	-0,062	-0,027
-346,679	65,809	-0,054	-0,040
-345,664	-117,939	-0,137	-0,018
-344,650	-200,000	0,011	-0,042
-343,635	65,289	0,023	0,017
-342,620	111,363	-0,035	0,031
-341,606	-200,000	-0,013	-0,102
-340,591	49,813	0,108	-0,074
-339,577	800,000	-0,018	-0,043
-338,562	-159,591	0,083	0,003
-337,548	-40,570	0,043	0,016
-336,533	-200,000	0,024	-0,080
-335,518	-200,000	0,002	0,068
-334,504	693,537	0,025	-0,047
-333,489	-29,112	0,045	-0,019
-332,475	800,000	0,056	-0,171
-331,460	-80,736	0,153	-0,037
-330,445	-144,984	-0,055	0,004
-329,431	-200,000	0,006	0,022
-328,416	187,760	-0,058	0,063
-327,402	-69,335	0,102	0,028
-326,387	458,151	-0,039	0,063
-325,372	-35,888	-0,028	-0,011
-324,358	-95,061	-0,021	-0,004
-323,343	-37,386	0,056	0,022
-322,329	-200,000	0,048	0,195
-321,314	-200,000	0,024	-0,077
-320,299	800,000	-0,016	-0,034
-319,285	-200,000	0,008	0,028
-318,270	-78,285	-0,062	0,015
-317,256	-200,000	0,022	-0,084
-316,241	-193,334	0,093	0,001
-315,226	194,127	-0,099	-0,108
-314,212	800,000	-0,031	-0,072
-313,197	-200,000	0,012	-0,061
-312,183	800,000	0,069	0,154
-311,168	48,468	0,029	0,020
-310,153	1,819	-0,066	-0,034
-309,139	-148,532	0,094	-0,005
-308,124	-200,000	0,017	-0,077
-307,110	800,000	0,051	0,137
-306,095	135,812	-0,033	0,031
-305,080	7,851	0,012	0,006
-304,066	-200,000	0,014	-0,155
-303,051	-113,412	0,020	-0,003
-302,037	72,689	-0,134	0,101
-301,022	624,434	-0,040	-0,073
-300,008	-200,000	0,021	-0,092
-298,993	-98,430	0,048	-0,009
-297,978	-33,243	-0,027	0,011
-296,964	424,921	-0,077	0,121
-295,949	-200,000	-0,010	0,108
-294,935	-117,388	0,029	0,004
-293,920	-200,000	-0,001	-0,056
-292,905	112,365	0,151	0,132
-291,891	800,000	-0,023	-0,067
-290,876	-200,000	0,006	0,029
-289,862	115,047	-0,109	-0,096
-288,847	309,651	0,079	0,107
-287,832	45,701	-0,050	-0,033
-286,818	7,470	-0,099	-0,053
-285,803	-167,518	0,136	-0,004
-284,789	-129,189	0,036	0,004
-283,774	202,066	0,070	-0,078
-282,759	201,600	-0,063	-0,070
-281,745	244,835	0,055	-0,067
-280,730	-200,000	0,000	-0,007
-279,716	-200,000	0,004	-0,070
-278,701	199,688	0,014	0,016
-277,686	-75,686	0,129	0,033
-276,672	-122,935	-0,039	0,004
-275,657	800,000	-0,021	0,067
-274,643	-67,871	-0,198	-0,056
-273,628	491,427	-0,040	0,067
-272,613	118,193	-0,113	-0,101
-271,599	800,000	0,051	-0,119
-270,584	-122,697	0,230	0,027
-269,570	-164,289	-0,085	-0,003
-268,555	3,475	-0,014	0,007
-267,540	-167,452	-0,029	-0,001
-266,526	267,371	-0,018	-0,023
-265,511	201,404	-0,055	-0,061
-264,497	134,587	0,014	-0,013
-263,482	102,203	0,054	-0,046
-262,467	-200,000	0,002	-0,029
-261,453	374,644	0,052	0,077
-260,438	31,195	-0,065	0,040
-259,424	800,000	0,021	0,045
-258,409	458,071	-0,003	-0,005
-257,395	628,322	0,019	-0,035
-256,380	75,330	-0,070	-0,053
-255,365	-200,000	0,009	0,087
-254,351	285,346	-0,013	0,017
-253,336	499,783	0,040	0,066
-252,322	57,204	0,051	-0,036
-251,307	312,753	-0,054	-0,074
-250,292	-110,724	0,077	-0,011
-249,278	800,000	-0,030	0,062
-248,263	800,000	-0,017	-0,047
-247,249	138,126	-0,087	0,082
-246,234	-87,226	-0,099	-0,022
-245,219	800,000	-0,023	-0,048
-244,205	-200,000	-0,002	0,022
-243,190	800,000	0,011	0,030
-242,176	250,210	0,061	0,075
-241,161	148,081	-0,095	0,093
-240,146	-186,609	-0,123	0,001
-239,132	-200,000	0,020	0,096
-238,117	-162,987	-0,188	-0,006
-237,103	13,810	0,119	0,067
-236,088	-151,478	0,087	0,005
-235,073	43,873	0,025	0,016
-234,059	379,236	-0,057	-0,085
-233,044	440,949	-0,036	0,057
-232,030	39,647	-0,029	0,019
-231,015	575,223	-0,017	0,030
-230,000	490,167	-0,022	0,036
-228,986	682,756	-0,041	-0,077
-227,971	-200,000	0,029	-0,160
-226,957	-3,664	-0,189	-0,094
-225,942	253,764	-0,044	-0,054
-224,927	-22,978	0,117	0,051
-223,913	134,801	0,068	0,064
-222,898	-178,862	0,056	0,001
-221,884	63,001	0,041	0,030
-220,869	-200,000	-0,006	0,090
-219,855	800,000	-0,053	0,140
-218,840	-200,000	0,026	-0,125
-217,825	-200,000	0,030	0,117
-216,811	10,922	0,018	-0,010
-215,796	-200,000	-0,012	-0,090
-214,782	132,390	-0,060	-0,056
-213,767	700,131	-0,022	-0,042
-212,752	-90,939	0,085	-0,018
-211,738	112,407	-0,055	-0,048
-210,723	293,951	0,063	-0,083
-209,709	135,590	0,043	-0,040
-208,694	-200,000	-0,038	-0,211
-207,679	800,000	-0,032	-0,067
-206,665	198,713	0,056	0,062
-205,650	800,000	0,045	0,119
-204,636	800,000	0,023	0,069
-203,621	72,614	-0,055	0,041
-202,606	-86,137	-0,050	-0,011
-201,592	481,201	-0,054	-0,089
-200,577	800,000	-0,033	-0,099
-199,563	-200,000	0,172	-0,001
-198,548	800,000	0,039	-0,089
-197,533	-200,000	0,015	0,109
-196,519	85,709	-0,066	0,052
-195,504	-200,000	0,017	-0,070
-194,490	-32,219	0,051	-0,020
-193,475	112,887	0,019	0,017
-192,460	-129,673	0,155	-0,015
-191,446	570,284	0,079	-0,138
-190,431	-67,071	0,145	-0,041
-189,417	56,058	-0,079	0,055
-188,402	85,470	-0,127	0,101
-187,387	92,742	-0,074	-0,061
-186,373	-200,000	0,044	0,151
-185,358	-111,737	-0,110	-0,016
-184,344	240,801	0,016	-0,020
-183,329	-200,000	0,023	0,119
-182,315	2,282	0,061	0,032
-181,300	-171,317	0,075	0,002
-180,285	184,927	-0,072	0,077
-179,271	362,269	0,095	-0,138
-178,256	-79,143	-0,079	0,019
-177,242	800,000	-0,050	0,142
-176,227	32,115	0,073	0,045
-175,212	358,157	-0,067	0,097
-174,198	-200,000	-0,019	-0,072
-173,183	241,218	-0,051	-0,062
-172,169	-37,134	-0,094	-0,036
-171,154	800,000	-0,024	0,056
-170,139	-133,694	0,077	0,007
-169,125	148,267	0,080	-0,077
-168,110	771,926	-0,055	-0,108
-167,096	262,862	0,053	-0,067
-166,081	800,000	-0,029	0,062
-165,066	-115,647	0,114	0,015
-164,052	517,490	0,061	0,103
-163,037	8,555	-0,121	0,065
-162,023	76,713	0,038	-0,029
-161,008	-63,252	0,034	-0,010
-159,993	104,059	-0,038	-0,032
-158,979	-200,000	-0,011	-0,106
-157,964	-94,207	-0,078	-0,015
-156,950	105,034	-0,057	-0,048
-155,935	-70,430	-0,112	0,030
-154,920	-72,027	0,060	0,016
-153,906	-86,181	0,141	0,031
-152,891	217,325	-0,040	0,046
-151,877	9,310	-0,106	-0,058
-150,862	254,575	-0,110	-0,136
-149,847	32,638	-0,088	0,055
-148,833	301,393	-0,024	-0,032
-147,818	800,000	-0,047	0,115
-146,804	-18,312	0,080	0,036
-145,789	133,922	0,016	-0,015
-144,775	-200,000	0,011	-0,096
-143,760	-200,000	0,029	0,135
-142,745	24,721	0,033	0,020
-141,731	-200,000	0,005	0,021
-140,716	-139,314	-0,107	-0,008
-139,702	-105,311	-0,043	0,007
-138,687	174,370	0,080	0,084
-137,672	-90,875	0,036	-0,007
-136,658	122,548	-0,111	0,100
-135,643	-123,622	-0,091	0,010
-134,629	-2,642	-0,157	-0,079
-133,614	238,245	0,110	-0,131
-132,599	122,919	0,089	-0,080
-131,585	-200,000	-0,015	-0,051
-130,570	499,186	-0,072	-0,120
-129,556	14,723	-0,087	0,049
-128,541	2,812	0,056	0,029
-127,526	106,150	-0,028	-0,024
-126,512	405,801	0,114	0,173
-125,497	56,661	-0,063	0,044
-124,483	19,463	-0,046	0,027
-123,468	81,157	0,092	-0,071
-122,453	-200,000	-0,017	-0,092
-121,439	745,375	0,071	-0,138
-120,424	-134,919	-0,100	0,009
-119,410	-135,272	0,059	-0,005
-118,395	-134,326	-0,091	0,008
-117,380	43,555	0,028	-0,019
-116,366	307,270	-0,055	0,074
-115,351	309,073	-0,064	0,086
-114,337	76,417	-0,024	-0,018
-113,322	-13,638	-0,084	0,039
-112,307	-10,677	0,108	-0,051
-111,293	-200,000	-0,004	0,051
-110,278	800,000	-0,036	0,095
-109,264	800,000	-0,015	0,045
-108,249	172,746	-0,088	0,091
-107,234	-66,054	-0,063	0,018
-106,220	-120,540	0,019	-0,002
-105,205	800,000	0,021	0,045
-104,191	-58,102	0,095	-0,029
-103,176	800,000	0,013	0,035
-102,162	691,543	-0,055	0,103
-101,147	800,000	0,017	0,037
-100,132	-200,000	-0,037	-0,210
-99,118	-0,076	-0,105	-0,054
-98,103	-200,000	0,007	0,053
-97,089	-200,000	-0,035	0,167
-96,074	170,616	-0,027	-0,027
-95,059	443,914	0,074	0,117
-94,045	654,737	0,060	0,112
-93,030	-143,196	-0,062	0,004
-92,016	800,000	-0,056	-0,117
-91,001	53,251	0,162	0,111
-89,986	-42,915	0,110	0,040
-88,972	800,000	0,054	0,153
-87,957	129,515	-0,122	0,112
-86,943	126,947	0,082	0,075
-85,928	-25,748	-0,057	0,024
-84,913	-200,000	-0,014	0,067
-83,899	442,907	0,032	0,051
-82,884	-200,000	-0,020	0,066
-81,870	-200,000	0,005	0,046
-80,855	-200,000	0,031	-0,119
-79,840	-200,000	0,011	-0,182
-78,826	255,181	-0,072	-0,089
-77,811	-60,907	0,169	0,051
-76,797	-98,353	-0,118	-0,021
-75,782	126,638	0,095	-0,086
-74,767	-59,808	0,088	0,027
-73,753	-128,437	0,047	-0,005
-72,738	274,385	0,058	-0,073
-71,724	583,900	0,041	0,072
-70,709	4,956	0,068	0,036
-69,694	-200,000	-0,024	-0,134
-68,680	-200,000	-0,012	0,094
-67,665	-72,196	0,106	0,028
-66,651	-94,199	0,061	0,012
-65,636	-33,897	-0,131	-0,051
-64,622	-43,277	0,080	-0,029
-63,607	800,000	-0,020	-0,044
-62,592	603,822	0,044	-0,079
-61,578	-56,846	0,072	0,023
-60,563	-200,000	-0,003	0,059
-59,549	-167,276	-0,090	-0,003
-58,534	-12,278	-2,100	-0,981
-57,519	-200,000	-0,246	-0,946
-56,505	-200,000	-1,239	-4,969
-55,490	50,290	0,881	0,596
-54,476	800,000	5,326	11,986
-53,461	-200,000	17,931	288,125
-52,446	800,000	728,960	2226,166
-51,432	535,637	1644,482	2808,385
-50,417	109,631	1634,674	1404,497
-49,403	75,241	1286,927	972,118
-48,388	31,805	1026,984	632,525
-47,373	20,102	989,136	570,666
-46,359	18,313	976,695	557,610
-45,344	15,344	972,858	545,695
-44,330	15,567	971,385	545,574
-43,315	15,091	969,307	542,835
-42,300	15,001	968,403	542,012
-41,286	14,962	967,381	541,291
-40,271	15,032	966,318	540,903
-39,257	15,030	965,642	540,498
-38,242	15,085	964,439	539,983
-37,227	15,060	963,768	539,503
-36,213	15,062	962,845	538,972
-35,198	14,956	962,171	538,229
-34,184	15,010	961,297	537,895
-33,169	14,996	960,230	537,230
-32,154	15,066	959,177	536,847
-31,140	15,047	958,522	536,397
-30,125	15,100	957,741	536,110
-29,111	15,021	956,861	535,339
-28,096	15,049	956,199	535,040
-27,082	15,060	955,640	534,742
-26,067	15,063	954,736	534,223
-25,052	14,999	953,984	533,577
-24,038	15,052	953,349	533,371
-23,023	15,017	952,805	532,930
-22,009	15,026	952,125	532,558
-20,994	15,034	951,370	532,141
-19,979	15,083	950,682	531,891
-18,965	15,003	950,249	531,373
-17,950	15,029	949,664	531,109
-16,936	14,976	948,947	530,518
-15,921	14,987	948,188	530,105
-14,906	14,914	947,578	529,513
-13,892	14,949	946,762	529,144
-12,877	14,881	946,273	528,635
-11,863	14,948	945,424	528,355
-10,848	14,932	945,061	528,077
-9,833	14,951	944,711	527,924
-8,819	14,999	943,852	527,574
-7,804	14,899	943,464	527,020
-6,790	14,903	942,920	526,706
-5,775	14,969	942,329	526,566
-4,760	15,006	941,502	526,198
-3,746	14,900	940,811	525,457
-2,731	14,797	940,313	524,832
-1,717	14,779	939,551	524,327
-0,702	14,792	938,982	524,031
0,313	14,589	938,282	523,791
1,327	17,812	936,303	532,782
2,342	26,826	792,746	474,916
3,356	23,549	457,976	269,342
4,371	-3,690	314,205	155,874
5,386	-7,683	295,895	142,744
6,400	-9,615	289,753	137,855
7,415	-9,938	287,356	136,385
8,429	-10,294	285,770	135,272
9,444	-10,327	284,989	134,858
10,459	-10,212	284,377	134,668
11,473	-10,352	283,726	134,212
12,488	-10,093	283,046	134,128
13,502	-10,142	282,589	133,854
14,517	-10,118	282,096	133,631
15,531	-10,187	281,615	133,325
16,546	-10,191	281,255	133,138
17,561	-10,387	280,963	132,801
18,575	-10,162	280,655	132,859
19,590	-10,208	280,475	132,718
20,604	-10,103	280,007	132,585
21,619	-10,179	279,458	132,241
22,634	-10,146	279,429	132,247
23,648	-10,350	279,002	131,839
24,663	-10,283	278,692	131,744
25,677	-10,483	278,583	131,490
26,692	-10,181	278,174	131,573
27,707	-10,377	277,892	131,241
28,721	-10,343	277,683	131,163
29,736	-10,336	277,240	130,949
30,750	-10,410	277,095	130,798
31,765	-10,230	276,749	130,794
32,780	-10,352	276,606	130,599
33,794	-10,168	276,369	130,649
34,809	-10,239	276,153	130,469
35,823	-10,368	275,696	130,119
36,838	-10,554	275,692	129,931
37,853	-10,454	275,390	129,871
38,867	-10,455	275,139	129,740
39,882	-10,537	274,809	129,496
40,896	-10,310	274,715	129,653
41,911	-10,329	274,247	129,403
42,926	-10,274	274,074	129,360
43,940	-10,373	273,839	129,147
44,955	-10,435	273,711	129,016
45,969	-10,387	273,299	128,855
46,984	-10,652	273,166	128,535
47,999	-10,732	272,834	128,292
49,013	-10,863	272,618	128,058
50,028	-10,823	272,377	127,971
51,042	-11,121	272,192	127,596
52,057	-11,138	271,843	127,405
53,071	-11,023	271,580	127,376
54,086	-10,851	271,419	127,449
55,101	-10,648	271,227	127,535
56,115	-10,441	271,136	127,672
57,130	-10,227	270,961	127,775
58,144	-10,164	270,798	127,745
59,159	-10,064	270,742	127,800
60,174	-10,044	270,365	127,629
61,188	-10,162	270,280	127,469
62,203	-10,178	269,878	127,253
63,217	-10,086	269,725	127,254
64,232	-10,268	269,547	126,992
65,247	-10,216	269,288	126,906
66,261	-10,046	268,871	126,854
67,276	-10,488	268,710	126,362
68,290	-10,371	268,369	126,297
69,305	-10,620	268,330	126,040
70,320	-10,375	267,928	126,064
71,334	-10,506	267,890	125,915
72,349	-10,185	267,766	126,138
73,363	-9,961	267,415	126,165
74,378	-10,048	267,135	125,943
75,393	-10,134	267,000	125,790
76,407	-10,316	266,918	125,575
77,422	-10,019	266,626	125,695
78,436	-10,115	266,398	125,490
79,451	-10,125	266,035	125,298
80,466	-10,302	265,931	125,079
81,480	-10,256	265,541	124,925
82,495	-10,497	265,423	124,642
83,509	-10,318	265,351	124,758
84,524	-10,296	265,017	124,609
85,539	-10,654	264,788	124,169
86,553	-10,688	264,691	124,082
87,568	-10,315	264,428	124,282
88,582	-10,438	264,215	124,061
89,597	-10,577	264,092	123,867
90,611	-10,305	263,999	124,056
91,626	-10,169	263,767	124,058
92,641	-10,169	263,544	123,942
93,655	-10,257	263,341	123,757
94,670	-10,191	263,163	123,721
95,684	-10,249	262,876	123,524
96,699	-10,177	262,602	123,448
97,714	-10,129	262,348	123,360
98,728	-10,296	262,281	123,169
99,743	-10,368	261,913	122,921
100,757	-10,416	261,707	122,771
101,772	-10,369	261,507	122,708
102,787	-10,349	261,380	122,655
103,801	-10,223	261,382	122,757
104,816	-10,329	261,038	122,491
105,830	-10,159	260,907	122,568
106,845	-10,097	260,748	122,538
107,860	-10,163	260,516	122,360
108,874	-10,222	260,278	122,184
109,889	-10,322	260,187	122,044
110,903	-10,176	259,867	122,011
111,918	-10,354	259,651	121,742
112,933	-10,281	259,567	121,755
113,947	-10,153	259,371	121,765
114,962	-10,265	259,077	121,518
115,976	-10,215	259,007	121,519
116,991	-10,408	258,925	121,300
118,006	-10,309	258,647	121,246
119,020	-10,291	258,591	121,225
120,035	-9,989	258,198	121,294
121,049	-10,062	258,094	121,170
122,064	-10,272	258,042	120,951
123,079	-10,076	257,635	120,920
124,093	-10,265	257,456	120,661
125,108	-10,287	257,239	120,529
126,122	-10,467	257,008	120,254
127,137	-10,698	256,741	119,918
128,151	-10,452	256,587	120,048
129,166	-10,398	256,579	120,081
130,181	-10,450	256,109	119,805
131,195	-10,457	256,114	119,791
132,210	-10,282	255,928	119,845
133,224	-10,007	256,020	120,115
134,239	-10,024	255,483	119,838
135,254	-10,114	255,290	119,659
136,268	-10,186	255,074	119,485
137,283	-10,614	254,892	119,020
138,297	-10,656	254,740	118,902
139,312	-10,694	254,498	118,746
140,327	-10,414	254,381	118,921
141,341	-10,083	254,204	119,112
142,356	-10,214	254,266	119,018
143,370	-9,997	253,959	119,050
144,385	-9,962	253,728	118,962
145,400	-9,968	253,651	118,909
146,414	-9,816	253,353	118,890
147,429	-9,960	253,228	118,697
148,443	-10,153	253,216	118,516
149,458	-9,972	252,871	118,498
150,473	-9,947	252,595	118,379
151,487	-10,103	252,459	118,173
152,502	-10,032	252,247	118,123
153,516	-10,124	252,022	117,929
154,531	-9,794	251,910	118,147
155,546	-10,030	251,838	117,901
156,560	-9,964	251,585	117,829
157,575	-9,968	251,312	117,687
158,589	-10,166	251,083	117,401
159,604	-10,057	251,069	117,477
160,619	-10,096	250,854	117,332
161,633	-9,793	250,600	117,460
162,648	-9,924	250,543	117,312
163,662	-10,013	250,354	117,138
164,677	-9,941	250,150	117,092
165,692	-10,084	250,192	116,981
166,706	-10,009	249,858	116,878
167,721	-10,062	249,797	116,793
168,735	-10,016	249,452	116,661
169,750	-10,077	249,518	116,630
170,764	-9,946	249,259	116,609
171,779	-10,000	249,087	116,472
172,794	-9,806	248,856	116,516
173,808	-9,909	248,697	116,345
174,823	-10,411	248,468	115,808
175,837	-10,482	248,132	115,581
176,852	-10,149	248,036	115,805
177,867	-9,937	248,118	116,010
178,881	-9,755	247,738	115,974
179,896	-9,944	247,679	115,778
180,910	-9,982	247,592	115,695
181,925	-9,752	247,341	115,760
182,940	-9,768	247,024	115,588
183,954	-10,092	247,081	115,335
184,969	-9,868	246,822	115,389
185,983	-9,956	246,750	115,273
186,998	-10,038	246,643	115,144
188,013	-9,908	246,374	115,115
189,027	-9,861	246,221	115,073
190,042	-9,894	246,053	114,957
191,056	-9,787	245,750	114,893
192,071	-9,956	245,583	114,666
193,086	-10,229	245,501	114,391
194,100	-10,086	245,313	114,412
195,115	-9,840	245,209	114,556
196,129	-10,042	244,900	114,235
197,144	-9,967	244,746	114,215
198,159	-10,024	244,586	114,083
199,173	-10,081	244,408	113,943
200,188	-9,986	244,099	113,867
201,202	-10,028	243,895	113,727
202,217	-10,485	243,704	113,253
203,232	-10,647	243,410	112,974
204,246	-10,067	243,449	113,457
205,261	-9,502	243,275	113,827
206,275	-10,309	242,935	112,999
207,290	-6,309	244,534	117,018
208,304	1,239	246,956	124,407
209,319	4,651	247,781	127,631
210,334	4,855	247,771	127,783
211,348	5,066	247,796	127,958
212,363	5,284	247,774	128,115
213,377	5,605	247,637	128,298
214,392	5,369	247,317	127,926
215,407	5,154	247,099	127,625
216,421	5,505	246,904	127,801
217,436	5,195	246,932	127,550
218,450	5,621	246,731	127,784
219,465	5,219	246,522	127,335
220,480	5,125	246,305	127,135
221,494	4,941	246,205	126,921
222,509	4,961	246,066	126,854
223,523	4,883	245,856	126,671
224,538	4,713	245,473	126,323
225,553	4,790	245,417	126,346
226,567	4,952	245,407	126,462
227,582	4,876	245,179	126,271
228,596	4,914	244,915	126,155
229,611	4,852	244,684	125,974
230,626	4,637	244,422	125,653
231,640	4,536	244,398	125,548
232,655	4,507	244,313	125,469
233,669	4,465	244,125	125,327
234,684	4,868	243,644	125,396
235,699	4,975	243,861	125,584
236,713	5,073	243,704	125,571
237,728	4,700	243,483	125,144
238,742	4,714	243,304	125,052
239,757	4,492	243,083	124,748
240,772	4,429	242,905	124,594
241,786	4,729	242,810	124,777
242,801	4,533	242,596	124,497
243,815	4,742	242,495	124,603
244,830	4,696	242,418	124,515
245,844	4,755	242,439	124,562
246,859	4,582	242,111	124,244
247,874	4,455	241,743	123,941
248,888	4,859	241,682	124,224
249,903	4,875	241,546	124,155
250,917	4,821	241,436	124,044
251,932	4,925	241,464	124,131
252,947	4,891	241,217	123,966
253,961	4,683	240,962	123,657
254,976	4,928	240,818	123,768
255,990	4,940	240,658	123,685
257,005	4,691	240,364	123,324
258,020	4,612	240,288	123,212
259,034	4,809	240,133	123,278
260,049	4,825	240,027	123,225
261,063	4,485	239,914	122,885
262,078	4,448	239,848	122,811
263,093	4,777	239,564	122,916
264,107	4,927	239,592	123,038
265,122	4,631	239,382	122,685
266,136	5,034	239,164	122,882
267,151	5,035	239,006	122,791
268,166	4,910	238,789	122,569
269,180	4,466	238,683	122,152
270,195	5,043	238,636	122,574
271,209	5,348	238,553	122,761
272,224	4,877	238,213	122,204
273,239	4,402	237,882	121,649
274,253	4,389	237,948	121,662
275,268	4,610	237,678	121,686
276,282	4,844	237,580	121,809
277,297	4,520	237,315	121,408
278,312	4,497	237,228	121,335
279,326	4,742	237,142	121,472
280,341	4,779	237,064	121,451
281,355	4,787	236,888	121,356
282,370	5,003	236,671	121,403
283,384	4,674	236,586	121,091
284,399	4,516	236,412	120,868
285,414	4,372	236,215	120,643
286,428	4,744	236,036	120,832
287,443	4,525	235,850	120,555
288,457	4,659	235,873	120,660
289,472	4,907	235,711	120,760
290,487	4,646	235,451	120,412
291,501	4,519	235,321	120,237
292,516	4,460	235,024	120,029
293,530	4,716	234,857	120,131
294,545	4,597	235,001	120,102
295,560	4,689	234,687	120,002
296,574	4,506	234,551	119,780
297,589	4,587	234,422	119,766
298,603	4,703	234,460	119,865
299,618	4,970	234,409	120,034
300,633	4,873	234,089	119,785
301,647	4,748	233,873	119,568
302,662	5,162	233,988	119,936
303,676	5,033	233,766	119,711
304,691	5,068	233,563	119,624
305,706	5,160	233,319	119,559
306,720	5,066	233,371	119,503
307,735	4,990	233,109	119,299
308,749	4,755	232,905	119,004
309,764	4,696	232,828	118,908
310,779	4,343	232,299	118,357
311,793	4,230	232,155	118,186
312,808	4,103	232,080	118,040
313,822	4,543	232,011	118,331
314,837	4,662	232,070	118,442
315,852	4,591	231,769	118,224
316,866	4,996	231,669	118,472
317,881	4,994	231,627	118,438
318,895	5,018	231,442	118,351
319,910	5,107	231,187	118,278
320,925	4,672	231,118	117,901
321,939	4,321	230,870	117,496
322,954	4,586	230,947	117,727
323,968	4,724	230,654	117,672
324,983	4,551	230,522	117,463
325,997	5,154	230,391	117,843
327,012	4,891	230,297	117,585
328,027	4,595	230,089	117,244
329,041	4,885	230,035	117,426
330,056	5,254	230,073	117,715
331,070	5,724	229,711	117,875
332,085	5,227	229,560	117,411
333,100	4,858	229,453	117,067
334,114	4,918	229,211	116,978
335,129	5,204	229,212	117,184
336,143	5,178	229,088	117,091
337,158	5,179	228,837	116,952
338,173	4,966	228,634	116,678
339,187	4,586	228,449	116,288
340,202	5,010	228,334	116,538
341,216	4,904	228,176	116,367
342,231	4,815	228,052	116,226
343,246	4,595	227,836	115,941
344,260	4,699	227,865	116,024
345,275	5,051	227,811	116,249
346,289	5,195	227,598	116,239
347,304	5,117	227,464	116,101
348,319	5,077	227,341	115,998
349,333	4,903	227,013	115,690
350,348	4,768	226,854	115,498
351,362	4,796	226,870	115,516
352,377	4,706	226,651	115,328
353,392	4,492	226,476	115,069
354,406	4,591	226,311	115,049
355,421	195,860	1318,725	1395,146
356,435	157,035	1451,802	1395,133
