DTS Sentinel unit serial number:	SN410029Multiplexer serial number:	ORYXHardware model number:	OX2-SRSoftware version number:	ORYX F/W v4,00 Oryx Data Collector v3.7.2.0data status	okinstallation	B5 Nyhavnadifferential loss correction	single-endedforward channel	channel 2reverse channel	N/Adate	2023/12/14time	16:32:13forward acquisition time	300,00reverse acquisition time	0,00gamma	499,1914k internal	0,3157k external	0,3157temperature offset calibration	1,0000default loss term (dB/km)	0,3820temperature slope calibration	1,0000multiplexer offset coefficient	1,0000multiplexer slope coefficient	1,0000fibre end	0,00T internal ref (°C)	8,00T ext. ref 1 (°C)	-7,47T ext. ref 2 (°C)	-7,51length (m)	temperature (°C)	Stokes	anti-Stokes-744,400	199,481	0,227	0,257
-743,385	-51,382	-0,386	-0,132
-742,371	185,077	0,150	0,164
-741,356	-112,785	-0,330	0,048
-740,342	-34,150	0,164	0,066
-739,327	-128,409	-0,335	-0,035
-738,312	392,598	0,054	0,084
-737,298	15,092	-0,285	-0,164
-736,283	-32,181	0,108	0,044
-735,269	-35,231	-0,406	-0,162
-734,254	-1,893	0,318	0,164
-733,239	-24,361	-0,670	-0,293
-732,225	-102,308	0,203	0,036
-731,210	97,373	0,099	0,084
-730,196	156,459	-0,111	-0,113
-729,181	93,948	-0,073	0,061
-728,167	393,373	0,070	0,108
-727,152	565,786	0,060	0,107
-726,137	-57,497	-0,077	-0,025
-725,123	338,144	-0,081	-0,116
-724,108	32,318	-0,087	-0,055
-723,094	89,401	0,151	-0,124
-722,079	22,936	-0,102	-0,061
-721,064	800,000	-0,011	-0,025
-720,050	800,000	0,070	-0,154
-719,035	-200,000	0,024	-0,136
-718,021	6,039	-0,183	-0,100
-717,006	5,509	-0,139	-0,075
-715,991	185,269	0,043	0,047
-714,977	78,436	-0,125	-0,099
-713,962	77,154	-0,038	-0,030
-712,948	-108,582	0,056	-0,009
-711,933	-161,191	-0,158	0,006
-710,918	-143,306	-0,109	0,008
-709,904	88,186	0,095	-0,078
-708,889	307,230	0,006	-0,009
-707,875	274,455	-0,065	0,085
-706,860	-58,729	0,096	0,030
-705,845	-116,359	-0,032	-0,004
-704,831	218,451	-0,034	-0,041
-703,816	-24,027	-0,143	0,063
-702,802	744,211	-0,062	0,124
-701,787	235,088	-0,126	-0,153
-700,772	-77,646	-0,087	0,022
-699,758	-200,000	0,007	-0,186
-698,743	-31,816	0,089	0,037
-697,729	-24,226	0,029	0,013
-696,714	-92,279	-0,142	0,029
-695,699	69,396	0,063	-0,048
-694,685	-6,752	-0,023	0,011
-693,670	236,271	0,016	0,019
-692,656	-47,025	-0,119	0,043
-691,641	800,000	0,014	0,044
-690,627	800,000	-0,035	0,085
-689,612	266,099	-0,060	-0,077
-688,597	800,000	0,039	0,105
-687,583	-77,571	-0,044	0,011
-686,568	44,537	-0,115	-0,078
-685,554	283,261	0,040	-0,053
-684,539	-128,123	-0,088	-0,009
-683,524	-200,000	0,005	0,093
-682,510	106,421	-0,056	-0,049
-681,495	-50,960	0,027	0,009
-680,481	-132,148	-0,152	0,014
-679,466	745,117	-0,045	0,090
-678,451	73,647	0,051	0,040
-677,437	247,783	-0,127	-0,158
-676,422	-200,000	0,009	-0,109
-675,408	-44,725	0,043	-0,016
-674,393	-200,000	0,010	0,056
-673,378	-10,949	-0,251	-0,121
-672,364	83,980	-0,039	0,031
-671,349	-59,857	-0,121	-0,038
-670,335	-200,000	0,016	-0,052
-669,320	370,172	0,057	-0,085
-668,305	-27,316	0,096	-0,041
-667,291	-31,609	-0,179	-0,074
-666,276	800,000	-0,018	-0,042
-665,262	-169,611	-0,186	0,005
-664,247	-39,530	0,058	-0,022
-663,232	444,974	0,059	0,095
-662,218	-21,205	-0,127	0,057
-661,203	-75,798	0,074	0,019
-660,189	-200,000	-0,010	0,135
-659,174	-54,050	-0,147	-0,049
-658,159	800,000	0,008	-0,018
-657,145	-128,074	-0,122	-0,013
-656,130	-200,000	-0,001	0,026
-655,116	-200,000	-0,002	0,048
-654,101	-141,667	-0,036	-0,003
-653,086	-37,598	0,035	-0,014
-652,072	233,002	-0,118	-0,142
-651,057	-36,015	-0,150	-0,059
-650,043	-42,361	-0,031	-0,011
-649,028	800,000	-0,027	-0,079
-648,014	-115,210	0,194	0,027
-646,999	337,147	-0,028	0,040
-645,984	-200,000	-0,012	-0,065
-644,970	-200,000	0,009	-0,176
-643,955	256,664	0,009	0,011
-642,941	92,320	-0,120	-0,099
-641,926	25,444	0,092	0,056
-640,911	800,000	0,032	-0,098
-639,897	588,547	0,024	0,044
-638,882	-92,835	-0,156	-0,032
-637,868	-46,038	0,062	-0,022
-636,853	223,395	0,042	-0,050
-635,838	-76,079	0,049	-0,013
-634,824	-200,000	0,014	-0,084
-633,809	614,867	0,048	-0,088
-632,795	210,669	-0,085	0,098
-631,780	-117,869	-0,203	0,026
-630,765	-200,000	0,005	-0,038
-629,751	-33,874	-0,081	0,033
-628,736	-200,000	0,003	-0,088
-627,722	2,941	0,054	-0,029
-626,707	800,000	0,043	0,123
-625,692	-91,033	-0,108	0,023
-624,678	12,907	-0,092	-0,052
-623,663	-200,000	-0,002	0,052
-622,649	85,270	-0,107	0,086
-621,634	13,716	0,040	-0,023
-620,619	102,892	0,035	-0,030
-619,605	-200,000	0,025	-0,093
-618,590	-86,271	0,144	0,032
-617,576	1,965	-0,104	0,055
-616,561	-73,657	0,053	-0,014
-615,546	-94,836	-0,171	-0,034
-614,532	-200,000	0,001	-0,098
-613,517	-60,309	-0,187	0,058
-612,503	123,888	0,045	0,041
-611,488	5,919	0,059	-0,032
-610,474	297,920	-0,086	0,116
-609,459	-200,000	0,006	-0,066
-608,444	-79,257	-0,033	0,008
-607,430	114,272	-0,067	0,060
-606,415	111,528	0,056	-0,049
-605,401	-200,000	0,008	0,063
-604,386	-200,000	0,001	-0,046
-603,371	800,000	-0,026	0,072
-602,357	800,000	0,025	0,062
-601,342	181,153	0,013	0,014
-600,328	59,202	-0,074	0,053
-599,313	54,397	0,054	0,038
-598,298	225,266	-0,074	-0,088
-597,284	800,000	-0,060	-0,133
-596,269	-200,000	-0,004	-0,085
-595,255	121,942	-0,045	0,041
-594,240	291,791	-0,152	-0,203
-593,225	-19,453	0,083	0,037
-592,211	800,000	-0,049	0,123
-591,196	690,300	0,020	0,038
-590,182	-45,786	-0,066	-0,024
-589,167	800,000	-0,044	0,101
-588,152	-120,309	-0,085	0,010
-587,138	228,228	-0,029	-0,034
-586,123	-200,000	-0,013	0,064
-585,109	800,000	0,038	-0,078
-584,094	257,213	0,108	0,136
-583,079	734,019	-0,099	0,196
-582,065	541,309	-0,013	-0,022
-581,050	108,708	-0,105	0,092
-580,036	331,476	-0,013	-0,019
-579,021	-200,000	-0,020	-0,075
-578,006	536,995	-0,097	-0,170
-576,992	-165,062	-0,068	-0,002
-575,977	149,355	-0,103	0,102
-574,963	53,223	0,094	0,066
-573,948	-100,780	0,054	0,010
-572,934	-200,000	-0,030	0,171
-571,919	45,246	-0,057	-0,039
-570,904	-119,441	-0,160	-0,020
-569,890	228,534	0,060	-0,071
-568,875	757,289	-0,062	-0,124
-567,861	-110,821	0,081	0,012
-566,846	497,555	0,040	-0,068
-565,831	322,335	0,048	-0,067
-564,817	3,900	-0,067	-0,036
-563,802	-104,242	0,064	-0,011
-562,788	800,000	-0,047	0,125
-561,773	-200,000	0,005	0,057
-560,758	-60,498	-0,084	0,026
-559,744	-55,743	-0,057	-0,018
-558,729	546,528	-0,053	-0,094
-557,715	-85,684	0,193	-0,044
-556,700	262,430	-0,017	-0,022
-555,685	163,699	-0,048	0,050
-554,671	-130,358	0,007	0,001
-553,656	84,067	-0,018	0,015
-552,642	-200,000	-0,013	0,077
-551,627	294,030	-0,097	-0,130
-550,612	67,718	-0,118	-0,088
-549,598	15,533	-0,034	-0,019
-548,583	217,021	0,125	-0,146
-547,569	800,000	-0,031	-0,098
-546,554	-200,000	-0,002	-0,017
-545,539	-17,960	0,077	0,035
-544,525	89,356	0,087	-0,071
-543,510	800,000	-0,057	0,127
-542,496	-32,606	-0,032	0,013
-541,481	74,720	0,063	-0,048
-540,466	345,145	0,041	-0,059
-539,452	-200,000	0,018	-0,069
-538,437	303,338	-0,048	-0,065
-537,423	126,612	0,096	0,089
-536,408	-86,387	-0,120	0,027
-535,393	523,268	-0,086	-0,149
-534,379	-176,036	-0,177	-0,003
-533,364	-200,000	-0,022	-0,081
-532,350	-200,000	0,012	0,180
-531,335	-31,839	0,101	0,041
-530,321	-30,658	-0,072	0,029
-529,306	800,000	-0,053	0,155
-528,291	-141,588	-0,153	0,011
-527,277	800,000	0,025	0,070
-526,262	-103,420	0,022	-0,004
-525,248	-151,862	0,127	-0,007
-524,233	378,269	-0,052	-0,078
-523,218	175,237	0,043	-0,046
-522,204	-200,000	0,005	0,095
-521,189	-200,000	-0,018	-0,077
-520,175	-174,535	-0,063	0,001
-519,160	-200,000	-0,012	0,054
-518,145	65,856	0,048	-0,036
-517,131	800,000	-0,022	-0,048
-516,116	284,441	0,021	0,027
-515,102	800,000	-0,054	0,123
-514,087	800,000	0,059	0,132
-513,072	1,702	-0,209	0,110
-512,058	-117,748	0,038	0,005
-511,043	74,223	0,066	0,050
-510,029	64,058	-0,074	-0,055
-509,014	-84,914	-0,008	-0,002
-507,999	-200,000	0,020	0,112
-506,985	-76,139	-0,164	-0,042
-505,970	800,000	0,033	-0,071
-504,956	430,327	0,142	-0,226
-503,941	122,810	0,036	0,033
-502,926	75,314	0,070	-0,054
-501,912	800,000	-0,027	0,074
-500,897	-102,054	0,091	0,016
-499,883	-38,085	-0,055	-0,021
-498,868	-200,000	0,008	0,029
-497,853	-200,000	0,002	-0,201
-496,839	-58,265	0,113	-0,036
-495,824	92,680	0,070	-0,057
-494,810	800,000	-0,018	-0,057
-493,795	350,837	0,052	0,075
-492,781	-164,708	-0,124	0,004
-491,766	151,033	0,081	0,081
-490,751	77,228	-0,086	-0,067
-489,737	-69,760	0,119	0,033
-488,722	800,000	-0,042	0,109
-487,708	-200,000	-0,009	0,098
-486,693	-22,941	0,127	-0,056
-485,678	6,799	-0,087	-0,047
-484,664	239,521	-0,121	-0,147
-483,649	-200,000	-0,057	0,199
-482,635	490,775	-0,071	0,120
-481,620	-98,489	0,112	0,021
-480,605	16,606	-0,032	0,018
-479,591	-200,000	0,008	-0,031
-478,576	-200,000	0,030	0,108
-477,562	-1,334	-0,103	-0,053
-476,547	800,000	-0,061	-0,140
-475,532	277,035	-0,106	-0,138
-474,518	391,660	-0,053	0,081
-473,503	8,148	0,075	-0,041
-472,489	800,000	-0,037	0,090
-471,474	-42,769	-0,057	0,021
-470,459	-69,442	-0,164	0,046
-469,445	-29,032	-0,158	-0,066
-468,430	-200,000	0,019	-0,190
-467,416	74,965	0,033	0,026
-466,401	168,318	0,044	-0,046
-465,386	288,456	-0,056	0,074
-464,372	-200,000	-0,022	-0,092
-463,357	86,916	0,035	0,028
-462,343	91,138	-0,049	-0,040
-461,328	-200,000	-0,000	0,046
-460,313	-200,000	-0,022	-0,072
-459,299	51,792	0,062	-0,043
-458,284	220,606	0,011	0,013
-457,270	-200,000	-0,029	0,121
-456,255	800,000	-0,017	0,052
-455,241	-86,032	-0,048	-0,011
-454,226	-200,000	0,019	0,180
-453,211	226,849	0,030	0,035
-452,197	-14,470	0,120	0,056
-451,182	74,086	0,073	0,056
-450,168	614,920	-0,054	-0,099
-449,153	-200,000	0,034	-0,194
-448,138	143,385	-0,061	-0,059
-447,124	222,928	-0,006	0,007
-446,109	134,876	0,156	-0,147
-445,095	-81,604	0,089	0,021
-444,080	-140,459	0,214	0,016
-443,065	-91,095	-0,051	0,011
-442,051	-200,000	-0,006	0,073
-441,036	-105,216	-0,160	-0,026
-440,022	-119,843	0,084	-0,010
-439,007	-42,044	0,062	0,023
-437,992	19,344	0,086	-0,050
-436,978	514,133	0,047	0,080
-435,963	800,000	-0,023	-0,061
-434,949	18,832	-0,034	0,020
-433,934	123,459	0,086	0,078
-432,919	-200,000	0,006	-0,150
-431,905	-139,349	0,118	0,009
-430,890	-98,071	-0,148	-0,027
-429,876	129,571	0,076	0,071
-428,861	-64,496	0,120	0,035
-427,846	18,398	-0,142	-0,082
-426,832	140,675	0,111	0,107
-425,817	-200,000	0,001	0,097
-424,803	-3,913	0,019	0,010
-423,788	248,083	0,065	0,081
-422,773	-185,470	0,040	-0,000
-421,759	311,897	-0,039	-0,053
-420,744	-62,575	-0,080	-0,024
-419,730	-200,000	0,004	-0,054
-418,715	110,148	-0,068	-0,059
-417,701	698,725	-0,067	-0,129
-416,686	-200,000	0,000	-0,158
-415,671	-200,000	-0,003	0,064
-414,657	182,489	0,142	0,153
-413,642	-88,458	0,248	0,053
-412,628	-48,827	-0,085	-0,030
-411,613	14,891	-0,045	-0,025
-410,598	-88,259	-0,037	0,008
-409,584	-23,274	0,154	0,067
-408,569	-200,000	-0,004	-0,055
-407,555	-200,000	-0,034	0,172
-406,540	-200,000	0,026	0,114
-405,525	-41,323	-0,063	0,024
-404,511	800,000	0,036	0,089
-403,496	-84,896	-0,121	0,027
-402,482	800,000	-0,015	0,031
-401,467	133,152	0,165	0,156
-400,452	-97,345	0,124	0,023
-399,438	-200,000	-0,002	-0,107
-398,423	-11,107	0,016	-0,008
-397,409	72,982	-0,048	-0,037
-396,394	640,911	0,035	-0,065
-395,379	167,246	-0,038	0,039
-394,365	-109,040	0,207	-0,032
-393,350	-84,867	-0,041	0,009
-392,336	516,932	-0,034	0,058
-391,321	-135,394	-0,106	-0,009
-390,306	776,059	0,029	-0,057
-389,292	-19,499	-0,096	-0,043
-388,277	362,656	-0,056	0,082
-387,263	74,211	0,050	-0,038
-386,248	118,820	0,050	-0,044
-385,233	-200,000	-0,005	0,113
-384,219	236,890	-0,090	0,109
-383,204	-57,285	-0,062	-0,020
-382,190	-65,732	0,097	0,028
-381,175	-110,449	-0,039	0,006
-380,160	-200,000	0,032	0,105
-379,146	-62,025	0,197	-0,059
-378,131	717,583	-0,030	0,058
-377,117	-200,000	0,003	0,037
-376,102	-55,650	0,032	0,010
-375,088	-200,000	0,011	0,086
-374,073	-23,883	-0,042	0,018
-373,058	-200,000	-0,004	-0,175
-372,044	-120,911	0,108	-0,013
-371,029	-200,000	0,004	0,021
-370,015	-200,000	0,023	0,094
-369,000	-200,000	0,015	-0,098
-367,985	423,121	-0,068	-0,107
-366,971	2,665	-0,017	0,009
-365,956	10,280	0,096	0,053
-364,942	421,124	-0,075	0,117
-363,927	-133,805	0,046	-0,004
-362,912	-200,000	-0,007	-0,040
-361,898	-200,000	-0,001	-0,011
-360,883	-127,565	-0,018	0,002
-359,869	211,544	0,078	-0,089
-358,854	800,000	-0,035	-0,072
-357,839	50,359	-0,054	0,037
-356,825	330,459	0,154	0,216
-355,810	800,000	-0,017	0,054
-354,796	800,000	-0,033	0,084
-353,781	-146,787	-0,028	0,002
-352,766	-15,584	-0,013	0,006
-351,752	-140,951	0,149	-0,011
-350,737	340,470	-0,125	0,178
-349,723	-200,000	0,007	0,031
-348,708	61,029	-0,070	0,051
-347,693	464,127	0,014	-0,023
-346,679	144,235	-0,065	-0,063
-345,664	132,881	-0,035	-0,033
-344,650	800,000	-0,047	0,134
-343,635	-46,716	0,056	-0,020
-342,620	-180,506	0,235	-0,003
-341,606	40,465	-0,057	-0,037
-340,591	-56,701	-0,091	-0,029
-339,577	-200,000	-0,009	-0,041
-338,562	36,886	0,075	-0,048
-337,548	800,000	-0,022	-0,069
-336,533	-157,702	0,112	0,005
-335,518	599,530	0,082	0,149
-334,504	800,000	0,027	0,060
-333,489	107,665	0,048	-0,041
-332,475	-80,695	-0,229	-0,055
-331,460	800,000	0,031	0,073
-330,445	800,000	-0,044	-0,114
-329,431	594,820	-0,033	0,060
-328,416	-106,385	0,021	0,003
-327,402	499,672	0,058	-0,098
-326,387	-200,000	0,181	0,000
-325,372	67,757	-0,083	-0,061
-324,358	800,000	-0,016	-0,051
-323,343	66,747	-0,115	-0,085
-322,329	800,000	0,043	-0,108
-321,314	250,593	0,053	-0,065
-320,299	-200,000	-0,012	0,039
-319,285	800,000	0,024	-0,061
-318,270	-59,003	-0,058	-0,018
-317,256	800,000	-0,043	0,116
-316,241	195,024	0,142	0,156
-315,226	-11,849	0,136	0,064
-314,212	-200,000	-0,004	-0,136
-313,197	324,593	0,012	-0,017
-312,183	68,228	-0,027	-0,020
-311,168	232,027	-0,170	-0,203
-310,153	-200,000	0,015	0,048
-309,139	-97,787	0,117	0,022
-308,124	800,000	0,021	0,053
-307,110	-85,342	0,012	0,003
-306,095	46,405	-0,070	0,047
-305,080	-200,000	0,011	-0,093
-304,066	19,685	-0,120	0,070
-303,051	-200,000	0,020	-0,111
-302,037	800,000	-0,028	-0,077
-301,022	800,000	-0,040	-0,082
-300,008	-200,000	0,044	0,217
-298,993	-95,273	-0,052	-0,010
-297,978	-10,519	-0,156	0,075
-296,964	160,734	0,106	0,108
-295,949	-126,660	0,144	0,015
-294,935	138,302	0,048	0,045
-293,920	104,890	0,058	0,050
-292,905	-200,000	0,008	0,043
-291,891	47,341	-0,046	-0,031
-290,876	-200,000	0,004	0,113
-289,862	-200,000	0,001	0,037
-288,847	-138,285	0,049	-0,004
-287,832	130,073	-0,020	0,018
-286,818	354,929	0,032	0,046
-285,803	-19,707	0,087	0,039
-284,789	-125,899	0,159	0,017
-283,774	31,918	-0,046	-0,029
-282,759	-200,000	-0,003	0,096
-281,745	529,100	0,063	0,109
-280,730	-200,000	0,004	-0,066
-279,716	495,953	-0,055	-0,092
-278,701	97,687	-0,060	-0,050
-277,686	-200,000	0,013	-0,046
-276,672	-25,981	0,027	-0,011
-275,657	4,328	0,069	-0,037
-274,643	-200,000	-0,036	-0,127
-273,628	800,000	0,006	-0,018
-272,613	230,101	-0,056	-0,066
-271,599	225,760	-0,015	0,018
-270,584	-5,319	-0,015	-0,008
-269,570	-200,000	0,005	0,034
-268,555	547,451	0,045	0,078
-267,540	-25,168	-0,134	-0,057
-266,526	-200,000	0,020	-0,071
-265,511	-200,000	0,001	0,048
-264,497	-9,728	0,010	-0,005
-263,482	180,370	0,094	0,099
-262,467	14,743	-0,068	0,038
-261,453	800,000	-0,032	-0,073
-260,438	800,000	-0,039	0,116
-259,424	389,110	-0,019	0,028
-258,409	-106,007	0,102	0,016
-257,395	181,422	0,093	0,099
-256,380	-14,362	0,019	-0,009
-255,365	141,854	0,089	0,085
-254,351	800,000	0,025	-0,065
-253,336	-200,000	-0,015	0,078
-252,322	-200,000	0,003	-0,024
-251,307	-200,000	-0,004	0,063
-250,292	-79,816	-0,062	0,015
-249,278	-200,000	-0,025	-0,132
-248,263	800,000	0,030	-0,087
-247,249	184,457	-0,017	-0,018
-246,234	214,869	0,022	0,025
-245,219	800,000	-0,034	-0,100
-244,205	60,683	0,056	-0,040
-243,190	-115,502	0,148	-0,020
-242,176	800,000	-0,039	0,105
-241,161	-116,840	0,036	0,005
-240,146	5,455	0,245	-0,130
-239,132	-200,000	-0,041	-0,172
-238,117	143,180	0,033	-0,032
-237,103	-20,697	0,136	-0,060
-236,088	124,130	-0,046	-0,042
-235,073	20,487	-0,155	0,090
-234,059	-1,689	0,082	0,042
-233,044	-63,886	-0,038	-0,011
-232,030	-36,006	-0,044	0,017
-231,015	2,819	0,078	-0,041
-230,000	89,143	-0,048	-0,038
-228,986	27,002	-0,124	0,075
-227,971	-200,000	-0,026	0,230
-226,957	-200,000	-0,001	0,038
-225,942	-200,000	-0,010	0,102
-224,927	144,763	0,054	-0,052
-223,913	-200,000	-0,014	-0,108
-222,898	4,311	0,125	-0,066
-221,884	138,174	0,061	-0,058
-220,869	-200,000	0,021	0,118
-219,855	184,394	0,035	0,038
-218,840	-15,862	0,171	0,079
-217,825	182,452	0,027	-0,029
-216,811	800,000	-0,044	0,103
-215,796	-197,840	-0,130	-0,001
-214,782	-79,887	-0,048	0,011
-213,767	-200,000	-0,003	-0,050
-212,752	-113,952	0,150	-0,021
-211,738	-113,808	-0,008	-0,001
-210,723	800,000	-0,002	0,005
-209,709	800,000	-0,029	-0,071
-208,694	-101,362	-0,112	0,020
-207,679	800,000	-0,057	-0,130
-206,665	-200,000	0,017	-0,153
-205,650	-155,078	0,102	-0,005
-204,636	-41,451	0,040	-0,015
-203,621	-125,406	0,065	0,007
-202,606	-200,000	0,007	0,144
-201,592	-200,000	0,001	-0,054
-200,577	800,000	-0,002	-0,005
-199,563	-200,000	0,022	-0,180
-198,548	-124,044	-0,037	-0,004
-197,533	-200,000	-0,004	0,137
-196,519	73,772	0,137	-0,104
-195,504	123,957	-0,077	-0,069
-194,490	-200,000	0,001	-0,103
-193,475	15,397	-0,087	-0,049
-192,460	493,097	0,100	0,166
-191,446	800,000	0,068	-0,162
-190,431	-200,000	-0,008	0,033
-189,417	-105,103	0,040	-0,006
-188,402	800,000	0,057	-0,125
-187,387	-129,197	-0,065	0,006
-186,373	437,233	0,035	-0,056
-185,358	56,112	0,017	-0,012
-184,344	300,585	-0,084	-0,112
-183,329	194,661	0,014	-0,015
-182,315	10,523	-0,019	-0,010
-181,300	800,000	0,024	0,066
-180,285	-9,286	-0,070	-0,033
-179,271	-134,962	0,095	0,008
-178,256	800,000	0,032	-0,069
-177,242	800,000	0,013	-0,032
-176,227	-200,000	0,006	0,049
-175,212	502,053	0,012	-0,021
-174,198	-68,095	-0,125	0,035
-173,183	25,705	-0,059	0,035
-172,169	196,197	-0,007	-0,008
-171,154	81,493	-0,009	-0,007
-170,139	-200,000	0,024	0,082
-169,125	800,000	0,037	0,088
-168,110	-200,000	-0,022	0,086
-167,096	477,902	0,023	0,037
-166,081	-132,097	-0,101	0,009
-165,066	-62,077	-0,029	0,009
-164,052	800,000	0,030	0,063
-163,037	800,000	-0,010	-0,032
-162,023	800,000	0,004	0,012
-161,008	128,802	-0,028	-0,026
-159,993	800,000	-0,036	-0,081
-158,979	142,318	-0,038	-0,037
-157,964	428,726	0,015	0,023
-156,950	341,204	-0,043	-0,061
-155,935	-200,000	-0,008	0,095
-154,920	15,931	0,025	0,014
-153,906	164,875	-0,035	0,035
-152,891	800,000	0,019	0,044
-151,877	800,000	0,019	-0,050
-150,862	-200,000	0,010	0,060
-149,847	-200,000	-0,015	-0,064
-148,833	481,208	-0,008	0,014
-147,818	-122,866	-0,045	-0,005
-146,804	487,173	0,053	0,088
-145,789	-68,459	-0,028	0,008
-144,775	80,647	0,029	0,023
-143,760	-108,827	-0,110	0,017
-142,745	345,260	0,101	-0,143
-141,731	-48,620	-0,112	0,039
-140,716	-75,637	0,181	-0,046
-139,702	800,000	-0,025	0,077
-138,687	265,385	-0,053	-0,067
-137,672	-24,041	-0,156	-0,067
-136,658	291,798	-0,058	-0,076
-135,643	90,811	0,032	0,026
-134,629	-5,771	0,054	-0,026
-133,614	303,630	-0,051	-0,068
-132,599	-39,501	-0,153	0,057
-131,585	100,907	0,067	0,056
-130,570	367,882	0,109	-0,159
-129,556	90,041	0,021	-0,017
-128,541	800,000	0,059	-0,152
-127,526	-63,312	0,099	-0,029
-126,512	-64,746	0,072	0,021
-125,497	800,000	0,063	0,138
-124,483	244,093	0,042	-0,051
-123,468	-200,000	0,017	-0,085
-122,453	-200,000	-0,119	0,000
-121,439	726,852	-0,052	0,101
-120,424	128,900	-0,054	-0,050
-119,410	-198,689	0,136	-0,001
-118,395	-200,000	0,000	0,155
-117,380	300,074	0,117	0,155
-116,366	402,636	0,010	-0,015
-115,351	92,553	-0,122	-0,099
-114,337	-120,647	-0,098	-0,012
-113,322	75,486	0,095	-0,072
-112,307	35,198	0,112	0,071
-111,293	-80,108	0,141	0,034
-110,278	800,000	-0,024	0,076
-109,264	-135,996	-0,093	0,008
-108,249	153,978	0,079	-0,078
-107,234	-200,000	-0,020	0,064
-106,220	92,716	-0,106	-0,086
-105,205	-116,268	0,017	-0,002
-104,191	-200,000	0,023	-0,087
-103,176	800,000	-0,013	-0,037
-102,162	159,190	-0,095	0,095
-101,147	547,331	-0,085	0,147
-100,132	749,390	0,021	-0,042
-99,118	-5,887	-0,141	0,069
-98,103	800,000	-0,001	0,004
-97,089	72,361	-0,101	0,076
-96,074	800,000	-0,004	-0,011
-95,059	-33,011	-0,074	-0,029
-94,045	-10,079	-0,108	-0,051
-93,030	-114,950	0,022	0,003
-92,016	-105,654	-0,124	-0,020
-91,001	42,925	-0,046	-0,030
-89,986	21,066	-0,082	0,048
-88,972	-65,655	0,102	0,029
-87,957	136,915	-0,033	0,031
-86,943	204,693	0,034	-0,038
-85,928	-200,000	-0,128	-0,000
-84,913	55,531	-0,090	-0,062
-83,899	800,000	-0,027	-0,077
-82,884	634,367	0,064	0,117
-81,870	259,792	-0,037	0,046
-80,855	800,000	0,056	0,136
-79,840	197,071	-0,045	0,049
-78,826	-11,637	-0,101	-0,047
-77,811	406,527	-0,032	0,048
-76,797	180,821	0,055	0,058
-75,782	3,134	-0,113	0,059
-74,767	-101,980	0,039	0,007
-73,753	94,578	0,074	-0,060
-72,738	-200,000	-0,133	0,000
-71,724	-61,189	-0,055	-0,016
-70,709	632,243	0,048	-0,088
-69,694	800,000	-0,042	-0,110
-68,680	-68,854	0,007	-0,002
-67,665	307,657	0,052	0,070
-66,651	-200,000	0,036	0,133
-65,636	800,000	-0,019	0,050
-64,622	-200,000	-0,018	-0,061
-63,607	800,000	0,008	0,020
-62,592	254,572	0,099	0,122
-61,578	88,258	-0,047	0,038
-60,563	11,369	0,149	0,082
-59,549	77,689	0,073	0,056
-58,534	71,998	-2,539	-1,894
-57,519	104,350	0,349	-0,295
-56,505	-200,000	-1,575	-5,340
-55,490	379,168	1,334	1,967
-54,476	800,000	5,268	11,197
-53,461	-200,000	21,947	346,702
-52,446	800,000	759,881	2297,019
-51,432	515,050	1646,143	2768,813
-50,417	98,164	1609,940	1329,867
-49,403	66,032	1266,954	921,363
-48,388	23,196	1017,962	598,403
-47,373	19,240	985,218	566,084
-46,359	12,869	972,182	537,727
-45,344	8,634	968,969	522,052
-44,330	9,136	966,759	522,484
-43,315	8,098	965,018	518,130
-42,300	7,998	964,051	517,266
-41,286	8,068	962,825	516,815
-40,271	8,044	961,844	516,190
-39,257	8,073	960,802	515,702
-38,242	8,004	960,128	515,097
-37,227	8,025	959,422	514,768
-36,213	7,939	958,636	514,043
-35,198	8,054	957,645	513,866
-34,184	8,061	956,782	513,406
-33,169	7,984	955,929	512,678
-32,154	8,101	955,042	512,560
-31,140	8,125	954,171	512,148
-30,125	8,102	953,474	511,681
-29,111	8,054	952,515	510,991
-28,096	8,120	951,954	510,883
-27,082	8,056	951,338	510,328
-26,067	8,017	950,696	509,836
-25,052	8,023	949,660	509,280
-24,038	7,990	949,048	508,824
-23,023	7,962	948,522	508,432
-22,009	8,062	947,777	508,333
-20,994	8,118	947,133	508,148
-19,979	8,093	946,491	507,704
-18,965	8,031	945,950	507,196
-17,950	8,015	945,257	506,753
-16,936	7,918	944,831	506,192
-15,921	7,953	944,088	505,887
-14,906	7,911	943,203	505,258
-13,892	7,977	942,598	505,126
-12,877	7,912	942,140	504,652
-11,863	7,912	941,405	504,238
-10,848	7,942	940,754	503,966
-9,833	7,980	940,549	503,956
-8,819	7,978	939,811	503,533
-7,804	7,967	939,099	503,097
-6,790	7,899	938,740	502,669
-5,775	7,899	938,147	502,332
-4,760	7,918	937,393	501,967
-3,746	7,930	936,726	501,630
-2,731	7,817	935,925	500,824
-1,717	7,774	935,426	500,398
-0,702	7,760	934,969	500,091
0,313	7,647	934,142	500,046
1,327	10,967	931,952	509,300
2,342	19,511	780,210	448,775
3,356	14,738	448,303	250,651
4,371	-11,203	312,665	147,218
5,386	-14,945	295,275	135,232
6,400	-17,036	289,125	130,330
7,415	-17,104	286,313	128,983
8,429	-18,203	284,468	127,069
9,444	-18,199	283,598	126,673
10,459	-18,210	282,863	126,322
11,473	-18,149	282,394	126,160
12,488	-18,134	281,975	125,976
13,502	-18,033	281,248	125,737
14,517	-17,929	280,919	125,680
15,531	-18,110	280,572	125,340
16,546	-18,083	280,150	125,165
17,561	-18,233	279,640	124,783
18,575	-18,086	279,363	124,789
19,590	-18,055	278,948	124,622
20,604	-18,129	278,864	124,503
21,619	-18,056	278,302	124,310
22,634	-18,060	278,041	124,179
23,648	-18,104	277,774	124,007
24,663	-18,015	277,447	123,934
25,677	-18,104	277,198	123,727
26,692	-17,998	276,849	123,661
27,707	-18,099	276,625	123,454
28,721	-18,014	276,348	123,400
29,736	-18,053	276,060	123,223
30,750	-18,162	275,812	122,999
31,765	-18,220	275,427	122,762
32,780	-18,168	275,441	122,806
33,794	-18,263	275,132	122,568
34,809	-18,221	274,643	122,378
35,823	-18,024	274,445	122,464
36,838	-18,215	274,544	122,318
37,853	-18,068	274,111	122,252
38,867	-17,981	273,725	122,151
39,882	-17,964	273,442	122,029
40,896	-17,997	273,322	121,934
41,911	-18,056	273,021	121,734
42,926	-18,104	272,821	121,589
43,940	-18,131	272,444	121,385
44,955	-17,918	272,177	121,453
45,969	-18,058	272,212	121,328
46,984	-18,044	271,884	121,184
47,999	-18,004	271,711	121,133
49,013	-17,968	271,586	121,100
50,028	-17,981	271,390	120,990
51,042	-17,988	271,016	120,806
52,057	-17,983	270,842	120,722
53,071	-17,803	270,555	120,750
54,086	-17,936	270,348	120,524
55,101	-18,044	270,212	120,353
56,115	-18,007	269,961	120,264
57,130	-17,958	269,587	120,132
58,144	-18,096	269,272	119,854
59,159	-18,270	269,196	119,649
60,174	-17,986	268,801	119,724
61,188	-18,023	268,774	119,667
62,203	-17,861	268,413	119,644
63,217	-18,103	268,284	119,354
64,232	-17,882	267,893	119,372
65,247	-18,095	267,808	119,129
66,261	-18,155	267,626	118,982
67,276	-18,045	267,206	118,885
68,290	-17,761	267,023	119,052
69,305	-17,757	266,871	118,978
70,320	-17,834	266,587	118,770
71,334	-17,875	266,329	118,607
72,349	-18,020	266,101	118,364
73,363	-18,126	265,822	118,133
74,378	-17,932	265,595	118,197
75,393	-17,954	265,383	118,072
76,407	-17,841	265,208	118,086
77,422	-17,945	265,070	117,921
78,436	-17,831	264,776	117,882
79,451	-17,890	264,493	117,693
80,466	-17,891	264,225	117,561
81,480	-17,954	264,044	117,414
82,495	-18,030	264,022	117,325
83,509	-18,201	263,877	117,097
84,524	-18,042	263,580	117,097
85,539	-17,903	263,476	117,166
86,553	-17,931	263,173	116,995
87,568	-17,971	262,956	116,852
88,582	-17,890	262,721	116,811
89,597	-17,826	262,420	116,723
90,611	-18,003	262,286	116,495
91,626	-17,962	262,073	116,426
92,641	-17,867	261,859	116,406
93,655	-17,794	261,519	116,309
94,670	-17,981	261,392	116,076
95,684	-17,944	261,323	116,068
96,699	-17,793	260,988	116,043
97,714	-17,888	260,823	115,875
98,728	-17,911	260,674	115,778
99,743	-17,788	260,507	115,802
100,757	-17,812	260,187	115,629
101,772	-17,985	260,076	115,416
102,787	-18,047	259,837	115,245
103,801	-18,035	259,631	115,154
104,816	-17,834	259,414	115,224
105,830	-17,970	259,318	115,051
106,845	-17,852	258,868	114,946
107,860	-17,777	258,832	114,985
108,874	-17,760	258,573	114,875
109,889	-17,921	258,353	114,626
110,903	-17,834	258,076	114,569
111,918	-17,786	257,917	114,529
112,933	-17,941	257,642	114,262
113,947	-17,835	257,512	114,287
114,962	-18,083	257,328	113,978
115,976	-17,777	257,214	114,185
116,991	-17,934	257,017	113,950
118,006	-17,810	256,713	113,914
119,020	-17,880	256,507	113,751
120,035	-17,924	256,409	113,660
121,049	-17,828	256,146	113,615
122,064	-17,749	256,173	113,686
123,079	-17,924	255,898	113,402
124,093	-17,954	255,720	113,287
125,108	-17,721	255,404	113,339
126,122	-17,772	255,297	113,237
127,137	-17,822	255,129	113,109
128,151	-17,699	254,766	113,045
129,166	-17,886	254,752	112,866
130,181	-17,757	254,402	112,813
131,195	-17,868	254,381	112,698
132,210	-17,865	254,173	112,598
133,224	-18,002	253,953	112,373
134,239	-17,850	253,758	112,407
135,254	-17,914	253,506	112,230
136,268	-17,756	253,280	112,256
137,283	-17,856	253,112	112,086
138,297	-17,714	252,964	112,132
139,312	-17,751	252,684	111,967
140,327	-17,870	252,348	111,705
141,341	-17,937	252,314	111,623
142,356	-17,953	252,027	111,472
143,370	-17,681	251,853	111,618
144,385	-17,697	251,737	111,543
145,400	-17,851	251,529	111,309
146,414	-17,998	251,372	111,105
147,429	-17,737	251,064	111,181
148,443	-17,718	250,909	111,118
149,458	-18,002	250,881	110,855
150,473	-17,666	250,571	110,993
151,487	-17,768	250,445	110,841
152,502	-17,893	250,146	110,593
153,516	-17,925	249,949	110,468
154,531	-17,745	249,859	110,572
155,546	-17,912	249,777	110,384
156,560	-17,908	249,560	110,281
157,575	-17,777	249,424	110,323
158,589	-18,091	249,190	109,944
159,604	-17,813	248,792	109,993
160,619	-17,897	248,764	109,900
161,633	-17,892	248,484	109,771
162,648	-17,804	248,323	109,763
163,662	-17,938	248,367	109,661
164,677	-17,744	248,072	109,684
165,692	-17,918	247,964	109,480
166,706	-17,637	247,689	109,584
167,721	-18,011	247,563	109,206
168,735	-17,769	247,361	109,309
169,750	-17,957	247,397	109,158
170,764	-17,750	247,126	109,201
171,779	-17,718	246,998	109,162
172,794	-17,678	246,836	109,114
173,808	-17,841	246,614	108,871
174,823	-17,885	246,599	108,818
175,837	-17,694	246,255	108,815
176,852	-17,875	246,028	108,554
177,867	-17,895	245,923	108,482
178,881	-17,680	245,674	108,541
179,896	-17,894	245,537	108,293
180,910	-17,777	245,279	108,267
181,925	-17,856	245,278	108,191
182,940	-17,800	244,918	108,069
183,954	-17,706	244,798	108,084
184,969	-17,748	244,724	108,007
185,983	-17,907	244,530	107,781
186,998	-17,738	244,404	107,855
188,013	-17,611	244,076	107,805
189,027	-17,792	243,933	107,583
190,042	-17,996	243,807	107,350
191,056	-17,889	243,505	107,296
192,071	-17,625	243,432	107,471
193,086	-17,766	243,316	107,294
194,100	-17,925	243,137	107,075
195,115	-17,600	242,775	107,172
196,129	-17,633	242,640	107,076
197,144	-17,747	242,509	106,915
198,159	-17,780	242,305	106,789
199,173	-17,691	242,071	106,749
200,188	-17,710	242,052	106,716
201,202	-17,714	241,922	106,645
202,217	-17,652	241,788	106,627
203,232	-17,618	241,630	106,576
204,246	-17,675	241,333	106,389
205,261	-17,577	241,136	106,373
206,275	-16,255	241,699	107,689
207,290	-11,782	243,226	112,023
208,304	-5,878	245,098	117,740
209,319	-3,231	245,663	120,182
210,334	-2,373	245,708	120,900
211,348	-2,022	245,852	121,248
212,363	-1,249	245,755	121,826
213,377	-0,437	245,875	122,542
214,392	-0,140	245,797	122,737
215,407	0,334	245,938	123,186
216,421	0,521	245,831	123,275
217,436	0,602	245,729	123,280
218,450	0,476	245,567	123,084
219,465	0,393	245,500	122,971
220,480	0,618	245,298	123,044
221,494	0,401	245,085	122,748
222,509	0,071	244,895	122,372
223,523	0,283	244,602	122,388
224,538	0,061	244,438	122,114
225,553	0,074	244,227	122,008
226,567	-0,069	244,112	121,823
227,582	-0,069	244,001	121,757
228,596	0,024	243,751	121,696
229,611	0,023	243,619	121,619
230,626	-0,099	243,519	121,459
231,640	0,038	243,381	121,491
232,655	-0,172	243,068	121,154
233,669	-0,131	242,963	121,123
234,684	-0,016	242,729	121,090
235,699	0,058	242,716	121,132
236,713	-0,089	242,581	120,935
237,728	0,149	242,349	121,000
238,742	0,013	242,143	120,777
239,757	-0,135	242,071	120,611
240,772	-0,202	241,852	120,436
241,786	-0,040	241,668	120,465
242,801	-0,163	241,650	120,346
243,815	-0,314	241,542	120,160
244,830	-0,066	241,299	120,228
245,844	-0,174	241,085	120,024
246,859	0,168	240,852	120,172
247,874	0,098	240,682	120,020
248,888	-0,010	240,567	119,865
249,903	0,022	240,462	119,828
250,917	0,118	240,255	119,791
251,932	-0,124	240,286	119,602
252,947	0,038	239,998	119,578
253,961	0,028	239,748	119,435
254,976	-0,046	239,618	119,300
255,990	-0,053	239,532	119,241
257,005	-0,020	239,434	119,208
258,020	-0,102	239,333	119,082
259,034	-0,066	239,101	118,984
260,049	0,265	238,878	119,126
261,063	-0,174	238,715	118,685
262,078	0,053	238,593	118,794
263,093	-0,051	238,382	118,596
264,107	-0,037	238,196	118,504
265,122	0,048	238,020	118,473
266,136	0,006	237,926	118,383
267,151	0,013	237,915	118,372
268,166	-0,048	237,592	118,153
269,180	0,082	237,491	118,195
270,195	0,066	237,349	118,101
271,209	0,179	237,136	118,073
272,224	0,096	237,091	117,975
273,239	0,168	236,817	117,885
274,253	0,084	236,710	117,755
275,268	0,064	236,454	117,601
276,282	-0,029	236,449	117,515
277,297	0,052	236,234	117,462
278,312	-0,139	236,115	117,242
279,326	-0,048	235,951	117,221
280,341	0,134	235,766	117,262
281,355	0,066	235,579	117,105
282,370	0,157	235,479	117,116
283,384	0,147	235,224	116,971
284,399	-0,158	235,249	116,734
285,414	0,080	235,136	116,854
286,428	0,031	234,938	116,707
287,443	0,145	234,603	116,619
288,457	0,137	234,617	116,610
289,472	0,105	234,415	116,474
290,487	0,046	234,272	116,346
291,501	0,168	234,128	116,359
292,516	0,286	233,970	116,362
293,530	0,231	233,848	116,248
294,545	0,042	233,758	116,047
295,560	-0,055	233,706	115,935
296,574	0,317	233,449	116,085
297,589	0,261	233,157	115,887
298,603	-0,003	233,200	115,693
299,618	0,210	232,902	115,700
300,633	0,144	232,782	115,579
301,647	0,232	232,821	115,656
302,662	0,239	232,585	115,534
303,676	0,301	232,399	115,479
304,691	0,248	232,325	115,391
305,706	0,528	232,061	115,465
306,720	0,482	231,881	115,330
307,735	0,546	231,663	115,260
308,749	0,268	231,734	115,072
309,764	0,333	231,578	115,034
310,779	0,248	231,522	114,930
311,793	0,415	231,200	114,888
312,808	0,244	231,117	114,706
313,822	0,336	230,917	114,667
314,837	0,412	230,795	114,654
315,852	0,390	230,528	114,494
316,866	0,372	230,398	114,406
317,881	0,411	230,337	114,395
318,895	0,175	230,209	114,142
319,910	0,114	230,052	114,007
320,925	0,351	230,018	114,160
321,939	0,373	229,783	114,050
322,954	0,514	229,632	114,072
323,968	0,397	229,522	113,919
324,983	0,356	229,436	113,835
325,997	0,316	229,196	113,675
327,012	0,493	229,039	113,721
328,027	0,231	228,854	113,421
329,041	0,523	228,689	113,550
330,056	0,377	228,585	113,378
331,070	0,316	228,631	113,344
332,085	0,505	228,254	113,290
333,100	0,538	228,228	113,292
334,114	0,404	227,882	113,009
335,129	0,438	227,833	113,000
336,143	0,648	227,608	113,037
337,158	0,526	227,642	112,952
338,173	0,534	227,431	112,843
339,187	0,534	227,373	112,805
340,202	0,529	227,173	112,691
341,216	0,766	227,064	112,805
342,231	0,460	226,903	112,485
343,246	0,377	226,943	112,433
344,260	0,635	226,703	112,498
345,275	0,716	226,620	112,507
346,289	0,722	226,373	112,379
347,304	0,721	226,182	112,273
348,319	0,406	226,002	111,938
349,333	0,589	225,807	111,969
350,348	0,467	225,735	111,832
351,362	0,609	225,682	111,901
352,377	0,691	225,469	111,847
353,392	0,571	225,352	111,690
354,406	0,784	225,173	111,750
355,421	192,634	1310,944	1377,996
356,435	154,319	1443,087	1377,838
