DTS Sentinel unit serial number:	SN410029Multiplexer serial number:	ORYXHardware model number:	OX2-SRSoftware version number:	ORYX F/W v4,00 Oryx Data Collector v3.7.2.0data status	okinstallation	B5 Nyhavnadifferential loss correction	single-endedforward channel	channel 2reverse channel	N/Adate	2023/12/12time	13:57:13forward acquisition time	300,00reverse acquisition time	0,00gamma	499,1914k internal	0,3157k external	0,3157temperature offset calibration	1,0000default loss term (dB/km)	0,3820temperature slope calibration	1,0000multiplexer offset coefficient	1,0000multiplexer slope coefficient	1,0000fibre end	0,00T internal ref (°C)	15,75T ext. ref 1 (°C)	-0,29T ext. ref 2 (°C)	-0,52length (m)	temperature (°C)	Stokes	anti-Stokes-744,400	-200,000	0,024	0,099
-743,385	-59,719	-0,184	-0,058
-742,371	-2,562	0,136	0,070
-741,356	800,000	-0,054	0,120
-740,342	408,276	-0,072	0,112
-739,327	-158,095	-0,419	0,018
-738,312	452,190	-0,047	-0,077
-737,298	-110,736	-0,238	-0,036
-736,283	-18,630	0,158	-0,073
-735,269	115,275	-0,148	0,133
-734,254	-122,734	-0,021	-0,002
-733,239	3,032	-0,395	-0,211
-732,225	39,162	-0,043	0,028
-731,210	-69,236	-0,126	0,036
-730,196	-200,000	0,015	-0,149
-729,181	92,273	-0,021	-0,017
-728,167	-9,544	0,082	-0,040
-727,152	-80,623	0,059	0,014
-726,137	88,345	-0,101	-0,082
-725,123	-64,302	-0,104	0,031
-724,108	-120,823	-0,165	-0,020
-723,094	-88,617	-0,049	0,011
-722,079	-200,000	-0,016	-0,102
-721,064	-200,000	0,006	-0,096
-720,050	-125,671	-0,125	-0,014
-719,035	-200,000	0,030	0,127
-718,021	-200,000	-0,003	0,038
-717,006	82,727	-0,034	-0,027
-715,991	-34,035	0,046	-0,019
-714,977	64,825	-0,126	-0,094
-713,962	800,000	0,067	-0,153
-712,948	-99,636	0,077	-0,014
-711,933	-200,000	0,010	0,064
-710,918	658,225	-0,038	0,071
-709,904	166,857	-0,062	0,065
-708,889	211,447	-0,066	0,076
-707,875	-60,384	-0,006	0,002
-706,860	44,926	-0,072	0,049
-705,845	-83,856	0,086	0,020
-704,831	180,891	-0,101	0,110
-703,816	-96,832	-0,090	-0,017
-702,802	-200,000	-0,010	0,038
-701,787	597,485	-0,068	-0,124
-700,772	231,931	-0,114	-0,138
-699,758	800,000	-0,049	0,106
-698,743	-93,724	-0,146	-0,029
-697,729	444,001	-0,048	-0,078
-696,714	-200,000	-0,017	-0,094
-695,699	75,218	-0,047	-0,036
-694,685	800,000	0,079	-0,240
-693,670	583,695	0,044	-0,080
-692,656	-163,154	0,077	-0,003
-691,641	-60,801	-0,041	-0,013
-690,627	-178,076	0,070	0,001
-689,612	19,138	-0,117	-0,069
-688,597	-200,000	-0,031	-0,126
-687,583	86,086	-0,140	-0,114
-686,568	-166,673	-0,151	-0,005
-685,554	200,831	0,079	0,090
-684,539	-80,102	-0,011	0,003
-683,524	-200,000	-0,010	-0,091
-682,510	-200,000	0,027	-0,129
-681,495	800,000	0,041	0,088
-680,481	76,042	-0,112	0,087
-679,466	-13,328	-0,039	0,018
-678,451	-151,490	-0,061	0,003
-677,437	-96,548	0,025	0,005
-676,422	284,969	0,026	0,034
-675,408	-108,015	0,027	-0,004
-674,393	235,933	-0,089	0,109
-673,378	-200,000	0,015	-0,126
-672,364	-200,000	0,017	-0,137
-671,349	-90,410	-0,066	-0,014
-670,335	-200,000	-0,014	0,072
-669,320	74,312	-0,077	0,060
-668,305	496,819	-0,015	-0,025
-667,291	119,917	-0,068	-0,062
-666,276	51,752	-0,030	0,021
-665,262	-200,000	0,004	-0,029
-664,247	-200,000	-0,000	-0,088
-663,232	714,332	-0,085	-0,167
-662,218	-95,699	0,157	-0,031
-661,203	-200,000	-0,020	0,134
-660,189	-200,000	0,012	-0,071
-659,174	-200,000	0,002	-0,171
-658,159	1,608	-0,144	-0,076
-657,145	164,322	-0,089	-0,092
-656,130	249,627	-0,103	-0,129
-655,116	-200,000	-0,003	0,092
-654,101	800,000	0,133	0,299
-653,086	-169,896	-0,092	0,002
-652,072	-200,000	0,000	-0,119
-651,057	-200,000	0,012	0,100
-650,043	256,562	-0,064	-0,080
-649,028	506,659	-0,015	-0,026
-648,014	319,653	-0,090	-0,126
-646,999	312,010	0,084	-0,115
-645,984	800,000	0,030	-0,072
-644,970	1,267	0,137	0,072
-643,955	-200,000	-0,014	0,149
-642,941	-200,000	-0,001	0,022
-641,926	-200,000	0,041	-0,170
-640,911	46,820	0,093	-0,063
-639,897	109,620	-0,056	-0,050
-638,882	-185,310	0,058	-0,001
-637,868	180,785	-0,066	-0,071
-636,853	800,000	0,021	-0,069
-635,838	-200,000	0,008	0,045
-634,824	800,000	0,037	-0,092
-633,809	296,409	0,077	-0,104
-632,795	-200,000	-0,000	0,037
-631,780	-200,000	0,021	-0,069
-630,765	-200,000	-0,030	-0,107
-629,751	160,394	-0,041	-0,042
-628,736	-123,463	-0,113	0,013
-627,722	-200,000	0,015	0,067
-626,707	-80,245	0,180	0,044
-625,692	-118,225	0,054	0,007
-624,678	-152,738	-0,004	-0,000
-623,663	-16,432	-0,161	0,075
-622,649	-200,000	0,012	0,072
-621,634	382,811	-0,037	-0,056
-620,619	155,976	0,032	0,032
-619,605	-13,037	0,107	0,051
-618,590	-17,465	0,067	-0,031
-617,576	-171,227	0,161	0,004
-616,561	69,271	0,088	0,066
-615,546	-59,701	-0,050	0,016
-614,532	-200,000	-0,014	-0,153
-613,517	80,425	-0,077	0,060
-612,503	800,000	0,029	-0,068
-611,488	191,960	-0,102	-0,113
-610,474	800,000	0,047	0,111
-609,459	715,235	0,024	0,047
-608,444	-17,714	-0,048	-0,022
-607,430	-47,802	-0,119	0,042
-606,415	-25,844	-0,088	0,038
-605,401	-90,186	0,044	0,009
-604,386	-109,301	0,038	0,006
-603,371	64,027	-0,040	-0,029
-602,357	10,936	0,052	-0,029
-601,342	162,661	-0,059	-0,061
-600,328	-157,426	-0,075	-0,003
-599,313	-131,694	-0,086	-0,008
-598,298	-200,000	-0,012	-0,116
-597,284	-110,222	0,129	-0,020
-596,269	13,406	-0,131	-0,074
-595,255	-200,000	-0,008	-0,154
-594,240	800,000	-0,024	-0,067
-593,225	87,266	-0,014	0,011
-592,211	-54,202	-0,119	0,039
-591,196	229,727	0,069	-0,083
-590,182	81,780	-0,047	0,037
-589,167	-10,330	0,088	0,043
-588,152	800,000	-0,026	0,082
-587,138	186,976	0,071	-0,077
-586,123	92,641	0,107	0,088
-585,109	106,264	-0,035	-0,030
-584,094	-137,269	0,124	0,010
-583,079	40,726	-0,095	0,062
-582,065	-200,000	0,015	0,103
-581,050	141,131	-0,080	0,077
-580,036	-89,973	-0,068	0,014
-579,021	-71,472	0,215	0,058
-578,006	800,000	0,046	0,138
-576,992	83,859	-0,075	-0,060
-575,977	-200,000	0,012	0,103
-574,963	-200,000	-0,003	0,043
-573,948	-97,792	-0,132	0,025
-572,934	-200,000	-0,007	-0,035
-571,919	211,935	-0,083	-0,096
-570,904	-108,155	-0,104	0,016
-569,890	-133,496	-0,052	-0,005
-568,875	575,896	0,002	-0,004
-567,861	-80,420	-0,061	-0,015
-566,846	-200,000	0,033	0,108
-565,831	694,214	-0,043	0,084
-564,817	-200,000	0,008	0,095
-563,802	-200,000	-0,017	-0,072
-562,788	-40,269	-0,081	0,031
-561,773	-200,000	-0,024	-0,082
-560,758	114,059	0,041	-0,037
-559,744	-62,520	0,037	0,011
-558,729	-91,176	0,101	0,021
-557,715	-200,000	0,009	0,170
-556,700	71,831	-0,225	-0,171
-555,685	82,933	-0,035	0,028
-554,671	-64,359	0,054	-0,016
-553,656	-200,000	-0,020	0,121
-552,642	250,284	0,060	0,075
-551,627	59,542	-0,104	-0,075
-550,612	333,607	0,034	0,048
-549,598	25,761	0,033	-0,020
-548,583	-200,000	0,013	-0,066
-547,569	-134,430	-0,084	-0,007
-546,554	-80,944	0,166	0,040
-545,539	667,919	-0,035	0,067
-544,525	17,776	0,142	0,082
-543,510	114,220	-0,063	-0,056
-542,496	-200,000	0,071	-0,231
-541,481	398,155	0,053	-0,081
-540,466	104,620	-0,040	0,035
-539,452	158,903	-0,009	0,009
-538,437	800,000	0,058	0,134
-537,423	-200,000	-0,019	0,089
-536,408	-200,000	-0,020	0,081
-535,393	-28,265	-0,101	-0,043
-534,379	800,000	0,021	0,049
-533,364	58,679	-0,071	-0,051
-532,350	-200,000	0,009	-0,093
-531,335	-149,475	-0,080	0,005
-530,321	800,000	-0,029	0,071
-529,306	52,366	-0,107	0,074
-528,291	-28,038	-0,076	0,032
-527,277	-83,008	-0,121	-0,028
-526,262	677,560	0,034	0,064
-525,248	-24,805	0,134	0,058
-524,233	800,000	0,038	0,082
-523,218	800,000	0,016	0,049
-522,204	-31,181	-0,103	0,042
-521,189	800,000	-0,027	-0,060
-520,175	-200,000	0,021	0,073
-519,160	761,693	-0,033	-0,066
-518,145	-151,892	0,041	0,002
-517,131	-76,393	-0,055	0,014
-516,116	800,000	-0,046	0,110
-515,102	-108,824	-0,006	0,001
-514,087	38,385	-0,022	-0,014
-513,072	-200,000	0,018	-0,145
-512,058	-20,321	-0,130	-0,058
-511,043	783,409	-0,016	-0,031
-510,029	111,376	0,024	-0,021
-509,014	-88,524	0,076	-0,016
-507,999	-78,462	0,131	-0,033
-506,985	15,768	0,053	-0,030
-505,970	-182,368	-0,131	0,002
-504,956	686,624	-0,048	-0,091
-503,941	34,140	-0,054	-0,035
-502,926	-67,280	0,129	-0,037
-501,912	192,117	-0,069	0,076
-500,897	73,635	0,110	0,084
-499,883	115,452	0,078	0,070
-498,868	183,329	0,021	-0,023
-497,853	800,000	-0,044	-0,115
-496,839	284,004	0,069	-0,091
-495,824	-80,021	0,072	0,018
-494,810	800,000	-0,003	0,008
-493,795	-42,519	-0,081	0,030
-492,781	800,000	0,078	0,185
-491,766	-200,000	-0,020	-0,067
-490,751	122,969	-0,083	-0,076
-489,737	30,833	0,059	-0,037
-488,722	800,000	-0,005	-0,012
-487,708	53,963	-0,031	-0,021
-486,693	23,670	-0,086	-0,051
-485,678	-105,948	0,220	0,036
-484,664	-83,634	-0,164	-0,038
-483,649	-200,000	-0,001	-0,020
-482,635	38,013	-0,124	-0,080
-481,620	-80,438	0,048	-0,012
-480,605	800,000	-0,029	0,075
-479,591	-153,223	0,026	0,001
-478,576	-49,526	-0,112	0,039
-477,562	712,808	-0,056	0,108
-476,547	-200,000	-0,015	-0,079
-475,532	-200,000	-0,001	-0,106
-474,518	-40,594	0,095	-0,036
-473,503	-7,978	-0,052	0,026
-472,489	92,170	-0,073	0,060
-471,474	607,721	0,078	-0,142
-470,459	-35,434	-0,073	-0,029
-469,445	-135,354	-0,161	0,014
-468,430	75,496	0,012	-0,009
-467,416	-200,000	0,006	-0,096
-466,401	800,000	-0,011	0,025
-465,386	214,768	0,058	0,067
-464,372	31,341	0,076	-0,048
-463,357	-16,850	0,103	-0,047
-462,343	-10,388	-0,082	-0,040
-461,328	577,530	0,027	0,049
-460,313	135,688	-0,051	0,048
-459,299	-200,000	-0,010	0,086
-458,284	-200,000	0,041	0,162
-457,270	-200,000	0,003	-0,062
-456,255	268,155	0,036	-0,047
-455,241	-74,505	-0,039	0,010
-454,226	41,554	-0,134	-0,088
-453,211	369,315	0,040	-0,060
-452,197	800,000	0,028	0,087
-451,182	-200,000	0,014	-0,068
-450,168	-158,743	0,047	-0,002
-449,153	27,323	-0,118	0,072
-448,138	261,307	-0,066	0,083
-447,124	-58,008	0,013	0,004
-446,109	507,976	0,031	-0,053
-445,095	-200,000	-0,014	0,058
-444,080	568,366	-0,072	-0,128
-443,065	-108,075	0,009	0,001
-442,051	800,000	-0,032	0,065
-441,036	-26,099	-0,077	0,033
-440,022	288,244	0,061	-0,081
-439,007	-200,000	0,021	-0,162
-437,992	-122,592	0,152	0,018
-436,978	119,630	-0,100	0,091
-435,963	-36,963	-0,093	-0,036
-434,949	800,000	-0,021	0,051
-433,934	-30,260	-0,090	0,037
-432,919	249,286	0,035	0,043
-431,905	-75,354	0,032	-0,008
-430,890	800,000	-0,057	0,116
-429,876	-61,946	-0,070	0,021
-428,861	272,368	0,063	0,081
-427,846	-110,202	0,050	-0,008
-426,832	800,000	-0,016	0,037
-425,817	12,751	-0,068	-0,038
-424,803	226,067	0,028	0,033
-423,788	157,921	0,158	0,160
-422,773	131,036	0,037	0,035
-421,759	214,197	0,049	-0,056
-420,744	-200,000	0,025	0,083
-419,730	-200,000	0,002	0,008
-418,715	-200,000	0,006	-0,051
-417,701	-23,961	0,126	0,054
-416,686	-200,000	-0,003	0,154
-415,671	800,000	0,039	0,107
-414,657	43,920	0,080	0,053
-413,642	473,063	-0,014	0,023
-412,628	-68,219	0,083	0,023
-411,613	-200,000	0,010	-0,163
-410,598	-49,491	-0,107	-0,037
-409,584	108,359	0,116	-0,101
-408,569	-87,237	-0,037	0,008
-407,555	800,000	0,024	0,058
-406,540	83,227	-0,056	-0,044
-405,525	107,497	-0,057	-0,049
-404,511	800,000	0,021	0,055
-403,496	-59,650	0,088	0,027
-402,482	211,181	0,028	-0,032
-401,467	-200,000	0,033	0,127
-400,452	779,789	0,017	0,034
-399,438	-42,153	-0,064	0,024
-398,423	-129,161	-0,034	-0,003
-397,409	-37,499	-0,073	-0,028
-396,394	7,647	0,156	0,084
-395,379	-29,240	0,076	0,032
-394,365	-200,000	0,003	-0,034
-393,350	-200,000	0,013	-0,068
-392,336	83,402	0,104	0,082
-391,321	-176,355	-0,169	-0,003
-390,306	-200,000	-0,027	-0,192
-389,292	259,605	0,046	-0,058
-388,277	74,377	0,049	0,037
-387,263	800,000	-0,004	0,011
-386,248	131,597	-0,059	-0,055
-385,233	800,000	0,006	-0,018
-384,219	326,788	0,024	-0,034
-383,204	138,658	-0,115	0,110
-382,190	59,050	0,097	-0,069
-381,175	-187,540	-0,024	0,000
-380,160	-200,000	-0,001	-0,029
-379,146	147,782	-0,004	-0,004
-378,131	45,599	-0,086	-0,058
-377,117	-72,995	-0,149	-0,040
-376,102	800,000	-0,035	-0,098
-375,088	180,851	0,017	-0,018
-374,073	800,000	0,046	-0,115
-373,058	-63,319	0,182	0,054
-372,044	-200,000	0,037	0,147
-371,029	267,583	0,060	0,077
-370,015	800,000	0,057	0,173
-369,000	-79,317	0,052	0,013
-367,985	163,405	-0,050	-0,051
-366,971	74,321	0,003	-0,003
-365,956	-113,347	0,135	-0,019
-364,942	-171,818	-0,069	-0,002
-363,927	-15,430	0,112	-0,052
-362,912	-200,000	0,018	-0,081
-361,898	6,295	-0,046	0,025
-360,883	800,000	0,047	-0,098
-359,869	-200,000	0,007	-0,125
-358,854	-99,434	-0,127	-0,023
-357,839	-200,000	-0,006	0,067
-356,825	-41,848	0,105	-0,039
-355,810	-34,891	0,050	-0,020
-354,796	-16,615	-0,048	0,022
-353,781	-192,025	-0,080	0,001
-352,766	663,123	0,042	0,078
-351,752	-121,627	0,113	-0,013
-350,737	10,924	-0,029	-0,016
-349,723	67,505	0,060	-0,045
-348,708	-164,994	0,136	-0,004
-347,693	-30,576	0,120	-0,049
-346,679	800,000	-0,007	0,015
-345,664	-200,000	-0,039	0,145
-344,650	-144,044	0,095	0,006
-343,635	92,480	0,060	-0,049
-342,620	-116,472	0,083	-0,011
-341,606	-44,269	0,029	-0,011
-340,591	800,000	-0,029	-0,072
-339,577	-200,000	0,021	-0,124
-338,562	85,270	-0,021	-0,017
-337,548	-200,000	-0,000	0,030
-336,533	73,761	0,115	-0,087
-335,518	119,338	-0,087	0,079
-334,504	-200,000	0,005	0,098
-333,489	-126,186	0,059	0,006
-332,475	-51,439	-0,058	-0,019
-331,460	-200,000	-0,049	-0,176
-330,445	-200,000	0,001	-0,094
-329,431	-91,114	-0,109	-0,022
-328,416	800,000	0,022	-0,059
-327,402	-88,602	-0,047	0,010
-326,387	258,030	-0,062	-0,077
-325,372	339,083	-0,036	-0,050
-324,358	-12,454	-0,134	0,063
-323,343	-95,823	0,106	-0,020
-322,329	800,000	0,023	0,056
-321,314	-200,000	-0,004	0,061
-320,299	-200,000	-0,019	0,148
-319,285	-152,095	0,162	-0,008
-318,270	217,522	-0,052	-0,060
-317,256	489,244	-0,030	-0,049
-316,241	-27,854	0,092	0,039
-315,226	323,175	0,073	0,102
-314,212	-200,000	0,006	0,102
-313,197	-163,923	-0,088	0,003
-312,183	50,343	0,170	-0,117
-311,168	55,668	-0,033	0,023
-310,153	597,879	0,058	0,106
-309,139	566,945	-0,064	-0,114
-308,124	16,639	-0,055	0,032
-307,110	100,590	0,099	0,084
-306,095	-200,000	-0,040	0,155
-305,080	67,430	0,091	-0,067
-304,066	-200,000	0,013	-0,137
-303,051	-200,000	0,005	0,039
-302,037	454,828	-0,103	0,166
-301,022	-62,853	-0,066	-0,020
-300,008	-45,116	0,136	0,049
-298,993	800,000	0,029	0,059
-297,978	-200,000	-0,015	-0,081
-296,964	67,232	-0,077	-0,057
-295,949	71,519	-0,135	-0,102
-294,935	122,215	-0,095	-0,086
-293,920	800,000	0,038	-0,086
-292,905	-172,327	0,095	-0,002
-291,891	744,858	-0,032	0,063
-290,876	38,312	-0,082	0,053
-289,862	-68,703	0,047	0,013
-288,847	259,641	-0,050	0,062
-287,832	59,893	0,049	0,035
-286,818	800,000	0,033	0,074
-285,803	-200,000	0,008	0,127
-284,789	-68,969	0,033	-0,009
-283,774	-140,940	0,035	0,003
-282,759	53,227	0,103	-0,071
-281,745	-36,208	-0,066	-0,025
-280,730	-200,000	-0,004	0,058
-279,716	-200,000	0,000	0,053
-278,701	84,415	0,035	0,028
-277,686	52,260	0,126	-0,087
-276,672	185,721	-0,057	-0,061
-275,657	800,000	-0,031	0,078
-274,643	-200,000	-0,013	-0,095
-273,628	602,439	-0,051	-0,093
-272,613	800,000	0,015	-0,032
-271,599	-85,139	0,145	-0,032
-270,584	92,451	-0,030	-0,024
-269,570	303,661	0,036	0,048
-268,555	153,347	0,095	0,094
-267,540	-94,450	-0,133	-0,026
-266,526	-101,184	-0,108	0,019
-265,511	64,699	-0,026	-0,019
-264,497	-200,000	0,026	0,106
-263,482	-62,147	0,150	0,045
-262,467	46,199	0,123	0,082
-261,453	800,000	0,050	0,145
-260,438	-23,373	-0,046	-0,020
-259,424	800,000	-0,030	-0,069
-258,409	-98,640	-0,135	-0,025
-257,395	800,000	-0,063	0,141
-256,380	2,691	0,088	-0,046
-255,365	-18,506	0,027	0,012
-254,351	12,118	0,062	0,035
-253,336	-118,767	0,091	0,011
-252,322	-200,000	0,010	0,107
-251,307	621,971	0,022	0,040
-250,292	59,409	-0,075	-0,053
-249,278	800,000	-0,021	0,056
-248,263	-44,412	-0,082	0,029
-247,249	99,356	-0,042	-0,035
-246,234	-200,000	-0,011	-0,036
-245,219	-200,000	-0,040	-0,173
-244,205	-200,000	-0,004	-0,209
-243,190	288,220	-0,047	-0,062
-242,176	9,460	-0,070	-0,038
-241,161	-143,717	0,102	-0,007
-240,146	800,000	0,039	-0,124
-239,132	-25,710	0,111	-0,047
-238,117	-200,000	-0,000	0,040
-237,103	-200,000	0,007	-0,119
-236,088	425,698	0,010	0,015
-235,073	571,168	0,103	0,183
-234,059	-48,969	-0,055	0,019
-233,044	-158,118	-0,137	-0,006
-232,030	-49,847	0,143	0,049
-231,015	38,707	-0,102	-0,066
-230,000	-2,083	-0,105	0,053
-228,986	800,000	-0,019	-0,050
-227,971	800,000	0,025	0,077
-226,957	-157,003	-0,062	-0,003
-225,942	-200,000	0,005	0,093
-224,927	-200,000	-0,018	-0,078
-223,913	30,148	-0,100	-0,061
-222,898	-200,000	-0,026	-0,181
-221,884	800,000	0,026	-0,082
-220,869	-141,880	-0,049	0,003
-219,855	-85,980	0,050	-0,011
-218,840	-5,494	-0,177	0,088
-217,825	209,182	-0,051	0,058
-216,811	121,754	-0,150	-0,135
-215,796	-158,528	-0,056	0,002
-214,782	171,196	0,069	0,072
-213,767	-200,000	-0,022	-0,074
-212,752	60,641	0,177	-0,127
-211,738	128,579	-0,096	0,088
-210,723	-200,000	-0,020	-0,105
-209,709	800,000	0,043	-0,108
-208,694	-200,000	0,019	-0,107
-207,679	-23,789	0,028	0,012
-206,665	800,000	-0,036	0,102
-205,650	800,000	-0,011	-0,024
-204,636	64,474	-0,116	-0,085
-203,621	562,862	-0,050	-0,088
-202,606	494,671	0,009	0,015
-201,592	407,569	-0,074	-0,113
-200,577	800,000	0,022	-0,063
-199,563	64,861	-0,037	0,027
-198,548	-200,000	-0,018	0,101
-197,533	800,000	0,006	-0,015
-196,519	-41,589	0,130	0,048
-195,504	-38,859	0,077	0,029
-194,490	743,986	0,045	0,089
-193,475	-200,000	-0,014	-0,048
-192,460	2,800	-0,018	0,010
-191,446	-43,112	-0,058	0,021
-190,431	800,000	0,037	0,078
-189,417	415,145	-0,068	0,105
-188,402	220,578	-0,082	0,095
-187,387	-71,624	-0,112	0,030
-186,373	110,412	0,052	0,045
-185,358	371,686	-0,030	0,044
-184,344	-111,365	0,057	-0,008
-183,329	208,254	0,051	0,058
-182,315	-200,000	-0,010	0,066
-181,300	-200,000	-0,015	0,062
-180,285	235,499	-0,062	-0,074
-179,271	0,218	-0,087	0,044
-178,256	800,000	0,044	0,100
-177,242	-200,000	0,005	0,108
-176,227	-169,690	0,038	-0,001
-175,212	123,810	-0,070	0,064
-174,198	329,311	0,064	0,089
-173,183	100,388	-0,080	-0,067
-172,169	-144,731	-0,035	-0,002
-171,154	-70,090	-0,097	0,026
-170,139	14,896	0,051	0,029
-169,125	10,396	0,098	-0,054
-168,110	-9,933	0,040	-0,019
-167,096	152,570	0,011	0,011
-166,081	229,516	0,055	-0,064
-165,066	42,094	0,057	0,037
-164,052	-200,000	0,004	-0,103
-163,037	58,655	0,084	-0,059
-162,023	-145,662	-0,024	-0,002
-161,008	183,194	-0,085	0,090
-159,993	-200,000	0,011	0,066
-158,979	-200,000	-0,023	-0,149
-157,964	726,565	0,019	-0,036
-156,950	-142,057	-0,043	0,003
-155,935	367,958	0,058	0,084
-154,920	-200,000	0,023	0,082
-153,906	800,000	0,022	0,064
-152,891	611,214	0,036	-0,066
-151,877	-125,305	-0,156	-0,017
-150,862	-200,000	0,005	-0,133
-149,847	-68,201	-0,108	-0,030
-148,833	-96,150	0,139	0,026
-147,818	-84,222	-0,073	-0,017
-146,804	800,000	0,028	0,072
-145,789	226,732	-0,085	0,100
-144,775	23,764	-0,042	-0,025
-143,760	30,510	0,040	0,025
-142,745	-200,000	-0,008	-0,043
-141,731	-25,973	-0,126	0,053
-140,716	-34,680	0,066	-0,026
-139,702	800,000	-0,005	-0,015
-138,687	337,624	0,027	0,038
-137,672	-151,733	-0,100	0,005
-136,658	-26,956	0,006	-0,003
-135,643	369,777	-0,058	0,084
-134,629	-200,000	0,004	-0,071
-133,614	167,799	-0,123	-0,126
-132,599	-200,000	-0,022	-0,149
-131,585	727,751	-0,016	-0,031
-130,570	36,656	-0,062	0,040
-129,556	-132,803	-0,061	-0,005
-128,541	800,000	0,032	-0,097
-127,526	109,456	0,065	-0,056
-126,512	235,683	-0,075	-0,089
-125,497	38,665	0,045	-0,029
-124,483	287,119	-0,006	0,007
-123,468	-124,130	-0,022	-0,002
-122,453	-86,293	0,071	-0,016
-121,439	-119,575	-0,074	0,009
-120,424	-79,296	0,058	0,014
-119,410	-16,863	0,114	0,052
-118,395	-200,000	-0,016	0,097
-117,380	-150,319	-0,052	0,003
-116,366	-200,000	0,000	-0,057
-115,351	117,006	-0,051	-0,045
-114,337	547,518	-0,055	0,096
-113,322	38,208	0,070	-0,044
-112,307	-111,006	0,088	-0,013
-111,293	-200,000	0,016	0,117
-110,278	-80,257	0,125	-0,030
-109,264	-22,198	-0,066	0,029
-108,249	-131,067	-0,114	0,011
-107,234	4,304	0,082	-0,043
-106,220	54,847	0,054	-0,037
-105,205	593,680	0,010	0,019
-104,191	800,000	-0,009	0,020
-103,176	-121,715	0,177	-0,021
-102,162	-58,024	-0,126	0,039
-101,147	97,004	-0,037	0,031
-100,132	349,243	0,035	-0,050
-99,118	-200,000	0,006	0,058
-98,103	-200,000	-0,002	0,046
-97,089	-154,162	-0,120	-0,006
-96,074	70,348	0,069	-0,052
-95,059	23,021	0,081	-0,048
-94,045	128,588	-0,096	-0,088
-93,030	-160,390	-0,105	-0,004
-92,016	453,203	-0,023	-0,037
-91,001	40,987	0,041	0,027
-89,986	-200,000	-0,005	0,123
-88,972	-200,000	0,027	0,152
-87,957	44,351	-0,203	0,134
-86,943	185,299	-0,043	0,046
-85,928	-200,000	0,029	-0,158
-84,913	-157,048	-0,093	0,004
-83,899	41,719	-0,087	-0,056
-82,884	519,651	0,073	-0,123
-81,870	-147,794	-0,046	-0,003
-80,855	3,095	0,100	-0,052
-79,840	155,632	-0,163	-0,161
-78,826	140,398	-0,145	-0,137
-77,811	-200,000	0,042	-0,179
-76,797	-121,757	0,037	-0,004
-75,782	33,733	-0,093	-0,058
-74,767	-1,559	0,145	0,073
-73,753	113,861	-0,020	-0,017
-72,738	-200,000	-0,016	-0,077
-71,724	-57,861	-0,099	0,031
-70,709	1,077	-0,128	0,066
-69,694	-200,000	0,009	0,058
-68,680	483,343	0,048	0,079
-67,665	20,799	0,035	-0,020
-66,651	111,534	0,058	0,051
-65,636	-136,158	0,080	0,007
-64,622	3,234	-0,117	-0,061
-63,607	-1,357	-0,046	-0,023
-62,592	133,173	0,083	0,077
-61,578	459,817	-0,136	0,218
-60,563	-116,145	-0,107	-0,014
-59,549	800,000	-0,034	-0,107
-58,534	-18,841	-1,889	-0,841
-57,519	800,000	-0,402	-0,976
-56,505	-200,000	-1,190	-4,884
-55,490	36,966	0,761	0,482
-54,476	800,000	5,317	12,134
-53,461	-200,000	17,424	285,626
-52,446	800,000	724,002	2228,847
-51,432	542,797	1639,544	2818,054
-50,417	111,672	1631,549	1412,995
-49,403	75,927	1286,052	975,200
-48,388	32,642	1028,361	636,874
-47,373	20,252	990,297	572,422
-46,359	18,706	978,400	560,448
-45,344	16,125	974,058	549,491
-44,330	16,287	972,969	549,384
-43,315	15,838	970,991	546,778
-42,300	15,757	970,025	545,948
-41,286	15,841	968,738	545,475
-40,271	15,792	967,847	544,792
-39,257	15,797	967,026	544,327
-38,242	15,838	966,069	543,898
-37,227	15,801	965,610	543,500
-36,213	15,769	964,641	542,829
-35,198	15,736	963,608	542,118
-34,184	15,796	962,987	541,943
-33,169	15,722	961,960	541,104
-32,154	15,806	960,953	540,785
-31,140	15,782	960,124	540,222
-30,125	15,776	959,800	539,998
-29,111	15,733	958,673	539,203
-28,096	15,805	958,055	539,065
-27,082	15,826	957,187	538,624
-26,067	15,803	956,565	538,179
-25,052	15,801	955,751	537,693
-24,038	15,752	955,183	537,195
-23,023	15,800	954,482	536,934
-22,009	15,796	953,794	536,511
-20,994	15,791	953,189	536,134
-19,979	15,800	952,586	535,804
-18,965	15,749	951,975	535,274
-17,950	15,739	951,519	534,964
-16,936	15,722	950,591	534,367
-15,921	15,728	950,057	534,064
-14,906	15,696	949,133	533,425
-13,892	15,713	948,551	533,129
-12,877	15,681	947,891	532,634
-11,863	15,640	947,333	532,169
-10,848	15,672	946,817	531,959
-9,833	15,710	946,356	531,801
-8,819	15,741	945,766	531,546
-7,804	15,681	945,250	531,047
-6,790	15,656	944,557	530,556
-5,775	15,696	943,990	530,342
-4,760	15,694	943,330	529,944
-3,746	15,721	942,671	529,640
-2,731	15,600	941,853	528,774
-1,717	15,508	941,418	528,218
-0,702	15,524	940,717	527,854
0,313	15,358	939,969	527,707
1,327	18,462	937,593	536,110
2,342	27,253	795,334	478,085
3,356	24,066	459,502	271,311
4,371	-2,685	314,433	157,226
5,386	-6,515	296,142	144,192
6,400	-8,609	290,288	139,251
7,415	-9,102	287,722	137,522
8,429	-9,106	286,086	136,724
9,444	-9,434	285,240	135,987
10,459	-9,295	284,595	135,803
11,473	-9,334	284,063	135,499
12,488	-9,275	283,491	135,272
13,502	-9,328	283,149	135,045
14,517	-9,239	282,541	134,829
15,531	-9,378	282,040	134,444
16,546	-9,338	281,738	134,326
17,561	-9,605	281,470	133,929
18,575	-9,373	281,090	133,960
19,590	-9,596	280,751	133,573
20,604	-9,432	280,341	133,522
21,619	-9,530	279,879	133,197
22,634	-9,310	279,591	133,258
23,648	-9,416	279,357	133,034
24,663	-9,507	279,127	132,825
25,677	-9,531	278,897	132,681
26,692	-9,275	278,525	132,736
27,707	-9,572	278,421	132,393
28,721	-9,401	277,952	132,320
29,736	-9,442	277,705	132,151
30,750	-9,489	277,439	131,969
31,765	-9,295	277,130	131,994
32,780	-9,218	276,924	131,956
33,794	-9,372	276,794	131,737
34,809	-9,485	276,481	131,470
35,823	-9,582	276,231	131,247
36,838	-9,492	276,053	131,236
37,853	-9,702	275,758	130,886
38,867	-9,432	275,355	130,938
39,882	-9,536	275,211	130,760
40,896	-9,621	275,029	130,581
41,911	-9,451	274,713	130,580
42,926	-9,562	274,565	130,393
43,940	-9,548	274,283	130,260
44,955	-9,556	274,038	130,125
45,969	-9,675	273,876	129,926
46,984	-9,851	273,601	129,620
47,999	-10,007	273,275	129,308
49,013	-10,026	273,100	129,196
50,028	-10,097	272,726	128,941
51,042	-10,357	272,517	128,590
52,057	-10,293	272,131	128,455
53,071	-10,270	271,901	128,356
54,086	-10,163	271,911	128,449
55,101	-10,044	271,816	128,503
56,115	-9,767	271,549	128,621
57,130	-9,312	271,568	129,040
58,144	-9,444	271,293	128,776
59,159	-9,229	270,937	128,794
60,174	-9,395	270,962	128,642
61,188	-9,339	270,657	128,537
62,203	-9,498	270,505	128,306
63,217	-9,461	270,266	128,216
64,232	-9,148	269,789	128,265
65,247	-9,404	269,729	127,991
66,261	-9,215	269,403	127,998
67,276	-9,430	269,212	127,698
68,290	-9,403	268,801	127,517
69,305	-9,654	268,765	127,259
70,320	-9,713	268,547	127,090
71,334	-9,443	268,389	127,251
72,349	-9,263	268,268	127,346
73,363	-9,200	268,022	127,276
74,378	-9,250	267,755	127,093
75,393	-9,317	267,655	126,973
76,407	-9,456	267,462	126,743
77,422	-9,317	267,045	126,661
78,436	-9,200	266,916	126,694
79,451	-9,270	266,665	126,500
80,466	-9,536	266,436	126,139
81,480	-9,539	266,126	125,979
82,495	-9,399	265,974	126,022
83,509	-9,420	265,860	125,938
84,524	-9,575	265,619	125,672
85,539	-9,553	265,175	125,471
86,553	-9,800	265,239	125,267
87,568	-9,479	264,763	125,320
88,582	-9,717	264,876	125,148
89,597	-9,459	264,480	125,182
90,611	-9,443	264,575	125,230
91,626	-9,441	264,261	125,072
92,641	-9,293	264,142	125,138
93,655	-9,339	263,833	124,939
94,670	-9,330	263,521	124,788
95,684	-9,484	263,402	124,582
96,699	-9,501	263,150	124,437
97,714	-9,465	262,998	124,386
98,728	-9,663	262,798	124,104
99,743	-9,516	262,477	124,072
100,757	-9,880	262,348	123,676
101,772	-9,543	262,204	123,896
102,787	-9,488	261,979	123,828
103,801	-9,385	261,676	123,766
104,816	-9,303	261,623	123,802
105,830	-9,342	261,430	123,666
106,845	-9,254	261,259	123,652
107,860	-9,408	261,197	123,475
108,874	-9,330	260,908	123,396
109,889	-9,300	260,731	123,328
110,903	-9,607	260,393	122,886
111,918	-9,374	260,269	123,022
112,933	-9,289	260,066	122,990
113,947	-9,237	259,881	122,938
114,962	-9,409	259,714	122,696
115,976	-9,311	259,554	122,696
116,991	-9,384	259,367	122,532
118,006	-9,328	259,246	122,514
119,020	-9,299	258,967	122,396
120,035	-9,041	258,727	122,498
121,049	-9,379	258,685	122,171
122,064	-9,376	258,500	122,075
123,079	-9,294	258,282	122,033
124,093	-9,450	258,152	121,824
125,108	-9,553	257,819	121,566
126,122	-9,795	257,689	121,283
127,137	-9,872	257,345	121,043
128,151	-9,698	257,375	121,198
129,166	-9,642	257,100	121,107
130,181	-9,665	256,837	120,952
131,195	-9,769	256,626	120,752
132,210	-9,362	256,467	121,019
133,224	-9,258	256,188	120,967
134,239	-9,268	256,193	120,950
135,254	-9,089	255,902	120,957
136,268	-9,360	255,870	120,696
137,283	-9,710	255,480	120,199
138,297	-9,775	255,294	120,044
139,312	-9,734	255,092	119,975
140,327	-9,500	254,896	120,073
141,341	-9,073	254,824	120,397
142,356	-9,244	254,716	120,187
143,370	-9,132	254,502	120,172
144,385	-9,038	254,274	120,135
145,400	-9,189	254,294	120,003
146,414	-9,143	253,978	119,883
147,429	-9,049	253,757	119,849
148,443	-9,233	253,713	119,659
149,458	-9,089	253,452	119,649
150,473	-9,246	253,303	119,434
151,487	-9,330	253,184	119,295
152,502	-9,247	252,897	119,221
153,516	-9,212	252,667	119,131
154,531	-9,019	252,465	119,190
155,546	-9,309	252,391	118,897
156,560	-9,151	252,105	118,886
157,575	-9,431	252,009	118,592
158,589	-9,276	251,885	118,655
159,604	-9,091	251,536	118,637
160,619	-9,190	251,322	118,441
161,633	-9,212	251,255	118,381
162,648	-9,178	251,049	118,302
163,662	-9,069	251,010	118,366
164,677	-8,990	250,809	118,327
165,692	-9,084	250,627	118,151
166,706	-9,129	250,448	118,018
167,721	-9,064	250,280	117,983
168,735	-9,277	250,041	117,680
169,750	-9,107	249,998	117,793
170,764	-8,953	249,929	117,880
171,779	-8,969	249,743	117,768
172,794	-9,103	249,448	117,506
173,808	-9,091	249,311	117,441
174,823	-9,539	248,929	116,874
175,837	-9,802	248,708	116,540
176,852	-9,258	248,728	116,995
177,867	-9,071	248,581	117,072
178,881	-9,179	248,528	116,946
179,896	-9,294	248,426	116,791
180,910	-9,122	248,077	116,761
181,925	-9,104	247,984	116,721
182,940	-9,075	247,826	116,661
183,954	-9,281	247,619	116,381
184,969	-8,950	247,397	116,542
185,983	-8,951	247,299	116,485
186,998	-9,127	247,290	116,324
188,013	-8,801	246,939	116,420
189,027	-9,027	246,849	116,179
190,042	-8,912	246,543	116,120
191,056	-8,897	246,403	116,056
192,071	-8,742	246,294	116,123
193,086	-9,050	246,124	115,777
194,100	-8,997	245,991	115,748
195,115	-9,022	245,817	115,635
196,129	-9,088	245,600	115,468
197,144	-9,156	245,359	115,289
198,159	-8,861	245,167	115,431
199,173	-9,048	245,118	115,244
200,188	-8,788	244,697	115,250
201,202	-9,245	244,599	114,817
202,217	-9,380	244,362	114,585
203,232	-9,533	243,941	114,251
204,246	-9,376	244,227	114,504
205,261	-8,515	243,967	115,078
206,275	-9,378	243,615	114,195
207,290	-6,001	245,133	117,678
208,304	0,508	247,228	124,067
209,319	3,733	247,902	127,065
210,334	3,988	247,932	127,280
211,348	4,475	247,784	127,595
212,363	4,571	247,800	127,672
213,377	4,512	247,651	127,535
214,392	4,646	247,441	127,526
215,407	4,373	247,248	127,189
216,421	4,368	246,990	127,042
217,436	4,622	247,005	127,247
218,450	4,675	246,998	127,276
219,465	4,390	246,594	126,822
220,480	4,208	246,420	126,572
221,494	4,041	246,258	126,341
222,509	4,129	246,007	126,272
223,523	4,154	245,822	126,187
224,538	4,053	245,609	125,983
225,553	3,899	245,491	125,786
226,567	4,009	245,361	125,798
227,582	4,199	245,178	125,848
228,596	4,293	245,000	125,822
229,611	3,818	244,864	125,353
230,626	3,654	244,652	125,100
231,640	4,028	244,377	125,253
232,655	4,147	244,219	125,258
233,669	3,919	244,106	125,003
234,684	3,713	243,938	124,738
235,699	4,167	243,892	125,072
236,713	4,386	243,838	125,212
237,728	3,857	243,567	124,633
238,742	3,816	243,347	124,475
239,757	3,837	243,116	124,363
240,772	3,730	243,063	124,238
241,786	3,904	242,991	124,331
242,801	3,666	242,899	124,080
243,815	3,865	242,592	124,073
244,830	4,079	242,457	124,166
245,844	4,132	242,434	124,186
246,859	4,021	242,176	123,953
247,874	3,754	241,976	123,625
248,888	4,062	241,817	123,780
249,903	3,896	241,768	123,611
250,917	4,047	241,561	123,615
251,932	4,184	241,427	123,645
252,947	3,947	241,294	123,376
253,961	3,876	241,037	123,176
254,976	4,288	240,842	123,396
255,990	4,051	240,883	123,216
257,005	3,768	240,609	122,839
258,020	3,701	240,396	122,666
259,034	3,967	240,213	122,774
260,049	4,029	240,190	122,800
261,063	3,734	239,914	122,414
262,078	3,691	239,902	122,362
263,093	3,986	239,685	122,475
264,107	4,203	239,603	122,595
265,122	3,788	239,406	122,153
266,136	3,903	239,218	122,138
267,151	4,122	239,228	122,306
268,166	3,846	238,905	121,911
269,180	3,604	238,802	121,656
270,195	4,375	238,717	122,212
271,209	4,651	238,609	122,365
272,224	4,012	238,351	121,717
273,239	3,542	237,938	121,123
274,253	3,610	238,015	121,206
275,268	4,045	237,855	121,456
276,282	4,047	237,663	121,349
277,297	3,565	237,517	120,884
278,312	3,885	237,385	121,058
279,326	4,114	237,168	121,117
280,341	3,889	237,174	120,932
281,355	4,000	236,861	120,849
282,370	4,181	236,852	120,975
283,384	3,947	236,588	120,647
284,399	3,938	236,396	120,531
285,414	3,713	236,269	120,279
286,428	3,758	236,124	120,230
287,443	3,978	236,019	120,338
288,457	4,005	236,011	120,344
289,472	4,147	235,892	120,384
290,487	3,945	235,635	120,084
291,501	3,648	235,360	119,701
292,516	3,588	235,149	119,537
293,530	3,603	235,076	119,500
294,545	3,830	235,032	119,644
295,560	3,982	234,786	119,627
296,574	3,763	234,514	119,308
297,589	3,723	234,403	119,210
298,603	4,154	234,453	119,558
299,618	4,129	234,250	119,425
300,633	4,046	234,219	119,334
301,647	4,289	233,970	119,384
302,662	4,399	233,991	119,470
303,676	4,374	233,686	119,284
304,691	4,412	233,639	119,279
305,706	4,370	233,318	119,072
306,720	4,270	233,288	118,969
307,735	4,180	233,134	118,811
308,749	4,238	232,927	118,739
309,764	4,111	232,710	118,520
310,779	3,815	232,623	118,237
311,793	3,614	232,287	117,902
312,808	3,809	232,095	117,943
313,822	3,696	231,988	117,792
314,837	3,787	231,734	117,723
315,852	3,693	231,704	117,624
316,866	3,947	231,625	117,769
317,881	4,051	231,621	117,835
318,895	4,024	231,340	117,661
319,910	4,189	231,283	117,748
320,925	4,314	231,143	117,762
321,939	4,000	230,961	117,419
322,954	4,111	230,855	117,439
323,968	4,202	230,600	117,368
324,983	3,834	230,478	117,015
325,997	3,744	230,334	116,863
327,012	4,208	230,196	117,136
328,027	4,146	230,141	117,050
329,041	4,360	230,061	117,162
330,056	4,553	230,098	117,317
331,070	4,916	229,728	117,393
332,085	4,429	229,560	116,928
333,100	4,270	229,360	116,695
334,114	4,089	229,284	116,509
335,129	4,179	229,138	116,493
336,143	4,485	228,937	116,611
337,158	4,470	229,015	116,628
338,173	4,239	228,832	116,351
339,187	4,169	228,504	116,121
340,202	4,258	228,334	116,091
341,216	4,436	228,133	116,112
342,231	4,125	227,912	115,757
343,246	4,119	227,932	115,751
344,260	4,174	227,829	115,730
345,275	4,240	227,805	115,757
346,289	4,224	227,652	115,657
347,304	4,394	227,472	115,683
348,319	4,418	227,380	115,644
349,333	4,176	227,096	115,308
350,348	4,166	226,890	115,185
351,362	4,113	226,871	115,126
352,377	4,008	226,584	114,892
353,392	4,080	226,332	114,807
354,406	3,844	226,188	114,548
355,421	195,883	1322,562	1400,717
356,435	157,029	1456,142	1400,720
