DTS Sentinel unit serial number:	SN410029Multiplexer serial number:	ORYXHardware model number:	OX2-SRSoftware version number:	ORYX F/W v4,00 Oryx Data Collector v3.7.2.0data status	okinstallation	B5 Nyhavnadifferential loss correction	single-endedforward channel	channel 2reverse channel	N/Adate	2023/12/12time	19:52:13forward acquisition time	300,00reverse acquisition time	0,00gamma	499,1914k internal	0,3157k external	0,3157temperature offset calibration	1,0000default loss term (dB/km)	0,3820temperature slope calibration	1,0000multiplexer offset coefficient	1,0000multiplexer slope coefficient	1,0000fibre end	0,00T internal ref (°C)	15,39T ext. ref 1 (°C)	-1,22T ext. ref 2 (°C)	-1,51length (m)	temperature (°C)	Stokes	anti-Stokes-744,400	78,869	0,078	-0,061
-743,385	-141,656	-0,324	0,024
-742,371	431,037	0,107	-0,171
-741,356	-68,295	-0,194	0,055
-740,342	-122,378	0,065	-0,008
-739,327	-130,390	-0,360	0,036
-738,312	-130,617	0,152	0,015
-737,298	-19,208	-0,257	-0,117
-736,283	-200,000	-0,001	0,041
-735,269	215,169	-0,085	-0,100
-734,254	-134,300	-0,066	-0,006
-733,239	-52,614	-0,425	-0,144
-732,225	-94,962	0,220	0,044
-731,210	-123,041	0,092	0,011
-730,196	-200,000	-0,012	0,097
-729,181	275,696	-0,103	0,134
-728,167	-7,446	0,072	0,036
-727,152	349,158	-0,027	0,039
-726,137	-11,751	0,092	0,045
-725,123	-200,000	-0,025	-0,109
-724,108	-165,517	-0,049	0,002
-723,094	-5,850	-0,104	0,052
-722,079	800,000	-0,028	0,060
-721,064	-13,861	0,058	-0,027
-720,050	-200,000	0,007	0,057
-719,035	-200,000	-0,010	0,045
-718,021	800,000	-0,044	-0,122
-717,006	-200,000	-0,022	-0,290
-715,991	-109,484	-0,057	-0,009
-714,977	295,960	-0,069	-0,093
-713,962	800,000	0,040	-0,099
-712,948	-200,000	0,004	0,114
-711,933	-200,000	0,026	0,000
-710,918	-53,000	-0,067	0,023
-709,904	-1,967	-0,019	-0,010
-708,889	612,687	-0,038	-0,070
-707,875	800,000	-0,046	-0,124
-706,860	5,048	-0,105	-0,057
-705,845	800,000	-0,065	-0,171
-704,831	43,837	0,113	0,076
-703,816	397,725	-0,008	0,013
-702,802	-60,529	-0,034	0,011
-701,787	200,463	0,024	0,027
-700,772	-200,000	-0,004	-0,057
-699,758	800,000	-0,034	-0,073
-698,743	-107,367	-0,023	0,004
-697,729	428,439	0,023	-0,037
-696,714	218,844	-0,093	-0,109
-695,699	800,000	-0,052	-0,110
-694,685	221,002	0,098	-0,116
-693,670	239,354	0,084	0,103
-692,656	274,815	-0,064	-0,084
-691,641	107,514	-0,062	0,054
-690,627	620,972	0,047	0,087
-689,612	389,320	-0,029	-0,045
-688,597	269,095	-0,065	-0,084
-687,583	-200,000	-0,012	0,042
-686,568	21,002	-0,086	-0,051
-685,554	-113,603	-0,173	0,025
-684,539	61,374	-0,040	0,029
-683,524	-200,000	0,024	0,128
-682,510	-200,000	0,002	0,103
-681,495	49,808	0,017	0,012
-680,481	517,717	-0,049	-0,084
-679,466	286,167	-0,065	-0,087
-678,451	800,000	-0,070	-0,191
-677,437	25,447	0,076	0,047
-676,422	800,000	0,070	0,159
-675,408	-109,039	-0,111	-0,017
-674,393	-77,544	-0,025	0,006
-673,378	-200,000	-0,005	-0,080
-672,364	-38,552	-0,087	-0,034
-671,349	-110,405	0,075	-0,011
-670,335	-52,247	-0,069	-0,023
-669,320	225,403	0,046	0,055
-668,305	-200,000	0,001	0,083
-667,291	-200,000	0,012	-0,075
-666,276	501,406	-0,065	-0,111
-665,262	15,312	-0,058	0,033
-664,247	-140,889	-0,108	-0,008
-663,232	59,631	-0,010	0,007
-662,218	28,149	-0,138	-0,085
-661,203	146,490	-0,081	-0,080
-660,189	-200,000	0,004	-0,030
-659,174	-200,000	-0,103	-0,000
-658,159	194,297	-0,091	0,102
-657,145	66,927	0,055	-0,041
-656,130	23,889	-0,030	-0,018
-655,116	-199,951	-0,068	0,000
-654,101	449,290	0,067	0,108
-653,086	-44,751	-0,072	0,026
-652,072	-79,109	-0,136	-0,034
-651,057	91,540	0,090	-0,074
-650,043	-100,379	-0,045	0,008
-649,028	800,000	-0,045	-0,123
-648,014	88,545	-0,065	0,053
-646,999	-115,842	0,076	-0,010
-645,984	-200,000	-0,027	0,095
-644,970	410,073	-0,062	-0,096
-643,955	-151,491	-0,176	0,009
-642,941	-116,331	-0,050	0,007
-641,926	-79,572	0,154	0,038
-640,911	-140,754	-0,064	0,005
-639,897	-200,000	-0,017	0,154
-638,882	-200,000	-0,005	-0,020
-637,868	111,959	0,064	0,057
-636,853	-117,575	-0,095	-0,012
-635,838	-200,000	-0,004	-0,093
-634,824	-60,612	-0,084	0,026
-633,809	-200,000	-0,009	-0,102
-632,795	-71,247	-0,092	0,025
-631,780	-197,033	-0,054	0,000
-630,765	-151,660	-0,044	-0,002
-629,751	-13,198	-0,143	0,068
-628,736	800,000	-0,082	-0,170
-627,722	34,310	0,072	-0,046
-626,707	275,653	-0,039	-0,050
-625,692	-130,905	-0,201	-0,020
-624,678	-200,000	-0,010	0,063
-623,663	-36,565	-0,099	0,039
-622,649	800,000	-0,032	-0,073
-621,634	-13,073	-0,130	-0,062
-620,619	246,222	0,023	0,029
-619,605	11,792	0,091	0,051
-618,590	-200,000	0,008	0,054
-617,576	87,685	-0,071	0,058
-616,561	187,283	-0,039	-0,043
-615,546	-200,000	-0,010	0,040
-614,532	27,150	0,050	0,030
-613,517	15,743	0,032	0,018
-612,503	180,418	0,071	0,076
-611,488	422,593	-0,044	0,070
-610,474	800,000	-0,017	-0,039
-609,459	77,188	-0,045	0,035
-608,444	365,351	-0,066	-0,099
-607,430	-163,730	-0,164	0,006
-606,415	116,463	0,056	-0,051
-605,401	290,364	0,104	-0,139
-604,386	-200,000	0,014	0,053
-603,371	800,000	0,062	0,142
-602,357	62,813	-0,077	0,056
-601,342	-200,000	0,008	0,048
-600,328	250,831	0,026	0,033
-599,313	-200,000	-0,053	-0,180
-598,298	237,895	0,011	0,014
-597,284	562,739	-0,049	0,087
-596,269	15,767	-0,021	-0,012
-595,255	24,361	-0,112	-0,068
-594,240	-200,000	0,000	-0,011
-593,225	-109,740	-0,057	0,009
-592,211	680,834	0,110	-0,212
-591,196	-200,000	0,010	-0,135
-590,182	-200,000	-0,018	-0,120
-589,167	800,000	0,017	0,046
-588,152	-200,000	0,055	0,000
-587,138	460,484	0,019	0,030
-586,123	-200,000	0,007	-0,095
-585,109	800,000	0,048	0,104
-584,094	143,040	-0,051	0,049
-583,079	-200,000	-0,027	0,096
-582,065	-200,000	-0,040	-0,227
-581,050	-200,000	-0,008	-0,050
-580,036	-62,609	0,036	-0,011
-579,021	-129,873	-0,066	-0,007
-578,006	294,957	0,085	-0,114
-576,992	-200,000	0,003	-0,020
-575,977	-200,000	0,006	0,092
-574,963	-8,178	0,098	0,048
-573,948	-74,460	-0,053	-0,014
-572,934	360,164	0,047	-0,069
-571,919	800,000	-0,031	0,069
-570,904	-169,754	0,085	0,002
-569,890	116,617	-0,060	-0,054
-568,875	-200,000	-0,017	-0,088
-567,861	257,767	0,029	-0,037
-566,846	-200,000	-0,022	0,143
-565,831	-65,708	-0,163	0,047
-564,817	-200,000	-0,004	-0,085
-563,802	15,803	-0,068	0,039
-562,788	-200,000	0,019	-0,153
-561,773	800,000	-0,013	0,031
-560,758	16,571	0,089	-0,051
-559,744	-200,000	-0,005	-0,057
-558,729	-71,590	0,085	-0,023
-557,715	158,130	-0,081	-0,082
-556,700	-200,000	0,016	0,132
-555,685	555,907	0,037	0,065
-554,671	-6,141	0,103	0,051
-553,656	-186,770	-0,116	-0,001
-552,642	-45,488	-0,127	0,046
-551,627	-200,000	-0,005	0,056
-550,612	-117,097	-0,022	-0,003
-549,598	-25,899	-0,108	0,047
-548,583	17,863	0,038	-0,022
-547,569	800,000	-0,046	-0,126
-546,554	164,102	-0,098	0,102
-545,539	107,402	0,071	0,062
-544,525	273,448	0,016	-0,021
-543,510	-33,485	0,041	0,017
-542,496	36,138	0,093	0,060
-541,481	-162,586	-0,121	-0,004
-540,466	73,416	-0,105	-0,080
-539,452	296,600	0,070	0,094
-538,437	800,000	0,024	0,070
-537,423	-200,000	0,023	0,172
-536,408	-200,000	-0,009	0,093
-535,393	384,504	-0,032	-0,048
-534,379	268,151	-0,083	-0,107
-533,364	-200,000	0,000	-0,001
-532,350	222,446	0,042	-0,049
-531,335	153,518	0,027	-0,027
-530,321	9,889	0,012	-0,007
-529,306	136,405	-0,122	0,117
-528,291	76,983	-0,023	-0,018
-527,277	-62,822	-0,129	0,039
-526,262	172,994	0,065	0,068
-525,248	-200,000	0,045	0,199
-524,233	-98,782	0,131	0,024
-523,218	13,099	0,041	-0,023
-522,204	-48,441	0,039	0,014
-521,189	197,056	0,020	-0,022
-520,175	288,296	0,019	-0,025
-519,160	415,582	0,061	-0,095
-518,145	-200,000	0,008	0,070
-517,131	526,774	-0,028	0,049
-516,116	185,193	0,089	0,096
-515,102	242,289	0,043	0,052
-514,087	116,799	0,114	0,102
-513,072	800,000	-0,007	-0,016
-512,058	-65,021	0,079	-0,023
-511,043	-45,662	0,071	0,025
-510,029	-168,415	-0,034	-0,001
-509,014	448,195	0,026	-0,042
-507,999	800,000	0,027	-0,068
-506,985	-200,000	-0,025	-0,184
-505,970	-200,000	-0,007	-0,121
-504,956	-57,954	-0,027	0,009
-503,941	800,000	-0,040	-0,090
-502,926	106,371	0,024	0,021
-501,912	-200,000	-0,011	0,051
-500,897	-200,000	0,014	0,083
-499,883	800,000	-0,030	-0,071
-498,868	455,225	0,034	-0,056
-497,853	76,789	0,042	-0,032
-496,839	320,297	0,054	-0,076
-495,824	23,783	0,091	-0,055
-494,810	59,508	-0,084	0,061
-493,795	-146,163	-0,040	0,003
-492,781	587,177	0,005	-0,010
-491,766	-200,000	0,022	-0,094
-490,751	43,736	-0,040	-0,027
-489,737	-200,000	-0,004	-0,058
-488,722	530,983	0,027	-0,047
-487,708	287,442	0,128	0,170
-486,693	-200,000	0,011	0,093
-485,678	64,047	-0,092	0,067
-484,664	800,000	0,023	-0,071
-483,649	-200,000	0,022	0,089
-482,635	331,368	-0,020	0,028
-481,620	594,949	-0,008	0,015
-480,605	-1,010	0,052	-0,027
-479,591	-28,137	-0,101	-0,043
-478,576	-117,199	0,027	0,004
-477,562	57,745	-0,011	-0,008
-476,547	-59,326	0,108	0,034
-475,532	-200,000	0,001	-0,108
-474,518	134,978	0,052	0,049
-473,503	-0,971	0,051	0,026
-472,489	-138,296	-0,112	-0,009
-471,474	15,864	-0,019	0,011
-470,459	-141,490	-0,092	-0,007
-469,445	-136,832	-0,055	0,005
-468,430	92,299	-0,058	0,048
-467,416	12,371	-0,165	0,092
-466,401	-67,141	0,156	0,045
-465,386	162,401	-0,058	0,060
-464,372	784,540	-0,054	0,108
-463,357	-200,000	0,001	-0,108
-462,343	-200,000	-0,034	0,151
-461,328	-133,687	-0,034	-0,003
-460,313	243,290	0,017	-0,021
-459,299	-98,197	0,177	-0,033
-458,284	-88,291	0,076	-0,016
-457,270	10,798	0,131	-0,073
-456,255	63,090	-0,042	-0,030
-455,241	-200,000	0,004	0,034
-454,226	-200,000	-0,022	-0,111
-453,211	225,592	0,052	-0,062
-452,197	-200,000	0,031	0,104
-451,182	800,000	0,012	-0,035
-450,168	252,937	0,083	0,103
-449,153	-128,507	0,043	-0,004
-448,138	-67,229	0,114	-0,032
-447,124	654,470	0,028	-0,053
-446,109	800,000	0,019	-0,049
-445,095	800,000	-0,043	-0,090
-444,080	-200,000	0,018	0,119
-443,065	365,182	0,038	0,055
-442,051	800,000	0,017	-0,045
-441,036	-200,000	0,017	0,066
-440,022	-200,000	-0,022	-0,136
-439,007	-89,729	0,022	0,005
-437,992	-12,447	-0,032	0,015
-436,978	87,900	0,070	-0,057
-435,963	-200,000	-0,003	-0,022
-434,949	-200,000	-0,013	0,122
-433,934	378,619	-0,051	0,076
-432,919	800,000	-0,024	-0,060
-431,905	-135,398	-0,041	-0,004
-430,890	-9,929	0,148	0,071
-429,876	51,458	0,039	0,027
-428,861	-140,478	-0,121	-0,009
-427,846	71,364	-0,054	0,041
-426,832	-200,000	0,002	-0,038
-425,817	-111,553	-0,194	-0,028
-424,803	-200,000	0,012	0,074
-423,788	-84,147	0,164	0,038
-422,773	-108,817	0,092	0,014
-421,759	-97,948	0,105	0,019
-420,744	107,624	-0,071	0,061
-419,730	-94,423	0,028	0,006
-418,715	22,606	0,144	0,086
-417,701	-200,000	-0,023	0,083
-416,686	12,009	0,173	0,097
-415,671	58,278	0,105	0,075
-414,657	-94,694	0,098	0,019
-413,642	-200,000	0,015	-0,062
-412,628	800,000	0,010	0,031
-411,613	-117,262	-0,122	0,016
-410,598	-99,981	-0,033	0,006
-409,584	-46,734	-0,064	-0,023
-408,569	276,352	-0,017	0,022
-407,555	169,685	-0,072	0,075
-406,540	-13,940	0,036	-0,017
-405,525	-87,070	-0,047	-0,010
-404,511	-158,541	0,087	0,004
-403,496	77,045	-0,020	-0,015
-402,482	162,720	-0,019	0,020
-401,467	11,932	0,098	-0,054
-400,452	-200,000	-0,013	-0,087
-399,438	378,942	0,038	-0,056
-398,423	800,000	0,019	0,062
-397,409	177,531	-0,095	-0,101
-396,394	800,000	0,053	-0,112
-395,379	147,453	0,077	0,075
-394,365	-66,084	0,100	-0,029
-393,350	166,927	0,100	-0,103
-392,336	-72,612	-0,048	-0,013
-391,321	761,432	-0,036	-0,072
-390,306	158,792	-0,071	-0,072
-389,292	11,297	-0,063	-0,035
-388,277	179,151	-0,057	-0,061
-387,263	-192,977	0,064	-0,000
-386,248	-200,000	0,003	0,048
-385,233	-200,000	-0,015	0,051
-384,219	150,303	-0,068	-0,067
-383,204	146,835	-0,097	0,095
-382,190	-128,316	-0,136	-0,014
-381,175	131,794	0,071	-0,067
-380,160	466,585	0,019	-0,032
-379,146	80,653	0,122	-0,096
-378,131	-200,000	0,011	0,034
-377,117	-93,214	0,071	0,014
-376,102	-164,383	-0,181	-0,006
-375,088	722,115	0,032	-0,062
-374,073	727,054	-0,041	0,079
-373,058	-53,547	-0,084	-0,028
-372,044	-117,190	0,129	-0,017
-371,029	348,504	0,072	-0,103
-370,015	22,325	-0,122	0,072
-369,000	-39,717	-0,132	-0,050
-367,985	800,000	0,031	-0,074
-366,971	-200,000	0,021	-0,148
-365,956	-117,572	0,066	0,009
-364,942	391,220	0,107	0,163
-363,927	-2,278	-0,062	0,031
-362,912	266,585	-0,049	0,063
-361,898	596,939	0,025	0,046
-360,883	576,408	-0,097	0,173
-359,869	17,805	-0,072	0,042
-358,854	-25,115	0,131	0,056
-357,839	-57,972	0,029	-0,009
-356,825	-200,000	-0,011	-0,080
-355,810	800,000	-0,033	-0,093
-354,796	-135,123	-0,140	-0,012
-353,781	247,163	0,078	-0,096
-352,766	800,000	-0,014	-0,040
-351,752	-98,551	-0,131	0,024
-350,737	800,000	-0,017	0,041
-349,723	-101,129	0,123	-0,022
-348,708	-11,877	0,020	-0,010
-347,693	-144,201	-0,054	-0,004
-346,679	-200,000	0,002	0,056
-345,664	87,920	-0,142	-0,115
-344,650	-200,000	-0,012	0,111
-343,635	194,263	-0,076	0,084
-342,620	-24,599	0,027	-0,012
-341,606	-14,293	-0,065	0,030
-340,591	-200,000	0,036	-0,221
-339,577	800,000	-0,042	-0,113
-338,562	-22,822	-0,014	-0,006
-337,548	-200,000	0,017	-0,125
-336,533	-60,311	-0,043	-0,013
-335,518	-79,601	0,141	0,034
-334,504	371,577	-0,091	0,135
-333,489	-53,422	0,172	0,057
-332,475	260,716	0,038	-0,048
-331,460	335,620	0,034	-0,049
-330,445	800,000	-0,053	0,168
-329,431	-37,781	0,049	0,019
-328,416	301,462	0,121	0,163
-327,402	800,000	0,020	-0,063
-326,387	40,634	0,095	0,062
-325,372	211,531	-0,066	-0,076
-324,358	55,899	0,022	-0,015
-323,343	800,000	0,048	0,127
-322,329	800,000	0,048	-0,112
-321,314	11,939	0,121	-0,067
-320,299	54,321	0,130	-0,090
-319,285	77,869	-0,049	-0,038
-318,270	298,183	-0,063	-0,084
-317,256	-200,000	0,020	-0,131
-316,241	72,789	0,086	-0,065
-315,226	-200,000	0,006	-0,087
-314,212	-23,636	0,079	0,034
-313,197	-84,155	0,084	-0,019
-312,183	-130,360	0,029	0,003
-311,168	30,003	0,073	-0,045
-310,153	-200,000	0,021	-0,103
-309,139	-200,000	0,012	-0,128
-308,124	-121,760	0,041	-0,005
-307,110	12,518	-0,050	0,028
-306,095	23,319	-0,032	0,019
-305,080	-54,199	0,065	0,021
-304,066	455,142	-0,066	0,107
-303,051	800,000	0,024	-0,065
-302,037	266,157	0,009	-0,012
-301,022	-145,755	0,063	0,004
-300,008	18,322	0,102	-0,059
-298,993	-200,000	-0,007	0,036
-297,978	800,000	0,009	-0,018
-296,964	477,830	0,049	-0,081
-295,949	800,000	0,031	-0,084
-294,935	800,000	-0,023	0,071
-293,920	779,235	-0,011	-0,021
-292,905	282,343	0,045	0,059
-291,891	85,752	-0,052	0,041
-290,876	512,060	-0,082	-0,138
-289,862	-3,748	-0,061	-0,030
-288,847	-200,000	-0,003	-0,014
-287,832	-9,529	0,142	-0,068
-286,818	-105,650	0,062	-0,010
-285,803	-200,000	0,011	-0,045
-284,789	800,000	0,058	0,120
-283,774	800,000	0,043	0,127
-282,759	-60,105	-0,064	0,020
-281,745	-140,762	-0,048	-0,004
-280,730	106,680	0,097	-0,083
-279,716	198,455	-0,049	-0,055
-278,701	757,410	0,047	0,092
-277,686	-200,000	0,007	0,080
-276,672	33,049	-0,049	-0,031
-275,657	800,000	0,012	0,029
-274,643	-200,000	0,005	-0,053
-273,628	138,755	0,045	-0,043
-272,613	14,918	-0,033	0,018
-271,599	488,911	0,079	-0,131
-270,584	-46,923	-0,065	0,023
-269,570	-189,224	-0,042	0,000
-268,555	-200,000	0,001	-0,017
-267,540	493,046	-0,026	0,044
-266,526	385,468	-0,062	0,093
-265,511	800,000	-0,048	0,125
-264,497	298,421	0,077	0,103
-263,482	249,328	0,010	-0,012
-262,467	-200,000	0,020	0,065
-261,453	-132,536	-0,120	-0,011
-260,438	-107,710	0,029	-0,005
-259,424	-200,000	-0,002	0,139
-258,409	-200,000	-0,001	0,034
-257,395	68,539	0,111	0,082
-256,380	112,410	-0,080	-0,070
-255,365	-5,049	0,084	-0,042
-254,351	-141,355	-0,108	0,008
-253,336	51,343	-0,028	0,019
-252,322	800,000	0,046	-0,102
-251,307	-200,000	0,006	-0,073
-250,292	800,000	0,019	0,041
-249,278	-200,000	0,021	0,171
-248,263	139,366	0,089	0,085
-247,249	-133,107	-0,046	-0,004
-246,234	-200,000	-0,010	0,045
-245,219	257,547	-0,057	-0,071
-244,205	192,614	0,109	-0,119
-243,190	-68,341	-0,042	0,012
-242,176	423,377	0,066	-0,103
-241,161	360,870	-0,048	0,070
-240,146	800,000	-0,032	-0,082
-239,132	15,669	-0,064	0,036
-238,117	800,000	0,028	-0,089
-237,103	750,014	0,008	0,017
-236,088	336,471	-0,048	-0,067
-235,073	-36,603	0,229	0,089
-234,059	-14,613	0,025	0,011
-233,044	451,375	-0,100	-0,160
-232,030	-46,181	-0,174	0,062
-231,015	800,000	0,031	-0,090
-230,000	-200,000	0,008	-0,065
-228,986	800,000	-0,014	0,041
-227,971	-200,000	-0,029	0,120
-226,957	-200,000	-0,044	0,144
-225,942	467,649	-0,039	-0,064
-224,927	57,100	0,121	0,085
-223,913	-140,002	-0,134	0,010
-222,898	659,731	-0,029	-0,055
-221,884	-200,000	0,014	-0,194
-220,869	-200,000	-0,013	0,088
-219,855	395,115	-0,082	0,124
-218,840	-200,000	0,009	0,038
-217,825	-200,000	0,013	-0,059
-216,811	-200,000	0,013	-0,064
-215,796	-200,000	-0,011	-0,059
-214,782	-98,095	-0,045	0,008
-213,767	-116,705	0,050	0,007
-212,752	313,405	0,006	0,009
-211,738	-200,000	-0,029	0,133
-210,723	-200,000	-0,014	0,094
-209,709	800,000	0,052	-0,108
-208,694	-28,119	-0,128	0,053
-207,679	-4,361	-0,068	0,034
-206,665	160,359	-0,013	-0,013
-205,650	391,981	0,035	-0,052
-204,636	145,542	-0,025	0,025
-203,621	-65,862	-0,068	-0,019
-202,606	98,626	0,081	0,068
-201,592	189,195	-0,038	-0,041
-200,577	409,921	0,031	-0,047
-199,563	-200,000	-0,014	0,056
-198,548	-200,000	0,093	-0,000
-197,533	-77,981	-0,019	0,005
-196,519	413,760	-0,039	0,061
-195,504	498,540	-0,045	0,076
-194,490	-200,000	0,023	-0,181
-193,475	15,603	-0,052	0,029
-192,460	23,775	-0,047	-0,028
-191,446	-17,569	-0,112	0,051
-190,431	-200,000	0,008	0,053
-189,417	51,027	0,043	0,029
-188,402	-4,758	0,132	-0,066
-187,387	542,836	0,034	0,058
-186,373	-12,436	0,124	-0,058
-185,358	-51,007	-0,163	0,055
-184,344	21,725	-0,059	-0,034
-183,329	323,695	0,049	0,068
-182,315	-89,893	0,096	0,020
-181,300	482,126	-0,041	0,068
-180,285	22,200	-0,083	0,049
-179,271	-68,871	0,034	0,009
-178,256	-200,000	-0,027	0,155
-177,242	800,000	-0,011	-0,036
-176,227	-23,511	-0,041	-0,018
-175,212	19,818	-0,038	0,022
-174,198	-31,928	-0,116	-0,047
-173,183	-111,011	0,120	0,018
-172,169	-200,000	0,004	-0,046
-171,154	398,923	-0,041	0,063
-170,139	-200,000	0,003	0,111
-169,125	-24,441	-0,091	-0,039
-168,110	-111,441	0,083	-0,012
-167,096	0,205	0,058	-0,030
-166,081	-119,785	0,046	0,006
-165,066	800,000	-0,033	-0,088
-164,052	-103,692	0,068	-0,011
-163,037	800,000	-0,072	0,185
-162,023	85,216	0,092	0,073
-161,008	-200,000	0,003	0,050
-159,993	179,243	-0,087	-0,092
-158,979	-200,000	-0,010	0,050
-157,964	-200,000	0,000	-0,053
-156,950	753,794	0,042	-0,082
-155,935	-104,189	-0,052	0,009
-154,920	800,000	-0,027	0,065
-153,906	472,527	0,041	-0,067
-152,891	-69,045	0,038	-0,010
-151,877	568,973	-0,019	-0,034
-150,862	-65,405	0,036	0,010
-149,847	-200,000	0,010	0,037
-148,833	-184,363	0,040	0,000
-147,818	17,943	-0,096	0,055
-146,804	-75,094	-0,101	0,026
-145,789	85,663	0,194	0,154
-144,775	193,311	-0,104	-0,113
-143,760	-142,811	0,079	-0,005
-142,745	800,000	0,035	-0,074
-141,731	800,000	-0,029	-0,082
-140,716	-200,000	-0,024	0,116
-139,702	86,354	0,105	0,083
-138,687	800,000	-0,033	-0,082
-137,672	-151,952	0,186	0,010
-136,658	-200,000	-0,034	-0,132
-135,643	-9,245	-0,062	0,030
-134,629	286,046	-0,072	-0,094
-133,614	69,313	0,040	-0,029
-132,599	-200,000	0,004	0,084
-131,585	-200,000	0,004	0,030
-130,570	735,239	0,021	0,040
-129,556	168,999	0,054	0,056
-128,541	145,672	-0,179	-0,173
-127,526	-93,778	0,058	0,011
-126,512	800,000	-0,072	0,202
-125,497	800,000	0,039	-0,118
-124,483	-70,738	0,043	0,012
-123,468	-105,416	-0,236	-0,038
-122,453	170,759	-0,152	-0,156
-121,439	-102,166	0,146	0,025
-120,424	245,574	0,012	0,015
-119,410	-200,000	-0,024	0,104
-118,395	296,636	-0,069	-0,091
-117,380	86,149	0,045	0,035
-116,366	-165,934	-0,101	0,003
-115,351	81,685	-0,121	-0,094
-114,337	-200,000	0,001	0,049
-113,322	173,156	0,028	0,030
-112,307	10,453	0,026	-0,014
-111,293	94,545	0,159	0,130
-110,278	-200,000	0,017	0,081
-109,264	-22,557	-0,130	0,056
-108,249	-200,000	0,008	0,036
-107,234	367,303	0,036	0,053
-106,220	-41,397	-0,101	-0,037
-105,205	-200,000	0,005	-0,086
-104,191	-29,302	0,037	0,015
-103,176	-200,000	0,004	-0,157
-102,162	-11,527	0,056	0,026
-101,147	-200,000	0,001	-0,038
-100,132	800,000	-0,049	-0,099
-99,118	-65,820	-0,112	0,032
-98,103	800,000	0,028	-0,056
-97,089	15,449	-0,064	0,036
-96,074	24,198	-0,158	0,094
-95,059	432,122	0,014	-0,022
-94,045	259,938	-0,030	-0,038
-93,030	666,670	0,097	-0,180
-92,016	443,095	-0,061	-0,097
-91,001	78,196	-0,108	0,083
-89,986	339,316	0,074	-0,104
-88,972	-200,000	0,027	0,149
-87,957	-89,038	0,127	0,027
-86,943	28,981	-0,047	0,028
-85,928	430,223	-0,039	-0,061
-84,913	336,414	-0,053	-0,074
-83,899	313,294	-0,050	0,067
-82,884	-200,000	-0,017	0,062
-81,870	45,084	0,086	0,057
-80,855	33,531	-0,085	-0,053
-79,840	-53,947	-0,129	-0,042
-78,826	800,000	-0,051	-0,144
-77,811	800,000	0,011	-0,031
-76,797	-200,000	0,008	-0,025
-75,782	63,545	-0,106	-0,076
-74,767	-150,162	-0,067	0,004
-73,753	-51,711	-0,025	-0,008
-72,738	-3,904	-0,021	-0,011
-71,724	173,893	-0,066	-0,068
-70,709	-31,537	0,069	0,028
-69,694	8,712	-0,141	0,076
-68,680	-124,933	0,251	0,027
-67,665	800,000	-0,031	0,063
-66,651	365,148	0,076	0,110
-65,636	-32,360	0,036	-0,014
-64,622	-200,000	0,013	-0,060
-63,607	800,000	-0,023	-0,071
-62,592	50,663	0,040	0,027
-61,578	48,169	-0,085	0,057
-60,563	113,763	0,118	-0,103
-59,549	38,906	-0,072	0,046
-58,534	8,296	-1,980	-1,065
-57,519	800,000	-0,290	-0,766
-56,505	-200,000	-1,288	-4,927
-55,490	20,752	0,739	0,428
-54,476	800,000	5,269	11,933
-53,461	-200,000	17,614	283,746
-52,446	800,000	727,186	2215,780
-51,432	534,728	1643,077	2807,264
-50,417	109,885	1633,291	1406,141
-49,403	75,054	1285,864	971,688
-48,388	32,026	1027,607	634,390
-47,373	20,103	989,710	571,659
-46,359	18,537	977,271	559,317
-45,344	15,684	973,330	547,701
-44,330	15,955	971,861	547,738
-43,315	15,497	969,907	545,120
-42,300	15,414	969,019	544,328
-41,286	15,418	968,091	543,801
-40,271	15,330	966,993	542,874
-39,257	15,421	965,990	542,585
-38,242	15,433	965,256	542,191
-37,227	15,443	964,496	541,776
-36,213	15,444	963,512	541,206
-35,198	15,370	962,618	540,442
-34,184	15,454	961,957	540,321
-33,169	15,399	961,096	539,637
-32,154	15,442	960,166	539,233
-31,140	15,419	959,205	538,596
-30,125	15,424	958,519	538,207
-29,111	15,480	957,600	537,851
-28,096	15,496	956,956	537,520
-27,082	15,440	956,361	536,985
-26,067	15,424	955,553	536,456
-25,052	15,444	954,634	535,985
-24,038	15,364	954,241	535,484
-23,023	15,343	953,566	535,019
-22,009	15,432	952,873	534,892
-20,994	15,415	952,320	534,508
-19,979	15,439	951,464	534,084
-18,965	15,348	951,062	533,543
-17,950	15,418	950,351	533,348
-16,936	15,378	949,519	532,731
-15,921	15,341	949,126	532,372
-14,906	15,316	948,360	531,841
-13,892	15,280	947,683	531,327
-12,877	15,241	947,098	530,852
-11,863	15,276	946,301	530,496
-10,848	15,339	945,807	530,398
-9,833	15,380	945,475	530,322
-8,819	15,436	944,803	530,102
-7,804	15,367	944,070	529,451
-6,790	15,336	943,607	529,073
-5,775	15,348	942,989	528,741
-4,760	15,285	942,539	528,270
-3,746	15,369	941,520	527,943
-2,731	15,268	940,885	527,247
-1,717	15,165	940,316	526,579
-0,702	15,144	939,838	526,227
0,313	14,904	939,171	525,889
1,327	18,167	936,702	534,737
2,342	27,118	793,857	476,900
3,356	23,715	459,364	270,725
4,371	-3,395	315,150	156,840
5,386	-7,493	297,032	143,650
6,400	-9,611	290,987	138,605
7,415	-10,067	288,519	136,967
8,429	-10,346	287,106	136,010
9,444	-10,197	286,100	135,666
10,459	-10,250	285,620	135,375
11,473	-10,069	284,991	135,242
12,488	-10,105	284,553	134,987
13,502	-10,335	283,926	134,454
14,517	-10,172	283,604	134,448
15,531	-10,135	283,078	134,222
16,546	-10,163	282,745	134,025
17,561	-10,101	282,347	133,884
18,575	-9,923	282,003	133,881
19,590	-9,911	281,568	133,674
20,604	-10,086	281,512	133,467
21,619	-10,016	280,992	133,276
22,634	-10,235	280,708	132,919
23,648	-10,047	280,348	132,917
24,663	-10,067	279,933	132,690
25,677	-10,114	279,808	132,573
26,692	-10,078	279,579	132,488
27,707	-10,242	279,435	132,250
28,721	-10,086	278,993	132,178
29,736	-10,043	278,675	132,057
30,750	-10,182	278,294	131,732
31,765	-10,191	278,279	131,706
32,780	-10,019	277,889	131,672
33,794	-10,063	277,617	131,490
34,809	-10,197	277,536	131,313
35,823	-10,090	277,196	131,241
36,838	-10,079	277,006	131,150
37,853	-10,246	276,767	130,868
38,867	-10,141	276,466	130,812
39,882	-10,182	276,259	130,664
40,896	-10,100	276,048	130,630
41,911	-10,126	275,692	130,425
42,926	-10,144	275,493	130,302
43,940	-10,366	275,288	129,985
44,955	-9,925	274,791	130,153
45,969	-10,171	274,772	129,901
46,984	-10,487	274,563	129,495
47,999	-10,522	274,197	129,278
49,013	-10,531	273,900	129,118
50,028	-10,653	273,763	128,928
51,042	-10,828	273,402	128,584
52,057	-10,688	273,145	128,582
53,071	-10,615	273,059	128,597
54,086	-10,724	272,835	128,379
55,101	-10,609	272,673	128,399
56,115	-10,490	272,576	128,452
57,130	-10,162	272,386	128,655
58,144	-10,004	272,199	128,702
59,159	-10,130	271,966	128,465
60,174	-10,000	271,722	128,458
61,188	-10,029	271,543	128,334
62,203	-9,915	271,259	128,295
63,217	-10,088	271,127	128,061
64,232	-10,084	270,841	127,918
65,247	-10,020	270,564	127,835
66,261	-9,983	270,367	127,765
67,276	-10,342	270,197	127,342
68,290	-10,371	269,762	127,099
69,305	-10,484	269,628	126,921
70,320	-10,199	269,360	127,045
71,334	-10,075	269,209	127,076
72,349	-9,902	269,012	127,130
73,363	-10,142	268,907	126,849
74,378	-10,025	268,714	126,854
75,393	-9,967	268,467	126,779
76,407	-9,971	268,135	126,608
77,422	-10,277	268,115	126,307
78,436	-10,075	267,660	126,266
79,451	-9,957	267,508	126,291
80,466	-10,113	267,347	126,061
81,480	-10,172	266,987	125,827
82,495	-10,340	266,984	125,662
83,509	-10,268	266,757	125,609
84,524	-10,242	266,534	125,516
85,539	-10,224	266,134	125,333
86,553	-10,367	265,989	125,124
87,568	-10,158	265,844	125,234
88,582	-10,298	265,581	124,972
89,597	-10,207	265,416	124,965
90,611	-10,140	265,422	125,017
91,626	-10,083	265,010	124,863
92,641	-10,057	264,765	124,760
93,655	-10,091	264,684	124,681
94,670	-10,185	264,461	124,480
95,684	-9,919	264,155	124,564
96,699	-10,192	264,148	124,304
97,714	-10,102	263,768	124,195
98,728	-10,138	263,457	124,005
99,743	-10,351	263,324	123,741
100,757	-10,333	263,304	123,737
101,772	-10,251	263,052	123,680
102,787	-10,060	262,797	123,720
103,801	-10,260	262,620	123,448
104,816	-10,144	262,473	123,471
105,830	-10,107	262,393	123,454
106,845	-9,960	262,200	123,484
107,860	-9,964	261,872	123,315
108,874	-10,059	261,776	123,175
109,889	-9,946	261,407	123,089
110,903	-10,347	261,387	122,714
111,918	-10,185	261,088	122,706
112,933	-10,112	260,847	122,646
113,947	-10,004	260,650	122,638
114,962	-10,249	260,540	122,359
115,976	-10,172	260,315	122,311
116,991	-9,960	260,138	122,403
118,006	-10,056	259,926	122,209
119,020	-10,034	259,802	122,159
120,035	-9,984	259,691	122,139
121,049	-9,937	259,472	122,067
122,064	-10,076	259,321	121,862
123,079	-10,123	259,202	121,755
124,093	-10,149	258,880	121,570
125,108	-10,368	258,656	121,262
126,122	-10,412	258,418	121,101
127,137	-10,535	258,230	120,894
128,151	-10,388	258,060	120,932
129,166	-10,255	257,701	120,870
130,181	-10,306	257,589	120,762
131,195	-10,248	257,347	120,688
132,210	-10,179	257,355	120,741
133,224	-10,144	257,098	120,640
134,239	-10,027	256,899	120,638
135,254	-9,906	256,570	120,577
136,268	-10,110	256,448	120,332
137,283	-10,417	256,205	119,942
138,297	-10,448	256,078	119,844
139,312	-10,489	255,936	119,731
140,327	-10,274	255,665	119,780
141,341	-9,891	255,665	120,101
142,356	-10,138	255,475	119,788
143,370	-10,169	255,321	119,678
144,385	-9,958	255,127	119,758
145,400	-9,870	254,933	119,732
146,414	-9,992	254,749	119,531
147,429	-9,957	254,576	119,469
148,443	-9,782	254,239	119,451
149,458	-9,716	254,105	119,433
150,473	-9,963	253,966	119,145
151,487	-10,042	253,802	118,990
152,502	-10,028	253,471	118,836
153,516	-9,983	253,530	118,892
154,531	-9,908	253,175	118,779
155,546	-9,797	253,066	118,812
156,560	-9,885	252,924	118,660
157,575	-10,225	252,733	118,269
158,589	-9,887	252,444	118,412
159,604	-9,942	252,390	118,329
160,619	-9,887	252,169	118,261
161,633	-9,898	251,937	118,133
162,648	-9,808	251,869	118,167
163,662	-9,877	251,604	117,973
164,677	-9,778	251,437	117,969
165,692	-9,913	251,362	117,808
166,706	-9,784	251,187	117,825
167,721	-9,922	250,953	117,588
168,735	-9,918	250,778	117,499
169,750	-9,919	250,681	117,443
170,764	-9,892	250,635	117,433
171,779	-9,942	250,435	117,286
172,794	-9,792	250,244	117,313
173,808	-9,920	249,918	117,042
174,823	-10,089	249,663	116,770
175,837	-10,434	249,498	116,392
176,852	-10,100	249,393	116,614
177,867	-9,901	249,478	116,810
178,881	-9,841	249,268	116,752
179,896	-9,820	248,986	116,627
180,910	-9,972	248,926	116,461
181,925	-9,891	248,612	116,372
182,940	-10,083	248,530	116,162
183,954	-9,865	248,293	116,224
184,969	-9,805	248,145	116,194
185,983	-9,797	247,951	116,099
186,998	-9,697	247,687	116,049
188,013	-9,704	247,540	115,963
189,027	-10,009	247,582	115,719
190,042	-9,893	247,335	115,690
191,056	-9,732	247,008	115,660
192,071	-9,741	246,909	115,596
193,086	-9,972	246,821	115,353
194,100	-9,811	246,527	115,339
195,115	-9,853	246,441	115,253
196,129	-9,749	246,143	115,190
197,144	-9,871	246,049	115,035
198,159	-9,780	245,804	114,985
199,173	-9,867	245,617	114,815
200,188	-9,876	245,459	114,723
201,202	-10,107	245,193	114,399
202,217	-10,483	244,926	113,954
203,232	-10,431	244,719	113,891
204,246	-10,100	244,732	114,159
205,261	-9,687	244,532	114,395
206,275	-10,858	244,047	113,196
207,290	-7,427	245,603	116,741
208,304	0,116	247,938	124,114
209,319	3,936	248,916	127,769
210,334	4,359	249,020	128,163
211,348	4,679	248,819	128,313
212,363	4,843	248,682	128,367
213,377	5,094	248,713	128,580
214,392	4,835	248,531	128,260
215,407	4,672	248,184	127,934
216,421	4,442	248,077	127,678
217,436	4,751	247,997	127,880
218,450	5,152	247,781	128,089
219,465	4,690	247,644	127,626
220,480	4,416	247,393	127,259
221,494	4,492	247,252	127,237
222,509	4,379	247,069	127,039
223,523	4,423	246,886	126,970
224,538	4,050	246,649	126,530
225,553	4,162	246,359	126,462
226,567	4,287	246,432	126,591
227,582	4,449	246,194	126,590
228,596	4,266	246,046	126,353
229,611	4,127	245,823	126,112
230,626	4,141	245,578	125,988
231,640	4,062	245,513	125,878
232,655	4,196	245,504	125,971
233,669	3,987	245,167	125,617
234,684	3,621	245,089	125,267
235,699	4,202	245,258	125,817
236,713	4,391	244,947	125,800
237,728	3,948	244,599	125,250
238,742	3,798	244,448	125,039
239,757	3,857	244,130	124,913
240,772	4,047	244,101	125,041
241,786	4,192	243,787	124,987
242,801	4,147	243,716	124,903
243,815	3,867	243,639	124,625
244,830	4,293	243,531	124,905
245,844	4,322	243,364	124,831
246,859	4,046	243,167	124,496
247,874	4,135	242,894	124,417
248,888	4,162	242,772	124,365
249,903	4,057	242,716	124,241
250,917	4,405	242,561	124,430
251,932	4,360	242,436	124,319
252,947	4,282	242,245	124,147
253,961	4,030	242,071	123,845
254,976	4,489	241,945	124,138
255,990	4,243	241,837	123,874
257,005	4,242	241,501	123,690
258,020	4,050	241,278	123,411
259,034	4,000	241,161	123,300
260,049	4,172	241,136	123,414
261,063	4,102	240,894	123,223
262,078	4,147	240,731	123,164
263,093	4,276	240,607	123,193
264,107	4,608	240,490	123,387
265,122	4,209	240,431	123,027
266,136	4,256	240,289	122,981
267,151	4,227	240,177	122,890
268,166	3,887	240,037	122,536
269,180	3,945	239,673	122,386
270,195	4,616	239,784	122,965
271,209	4,846	239,615	123,051
272,224	4,100	239,385	122,329
273,239	3,846	239,009	121,924
274,253	3,999	238,915	121,987
275,268	4,114	238,795	122,006
276,282	4,026	238,776	121,916
277,297	3,973	238,314	121,627
278,312	4,207	238,432	121,862
279,326	4,073	238,228	121,641
280,341	4,185	238,087	121,646
281,355	4,190	237,911	121,549
282,370	4,172	237,808	121,472
283,384	4,206	237,589	121,376
284,399	3,943	237,409	121,066
285,414	3,924	237,345	121,008
286,428	4,011	237,114	120,948
287,443	4,059	236,910	120,870
288,457	4,243	236,864	120,980
289,472	4,234	236,727	120,893
290,487	4,328	236,590	120,886
291,501	4,157	236,448	120,668
292,516	3,825	236,171	120,257
293,530	3,871	235,937	120,163
294,545	4,103	236,064	120,398
295,560	4,112	235,821	120,270
296,574	3,959	235,530	119,992
297,589	3,946	235,607	120,010
298,603	4,311	235,321	120,138
299,618	4,373	235,249	120,139
300,633	4,365	235,051	120,021
301,647	4,307	234,996	119,937
302,662	4,745	234,878	120,206
303,676	4,515	234,700	119,926
304,691	4,234	234,600	119,646
305,706	4,572	234,566	119,880
306,720	4,413	234,383	119,653
307,735	4,369	234,147	119,488
308,749	4,143	233,887	119,170
309,764	3,935	233,644	118,874
310,779	3,849	233,459	118,703
311,793	3,867	233,313	118,632
312,808	3,727	233,164	118,438
313,822	3,841	232,949	118,406
314,837	3,768	232,792	118,259
315,852	3,539	232,728	118,040
316,866	3,760	232,712	118,191
317,881	4,454	232,633	118,675
318,895	4,503	232,559	118,663
319,910	4,656	232,264	118,620
320,925	4,202	232,152	118,204
321,939	3,717	231,917	117,702
322,954	3,873	231,754	117,729
323,968	3,899	231,492	117,605
324,983	4,265	231,620	117,940
325,997	4,407	231,642	118,048
327,012	4,426	231,244	117,850
328,027	4,239	231,077	117,611
329,041	4,384	231,014	117,680
330,056	4,672	231,054	117,909
331,070	4,920	230,756	117,936
332,085	4,635	230,638	117,648
333,100	4,336	230,345	117,260
334,114	4,116	230,343	117,082
335,129	4,346	230,307	117,228
336,143	4,846	230,030	117,455
337,158	4,763	229,798	117,264
338,173	4,377	229,671	116,897
339,187	4,525	229,361	116,840
340,202	4,595	229,260	116,831
341,216	4,228	229,289	116,558
342,231	4,130	229,080	116,367
343,246	4,338	228,862	116,403
344,260	4,430	228,825	116,443
345,275	4,590	228,701	116,490
346,289	4,530	228,557	116,361
347,304	4,608	228,415	116,338
348,319	4,511	228,259	116,175
349,333	4,289	228,134	115,934
350,348	4,075	228,046	115,718
351,362	4,376	227,824	115,821
352,377	4,083	227,563	115,458
353,392	3,859	227,245	115,119
354,406	3,720	227,269	115,017
355,421	195,252	1320,419	1396,615
356,435	156,545	1453,588	1396,607
