DTS Sentinel unit serial number:	SN410029Multiplexer serial number:	ORYXHardware model number:	OX2-SRSoftware version number:	ORYX F/W v4,00 Oryx Data Collector v3.7.2.0data status	okinstallation	B5 Nyhavnadifferential loss correction	single-endedforward channel	channel 2reverse channel	N/Adate	2023/12/12time	03:47:13forward acquisition time	300,00reverse acquisition time	0,00gamma	499,1914k internal	0,3156k external	0,3156temperature offset calibration	1,0000default loss term (dB/km)	0,3820temperature slope calibration	1,0000multiplexer offset coefficient	1,0000multiplexer slope coefficient	1,0000fibre end	0,00T internal ref (°C)	15,62T ext. ref 1 (°C)	-0,86T ext. ref 2 (°C)	-1,15length (m)	temperature (°C)	Stokes	anti-Stokes-744,400	-106,692	0,187	0,030
-743,385	-163,440	-0,264	0,009
-742,371	-200,000	0,036	0,146
-741,356	-116,316	-0,425	0,057
-740,342	186,079	0,093	-0,102
-739,327	-108,516	-0,208	0,033
-738,312	-200,000	-0,002	-0,082
-737,298	-200,000	-0,378	0,000
-736,283	254,222	0,041	0,052
-735,269	-96,931	-0,285	0,055
-734,254	148,437	0,083	0,083
-733,239	-37,570	-0,537	-0,210
-732,225	202,442	0,033	0,037
-731,210	800,000	-0,038	0,085
-730,196	127,056	-0,042	0,039
-729,181	800,000	0,060	-0,179
-728,167	66,462	-0,107	-0,080
-727,152	42,164	-0,086	0,057
-726,137	-49,786	-0,191	-0,066
-725,123	-200,000	-0,016	-0,079
-724,108	143,413	-0,060	-0,059
-723,094	755,769	0,043	-0,086
-722,079	119,672	0,084	-0,077
-721,064	-200,000	0,027	-0,118
-720,050	389,103	-0,067	0,102
-719,035	60,847	-0,162	-0,118
-718,021	800,000	0,050	0,119
-717,006	-200,000	-0,077	-0,000
-715,991	29,449	-0,144	-0,090
-714,977	-176,113	-0,154	0,003
-713,962	-200,000	-0,019	-0,068
-712,948	-200,000	-0,006	0,083
-711,933	-123,240	-0,107	-0,012
-710,918	235,096	0,019	-0,023
-709,904	208,521	-0,062	-0,072
-708,889	-200,000	-0,014	0,059
-707,875	-200,000	-0,045	-0,156
-706,860	752,507	-0,023	-0,046
-705,845	-200,000	-0,006	0,085
-704,831	-54,774	-0,135	0,045
-703,816	800,000	0,036	0,094
-702,802	42,815	-0,147	-0,099
-701,787	-200,000	0,006	0,030
-700,772	-124,390	-0,041	0,005
-699,758	-116,135	0,127	0,017
-698,743	-131,455	0,090	0,009
-697,729	588,876	-0,047	0,085
-696,714	172,758	0,014	0,015
-695,699	413,868	0,008	-0,013
-694,685	-64,787	-0,090	0,027
-693,670	-103,258	-0,056	-0,010
-692,656	-200,000	0,010	0,157
-691,641	307,959	-0,073	0,101
-690,627	69,550	0,076	0,057
-689,612	-200,000	0,009	0,056
-688,597	800,000	-0,041	0,104
-687,583	193,696	-0,100	-0,112
-686,568	800,000	0,046	0,097
-685,554	170,954	-0,054	0,057
-684,539	-200,000	-0,027	-0,122
-683,524	-60,127	0,045	0,014
-682,510	-79,120	-0,108	-0,027
-681,495	-16,299	0,035	-0,016
-680,481	-177,145	-0,024	-0,000
-679,466	800,000	0,015	-0,044
-678,451	800,000	0,053	-0,134
-677,437	-5,903	0,099	0,050
-676,422	-23,037	0,112	0,050
-675,408	19,818	0,086	0,051
-674,393	137,683	0,103	0,100
-673,378	-200,000	0,015	-0,068
-672,364	178,168	-0,053	-0,057
-671,349	800,000	0,029	-0,083
-670,335	-4,999	0,208	0,105
-669,320	-200,000	0,005	-0,079
-668,305	800,000	0,016	-0,040
-667,291	-194,247	0,092	0,001
-666,276	800,000	-0,054	0,135
-665,262	241,558	0,053	0,065
-664,247	-200,000	0,014	-0,143
-663,232	-200,000	0,028	0,220
-662,218	-200,000	-0,014	0,105
-661,203	-108,696	0,085	-0,013
-660,189	800,000	0,030	0,088
-659,174	66,474	-0,081	0,060
-658,159	-14,651	0,092	0,043
-657,145	-200,000	0,005	-0,104
-656,130	-48,713	0,090	-0,032
-655,116	-97,471	0,042	-0,008
-654,101	72,163	0,067	-0,052
-653,086	-200,000	0,005	-0,076
-652,072	-36,042	-0,083	-0,033
-651,057	218,901	0,025	-0,029
-650,043	526,883	-0,111	-0,193
-649,028	501,469	-0,029	0,049
-648,014	-40,155	-0,029	-0,011
-646,999	800,000	-0,037	0,115
-645,984	214,912	0,021	0,025
-644,970	-73,146	-0,127	0,034
-643,955	800,000	-0,071	-0,199
-642,941	-159,012	0,050	-0,002
-641,926	-200,000	-0,014	-0,078
-640,911	-200,000	-0,014	-0,065
-639,897	-200,000	-0,018	0,183
-638,882	800,000	0,074	0,171
-637,868	-21,768	-0,024	-0,011
-636,853	168,859	-0,089	-0,094
-635,838	218,969	0,019	-0,022
-634,824	39,940	-0,128	0,084
-633,809	800,000	-0,034	-0,075
-632,795	14,498	-0,098	0,056
-631,780	67,718	-0,029	-0,022
-630,765	519,424	-0,039	0,068
-629,751	800,000	-0,033	0,076
-628,736	2,553	-0,058	0,031
-627,722	-200,000	0,022	0,077
-626,707	800,000	0,057	0,140
-625,692	-40,504	0,068	-0,026
-624,678	-200,000	-0,012	-0,045
-623,663	-92,562	0,036	0,007
-622,649	800,000	-0,030	-0,079
-621,634	-200,000	-0,043	-0,188
-620,619	-68,139	-0,111	-0,032
-619,605	584,321	0,055	0,100
-618,590	-200,000	0,011	-0,094
-617,576	21,908	0,059	-0,035
-616,561	-200,000	0,003	-0,080
-615,546	-200,000	0,021	-0,070
-614,532	563,793	-0,024	-0,043
-613,517	247,067	-0,081	-0,101
-612,503	60,167	0,105	-0,076
-611,488	646,434	0,067	0,126
-610,474	147,207	0,098	0,097
-609,459	-159,680	-0,090	-0,004
-608,444	-101,082	-0,062	-0,011
-607,430	-34,992	-0,139	-0,055
-606,415	-101,008	-0,099	0,018
-605,401	-49,473	0,098	-0,034
-604,386	-115,612	0,120	-0,016
-603,371	264,580	0,013	0,017
-602,357	-200,000	0,006	-0,045
-601,342	189,599	-0,043	-0,047
-600,328	800,000	0,033	-0,086
-599,313	-86,744	-0,035	0,008
-598,298	-200,000	-0,022	0,073
-597,284	-133,022	0,042	0,004
-596,269	176,737	0,119	0,127
-595,255	70,900	-0,097	0,074
-594,240	99,575	-0,052	-0,044
-593,225	-67,695	-0,058	0,016
-592,211	199,705	0,064	-0,072
-591,196	-200,000	-0,020	-0,092
-590,182	-200,000	-0,002	0,224
-589,167	346,552	0,022	0,032
-588,152	225,640	0,030	0,036
-587,138	-200,000	0,015	0,099
-586,123	535,105	-0,091	-0,159
-585,109	-27,026	-0,058	-0,025
-584,094	-2,915	-0,036	-0,019
-583,079	-72,696	-0,062	-0,017
-582,065	-200,000	-0,027	0,167
-581,050	335,110	-0,051	0,072
-580,036	-200,000	0,012	0,056
-579,021	431,804	-0,028	-0,045
-578,006	718,380	-0,084	-0,163
-576,992	480,787	0,029	0,048
-575,977	113,484	-0,106	0,094
-574,963	-190,028	-0,176	0,001
-573,948	21,554	0,045	-0,027
-572,934	-69,280	0,049	-0,014
-571,919	-200,000	-0,010	-0,047
-570,904	-67,300	-0,057	0,016
-569,890	49,758	-0,092	-0,063
-568,875	-163,886	0,155	0,005
-567,861	-200,000	0,013	-0,082
-566,846	-42,905	0,109	-0,040
-565,831	163,185	0,108	0,111
-564,817	-59,651	-0,093	0,029
-563,802	800,000	-0,065	-0,160
-562,788	661,245	-0,015	0,028
-561,773	88,478	0,143	-0,116
-560,758	54,782	-0,102	-0,072
-559,744	-51,980	0,036	0,012
-558,729	459,652	0,045	0,074
-557,715	800,000	0,023	0,050
-556,700	-200,000	0,015	0,066
-555,685	71,680	0,018	-0,014
-554,671	-133,071	0,101	-0,009
-553,656	-60,220	0,080	-0,025
-552,642	183,932	0,053	0,057
-551,627	-200,000	0,006	0,037
-550,612	-27,913	-0,073	0,031
-549,598	-109,610	0,067	0,010
-548,583	-200,000	0,031	0,000
-547,569	800,000	-0,020	0,047
-546,554	174,041	0,126	0,133
-545,539	-200,000	0,012	0,049
-544,525	-200,000	0,008	0,178
-543,510	-99,403	-0,025	0,005
-542,496	800,000	0,032	-0,065
-541,481	44,460	-0,103	0,069
-540,466	342,580	-0,104	0,150
-539,452	182,228	-0,091	0,098
-538,437	-200,000	-0,012	-0,118
-537,423	317,404	0,059	-0,081
-536,408	800,000	-0,020	-0,041
-535,393	115,927	-0,078	0,070
-534,379	55,375	0,106	-0,075
-533,364	460,505	0,035	0,058
-532,350	-11,372	0,058	0,028
-531,335	35,089	-0,061	-0,039
-530,321	319,801	-0,059	0,082
-529,306	-126,089	-0,078	-0,008
-528,291	-107,520	-0,022	0,004
-527,277	87,544	-0,084	-0,068
-526,262	-77,762	0,093	-0,023
-525,248	-200,000	0,003	-0,097
-524,233	-200,000	0,024	0,116
-523,218	-74,372	-0,075	0,020
-522,204	666,501	0,056	0,106
-521,189	190,251	-0,024	-0,026
-520,175	-200,000	-0,007	-0,118
-519,160	800,000	-0,048	-0,144
-518,145	-200,000	0,002	-0,079
-517,131	-11,591	0,040	0,019
-516,116	513,608	0,034	-0,059
-515,102	41,490	-0,055	0,036
-514,087	76,004	-0,076	0,059
-513,072	-55,074	-0,118	0,039
-512,058	-200,000	-0,007	0,041
-511,043	-200,000	0,032	-0,132
-510,029	-65,519	0,091	0,027
-509,014	-15,196	0,071	-0,033
-507,999	93,758	-0,050	0,042
-506,985	-100,663	-0,106	-0,019
-505,970	769,076	0,056	0,112
-504,956	-200,000	-0,007	-0,036
-503,941	800,000	0,027	-0,081
-502,926	-99,862	-0,045	0,008
-501,912	523,616	0,082	-0,142
-500,897	142,877	0,068	0,066
-499,883	202,050	-0,029	0,032
-498,868	57,040	-0,094	-0,067
-497,853	-200,000	-0,002	-0,149
-496,839	123,286	0,082	-0,075
-495,824	800,000	-0,017	0,050
-494,810	-200,000	-0,015	-0,129
-493,795	-74,277	0,090	0,024
-492,781	800,000	-0,015	-0,039
-491,766	266,786	-0,072	-0,092
-490,751	-200,000	-0,014	-0,076
-489,737	-164,409	-0,106	-0,003
-488,722	-200,000	0,008	-0,050
-487,708	800,000	0,014	0,041
-486,693	800,000	-0,020	-0,050
-485,678	800,000	-0,025	0,061
-484,664	-134,774	-0,115	0,010
-483,649	218,939	0,111	-0,129
-482,635	-200,000	-0,018	-0,141
-481,620	-147,244	0,019	0,001
-480,605	-200,000	0,022	0,244
-479,591	12,773	0,061	-0,034
-478,576	214,270	0,050	-0,057
-477,562	317,073	0,044	0,061
-476,547	201,148	-0,047	-0,053
-475,532	214,440	0,080	-0,093
-474,518	133,712	0,098	0,092
-473,503	-141,582	0,022	0,002
-472,489	248,516	-0,024	0,030
-471,474	-80,553	0,166	0,040
-470,459	65,551	0,061	-0,045
-469,445	-53,465	-0,149	-0,049
-468,430	49,439	-0,139	-0,095
-467,416	105,588	0,101	-0,087
-466,401	-124,003	-0,082	0,009
-465,386	406,475	-0,038	0,058
-464,372	-200,000	-0,010	0,096
-463,357	800,000	-0,037	-0,091
-462,343	111,968	0,103	0,090
-461,328	646,924	-0,014	-0,026
-460,313	-159,143	-0,083	0,003
-459,299	-92,077	0,107	0,022
-458,284	97,839	-0,024	0,020
-457,270	-3,310	0,111	-0,056
-456,255	-200,000	-0,122	0,000
-455,241	521,988	-0,029	0,050
-454,226	800,000	-0,032	-0,096
-453,211	413,803	-0,078	0,121
-452,197	90,176	0,202	0,164
-451,182	87,348	-0,072	-0,058
-450,168	-60,481	-0,044	-0,014
-449,153	-121,730	-0,012	-0,001
-448,138	800,000	0,055	-0,130
-447,124	-62,821	-0,042	-0,013
-446,109	-36,623	-0,081	-0,031
-445,095	54,257	0,075	0,053
-444,080	720,808	-0,032	0,062
-443,065	171,848	-0,080	0,084
-442,051	800,000	0,032	0,084
-441,036	22,020	-0,105	-0,062
-440,022	800,000	-0,021	0,055
-439,007	-200,000	-0,001	0,022
-437,992	220,226	0,069	-0,080
-436,978	-200,000	0,018	-0,082
-435,963	-200,000	-0,031	-0,144
-434,949	-106,548	-0,052	0,008
-433,934	800,000	-0,026	0,083
-432,919	-137,797	-0,102	-0,008
-431,905	-80,700	0,101	0,024
-430,890	-103,666	0,131	-0,022
-429,876	-200,000	-0,005	-0,099
-428,861	7,250	0,179	0,097
-427,846	173,811	-0,051	0,053
-426,832	800,000	-0,038	-0,104
-425,817	16,183	0,056	0,032
-424,803	18,218	-0,076	-0,044
-423,788	269,260	0,048	0,062
-422,773	117,304	0,082	0,073
-421,759	656,029	0,038	-0,072
-420,744	-59,157	-0,051	-0,016
-419,730	-199,658	0,061	-0,000
-418,715	558,866	-0,057	-0,101
-417,701	-200,000	-0,002	0,008
-416,686	-52,801	0,013	0,004
-415,671	-84,037	-0,165	-0,038
-414,657	800,000	-0,017	0,046
-413,642	800,000	-0,026	0,071
-412,628	-184,800	-0,067	0,001
-411,613	-200,000	-0,029	-0,111
-410,598	-200,000	0,022	-0,135
-409,584	-15,690	-0,101	-0,047
-408,569	158,625	-0,083	-0,084
-407,555	123,107	0,116	-0,106
-406,540	58,948	0,069	-0,049
-405,525	3,676	-0,022	-0,012
-404,511	-178,173	-0,090	-0,002
-403,496	-125,760	-0,043	-0,005
-402,482	574,961	0,052	-0,092
-401,467	-200,000	-0,026	0,141
-400,452	-200,000	-0,022	0,082
-399,438	-126,888	-0,056	0,006
-398,423	-7,079	0,061	-0,030
-397,409	800,000	-0,021	0,054
-396,394	345,655	-0,054	-0,078
-395,379	-97,571	0,109	0,020
-394,365	247,609	0,110	0,136
-393,350	5,883	0,132	0,071
-392,336	15,238	0,064	0,037
-391,321	-53,778	0,097	0,032
-390,306	-32,311	-0,055	-0,022
-389,292	361,756	0,046	-0,067
-388,277	424,283	0,017	0,026
-387,263	733,923	-0,053	-0,103
-386,248	-200,000	0,001	-0,007
-385,233	800,000	-0,034	0,100
-384,219	-125,615	0,044	0,005
-383,204	-133,476	-0,030	-0,003
-382,190	220,478	0,067	-0,078
-381,175	-200,000	-0,038	-0,171
-380,160	633,200	-0,019	-0,035
-379,146	16,558	0,058	0,033
-378,131	-50,961	0,194	0,066
-377,117	23,781	-0,079	0,047
-376,102	423,490	-0,076	-0,119
-375,088	258,678	-0,026	-0,032
-374,073	59,664	-0,119	-0,085
-373,058	128,863	0,073	0,067
-372,044	385,305	0,062	0,093
-371,029	-200,000	-0,000	0,056
-370,015	711,357	-0,028	-0,054
-369,000	-141,411	0,033	-0,002
-367,985	-104,638	-0,050	-0,008
-366,971	-64,704	-0,127	-0,037
-365,956	489,971	0,060	0,101
-364,942	-182,500	0,091	0,001
-363,927	169,908	0,084	-0,088
-362,912	-31,534	-0,070	-0,028
-361,898	-200,000	-0,010	0,042
-360,883	212,094	0,069	-0,079
-359,869	800,000	-0,062	0,136
-358,854	146,553	0,045	0,044
-357,839	-84,059	0,052	0,012
-356,825	-7,551	0,036	0,018
-355,810	-200,000	0,007	0,081
-354,796	-14,227	-0,041	0,019
-353,781	485,133	0,037	-0,062
-352,766	-101,897	0,112	0,020
-351,752	44,512	-0,106	-0,071
-350,737	-99,457	0,154	0,028
-349,723	380,912	-0,078	0,117
-348,708	-200,000	-0,009	-0,176
-347,693	-118,641	-0,077	-0,010
-346,679	-82,844	0,078	-0,018
-345,664	307,607	0,013	0,017
-344,650	-102,696	-0,081	0,014
-343,635	111,452	0,071	0,062
-342,620	800,000	0,039	0,121
-341,606	341,963	-0,100	0,143
-340,591	-35,119	-0,142	0,056
-339,577	-84,090	-0,033	0,008
-338,562	-29,509	-0,057	0,023
-337,548	213,343	0,102	0,117
-336,533	-94,166	0,085	-0,017
-335,518	122,855	-0,085	-0,077
-334,504	-42,326	-0,104	-0,038
-333,489	-65,042	0,121	-0,035
-332,475	63,929	0,076	-0,055
-331,460	-13,908	-0,043	0,020
-330,445	-85,871	-0,143	0,032
-329,431	234,551	-0,079	-0,095
-328,416	-152,235	0,027	-0,001
-327,402	800,000	-0,023	0,057
-326,387	146,359	0,174	-0,170
-325,372	-159,627	-0,194	-0,008
-324,358	800,000	-0,022	0,064
-323,343	-200,000	-0,004	-0,047
-322,329	509,267	0,053	0,089
-321,314	677,381	0,015	0,029
-320,299	-139,318	0,141	-0,011
-319,285	184,706	-0,020	0,021
-318,270	-200,000	-0,022	-0,136
-317,256	718,277	0,047	-0,090
-316,241	483,721	-0,051	0,084
-315,226	-200,000	0,008	0,072
-314,212	-23,598	0,166	0,072
-313,197	-18,138	-0,057	-0,026
-312,183	-200,000	-0,003	-0,098
-311,168	216,349	0,082	0,095
-310,153	-200,000	0,013	-0,154
-309,139	696,214	-0,048	-0,091
-308,124	541,677	0,097	0,169
-307,110	91,096	-0,025	0,021
-306,095	-200,000	-0,003	-0,017
-305,080	41,079	0,055	-0,036
-304,066	-200,000	-0,018	0,077
-303,051	134,578	0,053	-0,050
-302,037	210,133	-0,056	0,064
-301,022	-200,000	-0,017	-0,115
-300,008	-200,000	0,033	-0,106
-298,993	-112,495	0,116	-0,017
-297,978	-90,618	-0,174	-0,036
-296,964	80,340	-0,119	0,093
-295,949	110,711	0,050	0,044
-294,935	-200,000	-0,039	-0,199
-293,920	-98,438	0,105	0,019
-292,905	111,710	-0,091	-0,079
-291,891	41,943	-0,118	-0,077
-290,876	233,014	0,053	-0,063
-289,862	-51,238	0,036	0,012
-288,847	582,248	-0,061	-0,109
-287,832	-200,000	-0,007	0,105
-286,818	-118,480	-0,043	0,005
-285,803	-32,949	0,134	0,054
-284,789	106,019	-0,065	-0,056
-283,774	-127,649	-0,063	-0,006
-282,759	423,056	-0,041	0,064
-281,745	-200,000	-0,008	0,104
-280,730	-82,738	-0,126	-0,029
-279,716	411,444	0,048	0,073
-278,701	64,102	-0,087	0,063
-277,686	-200,000	-0,014	0,124
-276,672	-97,567	0,085	-0,016
-275,657	542,857	-0,067	-0,117
-274,643	716,571	0,018	-0,035
-273,628	-200,000	0,027	0,100
-272,613	577,608	-0,050	0,089
-271,599	-200,000	-0,022	0,082
-270,584	800,000	0,063	0,173
-269,570	-200,000	-0,003	0,028
-268,555	379,668	0,039	0,058
-267,540	-200,000	-0,055	-0,258
-266,526	-200,000	0,002	-0,079
-265,511	117,404	-0,095	0,084
-264,497	-200,000	0,031	0,103
-263,482	-49,405	0,094	0,032
-262,467	-157,321	0,060	0,003
-261,453	33,982	-0,068	-0,043
-260,438	55,038	-0,124	0,087
-259,424	800,000	-0,031	-0,088
-258,409	800,000	-0,027	0,075
-257,395	360,399	0,055	-0,079
-256,380	180,459	0,127	-0,135
-255,365	171,744	0,081	0,084
-254,351	-200,000	0,001	-0,047
-253,336	-115,592	0,130	0,017
-252,322	286,159	0,039	0,050
-251,307	-146,373	0,123	-0,008
-250,292	800,000	0,017	0,047
-249,278	-150,640	0,079	0,004
-248,263	112,494	-0,160	0,140
-247,249	130,681	0,200	0,186
-246,234	178,244	-0,083	-0,088
-245,219	-23,237	-0,188	-0,081
-244,205	220,583	0,046	-0,054
-243,190	134,646	-0,039	-0,037
-242,176	97,503	-0,074	-0,061
-241,161	200,357	0,070	0,078
-240,146	-200,000	-0,004	0,089
-239,132	-8,655	-0,080	0,039
-238,117	-200,000	-0,010	-0,089
-237,103	-153,058	-0,114	0,006
-236,088	204,040	0,035	0,039
-235,073	-128,498	0,196	-0,020
-234,059	-36,659	0,022	0,009
-233,044	-200,000	-0,034	0,184
-232,030	400,853	0,060	-0,091
-231,015	82,829	0,047	-0,037
-230,000	-200,000	0,010	-0,174
-228,986	38,388	0,060	-0,038
-227,971	30,498	0,086	-0,053
-226,957	116,805	0,030	0,026
-225,942	203,228	-0,076	0,085
-224,927	-97,268	0,124	0,023
-223,913	-200,000	-0,013	-0,138
-222,898	-200,000	-0,014	-0,142
-221,884	800,000	0,017	-0,036
-220,869	-200,000	-0,015	-0,095
-219,855	-84,906	0,122	0,027
-218,840	-200,000	-0,020	0,081
-217,825	185,908	-0,031	0,034
-216,811	0,736	-0,118	-0,061
-215,796	-200,000	0,007	-0,045
-214,782	-130,630	0,100	0,010
-213,767	-115,752	-0,077	-0,010
-212,752	-200,000	0,006	-0,070
-211,738	42,197	0,101	0,066
-210,723	-200,000	-0,021	0,099
-209,709	-63,891	-0,118	0,035
-208,694	29,532	-0,098	-0,060
-207,679	-54,977	-0,129	-0,042
-206,665	-200,000	0,006	0,111
-205,650	-200,000	0,026	0,112
-204,636	-98,277	0,026	0,005
-203,621	0,874	0,206	0,106
-202,606	-200,000	0,013	-0,187
-201,592	72,273	-0,083	0,062
-200,577	19,879	-0,078	0,045
-199,563	-200,000	-0,012	0,054
-198,548	304,264	0,096	0,129
-197,533	-108,407	0,122	0,019
-196,519	800,000	0,050	-0,121
-195,504	800,000	0,045	0,138
-194,490	800,000	-0,028	-0,072
-193,475	-200,000	-0,024	0,077
-192,460	-147,947	-0,075	-0,004
-191,446	-39,502	-0,165	-0,062
-190,431	800,000	-0,035	0,094
-189,417	663,377	-0,052	0,097
-188,402	800,000	-0,082	0,174
-187,387	-117,116	-0,119	-0,015
-186,373	-200,000	0,009	-0,041
-185,358	461,167	0,042	0,067
-184,344	-161,537	0,184	0,007
-183,329	21,588	0,105	-0,062
-182,315	57,440	-0,072	0,051
-181,300	155,202	-0,099	0,098
-180,285	-200,000	-0,036	-0,128
-179,271	-34,307	0,046	-0,018
-178,256	460,700	0,021	0,034
-177,242	-22,105	0,124	0,054
-176,227	236,937	0,082	0,098
-175,212	800,000	0,025	0,052
-174,198	-84,556	0,086	0,019
-173,183	301,618	0,056	-0,075
-172,169	800,000	0,076	-0,159
-171,154	800,000	0,008	0,019
-170,139	105,407	-0,067	0,057
-169,125	800,000	0,037	0,113
-168,110	800,000	-0,028	-0,057
-167,096	800,000	-0,083	-0,188
-166,081	11,255	0,053	-0,029
-165,066	-200,000	-0,001	-0,079
-164,052	140,969	-0,026	0,025
-163,037	622,165	0,058	-0,105
-162,023	10,662	-0,047	-0,026
-161,008	-200,000	-0,016	-0,051
-159,993	201,535	0,053	0,059
-158,979	-200,000	-0,007	0,060
-157,964	364,910	-0,018	-0,025
-156,950	-129,519	0,092	-0,009
-155,935	-16,666	0,095	-0,043
-154,920	800,000	0,054	0,161
-153,906	465,616	-0,066	0,107
-152,891	-130,243	0,123	-0,012
-151,877	16,819	-0,117	0,067
-150,862	800,000	-0,026	0,056
-149,847	7,191	-0,077	0,041
-148,833	800,000	0,058	0,120
-147,818	80,702	-0,072	0,056
-146,804	-200,000	0,014	0,158
-145,789	-200,000	0,003	0,091
-144,775	-200,000	-0,005	0,093
-143,760	86,928	0,032	-0,025
-142,745	154,573	-0,045	-0,045
-141,731	-35,804	-0,041	-0,016
-140,716	125,194	-0,046	-0,042
-139,702	373,495	0,042	0,062
-138,687	800,000	0,010	0,022
-137,672	-200,000	-0,006	-0,121
-136,658	-200,000	-0,001	-0,153
-135,643	-200,000	-0,019	-0,129
-134,629	-200,000	0,005	-0,039
-133,614	-200,000	-0,037	0,134
-132,599	198,055	-0,093	-0,102
-131,585	349,761	-0,041	0,058
-130,570	268,600	0,033	0,042
-129,556	-1,341	-0,097	-0,049
-128,541	667,780	-0,017	-0,032
-127,526	-115,523	0,196	0,026
-126,512	-121,434	0,130	-0,015
-125,497	-85,629	0,186	0,041
-124,483	-116,300	-0,069	-0,009
-123,468	800,000	-0,033	0,073
-122,453	689,573	-0,006	0,012
-121,439	-88,762	0,185	-0,039
-120,424	800,000	0,048	0,134
-119,410	16,349	0,121	0,068
-118,395	-36,542	-0,037	-0,014
-117,380	215,251	0,187	-0,214
-116,366	800,000	-0,053	0,112
-115,351	-200,000	-0,002	0,119
-114,337	-171,670	0,051	-0,001
-113,322	-27,847	0,109	0,045
-112,307	-89,482	0,111	-0,023
-111,293	-200,000	0,011	-0,062
-110,278	800,000	0,040	-0,096
-109,264	254,201	-0,049	0,060
-108,249	800,000	0,044	-0,113
-107,234	17,416	0,031	-0,018
-106,220	2,949	-0,152	0,079
-105,205	241,965	0,074	0,090
-104,191	-89,762	-0,100	0,021
-103,176	800,000	-0,043	0,103
-102,162	161,612	0,016	0,017
-101,147	-200,000	0,003	0,064
-100,132	-68,216	-0,203	0,056
-99,118	-100,248	0,106	0,019
-98,103	-169,210	-0,091	0,002
-97,089	307,646	0,021	0,029
-96,074	-200,000	0,003	-0,074
-95,059	130,633	-0,035	0,032
-94,045	800,000	-0,054	-0,159
-93,030	800,000	0,043	-0,115
-92,016	-51,207	0,050	0,017
-91,001	-200,000	0,007	0,048
-89,986	39,014	-0,045	-0,029
-88,972	323,634	0,098	0,135
-87,957	-192,927	0,086	-0,001
-86,943	9,909	-0,026	-0,014
-85,928	74,302	-0,083	-0,062
-84,913	-85,441	-0,119	-0,026
-83,899	432,134	-0,021	0,033
-82,884	49,274	-0,070	-0,048
-81,870	46,617	0,047	-0,031
-80,855	-38,895	0,079	0,030
-79,840	-200,000	0,039	-0,132
-78,826	308,401	-0,095	-0,128
-77,811	800,000	-0,029	-0,068
-76,797	800,000	0,016	0,048
-75,782	341,104	-0,097	0,137
-74,767	113,502	0,057	0,050
-73,753	201,192	0,115	0,127
-72,738	-60,334	0,073	-0,022
-71,724	-200,000	0,021	-0,073
-70,709	-9,991	-0,133	0,063
-69,694	800,000	-0,010	0,024
-68,680	-147,520	-0,013	-0,001
-67,665	-49,613	0,115	0,039
-66,651	350,045	-0,100	-0,142
-65,636	800,000	-0,026	-0,071
-64,622	720,226	0,030	-0,058
-63,607	202,869	0,083	-0,092
-62,592	702,958	-0,025	0,047
-61,578	-200,000	0,019	-0,088
-60,563	157,097	-0,090	0,089
-59,549	250,317	-0,088	0,107
-58,534	-3,152	-1,819	-0,908
-57,519	-200,000	-0,275	-1,087
-56,505	-200,000	-1,242	-4,905
-55,490	4,089	0,784	0,410
-54,476	800,000	5,224	12,079
-53,461	-200,000	17,438	283,612
-52,446	800,000	725,286	2218,310
-51,432	537,701	1641,529	2811,132
-50,417	110,606	1632,634	1409,097
-49,403	75,198	1286,486	972,784
-48,388	32,341	1028,093	635,797
-47,373	20,208	989,931	572,164
-46,359	18,648	977,936	560,090
-45,344	15,885	974,182	548,869
-44,330	16,164	972,384	548,748
-43,315	15,665	970,775	546,186
-42,300	15,675	969,484	545,472
-41,286	15,613	968,698	544,808
-40,271	15,575	967,624	544,058
-39,257	15,678	966,667	543,832
-38,242	15,711	965,733	543,393
-37,227	15,646	965,220	542,873
-36,213	15,621	964,376	542,296
-35,198	15,610	963,305	541,635
-34,184	15,704	962,539	541,487
-33,169	15,622	961,611	540,677
-32,154	15,666	960,641	540,252
-31,140	15,710	959,719	539,855
-30,125	15,705	959,096	539,467
-29,111	15,619	958,372	538,762
-28,096	15,666	957,724	538,527
-27,082	15,684	956,975	538,144
-26,067	15,622	956,308	537,546
-25,052	15,622	955,486	537,063
-24,038	15,651	954,678	536,680
-23,023	15,648	953,963	536,247
-22,009	15,706	953,403	536,097
-20,994	15,632	952,840	535,522
-19,979	15,686	951,932	535,165
-18,965	15,664	951,659	534,918
-17,950	15,667	951,009	534,542
-16,936	15,572	950,382	533,864
-15,921	15,624	949,606	533,576
-14,906	15,573	948,955	533,026
-13,892	15,552	948,197	532,511
-12,877	15,540	947,577	532,103
-11,863	15,544	947,047	531,798
-10,848	15,474	946,623	531,316
-9,833	15,686	945,915	531,572
-8,819	15,591	945,433	530,976
-7,804	15,584	944,738	530,542
-6,790	15,566	944,209	530,167
-5,775	15,563	943,702	529,853
-4,760	15,645	942,874	529,625
-3,746	15,566	942,255	529,009
-2,731	15,412	941,733	528,207
-1,717	15,417	940,861	527,713
-0,702	15,406	940,309	527,346
0,313	15,184	939,665	527,080
1,327	18,333	937,409	535,694
2,342	27,146	794,695	477,505
3,356	23,930	458,900	270,795
4,371	-3,251	314,086	156,473
5,386	-7,269	295,868	143,322
6,400	-9,305	289,755	138,329
7,415	-9,749	287,373	136,743
8,429	-9,868	285,914	135,920
9,444	-9,939	285,006	135,407
10,459	-9,900	284,318	135,106
11,473	-9,855	283,799	134,891
12,488	-9,897	283,344	134,623
13,502	-9,892	282,966	134,435
14,517	-9,661	282,400	134,378
15,531	-9,755	282,038	134,103
16,546	-9,576	281,468	133,992
17,561	-9,723	281,120	133,673
18,575	-9,761	280,846	133,495
19,590	-9,839	280,420	133,205
20,604	-9,771	280,234	133,170
21,619	-9,732	279,792	132,985
22,634	-9,546	279,381	132,956
23,648	-9,644	279,165	132,748
24,663	-9,957	278,822	132,274
25,677	-9,666	278,582	132,426
26,692	-9,655	278,383	132,330
27,707	-9,935	278,077	131,907
28,721	-9,863	277,898	131,878
29,736	-9,891	277,486	131,645
30,750	-9,815	277,285	131,609
31,765	-9,770	276,976	131,494
32,780	-9,670	276,827	131,506
33,794	-9,761	276,542	131,273
34,809	-9,624	276,328	131,289
35,823	-9,760	276,002	130,994
36,838	-9,683	275,732	130,926
37,853	-9,772	275,519	130,730
38,867	-9,872	275,387	130,562
39,882	-9,682	274,984	130,537
40,896	-9,711	274,798	130,410
41,911	-9,826	274,629	130,211
42,926	-9,980	274,397	129,945
43,940	-9,850	274,026	129,880
44,955	-9,819	273,824	129,800
45,969	-9,752	273,521	129,708
46,984	-9,976	273,417	129,439
47,999	-10,217	273,041	129,025
49,013	-10,110	272,594	128,902
50,028	-10,193	272,557	128,795
51,042	-10,556	272,351	128,349
52,057	-10,632	272,154	128,174
53,071	-10,653	271,938	128,042
54,086	-10,329	271,662	128,200
55,101	-10,384	271,544	128,082
56,115	-10,113	271,603	128,349
57,130	-9,908	271,308	128,389
58,144	-9,855	271,001	128,280
59,159	-9,622	270,814	128,396
60,174	-9,714	270,615	128,205
61,188	-9,732	270,409	128,079
62,203	-9,790	270,210	127,920
63,217	-9,655	269,894	127,883
64,232	-9,608	269,653	127,801
65,247	-9,689	269,514	127,649
66,261	-9,655	269,133	127,488
67,276	-9,706	268,925	127,333
68,290	-9,954	268,705	126,989
69,305	-10,040	268,440	126,774
70,320	-10,132	268,236	126,583
71,334	-9,840	268,037	126,744
72,349	-9,702	267,781	126,737
73,363	-9,793	267,769	126,638
74,378	-9,731	267,676	126,639
75,393	-9,553	267,197	126,563
76,407	-9,517	267,011	126,496
77,422	-9,600	266,857	126,336
78,436	-9,765	266,643	126,075
79,451	-9,699	266,409	126,012
80,466	-9,840	266,203	125,775
81,480	-9,914	265,991	125,598
82,495	-9,837	265,688	125,513
83,509	-9,977	265,641	125,353
84,524	-9,854	265,173	125,232
85,539	-10,015	265,236	125,105
86,553	-9,860	264,846	125,050
87,568	-9,959	264,656	124,859
88,582	-9,852	264,524	124,882
89,597	-10,054	264,354	124,609
90,611	-9,790	264,162	124,745
91,626	-9,538	263,942	124,856
92,641	-9,692	263,745	124,614
93,655	-9,788	263,610	124,453
94,670	-9,735	263,255	124,321
95,684	-9,670	263,066	124,279
96,699	-9,829	263,032	124,110
97,714	-9,805	262,689	123,959
98,728	-9,869	262,578	123,838
99,743	-10,025	262,308	123,560
100,757	-9,822	261,999	123,585
101,772	-9,935	261,864	123,409
102,787	-9,719	261,600	123,466
103,801	-9,939	261,626	123,272
104,816	-9,783	261,493	123,337
105,830	-9,725	261,244	123,260
106,845	-9,544	260,906	123,249
107,860	-9,725	260,788	123,023
108,874	-9,826	260,555	122,812
109,889	-9,675	260,310	122,819
110,903	-9,782	260,210	122,666
111,918	-9,824	259,953	122,498
112,933	-9,642	259,707	122,531
113,947	-9,770	259,673	122,391
114,962	-9,807	259,442	122,239
115,976	-9,605	259,178	122,281
116,991	-9,805	258,975	121,999
118,006	-9,772	258,830	121,949
119,020	-9,640	258,783	122,032
120,035	-9,713	258,500	121,823
121,049	-9,811	258,406	121,682
122,064	-9,840	258,225	121,560
123,079	-9,811	258,033	121,485
124,093	-9,903	257,814	121,290
125,108	-9,888	257,361	121,079
126,122	-10,016	257,246	120,903
127,137	-10,214	257,020	120,614
128,151	-9,928	256,859	120,777
129,166	-9,895	256,610	120,677
130,181	-9,842	256,486	120,654
131,195	-9,841	256,328	120,569
132,210	-9,901	255,991	120,348
133,224	-9,826	256,001	120,408
134,239	-9,778	255,900	120,392
135,254	-9,700	255,612	120,312
136,268	-9,860	255,336	120,033
137,283	-10,132	255,257	119,750
138,297	-10,142	254,970	119,596
139,312	-9,996	254,731	119,599
140,327	-9,986	254,645	119,557
141,341	-9,583	254,535	119,841
142,356	-9,602	254,244	119,678
143,370	-9,614	254,186	119,630
144,385	-9,528	253,906	119,561
145,400	-9,490	253,764	119,516
146,414	-9,557	253,780	119,456
147,429	-9,480	253,337	119,302
148,443	-9,558	253,249	119,184
149,458	-9,604	253,082	119,055
150,473	-9,500	252,988	119,089
151,487	-9,647	252,739	118,835
152,502	-9,620	252,462	118,718
153,516	-9,588	252,414	118,712
154,531	-9,581	252,139	118,578
155,546	-9,582	252,131	118,563
156,560	-9,461	251,677	118,441
157,575	-9,693	251,616	118,205
158,589	-9,882	251,401	117,933
159,604	-9,692	251,192	117,986
160,619	-9,591	251,098	118,017
161,633	-9,720	250,815	117,764
162,648	-9,691	250,856	117,797
163,662	-9,534	250,622	117,810
164,677	-9,429	250,419	117,793
165,692	-9,549	250,365	117,655
166,706	-9,371	249,954	117,601
167,721	-9,546	249,892	117,414
168,735	-9,427	249,646	117,389
169,750	-9,412	249,688	117,411
170,764	-9,486	249,340	117,174
171,779	-9,433	249,218	117,150
172,794	-9,213	249,021	117,233
173,808	-9,438	248,952	117,001
174,823	-9,938	248,783	116,492
175,837	-10,074	248,398	116,187
176,852	-9,729	248,347	116,441
177,867	-9,637	248,377	116,522
178,881	-9,752	248,239	116,351
179,896	-9,350	247,845	116,492
180,910	-9,513	247,916	116,379
181,925	-9,456	247,539	116,239
182,940	-9,399	247,327	116,176
183,954	-9,546	247,232	115,999
184,969	-9,510	247,049	115,933
185,983	-9,551	246,938	115,836
186,998	-9,423	246,711	115,826
188,013	-9,523	246,578	115,670
189,027	-9,469	246,478	115,658
190,042	-9,558	246,243	115,463
191,056	-9,648	246,042	115,283
192,071	-9,542	245,806	115,251
193,086	-9,559	245,573	115,118
194,100	-9,622	245,608	115,071
195,115	-9,488	245,349	115,050
196,129	-9,404	245,103	114,994
197,144	-9,577	245,038	114,811
198,159	-9,562	244,753	114,680
199,173	-9,522	244,532	114,599
200,188	-9,711	244,522	114,428
201,202	-9,766	244,046	114,150
202,217	-10,018	243,981	113,902
203,232	-10,038	243,631	113,713
204,246	-9,589	243,678	114,093
205,261	-9,180	243,460	114,315
206,275	-10,174	243,043	113,296
207,290	-7,603	244,234	115,953
208,304	-0,645	246,559	122,801
209,319	2,987	247,532	126,281
210,334	3,661	247,365	126,741
211,348	3,607	247,385	126,695
212,363	3,951	247,195	126,872
213,377	3,902	247,148	126,795
214,392	4,117	246,936	126,852
215,407	3,763	246,838	126,499
216,421	3,916	246,460	126,420
217,436	4,024	246,473	126,504
218,450	4,190	246,307	126,544
219,465	3,836	246,042	126,106
220,480	3,577	245,786	125,752
221,494	3,694	245,714	125,800
222,509	3,653	245,601	125,697
223,523	3,678	245,313	125,559
224,538	3,376	245,072	125,177
225,553	3,447	244,943	125,158
226,567	3,553	244,786	125,153
227,582	3,376	244,877	125,044
228,596	3,697	244,376	125,039
229,611	3,401	244,231	124,712
230,626	3,098	244,132	124,404
231,640	3,387	244,059	124,591
232,655	3,715	243,809	124,719
233,669	3,291	243,723	124,318
234,684	3,190	243,492	124,109
235,699	3,649	243,455	124,451
236,713	3,852	243,331	124,540
237,728	3,221	243,218	123,961
238,742	3,336	242,841	123,851
239,757	3,155	242,646	123,594
240,772	3,265	242,587	123,641
241,786	3,496	242,370	123,706
242,801	3,207	242,272	123,412
243,815	3,033	242,114	123,180
244,830	3,538	241,839	123,436
245,844	3,670	241,833	123,527
246,859	3,341	241,700	123,185
247,874	3,242	241,392	122,937
248,888	3,318	241,316	122,948
249,903	3,468	241,202	122,999
250,917	3,862	240,945	123,173
251,932	3,713	241,051	123,097
252,947	3,803	240,825	123,042
253,961	3,372	240,478	122,509
254,976	3,494	240,488	122,601
255,990	3,610	240,383	122,630
257,005	3,253	240,157	122,218
258,020	3,116	239,825	121,930
259,034	3,104	239,691	121,841
260,049	3,540	239,597	122,130
261,063	3,388	239,300	121,846
262,078	3,174	239,187	121,608
263,093	3,538	239,210	121,898
264,107	3,781	238,936	121,941
265,122	3,474	238,817	121,625
266,136	3,407	238,745	121,524
267,151	3,947	238,539	121,836
268,166	3,237	238,439	121,213
269,180	3,280	238,135	121,082
270,195	3,853	238,198	121,556
271,209	4,081	238,176	121,714
272,224	3,484	237,798	121,039
273,239	3,210	237,485	120,652
274,253	3,379	237,195	120,627
275,268	3,310	237,314	120,623
276,282	3,632	237,160	120,787
277,297	3,028	236,944	120,191
278,312	3,425	236,824	120,432
279,326	3,381	236,712	120,330
280,341	3,504	236,563	120,339
281,355	3,449	236,488	120,247
282,370	3,554	236,248	120,197
283,384	3,661	236,015	120,152
284,399	3,273	235,909	119,783
285,414	3,083	235,723	119,530
286,428	3,182	235,574	119,521
287,443	3,447	235,534	119,697
288,457	3,401	235,417	119,591
289,472	3,637	235,252	119,680
290,487	3,261	235,151	119,325
291,501	3,149	234,920	119,110
292,516	3,046	234,654	118,884
293,530	3,171	234,424	118,855
294,545	3,361	234,406	118,983
295,560	3,373	234,282	118,918
296,574	3,226	234,068	118,685
297,589	3,064	234,080	118,554
298,603	3,680	233,904	118,932
299,618	3,549	233,796	118,765
300,633	3,506	233,556	118,599
301,647	3,618	233,533	118,664
302,662	4,037	233,448	118,934
303,676	4,111	233,048	118,777
304,691	3,724	233,097	118,492
305,706	3,882	233,016	118,562
306,720	3,906	232,719	118,419
307,735	3,715	232,492	118,147
308,749	3,629	232,529	118,088
309,764	3,451	232,164	117,756
310,779	3,210	231,993	117,474
311,793	2,953	231,825	117,181
312,808	2,934	231,754	117,120
313,822	3,242	231,653	117,295
314,837	3,211	231,335	117,099
315,852	2,854	231,343	116,820
316,866	3,530	231,069	117,188
317,881	3,680	231,182	117,349
318,895	3,728	231,009	117,287
319,910	3,869	230,903	117,331
320,925	3,710	230,695	117,093
321,939	3,400	230,341	116,667
322,954	3,559	230,386	116,801
323,968	3,329	230,099	116,470
324,983	2,915	229,919	116,054
325,997	3,273	229,833	116,272
327,012	3,511	229,874	116,463
328,027	3,580	229,564	116,348
329,041	3,916	229,552	116,586
330,056	4,289	229,552	116,859
331,070	3,792	229,332	116,360
332,085	3,397	229,094	115,930
333,100	3,747	228,883	116,077
334,114	3,992	228,840	116,230
335,129	3,969	228,553	116,057
336,143	3,684	228,563	115,837
337,158	3,842	228,312	115,818
338,173	3,705	228,258	115,677
339,187	3,643	228,200	115,591
340,202	3,776	228,068	115,614
341,216	3,922	227,711	115,532
342,231	3,456	227,536	115,083
343,246	3,454	227,539	115,073
344,260	3,848	227,357	115,266
345,275	3,976	227,233	115,289
346,289	3,899	227,172	115,190
347,304	3,921	226,950	115,083
348,319	4,071	226,806	115,113
349,333	3,722	226,615	114,745
350,348	3,413	226,598	114,494
351,362	3,673	226,371	114,564
352,377	3,690	226,012	114,385
353,392	3,292	225,961	114,053
354,406	3,506	225,955	114,198
355,421	195,838	1321,606	1399,808
356,435	156,992	1455,088	1399,815
