DTS Sentinel unit serial number:	SN410029Multiplexer serial number:	ORYXHardware model number:	OX2-SRSoftware version number:	ORYX F/W v4,00 Oryx Data Collector v3.7.2.0data status	okinstallation	B5 Nyhavnadifferential loss correction	single-endedforward channel	channel 2reverse channel	N/Adate	2023/12/13time	10:37:13forward acquisition time	300,00reverse acquisition time	0,00gamma	499,1914k internal	0,3160k external	0,3160temperature offset calibration	1,0000default loss term (dB/km)	0,3820temperature slope calibration	1,0000multiplexer offset coefficient	1,0000multiplexer slope coefficient	1,0000fibre end	0,00T internal ref (°C)	13,65T ext. ref 1 (°C)	-2,67T ext. ref 2 (°C)	-2,97length (m)	temperature (°C)	Stokes	anti-Stokes-744,400	800,000	0,053	0,143
-743,385	-70,351	-0,298	0,083
-742,371	-82,655	0,167	-0,040
-741,356	-172,893	-0,191	-0,004
-740,342	-113,777	0,244	0,035
-739,327	-178,131	-0,314	0,005
-738,312	209,831	0,137	0,158
-737,298	17,136	-0,282	-0,165
-736,283	-85,534	0,112	0,026
-735,269	-127,245	-0,189	0,020
-734,254	-66,713	0,017	0,005
-733,239	-115,507	-0,402	-0,055
-732,225	-80,527	0,119	-0,029
-731,210	164,806	0,017	-0,017
-730,196	-18,315	-0,069	-0,032
-729,181	163,502	-0,107	-0,111
-728,167	800,000	0,061	-0,156
-727,152	-149,560	0,029	0,002
-726,137	-200,000	-0,004	0,038
-725,123	734,673	-0,059	-0,117
-724,108	-25,780	-0,123	0,053
-723,094	33,564	-0,065	-0,042
-722,079	-200,000	0,044	-0,168
-721,064	45,316	0,060	0,040
-720,050	-88,386	0,096	-0,021
-719,035	800,000	-0,011	-0,032
-718,021	800,000	-0,028	-0,072
-717,006	-51,981	-0,167	-0,057
-715,991	600,147	0,044	-0,080
-714,977	144,803	-0,083	0,081
-713,962	142,195	-0,082	-0,080
-712,948	-41,463	0,017	0,007
-711,933	-200,000	0,029	0,154
-710,918	-200,000	0,042	0,211
-709,904	-200,000	0,029	-0,103
-708,889	-70,025	-0,064	-0,018
-707,875	-200,000	0,001	0,006
-706,860	148,976	0,068	-0,067
-705,845	-200,000	-0,002	0,043
-704,831	-61,874	0,045	0,014
-703,816	371,866	-0,040	0,060
-702,802	-30,444	0,119	0,050
-701,787	800,000	0,050	-0,132
-700,772	-96,412	-0,043	-0,008
-699,758	-54,556	0,137	0,045
-698,743	-200,000	0,011	0,041
-697,729	32,713	0,067	0,043
-696,714	-132,482	0,071	-0,007
-695,699	-200,000	0,044	-0,239
-694,685	296,253	-0,119	-0,160
-693,670	-200,000	0,003	0,026
-692,656	-200,000	-0,012	0,068
-691,641	-174,518	0,124	0,003
-690,627	-200,000	0,029	0,179
-689,612	220,993	-0,068	-0,080
-688,597	70,535	0,073	0,055
-687,583	-200,000	-0,002	-0,087
-686,568	40,515	-0,104	0,069
-685,554	194,771	-0,038	-0,043
-684,539	-88,742	-0,136	-0,029
-683,524	23,050	-0,030	0,018
-682,510	525,027	-0,028	0,049
-681,495	-28,923	0,099	-0,042
-680,481	-157,037	-0,046	-0,002
-679,466	283,217	-0,176	-0,233
-678,451	-200,000	-0,006	0,093
-677,437	800,000	-0,084	-0,178
-676,422	-98,711	0,131	0,024
-675,408	262,689	0,058	-0,075
-674,393	-200,000	0,011	0,091
-673,378	800,000	0,042	0,100
-672,364	-74,190	-0,218	0,058
-671,349	-200,000	0,020	-0,123
-670,335	698,606	-0,061	0,119
-669,320	26,842	-0,075	-0,046
-668,305	-56,914	-0,105	-0,034
-667,291	193,666	-0,023	-0,026
-666,276	316,445	-0,063	-0,088
-665,262	-200,000	-0,009	-0,067
-664,247	-200,000	0,004	-0,058
-663,232	-200,000	0,012	0,093
-662,218	-108,365	0,116	-0,018
-661,203	-10,235	0,095	-0,046
-660,189	800,000	0,021	0,067
-659,174	-112,723	-0,017	-0,003
-658,159	-132,356	-0,112	0,011
-657,145	152,349	-0,062	0,062
-656,130	-200,000	-0,001	0,046
-655,116	800,000	-0,058	-0,134
-654,101	-8,522	-0,066	-0,032
-653,086	-69,838	-0,046	0,013
-652,072	-200,000	-0,018	0,059
-651,057	-37,068	-0,078	0,030
-650,043	139,534	-0,046	-0,044
-649,028	468,351	0,085	0,140
-648,014	-14,027	0,122	-0,058
-646,999	-106,823	0,093	-0,015
-645,984	94,948	0,065	0,054
-644,970	152,328	-0,111	-0,111
-643,955	-39,799	-0,041	-0,016
-642,941	16,208	-0,096	-0,056
-641,926	-64,104	-0,109	0,032
-640,911	-132,332	0,060	-0,006
-639,897	112,978	0,103	-0,092
-638,882	-141,707	-0,137	-0,010
-637,868	-43,640	-0,122	-0,045
-636,853	800,000	0,064	-0,145
-635,838	-200,000	0,006	0,039
-634,824	-83,347	-0,090	-0,021
-633,809	186,629	0,150	0,164
-632,795	528,933	-0,057	0,099
-631,780	89,696	0,045	0,036
-630,765	137,783	-0,018	-0,018
-629,751	-200,000	-0,000	-0,237
-628,736	360,313	0,018	-0,027
-627,722	49,441	0,088	-0,061
-626,707	-128,806	0,133	-0,014
-625,692	-200,000	0,011	0,084
-624,678	170,097	0,007	-0,008
-623,663	-92,526	-0,138	0,028
-622,649	342,690	-0,049	-0,071
-621,634	-200,000	0,009	-0,045
-620,619	161,452	-0,088	-0,090
-619,605	800,000	0,058	0,123
-618,590	-200,000	-0,019	-0,104
-617,576	-18,428	-0,118	0,054
-616,561	91,919	-0,049	0,041
-615,546	-17,894	-0,079	0,036
-614,532	111,197	0,063	-0,056
-613,517	800,000	0,032	-0,103
-612,503	800,000	-0,055	-0,119
-611,488	-200,000	0,003	0,050
-610,474	102,814	-0,044	0,038
-609,459	-82,310	-0,117	-0,028
-608,444	90,929	0,051	-0,042
-607,430	-135,682	-0,075	0,006
-606,415	-117,675	0,022	0,003
-605,401	-124,789	0,138	0,015
-604,386	800,000	-0,027	0,057
-603,371	-200,000	-0,039	-0,151
-602,357	-200,000	0,005	0,071
-601,342	800,000	0,020	-0,065
-600,328	72,651	0,029	0,022
-599,313	200,465	-0,084	-0,095
-598,298	-200,000	-0,005	-0,018
-597,284	800,000	-0,059	0,141
-596,269	800,000	-0,056	0,153
-595,255	-200,000	-0,020	-0,097
-594,240	800,000	-0,014	-0,028
-593,225	800,000	0,019	-0,050
-592,211	-200,000	-0,043	-0,000
-591,196	-10,860	0,127	-0,061
-590,182	-200,000	0,006	0,030
-589,167	326,746	-0,031	-0,044
-588,152	800,000	0,024	-0,074
-587,138	-200,000	-0,001	-0,120
-586,123	-200,000	-0,011	-0,069
-585,109	-164,838	-0,099	0,003
-584,094	-200,000	-0,017	-0,077
-583,079	-200,000	0,018	-0,087
-582,065	37,177	-0,075	0,049
-581,050	157,200	0,026	-0,026
-580,036	800,000	-0,030	0,087
-579,021	-111,999	-0,057	-0,008
-578,006	800,000	-0,050	-0,159
-576,992	-109,531	-0,076	0,012
-575,977	-90,368	-0,048	0,010
-574,963	-133,579	0,088	0,008
-573,948	50,487	-0,035	0,024
-572,934	800,000	0,027	0,060
-571,919	80,298	0,027	0,021
-570,904	57,618	0,066	-0,047
-569,890	-200,000	0,002	-0,109
-568,875	800,000	0,043	0,124
-567,861	-57,811	0,128	0,041
-566,846	289,454	0,021	-0,028
-565,831	46,103	0,074	0,050
-564,817	-200,000	0,025	-0,098
-563,802	-18,406	-0,105	-0,048
-562,788	105,567	-0,092	-0,080
-561,773	-196,469	0,121	-0,001
-560,758	279,539	-0,033	-0,043
-559,744	1,942	-0,102	0,054
-558,729	-200,000	-0,020	0,154
-557,715	-200,000	-0,006	-0,084
-556,700	800,000	0,051	-0,130
-555,685	-200,000	-0,013	0,085
-554,671	-200,000	0,007	0,055
-553,656	238,305	0,099	0,120
-552,642	-130,370	0,051	0,005
-551,627	800,000	0,028	0,088
-550,612	-102,656	-0,228	-0,039
-549,598	-6,366	-0,092	-0,046
-548,583	-14,284	0,078	0,037
-547,569	-200,000	0,014	0,078
-546,554	105,705	-0,042	-0,036
-545,539	127,012	0,060	0,055
-544,525	47,278	-0,097	0,066
-543,510	-18,397	0,060	0,027
-542,496	-112,175	-0,113	-0,016
-541,481	337,229	0,017	-0,025
-540,466	58,343	0,092	-0,066
-539,452	52,071	0,005	0,003
-538,437	119,331	0,073	-0,066
-537,423	-69,156	-0,160	-0,045
-536,408	430,701	0,083	-0,132
-535,393	-200,000	0,007	-0,038
-534,379	-109,662	-0,083	0,013
-533,364	-200,000	0,037	0,119
-532,350	-75,131	0,047	0,012
-531,335	104,983	-0,061	0,053
-530,321	387,369	-0,052	-0,079
-529,306	132,621	-0,042	0,040
-528,291	-63,748	-0,208	-0,062
-527,277	-56,526	0,154	-0,050
-526,262	-145,284	-0,110	0,007
-525,248	800,000	-0,012	0,031
-524,233	800,000	0,031	0,097
-523,218	121,694	-0,019	0,017
-522,204	368,621	-0,042	-0,063
-521,189	-88,854	-0,137	0,029
-520,175	-66,805	0,078	-0,022
-519,160	88,031	-0,018	-0,015
-518,145	-79,708	-0,140	-0,034
-517,131	-157,491	0,167	-0,007
-516,116	-97,926	0,070	0,013
-515,102	-200,000	-0,002	-0,078
-514,087	800,000	-0,036	-0,083
-513,072	656,402	0,023	-0,043
-512,058	114,819	-0,054	0,048
-511,043	232,583	0,052	0,063
-510,029	68,092	0,034	0,025
-509,014	20,137	0,037	0,021
-507,999	-52,732	-0,018	0,006
-506,985	141,345	-0,073	-0,070
-505,970	-200,000	0,012	-0,084
-504,956	-200,000	-0,015	-0,093
-503,941	-17,608	0,103	-0,047
-502,926	-200,000	-0,009	-0,047
-501,912	-47,288	0,115	-0,041
-500,897	-107,434	-0,076	-0,012
-499,883	-200,000	-0,036	0,127
-498,868	369,638	-0,087	-0,128
-497,853	-200,000	0,005	0,073
-496,839	396,100	0,106	-0,161
-495,824	130,055	0,054	-0,050
-494,810	277,022	0,071	-0,093
-493,795	-200,000	-0,028	0,121
-492,781	193,371	-0,055	-0,061
-491,766	-200,000	-0,012	-0,064
-490,751	42,397	-0,133	0,088
-489,737	-123,949	0,078	0,009
-488,722	-111,872	-0,088	-0,013
-487,708	66,903	0,073	-0,054
-486,693	334,863	-0,018	-0,026
-485,678	-50,433	-0,083	0,028
-484,664	-97,772	-0,150	-0,028
-483,649	102,178	0,023	-0,020
-482,635	322,538	-0,071	-0,098
-481,620	169,634	-0,073	-0,076
-480,605	-135,584	0,056	0,005
-479,591	82,424	-0,027	-0,021
-478,576	137,042	-0,029	0,027
-477,562	-111,802	-0,149	-0,022
-476,547	221,505	0,063	0,074
-475,532	-200,000	-0,000	0,041
-474,518	800,000	-0,044	-0,133
-473,503	28,354	-0,088	0,054
-472,489	613,136	0,052	0,095
-471,474	800,000	0,013	-0,038
-470,459	92,928	0,079	0,065
-469,445	82,163	-0,044	0,035
-468,430	186,077	-0,067	-0,072
-467,416	-200,000	-0,010	-0,088
-466,401	-200,000	-0,007	0,030
-465,386	-200,000	-0,007	-0,071
-464,372	-200,000	0,003	-0,107
-463,357	800,000	-0,046	-0,136
-462,343	52,041	-0,155	0,108
-461,328	513,204	0,032	-0,054
-460,313	166,590	-0,034	0,035
-459,299	101,406	0,085	-0,072
-458,284	139,088	0,074	0,070
-457,270	-71,739	0,157	0,042
-456,255	800,000	-0,032	0,075
-455,241	800,000	-0,021	-0,046
-454,226	-172,785	-0,118	-0,003
-453,211	800,000	-0,026	0,072
-452,197	-200,000	-0,015	-0,068
-451,182	-200,000	0,022	-0,099
-450,168	15,917	-0,136	0,078
-449,153	142,174	0,090	0,087
-448,138	-200,000	0,023	-0,102
-447,124	-48,843	-0,091	-0,031
-446,109	-200,000	0,015	-0,121
-445,095	-200,000	-0,003	0,124
-444,080	347,947	0,034	0,048
-443,065	-200,000	0,003	0,150
-442,051	-60,381	-0,040	0,012
-441,036	-200,000	0,009	0,045
-440,022	372,557	0,061	-0,090
-439,007	-53,848	0,190	-0,063
-437,992	800,000	0,013	-0,027
-436,978	428,223	0,074	0,117
-435,963	-6,153	0,075	-0,037
-434,949	6,702	-0,066	-0,035
-433,934	-43,609	-0,053	-0,019
-432,919	-136,040	-0,080	0,007
-431,905	-200,000	0,016	-0,064
-430,890	113,421	0,086	-0,076
-429,876	469,964	0,039	0,063
-428,861	494,092	0,042	0,071
-427,846	133,379	-0,098	-0,092
-426,832	-200,000	0,018	-0,124
-425,817	87,173	-0,068	-0,055
-424,803	10,589	0,110	0,061
-423,788	-200,000	0,001	0,032
-422,773	-27,002	0,006	-0,002
-421,759	-83,893	-0,047	0,011
-420,744	800,000	0,052	0,130
-419,730	-95,428	0,051	-0,010
-418,715	96,297	-0,097	-0,081
-417,701	-200,000	-0,011	0,117
-416,686	-200,000	0,002	0,035
-415,671	59,018	0,088	0,063
-414,657	-13,273	0,159	0,075
-413,642	-200,000	0,010	-0,033
-412,628	-119,960	0,058	-0,007
-411,613	349,635	0,021	-0,030
-410,598	463,116	0,018	-0,029
-409,584	10,833	0,194	0,107
-408,569	-200,000	-0,024	0,123
-407,555	23,499	-0,076	0,045
-406,540	93,767	-0,058	-0,047
-405,525	-14,036	0,104	-0,048
-404,511	-200,000	0,004	-0,043
-403,496	-200,000	0,019	-0,081
-402,482	-200,000	0,010	-0,107
-401,467	800,000	-0,026	0,061
-400,452	800,000	0,044	0,111
-399,438	-155,554	0,163	-0,007
-398,423	612,050	-0,072	0,131
-397,409	651,083	-0,063	-0,117
-396,394	-200,000	-0,001	-0,079
-395,379	-200,000	-0,002	-0,166
-394,365	-33,527	-0,109	-0,043
-393,350	629,186	-0,087	0,161
-392,336	-81,123	0,069	0,016
-391,321	51,108	0,072	0,049
-390,306	182,166	-0,027	0,029
-389,292	-58,959	0,072	-0,023
-388,277	-12,319	-0,049	-0,023
-387,263	-86,469	-0,091	-0,020
-386,248	-200,000	0,090	0,000
-385,233	-200,000	0,033	-0,168
-384,219	-200,000	0,003	-0,100
-383,204	88,627	-0,069	0,056
-382,190	265,550	0,136	0,173
-381,175	-200,000	-0,019	0,185
-380,160	-28,306	-0,047	0,020
-379,146	-40,310	0,152	-0,057
-378,131	330,369	0,052	0,073
-377,117	-81,901	-0,052	-0,012
-376,102	-169,299	0,059	0,002
-375,088	-13,981	-0,043	-0,020
-374,073	-82,466	-0,146	0,034
-373,058	392,900	0,038	-0,058
-372,044	121,052	-0,057	0,052
-371,029	-200,000	-0,003	0,030
-370,015	242,895	0,055	0,067
-369,000	-98,976	-0,183	0,033
-367,985	-37,098	0,088	0,034
-366,971	-200,000	0,006	0,054
-365,956	45,267	0,176	-0,118
-364,942	214,827	0,034	-0,039
-363,927	-117,559	-0,142	0,018
-362,912	-134,464	-0,146	0,013
-361,898	122,420	0,050	-0,045
-360,883	97,197	-0,050	-0,042
-359,869	197,114	-0,084	-0,093
-358,854	-51,112	0,044	-0,015
-357,839	108,478	0,098	0,085
-356,825	-72,716	0,114	0,030
-355,810	-200,000	-0,016	-0,099
-354,796	800,000	-0,030	-0,060
-353,781	-200,000	0,007	-0,105
-352,766	-200,000	-0,028	-0,206
-351,752	800,000	0,022	-0,053
-350,737	-79,286	0,091	0,022
-349,723	33,587	0,106	-0,066
-348,708	-106,540	-0,104	0,017
-347,693	-200,000	-0,005	-0,035
-346,679	67,527	-0,133	-0,099
-345,664	-21,260	-0,114	-0,050
-344,650	26,926	-0,071	0,043
-343,635	-31,577	0,099	0,040
-342,620	-200,000	-0,012	-0,060
-341,606	21,810	0,070	-0,041
-340,591	198,360	0,058	-0,064
-339,577	0,808	-0,090	0,046
-338,562	-200,000	-0,009	0,044
-337,548	-117,106	0,065	0,008
-336,533	-59,218	0,101	0,031
-335,518	-200,000	-0,013	-0,121
-334,504	-122,502	-0,066	0,008
-333,489	800,000	-0,057	-0,133
-332,475	-122,817	0,027	-0,003
-331,460	598,475	-0,053	-0,096
-330,445	-200,000	0,024	0,083
-329,431	454,450	0,037	-0,059
-328,416	800,000	-0,048	0,143
-327,402	-46,792	-0,047	-0,016
-326,387	-200,000	-0,019	0,094
-325,372	-200,000	0,009	0,118
-324,358	210,027	-0,109	-0,124
-323,343	800,000	0,059	0,134
-322,329	1,329	0,005	-0,003
-321,314	92,250	0,156	0,127
-320,299	61,311	-0,036	0,026
-319,285	-200,000	-0,008	-0,091
-318,270	800,000	-0,056	0,145
-317,256	-110,878	0,015	0,002
-316,241	800,000	-0,030	-0,072
-315,226	-124,055	-0,102	0,011
-314,212	67,663	0,108	-0,080
-313,197	800,000	-0,034	0,100
-312,183	800,000	0,038	0,122
-311,168	353,864	-0,041	-0,059
-310,153	23,475	-0,057	-0,034
-309,139	615,028	0,009	-0,016
-308,124	-200,000	-0,006	-0,060
-307,110	-200,000	0,026	0,106
-306,095	397,827	-0,008	-0,012
-305,080	800,000	0,030	0,067
-304,066	-200,000	-0,008	-0,107
-303,051	800,000	-0,011	-0,034
-302,037	-200,000	-0,013	0,053
-301,022	125,868	0,023	0,021
-300,008	135,899	0,028	-0,026
-298,993	-200,000	0,007	0,094
-297,978	741,904	0,027	0,053
-296,964	-200,000	-0,015	-0,048
-295,949	-200,000	-0,002	-0,075
-294,935	-200,000	-0,016	-0,074
-293,920	31,406	0,058	-0,036
-292,905	-200,000	-0,040	0,150
-291,891	-6,572	0,017	0,008
-290,876	-100,888	0,144	0,025
-289,862	314,795	-0,093	0,127
-288,847	54,649	0,011	-0,007
-287,832	-29,787	0,006	-0,002
-286,818	68,353	0,064	-0,047
-285,803	23,424	0,141	-0,084
-284,789	-200,000	-0,024	0,101
-283,774	800,000	-0,027	0,066
-282,759	-200,000	-0,001	-0,026
-281,745	169,451	-0,037	0,038
-280,730	-200,000	-0,003	-0,131
-279,716	288,800	0,059	-0,078
-278,701	-59,009	-0,114	0,035
-277,686	-149,510	-0,040	0,002
-276,672	-133,859	0,176	0,016
-275,657	-32,583	0,132	-0,053
-274,643	-107,540	-0,107	0,017
-273,628	-200,000	0,010	-0,081
-272,613	462,489	-0,041	-0,067
-271,599	195,340	0,087	-0,095
-270,584	-200,000	-0,009	-0,067
-269,570	-46,298	-0,036	-0,013
-268,555	800,000	-0,044	0,096
-267,540	-3,872	0,126	0,063
-266,526	108,905	-0,100	0,086
-265,511	-148,507	0,075	-0,004
-264,497	-200,000	0,016	0,086
-263,482	134,823	-0,011	0,011
-262,467	-153,378	-0,143	0,007
-261,453	-93,675	-0,152	0,030
-260,438	25,824	-0,113	0,068
-259,424	800,000	-0,019	0,056
-258,409	800,000	-0,036	0,106
-257,395	657,903	-0,044	0,082
-256,380	800,000	-0,048	0,117
-255,365	17,680	0,154	0,088
-254,351	-163,986	-0,142	0,005
-253,336	-200,000	0,022	-0,089
-252,322	-47,448	-0,071	0,025
-251,307	61,844	0,142	0,102
-250,292	169,534	0,062	0,064
-249,278	800,000	-0,043	0,098
-248,263	-200,000	-0,010	0,160
-247,249	47,331	0,080	0,054
-246,234	-200,000	-0,016	-0,099
-245,219	90,795	-0,080	0,065
-244,205	80,779	0,133	0,103
-243,190	2,534	0,059	-0,031
-242,176	147,379	0,032	0,031
-241,161	149,217	0,053	-0,052
-240,146	-200,000	-0,006	0,028
-239,132	-200,000	-0,005	0,070
-238,117	644,957	0,039	0,072
-237,103	402,353	0,092	0,140
-236,088	-200,000	-0,016	-0,106
-235,073	-200,000	0,029	0,122
-234,059	-200,000	0,014	-0,082
-233,044	-34,740	-0,048	0,019
-232,030	350,602	0,034	0,049
-231,015	-118,715	-0,150	0,019
-230,000	181,533	-0,068	-0,072
-228,986	256,798	0,025	-0,031
-227,971	-200,000	-0,016	-0,061
-226,957	15,201	0,076	-0,043
-225,942	53,675	0,107	0,074
-224,927	28,846	0,027	-0,016
-223,913	118,334	-0,056	-0,050
-222,898	1,139	-0,167	-0,086
-221,884	-200,000	-0,005	0,106
-220,869	-9,361	-0,046	0,022
-219,855	223,690	-0,073	0,085
-218,840	361,080	0,121	0,175
-217,825	-120,243	-0,071	-0,009
-216,811	96,793	-0,144	-0,119
-215,796	164,186	-0,055	-0,056
-214,782	166,862	0,068	0,070
-213,767	-200,000	0,031	0,177
-212,752	-10,756	0,091	0,043
-211,738	800,000	0,024	0,076
-210,723	800,000	0,027	0,068
-209,709	246,588	-0,112	-0,137
-208,694	800,000	0,081	-0,167
-207,679	8,339	-0,009	-0,005
-206,665	439,509	0,045	0,072
-205,650	609,610	-0,032	0,058
-204,636	32,715	0,095	-0,059
-203,621	340,411	0,087	-0,123
-202,606	16,124	-0,084	-0,048
-201,592	32,652	0,045	0,028
-200,577	118,955	0,070	-0,063
-199,563	800,000	-0,004	-0,008
-198,548	640,756	0,012	-0,021
-197,533	-16,036	0,065	-0,030
-196,519	94,999	0,077	-0,063
-195,504	221,457	-0,094	-0,109
-194,490	-83,842	-0,126	-0,029
-193,475	-200,000	-0,004	-0,064
-192,460	113,469	-0,015	0,013
-191,446	-200,000	-0,022	-0,086
-190,431	-200,000	0,002	0,136
-189,417	800,000	0,041	0,102
-188,402	215,277	0,075	0,086
-187,387	206,609	-0,056	-0,062
-186,373	48,904	0,028	0,019
-185,358	-200,000	0,005	-0,069
-184,344	129,906	0,135	0,125
-183,329	-11,691	-0,062	0,029
-182,315	-110,668	0,069	0,010
-181,300	20,049	0,078	-0,045
-180,285	-200,000	0,004	0,031
-179,271	156,303	0,086	0,086
-178,256	-119,918	0,193	-0,024
-177,242	-200,000	0,012	0,203
-176,227	800,000	0,044	0,099
-175,212	-128,840	0,059	-0,006
-174,198	-200,000	0,010	0,041
-173,183	-138,177	0,109	0,009
-172,169	800,000	-0,011	-0,033
-171,154	-10,124	-0,048	0,023
-170,139	-200,000	-0,018	0,127
-169,125	38,620	0,112	0,072
-168,110	574,178	0,055	0,097
-167,096	-94,085	-0,069	0,013
-166,081	-141,321	-0,101	0,007
-165,066	-157,777	0,045	-0,002
-164,052	800,000	-0,051	0,142
-163,037	69,917	-0,078	0,058
-162,023	-21,328	0,113	-0,049
-161,008	-200,000	0,007	0,067
-159,993	-200,000	-0,001	0,147
-158,979	45,703	0,017	-0,011
-157,964	528,995	-0,094	-0,161
-156,950	199,466	0,089	-0,099
-155,935	-97,739	0,014	-0,003
-154,920	800,000	0,068	0,139
-153,906	-65,869	-0,046	-0,013
-152,891	-61,598	-0,107	-0,032
-151,877	-200,000	-0,006	0,116
-150,862	-90,177	-0,044	0,009
-149,847	-188,192	-0,150	-0,001
-148,833	-47,882	0,139	0,048
-147,818	16,691	0,106	-0,060
-146,804	338,857	-0,050	0,071
-145,789	339,684	0,033	0,047
-144,775	-200,000	-0,015	0,089
-143,760	-160,423	-0,069	-0,003
-142,745	-20,645	-0,052	-0,023
-141,731	438,819	0,025	-0,040
-140,716	86,420	-0,022	-0,017
-139,702	-89,425	0,026	-0,005
-138,687	155,813	-0,030	0,029
-137,672	112,525	0,059	-0,051
-136,658	-64,455	-0,067	0,020
-135,643	99,746	0,029	-0,024
-134,629	-200,000	-0,003	-0,119
-133,614	-60,863	0,229	-0,069
-132,599	471,673	0,094	0,153
-131,585	-24,023	-0,134	0,058
-130,570	-53,718	0,084	0,028
-129,556	-200,000	-0,006	-0,037
-128,541	-76,245	0,038	0,010
-127,526	-200,000	-0,035	-0,122
-126,512	52,051	0,123	0,084
-125,497	197,789	0,094	0,103
-124,483	-200,000	-0,003	-0,019
-123,468	800,000	0,031	-0,073
-122,453	-148,514	-0,322	-0,019
-121,439	208,337	-0,050	0,056
-120,424	212,494	-0,023	0,026
-119,410	800,000	-0,014	-0,036
-118,395	-200,000	0,008	-0,025
-117,380	-200,000	0,007	0,033
-116,366	-24,831	-0,102	0,043
-115,351	-2,539	-0,123	-0,061
-114,337	46,961	0,028	0,019
-113,322	-6,409	0,071	-0,035
-112,307	-200,000	0,006	-0,081
-111,293	-19,973	0,101	0,045
-110,278	800,000	0,034	0,077
-109,264	-200,000	0,005	0,083
-108,249	306,645	-0,056	-0,075
-107,234	-41,163	0,095	-0,035
-106,220	530,620	-0,062	-0,106
-105,205	-65,596	-0,036	0,010
-104,191	252,492	0,087	0,107
-103,176	92,553	0,086	0,069
-102,162	192,529	0,042	0,045
-101,147	800,000	-0,061	-0,136
-100,132	-200,000	0,048	-0,165
-99,118	-200,000	0,014	0,050
-98,103	-200,000	-0,018	-0,128
-97,089	-48,032	0,051	0,017
-96,074	800,000	0,015	0,042
-95,059	800,000	-0,037	0,085
-94,045	166,120	0,073	0,074
-93,030	314,747	-0,006	0,008
-92,016	230,231	0,056	-0,066
-91,001	-200,000	-0,052	-0,176
-89,986	-140,896	-0,142	-0,010
-88,972	17,079	0,085	-0,048
-87,957	-14,651	0,070	-0,032
-86,943	230,119	-0,031	-0,036
-85,928	-24,990	-0,064	-0,027
-84,913	222,699	0,090	-0,105
-83,899	-200,000	-0,038	0,130
-82,884	-4,986	0,109	0,054
-81,870	275,190	0,109	0,140
-80,855	98,091	-0,074	0,061
-79,840	207,801	-0,101	-0,114
-78,826	-200,000	0,035	-0,114
-77,811	800,000	0,065	-0,142
-76,797	800,000	-0,021	0,052
-75,782	219,963	0,057	-0,066
-74,767	-58,930	0,029	-0,009
-73,753	227,402	-0,088	0,103
-72,738	277,144	-0,083	-0,106
-71,724	-200,000	0,021	-0,067
-70,709	-200,000	-0,001	-0,072
-69,694	0,074	-0,020	-0,010
-68,680	800,000	-0,027	0,056
-67,665	-35,556	0,059	-0,023
-66,651	448,524	0,052	0,082
-65,636	-18,841	-0,071	0,032
-64,622	95,934	-0,048	0,039
-63,607	91,963	-0,100	-0,080
-62,592	-176,453	-0,039	0,001
-61,578	-200,000	0,013	-0,042
-60,563	-79,312	0,056	0,014
-59,549	-200,000	0,019	0,101
-58,534	26,908	-1,933	-1,160
-57,519	-200,000	-0,140	-0,912
-56,505	-200,000	-1,286	-4,982
-55,490	122,542	0,882	0,791
-54,476	800,000	5,343	12,052
-53,461	-200,000	18,707	317,521
-52,446	800,000	741,381	2334,042
-51,432	558,631	1657,122	2878,623
-50,417	111,140	1641,021	1417,166
-49,403	75,395	1291,230	975,971
-48,388	30,278	1031,643	630,171
-47,373	19,954	994,302	573,145
-46,359	17,474	981,730	557,710
-45,344	13,988	978,208	544,219
-44,330	14,334	976,507	544,390
-43,315	13,702	974,757	541,317
-42,300	13,617	973,865	540,522
-41,286	13,660	972,745	540,020
-40,271	13,676	971,699	539,471
-39,257	13,646	970,795	538,850
-38,242	13,688	970,094	538,575
-37,227	13,668	969,025	537,894
-36,213	13,647	968,189	537,343
-35,198	13,560	967,456	536,631
-34,184	13,674	966,491	536,446
-33,169	13,642	965,583	535,815
-32,154	13,703	964,664	535,484
-31,140	13,695	963,495	534,786
-30,125	13,630	963,074	534,319
-29,111	13,722	962,082	534,049
-28,096	13,688	961,573	533,634
-27,082	13,717	960,796	533,276
-26,067	13,699	960,180	532,853
-25,052	13,679	959,327	532,293
-24,038	13,683	958,701	531,938
-23,023	13,642	958,071	531,436
-22,009	13,686	957,458	531,218
-20,994	13,704	956,674	530,817
-19,979	13,731	956,085	530,559
-18,965	13,694	955,609	530,154
-17,950	13,691	954,951	529,757
-16,936	13,608	954,414	529,172
-15,921	13,706	953,583	529,005
-14,906	13,555	952,820	528,078
-13,892	13,633	952,069	527,888
-12,877	13,586	951,573	527,442
-11,863	13,530	950,939	526,892
-10,848	13,570	950,333	526,663
-9,833	13,703	949,854	526,802
-8,819	13,616	949,425	526,263
-7,804	13,606	948,487	525,693
-6,790	13,572	948,099	525,346
-5,775	13,573	947,631	525,071
-4,760	13,607	946,747	524,669
-3,746	13,593	946,229	524,317
-2,731	13,428	945,459	523,344
-1,717	13,422	944,868	522,977
-0,702	13,387	944,147	522,444
0,313	13,213	943,518	522,333
1,327	16,545	941,148	531,525
2,342	25,600	796,003	473,613
3,356	22,077	460,344	268,470
4,371	-4,879	317,427	156,182
5,386	-8,702	299,238	143,312
6,400	-10,553	293,074	138,492
7,415	-11,100	290,598	136,766
8,429	-11,400	288,980	135,696
9,444	-11,255	288,136	135,430
10,459	-11,311	287,376	135,006
11,473	-11,131	286,790	134,895
12,488	-11,336	286,329	134,465
13,502	-11,483	285,973	134,142
14,517	-11,236	285,338	134,074
15,531	-11,415	284,938	133,700
16,546	-11,481	284,603	133,466
17,561	-11,471	284,220	133,285
18,575	-11,389	283,870	133,188
19,590	-11,456	283,431	132,905
20,604	-11,256	283,050	132,908
21,619	-11,483	282,574	132,453
22,634	-11,353	282,385	132,479
23,648	-11,527	282,096	132,164
24,663	-11,202	281,663	132,262
25,677	-11,287	281,459	132,072
26,692	-11,427	281,313	131,858
27,707	-11,367	280,976	131,745
28,721	-11,532	280,736	131,463
29,736	-11,511	280,326	131,280
30,750	-11,549	280,200	131,173
31,765	-11,255	279,932	131,316
32,780	-11,425	279,689	131,028
33,794	-11,337	279,388	130,959
34,809	-11,383	279,198	130,815
35,823	-11,309	278,835	130,703
36,838	-11,487	278,824	130,517
37,853	-11,500	278,417	130,303
38,867	-11,531	278,117	130,121
39,882	-11,503	277,908	130,038
40,896	-11,391	277,710	130,040
41,911	-11,447	277,362	129,813
42,926	-11,450	277,271	129,756
43,940	-11,514	276,854	129,488
44,955	-11,593	276,638	129,302
45,969	-11,533	276,367	129,220
46,984	-11,704	276,344	129,037
47,999	-11,997	275,963	128,572
49,013	-12,106	275,754	128,360
50,028	-11,953	275,405	128,330
51,042	-12,107	275,153	128,056
52,057	-12,050	274,879	127,971
53,071	-12,124	274,690	127,802
54,086	-12,063	274,499	127,759
55,101	-11,953	274,331	127,772
56,115	-11,784	274,275	127,892
57,130	-11,414	274,131	128,160
58,144	-11,316	273,806	128,087
59,159	-11,233	273,577	128,046
60,174	-11,431	273,422	127,778
61,188	-11,417	273,230	127,690
62,203	-11,326	272,932	127,624
63,217	-11,473	272,739	127,386
64,232	-11,128	272,438	127,554
65,247	-11,246	272,142	127,295
66,261	-11,282	272,077	127,220
67,276	-11,621	271,699	126,718
68,290	-11,400	271,369	126,757
69,305	-11,595	271,152	126,465
70,320	-11,742	271,043	126,267
71,334	-11,452	270,900	126,456
72,349	-11,276	270,605	126,469
73,363	-11,300	270,616	126,441
74,378	-11,250	270,134	126,251
75,393	-11,098	269,963	126,298
76,407	-11,297	269,727	125,994
77,422	-11,328	269,444	125,823
78,436	-11,206	269,234	125,826
79,451	-11,207	269,081	125,742
80,466	-11,360	268,910	125,511
81,480	-11,407	268,528	125,278
82,495	-11,554	268,408	125,077
83,509	-11,624	268,244	124,925
84,524	-11,531	267,910	124,843
85,539	-11,701	267,808	124,630
86,553	-11,516	267,438	124,615
87,568	-11,597	267,253	124,445
88,582	-11,529	267,096	124,421
89,597	-11,541	266,825	124,274
90,611	-11,436	266,708	124,303
91,626	-11,290	266,497	124,326
92,641	-11,216	266,394	124,334
93,655	-11,346	266,141	124,086
94,670	-11,456	265,938	123,881
95,684	-11,450	265,772	123,799
96,699	-11,285	265,408	123,766
97,714	-11,225	265,266	123,744
98,728	-11,567	265,171	123,381
99,743	-11,563	264,836	123,217
100,757	-11,646	264,668	123,053
101,772	-11,533	264,464	123,049
102,787	-11,510	264,291	122,978
103,801	-11,520	264,200	122,916
104,816	-11,426	263,982	122,888
105,830	-11,271	263,949	123,000
106,845	-11,338	263,574	122,755
107,860	-11,241	263,366	122,733
108,874	-11,460	263,205	122,452
109,889	-11,416	262,967	122,370
110,903	-11,243	262,644	122,363
111,918	-11,371	262,511	122,176
112,933	-11,243	262,343	122,200
113,947	-11,234	262,099	122,084
114,962	-11,318	261,875	121,895
115,976	-11,257	261,708	121,859
116,991	-11,384	261,628	121,699
118,006	-11,176	261,450	121,789
119,020	-11,404	261,333	121,522
120,035	-11,337	261,300	121,555
121,049	-11,321	261,005	121,421
122,064	-11,307	260,826	121,339
123,079	-11,270	260,384	121,156
124,093	-11,415	260,214	120,939
125,108	-11,610	260,141	120,722
126,122	-11,743	259,813	120,441
127,137	-11,891	259,631	120,217
128,151	-11,713	259,382	120,247
129,166	-11,449	259,073	120,324
130,181	-11,519	258,979	120,209
131,195	-11,489	258,761	120,123
132,210	-11,621	258,650	119,945
133,224	-11,312	258,491	120,131
134,239	-11,225	258,472	120,188
135,254	-11,315	258,014	119,885
136,268	-11,278	257,801	119,808
137,283	-11,510	257,627	119,514
138,297	-11,660	257,291	119,217
139,312	-11,677	257,171	119,136
140,327	-11,361	257,136	119,384
141,341	-11,214	257,002	119,438
142,356	-11,139	256,760	119,381
143,370	-11,260	256,615	119,198
144,385	-11,092	256,387	119,227
145,400	-11,080	256,192	119,136
146,414	-11,281	256,114	118,915
147,429	-11,143	255,977	118,960
148,443	-11,225	255,742	118,769
149,458	-11,236	255,583	118,675
150,473	-11,051	255,269	118,679
151,487	-11,187	255,133	118,488
152,502	-11,235	255,022	118,384
153,516	-11,119	254,806	118,373
154,531	-11,238	254,653	118,189
155,546	-11,117	254,526	118,224
156,560	-11,157	254,189	118,023
157,575	-11,259	254,055	117,863
158,589	-11,037	253,766	117,908
159,604	-11,101	253,660	117,793
160,619	-11,275	253,475	117,548
161,633	-11,155	253,315	117,566
162,648	-10,995	253,150	117,615
163,662	-10,903	252,948	117,589
164,677	-11,053	252,920	117,438
165,692	-11,296	252,631	117,087
166,706	-11,001	252,406	117,223
167,721	-11,280	252,290	116,921
168,735	-11,103	252,223	117,030
169,750	-11,029	251,952	116,957
170,764	-11,180	252,090	116,883
171,779	-10,998	251,648	116,821
172,794	-10,964	251,489	116,765
173,808	-11,013	251,236	116,596
174,823	-11,354	250,963	116,171
175,837	-11,687	250,811	115,808
176,852	-11,149	250,777	116,238
177,867	-11,159	250,620	116,146
178,881	-11,137	250,515	116,105
179,896	-10,916	250,191	116,131
180,910	-11,084	250,174	115,971
181,925	-11,144	249,940	115,801
182,940	-10,956	249,837	115,902
183,954	-10,848	249,651	115,896
184,969	-10,997	249,468	115,676
185,983	-11,076	249,332	115,536
186,998	-11,142	249,084	115,355
188,013	-11,156	248,935	115,265
189,027	-11,037	248,685	115,238
190,042	-11,017	248,550	115,181
191,056	-11,085	248,529	115,105
192,071	-11,085	248,178	114,933
193,086	-11,183	247,863	114,695
194,100	-10,980	247,730	114,792
195,115	-10,969	247,549	114,707
196,129	-10,981	247,344	114,592
197,144	-11,023	247,226	114,492
198,159	-10,934	247,025	114,463
199,173	-11,006	246,912	114,340
200,188	-10,931	246,681	114,286
201,202	-11,291	246,422	113,857
202,217	-11,584	246,225	113,513
203,232	-11,626	245,994	113,362
204,246	-11,072	245,908	113,770
205,261	-10,851	245,885	113,932
206,275	-11,662	245,597	113,119
207,290	-6,494	247,490	118,276
208,304	1,468	249,969	126,113
209,319	4,355	250,724	128,897
210,334	4,604	250,736	129,100
211,348	5,015	250,728	129,427
212,363	5,257	250,644	129,575
213,377	5,257	250,499	129,488
214,392	5,249	250,306	129,370
215,407	5,121	250,141	129,167
216,421	5,149	250,040	129,127
217,436	5,070	249,905	128,980
218,450	5,424	249,677	129,145
219,465	5,021	249,413	128,662
220,480	4,875	249,172	128,406
221,494	4,868	249,033	128,316
222,509	4,884	248,958	128,280
223,523	4,893	248,697	128,141
224,538	4,411	248,375	127,566
225,553	4,411	248,391	127,562
226,567	4,882	248,184	127,833
227,582	5,032	248,002	127,852
228,596	4,831	247,828	127,585
229,611	4,385	247,674	127,127
230,626	4,385	247,500	127,026
231,640	4,353	247,333	126,903
232,655	4,414	247,192	126,870
233,669	4,471	247,043	126,829
234,684	4,125	246,785	126,401
235,699	4,608	246,628	126,706
236,713	4,747	246,521	126,753
237,728	4,523	246,252	126,419
238,742	4,208	246,184	126,116
239,757	4,401	245,861	126,097
240,772	4,490	245,668	126,059
241,786	4,524	245,636	126,059
242,801	4,336	245,487	125,818
243,815	4,303	245,368	125,719
244,830	4,555	245,231	125,843
245,844	4,793	245,087	125,952
246,859	4,538	244,866	125,620
247,874	4,581	244,595	125,504
248,888	4,624	244,515	125,487
249,903	4,559	244,463	125,396
250,917	4,722	244,309	125,438
251,932	4,650	244,285	125,357
252,947	4,822	244,079	125,379
253,961	4,597	243,677	124,979
254,976	4,718	243,557	125,005
255,990	4,737	243,401	124,928
257,005	4,449	243,414	124,691
258,020	4,376	243,191	124,507
259,034	4,369	243,057	124,422
260,049	4,544	242,852	124,447
261,063	4,271	242,688	124,132
262,078	4,452	242,411	124,124
263,093	4,730	242,538	124,402
264,107	4,743	242,276	124,267
265,122	4,438	242,060	123,901
266,136	4,749	241,860	124,037
267,151	4,937	241,871	124,181
268,166	4,604	241,426	123,675
269,180	4,169	241,370	123,288
270,195	4,738	241,455	123,775
271,209	5,277	241,327	124,130
272,224	4,527	240,982	123,343
273,239	4,149	240,725	122,898
274,253	4,183	240,666	122,885
275,268	4,350	240,687	123,018
276,282	4,475	240,333	122,925
277,297	4,371	240,146	122,736
278,312	4,290	240,001	122,586
279,326	4,547	239,888	122,722
280,341	4,784	239,595	122,749
281,355	4,612	239,605	122,607
282,370	4,831	239,476	122,703
283,384	4,493	239,289	122,329
284,399	4,528	239,092	122,245
285,414	4,203	238,949	121,904
286,428	4,306	238,873	121,936
287,443	4,216	238,725	121,778
288,457	4,597	238,575	121,992
289,472	4,489	238,419	121,816
290,487	4,455	238,283	121,708
291,501	4,419	237,933	121,490
292,516	4,021	237,830	121,114
293,530	4,129	237,798	121,172
294,545	4,450	237,592	121,309
295,560	4,475	237,514	121,278
296,574	4,113	237,307	120,877
297,589	4,175	237,184	120,852
298,603	4,631	237,057	121,134
299,618	4,671	236,869	121,058
300,633	4,854	236,686	121,098
301,647	4,751	236,775	121,051
302,662	5,167	236,525	121,238
303,676	4,720	236,368	120,797
304,691	4,735	236,189	120,707
305,706	5,087	236,049	120,899
306,720	5,093	235,880	120,806
307,735	4,870	235,609	120,484
308,749	4,521	235,504	120,148
309,764	4,459	235,342	120,006
310,779	4,278	235,042	119,701
311,793	4,154	234,971	119,558
312,808	3,942	234,801	119,298
313,822	4,001	234,523	119,191
314,837	4,030	234,347	119,113
315,852	4,090	234,500	119,227
316,866	4,790	234,542	119,779
317,881	4,998	234,306	119,809
318,895	4,991	234,049	119,661
319,910	4,861	234,032	119,542
320,925	4,758	233,740	119,303
321,939	4,156	233,557	118,734
322,954	4,516	233,426	118,935
323,968	4,799	233,150	119,001
324,983	4,708	233,068	118,879
325,997	4,662	233,101	118,849
327,012	4,767	232,895	118,815
328,027	4,557	232,743	118,565
329,041	4,840	232,612	118,706
330,056	5,270	232,621	119,028
331,070	5,352	232,488	119,013
332,085	4,767	232,298	118,457
333,100	4,793	231,957	118,293
334,114	4,722	231,736	118,115
335,129	5,098	231,683	118,364
336,143	4,942	231,684	118,235
337,158	4,811	231,476	118,019
338,173	4,629	231,182	117,720
339,187	4,534	231,041	117,566
340,202	4,714	230,984	117,663
341,216	4,592	230,823	117,477
342,231	4,591	230,643	117,375
343,246	4,399	230,491	117,141
344,260	4,483	230,518	117,208
345,275	4,916	230,391	117,462
346,289	4,815	230,248	117,302
347,304	4,797	230,101	117,203
348,319	5,110	229,818	117,284
349,333	4,944	229,738	117,108
350,348	4,520	229,463	116,637
351,362	4,668	229,382	116,698
352,377	4,639	229,124	116,534
353,392	4,451	229,126	116,383
354,406	4,331	228,886	116,160
355,421	195,847	1316,778	1393,020
356,435	157,116	1449,278	1392,987
