DTS Sentinel unit serial number:	SN410029Multiplexer serial number:	ORYXHardware model number:	OX2-SRSoftware version number:	ORYX F/W v4,00 Oryx Data Collector v3.7.2.0data status	okinstallation	B5 Nyhavnadifferential loss correction	single-endedforward channel	channel 2reverse channel	N/Adate	2023/12/12time	20:27:13forward acquisition time	300,00reverse acquisition time	0,00gamma	499,1914k internal	0,3157k external	0,3157temperature offset calibration	1,0000default loss term (dB/km)	0,3820temperature slope calibration	1,0000multiplexer offset coefficient	1,0000multiplexer slope coefficient	1,0000fibre end	0,00T internal ref (°C)	15,23T ext. ref 1 (°C)	-1,48T ext. ref 2 (°C)	-1,78length (m)	temperature (°C)	Stokes	anti-Stokes-744,400	800,000	0,003	0,007
-743,385	-172,577	-0,261	0,006
-742,371	106,854	0,073	0,064
-741,356	-130,361	-0,184	0,018
-740,342	-15,543	0,117	-0,055
-739,327	-98,875	-0,315	0,059
-738,312	13,234	0,043	0,024
-737,298	-63,087	-0,289	-0,087
-736,283	-200,000	0,029	-0,129
-735,269	197,981	-0,112	-0,126
-734,254	96,213	0,073	0,061
-733,239	-58,134	-0,377	-0,121
-732,225	-78,103	0,198	0,050
-731,210	-200,000	-0,003	0,053
-730,196	77,500	0,033	0,026
-729,181	349,086	0,040	-0,058
-728,167	226,438	-0,070	-0,084
-727,152	75,043	-0,036	0,028
-726,137	-83,373	-0,047	0,011
-725,123	111,316	0,036	-0,032
-724,108	134,038	0,069	-0,066
-723,094	78,597	-0,050	-0,039
-722,079	-94,209	-0,231	0,046
-721,064	121,518	0,015	-0,013
-720,050	32,667	0,026	0,016
-719,035	68,639	0,005	-0,004
-718,021	170,008	-0,095	0,100
-717,006	9,242	-0,078	-0,043
-715,991	-72,304	-0,096	-0,026
-714,977	113,164	0,043	0,038
-713,962	-29,279	0,104	-0,044
-712,948	-200,000	-0,015	-0,113
-711,933	800,000	-0,086	-0,191
-710,918	800,000	-0,020	-0,056
-709,904	-200,000	-0,002	0,016
-708,889	-123,310	-0,181	0,021
-707,875	-123,164	-0,073	-0,009
-706,860	-64,864	-0,042	0,013
-705,845	297,971	-0,045	-0,061
-704,831	214,341	0,052	-0,061
-703,816	800,000	-0,013	0,039
-702,802	387,401	-0,073	-0,111
-701,787	-38,658	-0,213	-0,082
-700,772	-200,000	0,021	-0,120
-699,758	57,792	-0,102	0,073
-698,743	-27,242	0,010	0,004
-697,729	181,645	-0,099	0,108
-696,714	-11,667	0,065	-0,031
-695,699	43,482	-0,031	0,021
-694,685	195,840	-0,019	-0,021
-693,670	45,469	-0,086	-0,059
-692,656	88,123	0,011	-0,009
-691,641	1,971	0,098	0,052
-690,627	133,029	-0,046	-0,044
-689,612	-166,594	0,177	-0,005
-688,597	-32,060	-0,093	-0,038
-687,583	105,273	-0,120	-0,104
-686,568	-200,000	0,002	0,038
-685,554	-136,223	-0,174	-0,015
-684,539	-73,512	0,157	0,042
-683,524	-14,632	-0,156	0,073
-682,510	558,339	0,012	0,022
-681,495	611,422	-0,026	-0,048
-680,481	766,931	-0,023	0,046
-679,466	46,727	-0,122	0,083
-678,451	-200,000	-0,019	-0,209
-677,437	-200,000	0,032	-0,133
-676,422	766,226	-0,025	0,051
-675,408	-91,786	-0,048	0,010
-674,393	-200,000	0,015	-0,068
-673,378	161,572	-0,073	-0,076
-672,364	90,331	-0,125	-0,103
-671,349	-135,160	0,105	0,009
-670,335	-200,000	-0,002	0,030
-669,320	20,991	-0,172	-0,103
-668,305	90,469	-0,043	-0,036
-667,291	800,000	0,041	-0,095
-666,276	51,177	0,087	-0,060
-665,262	155,481	0,052	-0,053
-664,247	0,814	-0,048	0,025
-663,232	800,000	-0,010	-0,025
-662,218	260,970	-0,088	0,112
-661,203	800,000	-0,027	0,081
-660,189	663,726	0,041	-0,078
-659,174	261,025	-0,054	-0,069
-658,159	-25,806	-0,122	-0,052
-657,145	54,322	-0,036	-0,025
-656,130	232,468	0,055	0,066
-655,116	-160,370	-0,073	-0,003
-654,101	-200,000	-0,023	0,154
-653,086	-200,000	0,009	0,051
-652,072	-13,585	-0,044	-0,021
-651,057	-200,000	0,001	0,018
-650,043	-76,790	-0,077	-0,020
-649,028	-125,714	-0,086	0,009
-648,014	786,474	-0,056	-0,114
-646,999	800,000	-0,051	0,136
-645,984	-200,000	-0,014	0,097
-644,970	-84,739	-0,074	-0,017
-643,955	-200,000	-0,012	0,099
-642,941	28,443	-0,100	-0,062
-641,926	127,055	-0,107	0,100
-640,911	-200,000	0,022	0,102
-639,897	-30,761	-0,051	0,021
-638,882	-111,471	0,082	-0,012
-637,868	71,161	0,025	0,019
-636,853	196,830	-0,028	-0,031
-635,838	66,747	-0,106	-0,079
-634,824	373,751	-0,013	-0,020
-633,809	800,000	-0,011	0,024
-632,795	126,548	-0,052	-0,048
-631,780	87,869	-0,060	0,049
-630,765	800,000	0,030	0,070
-629,751	-89,949	-0,121	0,026
-628,736	177,698	0,091	-0,098
-627,722	-101,917	0,032	0,006
-626,707	800,000	-0,043	0,104
-625,692	415,910	0,041	-0,065
-624,678	-108,804	-0,051	0,008
-623,663	800,000	0,046	-0,146
-622,649	104,513	0,061	-0,053
-621,634	-200,000	-0,012	-0,096
-620,619	25,047	0,018	-0,011
-619,605	186,348	-0,118	0,129
-618,590	389,504	0,060	0,092
-617,576	-64,395	0,093	0,028
-616,561	-200,000	0,008	0,095
-615,546	800,000	-0,099	0,219
-614,532	-200,000	0,015	-0,121
-613,517	7,414	-0,080	0,044
-612,503	800,000	-0,026	-0,053
-611,488	-55,639	0,171	0,056
-610,474	-96,540	-0,048	0,009
-609,459	-67,219	-0,152	-0,044
-608,444	-200,000	-0,011	-0,100
-607,430	-46,513	-0,130	0,047
-606,415	-54,233	0,103	-0,034
-605,401	55,662	-0,114	0,081
-604,386	800,000	0,028	0,083
-603,371	-200,000	-0,020	0,196
-602,357	571,190	-0,044	0,080
-601,342	800,000	-0,038	-0,115
-600,328	800,000	-0,019	-0,042
-599,313	291,986	0,013	-0,017
-598,298	151,487	-0,031	0,031
-597,284	-83,825	0,048	0,011
-596,269	-200,000	-0,007	0,053
-595,255	-200,000	0,005	0,053
-594,240	-200,000	-0,006	0,034
-593,225	-200,000	0,000	-0,080
-592,211	-123,886	-0,158	0,018
-591,196	481,977	-0,034	-0,058
-590,182	-200,000	-0,029	-0,182
-589,167	183,154	-0,049	0,053
-588,152	800,000	-0,059	-0,125
-587,138	-200,000	0,015	0,106
-586,123	-68,241	-0,144	-0,041
-585,109	-93,070	-0,065	0,013
-584,094	-35,245	0,054	-0,022
-583,079	290,857	0,090	0,121
-582,065	339,733	-0,024	0,034
-581,050	106,435	-0,033	0,029
-580,036	800,000	-0,021	0,048
-579,021	800,000	0,015	-0,031
-578,006	-136,286	-0,110	0,009
-576,992	800,000	-0,052	-0,123
-575,977	-200,000	-0,008	0,072
-574,963	192,045	0,022	0,025
-573,948	126,943	-0,042	-0,039
-572,934	800,000	0,054	-0,116
-571,919	800,000	0,044	-0,123
-570,904	-129,322	-0,039	0,004
-569,890	-108,339	-0,031	0,005
-568,875	-64,089	0,064	-0,019
-567,861	-19,477	0,102	0,046
-566,846	-6,344	-0,126	0,063
-565,831	11,076	0,092	0,051
-564,817	27,571	-0,009	-0,006
-563,802	98,769	-0,087	-0,073
-562,788	-138,427	-0,077	-0,006
-561,773	800,000	0,019	0,058
-560,758	412,726	-0,051	0,080
-559,744	-126,280	0,033	0,004
-558,729	-200,000	0,006	0,046
-557,715	-53,905	0,134	-0,044
-556,700	31,190	-0,112	-0,070
-555,685	-16,519	0,098	0,045
-554,671	-200,000	0,012	0,069
-553,656	6,647	-0,021	0,011
-552,642	-97,787	0,094	-0,018
-551,627	0,260	0,035	0,018
-550,612	800,000	-0,050	0,120
-549,598	-35,846	-0,063	-0,025
-548,583	-158,234	-0,126	-0,005
-547,569	-22,584	0,088	0,039
-546,554	312,909	-0,017	0,023
-545,539	213,917	-0,087	0,100
-544,525	800,000	0,024	0,067
-543,510	-112,647	0,103	0,015
-542,496	-59,173	-0,175	0,055
-541,481	-46,015	0,090	-0,032
-540,466	-200,000	-0,028	-0,101
-539,452	-87,208	0,050	0,011
-538,437	162,340	0,032	0,033
-537,423	-96,627	0,064	-0,012
-536,408	800,000	-0,002	0,005
-535,393	-200,000	-0,002	-0,016
-534,379	-50,304	-0,076	-0,026
-533,364	-137,589	0,032	0,003
-532,350	118,774	0,052	-0,047
-531,335	-126,219	0,092	-0,010
-530,321	-200,000	0,025	0,152
-529,306	38,242	-0,032	0,020
-528,291	-127,835	0,129	0,013
-527,277	-200,000	-0,039	0,135
-526,262	-200,000	0,010	0,068
-525,248	-65,140	0,135	0,040
-524,233	-39,728	0,088	0,033
-523,218	626,155	0,016	0,030
-522,204	-41,873	0,051	0,019
-521,189	-134,062	-0,095	0,009
-520,175	-200,000	0,009	-0,098
-519,160	-80,470	0,037	-0,009
-518,145	402,269	0,046	0,070
-517,131	-200,000	0,039	0,162
-516,116	-200,000	0,010	0,183
-515,102	399,355	0,111	-0,171
-514,087	-170,089	-0,187	-0,005
-513,072	-200,000	-0,020	-0,077
-512,058	2,115	0,064	-0,034
-511,043	-200,000	-0,020	-0,065
-510,029	-200,000	-0,025	0,091
-509,014	-200,000	-0,016	-0,076
-507,999	-91,271	0,097	0,020
-506,985	-100,847	-0,111	-0,020
-505,970	46,724	-0,070	-0,048
-504,956	292,970	-0,144	-0,192
-503,941	-133,117	-0,077	0,007
-502,926	-200,000	0,002	-0,009
-501,912	-60,554	0,099	-0,030
-500,897	118,994	0,072	-0,065
-499,883	-91,578	-0,133	-0,028
-498,868	800,000	0,032	0,075
-497,853	252,074	0,033	-0,041
-496,839	-99,780	0,073	0,013
-495,824	-54,984	-0,041	0,013
-494,810	800,000	0,040	0,087
-493,795	-144,305	-0,048	0,003
-492,781	-200,000	-0,103	0,000
-491,766	-200,000	-0,004	-0,023
-490,751	-141,889	-0,151	0,011
-489,737	-157,195	0,198	0,009
-488,722	220,922	-0,054	-0,063
-487,708	-61,913	-0,058	-0,017
-486,693	-15,210	0,069	-0,032
-485,678	397,199	-0,044	0,068
-484,664	-53,634	0,018	0,006
-483,649	45,189	0,070	-0,047
-482,635	-200,000	0,008	0,034
-481,620	-169,254	0,074	-0,002
-480,605	113,955	0,094	-0,083
-479,591	403,985	-0,017	-0,026
-478,576	-63,602	0,037	-0,011
-477,562	-96,435	-0,127	-0,024
-476,547	290,154	-0,040	0,053
-475,532	4,531	-0,112	-0,060
-474,518	-200,000	0,037	-0,123
-473,503	-200,000	0,009	-0,217
-472,489	0,814	-0,102	0,053
-471,474	-200,000	-0,002	0,085
-470,459	800,000	0,019	0,061
-469,445	146,173	-0,010	0,010
-468,430	-200,000	0,000	0,035
-467,416	517,848	-0,012	-0,020
-466,401	-200,000	0,007	0,134
-465,386	-200,000	-0,001	0,002
-464,372	-96,005	0,162	0,031
-463,357	-147,593	0,059	0,004
-462,343	150,757	0,050	-0,050
-461,328	-108,099	0,067	-0,010
-460,313	-51,607	0,064	-0,022
-459,299	-9,400	-0,160	0,078
-458,284	-200,000	0,013	0,098
-457,270	109,763	0,077	0,068
-456,255	-48,589	-0,111	0,039
-455,241	-200,000	0,017	-0,094
-454,226	800,000	0,029	-0,070
-453,211	-30,286	-0,068	-0,028
-452,197	528,777	0,022	0,038
-451,182	800,000	-0,048	0,111
-450,168	-200,000	-0,009	0,127
-449,153	-103,660	0,117	0,020
-448,138	-200,000	0,008	0,047
-447,124	315,286	0,059	0,081
-446,109	27,661	-0,077	-0,047
-445,095	58,964	-0,061	-0,044
-444,080	800,000	-0,022	0,046
-443,065	-10,580	0,115	0,055
-442,051	-200,000	0,019	-0,067
-441,036	6,796	-0,062	0,034
-440,022	-103,852	0,076	0,013
-439,007	-200,000	0,003	-0,018
-437,992	-200,000	-0,001	-0,017
-436,978	70,423	-0,124	-0,093
-435,963	35,730	-0,094	-0,060
-434,949	-200,000	-0,023	-0,074
-433,934	242,913	-0,052	0,064
-432,919	100,078	-0,105	-0,088
-431,905	262,354	0,074	-0,094
-430,890	-200,000	0,010	-0,117
-429,876	800,000	0,020	-0,042
-428,861	63,055	-0,083	-0,061
-427,846	-200,000	-0,001	0,030
-426,832	183,141	0,093	-0,100
-425,817	800,000	-0,024	-0,077
-424,803	-49,095	-0,126	-0,044
-423,788	-65,681	0,191	0,055
-422,773	-46,278	-0,046	0,016
-421,759	-200,000	0,007	0,092
-420,744	147,554	-0,029	0,028
-419,730	-117,639	0,090	0,012
-418,715	478,003	-0,042	-0,070
-417,701	-99,877	-0,121	-0,022
-416,686	-200,000	0,014	0,079
-415,671	603,589	0,037	-0,068
-414,657	273,976	0,109	0,141
-413,642	800,000	-0,021	-0,064
-412,628	-200,000	-0,032	-0,189
-411,613	-200,000	-0,009	-0,104
-410,598	-19,076	0,057	-0,026
-409,584	800,000	-0,075	-0,190
-408,569	-200,000	0,005	-0,018
-407,555	50,049	-0,031	0,021
-406,540	-78,952	0,103	0,025
-405,525	22,894	-0,042	-0,025
-404,511	17,006	0,063	-0,036
-403,496	800,000	-0,025	-0,076
-402,482	-146,313	0,024	0,002
-401,467	377,601	0,044	-0,065
-400,452	-141,168	0,139	-0,010
-399,438	-14,979	0,057	0,027
-398,423	48,383	0,150	-0,102
-397,409	208,848	-0,088	-0,100
-396,394	-200,000	0,020	0,130
-395,379	-200,000	0,025	-0,093
-394,365	800,000	0,006	0,017
-393,350	-37,184	0,109	0,042
-392,336	800,000	0,027	-0,076
-391,321	-8,404	-0,070	0,034
-390,306	800,000	-0,041	0,112
-389,292	70,085	0,111	0,083
-388,277	800,000	-0,014	-0,037
-387,263	-42,979	0,042	-0,016
-386,248	800,000	-0,049	-0,131
-385,233	-13,396	-0,037	0,017
-384,219	-200,000	0,007	-0,040
-383,204	177,736	0,025	-0,027
-382,190	-152,181	0,117	-0,006
-381,175	-60,416	-0,073	-0,022
-380,160	163,628	-0,055	0,056
-379,146	-117,082	0,119	-0,016
-378,131	-132,486	-0,042	0,004
-377,117	-63,127	-0,162	-0,048
-376,102	-56,168	-0,138	-0,044
-375,088	-200,000	0,005	-0,141
-374,073	-114,493	-0,041	0,006
-373,058	-109,934	-0,020	-0,003
-372,044	-60,469	0,087	0,027
-371,029	-86,663	-0,091	-0,020
-370,015	-99,998	0,044	0,008
-369,000	-200,000	0,011	-0,059
-367,985	-200,000	0,011	-0,072
-366,971	-36,615	0,100	-0,039
-365,956	182,041	0,059	0,063
-364,942	-106,580	0,090	-0,014
-363,927	-200,000	-0,004	0,028
-362,912	623,938	-0,056	-0,103
-361,898	-127,747	0,094	0,010
-360,883	55,218	-0,039	-0,028
-359,869	359,774	-0,015	-0,022
-358,854	-200,000	-0,006	0,035
-357,839	-75,191	-0,043	-0,011
-356,825	585,239	0,060	0,107
-355,810	376,700	0,057	-0,085
-354,796	60,440	-0,090	0,065
-353,781	800,000	0,037	0,093
-352,766	17,921	-0,055	-0,032
-351,752	800,000	0,038	0,097
-350,737	-200,000	-0,001	0,084
-349,723	51,868	0,083	-0,057
-348,708	-59,293	-0,104	0,032
-347,693	-97,493	0,038	-0,007
-346,679	800,000	-0,019	-0,042
-345,664	2,790	0,058	-0,030
-344,650	-44,031	0,061	0,022
-343,635	-46,647	0,067	-0,024
-342,620	-138,025	-0,124	0,010
-341,606	48,010	-0,101	0,069
-340,591	-139,042	-0,067	0,005
-339,577	203,580	-0,087	-0,098
-338,562	-15,460	0,202	0,093
-337,548	-84,483	-0,019	-0,004
-336,533	471,823	0,072	-0,119
-335,518	537,340	-0,052	-0,090
-334,504	-200,000	-0,014	0,050
-333,489	1,996	0,090	0,047
-332,475	-81,539	0,104	-0,025
-331,460	800,000	-0,042	0,123
-330,445	425,128	-0,082	0,129
-329,431	-200,000	-0,018	0,135
-328,416	323,704	-0,052	0,073
-327,402	482,498	-0,002	0,004
-326,387	-58,439	-0,142	-0,044
-325,372	67,593	0,061	0,045
-324,358	-39,604	-0,048	0,018
-323,343	52,050	-0,025	0,017
-322,329	-200,000	-0,009	0,070
-321,314	-200,000	-0,003	-0,056
-320,299	-200,000	-0,007	0,101
-319,285	180,131	0,040	-0,043
-318,270	-200,000	-0,021	-0,141
-317,256	712,437	0,031	-0,059
-316,241	-95,673	0,090	0,017
-315,226	-200,000	0,007	0,070
-314,212	467,998	0,079	0,129
-313,197	-117,713	-0,128	0,017
-312,183	727,900	0,030	0,058
-311,168	193,667	0,129	0,142
-310,153	366,114	-0,055	-0,080
-309,139	316,517	-0,055	-0,075
-308,124	26,566	-0,077	0,047
-307,110	318,259	0,085	0,117
-306,095	-88,231	-0,074	-0,016
-305,080	800,000	-0,027	0,057
-304,066	512,803	0,040	0,067
-303,051	280,516	-0,028	-0,037
-302,037	-48,912	-0,107	-0,037
-301,022	-49,292	0,053	-0,018
-300,008	-87,545	0,148	0,032
-298,993	-13,993	0,160	-0,075
-297,978	96,625	-0,113	-0,094
-296,964	4,000	-0,065	0,034
-295,949	88,196	-0,055	-0,045
-294,935	312,817	0,038	-0,051
-293,920	-134,894	0,089	-0,008
-292,905	-200,000	-0,006	0,208
-291,891	-74,830	-0,053	0,014
-290,876	-77,174	0,057	-0,014
-289,862	800,000	0,027	-0,069
-288,847	800,000	0,046	0,135
-287,832	232,474	0,056	0,067
-286,818	319,271	-0,048	-0,066
-285,803	126,543	0,057	-0,052
-284,789	800,000	0,061	0,160
-283,774	-200,000	0,026	0,190
-282,759	340,402	-0,078	0,111
-281,745	800,000	-0,063	-0,153
-280,730	298,593	-0,088	-0,117
-279,716	800,000	-0,018	0,046
-278,701	119,503	0,004	-0,004
-277,686	800,000	0,025	0,074
-276,672	286,397	0,047	0,061
-275,657	41,681	-0,051	0,033
-274,643	-2,092	-0,158	-0,080
-273,628	-92,496	-0,109	-0,022
-272,613	204,572	-0,066	0,074
-271,599	-200,000	-0,025	0,131
-270,584	52,878	0,045	0,031
-269,570	87,878	-0,066	0,053
-268,555	261,871	0,063	-0,080
-267,540	590,751	0,025	0,044
-266,526	-121,003	0,164	-0,020
-265,511	167,619	-0,083	0,085
-264,497	-72,408	-0,041	0,011
-263,482	-200,000	-0,020	0,115
-262,467	-200,000	-0,017	-0,062
-261,453	90,111	-0,144	0,117
-260,438	218,279	0,028	-0,033
-259,424	-200,000	0,044	-0,186
-258,409	50,515	-0,154	-0,105
-257,395	151,690	0,051	0,050
-256,380	-200,000	0,002	-0,043
-255,365	800,000	0,005	-0,016
-254,351	800,000	0,006	-0,018
-253,336	-73,524	-0,063	-0,017
-252,322	-59,394	0,088	-0,027
-251,307	266,804	-0,051	-0,065
-250,292	-107,717	0,117	-0,018
-249,278	-200,000	0,002	0,066
-248,263	-28,634	0,123	0,051
-247,249	800,000	0,008	0,019
-246,234	-45,426	0,063	0,023
-245,219	226,621	0,064	0,075
-244,205	-200,000	0,013	-0,046
-243,190	-34,008	-0,070	0,028
-242,176	90,949	0,047	-0,038
-241,161	800,000	-0,033	0,090
-240,146	44,151	0,086	-0,057
-239,132	-200,000	0,007	-0,140
-238,117	319,454	-0,045	-0,062
-237,103	-51,475	-0,149	0,050
-236,088	4,742	0,073	0,039
-235,073	-96,434	0,133	-0,025
-234,059	212,685	0,009	0,010
-233,044	-103,360	0,093	-0,016
-232,030	800,000	-0,007	-0,019
-231,015	133,392	-0,130	-0,122
-230,000	-200,000	0,002	-0,010
-228,986	-200,000	-0,014	-0,172
-227,971	-6,787	0,164	0,080
-226,957	-105,218	0,094	0,015
-225,942	-181,459	-0,039	-0,001
-224,927	351,795	-0,035	0,051
-223,913	-200,000	-0,015	-0,276
-222,898	800,000	0,035	-0,098
-221,884	-200,000	-0,006	0,032
-220,869	-200,000	-0,001	-0,039
-219,855	-200,000	0,013	-0,130
-218,840	800,000	0,016	0,042
-217,825	134,878	-0,017	0,016
-216,811	110,925	-0,073	0,063
-215,796	-200,000	0,030	-0,116
-214,782	326,069	0,022	0,030
-213,767	800,000	0,033	-0,083
-212,752	643,299	-0,016	-0,029
-211,738	-53,151	0,111	-0,037
-210,723	-200,000	-0,032	-0,192
-209,709	343,806	-0,099	-0,140
-208,694	800,000	-0,042	0,110
-207,679	-200,000	-0,002	0,032
-206,665	112,082	0,045	-0,039
-205,650	800,000	0,037	-0,081
-204,636	-57,008	0,090	0,028
-203,621	-81,693	-0,126	0,030
-202,606	-200,000	-0,019	-0,135
-201,592	-16,224	-0,086	0,039
-200,577	-200,000	-0,017	-0,067
-199,563	57,971	0,057	0,040
-198,548	88,035	0,195	0,156
-197,533	116,501	0,103	0,092
-196,519	303,487	-0,106	0,142
-195,504	18,837	-0,069	-0,040
-194,490	800,000	0,042	0,103
-193,475	800,000	0,007	0,017
-192,460	-10,786	0,036	0,017
-191,446	800,000	0,056	0,118
-190,431	-75,106	-0,122	-0,031
-189,417	-200,000	0,024	-0,084
-188,402	-130,752	0,126	-0,012
-187,387	215,660	-0,066	-0,076
-186,373	191,119	0,039	0,043
-185,358	73,409	-0,031	-0,024
-184,344	36,519	-0,029	0,018
-183,329	282,419	0,063	0,081
-182,315	20,995	0,053	0,031
-181,300	547,100	-0,030	0,052
-180,285	-5,378	-0,098	-0,048
-179,271	-161,021	-0,044	0,002
-178,256	138,660	-0,068	0,065
-177,242	-37,792	-0,090	0,035
-176,227	800,000	0,024	0,068
-175,212	-28,204	-0,035	0,014
-174,198	-200,000	0,002	-0,180
-173,183	455,677	0,036	-0,058
-172,169	570,070	-0,062	0,109
-171,154	91,342	0,060	-0,048
-170,139	89,933	0,090	-0,073
-169,125	36,094	0,088	0,056
-168,110	-89,831	0,094	0,020
-167,096	-200,000	-0,008	-0,068
-166,081	79,844	0,099	-0,077
-165,066	800,000	-0,056	-0,117
-164,052	-200,000	0,016	-0,104
-163,037	-173,380	0,091	0,002
-162,023	-200,000	-0,008	-0,046
-161,008	24,572	0,115	0,069
-159,993	-200,000	0,009	0,043
-158,979	197,320	-0,098	-0,108
-157,964	-67,851	0,132	-0,037
-156,950	595,732	0,044	-0,078
-155,935	-135,518	0,113	-0,010
-154,920	-148,513	0,037	-0,002
-153,906	-200,000	-0,019	0,172
-152,891	-50,583	0,016	0,005
-151,877	800,000	-0,011	0,024
-150,862	77,566	-0,017	0,013
-149,847	-200,000	0,037	-0,186
-148,833	357,801	0,027	0,039
-147,818	-61,931	-0,051	-0,015
-146,804	96,082	0,061	-0,050
-145,789	-81,422	-0,120	0,028
-144,775	800,000	0,042	0,124
-143,760	12,509	-0,025	0,014
-142,745	-127,522	-0,128	-0,013
-141,731	37,896	-0,047	-0,030
-140,716	299,295	0,068	0,091
-139,702	-22,058	-0,113	-0,049
-138,687	-200,000	0,009	0,130
-137,672	357,664	0,087	0,125
-136,658	-200,000	0,009	-0,052
-135,643	211,689	-0,075	-0,085
-134,629	156,577	0,066	0,066
-133,614	8,465	0,046	-0,025
-132,599	52,899	0,106	0,073
-131,585	-64,118	0,061	0,018
-130,570	800,000	0,028	0,061
-129,556	74,279	0,073	-0,055
-128,541	-113,926	0,107	-0,015
-127,526	147,327	-0,038	-0,037
-126,512	-200,000	0,026	0,109
-125,497	800,000	-0,067	0,161
-124,483	-179,739	0,071	-0,001
-123,468	335,052	-0,076	0,106
-122,453	531,357	-0,059	-0,100
-121,439	8,825	0,083	0,045
-120,424	800,000	-0,028	0,070
-119,410	373,559	-0,050	0,074
-118,395	-14,625	0,087	0,040
-117,380	193,648	0,052	0,057
-116,366	54,190	0,065	-0,045
-115,351	-200,000	-0,005	0,101
-114,337	88,930	0,073	-0,058
-113,322	-11,455	0,092	0,043
-112,307	488,067	-0,092	0,151
-111,293	58,309	0,077	0,054
-110,278	-173,747	-0,082	0,002
-109,264	10,648	0,036	-0,020
-108,249	658,612	0,086	-0,159
-107,234	205,806	0,050	0,056
-106,220	-83,928	-0,020	0,005
-105,205	-159,818	-0,109	-0,004
-104,191	-200,000	-0,016	0,090
-103,176	79,316	-0,072	0,055
-102,162	-54,636	-0,007	-0,002
-101,147	121,483	-0,051	-0,045
-100,132	-188,301	-0,256	0,002
-99,118	-134,019	0,010	0,001
-98,103	126,246	0,124	-0,113
-97,089	-120,604	0,090	-0,011
-96,074	-200,000	-0,003	0,092
-95,059	-51,558	-0,096	-0,032
-94,045	284,704	-0,014	0,018
-93,030	-130,210	0,090	-0,009
-92,016	-64,369	-0,039	-0,011
-91,001	800,000	0,034	-0,069
-89,986	-200,000	-0,015	0,061
-88,972	-78,066	-0,061	-0,015
-87,957	-174,462	-0,086	0,002
-86,943	127,757	0,062	-0,057
-85,928	88,818	0,047	-0,038
-84,913	25,231	-0,056	-0,033
-83,899	-200,000	0,011	-0,144
-82,884	-200,000	-0,013	-0,110
-81,870	75,046	-0,167	0,126
-80,855	-35,323	-0,065	-0,025
-79,840	-78,870	0,050	-0,012
-78,826	338,287	-0,026	-0,037
-77,811	-185,405	-0,070	0,001
-76,797	-200,000	0,000	-0,025
-75,782	88,305	0,009	-0,007
-74,767	476,175	-0,050	-0,081
-73,753	-200,000	-0,006	0,096
-72,738	-66,109	-0,133	-0,038
-71,724	72,757	0,088	-0,066
-70,709	-134,326	0,093	-0,008
-69,694	85,948	-0,067	0,053
-68,680	800,000	0,079	0,221
-67,665	-148,586	0,097	0,006
-66,651	107,083	0,180	0,154
-65,636	800,000	-0,057	0,131
-64,622	139,941	-0,107	-0,102
-63,607	432,587	-0,052	-0,081
-62,592	-200,000	0,014	-0,170
-61,578	-100,686	0,113	-0,020
-60,563	600,230	-0,064	0,115
-59,549	54,476	-0,096	0,066
-58,534	-12,893	-1,943	-0,905
-57,519	-200,000	-0,249	-0,811
-56,505	-200,000	-1,288	-4,915
-55,490	31,067	0,836	0,514
-54,476	800,000	5,267	11,973
-53,461	-200,000	17,700	284,959
-52,446	800,000	728,149	2219,247
-51,432	535,979	1643,769	2810,708
-50,417	110,063	1634,328	1407,675
-49,403	75,898	1286,525	975,415
-48,388	32,035	1027,459	634,235
-47,373	20,174	989,544	571,711
-46,359	18,442	977,071	558,806
-45,344	15,576	973,252	547,221
-44,330	15,775	971,741	547,002
-43,315	15,327	969,730	544,386
-42,300	15,256	968,751	543,581
-41,286	15,249	967,718	542,958
-40,271	15,269	966,624	542,389
-39,257	15,260	965,808	541,878
-38,242	15,304	965,002	541,549
-37,227	15,239	964,276	540,910
-36,213	15,274	963,174	540,382
-35,198	15,224	962,446	539,791
-34,184	15,296	961,650	539,554
-33,169	15,247	960,716	538,850
-32,154	15,263	959,760	538,347
-31,140	15,281	958,876	537,888
-30,125	15,335	958,113	537,612
-29,111	15,251	957,373	536,903
-28,096	15,259	956,559	536,453
-27,082	15,253	955,974	536,083
-26,067	15,227	955,103	535,491
-25,052	15,274	954,363	535,206
-24,038	15,296	953,783	534,931
-23,023	15,222	953,385	534,448
-22,009	15,283	952,604	534,185
-20,994	15,253	951,979	533,717
-19,979	15,260	951,423	533,406
-18,965	15,233	950,744	532,918
-17,950	15,267	950,061	532,621
-16,936	15,221	949,238	531,993
-15,921	15,184	948,635	531,517
-14,906	15,147	947,948	530,992
-13,892	15,192	947,204	530,696
-12,877	15,178	946,715	530,357
-11,863	15,132	945,951	529,762
-10,848	15,157	945,557	529,601
-9,833	15,229	945,057	529,526
-8,819	15,186	944,564	529,095
-7,804	15,179	943,715	528,576
-6,790	15,114	943,245	528,085
-5,775	15,187	942,708	527,994
-4,760	15,103	942,176	527,410
-3,746	15,197	941,331	527,214
-2,731	15,052	940,676	526,368
-1,717	15,017	939,844	525,770
-0,702	14,987	939,493	525,459
0,313	14,816	938,610	525,216
1,327	18,136	936,431	534,406
2,342	27,149	793,848	476,906
3,356	23,804	458,804	270,489
4,371	-3,731	314,750	156,257
5,386	-7,707	296,433	143,122
6,400	-9,846	290,233	137,992
7,415	-10,152	287,769	136,507
8,429	-10,353	286,378	135,637
9,444	-10,456	285,506	135,112
10,459	-10,323	284,892	134,939
11,473	-10,283	283,919	134,505
12,488	-10,495	283,752	134,208
13,502	-10,241	283,179	134,171
14,517	-10,275	282,891	133,989
15,531	-10,344	282,369	133,664
16,546	-10,046	281,887	133,711
17,561	-10,252	281,536	133,334
18,575	-10,181	281,404	133,328
19,590	-10,279	280,869	132,969
20,604	-10,079	280,608	133,026
21,619	-10,222	280,232	132,698
22,634	-10,106	279,789	132,587
23,648	-10,238	279,534	132,328
24,663	-10,365	279,389	132,127
25,677	-9,975	279,081	132,341
26,692	-10,129	278,731	132,018
27,707	-10,226	278,393	131,753
28,721	-10,176	278,251	131,722
29,736	-10,348	278,022	131,438
30,750	-10,202	277,626	131,378
31,765	-10,270	277,428	131,208
32,780	-10,247	277,260	131,138
33,794	-10,111	276,943	131,105
34,809	-10,310	276,758	130,818
35,823	-10,226	276,513	130,770
36,838	-10,227	276,023	130,526
37,853	-10,070	275,960	130,632
38,867	-10,240	275,842	130,404
39,882	-10,291	275,594	130,228
40,896	-10,333	275,391	130,081
41,911	-10,233	275,014	129,985
42,926	-10,287	274,802	129,823
43,940	-10,317	274,307	129,549
44,955	-10,249	274,187	129,544
45,969	-10,356	274,081	129,383
46,984	-10,223	273,745	129,336
47,999	-10,535	273,488	128,913
49,013	-10,769	273,355	128,620
50,028	-10,832	273,073	128,418
51,042	-10,995	272,841	128,145
52,057	-10,947	272,490	128,013
53,071	-10,871	272,358	128,011
54,086	-10,858	272,120	127,899
55,101	-10,694	272,006	127,986
56,115	-10,499	271,920	128,116
57,130	-10,237	271,564	128,179
58,144	-10,029	271,421	128,292
59,159	-10,199	271,170	128,005
60,174	-10,129	270,925	127,942
61,188	-10,031	270,686	127,909
62,203	-9,988	270,427	127,815
63,217	-10,014	270,176	127,661
64,232	-10,236	270,132	127,425
65,247	-10,172	269,883	127,354
66,261	-9,985	269,546	127,355
67,276	-10,274	269,204	126,917
68,290	-10,414	269,131	126,743
69,305	-10,329	268,826	126,666
70,320	-10,584	268,733	126,377
71,334	-10,301	268,532	126,530
72,349	-10,228	268,387	126,518
73,363	-10,200	268,024	126,361
74,378	-10,040	267,890	126,433
75,393	-9,976	267,548	126,318
76,407	-10,170	267,401	126,061
77,422	-10,184	267,208	125,946
78,436	-10,229	266,883	125,741
79,451	-10,035	266,735	125,836
80,466	-10,183	266,458	125,559
81,480	-10,354	266,232	125,287
82,495	-10,261	266,069	125,284
83,509	-10,258	265,789	125,144
84,524	-10,418	265,748	124,968
85,539	-10,398	265,389	124,806
86,553	-10,388	265,318	124,770
87,568	-10,381	264,999	124,616
88,582	-10,357	264,887	124,574
89,597	-10,298	264,531	124,448
90,611	-10,407	264,592	124,368
91,626	-10,212	264,362	124,424
92,641	-10,136	264,170	124,390
93,655	-10,083	263,830	124,267
94,670	-10,202	263,694	124,085
95,684	-10,418	263,493	123,786
96,699	-10,185	263,240	123,864
97,714	-10,242	263,070	123,722
98,728	-10,428	262,960	123,494
99,743	-10,349	262,560	123,365
100,757	-10,456	262,537	123,248
101,772	-10,381	262,195	123,144
102,787	-10,170	262,026	123,241
103,801	-10,319	261,886	123,031
104,816	-10,254	261,713	122,997
105,830	-10,158	261,529	122,984
106,845	-10,101	261,338	122,934
107,860	-10,041	261,099	122,864
108,874	-10,239	260,969	122,617
109,889	-10,169	260,734	122,557
110,903	-10,071	260,432	122,490
111,918	-10,239	260,227	122,235
112,933	-10,174	260,197	122,267
113,947	-10,168	259,920	122,132
114,962	-10,279	259,896	122,012
115,976	-10,181	259,562	121,931
116,991	-10,278	259,523	121,815
118,006	-10,099	259,189	121,806
119,020	-10,245	259,042	121,597
120,035	-10,283	258,874	121,475
121,049	-10,252	258,790	121,451
122,064	-10,176	258,544	121,392
123,079	-10,060	258,342	121,388
124,093	-10,185	258,106	121,157
125,108	-10,247	257,690	120,897
126,122	-10,405	257,472	120,645
127,137	-10,543	257,377	120,470
128,151	-10,375	257,334	120,586
129,166	-10,489	257,116	120,374
130,181	-10,441	256,868	120,288
131,195	-10,441	256,572	120,139
132,210	-10,162	256,379	120,280
133,224	-10,268	256,242	120,113
134,239	-10,224	256,150	120,097
135,254	-10,347	255,941	119,882
136,268	-10,067	255,642	119,974
137,283	-10,460	255,496	119,554
138,297	-10,634	255,148	119,231
139,312	-10,640	255,080	119,183
140,327	-10,241	255,137	119,544
141,341	-10,083	254,903	119,559
142,356	-10,252	254,656	119,287
143,370	-10,038	254,378	119,331
144,385	-10,053	254,459	119,346
145,400	-9,944	254,093	119,256
146,414	-10,168	254,004	119,012
147,429	-10,102	253,770	118,948
148,443	-9,880	253,526	119,014
149,458	-9,962	253,372	118,860
150,473	-9,921	253,252	118,829
151,487	-10,029	252,929	118,574
152,502	-10,036	252,804	118,498
153,516	-9,883	252,707	118,574
154,531	-9,944	252,525	118,426
155,546	-10,085	252,191	118,138
156,560	-10,035	252,143	118,148
157,575	-10,181	251,780	117,843
158,589	-10,038	251,760	117,944
159,604	-10,200	251,651	117,745
160,619	-10,071	251,255	117,659
161,633	-10,269	251,239	117,473
162,648	-10,060	250,876	117,470
163,662	-10,022	250,957	117,530
164,677	-9,779	250,721	117,614
165,692	-9,855	250,556	117,462
166,706	-9,936	250,331	117,277
167,721	-9,917	250,146	117,196
168,735	-10,055	250,065	117,032
169,750	-10,105	249,858	116,883
170,764	-9,914	249,915	117,059
171,779	-9,812	249,524	116,952
172,794	-9,900	249,468	116,841
173,808	-10,099	249,284	116,577
174,823	-10,351	248,981	116,213
175,837	-10,529	248,694	115,920
176,852	-10,150	248,689	116,225
177,867	-10,033	248,516	116,232
178,881	-9,825	248,328	116,307
179,896	-9,925	248,194	116,151
180,910	-9,954	247,914	115,985
181,925	-9,890	247,834	115,991
182,940	-10,148	247,585	115,649
183,954	-10,210	247,494	115,544
184,969	-9,855	247,310	115,744
185,983	-10,143	247,342	115,508
186,998	-9,844	247,148	115,657
188,013	-10,122	246,812	115,258
189,027	-9,937	246,590	115,297
190,042	-9,960	246,489	115,221
191,056	-10,073	246,274	115,017
192,071	-9,973	246,111	115,013
193,086	-9,915	245,911	114,957
194,100	-10,151	246,002	114,794
195,115	-10,051	245,596	114,677
196,129	-10,080	245,343	114,525
197,144	-9,936	245,206	114,569
198,159	-10,044	245,076	114,409
199,173	-9,949	244,920	114,405
200,188	-10,060	244,761	114,229
201,202	-10,384	244,436	113,800
202,217	-10,561	244,188	113,529
203,232	-10,603	244,060	113,425
204,246	-10,128	243,955	113,756
205,261	-9,938	243,659	113,764
206,275	-10,973	243,278	112,728
207,290	-7,463	244,984	116,400
208,304	0,372	247,371	124,022
209,319	3,952	248,226	127,409
210,334	4,631	248,249	127,972
211,348	4,741	248,214	128,033
212,363	4,979	248,050	128,134
213,377	4,990	247,901	128,055
214,392	4,846	247,798	127,871
215,407	4,753	247,679	127,722
216,421	4,634	247,506	127,522
217,436	4,833	247,318	127,579
218,450	4,966	247,325	127,681
219,465	4,938	246,781	127,365
220,480	4,613	246,692	127,041
221,494	4,410	246,596	126,813
222,509	4,614	246,334	126,834
223,523	4,331	246,231	126,538
224,538	4,352	245,868	126,357
225,553	4,177	245,810	126,173
226,567	4,510	245,542	126,297
227,582	4,467	245,573	126,267
228,596	4,468	245,404	126,169
229,611	4,074	245,119	125,690
230,626	4,096	244,882	125,574
231,640	4,196	244,875	125,642
232,655	4,270	244,703	125,603
233,669	4,214	244,402	125,391
234,684	3,939	244,250	125,078
235,699	4,532	244,133	125,489
236,713	4,496	244,137	125,451
237,728	4,420	243,761	125,185
238,742	4,217	243,562	124,907
239,757	4,260	243,319	124,806
240,772	4,107	243,321	124,672
241,786	4,202	243,282	124,718
242,801	3,861	243,050	124,312
243,815	4,092	242,924	124,423
244,830	4,261	242,848	124,510
245,844	4,360	242,585	124,443
246,859	4,268	242,338	124,231
247,874	4,144	242,150	124,024
248,888	4,246	242,198	124,120
249,903	4,178	242,110	124,009
250,917	4,348	242,019	124,088
251,932	4,569	241,744	124,113
252,947	4,346	241,689	123,896
253,961	4,358	241,141	123,613
254,976	4,238	241,292	123,583
255,990	4,322	241,117	123,549
257,005	4,150	240,866	123,272
258,020	4,070	240,676	123,100
259,034	4,166	240,566	123,109
260,049	4,166	240,367	122,997
261,063	4,182	240,160	122,893
262,078	4,090	239,961	122,707
263,093	4,337	240,070	122,948
264,107	4,321	239,811	122,792
265,122	4,153	239,587	122,533
266,136	4,441	239,408	122,659
267,151	4,496	239,387	122,681
268,166	4,118	239,251	122,300
269,180	4,073	238,887	122,068
270,195	4,593	238,948	122,500
271,209	4,905	238,962	122,743
272,224	4,500	238,571	122,211
273,239	4,131	238,287	121,763
274,253	4,016	238,271	121,654
275,268	4,286	238,035	121,735
276,282	4,377	238,012	121,785
277,297	4,071	237,767	121,407
278,312	4,078	237,625	121,329
279,326	4,265	237,575	121,440
280,341	4,365	237,390	121,414
281,355	4,204	237,346	121,253
282,370	4,529	237,110	121,377
283,384	4,389	236,919	121,159
284,399	4,113	236,651	120,795
285,414	4,091	236,446	120,662
286,428	4,032	236,346	120,554
287,443	4,145	236,351	120,634
288,457	4,320	236,160	120,662
289,472	4,369	236,051	120,635
290,487	4,378	235,873	120,540
291,501	4,064	235,724	120,208
292,516	3,922	235,343	119,893
293,530	3,836	235,374	119,830
294,545	4,282	235,452	120,208
295,560	4,184	235,191	119,987
296,574	3,853	234,852	119,546
297,589	4,231	234,825	119,815
298,603	4,529	234,649	119,946
299,618	4,311	234,597	119,740
300,633	4,256	234,538	119,656
301,647	4,465	234,287	119,680
302,662	4,653	234,152	119,745
303,676	4,678	234,087	119,721
304,691	4,613	233,854	119,540
305,706	4,545	233,769	119,434
306,720	4,786	233,632	119,540
307,735	4,476	233,434	119,189
308,749	4,380	233,158	118,963
309,764	4,185	233,115	118,780
310,779	3,874	232,923	118,432
311,793	3,953	232,545	118,290
312,808	3,996	232,428	118,254
313,822	3,803	232,361	118,061
314,837	3,829	232,248	118,012
315,852	3,829	231,911	117,830
316,866	4,256	231,779	118,080
317,881	4,584	232,011	118,439
318,895	4,805	231,796	118,488
319,910	4,759	231,622	118,353
320,925	4,171	231,402	117,781
321,939	4,085	230,991	117,495
322,954	3,971	231,104	117,455
323,968	4,308	231,030	117,664
324,983	4,462	230,893	117,701
325,997	4,645	230,773	117,769
327,012	4,536	230,540	117,557
328,027	4,558	230,355	117,469
329,041	4,788	230,341	117,626
330,056	4,913	230,443	117,763
331,070	5,040	230,245	117,748
332,085	4,651	229,964	117,299
333,100	4,499	229,732	117,054
334,114	4,269	229,546	116,775
335,129	4,623	229,522	117,020
336,143	4,704	229,449	117,034
337,158	4,523	229,230	116,775
338,173	4,456	229,022	116,608
339,187	4,336	228,798	116,393
340,202	4,324	228,801	116,375
341,216	4,361	228,544	116,262
342,231	4,315	228,368	116,128
343,246	4,447	228,259	116,161
344,260	4,265	228,083	115,924
345,275	4,525	228,039	116,087
346,289	4,497	227,901	115,985
347,304	4,651	227,820	116,049
348,319	4,833	227,574	116,051
349,333	4,461	227,393	115,669
350,348	4,205	227,180	115,359
351,362	4,307	227,171	115,420
352,377	4,198	226,927	115,205
353,392	3,871	226,544	114,755
354,406	4,013	226,563	114,861
355,421	194,494	1320,799	1394,394
356,435	155,879	1454,114	1394,384
