DTS Sentinel unit serial number:	SN410029Multiplexer serial number:	ORYXHardware model number:	OX2-SRSoftware version number:	ORYX F/W v4,00 Oryx Data Collector v3.7.2.0data status	okinstallation	B5 Nyhavnadifferential loss correction	single-endedforward channel	channel 2reverse channel	N/Adate	2023/12/14time	05:07:13forward acquisition time	300,00reverse acquisition time	0,00gamma	499,1914k internal	0,3156k external	0,3156temperature offset calibration	1,0000default loss term (dB/km)	0,3820temperature slope calibration	1,0000multiplexer offset coefficient	1,0000multiplexer slope coefficient	1,0000fibre end	0,00T internal ref (°C)	7,82T ext. ref 1 (°C)	-8,74T ext. ref 2 (°C)	-8,84length (m)	temperature (°C)	Stokes	anti-Stokes-744,400	123,042	0,074	0,068
-743,385	-142,762	-0,273	-0,019
-742,371	-175,760	0,309	0,006
-741,356	-65,988	-0,395	-0,115
-740,342	-11,129	0,173	0,084
-739,327	-116,448	-0,515	-0,069
-738,312	-126,023	0,164	0,018
-737,298	-105,553	-0,581	-0,096
-736,283	84,402	0,019	-0,015
-735,269	-149,983	-0,309	0,017
-734,254	-112,410	0,219	0,032
-733,239	-69,916	-0,600	-0,168
-732,225	-77,483	0,253	0,064
-731,210	-94,971	-0,189	0,037
-730,196	800,000	-0,028	-0,058
-729,181	-200,000	-0,011	0,201
-728,167	800,000	-0,049	0,153
-727,152	328,508	0,031	-0,044
-726,137	800,000	-0,022	0,055
-725,123	-200,000	-0,002	-0,069
-724,108	276,587	-0,095	-0,125
-723,094	60,216	-0,056	-0,041
-722,079	-67,603	-0,165	-0,047
-721,064	-200,000	0,029	0,099
-720,050	800,000	-0,042	0,112
-719,035	-10,076	-0,164	-0,080
-718,021	-200,000	0,040	-0,166
-717,006	388,905	-0,015	-0,022
-715,991	27,172	-0,146	-0,090
-714,977	-200,000	0,026	-0,157
-713,962	580,204	0,109	-0,198
-712,948	177,594	0,087	-0,093
-711,933	-75,213	-0,116	0,030
-710,918	-200,000	0,004	0,039
-709,904	228,487	-0,065	-0,078
-708,889	800,000	-0,014	-0,031
-707,875	-44,724	-0,076	-0,028
-706,860	-106,582	0,060	-0,010
-705,845	800,000	0,039	-0,082
-704,831	502,300	0,021	-0,036
-703,816	108,546	-0,164	0,144
-702,802	-200,000	-0,025	-0,135
-701,787	-80,892	-0,113	-0,027
-700,772	33,980	-0,067	-0,043
-699,758	24,935	-0,058	0,035
-698,743	-76,261	-0,068	0,018
-697,729	39,808	0,034	0,023
-696,714	-200,000	-0,007	-0,146
-695,699	38,797	-0,035	-0,023
-694,685	111,596	-0,093	-0,082
-693,670	8,808	-0,050	-0,028
-692,656	133,378	-0,076	0,072
-691,641	-100,646	0,129	0,023
-690,627	-76,609	0,021	-0,005
-689,612	-53,184	-0,064	0,022
-688,597	57,063	-0,070	0,050
-687,583	-200,000	0,006	-0,073
-686,568	-200,000	0,007	0,056
-685,554	-200,000	0,019	0,076
-684,539	99,820	-0,020	-0,017
-683,524	56,034	-0,057	-0,041
-682,510	-126,806	0,059	-0,006
-681,495	-200,000	0,020	-0,112
-680,481	-200,000	-0,010	-0,152
-679,466	800,000	-0,055	-0,139
-678,451	-73,251	-0,087	0,023
-677,437	-104,208	-0,044	-0,007
-676,422	341,673	0,090	0,130
-675,408	-200,000	-0,021	0,076
-674,393	501,939	0,010	-0,016
-673,378	139,601	0,069	-0,067
-672,364	18,958	-0,082	-0,048
-671,349	25,290	-0,121	0,074
-670,335	-118,854	0,174	-0,022
-669,320	-159,789	0,159	-0,006
-668,305	463,369	-0,061	0,100
-667,291	125,899	0,073	-0,068
-666,276	800,000	-0,024	0,072
-665,262	2,620	-0,076	-0,040
-664,247	423,208	-0,086	-0,137
-663,232	-167,934	0,074	0,002
-662,218	673,797	0,031	-0,060
-661,203	-118,184	-0,097	0,013
-660,189	-68,761	0,086	-0,024
-659,174	-200,000	0,008	0,046
-658,159	-168,382	0,074	0,002
-657,145	-137,053	-0,036	0,003
-656,130	-200,000	-0,004	0,093
-655,116	-122,865	-0,145	-0,017
-654,101	218,118	0,038	-0,045
-653,086	466,741	-0,015	-0,025
-652,072	-4,235	-0,047	-0,024
-651,057	429,334	0,075	-0,119
-650,043	-8,012	0,070	0,034
-649,028	800,000	-0,001	0,003
-648,014	-22,781	0,121	-0,053
-646,999	63,030	-0,068	0,050
-645,984	-146,882	-0,029	-0,002
-644,970	-71,822	-0,078	0,021
-643,955	800,000	-0,062	-0,189
-642,941	53,591	-0,089	-0,062
-641,926	436,727	0,024	0,038
-640,911	0,933	-0,115	-0,060
-639,897	-1,824	0,035	0,018
-638,882	-200,000	-0,009	-0,045
-637,868	-98,432	-0,016	-0,003
-636,853	-200,000	0,003	0,053
-635,838	323,954	-0,042	-0,058
-634,824	584,816	0,058	-0,105
-633,809	-200,000	0,018	-0,081
-632,795	-51,711	-0,095	-0,032
-631,780	56,599	0,130	0,093
-630,765	-69,571	0,150	0,042
-629,751	800,000	0,031	-0,090
-628,736	498,043	-0,069	-0,117
-627,722	-200,000	-0,011	0,140
-626,707	110,170	0,046	0,040
-625,692	-200,000	-0,022	0,082
-624,678	-60,206	0,078	0,024
-623,663	-34,379	-0,073	-0,029
-622,649	175,493	0,141	-0,150
-621,634	-156,763	-0,117	0,005
-620,619	-200,000	0,032	-0,126
-619,605	800,000	0,032	0,076
-618,590	639,725	0,102	-0,191
-617,576	-200,000	-0,009	-0,079
-616,561	-200,000	0,006	0,035
-615,546	-200,000	-0,007	-0,038
-614,532	-41,292	0,130	-0,049
-613,517	-58,740	0,035	-0,011
-612,503	92,899	-0,085	-0,070
-611,488	288,639	0,051	0,068
-610,474	-200,000	0,020	-0,097
-609,459	-196,379	0,045	0,000
-608,444	-90,734	-0,141	0,030
-607,430	103,463	-0,105	-0,091
-606,415	-1,128	-0,100	0,051
-605,401	-200,000	-0,004	-0,042
-604,386	-95,982	0,095	0,018
-603,371	-180,326	-0,101	0,002
-602,357	258,042	0,063	0,080
-601,342	323,174	-0,027	-0,038
-600,328	208,533	-0,086	-0,098
-599,313	-200,000	0,015	-0,075
-598,298	-35,626	0,089	0,035
-597,284	272,914	0,077	-0,100
-596,269	115,461	-0,095	-0,085
-595,255	800,000	-0,017	0,052
-594,240	175,363	-0,046	-0,049
-593,225	71,380	0,028	-0,021
-592,211	159,353	-0,136	-0,138
-591,196	185,398	0,082	-0,089
-590,182	-200,000	0,040	0,156
-589,167	602,435	-0,041	0,074
-588,152	-164,199	0,038	-0,001
-587,138	-24,494	-0,069	0,030
-586,123	410,669	0,031	-0,049
-585,109	238,304	-0,017	-0,021
-584,094	-200,000	0,025	-0,108
-583,079	50,018	-0,117	0,080
-582,065	-142,662	0,097	-0,007
-581,050	800,000	0,050	-0,137
-580,036	-200,000	0,010	-0,152
-579,021	-4,584	-0,150	-0,076
-578,006	41,897	-0,092	-0,061
-576,992	405,586	-0,038	0,058
-575,977	-200,000	0,024	0,100
-574,963	-87,632	0,142	0,031
-573,948	-94,766	0,062	0,012
-572,934	583,228	0,047	0,086
-571,919	441,831	-0,021	-0,033
-570,904	-153,691	-0,085	-0,004
-569,890	-75,923	-0,048	0,012
-568,875	-200,000	0,002	0,079
-567,861	-12,029	-0,053	-0,025
-566,846	12,040	-0,084	0,047
-565,831	800,000	0,066	0,190
-564,817	-139,801	-0,202	-0,015
-563,802	-200,000	-0,014	-0,178
-562,788	117,222	-0,066	0,059
-561,773	-200,000	0,031	0,145
-560,758	595,883	0,030	0,054
-559,744	800,000	-0,046	0,112
-558,729	248,069	0,019	-0,024
-557,715	-54,665	-0,020	0,007
-556,700	-139,432	-0,124	-0,010
-555,685	-3,318	-0,021	0,011
-554,671	-200,000	-0,001	0,117
-553,656	-200,000	0,016	0,127
-552,642	138,582	-0,050	0,048
-551,627	-141,086	0,033	0,002
-550,612	584,155	0,043	-0,077
-549,598	-200,000	0,017	-0,062
-548,583	165,641	-0,072	-0,075
-547,569	-57,504	-0,083	-0,027
-546,554	4,736	-0,072	-0,039
-545,539	-200,000	0,002	0,049
-544,525	-200,000	0,004	0,124
-543,510	97,160	-0,120	0,100
-542,496	139,923	0,056	-0,054
-541,481	60,822	-0,134	-0,097
-540,466	-48,594	0,100	-0,035
-539,452	-53,854	0,078	-0,026
-538,437	-15,657	0,066	0,031
-537,423	-200,000	0,005	0,061
-536,408	9,217	-0,062	-0,034
-535,393	665,350	-0,010	0,019
-534,379	-116,180	-0,070	0,009
-533,364	365,236	-0,144	-0,213
-532,350	-32,229	-0,119	-0,048
-531,335	305,834	0,054	0,073
-530,321	-200,000	0,055	0,200
-529,306	511,480	-0,037	-0,064
-528,291	696,369	0,013	-0,024
-527,277	779,347	0,016	0,033
-526,262	800,000	0,047	0,107
-525,248	-200,000	0,018	-0,081
-524,233	52,851	-0,038	0,026
-523,218	800,000	0,032	-0,068
-522,204	-200,000	0,022	-0,095
-521,189	4,894	-0,084	0,045
-520,175	-75,849	0,132	-0,034
-519,160	800,000	-0,033	0,090
-518,145	-77,816	0,035	-0,009
-517,131	-59,068	0,105	-0,033
-516,116	276,689	-0,090	0,117
-515,102	2,208	0,091	-0,048
-514,087	-16,308	-0,117	-0,054
-513,072	-21,966	-0,094	0,042
-512,058	-100,651	-0,137	-0,024
-511,043	32,465	-0,075	0,047
-510,029	-15,935	0,165	0,077
-509,014	356,527	-0,045	0,065
-507,999	800,000	-0,027	-0,057
-506,985	204,685	-0,229	-0,260
-505,970	133,282	0,080	-0,076
-504,956	11,566	0,182	-0,101
-503,941	-200,000	0,003	-0,013
-502,926	120,436	-0,022	-0,020
-501,912	149,665	0,047	0,047
-500,897	480,432	-0,057	0,095
-499,883	301,898	-0,090	0,122
-498,868	-3,308	0,145	0,073
-497,853	608,791	0,037	0,068
-496,839	-200,000	-0,018	0,100
-495,824	-56,342	0,071	-0,023
-494,810	59,911	0,086	0,062
-493,795	800,000	-0,048	0,099
-492,781	182,212	-0,086	0,093
-491,766	800,000	0,045	-0,123
-490,751	52,658	-0,082	0,057
-489,737	266,517	0,013	0,016
-488,722	-22,637	-0,021	0,009
-487,708	4,368	0,116	0,062
-486,693	187,716	0,082	-0,089
-485,678	800,000	-0,025	-0,054
-484,664	-200,000	0,023	-0,158
-483,649	-200,000	0,005	0,033
-482,635	53,611	-0,079	0,055
-481,620	800,000	-0,026	0,068
-480,605	-200,000	-0,020	0,080
-479,591	301,827	0,027	-0,036
-478,576	-200,000	0,006	0,042
-477,562	-200,000	0,003	0,053
-476,547	-6,618	-0,156	0,077
-475,532	-57,917	0,048	0,015
-474,518	-106,270	-0,034	0,006
-473,503	800,000	0,044	0,133
-472,489	-200,000	-0,005	0,135
-471,474	-200,000	-0,014	0,138
-470,459	-132,926	-0,220	-0,020
-469,445	800,000	0,016	-0,040
-468,430	-82,634	-0,030	-0,007
-467,416	222,400	0,078	0,091
-466,401	800,000	0,047	-0,114
-465,386	10,131	0,055	-0,030
-464,372	-200,000	-0,021	0,174
-463,357	800,000	-0,115	0,327
-462,343	-200,000	-0,009	-0,062
-461,328	-119,665	0,105	-0,013
-460,313	800,000	-0,017	0,053
-459,299	-101,151	-0,060	-0,011
-458,284	800,000	-0,031	0,077
-457,270	800,000	0,015	0,047
-456,255	-59,775	0,110	0,034
-455,241	45,824	-0,034	-0,023
-454,226	17,489	0,180	-0,104
-453,211	53,240	0,115	0,080
-452,197	-60,564	0,089	0,027
-451,182	-79,824	0,140	0,034
-450,168	-200,000	0,025	0,176
-449,153	82,495	0,092	0,073
-448,138	733,502	-0,037	0,073
-447,124	159,712	-0,116	-0,118
-446,109	116,110	0,054	-0,048
-445,095	800,000	0,046	0,141
-444,080	-200,000	-0,010	0,060
-443,065	57,309	-0,031	-0,022
-442,051	24,557	0,056	0,034
-441,036	-32,485	0,044	0,018
-440,022	63,871	-0,004	0,003
-439,007	-200,000	0,006	-0,063
-437,992	227,941	0,097	0,116
-436,978	-114,006	0,075	-0,010
-435,963	800,000	-0,028	0,076
-434,949	320,560	-0,027	-0,038
-433,934	69,640	-0,076	0,057
-432,919	-33,596	0,103	0,041
-431,905	800,000	0,013	0,027
-430,890	-23,548	0,079	0,034
-429,876	554,835	-0,031	0,054
-428,861	7,627	0,068	-0,037
-427,846	-96,454	-0,039	0,007
-426,832	5,357	-0,047	-0,025
-425,817	268,496	-0,046	0,059
-424,803	-165,104	0,027	-0,001
-423,788	-4,002	0,087	0,044
-422,773	-98,124	0,069	0,013
-421,759	-131,959	0,097	0,009
-420,744	54,658	-0,086	-0,061
-419,730	-136,402	-0,080	-0,007
-418,715	72,403	-0,076	0,058
-417,701	159,608	0,098	-0,099
-416,686	-200,000	0,015	0,095
-415,671	-200,000	0,000	0,042
-414,657	800,000	-0,012	0,029
-413,642	157,172	0,055	0,055
-412,628	-200,000	-0,003	-0,194
-411,613	111,703	0,108	0,095
-410,598	58,103	-0,125	-0,089
-409,584	141,300	-0,018	-0,017
-408,569	-102,379	0,170	0,029
-407,555	800,000	-0,078	0,160
-406,540	160,439	0,118	0,120
-405,525	-200,000	-0,010	-0,097
-404,511	219,044	-0,133	-0,155
-403,496	-22,004	-0,092	-0,040
-402,482	-200,000	0,010	0,053
-401,467	-100,384	0,084	0,015
-400,452	588,905	-0,063	0,114
-399,438	114,943	-0,124	-0,110
-398,423	182,827	0,093	-0,100
-397,409	800,000	0,046	-0,130
-396,394	683,775	-0,063	-0,121
-395,379	-200,000	-0,016	-0,054
-394,365	-68,741	-0,090	-0,025
-393,350	664,971	0,019	-0,037
-392,336	139,455	-0,049	-0,047
-391,321	-73,461	-0,158	-0,042
-390,306	-200,000	-0,011	-0,092
-389,292	0,794	-0,097	-0,051
-388,277	273,809	0,116	0,150
-387,263	300,577	0,058	0,078
-386,248	221,130	0,167	-0,195
-385,233	800,000	-0,040	0,096
-384,219	800,000	-0,005	-0,015
-383,204	-5,519	0,084	-0,042
-382,190	-200,000	0,016	0,062
-381,175	56,528	0,057	0,041
-380,160	432,537	-0,037	-0,059
-379,146	-33,331	0,093	0,037
-378,131	580,816	0,076	0,137
-377,117	20,609	0,083	0,049
-376,102	-25,466	-0,034	-0,015
-375,088	-200,000	-0,013	0,054
-374,073	10,303	-0,068	0,038
-373,058	-2,711	0,130	0,066
-372,044	-34,578	0,132	-0,052
-371,029	90,186	0,062	-0,050
-370,015	-91,667	-0,168	0,034
-369,000	-115,465	-0,099	-0,013
-367,985	15,718	-0,072	-0,041
-366,971	-200,000	0,020	-0,090
-365,956	59,717	-0,076	-0,054
-364,942	461,208	-0,031	0,051
-363,927	107,018	0,084	0,073
-362,912	-33,928	0,115	-0,046
-361,898	103,076	-0,081	0,069
-360,883	-156,931	0,063	0,003
-359,869	-121,399	-0,079	-0,010
-358,854	349,312	-0,044	0,063
-357,839	66,540	-0,062	-0,046
-356,825	-84,899	0,112	0,025
-355,810	-100,544	0,141	-0,025
-354,796	420,568	0,051	-0,080
-353,781	-63,961	-0,141	0,041
-352,766	253,301	0,043	0,053
-351,752	-16,248	-0,056	0,026
-350,737	-200,000	0,018	0,092
-349,723	-20,290	0,140	-0,063
-348,708	-39,843	-0,136	-0,051
-347,693	0,609	0,073	0,038
-346,679	-81,459	0,128	0,030
-345,664	-104,946	-0,029	-0,005
-344,650	800,000	0,021	0,048
-343,635	-200,000	0,000	-0,019
-342,620	-200,000	-0,001	0,052
-341,606	122,869	-0,031	0,028
-340,591	-153,092	0,070	-0,004
-339,577	296,787	0,033	0,044
-338,562	-200,000	0,009	-0,112
-337,548	-200,000	0,008	-0,149
-336,533	-34,397	-0,094	-0,037
-335,518	-99,893	0,010	0,002
-334,504	-200,000	-0,041	0,156
-333,489	-11,416	-0,105	0,050
-332,475	428,809	-0,023	-0,036
-331,460	-200,000	-0,002	-0,022
-330,445	800,000	-0,024	-0,050
-329,431	-8,457	0,043	0,021
-328,416	800,000	-0,034	0,091
-327,402	75,953	0,082	0,063
-326,387	166,697	0,076	0,078
-325,372	-200,000	0,031	-0,104
-324,358	800,000	-0,041	-0,117
-323,343	194,908	0,094	0,103
-322,329	10,753	0,136	0,075
-321,314	10,335	-0,131	0,072
-320,299	-16,883	-0,082	0,037
-319,285	-59,413	-0,046	-0,014
-318,270	263,329	0,035	-0,045
-317,256	78,373	0,058	-0,045
-316,241	202,956	-0,046	-0,052
-315,226	-200,000	0,024	0,102
-314,212	-4,146	0,062	-0,031
-313,197	-200,000	-0,002	-0,126
-312,183	-84,871	0,021	0,005
-311,168	-66,896	-0,082	0,023
-310,153	-124,367	0,057	-0,006
-309,139	800,000	-0,034	0,078
-308,124	-18,061	0,144	0,065
-307,110	-200,000	0,007	-0,066
-306,095	527,027	0,065	0,111
-305,080	124,047	-0,086	0,078
-304,066	309,260	-0,084	-0,114
-303,051	126,805	0,129	-0,119
-302,037	246,944	-0,039	-0,048
-301,022	11,075	0,065	-0,036
-300,008	614,197	-0,006	-0,011
-298,993	-4,973	0,111	-0,055
-297,978	8,910	0,045	-0,025
-296,964	162,679	-0,067	0,068
-295,949	-114,255	-0,151	0,021
-294,935	-200,000	-0,010	-0,108
-293,920	800,000	-0,012	-0,025
-292,905	-200,000	-0,015	-0,127
-291,891	-118,060	-0,061	0,008
-290,876	800,000	0,028	0,083
-289,862	-95,684	0,156	-0,030
-288,847	12,438	-0,075	-0,042
-287,832	-35,845	0,069	0,027
-286,818	-200,000	-0,012	-0,132
-285,803	-35,094	0,058	0,023
-284,789	169,778	-0,030	-0,031
-283,774	237,083	0,010	0,012
-282,759	-68,972	-0,070	0,019
-281,745	-121,141	-0,075	-0,009
-280,730	199,344	-0,062	-0,069
-279,716	497,257	-0,053	-0,089
-278,701	-190,825	-0,073	0,001
-277,686	595,919	0,033	0,060
-276,672	-200,000	-0,015	-0,061
-275,657	-50,963	-0,062	-0,021
-274,643	30,140	-0,062	-0,038
-273,628	409,844	0,050	0,077
-272,613	262,366	-0,070	0,088
-271,599	-92,510	0,126	-0,025
-270,584	-51,230	0,113	0,038
-269,570	-200,000	0,001	0,124
-268,555	-200,000	-0,022	0,117
-267,540	-54,053	0,088	0,029
-266,526	233,235	0,046	-0,055
-265,511	-200,000	0,003	0,019
-264,497	-200,000	0,034	-0,199
-263,482	-175,005	0,062	0,001
-262,467	-99,700	0,038	0,007
-261,453	-200,000	0,005	0,041
-260,438	-99,596	0,107	-0,019
-259,424	0,799	-0,106	-0,055
-258,409	253,444	-0,059	0,072
-257,395	800,000	0,020	0,049
-256,380	-200,000	-0,014	-0,061
-255,365	-200,000	0,006	-0,038
-254,351	-61,832	0,076	0,023
-253,336	800,000	-0,016	0,039
-252,322	-86,689	-0,069	-0,015
-251,307	-141,055	0,085	-0,006
-250,292	-154,537	0,075	0,004
-249,278	239,118	0,092	-0,111
-248,263	-23,891	0,084	0,036
-247,249	49,703	-0,050	0,034
-246,234	-65,875	-0,164	-0,047
-245,219	385,613	0,090	-0,135
-244,205	-200,000	-0,013	-0,081
-243,190	-119,716	-0,062	0,008
-242,176	800,000	0,050	-0,107
-241,161	800,000	-0,064	0,141
-240,146	-141,566	0,069	0,005
-239,132	186,448	-0,052	-0,056
-238,117	323,789	0,055	-0,076
-237,103	800,000	0,021	-0,053
-236,088	-135,157	0,072	0,006
-235,073	133,257	-0,055	0,051
-234,059	800,000	0,027	0,062
-233,044	-200,000	0,032	0,122
-232,030	-200,000	0,002	0,123
-231,015	81,441	-0,159	0,124
-230,000	57,189	-0,095	-0,067
-228,986	137,244	0,067	-0,064
-227,971	800,000	-0,036	-0,102
-226,957	-55,196	0,110	0,035
-225,942	-0,864	0,110	-0,056
-224,927	-111,275	-0,113	-0,016
-223,913	46,820	-0,059	0,040
-222,898	-200,000	-0,010	-0,120
-221,884	-200,000	0,011	-0,066
-220,869	-49,898	-0,081	-0,028
-219,855	-200,000	-0,030	0,256
-218,840	40,072	-0,027	0,018
-217,825	800,000	-0,061	-0,138
-216,811	-200,000	-0,040	0,156
-215,796	-200,000	0,014	0,094
-214,782	103,195	0,125	-0,105
-213,767	-200,000	-0,013	-0,085
-212,752	46,669	-0,021	-0,014
-211,738	800,000	0,041	0,127
-210,723	800,000	-0,038	-0,101
-209,709	-150,547	-0,070	0,004
-208,694	507,697	0,026	0,044
-207,679	-200,000	0,010	0,083
-206,665	800,000	0,033	0,072
-205,650	-200,000	0,007	-0,196
-204,636	-129,646	-0,077	0,008
-203,621	-200,000	0,012	0,042
-202,606	-34,743	0,057	0,023
-201,592	-0,161	-0,009	0,005
-200,577	800,000	-0,039	-0,078
-199,563	144,073	-0,083	0,080
-198,548	-11,181	0,134	-0,064
-197,533	4,492	-0,102	0,054
-196,519	728,950	0,047	-0,091
-195,504	210,966	-0,035	0,040
-194,490	383,571	-0,160	-0,238
-193,475	-200,000	-0,019	-0,087
-192,460	-74,000	-0,087	0,023
-191,446	800,000	0,015	0,038
-190,431	178,060	0,066	0,069
-189,417	-42,989	0,027	0,010
-188,402	-173,350	-0,064	-0,001
-187,387	430,017	0,027	-0,043
-186,373	175,679	-0,113	-0,119
-185,358	-200,000	0,018	-0,140
-184,344	349,134	0,055	-0,079
-183,329	254,001	-0,049	0,060
-182,315	800,000	-0,026	0,062
-181,300	-200,000	0,005	0,039
-180,285	-122,753	-0,052	0,006
-179,271	-200,000	0,009	0,051
-178,256	308,842	-0,022	-0,030
-177,242	404,378	0,021	-0,032
-176,227	800,000	0,020	0,051
-175,212	-83,460	-0,066	0,015
-174,198	800,000	-0,054	0,123
-173,183	462,840	0,055	-0,088
-172,169	-135,158	-0,103	-0,009
-171,154	129,573	0,114	-0,105
-170,139	-34,063	-0,037	-0,014
-169,125	-90,811	0,060	0,012
-168,110	87,099	0,079	-0,063
-167,096	-137,318	-0,157	0,013
-166,081	163,557	0,073	-0,074
-165,066	-200,000	-0,007	-0,021
-164,052	800,000	-0,032	-0,077
-163,037	5,573	0,015	-0,008
-162,023	800,000	-0,021	0,052
-161,008	-21,162	0,050	0,022
-159,993	741,097	0,035	-0,067
-158,979	-148,499	0,082	-0,005
-157,964	43,971	-0,106	-0,070
-156,950	800,000	0,024	-0,060
-155,935	800,000	-0,030	-0,067
-154,920	800,000	0,056	0,171
-153,906	114,113	0,197	0,172
-152,891	6,597	-0,076	-0,040
-151,877	-200,000	-0,018	-0,106
-150,862	40,949	0,059	0,038
-149,847	-128,091	-0,112	-0,011
-148,833	-33,563	0,040	-0,016
-147,818	-200,000	-0,009	-0,039
-146,804	20,195	0,048	-0,028
-145,789	-103,568	-0,043	-0,007
-144,775	316,572	0,099	-0,135
-143,760	-200,000	0,025	-0,137
-142,745	-200,000	0,014	-0,200
-141,731	-200,000	-0,000	0,045
-140,716	466,863	0,024	-0,038
-139,702	-89,539	-0,158	0,033
-138,687	3,013	0,049	0,026
-137,672	-200,000	0,002	-0,018
-136,658	-200,000	0,041	0,234
-135,643	-110,800	-0,077	0,011
-134,629	145,523	0,075	-0,072
-133,614	-87,596	0,057	0,012
-132,599	-181,707	0,048	0,001
-131,585	-69,168	0,048	0,013
-130,570	-149,930	-0,055	-0,003
-129,556	-200,000	-0,024	-0,098
-128,541	127,118	-0,055	0,050
-127,526	101,310	-0,063	-0,053
-126,512	239,579	0,068	-0,081
-125,497	-106,485	-0,099	0,016
-124,483	-200,000	0,002	-0,094
-123,468	-98,100	-0,098	0,018
-122,453	-18,667	-0,124	-0,056
-121,439	24,023	-0,031	0,018
-120,424	-56,539	0,025	-0,008
-119,410	169,055	-0,093	0,095
-118,395	-200,000	-0,030	-0,098
-117,380	151,828	-0,070	-0,069
-116,366	-200,000	-0,004	0,059
-115,351	800,000	-0,068	-0,154
-114,337	79,717	-0,115	-0,089
-113,322	-200,000	0,012	-0,044
-112,307	-200,000	-0,001	0,091
-111,293	800,000	0,063	0,145
-110,278	-200,000	0,020	0,157
-109,264	218,264	-0,019	-0,022
-108,249	429,479	0,021	0,033
-107,234	-200,000	-0,012	-0,162
-106,220	78,328	-0,085	-0,065
-105,205	358,148	-0,031	-0,045
-104,191	-200,000	0,010	-0,058
-103,176	48,689	-0,108	0,073
-102,162	12,775	0,149	0,083
-101,147	-200,000	0,002	-0,042
-100,132	98,644	-0,083	-0,069
-99,118	796,452	-0,042	-0,084
-98,103	800,000	0,009	-0,023
-97,089	39,582	0,088	0,057
-96,074	121,128	0,113	0,102
-95,059	800,000	0,050	0,103
-94,045	-142,083	-0,066	0,005
-93,030	-200,000	0,009	-0,061
-92,016	-200,000	0,005	0,059
-91,001	10,892	0,049	0,027
-89,986	-92,094	0,101	0,020
-88,972	-200,000	-0,001	-0,133
-87,957	171,478	0,062	-0,064
-86,943	540,520	-0,040	-0,068
-85,928	584,001	0,038	-0,068
-84,913	249,026	-0,035	-0,043
-83,899	47,790	-0,112	-0,075
-82,884	-99,145	0,112	-0,020
-81,870	396,739	-0,021	0,031
-80,855	800,000	0,053	0,143
-79,840	-42,208	0,055	0,020
-78,826	-74,074	-0,079	-0,020
-77,811	83,408	-0,057	0,045
-76,797	-27,641	0,147	-0,061
-75,782	-200,000	-0,022	-0,074
-74,767	-200,000	-0,016	0,061
-73,753	-46,062	0,159	0,056
-72,738	118,766	0,091	0,081
-71,724	-200,000	-0,007	0,037
-70,709	-200,000	0,008	-0,034
-69,694	800,000	-0,022	0,052
-68,680	-139,908	0,090	-0,007
-67,665	11,916	0,113	-0,062
-66,651	-37,909	0,052	0,020
-65,636	-6,128	0,035	-0,017
-64,622	-163,248	-0,107	0,004
-63,607	174,804	0,080	-0,083
-62,592	-187,609	0,098	0,001
-61,578	383,590	0,035	0,052
-60,563	-63,531	0,140	-0,041
-59,549	-99,095	-0,092	-0,017
-58,534	83,969	-2,671	-2,093
-57,519	-12,540	0,535	-0,250
-56,505	-200,000	-1,667	-5,380
-55,490	332,174	1,295	1,800
-54,476	800,000	5,222	11,208
-53,461	-200,000	22,353	348,031
-52,446	800,000	760,377	2292,805
-51,432	512,710	1644,462	2761,521
-50,417	96,669	1606,759	1320,407
-49,403	64,449	1263,823	913,013
-48,388	22,809	1016,355	596,305
-47,373	19,431	983,630	565,952
-46,359	12,778	970,931	536,880
-45,344	8,481	967,746	521,035
-44,330	8,916	965,481	521,215
-43,315	7,912	963,927	517,077
-42,300	7,882	962,664	516,281
-41,286	7,839	961,658	515,583
-40,271	7,951	960,569	515,343
-39,257	7,870	959,754	514,622
-38,242	7,875	958,866	514,140
-37,227	7,826	958,206	513,608
-36,213	7,844	957,374	513,199
-35,198	7,824	956,499	512,644
-34,184	7,906	955,598	512,408
-33,169	7,874	954,695	511,798
-32,154	7,937	953,779	511,490
-31,140	7,915	952,768	510,858
-30,125	7,869	952,283	510,430
-29,111	7,850	951,412	509,882
-28,096	7,911	950,886	509,776
-27,082	7,894	950,071	509,263
-26,067	7,860	949,323	508,733
-25,052	7,828	948,593	508,217
-24,038	7,844	947,979	507,922
-23,023	7,803	947,214	507,360
-22,009	7,835	946,609	507,118
-20,994	7,870	945,860	506,809
-19,979	7,831	945,289	506,357
-18,965	7,867	944,681	506,128
-17,950	7,798	944,266	505,664
-16,936	7,789	943,305	505,099
-15,921	7,804	942,735	504,824
-14,906	7,757	941,959	504,237
-13,892	7,761	941,517	503,992
-12,877	7,721	940,817	503,470
-11,863	7,675	940,379	503,070
-10,848	7,702	939,757	502,804
-9,833	7,865	939,128	502,965
-8,819	7,779	938,626	502,405
-7,804	7,722	937,904	501,814
-6,790	7,760	937,435	501,664
-5,775	7,812	936,785	501,464
-4,760	7,715	936,155	500,799
-3,746	7,772	935,418	500,563
-2,731	7,596	934,898	499,709
-1,717	7,600	934,231	499,345
-0,702	7,621	933,413	498,956
0,313	7,416	932,880	498,777
1,327	10,922	930,590	508,552
2,342	19,634	778,605	448,296
3,356	14,600	446,671	249,598
4,371	-12,010	311,590	145,890
5,386	-15,635	293,934	133,958
6,400	-17,808	287,876	129,039
7,415	-17,897	285,277	127,775
8,429	-18,630	283,419	126,218
9,444	-18,667	282,622	125,817
10,459	-18,681	282,210	125,608
11,473	-18,738	281,449	125,203
12,488	-18,339	280,832	125,302
13,502	-18,594	280,513	124,903
14,517	-18,413	280,045	124,857
15,531	-18,578	279,662	124,518
16,546	-18,416	279,140	124,430
17,561	-18,389	278,933	124,352
18,575	-18,392	278,521	124,154
19,590	-18,244	278,054	124,076
20,604	-18,398	277,991	123,890
21,619	-18,339	277,573	123,749
22,634	-18,292	277,168	123,602
23,648	-18,236	276,865	123,509
24,663	-18,342	276,654	123,304
25,677	-18,376	276,307	123,105
26,692	-18,344	276,005	122,990
27,707	-18,210	275,880	123,051
28,721	-18,205	275,506	122,877
29,736	-18,285	275,288	122,694
30,750	-18,178	274,944	122,630
31,765	-18,411	274,769	122,322
32,780	-18,261	274,446	122,308
33,794	-18,215	274,246	122,251
34,809	-18,120	273,899	122,175
35,823	-18,229	273,797	122,016
36,838	-18,121	273,355	121,910
37,853	-18,099	273,165	121,835
38,867	-18,321	273,126	121,598
39,882	-18,180	272,725	121,541
40,896	-18,095	272,494	121,506
41,911	-18,068	272,255	121,414
42,926	-18,264	271,969	121,093
43,940	-18,200	271,743	121,041
44,955	-18,200	271,449	120,900
45,969	-18,057	271,251	120,933
46,984	-17,976	271,177	120,965
47,999	-18,177	271,081	120,725
49,013	-18,041	270,842	120,733
50,028	-17,973	270,464	120,617
51,042	-18,000	270,272	120,496
52,057	-18,100	270,216	120,368
53,071	-17,976	269,741	120,259
54,086	-17,983	269,600	120,179
55,101	-18,043	269,381	120,016
56,115	-18,166	269,313	119,862
57,130	-18,078	268,860	119,730
58,144	-18,298	268,527	119,369
59,159	-18,290	268,402	119,311
60,174	-18,402	268,024	119,029
61,188	-18,123	267,937	119,235
62,203	-18,175	267,650	119,050
63,217	-18,137	267,544	119,027
64,232	-18,175	267,232	118,842
65,247	-18,117	266,844	118,712
66,261	-18,260	266,711	118,512
67,276	-18,203	266,731	118,563
68,290	-18,121	266,358	118,461
69,305	-18,040	266,251	118,477
70,320	-18,013	265,910	118,338
71,334	-18,019	265,660	118,211
72,349	-18,105	265,391	118,003
73,363	-18,229	265,118	117,759
74,378	-18,229	264,992	117,692
75,393	-18,105	264,722	117,674
76,407	-18,120	264,478	117,541
77,422	-18,018	264,174	117,488
78,436	-18,215	263,948	117,200
79,451	-18,157	263,714	117,137
80,466	-18,258	263,602	116,986
81,480	-18,062	263,361	117,045
82,495	-18,095	263,153	116,913
83,509	-18,018	263,034	116,918
84,524	-18,083	262,888	116,784
85,539	-18,139	262,625	116,607
86,553	-18,089	262,538	116,603
87,568	-18,097	262,210	116,440
88,582	-18,233	261,923	116,180
89,597	-18,021	261,545	116,192
90,611	-18,058	261,585	116,166
91,626	-18,017	261,304	116,067
92,641	-17,996	261,066	115,970
93,655	-18,231	260,891	115,673
94,670	-17,989	260,661	115,775
95,684	-18,072	260,386	115,570
96,699	-18,043	260,278	115,537
97,714	-18,007	260,119	115,487
98,728	-18,021	259,982	115,404
99,743	-18,083	259,749	115,236
100,757	-17,900	259,439	115,250
101,772	-18,047	259,246	115,023
102,787	-18,164	259,028	114,814
103,801	-18,112	258,900	114,793
104,816	-18,152	258,686	114,653
105,830	-18,173	258,525	114,552
106,845	-17,980	258,181	114,560
107,860	-18,030	257,929	114,393
108,874	-18,179	257,789	114,190
109,889	-18,107	257,458	114,097
110,903	-18,233	257,360	113,933
111,918	-18,187	257,358	113,961
112,933	-18,017	257,005	113,944
113,947	-17,828	256,766	113,993
114,962	-18,057	256,580	113,700
115,976	-18,148	256,386	113,525
116,991	-18,121	256,150	113,434
118,006	-17,927	255,973	113,514
119,020	-18,118	255,967	113,335
120,035	-18,243	255,813	113,148
121,049	-18,064	255,544	113,174
122,064	-18,114	255,266	112,998
123,079	-17,922	255,000	113,036
124,093	-18,057	254,946	112,886
125,108	-17,843	254,518	112,871
126,122	-17,918	254,457	112,769
127,137	-18,006	254,459	112,684
128,151	-17,918	254,054	112,570
129,166	-17,998	253,912	112,429
130,181	-17,954	253,657	112,344
131,195	-17,978	253,532	112,257
132,210	-18,046	253,251	112,065
133,224	-18,132	252,979	111,860
134,239	-18,096	253,019	111,899
135,254	-18,058	252,676	111,770
136,268	-18,159	252,580	111,631
137,283	-17,960	252,423	111,722
138,297	-17,972	252,079	111,549
139,312	-18,095	251,975	111,388
140,327	-18,197	251,738	111,187
141,341	-18,033	251,526	111,223
142,356	-18,169	251,419	111,049
143,370	-18,148	251,132	110,930
144,385	-17,931	250,886	110,997
145,400	-17,988	250,649	110,834
146,414	-18,123	250,596	110,686
147,429	-18,124	250,287	110,538
148,443	-18,063	250,144	110,517
149,458	-18,029	249,997	110,471
150,473	-17,951	249,648	110,373
151,487	-18,221	249,586	110,107
152,502	-18,083	249,410	110,137
153,516	-18,146	249,283	110,017
154,531	-18,090	249,063	109,958
155,546	-17,901	248,830	110,005
156,560	-18,028	248,664	109,815
157,575	-17,918	248,449	109,802
158,589	-18,114	248,224	109,528
159,604	-18,163	248,072	109,411
160,619	-17,970	247,842	109,461
161,633	-18,064	247,570	109,252
162,648	-18,048	247,629	109,282
163,662	-17,912	247,469	109,315
164,677	-17,974	247,264	109,164
165,692	-18,125	247,086	108,949
166,706	-18,130	246,959	108,879
167,721	-18,028	246,768	108,870
168,735	-18,081	246,571	108,729
169,750	-18,114	246,464	108,645
170,764	-17,913	246,314	108,737
171,779	-18,148	246,212	108,486
172,794	-18,012	245,958	108,478
173,808	-17,988	245,754	108,398
174,823	-17,985	245,590	108,318
175,837	-18,000	245,394	108,210
176,852	-17,951	245,109	108,115
177,867	-18,040	245,032	107,998
178,881	-17,998	244,842	107,939
179,896	-18,152	244,695	107,738
180,910	-18,082	244,466	107,685
181,925	-18,210	244,365	107,525
182,940	-18,035	244,148	107,564
183,954	-17,996	244,079	107,557
184,969	-18,061	243,860	107,397
185,983	-18,154	243,806	107,287
186,998	-18,012	243,561	107,286
188,013	-18,059	243,198	107,078
189,027	-18,033	243,203	107,092
190,042	-17,930	242,823	107,000
191,056	-18,288	242,877	106,721
192,071	-18,072	242,523	106,733
193,086	-18,220	242,321	106,513
194,100	-18,061	242,131	106,550
195,115	-18,078	241,966	106,454
196,129	-18,113	241,782	106,335
197,144	-18,216	241,734	106,221
198,159	-17,943	241,434	106,301
199,173	-18,178	241,286	106,035
200,188	-18,021	240,967	106,014
201,202	-18,029	240,870	105,954
202,217	-18,053	240,713	105,857
203,232	-17,910	240,520	105,878
204,246	-18,030	240,293	105,672
205,261	-18,083	240,141	105,553
206,275	-16,742	240,634	106,848
207,290	-12,048	242,204	111,366
208,304	-5,858	244,413	117,459
209,319	-2,248	245,288	120,839
210,334	-1,038	245,403	121,879
211,348	-0,291	245,609	122,585
212,363	0,174	245,585	122,944
213,377	0,368	245,525	123,062
214,392	0,519	245,385	123,105
215,407	0,764	245,497	123,351
216,421	1,152	245,134	123,476
217,436	1,164	245,042	123,428
218,450	1,130	245,019	123,378
219,465	1,203	244,889	123,361
220,480	1,342	244,755	123,396
221,494	1,259	244,450	123,164
222,509	0,845	244,099	122,638
223,523	0,531	244,059	122,351
224,538	0,475	243,809	122,169
225,553	0,570	243,604	122,133
226,567	0,594	243,336	122,007
227,582	0,339	243,479	121,861
228,596	0,481	243,132	121,791
229,611	0,544	242,898	121,715
230,626	0,450	242,687	121,522
231,640	0,430	242,584	121,444
232,655	0,755	242,402	121,605
233,669	0,665	242,410	121,524
234,684	0,467	242,068	121,182
235,699	0,484	242,054	121,178
236,713	0,576	241,872	121,150
237,728	0,441	241,815	121,002
238,742	0,642	241,580	121,036
239,757	0,474	241,410	120,805
240,772	0,556	241,141	120,726
241,786	0,626	241,039	120,720
242,801	0,584	240,856	120,584
243,815	0,461	240,680	120,386
244,830	0,460	240,601	120,335
245,844	0,581	240,461	120,351
246,859	0,450	240,266	120,138
247,874	0,718	240,041	120,229
248,888	0,544	240,073	120,095
249,903	0,321	239,849	119,794
250,917	0,623	239,574	119,888
251,932	0,539	239,656	119,850
252,947	0,701	239,375	119,829
253,961	0,523	239,205	119,591
254,976	0,545	239,007	119,499
255,990	0,674	238,834	119,504
257,005	0,523	238,736	119,324
258,020	0,730	238,547	119,384
259,034	0,581	238,296	119,129
260,049	0,420	238,292	118,989
261,063	0,620	237,903	118,942
262,078	0,527	238,076	118,945
263,093	0,246	237,870	118,608
264,107	0,616	237,580	118,746
265,122	0,669	237,381	118,678
266,136	0,608	237,348	118,602
267,151	0,542	237,325	118,528
268,166	0,552	237,101	118,414
269,180	0,556	236,875	118,294
270,195	0,676	236,697	118,288
271,209	0,438	236,458	117,971
272,224	0,640	236,424	118,103
273,239	0,632	236,133	117,941
274,253	0,613	236,002	117,850
275,268	0,715	235,801	117,819
276,282	0,618	235,728	117,696
277,297	0,222	235,728	117,375
278,312	0,590	235,472	117,526
279,326	0,837	235,200	117,572
280,341	0,610	235,258	117,413
281,355	0,773	235,006	117,404
282,370	0,760	234,937	117,349
283,384	0,744	234,665	117,190
284,399	0,537	234,637	117,004
285,414	0,612	234,312	116,891
286,428	0,672	234,296	116,919
287,443	0,578	234,192	116,783
288,457	0,585	233,975	116,670
289,472	0,522	233,925	116,586
290,487	0,652	233,642	116,535
291,501	0,660	233,592	116,506
292,516	0,600	233,422	116,364
293,530	0,662	233,161	116,272
294,545	0,641	233,217	116,273
295,560	0,743	233,066	116,266
296,574	0,777	232,743	116,121
297,589	0,724	232,646	116,021
298,603	0,668	232,575	115,933
299,618	0,621	232,395	115,797
300,633	0,818	232,223	115,852
301,647	0,775	232,135	115,765
302,662	0,850	231,997	115,743
303,676	0,868	231,740	115,619
304,691	0,782	231,684	115,514
305,706	0,656	231,572	115,352
306,720	0,728	231,304	115,263
307,735	0,990	231,244	115,423
308,749	0,956	231,040	115,286
309,764	0,735	231,021	115,097
310,779	0,826	230,796	115,044
311,793	0,891	230,583	114,977
312,808	0,839	230,363	114,817
313,822	0,766	230,305	114,722
314,837	0,845	230,130	114,685
315,852	0,825	230,110	114,649
316,866	0,772	229,962	114,526
317,881	0,978	229,727	114,555
318,895	0,923	229,550	114,414
319,910	0,766	229,484	114,252
320,925	0,792	229,228	114,135
321,939	0,821	229,172	114,118
322,954	0,727	228,978	113,940
323,968	0,689	228,864	113,844
324,983	0,893	228,747	113,931
325,997	0,744	228,571	113,720
327,012	0,798	228,432	113,681
328,027	0,905	228,231	113,652
329,041	0,943	228,104	113,607
330,056	1,036	227,922	113,577
331,070	0,953	227,910	113,498
332,085	1,052	227,556	113,386
333,100	0,992	227,453	113,279
334,114	0,815	227,354	113,087
335,129	0,893	227,196	113,057
336,143	1,107	226,928	113,075
337,158	1,159	226,890	113,084
338,173	0,651	226,911	112,703
339,187	0,886	226,685	112,757
340,202	1,128	226,672	112,922
341,216	1,037	226,366	112,692
342,231	0,916	226,255	112,535
343,246	1,087	226,109	112,581
344,260	1,053	225,967	112,474
345,275	1,056	225,936	112,452
346,289	0,915	225,726	112,232
347,304	0,990	225,499	112,165
348,319	1,176	225,199	112,144
349,333	1,054	225,121	112,004
350,348	1,020	225,130	111,974
351,362	1,121	224,850	111,899
352,377	1,327	224,729	111,982
353,392	1,051	224,760	111,783
354,406	1,124	224,519	111,707
355,421	190,986	1311,018	1373,210
356,435	152,910	1443,248	1373,052
