DTS Sentinel unit serial number:	SN410029Multiplexer serial number:	ORYXHardware model number:	OX2-SRSoftware version number:	ORYX F/W v4,00 Oryx Data Collector v3.7.2.0data status	okinstallation	B5 Nyhavnadifferential loss correction	single-endedforward channel	channel 2reverse channel	N/Adate	2023/12/12time	01:52:13forward acquisition time	300,00reverse acquisition time	0,00gamma	499,1914k internal	0,3156k external	0,3156temperature offset calibration	1,0000default loss term (dB/km)	0,3820temperature slope calibration	1,0000multiplexer offset coefficient	1,0000multiplexer slope coefficient	1,0000fibre end	0,00T internal ref (°C)	15,86T ext. ref 1 (°C)	-0,60T ext. ref 2 (°C)	-0,89length (m)	temperature (°C)	Stokes	anti-Stokes-744,400	-200,000	0,008	0,045
-743,385	-108,984	-0,296	0,046
-742,371	15,364	0,151	0,087
-741,356	-75,987	-0,198	-0,051
-740,342	277,226	0,101	0,132
-739,327	-99,077	-0,212	0,039
-738,312	-93,546	0,106	0,021
-737,298	-109,011	-0,218	0,034
-736,283	236,465	0,055	0,067
-735,269	-34,623	-0,287	0,115
-734,254	18,642	0,156	0,092
-733,239	-42,012	-0,528	-0,198
-732,225	136,040	0,090	0,087
-731,210	57,377	-0,183	0,132
-730,196	103,747	0,110	-0,095
-729,181	701,294	-0,042	-0,082
-728,167	659,501	-0,014	-0,028
-727,152	330,784	-0,051	0,073
-726,137	256,775	-0,067	0,085
-725,123	332,836	0,093	-0,132
-724,108	108,687	-0,130	-0,114
-723,094	157,949	-0,147	-0,151
-722,079	-143,487	-0,098	-0,007
-721,064	800,000	0,032	-0,068
-720,050	650,750	-0,072	0,137
-719,035	252,093	0,030	0,037
-718,021	81,540	0,050	0,039
-717,006	665,620	-0,029	-0,055
-715,991	-48,947	-0,074	-0,026
-714,977	445,442	-0,058	0,094
-713,962	-200,000	0,003	-0,104
-712,948	-147,176	0,075	-0,005
-711,933	800,000	-0,022	-0,063
-710,918	-166,969	0,186	0,006
-709,904	717,791	0,051	-0,100
-708,889	295,175	-0,045	0,060
-707,875	261,282	-0,097	-0,124
-706,860	-45,877	-0,082	0,030
-705,845	800,000	-0,017	0,044
-704,831	203,596	-0,101	0,115
-703,816	-26,975	0,133	-0,057
-702,802	800,000	-0,029	-0,070
-701,787	800,000	0,018	-0,057
-700,772	370,502	-0,074	0,111
-699,758	800,000	0,026	0,074
-698,743	456,386	0,045	0,074
-697,729	-200,000	-0,044	0,160
-696,714	-144,002	0,082	0,006
-695,699	102,826	-0,052	-0,045
-694,685	59,073	-0,035	0,025
-693,670	146,767	-0,125	-0,124
-692,656	800,000	-0,036	-0,101
-691,641	-23,978	-0,117	0,051
-690,627	800,000	0,021	-0,064
-689,612	-200,000	0,028	-0,094
-688,597	-200,000	0,028	-0,098
-687,583	-53,412	-0,171	-0,057
-686,568	-72,085	-0,066	0,018
-685,554	-200,000	0,006	0,086
-684,539	-200,000	-0,024	0,103
-683,524	-89,878	-0,078	-0,017
-682,510	-29,244	0,026	-0,011
-681,495	800,000	0,027	-0,071
-680,481	-200,000	0,000	-0,051
-679,466	162,381	0,055	-0,057
-678,451	179,508	-0,050	0,054
-677,437	-5,804	-0,049	0,024
-676,422	-200,000	-0,020	0,184
-675,408	-28,887	0,033	0,014
-674,393	-200,000	0,009	0,159
-673,378	-200,000	-0,001	-0,203
-672,364	-163,575	-0,184	0,006
-671,349	75,739	-0,132	-0,103
-670,335	-113,221	-0,103	-0,015
-669,320	14,690	0,249	-0,143
-668,305	800,000	0,049	-0,101
-667,291	-40,078	-0,181	-0,069
-666,276	-192,318	-0,096	0,001
-665,262	549,670	-0,056	-0,099
-664,247	161,373	0,091	-0,094
-663,232	65,250	0,080	0,059
-662,218	388,222	-0,047	0,072
-661,203	-49,834	-0,069	-0,024
-660,189	-130,825	-0,059	0,006
-659,174	-200,000	0,014	0,100
-658,159	294,589	0,010	-0,013
-657,145	-51,740	-0,102	0,035
-656,130	69,582	-0,097	-0,073
-655,116	800,000	-0,019	-0,045
-654,101	109,874	-0,083	0,073
-653,086	-13,672	0,109	-0,052
-652,072	-65,053	-0,068	-0,020
-651,057	123,637	0,094	0,086
-650,043	131,400	-0,048	0,046
-649,028	-200,000	-0,008	-0,027
-648,014	-200,000	-0,033	-0,165
-646,999	-105,523	-0,085	0,014
-645,984	58,556	-0,093	0,067
-644,970	34,767	-0,059	0,038
-643,955	-200,000	0,014	-0,045
-642,941	103,676	-0,088	-0,076
-641,926	800,000	0,038	0,089
-640,911	800,000	0,040	-0,096
-639,897	492,484	0,063	-0,106
-638,882	-160,349	0,082	-0,003
-637,868	-31,575	0,043	0,018
-636,853	800,000	-0,029	0,090
-635,838	-166,395	-0,061	-0,002
-634,824	110,578	-0,069	-0,061
-633,809	111,478	0,086	0,076
-632,795	-200,000	-0,012	0,193
-631,780	210,352	-0,041	0,047
-630,765	-110,080	0,103	-0,016
-629,751	-85,559	-0,071	-0,016
-628,736	-48,453	-0,117	0,041
-627,722	-106,268	0,170	-0,028
-626,707	159,511	0,027	-0,027
-625,692	171,265	0,151	0,159
-624,678	-200,000	-0,014	0,119
-623,663	-24,263	0,057	-0,025
-622,649	407,761	-0,027	-0,042
-621,634	-200,000	0,002	-0,106
-620,619	-99,819	0,091	-0,017
-619,605	-18,644	-0,085	-0,039
-618,590	-184,691	-0,070	0,001
-617,576	800,000	0,020	0,047
-616,561	-200,000	-0,009	-0,039
-615,546	-56,086	-0,085	0,028
-614,532	-101,906	-0,165	-0,029
-613,517	360,356	-0,023	0,033
-612,503	36,293	0,106	-0,069
-611,488	-27,887	-0,079	0,033
-610,474	611,184	0,041	-0,075
-609,459	81,381	-0,129	0,102
-608,444	28,962	-0,025	-0,016
-607,430	800,000	-0,049	-0,125
-606,415	-200,000	0,009	-0,089
-605,401	800,000	-0,016	-0,045
-604,386	259,152	-0,086	0,109
-603,371	-200,000	-0,009	0,053
-602,357	36,102	-0,079	-0,051
-601,342	800,000	-0,026	-0,076
-600,328	-88,171	0,076	-0,016
-599,313	234,743	-0,049	-0,059
-598,298	332,077	-0,050	0,071
-597,284	19,864	-0,049	-0,029
-596,269	516,651	-0,060	0,104
-595,255	800,000	-0,029	0,069
-594,240	298,696	-0,063	-0,085
-593,225	-112,960	-0,175	-0,025
-592,211	277,333	0,051	-0,067
-591,196	576,658	0,043	-0,077
-590,182	155,569	0,110	0,111
-589,167	349,128	-0,077	0,111
-588,152	60,898	0,025	-0,018
-587,138	50,168	0,084	0,058
-586,123	800,000	-0,079	-0,175
-585,109	800,000	-0,014	0,034
-584,094	55,099	-0,080	0,057
-583,079	-107,613	0,016	0,003
-582,065	455,061	-0,063	0,102
-581,050	-200,000	0,011	-0,066
-580,036	800,000	0,042	0,107
-579,021	42,268	-0,101	-0,067
-578,006	-62,605	-0,070	-0,021
-576,992	-200,000	0,022	-0,094
-575,977	617,616	-0,056	-0,103
-574,963	-16,013	0,073	-0,034
-573,948	-200,000	0,010	0,034
-572,934	-200,000	0,014	0,058
-571,919	-81,506	-0,147	0,035
-570,904	220,597	-0,079	-0,093
-569,890	-200,000	-0,014	0,067
-568,875	62,589	-0,055	-0,040
-567,861	-200,000	0,002	0,185
-566,846	89,871	-0,063	0,051
-565,831	-200,000	-0,001	0,079
-564,817	-200,000	0,017	-0,183
-563,802	-104,467	-0,091	-0,015
-562,788	-145,025	-0,118	0,008
-561,773	-24,019	0,107	0,047
-560,758	209,841	-0,053	0,061
-559,744	368,301	0,035	0,052
-558,729	-29,497	0,072	0,030
-557,715	-200,000	-0,007	-0,091
-556,700	-200,000	-0,004	-0,094
-555,685	-100,606	-0,019	-0,003
-554,671	69,884	0,069	0,052
-553,656	-106,606	-0,130	0,021
-552,642	-200,000	-0,003	0,054
-551,627	707,200	0,036	0,071
-550,612	800,000	-0,065	0,167
-549,598	249,883	-0,055	-0,068
-548,583	800,000	0,011	0,029
-547,569	-120,919	-0,069	-0,008
-546,554	202,099	0,107	0,121
-545,539	800,000	-0,066	-0,143
-544,525	48,256	0,088	0,060
-543,510	-200,000	0,005	0,101
-542,496	49,974	-0,045	-0,031
-541,481	527,782	-0,084	0,146
-540,466	57,179	-0,017	-0,012
-539,452	-200,000	0,002	-0,013
-538,437	64,340	0,015	0,011
-537,423	42,543	-0,031	0,020
-536,408	-200,000	0,012	0,178
-535,393	-200,000	-0,003	-0,054
-534,379	699,071	-0,051	-0,098
-533,364	-42,518	0,062	0,023
-532,350	193,424	0,065	-0,072
-531,335	-200,000	0,006	0,134
-530,321	723,372	0,017	0,032
-529,306	-147,496	0,092	-0,006
-528,291	67,889	-0,135	-0,101
-527,277	188,981	-0,110	-0,121
-526,262	800,000	0,049	-0,101
-525,248	-55,585	0,099	0,032
-524,233	218,892	0,125	0,146
-523,218	94,324	0,111	0,092
-522,204	800,000	-0,020	0,061
-521,189	250,437	0,035	-0,044
-520,175	142,752	-0,065	-0,063
-519,160	-10,479	-0,106	0,051
-518,145	217,341	0,131	0,152
-517,131	-70,787	-0,090	0,025
-516,116	-153,522	-0,035	0,002
-515,102	9,000	-0,061	0,034
-514,087	-67,653	0,099	0,028
-513,072	-200,000	-0,004	0,068
-512,058	-200,000	-0,004	-0,029
-511,043	-200,000	-0,005	-0,027
-510,029	-200,000	-0,010	-0,057
-509,014	310,856	0,106	0,145
-507,999	71,371	0,091	-0,069
-506,985	21,006	-0,092	-0,055
-505,970	93,191	-0,045	-0,037
-504,956	204,813	-0,105	-0,119
-503,941	-46,003	0,043	0,015
-502,926	132,481	0,168	0,158
-501,912	219,285	0,091	0,106
-500,897	-61,779	-0,021	-0,007
-499,883	108,355	-0,086	0,075
-498,868	-200,000	-0,012	-0,107
-497,853	-200,000	-0,016	-0,092
-496,839	800,000	-0,013	-0,029
-495,824	41,857	0,122	-0,081
-494,810	577,927	0,017	0,031
-493,795	361,816	-0,032	-0,047
-492,781	-77,375	-0,128	0,032
-491,766	800,000	-0,021	0,044
-490,751	-5,364	-0,096	0,048
-489,737	-70,709	0,087	0,024
-488,722	374,059	0,058	-0,086
-487,708	105,176	0,088	0,076
-486,693	101,949	0,043	0,036
-485,678	800,000	0,017	-0,053
-484,664	800,000	0,009	-0,025
-483,649	-200,000	0,013	0,076
-482,635	523,300	0,081	-0,140
-481,620	800,000	0,027	0,066
-480,605	3,169	-0,066	0,035
-479,591	-200,000	-0,007	-0,042
-478,576	-200,000	-0,006	-0,057
-477,562	-156,699	-0,119	0,005
-476,547	-79,351	0,051	0,013
-475,532	34,142	-0,040	-0,025
-474,518	-200,000	-0,014	-0,045
-473,503	80,174	-0,043	-0,034
-472,489	148,121	0,010	-0,010
-471,474	687,625	0,034	0,066
-470,459	12,872	0,025	0,014
-469,445	260,423	-0,096	0,122
-468,430	-68,286	-0,099	-0,028
-467,416	72,017	0,029	0,022
-466,401	58,551	0,066	-0,047
-465,386	-200,000	-0,005	-0,093
-464,372	-113,197	0,108	-0,015
-463,357	-200,000	-0,019	0,092
-462,343	283,958	-0,011	-0,015
-461,328	-200,000	-0,008	0,114
-460,313	-200,000	-0,017	-0,074
-459,299	800,000	0,079	-0,170
-458,284	622,408	-0,047	0,087
-457,270	-51,248	0,137	0,047
-456,255	43,719	-0,093	0,062
-455,241	-96,114	0,111	0,021
-454,226	176,378	-0,033	-0,035
-453,211	131,118	0,104	0,098
-452,197	800,000	0,033	0,074
-451,182	49,354	0,114	0,078
-450,168	-200,000	0,001	0,032
-449,153	98,043	0,040	-0,034
-448,138	29,436	0,073	0,045
-447,124	61,185	-0,097	-0,070
-446,109	411,666	-0,056	-0,087
-445,095	-200,000	-0,009	-0,100
-444,080	51,340	0,116	-0,080
-443,065	623,554	-0,026	-0,048
-442,051	-37,566	-0,026	0,010
-441,036	-105,611	-0,194	-0,032
-440,022	-95,303	0,108	-0,021
-439,007	-135,790	-0,172	-0,015
-437,992	27,182	-0,061	0,038
-436,978	58,289	-0,057	0,041
-435,963	323,728	0,052	0,073
-434,949	-200,000	-0,002	-0,054
-433,934	800,000	0,037	-0,080
-432,919	800,000	-0,041	0,093
-431,905	-200,000	-0,001	-0,027
-430,890	-200,000	0,003	0,087
-429,876	-200,000	-0,032	-0,143
-428,861	800,000	0,023	0,072
-427,846	-8,755	-0,124	-0,060
-426,832	-200,000	0,001	-0,144
-425,817	-0,450	0,017	0,009
-424,803	-200,000	0,060	-0,197
-423,788	-29,465	0,103	-0,043
-422,773	-99,161	-0,065	0,012
-421,759	-28,097	0,053	0,022
-420,744	92,580	-0,008	-0,007
-419,730	-49,492	-0,051	-0,017
-418,715	-200,000	0,032	-0,109
-417,701	10,747	-0,135	0,075
-416,686	753,788	0,032	0,062
-415,671	754,823	-0,053	0,106
-414,657	-115,099	-0,096	-0,013
-413,642	-200,000	0,018	-0,104
-412,628	27,625	-0,058	-0,036
-411,613	-37,132	-0,096	-0,037
-410,598	83,919	0,072	0,057
-409,584	-4,280	-0,022	0,011
-408,569	-200,000	-0,020	-0,104
-407,555	-200,000	0,000	0,046
-406,540	-200,000	-0,034	-0,114
-405,525	800,000	0,010	0,023
-404,511	-73,124	0,055	0,015
-403,496	-42,036	-0,071	-0,026
-402,482	-200,000	0,006	0,038
-401,467	-200,000	0,019	-0,102
-400,452	800,000	-0,039	-0,114
-399,438	-96,495	0,078	0,015
-398,423	800,000	-0,019	0,059
-397,409	-16,784	-0,078	0,036
-396,394	-200,000	0,032	-0,155
-395,379	292,643	-0,018	0,025
-394,365	-25,588	0,049	-0,021
-393,350	-200,000	0,055	-0,000
-392,336	800,000	0,028	-0,086
-391,321	2,575	-0,093	-0,049
-390,306	-99,598	0,030	-0,005
-389,292	1,534	-0,030	-0,016
-388,277	-97,977	0,145	-0,027
-387,263	-46,029	0,156	-0,056
-386,248	-19,300	-0,080	-0,036
-385,233	134,414	-0,051	-0,048
-384,219	800,000	0,044	0,098
-383,204	460,892	-0,060	0,098
-382,190	-146,201	-0,082	-0,005
-381,175	4,973	-0,109	0,058
-380,160	-130,210	-0,060	-0,006
-379,146	-200,000	-0,009	0,045
-378,131	-200,000	-0,012	0,045
-377,117	800,000	0,032	0,092
-376,102	634,832	0,063	-0,116
-375,088	-200,000	-0,003	-0,138
-374,073	-20,612	0,047	0,021
-373,058	-200,000	-0,019	-0,066
-372,044	169,565	0,117	0,122
-371,029	800,000	0,038	0,114
-370,015	-140,842	0,138	0,010
-369,000	-200,000	-0,035	0,157
-367,985	-106,505	-0,055	-0,009
-366,971	-200,000	-0,024	0,088
-365,956	229,055	0,031	-0,037
-364,942	-176,412	0,138	-0,003
-363,927	60,748	-0,084	0,061
-362,912	241,482	0,073	-0,089
-361,898	413,523	-0,117	-0,181
-360,883	800,000	-0,019	-0,056
-359,869	-61,039	-0,017	-0,005
-358,854	262,738	0,149	0,189
-357,839	800,000	0,060	0,158
-356,825	124,522	-0,023	0,021
-355,810	-31,631	0,027	0,011
-354,796	64,388	-0,033	-0,024
-353,781	800,000	0,011	-0,033
-352,766	-0,152	0,032	0,016
-351,752	-67,369	0,067	-0,019
-350,737	216,234	-0,012	0,014
-349,723	-200,000	-0,023	0,143
-348,708	-121,023	-0,046	0,006
-347,693	78,266	-0,008	-0,006
-346,679	-34,418	-0,033	0,013
-345,664	384,591	-0,044	0,066
-344,650	-200,000	-0,022	-0,091
-343,635	216,931	0,016	0,019
-342,620	209,508	0,068	0,078
-341,606	329,750	0,058	0,081
-340,591	-130,018	-0,062	0,006
-339,577	800,000	-0,027	-0,077
-338,562	-200,000	-0,006	-0,081
-337,548	-200,000	0,004	0,102
-336,533	-68,149	0,111	0,031
-335,518	-56,317	0,230	0,074
-334,504	800,000	0,016	-0,035
-333,489	-200,000	-0,012	0,084
-332,475	-96,104	-0,098	-0,019
-331,460	-86,759	0,151	0,033
-330,445	-100,825	0,141	0,025
-329,431	234,677	-0,049	-0,059
-328,416	205,357	0,098	-0,110
-327,402	14,129	0,092	0,052
-326,387	184,776	0,062	0,067
-325,372	-137,926	-0,122	-0,010
-324,358	-200,000	0,014	-0,133
-323,343	61,525	0,074	0,053
-322,329	12,474	-0,188	-0,105
-321,314	-68,461	0,066	-0,019
-320,299	-200,000	0,011	0,044
-319,285	269,574	0,085	0,109
-318,270	457,372	0,053	-0,086
-317,256	-200,000	0,004	-0,167
-316,241	-137,660	-0,114	-0,009
-315,226	-96,443	0,011	-0,002
-314,212	220,028	0,099	0,115
-313,197	476,502	0,068	0,113
-312,183	-200,000	-0,027	-0,124
-311,168	142,501	-0,067	0,065
-310,153	800,000	-0,056	-0,119
-309,139	-200,000	-0,003	0,024
-308,124	-200,000	-0,004	-0,136
-307,110	-115,445	0,042	0,006
-306,095	134,796	0,045	-0,042
-305,080	133,498	-0,034	-0,032
-304,066	-200,000	-0,012	0,181
-303,051	-93,863	-0,045	0,009
-302,037	800,000	-0,038	-0,082
-301,022	-86,948	-0,054	0,012
-300,008	-135,558	0,125	0,011
-298,993	280,083	0,095	0,124
-297,978	800,000	-0,036	0,084
-296,964	40,872	-0,147	-0,096
-295,949	42,483	0,022	-0,014
-294,935	42,922	0,069	-0,045
-293,920	-127,001	0,113	-0,012
-292,905	-103,356	-0,183	-0,031
-291,891	464,075	0,102	0,166
-290,876	142,286	-0,068	-0,065
-289,862	-51,693	-0,120	0,040
-288,847	181,845	0,133	-0,142
-287,832	486,770	-0,040	0,067
-286,818	800,000	-0,031	0,067
-285,803	302,388	-0,010	0,014
-284,789	34,651	-0,066	0,041
-283,774	-112,457	0,095	-0,014
-282,759	-14,631	-0,113	0,052
-281,745	91,483	-0,081	0,066
-280,730	800,000	-0,049	-0,152
-279,716	6,722	0,123	-0,066
-278,701	249,784	0,032	0,040
-277,686	60,001	-0,070	0,050
-276,672	232,194	0,011	-0,013
-275,657	52,421	-0,052	0,036
-274,643	-120,798	-0,100	-0,012
-273,628	-200,000	0,007	-0,035
-272,613	-83,161	0,163	-0,038
-271,599	-200,000	0,009	-0,060
-270,584	37,516	-0,040	0,026
-269,570	-200,000	0,007	0,131
-268,555	-30,318	-0,143	0,058
-267,540	102,428	0,100	0,085
-266,526	-21,216	0,042	0,019
-265,511	-5,357	-0,026	0,013
-264,497	-60,700	-0,209	-0,064
-263,482	800,000	0,069	0,146
-262,467	-200,000	-0,006	0,043
-261,453	120,337	-0,093	0,084
-260,438	-200,000	-0,020	-0,077
-259,424	-200,000	0,044	-0,149
-258,409	-8,771	0,034	-0,016
-257,395	20,379	0,091	-0,053
-256,380	77,735	0,097	0,075
-255,365	-4,710	0,019	-0,009
-254,351	130,230	0,120	-0,111
-253,336	275,874	0,069	-0,089
-252,322	553,318	0,036	0,064
-251,307	-200,000	-0,006	-0,063
-250,292	100,182	0,034	0,029
-249,278	39,183	0,030	-0,019
-248,263	105,986	-0,064	0,055
-247,249	-120,754	0,071	-0,009
-246,234	-67,091	-0,098	0,028
-245,219	800,000	-0,038	-0,090
-244,205	-200,000	-0,005	0,022
-243,190	23,765	0,039	-0,023
-242,176	-63,062	-0,043	0,013
-241,161	800,000	0,057	0,149
-240,146	60,854	0,063	0,045
-239,132	170,401	-0,064	0,066
-238,117	-103,416	0,053	-0,009
-237,103	151,767	-0,075	-0,074
-236,088	192,221	0,035	0,038
-235,073	-54,819	0,196	-0,064
-234,059	22,390	0,033	-0,019
-233,044	322,829	0,035	0,048
-232,030	-50,385	-0,164	0,056
-231,015	800,000	0,051	-0,154
-230,000	-113,321	-0,063	-0,009
-228,986	17,697	0,099	-0,057
-227,971	682,918	-0,024	0,045
-226,957	173,821	0,006	-0,007
-225,942	800,000	0,027	0,075
-224,927	800,000	0,062	0,138
-223,913	249,927	-0,052	-0,063
-222,898	68,081	-0,044	-0,033
-221,884	-200,000	0,004	0,047
-220,869	368,194	0,049	-0,072
-219,855	327,619	0,037	0,051
-218,840	-74,251	0,147	0,038
-217,825	-200,000	0,017	0,141
-216,811	-20,978	-0,128	0,056
-215,796	800,000	-0,006	-0,017
-214,782	209,197	-0,119	-0,135
-213,767	-200,000	-0,031	-0,222
-212,752	-200,000	-0,009	-0,134
-211,738	800,000	0,065	0,149
-210,723	-159,854	-0,063	-0,002
-209,709	421,704	0,055	0,086
-208,694	-200,000	0,009	-0,071
-207,679	411,456	-0,052	-0,080
-206,665	-156,342	0,077	-0,003
-205,650	-3,458	-0,135	-0,068
-204,636	162,365	-0,116	-0,117
-203,621	-185,188	-0,039	0,000
-202,606	550,232	-0,043	0,075
-201,592	457,799	-0,005	0,008
-200,577	-200,000	-0,000	0,036
-199,563	179,703	-0,059	0,063
-198,548	-200,000	-0,001	-0,020
-197,533	-87,607	-0,049	0,011
-196,519	115,140	0,086	0,076
-195,504	149,288	0,079	-0,078
-194,490	91,148	0,049	-0,040
-193,475	488,783	0,084	-0,139
-192,460	520,182	0,042	0,072
-191,446	96,660	0,047	0,039
-190,431	467,783	0,051	0,082
-189,417	161,844	0,044	0,045
-188,402	-200,000	-0,026	-0,100
-187,387	169,412	-0,090	-0,093
-186,373	91,770	-0,109	-0,088
-185,358	-76,223	0,081	-0,020
-184,344	-26,098	0,088	-0,037
-183,329	133,768	-0,108	0,101
-182,315	714,301	-0,013	0,026
-181,300	-200,000	0,039	-0,135
-180,285	800,000	0,017	-0,049
-179,271	106,311	-0,073	0,063
-178,256	-33,264	-0,052	0,021
-177,242	40,862	-0,046	0,030
-176,227	293,367	0,051	0,067
-175,212	273,844	-0,082	-0,105
-174,198	-151,613	0,065	-0,003
-173,183	-200,000	0,002	0,029
-172,169	800,000	-0,038	-0,086
-171,154	353,992	-0,074	-0,107
-170,139	282,094	0,148	0,192
-169,125	-192,579	0,067	0,000
-168,110	134,064	-0,057	0,053
-167,096	5,278	0,071	-0,038
-166,081	-200,000	-0,013	-0,130
-165,066	-200,000	-0,001	-0,079
-164,052	-200,000	0,006	-0,034
-163,037	89,334	0,114	0,091
-162,023	-73,395	0,103	0,027
-161,008	800,000	0,021	0,058
-159,993	-154,136	0,118	0,006
-158,979	-8,555	0,112	-0,054
-157,964	528,835	-0,055	-0,094
-156,950	-200,000	0,032	-0,139
-155,935	-200,000	0,021	0,138
-154,920	34,687	-0,034	0,021
-153,906	158,839	0,033	-0,033
-152,891	800,000	0,014	-0,041
-151,877	-160,225	-0,156	0,006
-150,862	-66,806	0,022	0,006
-149,847	800,000	0,043	0,106
-148,833	-37,014	-0,092	0,035
-147,818	109,599	0,075	0,065
-146,804	250,728	0,097	0,120
-145,789	-200,000	-0,033	-0,128
-144,775	-93,195	-0,159	0,032
-143,760	-200,000	0,004	0,034
-142,745	-200,000	-0,006	-0,141
-141,731	-200,000	-0,011	0,060
-140,716	-62,078	0,136	-0,041
-139,702	-200,000	-0,012	0,042
-138,687	-76,913	0,064	-0,016
-137,672	-200,000	0,028	-0,099
-136,658	-200,000	0,000	0,085
-135,643	-200,000	0,003	-0,049
-134,629	-200,000	0,007	0,115
-133,614	-131,491	0,021	0,002
-132,599	51,454	0,047	0,032
-131,585	112,001	-0,046	-0,040
-130,570	-47,420	-0,107	0,037
-129,556	310,781	0,058	0,079
-128,541	-141,034	-0,101	0,007
-127,526	800,000	-0,030	-0,072
-126,512	-200,000	0,002	0,124
-125,497	-200,000	0,009	0,068
-124,483	-200,000	0,004	-0,083
-123,468	-200,000	-0,001	-0,029
-122,453	27,624	-0,138	0,083
-121,439	800,000	-0,044	0,114
-120,424	-130,740	-0,104	-0,010
-119,410	-77,339	0,140	-0,035
-118,395	800,000	0,034	0,084
-117,380	-200,000	0,019	-0,135
-116,366	38,331	-0,045	-0,029
-115,351	-200,000	-0,002	-0,080
-114,337	87,676	-0,094	-0,075
-113,322	136,247	0,029	-0,027
-112,307	800,000	-0,061	-0,140
-111,293	501,640	0,027	-0,046
-110,278	244,524	0,060	0,073
-109,264	-109,084	-0,052	0,008
-108,249	-200,000	0,059	-0,211
-107,234	117,626	-0,024	-0,021
-106,220	-26,299	-0,152	-0,064
-105,205	-9,084	0,093	0,045
-104,191	-200,000	-0,006	-0,100
-103,176	312,505	0,018	0,025
-102,162	800,000	0,018	0,041
-101,147	-200,000	-0,016	-0,073
-100,132	-200,000	-0,013	-0,103
-99,118	46,263	0,098	0,065
-98,103	123,810	-0,046	0,042
-97,089	161,561	-0,051	0,052
-96,074	-200,000	0,000	-0,048
-95,059	37,662	0,110	0,070
-94,045	-200,000	0,017	0,087
-93,030	-58,162	0,073	-0,023
-92,016	576,556	0,064	-0,114
-91,001	-108,425	0,121	0,019
-89,986	7,494	0,061	-0,033
-88,972	800,000	0,036	0,110
-87,957	800,000	0,004	-0,013
-86,943	-18,827	0,048	0,021
-85,928	-101,309	-0,062	-0,011
-84,913	12,208	0,044	0,024
-83,899	-51,239	0,073	0,025
-82,884	-200,000	0,041	0,145
-81,870	242,668	-0,030	-0,036
-80,855	-200,000	0,002	0,041
-79,840	-178,929	0,150	-0,002
-78,826	-82,951	-0,246	-0,057
-77,811	68,041	0,056	-0,041
-76,797	204,792	0,101	-0,112
-75,782	19,682	-0,131	-0,075
-74,767	-200,000	0,008	0,102
-73,753	3,640	0,129	0,067
-72,738	-200,000	-0,007	-0,078
-71,724	53,165	-0,183	-0,126
-70,709	64,200	0,085	0,061
-69,694	-200,000	0,006	0,150
-68,680	-3,861	-0,072	0,036
-67,665	-200,000	0,002	0,007
-66,651	284,975	0,017	0,022
-65,636	800,000	0,034	-0,103
-64,622	206,113	-0,005	0,005
-63,607	-76,362	-0,038	-0,010
-62,592	-146,744	-0,071	0,004
-61,578	-200,000	-0,004	-0,073
-60,563	362,076	0,168	-0,242
-59,549	-129,347	-0,115	-0,011
-58,534	-20,006	-1,841	-0,812
-57,519	-200,000	-0,276	-1,060
-56,505	-200,000	-1,311	-4,938
-55,490	-27,764	0,771	0,319
-54,476	800,000	5,272	12,119
-53,461	-200,000	17,290	283,720
-52,446	800,000	723,556	2226,243
-51,432	542,565	1639,579	2818,162
-50,417	111,736	1631,579	1413,596
-49,403	76,237	1286,221	976,752
-48,388	32,806	1028,507	637,644
-47,373	20,305	990,413	572,775
-46,359	18,787	978,523	560,894
-45,344	16,180	974,460	550,002
-44,330	16,312	973,098	549,644
-43,315	15,901	971,396	547,318
-42,300	15,890	970,168	546,569
-41,286	15,937	969,233	546,171
-40,271	15,916	968,042	545,411
-39,257	15,892	967,350	544,920
-38,242	15,902	966,305	544,345
-37,227	15,888	965,727	543,952
-36,213	15,906	964,641	543,376
-35,198	15,876	963,957	542,874
-34,184	15,936	963,155	542,593
-33,169	15,933	962,097	541,967
-32,154	15,956	961,147	541,483
-31,140	15,877	960,127	540,633
-30,125	15,851	959,703	540,287
-29,111	15,925	958,686	539,933
-28,096	15,882	958,256	539,533
-27,082	15,941	957,529	539,290
-26,067	15,931	956,623	538,727
-25,052	15,860	955,970	538,108
-24,038	15,915	955,386	537,935
-23,023	15,845	954,644	537,271
-22,009	15,920	954,006	537,131
-20,994	15,880	953,354	536,614
-19,979	15,870	952,891	536,302
-18,965	15,900	952,023	535,889
-17,950	15,925	951,400	535,596
-16,936	15,821	951,196	535,128
-15,921	15,805	950,236	534,515
-14,906	15,821	949,441	534,098
-13,892	15,839	948,771	533,755
-12,877	15,826	948,297	533,427
-11,863	15,737	947,757	532,820
-10,848	15,738	947,032	532,392
-9,833	15,872	946,594	532,550
-8,819	15,825	945,906	531,993
-7,804	15,834	945,324	531,673
-6,790	15,750	944,668	531,019
-5,775	15,804	944,164	530,884
-4,760	15,706	943,889	530,399
-3,746	15,774	942,920	530,049
-2,731	15,637	942,213	529,195
-1,717	15,618	941,538	528,736
-0,702	15,567	940,956	528,226
0,313	15,455	940,313	528,308
1,327	18,583	937,877	536,757
2,342	27,481	795,569	478,922
3,356	24,392	459,069	271,606
4,371	-3,085	313,755	156,489
5,386	-6,924	295,343	143,418
6,400	-8,980	289,595	138,576
7,415	-9,377	286,901	136,886
8,429	-9,491	285,546	136,116
9,444	-9,643	284,665	135,535
10,459	-9,422	283,985	135,414
11,473	-9,641	283,427	134,924
12,488	-9,336	282,954	134,982
13,502	-9,648	282,453	134,430
14,517	-9,345	282,034	134,511
15,531	-9,347	281,426	134,207
16,546	-9,357	281,185	134,070
17,561	-9,496	280,825	133,753
18,575	-9,513	280,438	133,540
19,590	-9,456	280,106	133,425
20,604	-9,256	279,845	133,481
21,619	-9,417	279,455	133,129
22,634	-9,789	279,191	132,636
23,648	-9,514	278,831	132,715
24,663	-9,610	278,701	132,550
25,677	-9,569	278,183	132,331
26,692	-9,525	278,009	132,278
27,707	-9,388	277,640	132,221
28,721	-9,423	277,422	132,072
29,736	-9,460	277,198	131,918
30,750	-9,606	276,847	131,602
31,765	-9,534	276,588	131,535
32,780	-9,495	276,463	131,501
33,794	-9,430	276,213	131,431
34,809	-9,532	275,868	131,159
35,823	-9,549	275,752	131,076
36,838	-9,451	275,393	130,986
37,853	-9,444	275,232	130,904
38,867	-9,481	274,950	130,724
39,882	-9,552	274,815	130,582
40,896	-9,459	274,475	130,495
41,911	-9,484	274,257	130,357
42,926	-9,488	274,034	130,235
43,940	-9,653	273,740	129,930
44,955	-9,560	273,572	129,925
45,969	-9,725	273,230	129,598
46,984	-9,709	273,040	129,511
47,999	-9,932	272,837	129,195
49,013	-10,035	272,521	128,939
50,028	-10,212	272,289	128,653
51,042	-10,200	271,959	128,496
52,057	-10,285	271,807	128,334
53,071	-9,970	271,544	128,490
54,086	-10,013	271,389	128,366
55,101	-9,944	271,173	128,316
56,115	-9,778	271,038	128,394
57,130	-9,324	270,881	128,728
58,144	-9,301	270,564	128,586
59,159	-9,293	270,387	128,498
60,174	-9,516	270,260	128,220
61,188	-9,516	270,008	128,090
62,203	-9,463	269,807	128,032
63,217	-9,625	269,637	127,791
64,232	-9,371	269,409	127,904
65,247	-9,358	269,139	127,777
66,261	-9,463	268,934	127,573
67,276	-9,586	268,633	127,306
68,290	-9,779	268,231	126,927
69,305	-9,813	268,130	126,837
70,320	-9,730	267,990	126,836
71,334	-9,590	267,836	126,879
72,349	-9,349	267,508	126,932
73,363	-9,276	267,301	126,888
74,378	-9,522	267,141	126,578
75,393	-9,396	266,955	126,593
76,407	-9,476	266,738	126,406
77,422	-9,475	266,671	126,364
78,436	-9,395	266,274	126,237
79,451	-9,385	266,114	126,159
80,466	-9,307	265,801	126,070
81,480	-9,617	265,678	125,720
82,495	-9,644	265,328	125,519
83,509	-9,491	265,238	125,603
84,524	-9,577	264,897	125,353
85,539	-9,690	264,719	125,156
86,553	-9,725	264,615	125,063
87,568	-9,718	264,301	124,911
88,582	-9,558	264,155	124,974
89,597	-9,639	264,002	124,818
90,611	-9,529	263,915	124,864
91,626	-9,475	263,650	124,776
92,641	-9,544	263,605	124,682
93,655	-9,409	263,272	124,634
94,670	-9,570	263,074	124,385
95,684	-9,416	262,784	124,374
96,699	-9,380	262,471	124,247
97,714	-9,419	262,448	124,191
98,728	-9,781	262,253	123,765
99,743	-9,652	261,797	123,653
100,757	-9,766	261,757	123,522
101,772	-9,542	261,601	123,637
102,787	-9,514	261,282	123,500
103,801	-9,463	261,276	123,531
104,816	-9,594	261,009	123,278
105,830	-9,389	260,913	123,403
106,845	-9,457	260,735	123,247
107,860	-9,422	260,570	123,190
108,874	-9,525	260,371	122,994
109,889	-9,556	260,029	122,794
110,903	-9,377	259,755	122,811
111,918	-9,603	259,731	122,589
112,933	-9,547	259,562	122,548
113,947	-9,413	259,263	122,514
114,962	-9,455	259,178	122,426
115,976	-9,693	258,920	122,084
116,991	-9,552	258,791	122,136
118,006	-9,435	258,536	122,107
119,020	-9,442	258,601	122,121
120,035	-9,338	258,329	122,073
121,049	-9,174	257,966	122,033
122,064	-9,426	258,047	121,841
123,079	-9,471	257,754	121,652
124,093	-9,482	257,473	121,500
125,108	-9,670	257,321	121,253
126,122	-9,763	257,048	121,032
127,137	-9,651	256,724	120,967
128,151	-9,792	256,635	120,791
129,166	-9,441	256,383	120,966
130,181	-9,540	256,215	120,791
131,195	-9,750	256,092	120,540
132,210	-9,644	255,887	120,524
133,224	-9,503	255,593	120,497
134,239	-9,430	255,582	120,545
135,254	-9,335	255,281	120,473
136,268	-9,650	255,132	120,121
137,283	-9,674	254,857	119,960
138,297	-9,722	254,591	119,782
139,312	-9,827	254,387	119,585
140,327	-9,522	254,253	119,774
141,341	-9,363	254,281	119,913
142,356	-9,322	254,155	119,878
143,370	-9,321	254,009	119,800
144,385	-9,254	253,737	119,718
145,400	-9,317	253,570	119,574
146,414	-9,236	253,481	119,591
147,429	-9,280	253,363	119,488
148,443	-9,177	253,023	119,405
149,458	-9,242	252,771	119,219
150,473	-9,273	252,720	119,159
151,487	-9,350	252,370	118,917
152,502	-9,431	252,221	118,767
153,516	-9,151	252,021	118,901
154,531	-9,173	251,924	118,826
155,546	-9,434	251,745	118,509
156,560	-9,382	251,552	118,451
157,575	-9,538	251,388	118,232
158,589	-9,285	251,096	118,298
159,604	-9,192	250,942	118,294
160,619	-9,297	250,777	118,117
161,633	-9,292	250,585	118,020
162,648	-9,250	250,510	118,010
163,662	-9,236	250,365	117,943
164,677	-9,420	250,312	117,752
165,692	-9,334	250,061	117,695
166,706	-9,221	249,839	117,676
167,721	-9,091	249,485	117,608
168,735	-9,070	249,383	117,567
169,750	-9,271	249,404	117,398
170,764	-9,281	249,254	117,308
171,779	-9,107	249,127	117,384
172,794	-9,304	249,111	117,201
173,808	-9,321	248,746	117,004
174,823	-9,633	248,432	116,584
175,837	-9,881	248,183	116,249
176,852	-9,353	248,097	116,641
177,867	-9,208	248,020	116,715
178,881	-9,218	247,892	116,637
179,896	-9,408	247,748	116,399
180,910	-9,168	247,397	116,424
181,925	-9,310	247,359	116,278
182,940	-9,272	247,160	116,206
183,954	-9,213	247,033	116,185
184,969	-9,083	246,807	116,176
185,983	-9,140	246,751	116,092
186,998	-9,091	246,464	115,987
188,013	-9,184	246,421	115,879
189,027	-9,214	246,297	115,786
190,042	-9,236	246,017	115,626
191,056	-9,371	245,859	115,429
192,071	-9,218	245,750	115,495
193,086	-9,185	245,514	115,401
194,100	-9,276	245,291	115,210
195,115	-8,985	245,021	115,313
196,129	-9,037	244,869	115,188
197,144	-9,139	244,747	115,036
198,159	-9,252	244,712	114,917
199,173	-9,069	244,412	114,916
200,188	-9,448	244,296	114,540
201,202	-9,379	243,877	114,390
202,217	-9,701	243,679	114,022
203,232	-9,940	243,482	113,725
204,246	-9,545	243,429	114,013
205,261	-9,143	243,289	114,266
206,275	-9,976	242,869	113,378
207,290	-6,765	244,088	116,573
208,304	-0,078	246,218	123,101
209,319	2,676	247,024	125,768
210,334	3,234	246,978	126,193
211,348	3,607	246,991	126,496
212,363	3,688	246,917	126,513
213,377	3,776	246,751	126,490
214,392	3,569	246,524	126,192
215,407	3,489	246,434	126,069
216,421	3,602	246,225	126,043
217,436	4,005	246,034	126,265
218,450	3,994	246,065	126,261
219,465	3,753	245,694	125,862
220,480	3,350	245,672	125,509
221,494	3,627	245,295	125,531
222,509	3,514	245,202	125,381
223,523	3,341	244,991	125,120
224,538	3,225	244,696	124,863
225,553	3,122	244,815	124,829
226,567	3,261	244,493	124,767
227,582	3,248	244,439	124,718
228,596	3,445	244,188	124,739
229,611	3,251	243,967	124,457
230,626	3,142	243,849	124,297
231,640	3,353	243,620	124,340
232,655	3,481	243,525	124,385
233,669	3,179	243,323	124,026
234,684	3,287	243,144	124,012
235,699	3,399	243,125	124,081
236,713	3,668	243,133	124,291
237,728	3,058	242,896	123,666
238,742	3,070	242,725	123,578
239,757	3,037	242,494	123,422
240,772	3,293	242,177	123,456
241,786	3,217	242,198	123,395
242,801	3,174	241,872	123,183
243,815	3,078	241,938	123,128
244,830	3,319	241,629	123,155
245,844	3,374	241,507	123,125
246,859	3,322	241,254	122,943
247,874	3,112	241,246	122,761
248,888	3,173	241,049	122,697
249,903	3,306	240,879	122,707
250,917	3,301	240,894	122,700
251,932	3,572	240,700	122,807
252,947	3,515	240,369	122,581
253,961	2,870	240,226	121,982
254,976	3,520	239,960	122,354
255,990	3,410	239,983	122,268
257,005	3,189	239,785	121,980
258,020	3,037	239,494	121,700
259,034	3,178	239,455	121,781
260,049	3,448	239,303	121,908
261,063	3,248	239,107	121,638
262,078	3,147	238,923	121,454
263,093	3,308	238,897	121,558
264,107	3,600	238,789	121,723
265,122	3,263	238,510	121,304
266,136	3,061	238,584	121,170
267,151	3,314	238,315	121,223
268,166	3,406	238,022	121,136
269,180	2,991	237,807	120,687
270,195	3,833	237,833	121,356
271,209	3,819	237,756	121,295
272,224	3,151	237,497	120,625
273,239	2,851	237,337	120,296
274,253	2,961	237,097	120,250
275,268	3,158	236,994	120,342
276,282	3,150	236,960	120,308
277,297	3,130	236,720	120,160
278,312	3,337	236,496	120,198
279,326	3,244	236,472	120,102
280,341	3,111	236,401	119,951
281,355	3,208	236,051	119,839
282,370	3,535	236,133	120,125
283,384	3,625	235,745	119,988
284,399	2,961	235,716	119,443
285,414	2,918	235,519	119,300
286,428	3,079	235,312	119,309
287,443	3,331	235,170	119,423
288,457	3,442	235,132	119,480
289,472	3,333	235,004	119,319
290,487	3,278	234,786	119,155
291,501	3,217	234,468	118,935
292,516	2,806	234,373	118,557
293,530	2,647	234,268	118,370
294,545	3,406	234,181	118,905
295,560	3,607	233,959	118,937
296,574	3,077	233,773	118,422
297,589	3,180	233,626	118,417
298,603	3,583	233,702	118,757
299,618	3,363	233,547	118,496
300,633	3,484	233,298	118,453
301,647	3,422	233,270	118,381
302,662	3,717	233,249	118,587
303,676	3,884	232,875	118,515
304,691	3,559	232,821	118,227
305,706	3,710	232,557	118,199
306,720	3,707	232,426	118,119
307,735	3,553	232,237	117,894
308,749	3,317	232,126	117,646
309,764	3,120	232,021	117,431
310,779	3,100	231,721	117,253
311,793	2,903	231,587	117,024
312,808	3,186	231,311	117,091
313,822	2,902	231,253	116,834
314,837	3,039	230,971	116,785
315,852	2,978	231,074	116,780
316,866	3,341	230,969	116,994
317,881	3,647	230,851	117,158
318,895	3,383	230,748	116,894
319,910	3,650	230,688	117,056
320,925	3,305	230,318	116,595
321,939	3,133	230,247	116,418
322,954	3,500	230,043	116,584
323,968	3,130	229,831	116,185
324,983	3,067	229,720	116,070
325,997	3,103	229,548	116,000
327,012	3,328	229,489	116,131
328,027	3,453	229,275	116,107
329,041	3,812	229,239	116,351
330,056	4,072	229,195	116,514
331,070	3,911	229,001	116,284
332,085	3,399	228,649	115,708
333,100	3,420	228,560	115,668
334,114	3,805	228,440	115,888
335,129	3,605	228,338	115,675
336,143	3,413	228,351	115,527
337,158	3,743	228,057	115,616
338,173	3,737	227,992	115,568
339,187	3,756	227,845	115,498
340,202	3,708	227,547	115,300
341,216	3,493	227,442	115,076
342,231	3,487	227,284	114,980
343,246	3,479	227,106	114,874
344,260	3,676	227,048	114,982
345,275	3,821	227,125	115,119
346,289	3,819	226,917	115,002
347,304	3,774	226,630	114,813
348,319	3,594	226,724	114,716
349,333	3,173	226,373	114,213
350,348	3,267	226,231	114,202
351,362	3,546	226,031	114,299
352,377	3,603	225,805	114,217
353,392	3,404	225,722	114,016
354,406	3,274	225,639	113,867
355,421	195,842	1323,475	1401,821
356,435	156,974	1457,224	1401,822
