DTS Sentinel unit serial number:	SN410029Multiplexer serial number:	ORYXHardware model number:	OX2-SRSoftware version number:	ORYX F/W v4,00 Oryx Data Collector v3.7.2.0data status	okinstallation	B5 Nyhavnadifferential loss correction	single-endedforward channel	channel 2reverse channel	N/Adate	2023/12/13time	10:02:13forward acquisition time	300,00reverse acquisition time	0,00gamma	499,1914k internal	0,3160k external	0,3160temperature offset calibration	1,0000default loss term (dB/km)	0,3820temperature slope calibration	1,0000multiplexer offset coefficient	1,0000multiplexer slope coefficient	1,0000fibre end	0,00T internal ref (°C)	13,65T ext. ref 1 (°C)	-2,72T ext. ref 2 (°C)	-3,02length (m)	temperature (°C)	Stokes	anti-Stokes-744,400	26,005	0,204	-0,125
-743,385	-191,249	-0,361	-0,003
-742,371	-160,725	0,156	0,006
-741,356	-176,037	-0,258	-0,005
-740,342	-43,135	0,203	0,075
-739,327	-82,187	-0,371	0,088
-738,312	111,347	0,126	-0,112
-737,298	-110,841	-0,313	0,047
-736,283	17,368	0,067	0,039
-735,269	-163,143	-0,154	0,005
-734,254	-42,102	-0,023	-0,009
-733,239	14,558	-0,429	-0,246
-732,225	309,000	0,142	0,195
-731,210	-151,769	-0,052	0,003
-730,196	-200,000	-0,001	0,028
-729,181	526,542	-0,023	-0,040
-728,167	100,743	-0,035	-0,030
-727,152	-28,581	0,066	-0,028
-726,137	-19,769	0,095	-0,043
-725,123	-200,000	0,014	-0,163
-724,108	6,245	-0,095	-0,051
-723,094	-116,191	-0,107	-0,015
-722,079	29,556	-0,051	-0,032
-721,064	-200,000	-0,018	0,111
-720,050	-200,000	0,004	-0,015
-719,035	30,736	0,065	0,041
-718,021	-194,790	-0,167	-0,001
-717,006	171,283	-0,038	-0,040
-715,991	52,637	-0,073	-0,052
-714,977	50,831	-0,055	-0,038
-713,962	-200,000	-0,008	-0,067
-712,948	706,699	-0,032	0,063
-711,933	330,228	-0,048	0,069
-710,918	137,405	-0,038	0,036
-709,904	-200,000	-0,043	-0,200
-708,889	800,000	-0,049	-0,102
-707,875	-200,000	0,006	-0,150
-706,860	264,981	0,068	-0,087
-705,845	-200,000	0,007	-0,063
-704,831	524,682	0,090	-0,156
-703,816	-116,194	0,028	-0,004
-702,802	-27,698	-0,097	-0,041
-701,787	128,145	-0,037	-0,034
-700,772	539,741	-0,029	-0,050
-699,758	-200,000	-0,024	-0,182
-698,743	-15,558	0,126	-0,059
-697,729	274,595	0,069	-0,090
-696,714	-200,000	0,034	-0,141
-695,699	-18,764	-0,080	0,036
-694,685	-200,000	-0,006	0,157
-693,670	259,061	0,054	0,069
-692,656	109,813	0,009	0,008
-691,641	67,809	0,061	0,046
-690,627	64,324	0,094	0,069
-689,612	-200,000	-0,013	-0,071
-688,597	-115,675	0,052	0,007
-687,583	14,824	-0,084	-0,048
-686,568	800,000	0,046	-0,144
-685,554	-200,000	0,006	-0,081
-684,539	11,093	-0,072	0,040
-683,524	-18,849	-0,014	-0,006
-682,510	-200,000	-0,010	-0,149
-681,495	-200,000	-0,012	-0,183
-680,481	-117,240	-0,053	-0,007
-679,466	45,236	-0,033	-0,023
-678,451	-200,000	0,004	0,060
-677,437	23,949	0,063	0,038
-676,422	-200,000	-0,014	-0,090
-675,408	-200,000	-0,005	-0,026
-674,393	415,563	0,025	0,040
-673,378	17,208	-0,112	-0,065
-672,364	800,000	0,035	-0,109
-671,349	800,000	-0,031	-0,073
-670,335	282,612	0,066	-0,087
-669,320	134,189	0,120	-0,114
-668,305	-200,000	-0,002	-0,041
-667,291	-200,000	0,003	0,016
-666,276	491,715	0,021	-0,036
-665,262	-200,000	-0,045	-0,148
-664,247	-200,000	0,022	0,108
-663,232	313,843	-0,026	-0,036
-662,218	320,491	0,043	0,061
-661,203	-5,332	0,024	0,012
-660,189	800,000	-0,017	-0,045
-659,174	85,598	0,032	-0,026
-658,159	-200,000	-0,033	0,118
-657,145	-200,000	-0,004	-0,074
-656,130	-112,922	0,032	-0,005
-655,116	800,000	-0,031	0,084
-654,101	141,883	-0,004	-0,004
-653,086	62,609	-0,070	0,051
-652,072	-100,721	-0,074	-0,013
-651,057	-17,991	-0,103	0,047
-650,043	-148,877	0,081	0,005
-649,028	-79,161	0,032	-0,008
-648,014	-13,315	0,041	0,020
-646,999	127,812	-0,058	-0,054
-645,984	14,169	0,019	0,011
-644,970	306,514	-0,079	-0,108
-643,955	-103,124	-0,052	-0,009
-642,941	402,375	-0,032	-0,050
-641,926	800,000	-0,011	0,022
-640,911	800,000	-0,035	0,106
-639,897	-85,281	0,066	0,015
-638,882	583,914	0,033	-0,060
-637,868	-111,893	-0,062	-0,009
-636,853	-200,000	-0,004	-0,043
-635,838	526,125	-0,070	-0,122
-634,824	151,958	-0,121	0,121
-633,809	-161,541	-0,080	-0,003
-632,795	-200,000	-0,032	0,161
-631,780	31,411	0,095	0,059
-630,765	207,834	-0,078	-0,089
-629,751	190,879	0,015	-0,017
-628,736	149,463	0,053	-0,053
-627,722	110,196	-0,154	-0,135
-626,707	496,553	-0,032	-0,054
-625,692	800,000	0,024	0,062
-624,678	800,000	0,035	-0,084
-623,663	111,726	-0,110	0,097
-622,649	0,704	-0,164	-0,086
-621,634	800,000	-0,045	-0,116
-620,619	146,298	-0,063	0,062
-619,605	172,124	0,031	-0,033
-618,590	502,483	-0,012	-0,020
-617,576	800,000	0,038	0,083
-616,561	152,432	-0,016	-0,016
-615,546	-18,731	-0,078	-0,036
-614,532	104,357	-0,052	-0,045
-613,517	-200,000	-0,028	-0,129
-612,503	187,936	-0,131	-0,143
-611,488	467,013	0,044	-0,072
-610,474	800,000	-0,021	0,063
-609,459	800,000	-0,054	0,122
-608,444	800,000	-0,039	0,098
-607,430	-200,000	-0,034	-0,141
-606,415	-55,850	0,035	-0,011
-605,401	800,000	-0,020	-0,047
-604,386	384,408	-0,042	-0,064
-603,371	800,000	0,030	-0,068
-602,357	-73,766	-0,067	-0,018
-601,342	79,970	-0,053	-0,042
-600,328	73,619	0,090	-0,069
-599,313	34,003	-0,027	-0,017
-598,298	698,559	0,109	-0,211
-597,284	-76,362	-0,103	0,026
-596,269	-200,000	-0,000	0,129
-595,255	-11,141	0,053	-0,026
-594,240	-200,000	0,001	-0,032
-593,225	-200,000	0,020	-0,154
-592,211	-200,000	0,018	-0,180
-591,196	-188,251	0,173	0,002
-590,182	-200,000	0,020	-0,151
-589,167	461,798	0,032	-0,052
-588,152	64,437	0,044	-0,033
-587,138	-143,665	0,086	0,006
-586,123	-118,250	-0,092	0,012
-585,109	644,398	0,026	-0,048
-584,094	48,780	-0,100	0,068
-583,079	43,632	0,027	-0,018
-582,065	-200,000	0,038	-0,163
-581,050	-57,142	0,171	0,055
-580,036	-200,000	-0,011	0,167
-579,021	152,396	0,073	-0,073
-578,006	-200,000	-0,032	-0,132
-576,992	-103,651	0,057	-0,010
-575,977	-94,437	0,006	0,001
-574,963	-14,392	0,066	0,031
-573,948	-121,592	0,089	0,011
-572,934	800,000	0,022	-0,064
-571,919	800,000	-0,030	-0,076
-570,904	-16,129	-0,178	-0,083
-569,890	121,822	0,040	0,036
-568,875	158,393	0,088	0,089
-567,861	562,948	-0,057	-0,100
-566,846	93,379	-0,050	0,041
-565,831	-200,000	-0,026	0,129
-564,817	-200,000	-0,063	-0,206
-563,802	800,000	-0,024	-0,068
-562,788	693,381	0,097	-0,187
-561,773	26,497	-0,050	0,030
-560,758	-115,803	0,096	-0,013
-559,744	-26,942	0,073	0,031
-558,729	325,374	-0,056	0,078
-557,715	800,000	-0,071	0,173
-556,700	24,599	0,122	-0,074
-555,685	-190,347	0,105	-0,001
-554,671	-200,000	-0,003	-0,068
-553,656	508,556	0,082	0,140
-552,642	-106,534	0,165	-0,027
-551,627	643,498	-0,016	-0,030
-550,612	-34,964	0,075	0,030
-549,598	-200,000	-0,002	-0,085
-548,583	-46,558	0,037	-0,013
-547,569	-200,000	0,003	-0,042
-546,554	-2,246	-0,103	-0,053
-545,539	-75,943	0,083	-0,021
-544,525	-159,335	-0,101	0,004
-543,510	61,648	-0,020	0,015
-542,496	-63,932	-0,023	-0,007
-541,481	-92,578	-0,049	-0,010
-540,466	-200,000	0,005	0,110
-539,452	46,538	-0,142	-0,096
-538,437	-200,000	0,012	-0,090
-537,423	800,000	-0,005	-0,016
-536,408	-200,000	-0,002	0,065
-535,393	66,323	-0,050	-0,037
-534,379	-75,797	-0,146	0,038
-533,364	800,000	0,050	-0,132
-532,350	4,026	0,111	-0,059
-531,335	-200,000	0,008	0,083
-530,321	-200,000	0,010	-0,064
-529,306	11,158	0,079	-0,044
-528,291	-40,156	0,052	0,020
-527,277	-200,000	0,022	-0,109
-526,262	179,911	-0,083	-0,089
-525,248	145,431	-0,080	0,079
-524,233	-200,000	0,002	-0,040
-523,218	-83,644	0,066	0,015
-522,204	-200,000	0,012	0,109
-521,189	-200,000	-0,006	0,053
-520,175	-200,000	-0,004	-0,042
-519,160	-111,379	-0,050	0,007
-518,145	800,000	0,016	-0,038
-517,131	306,542	-0,125	-0,171
-516,116	-26,953	-0,067	-0,028
-515,102	800,000	-0,044	0,093
-514,087	356,401	-0,054	0,079
-513,072	52,484	0,120	-0,084
-512,058	-75,929	0,085	-0,022
-511,043	800,000	0,026	0,068
-510,029	-200,000	-0,003	-0,023
-509,014	243,850	-0,056	-0,069
-507,999	-103,546	0,117	-0,020
-506,985	40,826	0,094	-0,062
-505,970	800,000	-0,041	-0,088
-504,956	274,507	0,038	0,049
-503,941	408,132	0,031	0,047
-502,926	332,138	0,138	0,195
-501,912	175,751	-0,034	-0,036
-500,897	-148,996	0,109	-0,006
-499,883	-93,461	-0,082	-0,016
-498,868	128,451	-0,034	0,031
-497,853	-125,291	0,023	0,003
-496,839	570,897	-0,075	-0,133
-495,824	603,347	0,041	0,075
-494,810	800,000	-0,031	0,098
-493,795	-54,859	0,047	-0,015
-492,781	458,114	0,045	0,073
-491,766	800,000	-0,043	0,107
-490,751	279,075	-0,019	0,025
-489,737	-96,034	0,109	0,021
-488,722	11,754	-0,132	-0,074
-487,708	217,233	0,102	0,118
-486,693	-200,000	0,002	-0,050
-485,678	662,288	-0,061	0,116
-484,664	800,000	-0,024	0,051
-483,649	-100,484	0,047	-0,008
-482,635	-120,597	0,053	0,006
-481,620	-130,169	0,114	0,011
-480,605	552,093	-0,030	0,053
-479,591	-200,000	-0,011	0,086
-478,576	-2,656	-0,048	0,024
-477,562	148,540	-0,066	-0,065
-476,547	376,865	-0,027	0,040
-475,532	134,534	-0,010	-0,009
-474,518	590,994	0,022	-0,039
-473,503	369,263	-0,105	-0,155
-472,489	142,113	0,036	-0,035
-471,474	800,000	-0,042	0,124
-470,459	242,526	0,050	-0,062
-469,445	-200,000	-0,015	-0,058
-468,430	46,698	0,108	0,073
-467,416	800,000	-0,040	0,101
-466,401	800,000	0,020	-0,061
-465,386	-200,000	0,014	0,114
-464,372	509,693	-0,044	-0,074
-463,357	-200,000	0,019	-0,113
-462,343	22,184	-0,080	-0,047
-461,328	-23,401	-0,061	-0,027
-460,313	-71,379	-0,088	0,024
-459,299	460,297	-0,041	0,066
-458,284	800,000	-0,022	0,057
-457,270	-200,000	-0,036	0,168
-456,255	22,480	-0,126	-0,075
-455,241	386,019	-0,057	0,086
-454,226	-88,011	-0,044	-0,010
-453,211	-131,394	-0,034	0,003
-452,197	-41,026	0,135	-0,051
-451,182	-200,000	-0,001	0,113
-450,168	290,880	0,067	-0,089
-449,153	-200,000	0,004	-0,062
-448,138	-200,000	-0,022	0,121
-447,124	-107,166	-0,126	-0,020
-446,109	170,298	0,057	0,060
-445,095	140,267	-0,039	-0,037
-444,080	29,225	0,059	0,037
-443,065	-200,000	0,026	0,106
-442,051	316,684	-0,050	-0,069
-441,036	134,498	-0,049	-0,046
-440,022	398,462	-0,040	-0,061
-439,007	423,493	0,003	-0,004
-437,992	-200,000	0,010	-0,060
-436,978	-200,000	0,007	-0,141
-435,963	-200,000	0,020	0,081
-434,949	654,791	0,038	0,071
-433,934	231,442	0,042	-0,050
-432,919	-200,000	-0,042	-0,141
-431,905	237,207	0,079	-0,096
-430,890	691,402	-0,036	0,069
-429,876	100,514	-0,049	-0,041
-428,861	800,000	-0,044	0,101
-427,846	8,883	0,015	0,008
-426,832	-20,000	-0,100	-0,045
-425,817	-200,000	0,012	-0,076
-424,803	152,936	-0,118	-0,117
-423,788	-150,240	-0,335	-0,019
-422,773	18,895	0,066	0,038
-421,759	84,921	-0,056	-0,045
-420,744	708,752	-0,061	0,118
-419,730	265,546	-0,027	-0,035
-418,715	271,619	0,028	0,036
-417,701	31,239	-0,050	0,031
-416,686	-113,468	0,153	-0,022
-415,671	194,969	0,080	0,088
-414,657	800,000	0,055	0,121
-413,642	800,000	-0,030	0,075
-412,628	439,450	-0,085	0,136
-411,613	384,271	-0,044	-0,067
-410,598	-86,836	0,053	-0,012
-409,584	-0,919	-0,069	-0,036
-408,569	241,312	0,055	0,067
-407,555	297,742	0,040	-0,053
-406,540	-26,359	-0,118	0,050
-405,525	-200,000	0,001	-0,105
-404,511	-71,406	-0,025	-0,007
-403,496	749,876	0,050	0,099
-402,482	-63,433	0,065	0,019
-401,467	-134,477	0,138	0,012
-400,452	-200,000	0,033	0,120
-399,438	51,617	0,061	-0,042
-398,423	-200,000	0,019	-0,142
-397,409	-200,000	0,000	0,026
-396,394	-101,813	0,090	-0,016
-395,379	183,611	0,087	-0,094
-394,365	-146,037	0,175	-0,011
-393,350	-200,000	0,010	-0,105
-392,336	800,000	-0,012	-0,038
-391,321	429,466	-0,097	0,153
-390,306	-59,170	-0,161	-0,050
-389,292	-61,546	0,102	-0,031
-388,277	382,414	-0,011	0,017
-387,263	63,177	0,125	-0,091
-386,248	0,589	-0,026	-0,013
-385,233	-200,000	-0,027	0,129
-384,219	-55,564	-0,044	-0,014
-383,204	-44,461	-0,087	-0,032
-382,190	80,051	0,064	-0,050
-381,175	558,339	0,032	-0,056
-380,160	28,589	-0,038	0,023
-379,146	8,597	0,054	-0,030
-378,131	800,000	0,035	0,077
-377,117	-200,000	-0,034	-0,136
-376,102	101,738	0,136	-0,115
-375,088	-200,000	-0,019	-0,080
-374,073	-200,000	0,030	0,107
-373,058	22,419	0,069	-0,041
-372,044	-100,982	0,054	0,010
-371,029	293,669	0,056	0,075
-370,015	34,614	-0,140	0,088
-369,000	269,932	-0,049	-0,063
-367,985	-101,551	-0,092	0,016
-366,971	686,703	-0,037	0,070
-365,956	-200,000	0,008	0,075
-364,942	67,138	0,164	0,121
-363,927	311,059	0,039	0,053
-362,912	-63,076	0,028	-0,008
-361,898	-200,000	-0,004	0,095
-360,883	444,688	0,072	0,116
-359,869	-200,000	-0,010	0,039
-358,854	-113,612	0,133	0,019
-357,839	-48,750	0,119	0,041
-356,825	-200,000	0,021	0,190
-355,810	44,933	0,063	-0,042
-354,796	-200,000	0,000	-0,013
-353,781	-36,453	-0,103	0,040
-352,766	-200,000	0,005	-0,024
-351,752	217,413	-0,064	0,074
-350,737	-160,481	0,089	0,003
-349,723	56,133	-0,045	0,031
-348,708	-72,995	0,160	-0,042
-347,693	30,698	0,111	-0,069
-346,679	-100,066	-0,089	0,016
-345,664	-200,000	-0,005	-0,033
-344,650	-200,000	-0,012	0,134
-343,635	-146,978	0,154	0,009
-342,620	-7,220	-0,041	0,020
-341,606	-101,982	-0,185	-0,032
-340,591	515,587	0,005	-0,008
-339,577	73,078	-0,051	0,039
-338,562	235,408	-0,076	-0,092
-337,548	-200,000	0,002	-0,091
-336,533	468,192	-0,070	0,115
-335,518	800,000	0,080	0,220
-334,504	192,411	-0,024	0,026
-333,489	84,337	-0,059	-0,047
-332,475	343,672	0,067	-0,096
-331,460	-93,863	0,131	0,026
-330,445	516,351	-0,066	0,112
-329,431	-200,000	-0,011	0,175
-328,416	-200,000	0,006	0,093
-327,402	214,231	0,141	0,161
-326,387	800,000	0,029	0,067
-325,372	800,000	0,048	-0,097
-324,358	-164,359	0,121	-0,004
-323,343	-200,000	-0,004	-0,120
-322,329	-200,000	-0,017	-0,109
-321,314	-122,949	-0,058	-0,007
-320,299	455,713	0,052	0,084
-319,285	169,144	-0,121	0,125
-318,270	-40,304	0,031	-0,012
-317,256	-200,000	-0,032	-0,105
-316,241	-135,755	-0,094	0,008
-315,226	14,957	0,093	-0,053
-314,212	209,009	0,083	0,095
-313,197	-200,000	-0,003	-0,092
-312,183	-138,015	-0,146	0,012
-311,168	531,210	0,029	0,049
-310,153	-200,000	-0,023	-0,171
-309,139	53,597	-0,076	0,053
-308,124	-1,138	0,123	-0,063
-307,110	267,293	0,103	0,130
-306,095	-178,543	-0,083	-0,001
-305,080	-58,936	-0,082	-0,026
-304,066	-20,984	0,064	-0,028
-303,051	-200,000	-0,004	0,057
-302,037	394,487	-0,052	-0,079
-301,022	30,112	0,045	-0,028
-300,008	-160,733	0,088	-0,003
-298,993	39,415	0,120	-0,077
-297,978	-200,000	0,001	-0,148
-296,964	94,577	-0,029	0,023
-295,949	-21,948	0,057	0,025
-294,935	-62,978	0,076	0,023
-293,920	800,000	-0,038	-0,098
-292,905	800,000	0,071	0,144
-291,891	-68,004	0,102	-0,029
-290,876	8,044	-0,050	-0,027
-289,862	-105,612	-0,071	0,011
-288,847	-7,868	0,189	-0,092
-287,832	-200,000	-0,006	-0,069
-286,818	302,544	0,029	-0,039
-285,803	-200,000	0,010	0,036
-284,789	218,840	0,005	0,006
-283,774	151,922	-0,042	0,041
-282,759	60,530	-0,058	-0,041
-281,745	-190,261	-0,103	0,001
-280,730	310,459	0,056	-0,076
-279,716	12,971	-0,058	0,032
-278,701	-200,000	-0,008	-0,053
-277,686	-102,049	0,122	0,021
-276,672	630,057	-0,065	0,120
-275,657	-175,826	-0,071	0,001
-274,643	800,000	-0,028	-0,080
-273,628	800,000	-0,091	0,218
-272,613	81,764	0,034	-0,026
-271,599	-111,623	-0,062	0,009
-270,584	654,605	0,034	-0,063
-269,570	-200,000	-0,028	0,182
-268,555	800,000	0,023	-0,058
-267,540	-24,143	-0,106	-0,046
-266,526	800,000	-0,030	-0,064
-265,511	-57,019	-0,108	0,034
-264,497	800,000	-0,048	0,125
-263,482	-200,000	0,009	0,158
-262,467	-200,000	0,011	-0,092
-261,453	-200,000	-0,007	0,083
-260,438	-200,000	-0,007	-0,072
-259,424	-64,184	0,015	-0,004
-258,409	800,000	-0,016	-0,034
-257,395	800,000	-0,012	-0,030
-256,380	688,375	0,081	-0,153
-255,365	-166,438	-0,093	-0,003
-254,351	401,407	-0,042	0,065
-253,336	719,466	0,032	0,062
-252,322	-83,934	-0,109	-0,025
-251,307	-200,000	0,034	-0,145
-250,292	491,558	-0,068	0,113
-249,278	-13,613	0,157	-0,073
-248,263	-11,091	-0,055	-0,026
-247,249	-183,189	0,073	0,001
-246,234	-200,000	0,003	0,044
-245,219	-63,861	-0,027	0,008
-244,205	-69,061	0,027	0,008
-243,190	-200,000	-0,017	-0,115
-242,176	46,225	0,012	0,008
-241,161	800,000	-0,045	0,105
-240,146	124,814	-0,043	0,039
-239,132	-37,795	-0,016	-0,006
-238,117	143,021	-0,141	-0,136
-237,103	800,000	0,018	-0,037
-236,088	219,755	-0,056	-0,065
-235,073	-112,014	0,064	-0,009
-234,059	800,000	0,028	0,073
-233,044	108,545	0,075	0,064
-232,030	-188,452	-0,080	-0,001
-231,015	-15,160	0,032	-0,015
-230,000	-200,000	-0,043	-0,164
-228,986	-200,000	-0,013	0,048
-227,971	800,000	0,042	-0,095
-226,957	-85,751	0,063	0,014
-225,942	74,548	0,043	-0,033
-224,927	387,801	0,116	0,174
-223,913	-63,447	-0,082	0,024
-222,898	-200,000	0,016	-0,100
-221,884	-200,000	-0,013	0,061
-220,869	-68,184	-0,100	-0,028
-219,855	800,000	-0,044	0,115
-218,840	48,436	-0,131	0,088
-217,825	242,469	0,069	-0,083
-216,811	292,490	0,095	-0,125
-215,796	-113,707	-0,138	0,019
-214,782	-200,000	0,005	0,093
-213,767	-200,000	0,007	0,129
-212,752	32,195	0,091	0,057
-211,738	7,660	-0,089	-0,048
-210,723	265,472	0,073	0,092
-209,709	649,425	0,097	0,179
-208,694	-143,873	-0,080	0,005
-207,679	800,000	0,051	-0,128
-206,665	-200,000	0,016	0,082
-205,650	227,901	0,090	0,105
-204,636	11,241	-0,084	-0,046
-203,621	86,160	-0,047	-0,037
-202,606	47,279	-0,028	-0,019
-201,592	-1,300	-0,110	-0,056
-200,577	-80,131	-0,130	-0,031
-199,563	-41,774	0,064	-0,024
-198,548	800,000	-0,037	0,087
-197,533	313,665	-0,025	0,034
-196,519	379,136	0,020	0,030
-195,504	-110,485	0,027	0,004
-194,490	-200,000	0,008	0,115
-193,475	-9,139	0,021	0,010
-192,460	-200,000	0,001	-0,036
-191,446	-39,104	-0,077	-0,029
-190,431	65,010	0,105	0,076
-189,417	-73,878	-0,064	-0,017
-188,402	69,198	-0,144	0,106
-187,387	4,491	0,090	-0,048
-186,373	137,656	0,043	0,041
-185,358	-200,000	-0,021	-0,084
-184,344	57,740	-0,054	0,038
-183,329	-118,182	0,112	-0,014
-182,315	-200,000	0,026	0,155
-181,300	624,714	0,048	0,087
-180,285	800,000	-0,019	-0,059
-179,271	491,283	-0,097	-0,160
-178,256	-64,213	0,145	-0,042
-177,242	395,280	-0,011	0,017
-176,227	-9,814	0,055	-0,026
-175,212	-200,000	0,014	0,081
-174,198	200,198	0,057	0,063
-173,183	-94,621	-0,100	0,019
-172,169	-200,000	0,014	0,063
-171,154	-200,000	-0,002	-0,054
-170,139	-200,000	0,001	0,114
-169,125	-131,389	0,102	0,010
-168,110	-133,988	0,103	-0,009
-167,096	-151,980	-0,064	0,003
-166,081	-6,714	-0,140	-0,068
-165,066	-200,000	-0,006	0,100
-164,052	-40,745	-0,080	0,030
-163,037	-23,683	0,132	0,057
-162,023	-39,364	0,085	0,032
-161,008	-11,059	0,098	-0,046
-159,993	179,301	0,033	-0,035
-158,979	21,354	-0,042	-0,025
-157,964	7,854	0,019	0,010
-156,950	-90,391	-0,009	-0,002
-155,935	157,851	0,014	0,014
-154,920	688,574	-0,048	0,091
-153,906	-6,606	0,168	0,082
-152,891	800,000	-0,071	0,217
-151,877	355,570	-0,096	-0,138
-150,862	191,197	-0,077	0,083
-149,847	-118,064	0,169	0,022
-148,833	343,003	0,082	0,116
-147,818	800,000	-0,064	-0,146
-146,804	800,000	0,039	0,081
-145,789	-200,000	-0,034	0,221
-144,775	123,461	-0,024	-0,022
-143,760	-90,013	-0,050	-0,010
-142,745	326,833	0,063	0,087
-141,731	-200,000	-0,015	0,206
-140,716	-140,274	-0,071	-0,005
-139,702	-200,000	0,010	-0,084
-138,687	-117,908	-0,062	-0,008
-137,672	233,286	0,020	0,024
-136,658	92,173	-0,094	0,076
-135,643	37,356	-0,075	-0,048
-134,629	-78,250	0,076	-0,019
-133,614	-200,000	-0,005	-0,020
-132,599	800,000	-0,040	0,085
-131,585	-200,000	0,009	-0,046
-130,570	-200,000	0,044	-0,160
-129,556	92,358	-0,097	-0,079
-128,541	-32,851	0,053	-0,021
-127,526	74,823	-0,053	0,040
-126,512	800,000	-0,018	-0,040
-125,497	-109,024	0,085	-0,013
-124,483	-200,000	-0,023	-0,105
-123,468	74,886	-0,057	0,043
-122,453	328,528	-0,070	-0,098
-121,439	-200,000	-0,029	-0,102
-120,424	360,699	-0,072	-0,104
-119,410	7,122	-0,015	-0,008
-118,395	-113,504	0,089	-0,012
-117,380	232,103	0,058	-0,068
-116,366	59,119	-0,059	-0,042
-115,351	-200,000	-0,017	-0,061
-114,337	-200,000	-0,016	0,067
-113,322	7,209	0,027	-0,015
-112,307	-200,000	-0,020	0,124
-111,293	-56,756	0,149	-0,047
-110,278	-52,498	0,060	0,020
-109,264	96,114	-0,036	0,029
-108,249	-200,000	-0,009	-0,167
-107,234	-200,000	0,010	-0,129
-106,220	413,619	-0,054	-0,083
-105,205	333,799	0,109	-0,152
-104,191	60,013	0,023	0,017
-103,176	-31,733	-0,098	0,039
-102,162	22,723	0,078	-0,046
-101,147	-167,873	-0,099	0,003
-100,132	-168,643	-0,063	0,002
-99,118	800,000	0,021	-0,047
-98,103	-200,000	-0,000	-0,021
-97,089	300,065	0,076	0,101
-96,074	-200,000	0,003	0,017
-95,059	24,215	0,147	-0,087
-94,045	-48,896	0,108	0,037
-93,030	-200,000	0,001	-0,009
-92,016	39,533	-0,056	0,036
-91,001	187,049	-0,047	0,050
-89,986	-106,031	0,015	0,002
-88,972	-47,080	0,065	-0,023
-87,957	454,597	0,048	0,076
-86,943	-200,000	0,012	-0,079
-85,928	51,310	0,130	-0,089
-84,913	34,158	-0,094	-0,059
-83,899	521,100	-0,041	0,069
-82,884	-144,298	0,103	-0,007
-81,870	-170,066	0,093	0,002
-80,855	-200,000	-0,006	-0,058
-79,840	189,229	0,020	0,021
-78,826	352,793	-0,055	0,079
-77,811	-200,000	-0,001	0,047
-76,797	800,000	0,059	0,161
-75,782	-200,000	0,039	0,175
-74,767	-177,349	0,160	-0,003
-73,753	110,478	-0,083	-0,072
-72,738	-200,000	-0,009	0,113
-71,724	-7,625	-0,168	0,081
-70,709	412,560	-0,109	-0,167
-69,694	201,862	0,111	-0,123
-68,680	420,236	-0,039	0,061
-67,665	-200,000	-0,056	-0,189
-66,651	234,754	-0,064	-0,076
-65,636	13,338	-0,085	0,047
-64,622	89,827	-0,160	-0,128
-63,607	-59,168	0,133	-0,041
-62,592	177,549	-0,022	-0,023
-61,578	-1,307	-0,073	0,037
-60,563	218,948	0,033	0,038
-59,549	-200,000	0,007	-0,118
-58,534	37,802	-1,994	-1,268
-57,519	-200,000	-0,037	-0,883
-56,505	-200,000	-1,273	-5,086
-55,490	208,438	0,787	0,884
-54,476	800,000	5,460	11,979
-53,461	-200,000	18,756	316,911
-52,446	800,000	741,175	2332,999
-51,432	558,327	1657,146	2878,001
-50,417	111,087	1640,918	1416,809
-49,403	75,474	1290,860	975,999
-48,388	30,340	1031,361	630,205
-47,373	19,859	994,257	572,798
-46,359	17,436	981,867	557,658
-45,344	14,057	978,077	544,370
-44,330	14,321	976,439	544,305
-43,315	13,665	974,554	541,079
-42,300	13,615	973,574	540,350
-41,286	13,621	972,559	539,782
-40,271	13,656	971,647	539,370
-39,257	13,653	970,916	538,932
-38,242	13,693	969,906	538,483
-37,227	13,733	968,923	538,046
-36,213	13,673	968,124	537,386
-35,198	13,609	966,967	536,513
-34,184	13,673	966,574	536,483
-33,169	13,636	965,539	535,765
-32,154	13,675	964,541	535,318
-31,140	13,636	963,725	534,716
-30,125	13,712	962,968	534,521
-29,111	13,657	962,070	533,823
-28,096	13,670	961,385	533,464
-27,082	13,711	960,824	533,265
-26,067	13,714	960,059	532,830
-25,052	13,707	959,094	532,250
-24,038	13,697	958,485	531,857
-23,023	13,641	957,948	531,359
-22,009	13,750	957,305	531,332
-20,994	13,763	956,640	530,984
-19,979	13,730	956,022	530,513
-18,965	13,653	955,517	529,965
-17,950	13,730	954,709	529,744
-16,936	13,651	954,370	529,279
-15,921	13,619	953,525	528,689
-14,906	13,592	952,772	528,162
-13,892	13,583	952,134	527,758
-12,877	13,556	951,387	527,239
-11,863	13,618	950,668	527,018
-10,848	13,537	950,320	526,543
-9,833	13,661	949,772	526,616
-8,819	13,651	949,001	526,137
-7,804	13,566	948,421	525,522
-6,790	13,573	947,847	525,206
-5,775	13,636	947,387	525,131
-4,760	13,617	946,849	524,750
-3,746	13,592	946,036	524,201
-2,731	13,454	945,395	523,384
-1,717	13,418	944,811	522,926
-0,702	13,398	944,108	522,452
0,313	13,223	943,469	522,333
1,327	16,509	941,020	531,332
2,342	25,643	795,681	473,531
3,356	21,955	460,271	268,236
4,371	-4,900	317,246	156,068
5,386	-8,829	299,186	143,155
6,400	-10,782	292,933	138,195
7,415	-11,285	290,711	136,634
8,429	-11,220	288,852	135,812
9,444	-11,578	288,194	135,138
10,459	-11,429	287,427	134,913
11,473	-11,339	286,692	134,643
12,488	-11,187	286,281	134,588
13,502	-11,404	285,745	134,111
14,517	-11,382	285,361	133,941
15,531	-11,488	284,767	133,547
16,546	-11,291	284,444	133,576
17,561	-11,732	284,254	133,045
18,575	-11,381	283,820	133,171
19,590	-11,495	283,287	132,799
20,604	-11,405	283,177	132,822
21,619	-11,364	282,670	132,612
22,634	-11,438	282,352	132,380
23,648	-11,421	282,021	132,229
24,663	-11,539	281,847	132,022
25,677	-11,482	281,529	131,917
26,692	-11,525	281,384	131,795
27,707	-11,261	281,032	131,872
28,721	-11,457	280,599	131,469
29,736	-11,419	280,357	131,380
30,750	-11,401	280,096	131,263
31,765	-11,458	280,063	131,181
32,780	-11,426	279,702	131,032
33,794	-11,513	279,368	130,781
34,809	-11,449	279,072	130,691
35,823	-11,552	278,982	130,540
36,838	-11,469	278,606	130,431
37,853	-11,567	278,464	130,260
38,867	-11,430	278,181	130,246
39,882	-11,611	277,943	129,951
40,896	-11,407	277,626	129,985
41,911	-11,547	277,387	129,728
42,926	-11,429	277,122	129,705
43,940	-11,535	276,881	129,480
44,955	-11,417	276,685	129,488
45,969	-11,499	276,393	129,263
46,984	-11,626	276,141	129,014
47,999	-11,912	275,904	128,623
49,013	-12,168	275,809	128,326
50,028	-11,985	275,223	128,214
51,042	-12,068	275,108	128,071
52,057	-12,274	274,856	127,749
53,071	-12,104	274,694	127,821
54,086	-11,963	274,501	127,852
55,101	-11,788	274,389	127,953
56,115	-11,703	274,305	127,982
57,130	-11,336	274,005	128,172
58,144	-11,375	273,781	128,019
59,159	-11,424	273,558	127,859
60,174	-11,381	273,427	127,826
61,188	-11,408	273,031	127,604
62,203	-11,376	272,786	127,508
63,217	-11,340	272,757	127,517
64,232	-11,335	272,428	127,356
65,247	-11,257	272,100	127,263
66,261	-11,243	271,834	127,141
67,276	-11,494	271,607	126,792
68,290	-11,738	271,436	126,475
69,305	-11,806	271,153	126,268
70,320	-11,703	270,994	126,278
71,334	-11,638	270,861	126,265
72,349	-11,483	270,724	126,333
73,363	-11,289	270,505	126,398
74,378	-11,105	270,076	126,355
75,393	-11,510	269,898	125,889
76,407	-11,496	269,882	125,883
77,422	-11,390	269,498	125,789
78,436	-11,386	269,384	125,729
79,451	-11,295	268,970	125,608
80,466	-11,267	268,847	125,565
81,480	-11,511	268,583	125,207
82,495	-11,689	268,391	124,945
83,509	-11,466	268,161	125,030
84,524	-11,597	267,904	124,779
85,539	-11,637	267,766	124,668
86,553	-11,621	267,527	124,559
87,568	-11,664	267,252	124,382
88,582	-11,648	267,207	124,364
89,597	-11,505	266,948	124,362
90,611	-11,437	266,778	124,333
91,626	-11,340	266,546	124,302
92,641	-11,353	266,498	124,256
93,655	-11,409	266,078	123,999
94,670	-11,260	265,788	123,987
95,684	-11,418	265,616	123,754
96,699	-11,528	265,517	123,597
97,714	-11,448	265,259	123,538
98,728	-11,587	265,005	123,284
99,743	-11,725	264,796	123,052
100,757	-11,591	264,543	123,043
101,772	-11,468	264,456	123,103
102,787	-11,551	264,247	122,920
103,801	-11,482	264,165	122,933
104,816	-11,376	263,972	122,926
105,830	-11,246	263,699	122,904
106,845	-11,424	263,730	122,748
107,860	-11,343	263,308	122,614
108,874	-11,458	263,145	122,424
109,889	-11,438	262,985	122,357
110,903	-11,514	262,755	122,171
111,918	-11,492	262,503	122,063
112,933	-11,446	262,237	121,969
113,947	-11,372	262,246	122,028
114,962	-11,289	261,940	121,948
115,976	-11,380	261,702	121,746
116,991	-11,558	261,585	121,523
118,006	-11,313	261,467	121,675
119,020	-11,318	261,240	121,554
120,035	-11,305	261,231	121,550
121,049	-11,420	261,071	121,363
122,064	-11,386	260,691	121,205
123,079	-11,232	260,512	121,247
124,093	-11,447	260,231	120,916
125,108	-11,466	259,996	120,780
126,122	-11,581	259,674	120,519
127,137	-11,876	259,570	120,200
128,151	-11,734	259,352	120,213
129,166	-11,563	259,117	120,244
130,181	-11,532	258,920	120,168
131,195	-11,824	258,676	119,789
132,210	-11,502	258,607	120,028
133,224	-11,399	258,446	120,033
134,239	-11,293	258,266	120,031
135,254	-11,437	258,168	119,849
136,268	-11,445	257,784	119,653
137,283	-11,538	257,562	119,459
138,297	-11,643	257,352	119,259
139,312	-11,829	257,231	119,030
140,327	-11,463	257,028	119,244
141,341	-11,469	257,054	119,240
142,356	-11,293	256,749	119,241
143,370	-11,302	256,525	119,119
144,385	-11,295	256,584	119,142
145,400	-11,118	256,109	119,063
146,414	-11,233	256,073	118,936
147,429	-11,148	255,923	118,930
148,443	-11,285	255,810	118,748
149,458	-11,119	255,514	118,743
150,473	-11,186	255,291	118,572
151,487	-11,247	255,075	118,408
152,502	-11,269	254,876	118,286
153,516	-11,257	254,803	118,252
154,531	-11,293	254,610	118,120
155,546	-11,102	254,385	118,170
156,560	-11,207	254,175	117,972
157,575	-11,160	253,924	117,885
158,589	-11,186	253,747	117,770
159,604	-11,230	253,682	117,692
160,619	-11,262	253,527	117,582
161,633	-11,103	253,199	117,555
162,648	-11,186	253,083	117,420
163,662	-11,080	252,950	117,438
164,677	-11,261	252,750	117,181
165,692	-11,289	252,552	117,055
166,706	-11,437	252,374	116,836
167,721	-11,308	252,343	116,920
168,735	-11,255	252,215	116,896
169,750	-11,114	252,067	116,937
170,764	-11,096	251,836	116,835
171,779	-11,047	251,666	116,787
172,794	-11,224	251,443	116,523
173,808	-11,275	251,222	116,367
174,823	-11,783	251,086	115,863
175,837	-11,874	250,891	115,686
176,852	-11,509	250,675	115,885
177,867	-11,020	250,545	116,228
178,881	-11,271	250,496	115,983
179,896	-11,086	250,145	115,966
180,910	-11,153	250,177	115,913
181,925	-11,252	250,007	115,741
182,940	-11,088	249,782	115,764
183,954	-11,081	249,454	115,608
184,969	-11,261	249,437	115,438
185,983	-11,233	249,258	115,369
186,998	-11,264	249,060	115,241
188,013	-11,107	248,952	115,312
189,027	-11,119	248,746	115,196
190,042	-11,017	248,459	115,139
191,056	-11,045	248,301	115,032
192,071	-10,930	248,161	115,052
193,086	-11,063	248,004	114,859
194,100	-11,067	247,747	114,726
195,115	-11,058	247,777	114,737
196,129	-11,173	247,467	114,488
197,144	-11,163	247,283	114,401
198,159	-11,131	246,940	114,258
199,173	-10,913	246,815	114,371
200,188	-11,115	246,622	114,104
201,202	-11,529	246,411	113,654
202,217	-11,640	246,120	113,417
203,232	-11,431	245,770	113,418
204,246	-11,241	245,920	113,635
205,261	-10,944	245,827	113,827
206,275	-11,565	245,592	113,195
207,290	-6,638	247,515	118,168
208,304	1,215	250,047	125,940
209,319	4,197	250,839	128,823
210,334	4,875	250,698	129,305
211,348	4,907	250,718	129,330
212,363	5,187	250,603	129,494
213,377	5,315	250,514	129,543
214,392	5,075	250,357	129,250
215,407	4,973	250,197	129,071
216,421	5,048	250,078	129,060
217,436	5,105	250,014	129,064
218,450	5,247	249,712	129,014
219,465	5,369	249,444	128,965
220,480	4,822	249,231	128,390
221,494	4,777	249,042	128,244
222,509	4,890	248,817	128,210
223,523	5,013	248,659	128,219
224,538	4,682	248,278	127,738
225,553	4,651	248,342	127,734
226,567	4,799	248,060	127,699
227,582	4,783	247,971	127,629
228,596	4,691	247,983	127,548
229,611	4,410	247,656	127,137
230,626	4,200	247,481	126,862
231,640	4,254	247,395	126,851
232,655	4,583	247,140	126,980
233,669	4,201	246,970	126,568
234,684	4,092	246,872	126,416
235,699	4,585	246,805	126,776
236,713	4,833	246,632	126,879
237,728	4,520	246,244	126,412
238,742	4,486	246,082	126,289
239,757	4,116	245,916	125,891
240,772	4,212	245,891	125,945
241,786	4,600	245,609	126,106
242,801	4,280	245,486	125,770
243,815	4,380	245,229	125,709
244,830	4,553	245,344	125,898
245,844	4,423	245,118	125,665
246,859	4,497	244,955	125,631
247,874	4,382	244,604	125,346
248,888	4,450	244,643	125,410
249,903	4,286	244,683	125,286
250,917	4,516	244,293	125,262
251,932	4,991	244,169	125,572
252,947	4,660	244,048	125,230
253,961	4,353	243,863	124,876
254,976	4,556	243,684	124,937
255,990	4,733	243,547	124,999
257,005	4,547	243,276	124,699
258,020	4,257	243,082	124,354
259,034	4,416	242,939	124,398
260,049	4,585	242,875	124,490
261,063	4,464	242,627	124,254
262,078	4,526	242,458	124,207
263,093	4,873	242,485	124,489
264,107	4,539	242,250	124,088
265,122	4,376	242,065	123,852
266,136	4,617	241,879	123,939
267,151	4,871	241,772	124,077
268,166	4,354	241,647	123,587
269,180	4,368	241,468	123,496
270,195	4,869	241,378	123,840
271,209	5,087	241,270	123,947
272,224	4,586	241,046	123,421
273,239	4,216	240,695	122,936
274,253	4,218	240,660	122,908
275,268	4,697	240,442	123,167
276,282	4,623	240,438	123,095
277,297	4,371	239,974	122,647
278,312	4,440	240,005	122,706
279,326	4,485	239,955	122,706
280,341	4,610	239,830	122,730
281,355	4,734	239,652	122,726
282,370	4,674	239,486	122,583
283,384	4,459	239,278	122,295
284,399	4,428	239,050	122,143
285,414	4,290	239,064	122,031
286,428	4,382	238,890	122,003
287,443	4,442	238,759	121,973
288,457	4,486	238,707	121,970
289,472	4,794	238,313	122,000
290,487	4,521	238,243	121,739
291,501	4,518	238,075	121,640
292,516	4,234	237,853	121,292
293,530	4,049	237,885	121,152
294,545	4,526	237,744	121,444
295,560	4,551	237,603	121,382
296,574	4,442	237,193	121,076
297,589	4,394	237,121	120,990
298,603	4,659	237,111	121,182
299,618	4,502	237,116	121,051
300,633	4,512	236,734	120,853
301,647	4,568	236,744	120,891
302,662	4,995	236,652	121,167
303,676	5,060	236,296	121,025
304,691	4,728	236,202	120,707
305,706	5,003	236,082	120,849
306,720	5,110	235,920	120,839
307,735	4,736	235,757	120,454
308,749	4,700	235,573	120,321
309,764	4,349	235,419	119,959
310,779	4,315	235,273	119,847
311,793	4,114	235,041	119,562
312,808	4,199	234,923	119,557
313,822	4,169	234,540	119,329
314,837	3,968	234,494	119,139
315,852	4,225	234,388	119,273
316,866	4,776	234,454	119,722
317,881	5,080	234,308	119,872
318,895	5,041	234,201	119,777
319,910	4,904	234,053	119,585
320,925	4,557	233,739	119,145
321,939	4,297	233,456	118,791
322,954	4,714	233,408	119,077
323,968	4,553	233,367	118,921
324,983	4,573	233,266	118,875
325,997	4,635	233,267	118,912
327,012	4,958	232,971	118,999
328,027	4,679	232,823	118,699
329,041	4,792	232,783	118,754
330,056	5,164	232,704	118,989
331,070	5,395	232,478	119,039
332,085	5,021	232,160	118,580
333,100	4,722	232,094	118,307
334,114	4,655	231,915	118,154
335,129	4,915	231,879	118,324
336,143	5,023	231,672	118,290
337,158	4,969	231,497	118,149
338,173	4,554	231,267	117,704
339,187	4,442	231,027	117,487
340,202	4,870	230,931	117,754
341,216	4,708	230,829	117,567
342,231	4,486	230,698	117,322
343,246	4,470	230,595	117,247
344,260	4,748	230,406	117,351
345,275	4,924	230,324	117,432
346,289	4,853	230,224	117,317
347,304	4,725	230,121	117,157
348,319	4,954	229,930	117,222
349,333	4,710	229,737	116,929
350,348	4,601	229,529	116,731
351,362	4,810	229,355	116,790
352,377	4,539	229,162	116,477
353,392	4,252	228,996	116,165
354,406	4,432	228,842	116,212
355,421	195,509	1316,470	1391,610
356,435	156,830	1448,936	1391,569
