DTS Sentinel unit serial number:	SN410029Multiplexer serial number:	ORYXHardware model number:	OX2-SRSoftware version number:	ORYX F/W v4,00 Oryx Data Collector v3.7.2.0data status	okinstallation	B5 Nyhavnadifferential loss correction	single-endedforward channel	channel 2reverse channel	N/Adate	2023/12/11time	20:17:13forward acquisition time	300,00reverse acquisition time	0,00gamma	499,1914k internal	0,3158k external	0,3158temperature offset calibration	1,0000default loss term (dB/km)	0,3820temperature slope calibration	1,0000multiplexer offset coefficient	1,0000multiplexer slope coefficient	1,0000fibre end	0,00T internal ref (°C)	15,93T ext. ref 1 (°C)	0,14T ext. ref 2 (°C)	-0,11length (m)	temperature (°C)	Stokes	anti-Stokes-744,400	-40,490	0,179	0,068
-743,385	-14,173	-0,224	0,106
-742,371	-69,818	0,029	-0,008
-741,356	-112,334	-0,316	0,046
-740,342	-34,832	0,184	0,074
-739,327	-63,417	-0,327	0,099
-738,312	64,074	0,057	-0,042
-737,298	-130,755	-0,361	0,035
-736,283	-38,165	0,071	-0,028
-735,269	-127,588	-0,294	-0,031
-734,254	-19,539	0,123	-0,056
-733,239	-24,159	-0,437	-0,191
-732,225	223,878	0,166	-0,197
-731,210	134,630	0,012	0,012
-730,196	82,205	0,023	-0,018
-729,181	800,000	0,054	0,132
-728,167	78,868	-0,039	-0,030
-727,152	506,095	0,031	0,054
-726,137	-200,000	-0,001	-0,078
-725,123	334,820	0,104	-0,149
-724,108	-54,692	-0,137	-0,045
-723,094	162,204	-0,097	-0,101
-722,079	800,000	-0,036	-0,086
-721,064	113,856	-0,071	-0,064
-720,050	-200,000	0,015	0,071
-719,035	7,595	-0,130	-0,072
-718,021	262,156	-0,038	-0,049
-717,006	364,669	0,037	-0,056
-715,991	-200,000	-0,047	-0,164
-714,977	-141,267	-0,131	0,010
-713,962	-33,244	0,053	-0,021
-712,948	186,120	-0,085	0,093
-711,933	-99,299	0,164	-0,030
-710,918	317,072	0,054	0,075
-709,904	-200,000	-0,009	-0,056
-708,889	1,958	0,124	0,066
-707,875	27,364	-0,052	0,032
-706,860	251,606	-0,118	0,148
-705,845	-136,616	0,081	-0,007
-704,831	800,000	0,058	0,123
-703,816	-5,220	0,076	-0,038
-702,802	-49,132	-0,031	0,011
-701,787	-33,992	-0,148	0,060
-700,772	18,833	-0,059	0,035
-699,758	-50,849	-0,044	-0,015
-698,743	-200,000	-0,003	-0,030
-697,729	309,883	0,028	-0,038
-696,714	-200,000	0,000	-0,067
-695,699	387,113	-0,059	0,090
-694,685	800,000	0,050	-0,114
-693,670	-64,160	-0,195	0,058
-692,656	239,605	0,030	0,037
-691,641	18,883	0,157	0,092
-690,627	800,000	-0,033	0,091
-689,612	-124,698	-0,047	0,005
-688,597	369,244	-0,105	-0,157
-687,583	78,593	-0,119	-0,093
-686,568	-78,430	0,103	0,026
-685,554	147,351	0,058	-0,057
-684,539	66,934	0,031	-0,023
-683,524	155,305	-0,101	0,102
-682,510	90,732	-0,123	0,102
-681,495	-17,130	-0,036	0,017
-680,481	-200,000	0,028	-0,102
-679,466	-200,000	0,006	-0,061
-678,451	83,270	-0,093	0,074
-677,437	674,230	0,048	0,092
-676,422	-14,260	0,063	-0,030
-675,408	800,000	0,031	0,095
-674,393	-170,474	-0,014	-0,000
-673,378	24,849	0,004	-0,002
-672,364	-9,216	0,034	-0,017
-671,349	247,375	-0,073	0,091
-670,335	-151,106	-0,139	0,008
-669,320	47,988	0,066	0,045
-668,305	-9,715	-0,046	0,023
-667,291	-156,782	-0,102	0,005
-666,276	-200,000	-0,004	0,065
-665,262	-6,593	0,082	-0,041
-664,247	213,023	-0,064	0,074
-663,232	-125,337	0,016	0,002
-662,218	10,248	0,016	0,009
-661,203	-200,000	0,032	0,150
-660,189	682,347	-0,033	-0,063
-659,174	72,822	-0,115	-0,088
-658,159	-57,949	0,021	-0,007
-657,145	-200,000	-0,002	-0,058
-656,130	800,000	0,036	0,086
-655,116	81,640	-0,047	0,037
-654,101	800,000	-0,025	0,057
-653,086	190,516	0,051	-0,057
-652,072	204,375	-0,071	0,081
-651,057	-8,754	-0,047	-0,023
-650,043	31,361	0,095	-0,060
-649,028	-132,311	-0,073	0,007
-648,014	-80,219	0,156	-0,038
-646,999	215,364	-0,085	-0,099
-645,984	10,501	0,068	0,038
-644,970	-44,706	0,075	-0,027
-643,955	-131,747	-0,131	0,012
-642,941	-72,834	-0,023	0,006
-641,926	666,068	0,022	-0,043
-640,911	515,072	0,034	-0,059
-639,897	-200,000	-0,001	-0,015
-638,882	-200,000	-0,002	-0,070
-637,868	50,174	-0,084	0,058
-636,853	276,922	-0,088	-0,115
-635,838	-5,276	0,075	0,037
-634,824	-140,889	-0,107	0,008
-633,809	-1,243	-0,010	-0,005
-632,795	-18,743	-0,065	-0,030
-631,780	800,000	0,033	-0,095
-630,765	-46,527	0,096	-0,034
-629,751	143,018	-0,064	-0,063
-628,736	8,635	0,149	-0,082
-627,722	-88,488	0,077	0,017
-626,707	-200,000	-0,044	0,202
-625,692	189,640	-0,079	-0,087
-624,678	-33,722	-0,013	0,005
-623,663	800,000	-0,029	-0,078
-622,649	129,504	-0,059	0,055
-621,634	120,434	0,099	0,090
-620,619	296,965	-0,067	-0,090
-619,605	-200,000	0,012	-0,041
-618,590	-144,888	-0,085	0,006
-617,576	-200,000	-0,001	-0,053
-616,561	-119,695	-0,105	0,013
-615,546	-200,000	-0,030	-0,162
-614,532	-22,223	-0,095	-0,042
-613,517	271,231	-0,112	-0,145
-612,503	-200,000	0,002	-0,012
-611,488	272,160	-0,043	0,056
-610,474	-200,000	0,027	-0,103
-609,459	-200,000	-0,047	0,162
-608,444	-42,746	-0,121	0,045
-607,430	-44,185	0,060	0,022
-606,415	131,301	-0,094	-0,088
-605,401	34,332	-0,125	-0,080
-604,386	-200,000	0,018	0,157
-603,371	-174,480	0,179	-0,004
-602,357	800,000	-0,030	0,072
-601,342	-106,022	-0,106	0,017
-600,328	-76,348	-0,113	0,029
-599,313	237,766	0,102	-0,124
-598,298	-200,000	-0,026	-0,134
-597,284	800,000	-0,020	0,055
-596,269	-200,000	0,004	-0,017
-595,255	132,533	0,031	-0,029
-594,240	-163,818	-0,083	0,003
-593,225	-103,745	-0,176	-0,030
-592,211	-7,330	-0,164	-0,081
-591,196	19,609	0,075	0,044
-590,182	-200,000	-0,020	-0,120
-589,167	-11,391	0,106	0,051
-588,152	436,915	0,049	0,079
-587,138	-11,220	-0,178	0,086
-586,123	10,326	-0,112	-0,062
-585,109	193,660	0,018	-0,020
-584,094	-107,169	-0,117	0,019
-583,079	-200,000	-0,013	0,054
-582,065	472,022	-0,019	-0,031
-581,050	-200,000	-0,032	0,133
-580,036	-21,327	0,165	0,073
-579,021	55,174	-0,138	0,097
-578,006	-133,562	-0,082	-0,007
-576,992	-200,000	-0,002	-0,079
-575,977	405,157	-0,065	-0,101
-574,963	-99,989	0,076	0,014
-573,948	325,101	-0,033	0,046
-572,934	-131,831	-0,074	-0,007
-571,919	800,000	-0,039	-0,100
-570,904	268,939	0,080	0,104
-569,890	-200,000	0,012	-0,070
-568,875	800,000	0,022	-0,045
-567,861	72,941	0,109	0,083
-566,846	101,134	0,138	0,117
-565,831	405,817	0,018	0,029
-564,817	1,308	-0,083	0,044
-563,802	-200,000	0,001	-0,141
-562,788	-107,958	0,052	0,008
-561,773	800,000	0,075	-0,166
-560,758	186,701	0,121	0,132
-559,744	800,000	0,087	0,238
-558,729	27,405	-0,078	0,048
-557,715	286,249	-0,049	-0,065
-556,700	-171,255	-0,045	-0,001
-555,685	52,659	-0,132	-0,092
-554,671	-39,387	0,074	-0,028
-553,656	800,000	0,022	-0,061
-552,642	800,000	-0,031	-0,074
-551,627	-98,347	0,100	-0,019
-550,612	23,798	-0,073	0,044
-549,598	-200,000	0,034	-0,153
-548,583	-200,000	0,006	-0,034
-547,569	800,000	-0,046	0,139
-546,554	-52,442	0,055	0,018
-545,539	800,000	0,040	0,093
-544,525	-40,284	-0,085	-0,032
-543,510	240,009	0,046	0,057
-542,496	-46,469	0,024	-0,008
-541,481	-200,000	0,005	-0,179
-540,466	-58,490	-0,036	-0,011
-539,452	140,766	0,055	-0,053
-538,437	-116,667	0,051	0,007
-537,423	-64,591	0,063	-0,019
-536,408	30,483	0,059	0,037
-535,393	567,632	0,022	-0,040
-534,379	-200,000	0,027	-0,113
-533,364	107,303	-0,107	0,093
-532,350	91,310	-0,046	-0,038
-531,335	68,462	-0,018	-0,014
-530,321	72,796	0,054	-0,041
-529,306	202,842	-0,012	0,014
-528,291	165,111	0,063	-0,065
-527,277	-92,241	0,053	0,011
-526,262	134,307	-0,096	0,091
-525,248	394,693	0,038	-0,059
-524,233	-200,000	0,021	0,088
-523,218	-61,074	0,154	0,047
-522,204	707,609	-0,036	-0,070
-521,189	1,526	-0,038	-0,020
-520,175	166,738	-0,072	-0,075
-519,160	47,276	0,090	0,061
-518,145	78,762	-0,045	-0,035
-517,131	-200,000	-0,020	0,111
-516,116	49,482	0,090	0,062
-515,102	-200,000	0,004	-0,019
-514,087	-95,198	0,034	0,007
-513,072	-200,000	0,016	-0,054
-512,058	800,000	0,023	0,062
-511,043	-200,000	-0,012	0,075
-510,029	-200,000	-0,015	0,056
-509,014	-200,000	0,015	0,131
-507,999	-200,000	0,022	0,141
-506,985	73,041	-0,102	0,078
-505,970	-66,559	0,113	0,032
-504,956	-200,000	-0,007	0,024
-503,941	800,000	-0,033	0,102
-502,926	271,258	-0,031	0,040
-501,912	3,833	0,069	0,037
-500,897	-200,000	0,003	0,010
-499,883	228,984	-0,075	-0,089
-498,868	800,000	-0,030	-0,087
-497,853	147,840	0,113	-0,111
-496,839	-200,000	-0,008	0,057
-495,824	329,546	0,089	0,126
-494,810	-200,000	0,012	0,138
-493,795	138,589	0,058	0,055
-492,781	160,725	0,065	0,066
-491,766	389,319	-0,039	0,059
-490,751	169,885	0,039	0,040
-489,737	496,954	0,073	0,124
-488,722	93,340	0,031	-0,025
-487,708	145,052	-0,053	0,051
-486,693	-21,310	-0,037	0,016
-485,678	800,000	0,024	-0,061
-484,664	45,884	-0,128	0,086
-483,649	140,806	-0,043	-0,041
-482,635	42,345	-0,097	0,064
-481,620	800,000	0,063	0,129
-480,605	60,308	-0,010	0,008
-479,591	-62,438	-0,137	0,041
-478,576	800,000	0,001	-0,003
-477,562	-200,000	0,031	-0,181
-476,547	394,686	0,064	0,097
-475,532	-166,968	-0,062	0,002
-474,518	-122,102	-0,053	-0,006
-473,503	161,993	0,119	0,122
-472,489	12,642	0,120	0,067
-471,474	273,120	-0,078	0,101
-470,459	-16,641	0,124	0,057
-469,445	374,182	0,062	-0,092
-468,430	-86,519	-0,106	0,024
-467,416	3,527	-0,097	-0,052
-466,401	-200,000	-0,002	0,035
-465,386	-200,000	-0,003	-0,046
-464,372	800,000	0,028	0,070
-463,357	-136,544	0,116	-0,010
-462,343	-151,107	-0,100	-0,005
-461,328	800,000	0,033	-0,079
-460,313	-84,686	-0,110	-0,025
-459,299	-200,000	0,019	0,157
-458,284	3,694	0,170	0,090
-457,270	356,452	0,043	-0,062
-456,255	-200,000	0,027	-0,093
-455,241	21,123	-0,133	-0,078
-454,226	-96,682	0,047	0,009
-453,211	530,106	0,087	-0,150
-452,197	-74,724	0,078	0,020
-451,182	-75,577	-0,084	-0,022
-450,168	412,566	-0,040	-0,062
-449,153	-200,000	0,012	-0,137
-448,138	8,177	0,089	-0,048
-447,124	-136,904	-0,077	-0,006
-446,109	-51,445	-0,084	-0,028
-445,095	-168,749	0,164	0,004
-444,080	-200,000	-0,018	0,076
-443,065	45,970	-0,107	-0,072
-442,051	-58,859	0,190	-0,060
-441,036	509,922	-0,053	-0,090
-440,022	429,491	0,074	-0,118
-439,007	-65,949	0,060	0,017
-437,992	98,840	0,117	0,098
-436,978	-200,000	0,028	0,104
-435,963	800,000	-0,057	-0,165
-434,949	128,809	0,024	0,023
-433,934	-75,141	-0,038	0,010
-432,919	54,630	-0,153	-0,107
-431,905	800,000	-0,030	0,074
-430,890	-200,000	0,021	-0,096
-429,876	756,710	-0,005	-0,011
-428,861	-170,867	-0,080	-0,002
-427,846	44,302	-0,055	0,037
-426,832	305,756	0,045	-0,061
-425,817	800,000	-0,028	-0,079
-424,803	49,848	0,104	0,071
-423,788	-47,131	-0,113	0,040
-422,773	-200,000	0,002	0,119
-421,759	-200,000	0,010	-0,064
-420,744	15,104	0,125	0,071
-419,730	112,146	0,098	-0,086
-418,715	-174,139	0,105	-0,002
-417,701	133,835	0,034	0,032
-416,686	-200,000	-0,008	0,044
-415,671	-126,387	0,028	0,003
-414,657	1,549	-0,067	0,035
-413,642	-55,330	-0,063	-0,020
-412,628	306,413	-0,035	-0,048
-411,613	-114,647	-0,147	-0,020
-410,598	243,788	0,126	0,154
-409,584	502,575	0,091	0,153
-408,569	167,613	-0,046	-0,048
-407,555	46,855	0,119	0,081
-406,540	-92,728	-0,091	0,018
-405,525	-86,630	0,024	0,005
-404,511	-22,231	-0,177	0,078
-403,496	98,587	-0,041	-0,035
-402,482	-200,000	-0,002	-0,028
-401,467	-27,963	0,015	0,006
-400,452	-200,000	0,016	-0,098
-399,438	59,176	-0,106	-0,076
-398,423	205,592	-0,023	-0,026
-397,409	154,785	-0,026	-0,026
-396,394	-200,000	-0,007	-0,054
-395,379	-19,539	0,040	-0,018
-394,365	-74,380	0,107	-0,028
-393,350	55,810	-0,107	0,075
-392,336	-8,407	-0,092	-0,045
-391,321	-200,000	-0,005	0,118
-390,306	800,000	-0,043	0,129
-389,292	501,281	-0,019	0,032
-388,277	-97,848	0,097	0,018
-387,263	-200,000	0,011	0,174
-386,248	5,324	0,141	0,075
-385,233	-28,440	0,072	-0,030
-384,219	-35,839	-0,084	-0,033
-383,204	109,672	-0,129	0,113
-382,190	-200,000	-0,027	-0,114
-381,175	396,724	0,051	0,078
-380,160	211,416	-0,023	-0,026
-379,146	361,517	-0,051	0,074
-378,131	-61,847	0,189	0,057
-377,117	64,000	-0,049	0,036
-376,102	800,000	0,033	0,094
-375,088	-43,704	-0,164	-0,060
-374,073	-189,362	0,141	0,001
-373,058	-104,613	0,089	-0,015
-372,044	273,792	0,069	0,088
-371,029	-55,569	-0,072	-0,023
-370,015	297,306	0,059	0,079
-369,000	55,169	0,059	-0,041
-367,985	22,215	-0,057	-0,034
-366,971	62,248	-0,066	0,048
-365,956	133,286	0,037	0,035
-364,942	-130,449	0,063	0,006
-363,927	270,961	0,030	0,039
-362,912	670,441	0,019	-0,037
-361,898	85,387	0,150	-0,119
-360,883	161,061	-0,069	-0,070
-359,869	-200,000	-0,020	-0,088
-358,854	800,000	0,021	0,054
-357,839	-89,787	0,096	0,020
-356,825	195,737	-0,024	-0,026
-355,810	335,696	0,033	-0,047
-354,796	232,707	0,020	-0,024
-353,781	-164,479	-0,069	0,002
-352,766	-56,939	0,078	0,025
-351,752	-26,048	-0,074	0,031
-350,737	-200,000	0,002	0,099
-349,723	-200,000	-0,022	0,073
-348,708	-130,832	0,051	0,005
-347,693	48,741	-0,056	0,038
-346,679	558,525	0,049	-0,086
-345,664	800,000	-0,056	0,140
-344,650	-34,590	0,101	-0,040
-343,635	43,153	0,040	0,027
-342,620	-200,000	-0,006	0,066
-341,606	-200,000	-0,014	0,054
-340,591	-74,182	0,048	0,012
-339,577	800,000	0,007	0,018
-338,562	55,754	-0,058	0,041
-337,548	-200,000	-0,053	0,183
-336,533	-72,220	0,057	0,015
-335,518	-60,878	0,103	-0,032
-334,504	-132,132	0,090	-0,008
-333,489	-75,966	-0,087	0,022
-332,475	127,292	-0,123	-0,113
-331,460	-174,654	-0,081	-0,002
-330,445	51,696	-0,086	-0,059
-329,431	800,000	-0,019	-0,043
-328,416	228,911	0,089	0,105
-327,402	131,186	0,068	0,063
-326,387	362,178	-0,067	0,098
-325,372	727,020	0,015	-0,028
-324,358	155,687	-0,026	0,026
-323,343	-169,037	-0,070	-0,002
-322,329	-2,377	0,194	0,098
-321,314	-166,189	0,025	0,001
-320,299	-127,439	0,064	-0,007
-319,285	800,000	-0,010	0,021
-318,270	800,000	-0,041	-0,127
-317,256	-22,707	0,084	-0,037
-316,241	749,315	-0,024	-0,048
-315,226	35,484	0,087	-0,055
-314,212	-200,000	-0,009	-0,052
-313,197	86,598	-0,068	-0,055
-312,183	-200,000	0,016	-0,075
-311,168	-200,000	-0,022	-0,104
-310,153	800,000	-0,021	0,045
-309,139	-200,000	-0,007	0,060
-308,124	267,870	0,013	-0,016
-307,110	-200,000	0,002	-0,035
-306,095	85,775	0,013	0,010
-305,080	114,043	-0,032	-0,028
-304,066	-200,000	-0,009	-0,078
-303,051	-200,000	0,003	0,062
-302,037	-24,445	-0,051	-0,022
-301,022	-71,195	-0,003	-0,001
-300,008	49,588	-0,096	0,066
-298,993	300,467	-0,011	0,015
-297,978	-11,499	-0,062	0,029
-296,964	-59,331	-0,065	-0,020
-295,949	-43,570	0,094	-0,034
-294,935	-200,000	-0,004	-0,126
-293,920	800,000	0,020	0,065
-292,905	-119,721	0,103	0,013
-291,891	128,260	0,155	-0,143
-290,876	800,000	0,043	0,104
-289,862	0,312	0,145	-0,075
-288,847	-74,636	-0,173	-0,045
-287,832	-103,605	0,080	-0,014
-286,818	800,000	-0,019	-0,054
-285,803	-200,000	0,036	0,174
-284,789	35,310	0,106	-0,067
-283,774	-200,000	-0,004	0,052
-282,759	-200,000	-0,000	0,038
-281,745	-34,552	0,060	0,024
-280,730	-104,473	-0,102	-0,017
-279,716	-4,782	-0,130	-0,065
-278,701	-121,817	0,124	0,015
-277,686	-87,199	0,131	0,029
-276,672	194,078	0,064	0,070
-275,657	-167,212	-0,154	0,004
-274,643	423,075	0,104	-0,162
-273,628	28,143	-0,081	0,049
-272,613	117,501	0,060	-0,053
-271,599	-41,734	0,046	0,017
-270,584	-37,108	0,101	0,039
-269,570	-165,967	0,057	0,002
-268,555	-200,000	0,001	0,022
-267,540	-200,000	-0,013	-0,246
-266,526	552,803	-0,090	-0,157
-265,511	28,761	-0,056	0,034
-264,497	88,741	-0,108	0,087
-263,482	-200,000	0,013	-0,091
-262,467	-200,000	0,038	0,207
-261,453	-18,849	-0,027	-0,012
-260,438	-200,000	0,019	-0,113
-259,424	81,219	-0,029	-0,023
-258,409	43,660	-0,071	-0,047
-257,395	-129,181	0,134	-0,013
-256,380	32,442	0,118	-0,073
-255,365	800,000	0,032	0,094
-254,351	93,171	-0,080	-0,065
-253,336	-32,127	-0,015	0,006
-252,322	-200,000	0,015	-0,049
-251,307	370,470	-0,017	0,024
-250,292	-200,000	-0,000	0,039
-249,278	10,206	0,070	0,039
-248,263	85,125	0,070	0,055
-247,249	-62,744	0,058	0,017
-246,234	-133,563	-0,115	-0,010
-245,219	800,000	0,005	-0,017
-244,205	601,511	-0,047	-0,086
-243,190	-200,000	-0,001	0,142
-242,176	376,897	-0,026	-0,038
-241,161	-105,888	0,173	-0,028
-240,146	119,143	0,082	0,073
-239,132	-66,611	0,052	-0,015
-238,117	-200,000	0,006	-0,047
-237,103	800,000	-0,035	0,088
-236,088	213,930	-0,041	-0,047
-235,073	-51,656	0,081	0,027
-234,059	214,938	0,035	-0,040
-233,044	800,000	-0,020	0,042
-232,030	800,000	0,042	-0,091
-231,015	213,320	0,078	-0,089
-230,000	96,450	-0,039	-0,032
-228,986	-144,883	0,086	0,006
-227,971	347,987	0,047	0,067
-226,957	29,474	0,021	0,013
-225,942	44,713	0,024	-0,016
-224,927	62,507	0,039	-0,028
-223,913	136,668	-0,088	0,083
-222,898	-122,492	-0,093	-0,011
-221,884	-44,179	-0,031	-0,011
-220,869	-200,000	-0,024	0,081
-219,855	568,002	-0,073	0,129
-218,840	-200,000	-0,009	-0,098
-217,825	800,000	-0,071	-0,218
-216,811	499,411	0,041	0,069
-215,796	-29,101	-0,027	-0,011
-214,782	220,530	-0,122	-0,141
-213,767	-200,000	0,006	-0,059
-212,752	-200,000	-0,024	0,126
-211,738	68,695	-0,060	-0,044
-210,723	550,911	-0,049	0,086
-209,709	128,601	-0,077	0,071
-208,694	386,655	-0,012	-0,019
-207,679	-200,000	-0,004	0,090
-206,665	-200,000	0,006	0,078
-205,650	265,404	0,036	0,045
-204,636	389,666	0,012	-0,018
-203,621	252,847	0,089	-0,110
-202,606	-200,000	-0,000	-0,025
-201,592	156,277	-0,124	-0,124
-200,577	-19,591	0,064	0,028
-199,563	-200,000	-0,001	0,129
-198,548	-200,000	0,013	0,083
-197,533	-200,000	0,001	-0,024
-196,519	800,000	0,056	-0,163
-195,504	-102,841	-0,088	0,015
-194,490	-35,497	-0,051	-0,020
-193,475	-64,894	0,038	0,011
-192,460	-163,439	0,083	0,003
-191,446	-200,000	-0,039	0,128
-190,431	-41,812	-0,099	0,036
-189,417	-200,000	-0,034	0,132
-188,402	-74,536	-0,094	0,024
-187,387	25,273	-0,120	-0,072
-186,373	800,000	0,012	-0,026
-185,358	82,804	0,025	0,020
-184,344	637,211	-0,063	0,116
-183,329	-200,000	-0,099	0,000
-182,315	800,000	0,030	-0,072
-181,300	-29,358	-0,041	-0,017
-180,285	800,000	-0,048	-0,105
-179,271	-24,930	-0,117	-0,050
-178,256	-200,000	0,026	0,118
-177,242	481,320	0,042	0,068
-176,227	31,098	0,101	0,062
-175,212	21,686	-0,031	-0,018
-174,198	800,000	-0,046	-0,092
-173,183	3,809	-0,200	-0,105
-172,169	50,567	0,027	0,019
-171,154	-116,758	0,107	0,014
-170,139	800,000	-0,043	-0,115
-169,125	800,000	0,039	-0,112
-168,110	9,806	-0,069	-0,038
-167,096	60,412	-0,050	0,036
-166,081	800,000	-0,041	-0,104
-165,066	-200,000	0,001	0,045
-164,052	163,699	-0,116	-0,118
-163,037	-59,926	0,137	-0,042
-162,023	152,661	0,080	0,079
-161,008	213,546	-0,060	0,069
-159,993	-120,993	0,036	0,004
-158,979	800,000	-0,014	-0,042
-157,964	-200,000	-0,003	-0,061
-156,950	294,358	-0,027	-0,036
-155,935	207,758	0,136	-0,153
-154,920	0,200	0,028	-0,015
-153,906	-110,172	0,083	-0,012
-152,891	-125,192	0,048	-0,005
-151,877	187,378	-0,051	0,055
-150,862	-200,000	-0,023	-0,137
-149,847	800,000	0,047	-0,094
-148,833	800,000	0,036	-0,075
-147,818	15,293	0,038	-0,021
-146,804	491,158	-0,013	0,021
-145,789	297,281	0,041	0,054
-144,775	-125,327	0,036	-0,004
-143,760	-200,000	-0,010	-0,129
-142,745	281,232	-0,072	-0,094
-141,731	-200,000	0,007	-0,045
-140,716	-200,000	-0,023	-0,127
-139,702	-159,057	0,216	-0,009
-138,687	-86,877	0,097	-0,021
-137,672	-16,461	0,075	-0,034
-136,658	84,328	0,107	0,084
-135,643	-200,000	0,011	0,112
-134,629	120,590	-0,005	0,005
-133,614	-164,827	0,256	-0,008
-132,599	225,709	0,020	-0,023
-131,585	39,498	-0,064	-0,041
-130,570	-200,000	0,010	0,065
-129,556	244,292	-0,071	-0,086
-128,541	-200,000	-0,000	-0,011
-127,526	-8,089	-0,032	-0,015
-126,512	-146,184	-0,101	-0,006
-125,497	-200,000	0,026	0,107
-124,483	-88,847	0,106	0,022
-123,468	-37,632	-0,148	-0,056
-122,453	245,238	-0,038	0,046
-121,439	800,000	-0,017	-0,048
-120,424	-200,000	-0,006	0,153
-119,410	-138,604	0,065	0,005
-118,395	-64,730	0,114	0,033
-117,380	183,898	0,053	0,056
-116,366	-200,000	-0,001	0,036
-115,351	305,752	-0,029	-0,039
-114,337	-133,120	-0,083	0,007
-113,322	-181,262	-0,117	-0,002
-112,307	57,771	0,124	-0,087
-111,293	-200,000	0,006	0,075
-110,278	-98,677	-0,093	-0,017
-109,264	322,898	0,149	0,205
-108,249	-100,214	-0,140	-0,025
-107,234	287,608	-0,059	-0,077
-106,220	56,348	-0,043	-0,030
-105,205	-200,000	0,015	-0,139
-104,191	-143,400	0,081	0,005
-103,176	20,715	-0,039	0,023
-102,162	-6,086	-0,060	0,029
-101,147	-92,345	-0,098	-0,020
-100,132	800,000	0,017	-0,040
-99,118	56,057	0,014	0,010
-98,103	470,724	0,071	0,115
-97,089	-155,366	0,278	0,013
-96,074	-200,000	0,007	0,094
-95,059	577,825	-0,046	0,081
-94,045	-200,000	-0,002	-0,087
-93,030	42,849	-0,031	0,020
-92,016	-62,719	-0,128	0,038
-91,001	154,405	-0,126	-0,124
-89,986	172,175	-0,021	0,022
-88,972	240,950	-0,060	-0,072
-87,957	217,428	0,024	0,028
-86,943	-13,230	0,077	0,036
-85,928	800,000	-0,027	0,066
-84,913	128,237	-0,059	-0,054
-83,899	206,575	-0,115	-0,129
-82,884	-128,865	0,132	-0,013
-81,870	-110,989	0,050	-0,007
-80,855	33,435	-0,096	-0,060
-79,840	37,711	0,071	-0,045
-78,826	334,354	0,048	-0,068
-77,811	-12,073	-0,019	-0,009
-76,797	-182,514	-0,109	0,001
-75,782	-200,000	-0,000	0,103
-74,767	328,220	0,067	-0,093
-73,753	-54,433	0,068	-0,022
-72,738	-70,819	-0,077	0,021
-71,724	-200,000	-0,018	0,058
-70,709	-83,367	-0,067	0,015
-69,694	139,942	-0,090	0,085
-68,680	-91,987	0,060	-0,012
-67,665	-46,164	0,168	0,059
-66,651	31,223	0,054	0,033
-65,636	497,205	-0,042	0,070
-64,622	800,000	0,036	0,096
-63,607	115,630	-0,035	-0,031
-62,592	36,972	-0,028	-0,018
-61,578	-46,506	0,104	0,036
-60,563	-114,666	0,110	0,015
-59,549	-200,000	-0,009	0,055
-58,534	-33,526	-1,914	-0,755
-57,519	-200,000	-0,208	-1,100
-56,505	-200,000	-1,180	-4,874
-55,490	12,631	0,716	0,396
-54,476	800,000	5,400	12,125
-53,461	-200,000	17,229	282,317
-52,446	800,000	721,601	2224,057
-51,432	543,265	1637,903	2815,277
-50,417	112,246	1630,889	1414,681
-49,403	76,188	1286,631	976,356
-48,388	32,912	1028,898	637,911
-47,373	20,217	990,543	572,255
-46,359	18,796	978,665	560,709
-45,344	16,291	974,667	550,195
-44,330	16,421	973,296	549,824
-43,315	16,021	971,559	547,515
-42,300	15,875	970,475	546,403
-41,286	15,912	969,444	545,922
-40,271	15,952	968,230	545,348
-39,257	15,904	967,571	544,798
-38,242	15,923	966,726	544,362
-37,227	15,970	965,754	543,947
-36,213	15,939	965,000	543,399
-35,198	15,940	964,175	542,916
-34,184	16,013	963,248	542,611
-33,169	15,938	962,318	541,822
-32,154	15,957	961,256	541,264
-31,140	15,986	960,453	540,884
-30,125	15,982	959,842	540,507
-29,111	15,987	958,958	540,001
-28,096	15,996	958,373	539,680
-27,082	16,027	957,733	539,400
-26,067	15,973	956,884	538,726
-25,052	15,996	956,040	538,303
-24,038	15,954	955,362	537,766
-23,023	15,983	954,758	537,498
-22,009	16,008	954,028	537,144
-20,994	15,953	953,529	536,666
-19,979	15,954	953,034	536,369
-18,965	15,988	952,240	536,010
-17,950	15,944	951,850	535,626
-16,936	15,923	951,113	535,123
-15,921	15,978	950,353	534,850
-14,906	15,893	949,555	534,110
-13,892	15,893	948,892	533,717
-12,877	15,880	948,374	533,361
-11,863	15,863	947,802	532,967
-10,848	15,779	947,391	532,444
-9,833	15,953	946,662	532,567
-8,819	15,944	945,975	532,131
-7,804	15,814	945,443	531,400
-6,790	15,795	944,868	530,995
-5,775	15,884	944,314	530,942
-4,760	15,892	943,714	530,610
-3,746	15,826	943,074	530,020
-2,731	15,711	942,430	529,275
-1,717	15,681	941,762	528,781
-0,702	15,718	940,953	528,424
0,313	15,475	940,477	528,186
1,327	18,612	938,250	536,778
2,342	27,383	795,954	478,644
3,356	24,244	459,760	271,645
4,371	-2,581	313,918	157,027
5,386	-6,571	295,797	143,920
6,400	-8,373	289,541	139,080
7,415	-8,959	287,131	137,334
8,429	-9,371	285,640	136,206
9,444	-9,148	284,560	135,896
10,459	-9,195	283,936	135,540
11,473	-9,268	283,382	135,193
12,488	-9,217	282,931	135,015
13,502	-9,208	282,385	134,751
14,517	-9,257	281,914	134,467
15,531	-9,329	281,524	134,200
16,546	-9,239	281,067	134,057
17,561	-9,253	280,604	133,810
18,575	-9,296	280,432	133,675
19,590	-9,311	280,041	133,463
20,604	-9,337	279,695	133,261
21,619	-9,230	279,259	133,144
22,634	-9,352	279,114	132,947
23,648	-9,589	278,751	132,536
24,663	-9,340	278,415	132,601
25,677	-9,346	278,239	132,500
26,692	-9,138	277,887	132,518
27,707	-9,320	277,625	132,208
28,721	-9,407	277,543	132,074
29,736	-9,401	277,154	131,884
30,750	-9,490	276,994	131,712
31,765	-9,512	276,649	131,515
32,780	-9,351	276,363	131,519
33,794	-9,248	276,150	131,504
34,809	-9,410	275,871	131,206
35,823	-9,418	275,581	131,049
36,838	-9,443	275,232	130,848
37,853	-9,734	275,164	130,531
38,867	-9,404	274,834	130,672
39,882	-9,441	274,720	130,572
40,896	-9,431	274,381	130,408
41,911	-9,444	274,156	130,278
42,926	-9,552	273,892	130,039
43,940	-9,578	273,667	129,897
44,955	-9,519	273,551	129,886
45,969	-9,438	273,144	129,756
46,984	-9,742	273,023	129,404
47,999	-9,819	272,619	129,129
49,013	-9,983	272,380	128,852
50,028	-10,159	272,023	128,508
51,042	-10,221	271,957	128,408
52,057	-10,297	271,583	128,150
53,071	-10,108	271,604	128,324
54,086	-10,123	271,354	128,180
55,101	-9,917	271,092	128,235
56,115	-9,614	270,982	128,451
57,130	-9,349	270,962	128,675
58,144	-9,097	270,534	128,693
59,159	-9,423	270,506	128,367
60,174	-9,212	270,218	128,414
61,188	-9,401	270,044	128,146
62,203	-9,479	269,895	127,992
63,217	-9,259	269,602	128,043
64,232	-9,276	269,419	127,929
65,247	-9,169	269,136	127,882
66,261	-9,311	268,829	127,595
67,276	-9,473	268,596	127,324
68,290	-9,543	268,253	127,086
69,305	-9,741	268,121	126,832
70,320	-9,592	267,830	126,819
71,334	-9,481	267,851	126,918
72,349	-9,325	267,511	126,888
73,363	-9,031	267,355	127,070
74,378	-9,243	267,143	126,766
75,393	-9,324	267,041	126,632
76,407	-9,339	266,703	126,447
77,422	-9,205	266,518	126,470
78,436	-9,205	266,144	126,281
79,451	-9,167	266,031	126,250
80,466	-9,454	265,778	125,860
81,480	-9,604	265,700	125,676
82,495	-9,398	265,241	125,634
83,509	-9,431	265,174	125,561
84,524	-9,648	264,929	125,238
85,539	-9,541	264,597	125,166
86,553	-9,634	264,501	125,026
87,568	-9,603	264,367	124,979
88,582	-9,475	264,106	124,960
89,597	-9,546	263,907	124,790
90,611	-9,686	263,869	124,636
91,626	-9,312	263,572	124,820
92,641	-9,325	263,396	124,713
93,655	-9,394	263,111	124,505
94,670	-9,437	263,087	124,445
95,684	-9,249	262,555	124,350
96,699	-9,387	262,634	124,253
97,714	-9,348	262,326	124,131
98,728	-9,435	261,972	123,875
99,743	-9,613	261,884	123,664
100,757	-9,717	261,778	123,511
101,772	-9,358	261,494	123,685
102,787	-9,609	261,406	123,409
103,801	-9,659	261,220	123,265
104,816	-9,341	260,978	123,423
105,830	-9,308	260,767	123,341
106,845	-9,149	260,593	123,388
107,860	-9,466	260,444	123,026
108,874	-9,250	260,155	123,069
109,889	-9,265	260,037	122,990
110,903	-9,250	259,765	122,863
111,918	-9,470	259,640	122,599
112,933	-9,301	259,448	122,646
113,947	-9,341	259,325	122,542
114,962	-9,215	258,950	122,465
115,976	-9,130	258,743	122,430
116,991	-9,381	258,737	122,197
118,006	-9,160	258,409	122,224
119,020	-9,324	258,239	121,989
120,035	-9,272	258,215	122,012
121,049	-9,307	257,925	121,834
122,064	-9,223	257,794	121,834
123,079	-9,385	257,667	121,622
124,093	-9,495	257,356	121,369
125,108	-9,567	257,154	121,200
126,122	-9,769	257,003	120,943
127,137	-10,065	256,734	120,547
128,151	-9,739	256,393	120,660
129,166	-9,558	256,228	120,729
130,181	-9,517	256,185	120,733
131,195	-9,746	255,891	120,385
132,210	-9,373	255,835	120,671
133,224	-9,309	255,589	120,600
134,239	-9,324	255,470	120,519
135,254	-9,259	255,363	120,515
136,268	-9,403	254,994	120,206
137,283	-9,779	254,803	119,780
138,297	-9,568	254,487	119,804
139,312	-9,829	254,325	119,491
140,327	-9,586	254,326	119,691
141,341	-9,275	254,242	119,908
142,356	-9,209	253,981	119,831
143,370	-9,330	253,936	119,695
144,385	-9,003	253,470	119,745
145,400	-8,914	253,311	119,735
146,414	-9,052	253,189	119,549
147,429	-9,204	253,145	119,387
148,443	-9,182	253,022	119,337
149,458	-9,147	252,882	119,290
150,473	-9,181	252,573	119,105
151,487	-9,024	252,218	119,061
152,502	-9,126	252,205	118,957
153,516	-9,056	251,915	118,870
154,531	-9,137	251,767	118,720
155,546	-9,242	251,666	118,572
156,560	-9,218	251,535	118,520
157,575	-9,384	251,186	118,205
158,589	-9,202	251,011	118,266
159,604	-9,179	251,069	118,303
160,619	-8,989	250,810	118,330
161,633	-9,016	250,547	118,173
162,648	-9,184	250,523	118,010
163,662	-9,099	250,239	117,937
164,677	-9,039	250,034	117,880
165,692	-9,153	250,131	117,820
166,706	-9,037	249,675	117,692
167,721	-9,120	249,655	117,602
168,735	-9,208	249,425	117,409
169,750	-9,086	249,380	117,480
170,764	-9,081	249,173	117,377
171,779	-8,987	249,030	117,377
172,794	-8,924	248,988	117,400
173,808	-9,072	248,640	117,102
174,823	-9,449	248,239	116,587
175,837	-9,566	248,002	116,367
176,852	-9,417	248,102	116,529
177,867	-9,246	248,092	116,656
178,881	-9,043	247,880	116,716
179,896	-9,045	247,555	116,550
180,910	-8,936	247,458	116,585
181,925	-9,013	247,317	116,445
182,940	-8,990	247,111	116,356
183,954	-9,023	246,930	116,233
184,969	-8,988	246,850	116,214
185,983	-9,029	246,720	116,108
186,998	-8,905	246,399	116,050
188,013	-9,041	246,480	115,965
189,027	-8,900	246,024	115,857
190,042	-8,946	245,879	115,740
191,056	-9,047	245,850	115,632
192,071	-8,955	245,544	115,554
193,086	-8,916	245,520	115,565
194,100	-9,038	245,293	115,347
195,115	-9,026	245,089	115,251
196,129	-8,967	244,797	115,152
197,144	-8,897	244,793	115,197
198,159	-8,906	244,582	115,080
199,173	-8,867	244,404	115,019
200,188	-8,981	244,309	114,870
201,202	-9,279	243,917	114,431
202,217	-9,590	243,570	114,003
203,232	-9,658	243,437	113,874
204,246	-9,267	243,407	114,170
205,261	-8,596	243,450	114,730
206,275	-9,280	243,080	113,987
207,290	-6,866	244,086	116,428
208,304	-1,601	245,786	121,567
209,319	1,285	246,379	124,228
210,334	1,631	246,388	124,507
211,348	2,000	246,273	124,741
212,363	2,201	246,341	124,929
213,377	2,631	246,207	125,204
214,392	2,649	246,050	125,128
215,407	2,344	245,769	124,724
216,421	2,230	245,583	124,525
217,436	2,686	245,709	124,951
218,450	2,469	245,436	124,623
219,465	2,460	245,246	124,508
220,480	2,324	245,009	124,266
221,494	2,403	244,916	124,272
222,509	2,638	244,837	124,413
223,523	2,498	244,514	124,123
224,538	2,042	244,424	123,696
225,553	2,056	244,007	123,484
226,567	2,190	244,064	123,612
227,582	2,517	243,970	123,819
228,596	2,389	243,812	123,623
229,611	2,133	243,496	123,244
230,626	1,862	243,361	122,945
231,640	2,171	243,236	123,122
232,655	2,533	242,940	123,254
233,669	2,186	242,824	122,903
234,684	2,197	242,594	122,785
235,699	2,580	242,611	123,092
236,713	2,716	242,512	123,141
237,728	2,288	242,186	122,619
238,742	2,212	242,001	122,453
239,757	2,204	241,801	122,334
240,772	2,097	241,726	122,200
241,786	2,211	241,668	122,251
242,801	2,119	241,300	121,980
243,815	1,757	241,160	121,608
244,830	2,081	241,205	121,880
245,844	2,422	241,029	122,053
246,859	2,054	240,848	121,656
247,874	2,287	240,663	121,738
248,888	2,272	240,481	121,623
249,903	2,424	240,331	121,658
250,917	2,526	240,257	121,691
251,932	2,641	240,187	121,737
252,947	2,442	239,906	121,425
253,961	2,277	239,673	121,165
254,976	2,382	239,623	121,212
255,990	2,384	239,588	121,185
257,005	2,146	239,219	120,799
258,020	2,000	239,095	120,609
259,034	2,147	238,959	120,647
260,049	2,269	238,875	120,690
261,063	2,179	238,453	120,394
262,078	2,063	238,403	120,267
263,093	2,524	238,232	120,535
264,107	2,107	238,353	120,255
265,122	2,338	237,955	120,227
266,136	2,031	237,996	119,993
267,151	2,525	237,982	120,367
268,166	2,319	237,454	119,926
269,180	2,217	237,333	119,774
270,195	2,731	237,388	120,196
271,209	2,716	237,343	120,151
272,224	2,190	236,977	119,541
273,239	2,104	236,796	119,371
274,253	1,930	236,737	119,194
275,268	2,395	236,490	119,424
276,282	2,497	236,493	119,495
277,297	2,203	236,193	119,102
278,312	2,096	236,018	118,920
279,326	2,351	235,935	119,067
280,341	2,264	235,948	118,995
281,355	2,255	235,701	118,853
282,370	2,559	235,574	119,016
283,384	2,574	235,238	118,847
284,399	2,125	235,117	118,425
285,414	2,134	234,933	118,328
286,428	2,300	234,906	118,434
287,443	2,311	234,690	118,323
288,457	2,492	234,606	118,412
289,472	2,596	234,423	118,389
290,487	2,197	234,263	117,988
291,501	2,226	234,034	117,884
292,516	1,905	233,755	117,484
293,530	1,762	233,785	117,378
294,545	2,034	233,640	117,506
295,560	2,112	233,631	117,551
296,574	2,036	233,181	117,255
297,589	1,859	233,202	117,119
298,603	2,382	233,141	117,482
299,618	2,558	232,991	117,532
300,633	2,369	232,836	117,297
301,647	2,542	232,800	117,402
302,662	2,718	232,669	117,461
303,676	2,917	232,393	117,465
304,691	2,717	232,261	117,233
305,706	2,836	232,122	117,244
306,720	2,713	231,988	117,071
307,735	2,651	231,845	116,941
308,749	2,282	231,748	116,599
309,764	2,174	231,411	116,336
310,779	2,224	231,235	116,275
311,793	1,938	231,037	115,947
312,808	1,935	230,986	115,909
313,822	2,072	230,806	115,913
314,837	2,111	230,540	115,798
315,852	1,938	230,602	115,687
316,866	2,249	230,414	115,819
317,881	2,561	230,280	115,980
318,895	2,708	230,308	116,096
319,910	3,062	230,130	116,264
320,925	2,543	229,861	115,724
321,939	2,395	229,656	115,498
322,954	2,478	229,616	115,531
323,968	2,224	229,564	115,301
324,983	2,530	229,316	115,399
325,997	2,589	229,139	115,344
327,012	2,443	228,990	115,148
328,027	2,095	228,840	114,799
329,041	2,444	228,656	114,960
330,056	3,048	228,652	115,404
331,070	3,182	228,596	115,467
332,085	3,114	228,305	115,259
333,100	2,787	228,157	114,927
334,114	2,556	227,972	114,649
335,129	2,308	227,957	114,445
336,143	2,620	227,650	114,515
337,158	2,944	227,758	114,803
338,173	2,778	227,328	114,452
339,187	2,639	227,418	114,383
340,202	2,506	227,165	114,145
341,216	2,710	227,132	114,271
342,231	2,392	226,842	113,877
343,246	2,669	226,716	114,011
344,260	2,572	226,757	113,949
345,275	2,801	226,485	113,974
346,289	3,026	226,340	114,058
347,304	3,084	226,146	113,994
348,319	2,845	226,058	113,761
349,333	2,823	225,862	113,635
350,348	2,404	225,699	113,231
351,362	2,597	225,560	113,295
352,377	2,503	225,374	113,122
353,392	2,596	225,215	113,101
354,406	2,495	225,086	112,951
355,421	196,406	1322,597	1401,945
356,435	157,440	1456,311	1401,964
