DTS Sentinel unit serial number:	SN410029Multiplexer serial number:	ORYXHardware model number:	OX2-SRSoftware version number:	ORYX F/W v4,00 Oryx Data Collector v3.7.2.0data status	okinstallation	B5 Nyhavnadifferential loss correction	single-endedforward channel	channel 2reverse channel	N/Adate	2023/12/11time	19:02:13forward acquisition time	300,00reverse acquisition time	0,00gamma	499,1914k internal	0,3160k external	0,3160temperature offset calibration	1,0000default loss term (dB/km)	0,3820temperature slope calibration	1,0000multiplexer offset coefficient	1,0000multiplexer slope coefficient	1,0000fibre end	0,00T internal ref (°C)	15,46T ext. ref 1 (°C)	-0,25T ext. ref 2 (°C)	-0,50length (m)	temperature (°C)	Stokes	anti-Stokes-744,400	-83,400	0,111	-0,026
-743,385	-125,824	-0,283	0,031
-742,371	215,268	0,100	0,117
-741,356	-95,041	-0,273	-0,054
-740,342	-166,928	0,153	0,005
-739,327	-137,895	-0,299	-0,024
-738,312	412,895	0,065	0,101
-737,298	-34,388	-0,406	-0,163
-736,283	-38,249	0,249	0,097
-735,269	-85,746	-0,318	-0,072
-734,254	-30,417	0,075	-0,031
-733,239	-59,622	-0,489	-0,153
-732,225	-3,503	0,138	-0,070
-731,210	-102,551	0,128	-0,022
-730,196	-200,000	0,031	0,116
-729,181	229,411	-0,063	0,075
-728,167	800,000	-0,051	-0,152
-727,152	275,750	-0,032	0,042
-726,137	55,929	-0,105	-0,075
-725,123	381,189	0,050	-0,076
-724,108	516,061	-0,073	-0,126
-723,094	53,967	-0,107	0,076
-722,079	62,378	0,130	-0,095
-721,064	-162,227	0,060	-0,002
-720,050	-129,877	-0,224	0,022
-719,035	-74,078	-0,055	-0,015
-718,021	538,601	-0,067	-0,118
-717,006	800,000	0,019	0,040
-715,991	-92,789	-0,185	-0,038
-714,977	47,198	0,039	0,026
-713,962	-200,000	-0,013	0,066
-712,948	-45,836	0,099	-0,036
-711,933	-153,077	0,044	0,002
-710,918	-2,190	-0,019	-0,010
-709,904	-200,000	-0,014	-0,085
-708,889	-64,719	-0,093	0,028
-707,875	-35,291	-0,079	0,032
-706,860	325,903	0,038	0,054
-705,845	-200,000	-0,020	0,076
-704,831	416,684	-0,051	0,080
-703,816	-46,836	0,043	-0,015
-702,802	273,510	0,060	0,079
-701,787	-173,943	-0,071	0,001
-700,772	25,401	-0,085	-0,052
-699,758	51,623	0,178	0,124
-698,743	-200,000	-0,021	-0,108
-697,729	10,322	0,052	-0,029
-696,714	529,261	0,035	0,062
-695,699	-40,735	-0,042	0,016
-694,685	-39,573	-0,107	-0,041
-693,670	3,600	-0,104	0,056
-692,656	-200,000	-0,013	-0,050
-691,641	324,933	0,079	-0,112
-690,627	-108,839	-0,047	0,007
-689,612	-200,000	0,019	-0,089
-688,597	-200,000	0,003	-0,032
-687,583	-160,515	-0,047	0,002
-686,568	119,758	-0,086	-0,078
-685,554	-200,000	-0,015	0,074
-684,539	800,000	-0,051	-0,120
-683,524	-39,340	-0,080	0,031
-682,510	-142,563	0,094	-0,007
-681,495	-42,679	-0,119	0,044
-680,481	-146,857	0,208	0,013
-679,466	800,000	-0,015	-0,041
-678,451	-107,296	0,075	-0,012
-677,437	-200,000	-0,034	0,153
-676,422	123,941	-0,038	0,035
-675,408	317,391	-0,066	0,092
-674,393	127,032	-0,046	-0,043
-673,378	-200,000	-0,012	-0,055
-672,364	333,839	-0,104	-0,148
-671,349	-84,321	-0,089	-0,021
-670,335	-147,994	-0,038	0,002
-669,320	-200,000	0,022	-0,127
-668,305	137,907	-0,067	0,064
-667,291	-174,974	-0,058	0,001
-666,276	5,624	-0,055	0,030
-665,262	150,100	-0,033	0,032
-664,247	-4,215	-0,042	-0,021
-663,232	-48,683	0,159	-0,056
-662,218	-200,000	0,024	0,089
-661,203	-200,000	-0,006	-0,163
-660,189	800,000	-0,057	0,162
-659,174	-36,281	-0,088	0,035
-658,159	782,937	-0,100	-0,202
-657,145	40,682	-0,133	-0,088
-656,130	194,164	0,094	0,104
-655,116	-38,416	-0,045	0,017
-654,101	-59,550	0,098	-0,031
-653,086	7,928	-0,070	-0,039
-652,072	580,253	-0,065	-0,117
-651,057	32,074	-0,058	-0,037
-650,043	51,940	0,148	-0,104
-649,028	-200,000	-0,002	-0,010
-648,014	152,951	0,048	-0,048
-646,999	-139,017	0,027	0,002
-645,984	-200,000	0,006	0,045
-644,970	-24,842	0,106	-0,046
-643,955	18,648	-0,097	-0,057
-642,941	47,250	-0,162	-0,110
-641,926	612,948	-0,035	0,064
-640,911	800,000	0,035	0,105
-639,897	94,925	-0,021	0,017
-638,882	800,000	0,012	0,036
-637,868	-200,000	-0,009	0,072
-636,853	-116,502	-0,116	-0,015
-635,838	800,000	-0,053	-0,113
-634,824	61,276	0,121	-0,088
-633,809	800,000	-0,016	-0,035
-632,795	738,158	0,044	-0,087
-631,780	-200,000	-0,001	-0,090
-630,765	-200,000	0,025	-0,094
-629,751	800,000	-0,028	0,085
-628,736	37,008	-0,068	-0,044
-627,722	439,623	-0,021	-0,034
-626,707	-41,231	0,111	-0,042
-625,692	800,000	-0,036	-0,076
-624,678	-200,000	-0,030	0,127
-623,663	-43,490	0,052	0,019
-622,649	250,872	-0,141	-0,176
-621,634	-200,000	-0,011	-0,054
-620,619	-200,000	-0,017	-0,071
-619,605	-88,608	0,096	-0,021
-618,590	413,972	0,023	-0,036
-617,576	-200,000	-0,000	-0,098
-616,561	328,932	-0,004	-0,006
-615,546	-200,000	0,005	-0,022
-614,532	117,993	-0,055	-0,050
-613,517	25,269	0,061	0,037
-612,503	-200,000	0,001	-0,106
-611,488	-12,940	0,109	0,052
-610,474	127,731	0,149	0,139
-609,459	-33,791	-0,055	0,022
-608,444	104,793	-0,084	0,072
-607,430	-200,000	0,010	-0,126
-606,415	168,828	-0,130	0,136
-605,401	382,060	0,098	0,147
-604,386	-200,000	0,135	-0,000
-603,371	461,365	0,042	0,069
-602,357	82,915	-0,088	0,070
-601,342	-200,000	0,020	0,086
-600,328	-63,879	-0,090	0,027
-599,313	-99,061	-0,128	-0,024
-598,298	-85,277	-0,048	-0,011
-597,284	-200,000	-0,021	-0,094
-596,269	-200,000	0,010	0,071
-595,255	741,748	0,079	0,156
-594,240	648,190	-0,039	-0,074
-593,225	-52,314	-0,111	-0,038
-592,211	378,966	-0,095	-0,143
-591,196	-200,000	0,022	0,138
-590,182	726,131	-0,047	-0,091
-589,167	258,770	0,010	-0,012
-588,152	-7,456	0,053	-0,026
-587,138	-151,842	-0,033	-0,002
-586,123	-125,674	-0,148	-0,016
-585,109	-9,077	0,074	0,036
-584,094	21,897	-0,186	0,111
-583,079	-55,687	0,167	-0,054
-582,065	-200,000	0,014	0,075
-581,050	624,098	0,038	0,071
-580,036	754,053	-0,039	-0,078
-579,021	39,367	-0,034	-0,022
-578,006	33,861	-0,094	-0,060
-576,992	-200,000	-0,023	-0,103
-575,977	-61,324	0,103	0,032
-574,963	90,261	-0,078	0,064
-573,948	-75,277	0,099	0,026
-572,934	225,169	-0,113	-0,134
-571,919	800,000	0,071	-0,196
-570,904	105,155	-0,124	-0,107
-569,890	-200,000	-0,004	0,062
-568,875	-175,669	0,062	-0,001
-567,861	174,767	0,052	0,055
-566,846	69,637	0,113	-0,085
-565,831	52,055	0,036	0,025
-564,817	375,642	-0,069	-0,104
-563,802	-80,139	-0,128	-0,031
-562,788	-200,000	-0,016	0,051
-561,773	-200,000	0,015	-0,069
-560,758	800,000	-0,059	0,158
-559,744	724,146	0,021	-0,042
-558,729	-38,489	0,070	0,027
-557,715	-200,000	0,027	0,112
-556,700	-200,000	-0,032	-0,154
-555,685	207,325	0,095	-0,109
-554,671	-72,721	0,113	0,030
-553,656	165,359	-0,073	0,075
-552,642	673,682	0,031	-0,060
-551,627	266,667	-0,014	-0,018
-550,612	800,000	0,018	0,038
-549,598	800,000	-0,020	0,052
-548,583	-68,071	-0,123	-0,035
-547,569	-169,524	-0,128	0,003
-546,554	800,000	-0,010	0,027
-545,539	86,329	0,057	0,046
-544,525	256,693	-0,062	0,078
-543,510	721,290	-0,048	0,094
-542,496	800,000	-0,051	-0,141
-541,481	800,000	-0,021	-0,067
-540,466	451,937	-0,008	0,013
-539,452	-200,000	-0,030	0,137
-538,437	36,006	-0,055	0,035
-537,423	-200,000	0,004	-0,031
-536,408	318,078	-0,090	0,124
-535,393	24,502	-0,042	0,026
-534,379	800,000	-0,044	-0,136
-533,364	-27,575	-0,052	-0,022
-532,350	440,210	0,050	0,081
-531,335	268,189	0,040	-0,051
-530,321	-154,723	0,016	0,001
-529,306	338,970	0,048	0,069
-528,291	800,000	-0,039	-0,087
-527,277	178,159	-0,015	0,016
-526,262	-91,182	0,083	-0,017
-525,248	-122,453	0,040	-0,005
-524,233	97,342	0,120	0,101
-523,218	800,000	0,045	0,112
-522,204	-200,000	0,008	0,043
-521,189	-47,188	-0,086	-0,031
-520,175	-149,767	0,057	0,003
-519,160	800,000	-0,008	0,025
-518,145	800,000	-0,025	0,072
-517,131	11,168	0,130	0,072
-516,116	68,322	0,087	0,065
-515,102	292,728	-0,021	0,028
-514,087	-22,585	0,063	0,028
-513,072	-200,000	0,011	-0,041
-512,058	-99,528	0,069	-0,013
-511,043	-156,485	-0,104	-0,005
-510,029	800,000	0,039	0,107
-509,014	196,413	0,091	0,101
-507,999	-200,000	0,007	0,039
-506,985	-86,666	-0,038	0,009
-505,970	-117,359	-0,103	-0,014
-504,956	-50,621	0,114	0,039
-503,941	-200,000	0,002	0,125
-502,926	614,854	0,018	0,032
-501,912	85,277	0,031	-0,025
-500,897	-200,000	0,007	0,062
-499,883	-89,636	0,063	0,013
-498,868	-200,000	-0,046	-0,152
-497,853	-3,142	-0,113	0,057
-496,839	-25,527	-0,051	-0,022
-495,824	-200,000	0,022	-0,170
-494,810	-69,176	-0,030	0,008
-493,795	80,195	-0,053	0,042
-492,781	-200,000	-0,016	-0,088
-491,766	46,835	-0,121	0,082
-490,751	8,812	0,097	-0,053
-489,737	800,000	-0,016	-0,043
-488,722	-81,745	-0,107	0,025
-487,708	355,922	-0,035	-0,051
-486,693	800,000	-0,010	-0,027
-485,678	166,145	-0,061	0,063
-484,664	59,580	-0,078	-0,056
-483,649	622,874	0,080	0,148
-482,635	181,081	0,069	-0,075
-481,620	161,804	-0,055	0,056
-480,605	-113,105	0,228	0,032
-479,591	-200,000	0,032	0,119
-478,576	-165,550	0,091	-0,003
-477,562	65,589	0,106	-0,078
-476,547	-200,000	0,004	-0,063
-475,532	800,000	-0,038	-0,111
-474,518	-6,540	0,106	-0,052
-473,503	800,000	-0,033	0,082
-472,489	-78,446	0,023	0,006
-471,474	209,114	-0,024	-0,027
-470,459	6,023	-0,004	0,002
-469,445	-200,000	0,020	-0,221
-468,430	800,000	-0,031	-0,069
-467,416	-154,994	-0,156	0,007
-466,401	259,993	-0,037	-0,047
-465,386	683,228	0,030	0,058
-464,372	-200,000	0,008	0,085
-463,357	800,000	-0,027	0,057
-462,343	9,347	-0,090	-0,049
-461,328	-200,000	0,038	-0,131
-460,313	160,684	0,126	-0,128
-459,299	190,642	-0,043	-0,047
-458,284	131,713	0,123	0,116
-457,270	208,927	-0,079	0,090
-456,255	308,376	0,011	0,016
-455,241	-120,133	-0,131	-0,016
-454,226	-94,880	-0,070	0,014
-453,211	-8,314	0,061	-0,030
-452,197	-113,105	0,049	-0,007
-451,182	800,000	0,039	-0,118
-450,168	800,000	-0,024	0,053
-449,153	31,812	0,037	0,023
-448,138	37,917	-0,105	-0,068
-447,124	122,978	0,087	-0,079
-446,109	-30,450	0,166	-0,068
-445,095	91,480	-0,102	-0,083
-444,080	229,302	0,048	0,057
-443,065	344,910	-0,032	0,046
-442,051	7,590	-0,085	-0,046
-441,036	546,349	-0,100	-0,174
-440,022	101,858	-0,049	0,042
-439,007	-102,018	0,074	0,013
-437,992	401,907	-0,020	0,030
-436,978	11,515	-0,080	0,045
-435,963	-8,849	0,066	-0,032
-434,949	-119,634	-0,102	-0,013
-433,934	-200,000	-0,004	0,018
-432,919	-100,436	-0,045	0,008
-431,905	-49,813	-0,089	-0,030
-430,890	800,000	0,021	0,043
-429,876	-76,415	0,121	-0,031
-428,861	-5,367	-0,051	-0,025
-427,846	9,993	-0,028	-0,015
-426,832	800,000	-0,065	-0,157
-425,817	180,751	0,099	-0,106
-424,803	-200,000	0,002	0,056
-423,788	-100,654	0,106	0,019
-422,773	-33,139	0,150	0,060
-421,759	-42,401	0,032	0,012
-420,744	50,166	-0,045	0,031
-419,730	157,565	0,035	0,036
-418,715	-200,000	-0,001	-0,124
-417,701	-70,210	0,095	0,026
-416,686	-200,000	0,001	-0,102
-415,671	-132,573	0,121	-0,011
-414,657	137,805	-0,073	0,070
-413,642	440,655	-0,078	0,125
-412,628	-12,281	-0,105	-0,050
-411,613	-200,000	-0,005	-0,094
-410,598	-61,677	-0,166	0,050
-409,584	800,000	0,029	-0,070
-408,569	-58,670	0,120	-0,037
-407,555	-200,000	-0,015	-0,065
-406,540	800,000	-0,035	0,078
-405,525	-200,000	0,006	0,020
-404,511	-200,000	-0,011	0,074
-403,496	-200,000	-0,027	0,103
-402,482	32,185	0,115	0,072
-401,467	-200,000	-0,017	-0,074
-400,452	51,102	-0,032	-0,022
-399,438	36,993	0,068	-0,044
-398,423	-200,000	0,028	-0,100
-397,409	-200,000	0,007	0,088
-396,394	62,936	-0,066	-0,048
-395,379	100,278	0,035	0,030
-394,365	-94,049	0,173	-0,034
-393,350	26,173	0,060	-0,036
-392,336	52,014	0,035	-0,024
-391,321	1,537	-0,114	0,060
-390,306	22,629	0,090	0,053
-389,292	101,011	-0,083	0,070
-388,277	-15,161	0,049	0,023
-387,263	-102,203	-0,074	-0,013
-386,248	-101,640	0,027	-0,005
-385,233	-200,000	-0,005	-0,100
-384,219	-200,000	0,042	0,150
-383,204	-135,381	-0,186	-0,016
-382,190	173,981	-0,097	0,102
-381,175	-200,000	-0,010	0,059
-380,160	-138,977	0,136	0,011
-379,146	-21,556	0,162	0,072
-378,131	13,302	0,029	0,016
-377,117	163,066	-0,108	0,111
-376,102	-134,695	-0,030	-0,003
-375,088	-65,241	0,071	0,021
-374,073	15,642	0,027	0,015
-373,058	-77,905	0,157	0,039
-372,044	70,685	0,156	-0,117
-371,029	-81,836	-0,089	0,021
-370,015	123,641	-0,120	0,109
-369,000	800,000	-0,047	-0,101
-367,985	59,502	0,048	-0,034
-366,971	-45,465	0,030	0,011
-365,956	329,790	-0,037	0,051
-364,942	-27,580	-0,032	-0,013
-363,927	26,848	-0,092	-0,056
-362,912	780,010	-0,029	-0,058
-361,898	-200,000	-0,002	0,167
-360,883	772,328	0,015	0,029
-359,869	-149,033	-0,124	0,007
-358,854	-8,271	0,134	-0,065
-357,839	484,944	-0,037	0,062
-356,825	571,548	-0,036	0,063
-355,810	221,207	0,041	-0,047
-354,796	22,421	-0,041	-0,024
-353,781	151,337	-0,054	-0,053
-352,766	177,423	-0,021	0,022
-351,752	308,471	0,037	0,050
-350,737	713,733	0,089	0,173
-349,723	-42,630	0,078	-0,029
-348,708	6,057	0,064	0,034
-347,693	24,979	-0,126	-0,076
-346,679	-46,984	-0,011	-0,004
-345,664	176,026	-0,066	0,070
-344,650	-200,000	0,000	-0,043
-343,635	308,667	-0,090	0,123
-342,620	-26,609	-0,094	0,040
-341,606	-75,658	-0,128	0,033
-340,591	280,776	0,120	0,156
-339,577	692,816	0,051	-0,097
-338,562	200,364	-0,079	0,089
-337,548	-200,000	0,035	0,153
-336,533	800,000	0,023	0,052
-335,518	74,621	-0,102	0,078
-334,504	-200,000	-0,008	0,158
-333,489	-58,291	0,070	0,022
-332,475	-112,041	-0,042	-0,006
-331,460	174,544	0,063	0,066
-330,445	-200,000	0,027	0,101
-329,431	-17,088	0,072	-0,033
-328,416	-200,000	0,001	-0,054
-327,402	168,876	0,062	-0,064
-326,387	346,604	0,034	-0,049
-325,372	-200,000	-0,039	-0,145
-324,358	184,932	-0,060	-0,065
-323,343	-85,298	-0,033	0,007
-322,329	-200,000	0,007	0,035
-321,314	-200,000	-0,007	0,159
-320,299	-200,000	-0,021	0,131
-319,285	126,434	0,028	0,025
-318,270	-151,355	0,124	0,007
-317,256	-200,000	0,025	-0,090
-316,241	-27,792	-0,044	0,018
-315,226	-123,748	0,012	-0,001
-314,212	-200,000	0,005	0,036
-313,197	-0,004	0,052	0,027
-312,183	-200,000	0,012	-0,082
-311,168	277,854	-0,080	-0,103
-310,153	47,947	-0,064	-0,043
-309,139	-86,380	0,123	-0,027
-308,124	113,900	0,040	-0,035
-307,110	164,195	-0,031	-0,032
-306,095	181,205	-0,094	0,100
-305,080	546,906	0,018	-0,031
-304,066	237,762	-0,093	-0,111
-303,051	773,456	-0,012	-0,023
-302,037	800,000	-0,023	-0,056
-301,022	800,000	-0,050	-0,114
-300,008	68,500	-0,112	0,083
-298,993	-200,000	-0,017	0,066
-297,978	-200,000	0,008	0,064
-296,964	800,000	0,042	-0,112
-295,949	-28,679	0,093	0,039
-294,935	-200,000	-0,001	-0,023
-293,920	139,488	-0,034	-0,032
-292,905	-31,588	0,048	0,020
-291,891	-117,896	0,073	-0,009
-290,876	-158,129	0,026	0,001
-289,862	-200,000	0,008	0,053
-288,847	800,000	0,026	-0,073
-287,832	158,033	-0,092	-0,092
-286,818	800,000	0,019	0,059
-285,803	109,996	0,096	0,084
-284,789	-25,256	-0,047	-0,020
-283,774	-165,596	-0,102	-0,003
-282,759	99,034	0,087	-0,073
-281,745	800,000	-0,044	-0,133
-280,730	-130,809	-0,070	0,007
-279,716	-200,000	0,003	-0,024
-278,701	328,400	0,110	0,153
-277,686	800,000	0,024	-0,058
-276,672	561,403	-0,023	-0,040
-275,657	225,233	0,113	-0,132
-274,643	-143,337	0,087	-0,006
-273,628	-14,274	-0,108	-0,050
-272,613	-200,000	-0,015	-0,072
-271,599	-200,000	-0,007	0,101
-270,584	-66,575	0,171	0,049
-269,570	-200,000	0,029	0,152
-268,555	338,911	-0,043	0,061
-267,540	-17,835	-0,060	-0,027
-266,526	-137,231	0,149	-0,012
-265,511	719,798	-0,024	-0,046
-264,497	-200,000	-0,003	-0,140
-263,482	-16,988	0,140	0,064
-262,467	-200,000	0,006	-0,027
-261,453	-63,345	-0,091	-0,027
-260,438	-200,000	-0,022	-0,214
-259,424	-200,000	-0,001	0,047
-258,409	800,000	0,017	0,043
-257,395	196,330	0,120	-0,133
-256,380	-41,434	0,099	0,037
-255,365	465,774	0,068	-0,111
-254,351	166,642	-0,068	-0,070
-253,336	15,511	0,026	-0,015
-252,322	47,346	-0,101	-0,068
-251,307	-84,214	-0,077	0,018
-250,292	-200,000	0,015	0,067
-249,278	-20,885	0,066	-0,029
-248,263	8,931	-0,104	0,057
-247,249	-200,000	0,009	0,091
-246,234	-20,739	-0,052	0,023
-245,219	-200,000	-0,007	0,062
-244,205	-200,000	-0,002	0,044
-243,190	328,558	0,106	-0,148
-242,176	366,799	-0,065	0,095
-241,161	18,249	0,046	-0,026
-240,146	28,020	-0,137	0,083
-239,132	-55,595	0,142	-0,046
-238,117	14,326	-0,180	-0,101
-237,103	146,805	-0,074	-0,072
-236,088	-200,000	-0,011	0,098
-235,073	64,128	-0,072	0,053
-234,059	-107,449	0,029	-0,005
-233,044	372,851	0,049	0,072
-232,030	735,291	-0,007	-0,014
-231,015	800,000	-0,041	-0,095
-230,000	-200,000	-0,005	-0,083
-228,986	-200,000	-0,013	0,059
-227,971	-200,000	0,011	0,041
-226,957	88,289	0,034	-0,027
-225,942	-200,000	0,011	0,038
-224,927	-32,262	-0,104	-0,042
-223,913	-1,943	-0,057	-0,029
-222,898	39,054	-0,106	-0,068
-221,884	-45,690	0,104	0,037
-220,869	-200,000	0,012	0,086
-219,855	-200,000	-0,029	0,117
-218,840	-4,873	-0,051	0,025
-217,825	87,745	-0,030	-0,024
-216,811	84,666	-0,039	0,031
-215,796	-200,000	0,007	0,055
-214,782	-200,000	-0,010	0,060
-213,767	800,000	-0,025	-0,075
-212,752	62,580	-0,016	0,012
-211,738	768,834	0,057	-0,113
-210,723	-200,000	-0,020	0,150
-209,709	-200,000	0,073	-0,232
-208,694	-200,000	-0,006	0,024
-207,679	800,000	-0,016	-0,044
-206,665	-200,000	-0,002	0,033
-205,650	517,030	0,121	0,205
-204,636	800,000	-0,009	0,024
-203,621	341,132	0,058	-0,082
-202,606	-130,015	0,073	-0,007
-201,592	52,588	-0,041	-0,029
-200,577	440,409	0,022	-0,035
-199,563	589,546	-0,037	0,065
-198,548	-104,121	0,176	-0,029
-197,533	-45,240	0,149	0,053
-196,519	800,000	0,058	0,146
-195,504	-154,442	-0,086	-0,004
-194,490	47,360	0,017	-0,011
-193,475	800,000	0,045	-0,121
-192,460	-200,000	-0,013	-0,067
-191,446	-16,268	0,144	0,066
-190,431	-200,000	0,016	0,103
-189,417	-81,020	0,171	0,040
-188,402	146,211	-0,134	-0,129
-187,387	-200,000	0,020	-0,181
-186,373	-200,000	-0,045	-0,304
-185,358	304,365	-0,032	-0,043
-184,344	377,715	-0,028	0,042
-183,329	-200,000	0,029	0,126
-182,315	-200,000	0,009	-0,048
-181,300	294,169	0,039	-0,052
-180,285	-200,000	-0,029	-0,172
-179,271	8,554	0,057	-0,031
-178,256	-200,000	0,023	0,107
-177,242	66,337	0,086	0,063
-176,227	394,859	0,007	0,011
-175,212	-4,832	0,088	-0,043
-174,198	800,000	-0,033	0,094
-173,183	234,418	-0,110	0,131
-172,169	-200,000	0,009	-0,059
-171,154	139,430	-0,063	-0,059
-170,139	-80,518	0,020	0,005
-169,125	156,124	-0,017	0,016
-168,110	-169,108	0,086	0,002
-167,096	49,099	0,083	0,056
-166,081	-200,000	0,008	-0,041
-165,066	128,354	-0,116	0,106
-164,052	-0,185	-0,060	0,031
-163,037	-128,071	0,053	-0,005
-162,023	588,186	-0,043	0,076
-161,008	337,709	-0,009	0,013
-159,993	396,722	-0,122	0,184
-158,979	-8,082	-0,062	-0,030
-157,964	800,000	-0,003	0,010
-156,950	-12,654	-0,087	-0,041
-155,935	4,975	0,051	0,027
-154,920	387,615	0,061	0,091
-153,906	-200,000	-0,008	-0,098
-152,891	-200,000	0,001	0,088
-151,877	677,346	-0,077	0,145
-150,862	-86,064	-0,086	-0,019
-149,847	800,000	-0,024	0,072
-148,833	-2,233	-0,130	-0,065
-147,818	-104,179	0,105	0,017
-146,804	104,527	-0,034	0,029
-145,789	138,828	0,036	-0,034
-144,775	-122,848	-0,099	0,011
-143,760	800,000	-0,075	-0,161
-142,745	705,754	-0,108	-0,205
-141,731	-94,164	0,120	0,024
-140,716	108,880	0,073	0,063
-139,702	800,000	-0,023	-0,055
-138,687	-200,000	-0,009	0,034
-137,672	167,028	-0,041	-0,042
-136,658	563,398	0,053	-0,094
-135,643	-200,000	-0,028	-0,105
-134,629	-200,000	-0,026	-0,119
-133,614	56,730	-0,047	-0,033
-132,599	-200,000	0,005	0,081
-131,585	-200,000	-0,002	-0,034
-130,570	-200,000	-0,012	0,083
-129,556	649,785	0,020	-0,036
-128,541	-200,000	-0,020	-0,174
-127,526	185,153	-0,060	0,064
-126,512	800,000	0,027	-0,065
-125,497	-53,509	0,155	0,051
-124,483	71,867	-0,025	0,019
-123,468	-129,067	0,027	0,003
-122,453	-200,000	0,002	0,018
-121,439	118,023	-0,041	-0,037
-120,424	62,676	0,015	-0,010
-119,410	40,699	0,035	-0,023
-118,395	155,616	0,085	0,084
-117,380	-114,232	0,069	0,009
-116,366	-54,161	0,048	0,015
-115,351	-171,933	-0,156	-0,004
-114,337	-200,000	0,036	-0,125
-113,322	-200,000	0,003	0,056
-112,307	-70,291	0,086	0,023
-111,293	-144,958	-0,073	0,005
-110,278	112,661	-0,032	-0,028
-109,264	-93,514	-0,044	-0,009
-108,249	-106,977	0,022	0,003
-107,234	-73,959	-0,112	0,029
-106,220	-200,000	-0,006	0,084
-105,205	97,792	0,101	0,083
-104,191	-200,000	-0,008	0,036
-103,176	382,358	-0,045	0,067
-102,162	411,582	0,090	0,138
-101,147	13,231	-0,128	-0,071
-100,132	156,898	-0,115	-0,114
-99,118	621,347	0,043	-0,078
-98,103	-81,300	0,077	0,018
-97,089	306,197	-0,135	0,181
-96,074	6,661	0,229	-0,122
-95,059	800,000	0,035	-0,084
-94,045	118,040	0,011	0,010
-93,030	800,000	-0,030	-0,060
-92,016	-200,000	0,004	-0,081
-91,001	-200,000	-0,014	-0,094
-89,986	-82,286	0,141	0,033
-88,972	800,000	0,032	0,063
-87,957	10,775	-0,073	0,040
-86,943	144,886	0,061	0,059
-85,928	-108,400	-0,163	0,025
-84,913	-200,000	0,017	-0,070
-83,899	589,471	-0,019	0,033
-82,884	87,947	0,040	-0,032
-81,870	-200,000	-0,000	-0,007
-80,855	-153,509	0,045	-0,002
-79,840	-67,894	-0,045	0,012
-78,826	-200,000	0,026	0,082
-77,811	188,219	-0,099	-0,107
-76,797	356,219	0,055	-0,079
-75,782	-26,358	0,055	-0,023
-74,767	-31,992	0,039	0,015
-73,753	612,445	-0,053	0,095
-72,738	7,328	0,135	-0,072
-71,724	117,147	-0,041	0,036
-70,709	109,017	-0,102	-0,088
-69,694	128,593	0,038	-0,035
-68,680	146,594	0,037	-0,036
-67,665	115,035	0,052	-0,046
-66,651	-56,841	0,108	0,034
-65,636	-29,901	0,093	-0,038
-64,622	-1,021	0,083	-0,042
-63,607	-70,395	-0,081	0,022
-62,592	-200,000	0,032	-0,134
-61,578	800,000	-0,044	0,109
-60,563	-104,100	0,109	-0,018
-59,549	-65,517	-0,063	-0,018
-58,534	-2,702	-1,992	-0,996
-57,519	-200,000	-0,261	-0,886
-56,505	-200,000	-1,335	-5,018
-55,490	-3,542	0,903	0,449
-54,476	800,000	5,204	12,082
-53,461	-200,000	17,511	282,046
-52,446	800,000	725,813	2208,712
-51,432	532,117	1642,233	2797,162
-50,417	109,920	1633,124	1404,634
-49,403	74,584	1286,178	968,987
-48,388	31,999	1027,706	633,669
-47,373	20,082	989,531	570,863
-46,359	18,483	977,444	558,629
-45,344	15,765	973,550	547,495
-44,330	15,959	972,180	547,339
-43,315	15,497	970,265	544,730
-42,300	15,486	968,906	543,908
-41,286	15,442	968,095	543,288
-40,271	15,517	966,797	542,781
-39,257	15,483	966,160	542,294
-38,242	15,482	965,232	541,748
-37,227	15,507	964,569	541,435
-36,213	15,481	963,693	540,838
-35,198	15,452	962,737	540,187
-34,184	15,471	961,945	539,783
-33,169	15,451	961,055	539,197
-32,154	15,504	960,151	538,838
-31,140	15,478	959,124	538,156
-30,125	15,512	958,503	537,897
-29,111	15,468	957,853	537,370
-28,096	15,521	957,141	537,119
-27,082	15,562	956,463	536,849
-26,067	15,510	955,456	536,094
-25,052	15,489	954,875	535,682
-24,038	15,521	954,087	535,318
-23,023	15,498	953,524	534,910
-22,009	15,494	952,803	534,471
-20,994	15,489	952,281	534,140
-19,979	15,487	951,689	533,779
-18,965	15,502	951,066	533,457
-17,950	15,486	950,461	533,048
-16,936	15,490	949,635	532,575
-15,921	15,445	948,953	532,027
-14,906	15,413	948,120	531,437
-13,892	15,304	947,856	530,923
-12,877	15,388	947,076	530,732
-11,863	15,364	946,235	530,163
-10,848	15,335	945,926	529,875
-9,833	15,515	945,373	530,117
-8,819	15,417	944,785	529,454
-7,804	15,394	944,251	529,063
-6,790	15,400	943,538	528,659
-5,775	15,452	943,010	528,509
-4,760	15,464	942,373	528,167
-3,746	15,392	941,746	527,569
-2,731	15,317	941,073	526,934
-1,717	15,181	940,470	526,146
-0,702	15,218	939,827	525,879
0,313	15,040	938,946	525,619
1,327	18,267	937,046	534,668
2,342	27,297	794,313	477,128
3,356	24,151	459,009	270,888
4,371	-2,875	314,234	156,770
5,386	-6,825	296,226	143,780
6,400	-8,789	290,290	138,938
7,415	-9,064	287,829	137,478
8,429	-9,396	286,195	136,360
9,444	-9,499	285,310	135,826
10,459	-9,516	284,738	135,525
11,473	-9,397	284,131	135,340
12,488	-9,404	283,411	134,978
13,502	-9,465	282,966	134,695
14,517	-9,428	282,565	134,527
15,531	-9,775	282,166	133,991
16,546	-9,646	281,624	133,846
17,561	-9,741	281,273	133,576
18,575	-9,604	280,924	133,530
19,590	-9,731	280,663	133,272
20,604	-9,726	280,353	133,118
21,619	-9,727	279,988	132,932
22,634	-9,804	279,634	132,678
23,648	-9,868	279,370	132,480
24,663	-9,999	279,154	132,241
25,677	-9,790	278,839	132,279
26,692	-9,843	278,607	132,107
27,707	-9,714	278,278	132,062
28,721	-9,714	277,990	131,913
29,736	-9,781	277,775	131,736
30,750	-9,828	277,448	131,525
31,765	-9,699	277,207	131,520
32,780	-9,778	276,898	131,288
33,794	-9,715	276,664	131,224
34,809	-9,753	276,552	131,123
35,823	-9,769	276,255	130,956
36,838	-9,674	275,887	130,860
37,853	-9,776	275,680	130,654
38,867	-9,817	275,398	130,469
39,882	-9,887	275,232	130,314
40,896	-9,760	274,780	130,207
41,911	-9,969	274,793	130,006
42,926	-9,820	274,448	129,970
43,940	-9,838	274,144	129,798
44,955	-9,894	273,911	129,623
45,969	-9,862	273,772	129,576
46,984	-10,166	273,616	129,208
47,999	-10,352	273,278	128,863
49,013	-10,312	273,013	128,764
50,028	-10,339	272,764	128,610
51,042	-10,461	272,601	128,408
52,057	-10,577	272,214	128,107
53,071	-10,310	271,954	128,220
54,086	-10,247	271,793	128,191
55,101	-10,272	271,669	128,098
56,115	-10,119	271,635	128,213
57,130	-9,739	271,334	128,410
58,144	-9,622	271,238	128,461
59,159	-9,606	270,898	128,303
60,174	-9,616	270,750	128,213
61,188	-9,735	270,694	128,065
62,203	-9,495	270,386	128,129
63,217	-9,646	270,173	127,878
64,232	-9,630	269,880	127,742
65,247	-9,599	269,635	127,643
66,261	-9,719	269,305	127,366
67,276	-9,934	269,155	127,087
68,290	-9,813	268,849	127,042
69,305	-9,963	268,702	126,824
70,320	-9,846	268,398	126,776
71,334	-9,951	268,246	126,597
72,349	-9,710	268,063	126,719
73,363	-9,563	267,917	126,773
74,378	-9,567	267,680	126,645
75,393	-9,556	267,392	126,508
76,407	-9,632	267,295	126,382
77,422	-9,548	267,120	126,364
78,436	-9,531	266,893	126,261
79,451	-9,622	266,578	126,018
80,466	-9,651	266,294	125,846
81,480	-9,831	266,140	125,599
82,495	-9,890	265,981	125,460
83,509	-9,563	265,626	125,576
84,524	-9,831	265,332	125,185
85,539	-10,091	265,343	124,944
86,553	-9,938	265,024	124,921
87,568	-9,876	264,801	124,860
88,582	-9,863	264,622	124,776
89,597	-9,894	264,486	124,673
90,611	-9,907	264,298	124,562
91,626	-9,614	264,023	124,683
92,641	-9,638	263,843	124,566
93,655	-9,690	263,708	124,445
94,670	-9,696	263,371	124,269
95,684	-9,793	263,313	124,144
96,699	-9,678	263,162	124,164
97,714	-9,885	262,899	123,845
98,728	-9,851	262,767	123,802
99,743	-10,093	262,437	123,420
100,757	-9,954	262,070	123,360
101,772	-9,996	262,119	123,334
102,787	-9,823	261,904	123,376
103,801	-9,878	261,664	123,203
104,816	-9,720	261,494	123,253
105,830	-9,447	261,303	123,393
106,845	-9,633	261,250	123,192
107,860	-9,726	260,976	122,970
108,874	-9,549	260,633	122,954
109,889	-9,530	260,481	122,888
110,903	-9,695	260,393	122,690
111,918	-9,778	260,254	122,540
112,933	-9,630	259,982	122,532
113,947	-9,890	259,833	122,222
114,962	-9,875	259,781	122,199
115,976	-9,698	259,398	122,163
116,991	-9,745	259,157	121,998
118,006	-9,797	259,099	121,914
119,020	-9,740	258,974	121,894
120,035	-9,641	258,740	121,860
121,049	-9,383	258,505	121,964
122,064	-9,627	258,336	121,660
123,079	-9,597	258,188	121,606
124,093	-9,610	257,828	121,415
125,108	-9,874	257,665	121,097
126,122	-9,848	257,282	120,929
127,137	-10,152	257,274	120,649
128,151	-10,137	257,231	120,631
129,166	-9,663	256,661	120,765
130,181	-9,659	256,619	120,738
131,195	-10,074	256,468	120,296
132,210	-9,888	256,352	120,392
133,224	-9,745	256,222	120,444
134,239	-9,642	256,033	120,434
135,254	-9,547	255,837	120,412
136,268	-9,728	255,677	120,170
137,283	-9,827	255,293	119,894
138,297	-10,082	255,185	119,612
139,312	-10,206	254,985	119,401
140,327	-9,644	254,733	119,756
141,341	-9,246	254,578	120,015
142,356	-9,353	254,664	119,953
143,370	-9,534	254,451	119,686
144,385	-9,439	254,252	119,664
145,400	-9,466	254,065	119,542
146,414	-9,587	253,805	119,305
147,429	-9,412	253,475	119,289
148,443	-9,428	253,530	119,291
149,458	-9,351	253,205	119,194
150,473	-9,573	253,200	118,990
151,487	-9,407	252,985	119,020
152,502	-9,404	252,767	118,910
153,516	-9,514	252,515	118,687
154,531	-9,449	252,526	118,737
155,546	-9,274	252,248	118,745
156,560	-9,476	252,024	118,457
157,575	-9,662	251,809	118,187
158,589	-9,557	251,642	118,187
159,604	-9,499	251,486	118,152
160,619	-9,433	251,315	118,117
161,633	-9,426	250,988	117,959
162,648	-9,509	251,066	117,916
163,662	-9,337	250,809	117,930
164,677	-9,499	250,623	117,695
165,692	-9,534	250,529	117,611
166,706	-9,252	250,340	117,749
167,721	-9,475	250,153	117,463
168,735	-9,500	250,102	117,407
169,750	-9,416	249,859	117,354
170,764	-9,314	249,678	117,344
171,779	-9,375	249,617	117,253
172,794	-9,315	249,431	117,206
173,808	-9,340	249,075	117,007
174,823	-9,839	248,921	116,506
175,837	-9,934	248,583	116,258
176,852	-9,705	248,657	116,474
177,867	-9,301	248,529	116,742
178,881	-9,216	248,204	116,650
179,896	-9,367	248,125	116,477
180,910	-9,265	247,995	116,490
181,925	-9,494	247,918	116,252
182,940	-9,203	247,504	116,290
183,954	-9,241	247,463	116,229
184,969	-9,378	247,444	116,095
185,983	-9,235	247,186	116,083
186,998	-9,364	247,080	115,915
188,013	-9,384	246,916	115,812
189,027	-9,208	246,678	115,836
190,042	-9,306	246,448	115,636
191,056	-9,101	246,200	115,680
192,071	-9,248	246,212	115,553
193,086	-9,330	245,999	115,375
194,100	-9,213	245,744	115,342
195,115	-9,186	245,677	115,322
196,129	-9,073	245,422	115,285
197,144	-9,419	245,308	114,936
198,159	-9,403	244,934	114,764
199,173	-9,466	244,819	114,648
200,188	-9,214	244,573	114,730
201,202	-9,558	244,432	114,371
202,217	-9,743	244,081	114,044
203,232	-9,828	243,983	113,919
204,246	-9,303	243,963	114,330
205,261	-8,669	243,930	114,824
206,275	-9,433	243,775	114,115
207,290	-7,248	244,489	116,232
208,304	-2,100	246,034	121,202
209,319	0,857	246,874	124,046
210,334	1,598	246,842	124,630
211,348	1,618	246,851	124,640
212,363	1,838	246,804	124,787
213,377	2,024	246,679	124,865
214,392	2,081	246,552	124,837
215,407	1,816	246,354	124,507
216,421	1,901	246,083	124,429
217,436	2,264	245,922	124,634
218,450	2,141	245,835	124,478
219,465	1,875	245,667	124,164
220,480	1,913	245,525	124,113
221,494	1,791	245,379	123,927
222,509	2,340	245,264	124,308
223,523	2,004	245,103	123,941
224,538	1,567	244,750	123,394
225,553	1,652	244,587	123,370
226,567	1,756	244,523	123,412
227,582	2,037	244,373	123,554
228,596	2,139	244,182	123,530
229,611	1,830	243,893	123,121
230,626	1,665	243,798	122,928
231,640	1,930	243,719	123,092
232,655	2,041	243,551	123,087
233,669	1,751	243,349	122,738
234,684	1,660	243,185	122,571
235,699	2,087	243,030	122,828
236,713	2,073	242,958	122,769
237,728	1,768	242,796	122,429
238,742	1,848	242,484	122,326
239,757	1,655	242,267	122,050
240,772	1,730	242,160	122,046
241,786	1,866	242,072	122,100
242,801	1,588	241,785	121,720
243,815	1,377	241,620	121,457
244,830	1,709	241,594	121,700
245,844	2,124	241,390	121,919
246,859	1,888	241,174	121,611
247,874	1,826	241,118	121,522
248,888	1,730	241,097	121,423
249,903	2,111	240,767	121,551
250,917	2,162	240,820	121,608
251,932	2,366	240,541	121,620
252,947	2,184	240,335	121,360
253,961	1,541	240,081	120,707
254,976	1,989	240,068	121,047
255,990	2,079	239,936	121,042
257,005	1,601	239,694	120,527
258,020	1,517	239,498	120,351
259,034	1,701	239,440	120,459
260,049	1,713	239,355	120,414
261,063	1,608	239,161	120,222
262,078	1,816	238,823	120,207
263,093	1,919	238,694	120,212
264,107	1,795	238,839	120,177
265,122	1,990	238,357	120,078
266,136	1,821	238,311	119,910
267,151	1,968	238,319	120,020
268,166	1,596	238,002	119,555
269,180	1,754	237,639	119,487
270,195	2,609	237,708	120,186
271,209	2,336	237,805	120,008
272,224	1,802	237,403	119,375
273,239	1,627	237,246	119,147
274,253	2,022	236,990	119,319
275,268	1,822	236,976	119,144
276,282	2,024	236,861	119,234
277,297	1,741	236,687	118,913
278,312	1,777	236,599	118,887
279,326	2,088	236,370	119,005
280,341	2,057	236,251	118,910
281,355	2,036	236,249	118,882
282,370	2,149	235,960	118,815
283,384	2,072	235,739	118,632
284,399	1,950	235,530	118,422
285,414	1,779	235,414	118,219
286,428	1,876	235,320	118,237
287,443	1,807	235,294	118,160
288,457	2,243	234,971	118,327
289,472	2,306	235,025	118,392
290,487	1,849	234,722	117,873
291,501	1,720	234,455	117,629
292,516	1,600	234,310	117,452
293,530	1,642	234,211	117,425
294,545	1,858	234,121	117,537
295,560	2,104	234,036	117,674
296,574	1,746	233,650	117,192
297,589	1,715	233,565	117,116
298,603	2,077	233,516	117,361
299,618	1,958	233,476	117,238
300,633	2,153	233,298	117,289
301,647	2,415	233,291	117,477
302,662	2,489	233,191	117,473
303,676	2,340	233,080	117,292
304,691	2,321	232,738	117,095
305,706	2,355	232,688	117,086
306,720	2,306	232,429	116,906
307,735	1,999	232,342	116,617
308,749	2,117	232,071	116,561
309,764	1,731	231,799	116,118
310,779	2,001	231,587	116,208
311,793	1,661	231,575	115,932
312,808	1,553	231,334	115,718
313,822	1,739	231,084	115,724
314,837	1,698	231,000	115,641
315,852	1,553	230,919	115,479
316,866	1,860	230,914	115,701
317,881	2,117	230,735	115,797
318,895	2,356	230,662	115,932
319,910	2,714	230,563	116,145
320,925	2,405	230,320	115,777
321,939	1,904	230,184	115,317
322,954	2,268	230,086	115,534
323,968	2,186	229,856	115,346
324,983	2,227	229,765	115,322
325,997	2,256	229,759	115,331
327,012	1,969	229,414	114,929
328,027	1,852	229,238	114,742
329,041	2,081	229,089	114,831
330,056	2,547	229,136	115,196
331,070	2,498	229,124	115,143
332,085	2,639	228,835	115,094
333,100	2,457	228,686	114,872
334,114	2,370	228,471	114,688
335,129	2,562	228,316	114,744
336,143	2,280	228,152	114,440
337,158	2,312	228,056	114,405
338,173	2,154	228,009	114,253
339,187	2,382	227,687	114,252
340,202	2,412	227,575	114,208
341,216	2,276	227,399	114,008
342,231	2,245	227,348	113,949
343,246	2,436	227,092	113,953
344,260	2,404	226,943	113,844
345,275	2,475	226,988	113,910
346,289	2,506	226,759	113,808
347,304	2,642	226,816	113,928
348,319	2,714	226,487	113,807
349,333	2,398	226,223	113,428
350,348	2,145	226,149	113,193
351,362	2,074	226,156	113,133
352,377	2,083	225,870	112,986
353,392	2,087	225,661	112,875
354,406	2,243	225,647	112,974
355,421	195,571	1320,996	1396,719
356,435	156,760	1454,449	1396,727
