DTS Sentinel unit serial number:	SN410029Multiplexer serial number:	ORYXHardware model number:	OX2-SRSoftware version number:	ORYX F/W v4,00 Oryx Data Collector v3.7.2.0data status	okinstallation	B5 Nyhavnadifferential loss correction	single-endedforward channel	channel 2reverse channel	N/Adate	2023/12/13time	21:42:13forward acquisition time	300,00reverse acquisition time	0,00gamma	499,1914k internal	0,3155k external	0,3155temperature offset calibration	1,0000default loss term (dB/km)	0,3820temperature slope calibration	1,0000multiplexer offset coefficient	1,0000multiplexer slope coefficient	1,0000fibre end	0,00T internal ref (°C)	9,83T ext. ref 1 (°C)	-6,97T ext. ref 2 (°C)	-7,00length (m)	temperature (°C)	Stokes	anti-Stokes-744,400	365,522	0,021	0,031
-743,385	-125,850	-0,315	0,035
-742,371	-35,079	0,250	0,100
-741,356	-54,199	-0,306	-0,102
-740,342	97,649	0,085	0,072
-739,327	-149,180	-0,362	-0,021
-738,312	800,000	0,061	0,198
-737,298	-99,319	-0,289	-0,053
-736,283	-96,049	0,061	-0,012
-735,269	-114,882	-0,415	0,058
-734,254	49,989	0,160	0,111
-733,239	-21,599	-0,611	-0,273
-732,225	-63,614	0,324	0,098
-731,210	-31,615	0,070	0,029
-730,196	-102,951	0,083	0,014
-729,181	44,428	-0,131	-0,089
-728,167	18,986	-0,053	-0,031
-727,152	156,968	-0,157	0,160
-726,137	-200,000	0,001	0,155
-725,123	160,348	0,007	-0,008
-724,108	398,581	-0,022	-0,034
-723,094	445,724	-0,113	-0,184
-722,079	367,592	-0,061	0,091
-721,064	122,270	0,051	-0,047
-720,050	-77,278	-0,110	-0,028
-719,035	-118,607	0,157	-0,020
-718,021	576,700	0,059	-0,107
-717,006	-142,454	-0,132	-0,009
-715,991	-200,000	-0,009	-0,069
-714,977	800,000	-0,020	0,043
-713,962	744,856	-0,075	-0,149
-712,948	183,778	-0,066	0,072
-711,933	60,876	-0,063	0,046
-710,918	48,257	-0,026	-0,018
-709,904	56,619	-0,055	-0,040
-708,889	3,888	-0,068	0,037
-707,875	-200,000	-0,019	-0,155
-706,860	-200,000	0,016	-0,138
-705,845	105,957	0,073	0,064
-704,831	189,215	-0,104	-0,115
-703,816	165,148	-0,082	0,086
-702,802	-200,000	-0,016	-0,174
-701,787	-81,910	-0,100	0,024
-700,772	-73,729	0,150	-0,040
-699,758	-60,014	-0,079	0,025
-698,743	-137,032	0,016	0,001
-697,729	13,572	-0,016	-0,009
-696,714	5,409	0,050	0,027
-695,699	-3,809	-0,020	0,010
-694,685	-200,000	-0,001	-0,079
-693,670	-115,304	0,093	-0,013
-692,656	800,000	0,041	-0,133
-691,641	145,607	0,095	0,094
-690,627	-63,384	0,062	0,019
-689,612	-200,000	0,036	-0,151
-688,597	800,000	0,014	-0,040
-687,583	-74,068	-0,117	-0,031
-686,568	800,000	0,042	-0,105
-685,554	-200,000	0,025	-0,136
-684,539	-135,922	-0,162	0,014
-683,524	94,164	0,127	0,106
-682,510	232,816	-0,062	0,075
-681,495	173,604	-0,093	-0,099
-680,481	-200,000	0,000	0,011
-679,466	-7,709	-0,104	-0,052
-678,451	12,257	0,019	-0,011
-677,437	800,000	0,030	-0,069
-676,422	-200,000	-0,007	0,105
-675,408	137,423	-0,054	0,052
-674,393	75,843	-0,085	0,066
-673,378	-200,000	-0,009	-0,034
-672,364	681,372	0,057	-0,111
-671,349	100,556	-0,086	-0,073
-670,335	-89,408	0,128	-0,027
-669,320	-137,304	0,018	0,002
-668,305	800,000	-0,010	0,026
-667,291	800,000	-0,012	-0,030
-666,276	-44,604	0,077	-0,028
-665,262	-67,823	-0,076	0,022
-664,247	-6,484	0,061	-0,031
-663,232	179,163	-0,031	-0,034
-662,218	-61,302	0,087	-0,027
-661,203	-89,686	0,053	0,011
-660,189	169,330	0,079	0,083
-659,174	213,168	-0,105	-0,123
-658,159	-200,000	-0,005	-0,101
-657,145	-68,276	-0,152	-0,043
-656,130	-31,396	0,014	0,006
-655,116	594,649	0,036	-0,066
-654,101	222,568	0,093	-0,110
-653,086	313,539	0,055	-0,076
-652,072	2,708	0,075	0,040
-651,057	126,974	-0,089	-0,083
-650,043	800,000	0,008	0,027
-649,028	800,000	-0,027	0,071
-648,014	-129,669	-0,070	-0,007
-646,999	206,993	-0,068	0,078
-645,984	205,948	0,066	0,075
-644,970	384,697	-0,029	-0,044
-643,955	-82,524	-0,158	-0,037
-642,941	-28,065	-0,107	-0,045
-641,926	65,193	-0,056	-0,042
-640,911	-200,000	0,004	0,014
-639,897	-122,618	-0,096	0,011
-638,882	77,737	-0,069	0,054
-637,868	-44,231	-0,036	-0,013
-636,853	101,379	0,024	-0,020
-635,838	800,000	0,038	0,119
-634,824	800,000	-0,057	-0,133
-633,809	-200,000	-0,001	-0,070
-632,795	800,000	-0,047	0,129
-631,780	641,830	0,051	-0,095
-630,765	131,530	-0,015	0,014
-629,751	-166,203	-0,041	0,001
-628,736	-200,000	0,023	-0,173
-627,722	46,730	0,051	-0,035
-626,707	-102,338	0,142	0,025
-625,692	800,000	-0,032	0,068
-624,678	172,171	0,031	-0,033
-623,663	351,397	-0,035	-0,052
-622,649	-188,627	-0,122	-0,001
-621,634	-38,544	0,054	-0,021
-620,619	800,000	0,030	0,064
-619,605	-64,547	0,111	-0,033
-618,590	162,033	0,057	-0,058
-617,576	106,852	0,033	-0,029
-616,561	118,751	-0,042	-0,038
-615,546	98,674	0,037	0,032
-614,532	-200,000	-0,043	-0,178
-613,517	39,158	-0,053	-0,035
-612,503	115,287	0,019	0,017
-611,488	-200,000	-0,004	-0,021
-610,474	-81,165	0,065	0,016
-609,459	42,281	0,062	-0,041
-608,444	-67,984	-0,109	-0,031
-607,430	490,440	-0,027	-0,045
-606,415	19,848	-0,090	-0,053
-605,401	622,066	0,024	-0,045
-604,386	-151,062	0,121	-0,007
-603,371	-85,054	-0,069	-0,016
-602,357	324,994	-0,061	0,086
-601,342	800,000	0,064	0,174
-600,328	-186,663	-0,086	0,001
-599,313	564,849	0,018	-0,032
-598,298	-47,788	-0,075	-0,027
-597,284	40,626	0,131	0,087
-596,269	135,993	0,046	-0,044
-595,255	800,000	-0,051	-0,126
-594,240	800,000	0,016	0,036
-593,225	-65,620	-0,141	-0,041
-592,211	-200,000	-0,019	-0,087
-591,196	800,000	-0,048	0,103
-590,182	-111,120	0,102	0,015
-589,167	800,000	0,063	0,177
-588,152	153,876	0,116	-0,117
-587,138	800,000	0,046	-0,104
-586,123	58,747	-0,006	0,004
-585,109	67,216	0,075	-0,056
-584,094	-200,000	-0,005	-0,042
-583,079	-132,420	0,092	0,009
-582,065	-67,991	-0,069	-0,020
-581,050	238,081	0,072	0,088
-580,036	-200,000	-0,019	-0,072
-579,021	784,506	-0,054	-0,109
-578,006	-200,000	0,011	-0,098
-576,992	0,692	-0,055	0,029
-575,977	132,820	0,068	-0,064
-574,963	-93,150	0,101	-0,020
-573,948	629,029	-0,022	-0,040
-572,934	106,999	-0,063	0,055
-571,919	669,741	0,022	0,041
-570,904	-69,739	-0,048	-0,013
-569,890	-134,959	-0,063	-0,006
-568,875	-56,370	0,048	0,015
-567,861	-27,662	-0,060	-0,025
-566,846	-200,000	0,006	0,089
-565,831	40,894	0,061	-0,040
-564,817	556,022	0,035	-0,062
-563,802	-87,208	-0,079	0,017
-562,788	-200,000	-0,008	-0,099
-561,773	-200,000	0,054	0,181
-560,758	96,202	-0,117	0,098
-559,744	-200,000	0,027	0,115
-558,729	311,859	0,084	-0,115
-557,715	-39,654	0,083	0,032
-556,700	13,184	-0,158	-0,089
-555,685	272,319	0,059	0,077
-554,671	-150,135	-0,223	0,012
-553,656	62,559	0,099	-0,072
-552,642	9,867	0,114	-0,063
-551,627	-45,132	0,076	0,027
-550,612	63,291	-0,107	-0,079
-549,598	-68,804	0,027	-0,008
-548,583	288,825	-0,069	-0,092
-547,569	494,514	0,016	-0,027
-546,554	-2,018	0,128	0,066
-545,539	158,640	-0,072	0,073
-544,525	-200,000	-0,011	-0,057
-543,510	-111,382	-0,106	-0,016
-542,496	763,742	0,019	-0,038
-541,481	-24,094	-0,089	-0,039
-540,466	290,005	0,067	-0,089
-539,452	800,000	-0,025	-0,076
-538,437	177,925	0,080	-0,086
-537,423	-200,000	-0,009	0,103
-536,408	546,669	0,072	0,126
-535,393	207,314	0,020	-0,023
-534,379	-200,000	0,037	-0,209
-533,364	-21,461	0,025	0,011
-532,350	-200,000	0,009	0,066
-531,335	800,000	0,047	-0,097
-530,321	-200,000	0,012	0,074
-529,306	144,763	-0,098	-0,096
-528,291	-200,000	0,030	-0,176
-527,277	-200,000	0,005	-0,157
-526,262	800,000	-0,024	0,068
-525,248	-89,940	0,108	0,023
-524,233	-84,012	0,073	-0,017
-523,218	494,678	0,040	-0,067
-522,204	11,259	-0,125	-0,070
-521,189	-147,229	-0,111	0,007
-520,175	800,000	0,045	-0,139
-519,160	800,000	-0,035	0,073
-518,145	800,000	-0,013	0,039
-517,131	800,000	-0,046	-0,129
-516,116	-200,000	0,027	0,200
-515,102	800,000	-0,008	0,024
-514,087	800,000	-0,051	0,151
-513,072	-200,000	-0,010	0,086
-512,058	-200,000	-0,027	-0,101
-511,043	496,466	0,047	0,080
-510,029	-111,560	0,172	0,025
-509,014	-200,000	0,003	-0,015
-507,999	37,917	-0,079	0,051
-506,985	-200,000	0,009	-0,249
-505,970	209,474	0,071	-0,082
-504,956	-200,000	0,012	-0,237
-503,941	800,000	-0,032	0,073
-502,926	800,000	-0,034	0,070
-501,912	-200,000	-0,014	0,085
-500,897	-125,040	-0,058	-0,006
-499,883	77,539	-0,049	-0,038
-498,868	159,007	-0,101	-0,103
-497,853	-121,269	-0,152	-0,018
-496,839	-98,753	-0,088	-0,016
-495,824	333,009	0,096	0,136
-494,810	35,111	0,122	0,078
-493,795	-150,789	-0,124	0,007
-492,781	-200,000	-0,011	0,162
-491,766	-200,000	-0,023	-0,100
-490,751	264,584	0,122	-0,156
-489,737	52,020	-0,108	0,075
-488,722	41,315	0,014	0,010
-487,708	-9,653	0,139	-0,068
-486,693	-200,000	-0,003	-0,051
-485,678	-200,000	-0,009	-0,126
-484,664	35,994	-0,149	-0,096
-483,649	29,509	-0,076	-0,047
-482,635	-200,000	-0,001	0,013
-481,620	-200,000	-0,011	0,070
-480,605	456,805	0,064	0,105
-479,591	307,694	0,064	0,087
-478,576	-16,403	-0,139	0,064
-477,562	-104,450	0,081	0,014
-476,547	213,028	0,027	-0,031
-475,532	165,330	-0,093	0,096
-474,518	-103,170	-0,016	0,003
-473,503	236,984	0,038	0,046
-472,489	118,105	0,027	0,025
-471,474	-55,021	-0,112	-0,037
-470,459	-81,953	-0,050	0,012
-469,445	100,569	0,042	0,036
-468,430	129,444	0,091	-0,085
-467,416	212,854	-0,027	0,032
-466,401	318,611	0,041	-0,056
-465,386	0,197	-0,027	0,014
-464,372	529,715	-0,042	0,072
-463,357	-200,000	0,028	-0,150
-462,343	-81,411	0,111	0,026
-461,328	800,000	-0,045	0,097
-460,313	800,000	-0,051	-0,128
-459,299	463,635	0,031	0,050
-458,284	24,328	0,064	0,039
-457,270	-200,000	0,012	-0,054
-456,255	14,277	-0,145	-0,082
-455,241	-200,000	0,012	-0,162
-454,226	-144,765	-0,095	-0,006
-453,211	135,320	-0,063	-0,060
-452,197	-29,908	0,186	-0,077
-451,182	-92,036	0,051	-0,011
-450,168	800,000	-0,012	0,032
-449,153	-124,974	0,198	0,022
-448,138	800,000	-0,057	-0,151
-447,124	800,000	0,008	-0,020
-446,109	800,000	0,034	0,071
-445,095	590,298	0,059	0,107
-444,080	534,104	0,053	0,091
-443,065	74,225	-0,131	0,101
-442,051	-11,262	-0,064	0,031
-441,036	309,062	0,057	-0,078
-440,022	-200,000	-0,038	-0,161
-439,007	40,722	-0,088	-0,058
-437,992	-157,126	0,129	0,006
-436,978	-37,675	-0,102	-0,040
-435,963	531,177	0,061	0,106
-434,949	-62,323	0,136	0,041
-433,934	25,905	-0,124	-0,075
-432,919	800,000	0,011	-0,024
-431,905	-200,000	-0,023	0,089
-430,890	-177,372	0,108	-0,002
-429,876	800,000	0,051	0,154
-428,861	-200,000	0,020	-0,165
-427,846	62,989	-0,180	-0,131
-426,832	-200,000	-0,012	-0,097
-425,817	-111,768	-0,101	-0,015
-424,803	-91,448	-0,132	0,027
-423,788	161,991	0,068	0,069
-422,773	-200,000	-0,004	-0,039
-421,759	-43,520	0,107	0,039
-420,744	800,000	0,046	-0,101
-419,730	-76,064	-0,134	-0,034
-418,715	218,995	0,053	0,061
-417,701	475,900	0,066	0,110
-416,686	-200,000	0,035	0,117
-415,671	-200,000	0,001	-0,010
-414,657	-58,381	-0,112	-0,035
-413,642	800,000	0,013	-0,040
-412,628	58,960	-0,044	0,031
-411,613	38,574	-0,057	0,037
-410,598	-173,481	-0,088	-0,002
-409,584	-16,005	0,073	0,034
-408,569	-200,000	-0,023	0,125
-407,555	800,000	-0,019	0,060
-406,540	-200,000	-0,021	0,096
-405,525	800,000	-0,038	0,122
-404,511	800,000	0,014	0,034
-403,496	-144,396	0,070	0,005
-402,482	-34,929	-0,073	0,029
-401,467	-200,000	0,002	0,019
-400,452	-17,337	0,037	-0,017
-399,438	-200,000	0,004	0,083
-398,423	409,333	0,041	0,064
-397,409	-28,438	-0,021	-0,009
-396,394	-110,155	-0,083	0,012
-395,379	800,000	-0,033	-0,071
-394,365	-200,000	-0,022	0,136
-393,350	44,203	-0,031	-0,021
-392,336	145,179	0,050	-0,049
-391,321	-21,925	-0,053	-0,023
-390,306	-200,000	-0,017	-0,073
-389,292	-200,000	-0,038	-0,128
-388,277	406,077	-0,029	0,044
-387,263	764,771	0,039	-0,078
-386,248	-200,000	0,003	0,057
-385,233	173,527	-0,069	-0,073
-384,219	66,736	0,058	0,043
-383,204	305,115	-0,039	0,053
-382,190	-4,523	-0,093	-0,046
-381,175	127,706	0,058	-0,054
-380,160	363,196	0,042	0,061
-379,146	-200,000	-0,026	-0,106
-378,131	800,000	-0,020	-0,041
-377,117	30,356	-0,183	0,114
-376,102	800,000	0,042	-0,128
-375,088	751,529	-0,052	-0,102
-374,073	-200,000	-0,001	-0,158
-373,058	76,243	0,029	0,022
-372,044	-200,000	-0,030	0,116
-371,029	-91,266	0,045	-0,009
-370,015	231,398	0,108	-0,128
-369,000	-12,434	-0,035	-0,017
-367,985	-73,756	-0,078	0,021
-366,971	102,595	0,093	0,079
-365,956	190,242	0,038	-0,042
-364,942	-155,528	0,117	0,005
-363,927	-200,000	0,000	-0,016
-362,912	21,190	0,129	0,076
-361,898	800,000	-0,029	-0,089
-360,883	219,018	-0,031	-0,036
-359,869	-71,965	-0,089	0,024
-358,854	66,183	-0,030	0,022
-357,839	-200,000	0,022	0,106
-356,825	800,000	-0,039	0,082
-355,810	7,653	-0,077	0,042
-354,796	666,537	-0,053	-0,100
-353,781	-87,564	0,127	-0,028
-352,766	-200,000	0,003	0,045
-351,752	480,004	0,030	0,050
-350,737	495,547	0,026	0,044
-349,723	-21,713	-0,079	0,035
-348,708	598,805	-0,049	0,089
-347,693	383,059	0,028	0,042
-346,679	54,040	-0,070	-0,049
-345,664	-200,000	0,002	0,029
-344,650	-200,000	0,021	0,141
-343,635	-21,086	0,069	0,031
-342,620	-200,000	0,029	0,129
-341,606	-137,112	0,048	-0,004
-340,591	-22,978	0,100	-0,044
-339,577	-200,000	0,005	-0,114
-338,562	23,512	-0,090	-0,054
-337,548	290,059	0,099	-0,131
-336,533	-200,000	-0,008	-0,044
-335,518	-65,128	0,084	-0,024
-334,504	467,364	0,068	0,112
-333,489	-30,593	-0,038	-0,015
-332,475	800,000	-0,027	-0,055
-331,460	-200,000	-0,008	-0,070
-330,445	-37,218	0,057	0,022
-329,431	-171,584	-0,030	0,001
-328,416	-97,317	0,039	-0,007
-327,402	-200,000	0,002	-0,124
-326,387	-200,000	-0,005	-0,047
-325,372	188,965	0,086	0,093
-324,358	-121,835	0,016	0,002
-323,343	335,755	0,030	0,042
-322,329	121,675	0,043	-0,039
-321,314	800,000	-0,032	0,071
-320,299	-200,000	0,029	0,102
-319,285	-200,000	-0,026	0,132
-318,270	69,178	0,137	0,102
-317,256	18,294	-0,097	-0,056
-316,241	266,672	-0,075	-0,095
-315,226	-40,636	0,030	-0,011
-314,212	-26,860	-0,107	0,045
-313,197	-48,571	0,040	0,014
-312,183	-9,283	0,097	0,047
-311,168	-183,578	0,129	-0,002
-310,153	211,715	-0,073	0,084
-309,139	9,447	0,070	0,038
-308,124	-92,938	0,103	-0,021
-307,110	333,051	0,046	-0,065
-306,095	-53,960	-0,127	0,042
-305,080	-200,000	-0,024	0,102
-304,066	-200,000	0,016	-0,093
-303,051	4,472	-0,070	-0,037
-302,037	217,811	0,044	0,051
-301,022	184,470	-0,060	-0,065
-300,008	3,908	0,060	-0,032
-298,993	-125,102	-0,030	-0,003
-297,978	-200,000	0,004	-0,037
-296,964	15,391	-0,112	-0,064
-295,949	-200,000	-0,041	0,142
-294,935	112,402	-0,051	0,045
-293,920	241,409	-0,035	0,042
-292,905	186,992	0,036	0,039
-291,891	53,427	0,075	-0,052
-290,876	417,458	-0,032	0,049
-289,862	299,705	0,050	-0,067
-288,847	800,000	-0,031	-0,091
-287,832	-20,322	-0,050	0,022
-286,818	-94,543	-0,088	0,017
-285,803	-200,000	-0,012	0,120
-284,789	124,585	0,025	0,022
-283,774	800,000	0,043	0,086
-282,759	27,366	0,076	0,046
-281,745	-23,773	-0,153	-0,066
-280,730	-200,000	0,007	0,059
-279,716	76,040	-0,139	0,106
-278,701	55,029	-0,044	0,031
-277,686	-114,174	-0,067	0,009
-276,672	88,198	0,064	0,051
-275,657	-33,369	0,195	-0,078
-274,643	119,635	-0,061	0,055
-273,628	-200,000	0,006	-0,024
-272,613	-36,532	0,191	-0,074
-271,599	800,000	-0,013	0,028
-270,584	98,177	-0,021	0,018
-269,570	48,581	0,118	0,080
-268,555	-33,389	-0,041	-0,016
-267,540	-138,642	-0,059	-0,005
-266,526	-22,925	-0,085	-0,037
-265,511	96,792	0,013	-0,011
-264,497	-129,383	-0,110	0,011
-263,482	800,000	-0,013	-0,028
-262,467	-200,000	0,054	0,181
-261,453	344,909	-0,047	0,068
-260,438	120,799	0,017	-0,016
-259,424	-200,000	-0,014	-0,154
-258,409	-159,093	-0,128	0,005
-257,395	-200,000	-0,002	0,037
-256,380	800,000	-0,048	0,109
-255,365	-200,000	-0,001	0,076
-254,351	-200,000	0,043	0,254
-253,336	135,856	0,060	0,056
-252,322	-132,677	-0,071	0,007
-251,307	242,237	-0,052	-0,064
-250,292	-104,004	0,119	-0,020
-249,278	-200,000	-0,015	0,106
-248,263	-200,000	-0,016	0,118
-247,249	26,112	0,030	0,018
-246,234	384,568	-0,132	0,198
-245,219	-200,000	0,033	0,140
-244,205	134,028	0,069	0,065
-243,190	291,066	-0,032	-0,043
-242,176	-49,246	0,059	0,020
-241,161	55,044	0,057	-0,040
-240,146	-200,000	-0,018	-0,073
-239,132	546,241	-0,048	-0,084
-238,117	66,426	0,072	-0,053
-237,103	18,253	-0,058	-0,033
-236,088	-63,587	0,053	0,015
-235,073	117,989	0,067	0,060
-234,059	800,000	-0,041	0,101
-233,044	-178,094	0,161	-0,003
-232,030	-52,577	-0,061	0,020
-231,015	269,253	-0,049	-0,063
-230,000	-138,861	-0,112	-0,009
-228,986	-26,521	0,103	-0,043
-227,971	-59,509	-0,087	-0,027
-226,957	-147,153	-0,084	0,005
-225,942	-13,550	0,195	-0,091
-224,927	449,717	-0,027	0,044
-223,913	-200,000	-0,041	-0,143
-222,898	-200,000	-0,003	-0,094
-221,884	800,000	-0,036	-0,098
-220,869	66,593	0,074	-0,054
-219,855	-78,794	0,033	-0,008
-218,840	103,248	0,081	0,069
-217,825	-49,475	-0,078	0,027
-216,811	800,000	-0,038	0,086
-215,796	-200,000	0,020	-0,076
-214,782	550,821	0,042	-0,073
-213,767	-200,000	0,005	-0,024
-212,752	-53,073	-0,100	-0,033
-211,738	23,510	0,093	0,055
-210,723	-200,000	-0,004	-0,061
-209,709	517,353	-0,060	-0,102
-208,694	686,444	-0,020	0,037
-207,679	-200,000	-0,030	-0,166
-206,665	-136,918	0,045	0,004
-205,650	182,505	-0,104	0,111
-204,636	-200,000	0,007	-0,067
-203,621	167,817	-0,065	0,067
-202,606	396,455	0,063	0,095
-201,592	360,218	0,050	-0,073
-200,577	-200,000	-0,004	-0,029
-199,563	47,145	0,101	0,068
-198,548	391,992	0,023	-0,034
-197,533	800,000	-0,008	-0,019
-196,519	-21,287	-0,101	0,044
-195,504	-53,695	0,086	0,028
-194,490	-1,219	0,066	-0,033
-193,475	-52,987	-0,035	0,012
-192,460	526,890	0,005	0,008
-191,446	-22,020	-0,079	-0,035
-190,431	-200,000	0,021	0,112
-189,417	68,199	0,065	0,048
-188,402	800,000	0,038	0,079
-187,387	-2,628	-0,038	-0,019
-186,373	119,074	-0,121	-0,108
-185,358	42,661	0,090	-0,059
-184,344	-41,057	0,086	-0,032
-183,329	800,000	-0,066	-0,134
-182,315	-37,149	0,034	0,013
-181,300	-200,000	0,027	-0,089
-180,285	-200,000	0,001	0,037
-179,271	720,392	-0,040	-0,077
-178,256	193,394	0,025	-0,027
-177,242	-35,926	-0,087	0,034
-176,227	112,648	0,152	0,133
-175,212	460,731	0,057	0,092
-174,198	-114,696	0,021	-0,003
-173,183	586,634	0,077	0,138
-172,169	202,704	0,059	-0,066
-171,154	-154,387	-0,060	-0,003
-170,139	-89,913	-0,101	0,021
-169,125	-200,000	0,031	0,103
-168,110	-61,537	-0,082	0,025
-167,096	-54,689	0,172	0,056
-166,081	-200,000	-0,017	0,113
-165,066	-200,000	-0,030	-0,143
-164,052	89,738	0,056	0,045
-163,037	347,329	0,062	0,088
-162,023	144,547	0,058	0,056
-161,008	-200,000	0,015	0,114
-159,993	69,872	0,028	0,021
-158,979	-200,000	0,014	-0,071
-157,964	53,566	-0,075	0,052
-156,950	-200,000	-0,010	0,037
-155,935	60,900	0,103	0,074
-154,920	-129,676	0,160	-0,016
-153,906	-10,604	0,054	0,026
-152,891	-200,000	0,006	-0,039
-151,877	-140,054	0,055	0,004
-150,862	19,538	-0,136	0,079
-149,847	592,048	0,036	-0,065
-148,833	143,236	0,040	-0,039
-147,818	800,000	-0,043	0,126
-146,804	654,378	0,038	0,070
-145,789	39,577	-0,063	-0,041
-144,775	-139,764	-0,082	-0,006
-143,760	-156,644	-0,160	-0,007
-142,745	-200,000	-0,042	-0,150
-141,731	-130,710	-0,037	0,004
-140,716	800,000	-0,040	0,120
-139,702	58,059	0,138	0,097
-138,687	213,998	-0,053	0,061
-137,672	3,958	-0,053	0,028
-136,658	800,000	-0,051	-0,120
-135,643	20,860	-0,132	-0,077
-134,629	224,912	-0,048	-0,056
-133,614	-200,000	-0,018	0,164
-132,599	-136,042	0,140	0,012
-131,585	62,599	-0,119	-0,085
-130,570	-77,856	-0,055	0,014
-129,556	48,992	0,083	-0,056
-128,541	91,687	0,024	0,019
-127,526	800,000	-0,038	-0,079
-126,512	-78,398	-0,052	-0,013
-125,497	266,485	-0,047	0,059
-124,483	800,000	-0,030	0,085
-123,468	-200,000	-0,017	0,116
-122,453	-200,000	0,084	0,000
-121,439	-200,000	-0,018	0,101
-120,424	162,488	0,030	0,030
-119,410	-7,402	0,078	0,038
-118,395	-146,731	0,064	-0,004
-117,380	-200,000	-0,016	0,084
-116,366	800,000	0,104	0,231
-115,351	-200,000	-0,017	-0,107
-114,337	-200,000	-0,013	-0,081
-113,322	28,283	0,046	-0,028
-112,307	-30,630	-0,118	0,048
-111,293	-149,591	0,087	0,005
-110,278	800,000	0,011	-0,027
-109,264	552,765	-0,061	-0,105
-108,249	-111,591	0,044	-0,006
-107,234	-200,000	-0,028	-0,130
-106,220	449,487	0,042	-0,066
-105,205	149,327	-0,109	0,106
-104,191	-104,259	0,075	-0,012
-103,176	-10,526	0,031	0,015
-102,162	-200,000	0,018	-0,060
-101,147	-127,567	0,090	-0,009
-100,132	-23,443	0,089	-0,038
-99,118	262,682	0,026	-0,032
-98,103	20,379	-0,188	-0,109
-97,089	-38,588	0,166	0,063
-96,074	75,250	0,042	0,032
-95,059	-75,976	0,091	0,023
-94,045	-200,000	0,009	-0,037
-93,030	2,409	-0,062	0,032
-92,016	-184,121	-0,051	-0,001
-91,001	465,997	-0,102	-0,165
-89,986	165,762	-0,024	-0,024
-88,972	-200,000	-0,021	0,169
-87,957	325,118	-0,075	-0,104
-86,943	694,665	0,010	-0,020
-85,928	97,012	0,005	0,004
-84,913	-200,000	-0,016	0,090
-83,899	-93,489	0,039	0,008
-82,884	800,000	-0,008	-0,017
-81,870	214,902	0,095	-0,108
-80,855	800,000	0,052	0,132
-79,840	195,883	-0,023	0,025
-78,826	7,794	0,163	-0,087
-77,811	682,346	-0,068	-0,129
-76,797	800,000	-0,054	-0,125
-75,782	111,844	0,090	-0,078
-74,767	-94,208	-0,094	-0,018
-73,753	-101,600	-0,039	0,007
-72,738	227,513	0,098	0,114
-71,724	-200,000	-0,003	-0,070
-70,709	-181,054	0,100	-0,001
-69,694	-61,956	0,090	-0,027
-68,680	-200,000	0,005	0,030
-67,665	-200,000	-0,015	0,136
-66,651	99,958	-0,044	0,037
-65,636	-51,817	-0,144	-0,048
-64,622	-11,605	0,118	0,055
-63,607	-95,191	-0,048	0,009
-62,592	-200,000	0,009	0,083
-61,578	549,709	-0,029	-0,051
-60,563	265,595	0,025	-0,031
-59,549	140,634	-0,098	0,093
-58,534	54,500	-2,456	-1,697
-57,519	119,048	0,350	-0,310
-56,505	-200,000	-1,637	-5,374
-55,490	441,001	0,941	1,483
-54,476	800,000	5,334	11,879
-53,461	-200,000	21,131	337,539
-52,446	800,000	763,492	2331,399
-51,432	524,509	1665,851	2824,884
-50,417	108,055	1631,981	1396,820
-49,403	77,324	1282,868	978,863
-48,388	27,236	1026,998	617,940
-47,373	19,077	991,789	569,679
-46,359	14,262	979,144	546,526
-45,344	10,466	975,936	532,197
-44,330	10,799	973,993	532,214
-43,315	9,944	971,855	528,214
-42,300	9,869	970,629	527,277
-41,286	9,859	969,754	526,750
-40,271	9,897	968,811	526,342
-39,257	9,873	968,010	525,806
-38,242	9,819	967,109	525,118
-37,227	9,838	966,155	524,643
-36,213	9,797	965,541	524,156
-35,198	9,760	964,656	523,532
-34,184	9,862	963,833	523,399
-33,169	9,793	962,851	522,619
-32,154	9,899	961,798	522,371
-31,140	9,869	961,056	521,851
-30,125	9,875	960,127	521,344
-29,111	9,836	959,488	520,852
-28,096	9,889	958,675	520,559
-27,082	9,846	958,104	520,091
-26,067	9,902	957,323	519,828
-25,052	9,873	956,585	519,312
-24,038	9,878	955,860	518,913
-23,023	9,804	955,350	518,377
-22,009	9,894	954,748	518,320
-20,994	9,913	954,167	518,046
-19,979	9,883	953,462	517,546
-18,965	9,879	952,722	517,112
-17,950	9,878	952,236	516,823
-16,936	9,824	951,716	516,347
-15,921	9,840	950,913	515,941
-14,906	9,796	949,954	515,262
-13,892	9,754	949,599	514,911
-12,877	9,774	948,674	514,455
-11,863	9,765	948,041	514,062
-10,848	9,704	947,717	513,670
-9,833	9,889	947,074	513,895
-8,819	9,806	946,437	513,261
-7,804	9,737	945,851	512,703
-6,790	9,818	945,149	512,559
-5,775	9,841	944,704	512,374
-4,760	9,769	944,061	511,775
-3,746	9,754	943,340	511,316
-2,731	9,585	942,815	510,472
-1,717	9,611	942,079	510,135
-0,702	9,602	941,334	509,682
0,313	9,443	940,737	509,624
1,327	12,833	938,349	519,041
2,342	21,397	787,829	458,426
3,356	16,429	454,038	256,604
4,371	-10,266	315,336	149,584
5,386	-13,940	297,568	137,394
6,400	-16,191	291,530	132,343
7,415	-16,122	289,024	131,262
8,429	-16,678	287,262	129,902
9,444	-16,799	286,345	129,357
10,459	-16,587	285,841	129,326
11,473	-16,580	285,027	128,953
12,488	-16,460	284,570	128,851
13,502	-16,551	284,194	128,582
14,517	-16,350	283,626	128,508
15,531	-16,252	283,352	128,468
16,546	-16,246	283,135	128,363
17,561	-16,196	282,540	128,131
18,575	-16,093	282,285	128,103
19,590	-16,027	281,820	127,945
20,604	-16,008	281,660	127,879
21,619	-16,170	281,230	127,516
22,634	-16,246	281,026	127,339
23,648	-16,116	280,715	127,312
24,663	-16,080	280,458	127,219
25,677	-16,125	280,151	127,025
26,692	-16,095	279,843	126,903
27,707	-15,988	279,379	126,784
28,721	-15,996	279,267	126,714
29,736	-16,125	279,096	126,502
30,750	-16,190	278,804	126,295
31,765	-16,037	278,575	126,327
32,780	-16,130	278,325	126,114
33,794	-16,141	277,995	125,942
34,809	-16,091	277,829	125,904
35,823	-16,146	277,629	125,749
36,838	-16,246	277,397	125,538
37,853	-16,183	276,917	125,370
38,867	-16,068	276,851	125,437
39,882	-16,076	276,684	125,342
40,896	-16,083	276,339	125,169
41,911	-16,046	275,960	125,021
42,926	-16,006	275,808	124,978
43,940	-16,270	275,650	124,647
44,955	-16,088	275,210	124,608
45,969	-16,048	275,125	124,596
46,984	-15,952	274,826	124,540
47,999	-15,860	274,677	124,548
49,013	-16,184	274,574	124,186
50,028	-16,011	274,206	124,170
51,042	-15,928	273,956	124,123
52,057	-15,978	273,663	123,933
53,071	-16,020	273,413	123,770
54,086	-15,976	273,375	123,783
55,101	-15,803	273,192	123,850
56,115	-16,018	272,859	123,488
57,130	-15,984	272,598	123,391
58,144	-16,198	272,338	123,062
59,159	-16,146	272,129	123,006
60,174	-16,201	271,810	122,799
61,188	-16,151	271,718	122,793
62,203	-16,019	271,334	122,731
63,217	-16,011	271,184	122,659
64,232	-16,057	270,831	122,446
65,247	-16,137	270,656	122,282
66,261	-16,115	270,389	122,171
67,276	-16,248	270,280	121,988
68,290	-16,167	270,075	121,959
69,305	-15,866	269,784	122,094
70,320	-16,097	269,481	121,734
71,334	-16,143	269,377	121,634
72,349	-16,219	269,076	121,417
73,363	-16,176	268,856	121,347
74,378	-16,268	268,648	121,158
75,393	-16,026	268,330	121,225
76,407	-16,029	268,262	121,181
77,422	-16,128	267,985	120,954
78,436	-16,061	267,585	120,824
79,451	-16,010	267,368	120,762
80,466	-16,065	267,324	120,681
81,480	-16,131	267,118	120,517
82,495	-15,995	266,942	120,551
83,509	-15,989	266,819	120,490
84,524	-15,994	266,555	120,355
85,539	-15,816	266,226	120,358
86,553	-15,974	266,289	120,232
87,568	-16,034	265,745	119,921
88,582	-16,055	265,557	119,807
89,597	-16,067	265,375	119,703
90,611	-16,087	265,146	119,571
91,626	-16,094	265,154	119,558
92,641	-16,034	264,838	119,459
93,655	-15,987	264,662	119,411
94,670	-16,197	264,447	119,114
95,684	-16,152	264,102	118,988
96,699	-16,036	263,891	118,987
97,714	-16,102	263,926	118,934
98,728	-15,955	263,695	118,950
99,743	-15,787	263,429	118,971
100,757	-15,872	263,173	118,768
101,772	-15,830	262,836	118,643
102,787	-16,160	262,672	118,264
103,801	-16,002	262,523	118,327
104,816	-15,951	262,311	118,266
105,830	-15,923	262,258	118,257
106,845	-15,977	261,939	118,055
107,860	-16,093	261,735	117,848
108,874	-16,158	261,582	117,712
109,889	-16,162	261,302	117,571
110,903	-16,256	261,185	117,424
111,918	-16,190	260,972	117,377
112,933	-16,125	260,651	117,280
113,947	-15,967	260,554	117,366
114,962	-16,115	260,340	117,128
115,976	-15,991	260,164	117,148
116,991	-16,127	259,889	116,894
118,006	-16,123	259,759	116,828
119,020	-15,898	259,565	116,929
120,035	-16,289	259,404	116,501
121,049	-16,142	259,259	116,555
122,064	-16,011	259,003	116,546
123,079	-16,160	258,737	116,284
124,093	-16,041	258,535	116,287
125,108	-16,050	258,332	116,177
126,122	-15,948	258,199	116,197
127,137	-15,967	258,010	116,085
128,151	-15,796	257,780	116,121
129,166	-16,027	257,564	115,812
130,181	-15,963	257,435	115,799
131,195	-15,874	257,140	115,733
132,210	-16,211	256,997	115,365
133,224	-16,304	256,864	115,214
134,239	-16,071	256,505	115,245
135,254	-16,338	256,277	114,901
136,268	-16,018	256,091	115,085
137,283	-15,961	255,928	115,051
138,297	-15,969	255,727	114,943
139,312	-15,931	255,476	114,853
140,327	-16,061	255,242	114,626
141,341	-16,072	255,233	114,601
142,356	-16,396	255,039	114,224
143,370	-16,168	254,811	114,308
144,385	-16,144	254,628	114,237
145,400	-16,015	254,452	114,259
146,414	-16,212	254,277	114,001
147,429	-16,068	254,132	114,049
148,443	-16,034	253,843	113,938
149,458	-16,040	253,734	113,875
150,473	-16,124	253,443	113,661
151,487	-16,127	253,357	113,611
152,502	-15,987	253,064	113,589
153,516	-15,865	252,937	113,626
154,531	-16,083	252,673	113,311
155,546	-16,110	252,437	113,172
156,560	-16,038	252,296	113,160
157,575	-16,121	252,160	113,018
158,589	-16,182	251,991	112,880
159,604	-15,939	251,765	112,976
160,619	-16,197	251,642	112,691
161,633	-16,075	251,467	112,707
162,648	-15,858	251,221	112,770
163,662	-16,120	251,106	112,486
164,677	-16,045	250,974	112,481
165,692	-15,942	250,637	112,408
166,706	-16,003	250,506	112,286
167,721	-15,973	250,312	112,215
168,735	-16,085	250,322	112,115
169,750	-16,054	250,099	112,031
170,764	-15,975	249,803	111,955
171,779	-15,704	249,762	112,156
172,794	-15,901	249,469	111,848
173,808	-16,074	249,458	111,688
174,823	-16,090	249,301	111,593
175,837	-15,862	248,921	111,605
176,852	-15,872	248,717	111,496
177,867	-16,118	248,777	111,306
178,881	-15,983	248,465	111,269
179,896	-15,975	248,276	111,181
180,910	-15,996	248,167	111,105
181,925	-15,923	247,949	111,058
182,940	-16,171	247,805	110,777
183,954	-15,941	247,437	110,794
184,969	-16,061	247,373	110,656
185,983	-15,861	247,145	110,711
186,998	-15,873	247,074	110,659
188,013	-15,909	246,914	110,547
189,027	-15,837	246,737	110,518
190,042	-15,917	246,558	110,362
191,056	-16,006	246,284	110,155
192,071	-16,182	246,088	109,912
193,086	-16,085	245,866	109,883
194,100	-16,157	245,707	109,743
195,115	-16,161	245,673	109,715
196,129	-16,000	245,422	109,726
197,144	-16,022	244,988	109,504
198,159	-16,245	245,009	109,319
199,173	-15,947	244,769	109,448
200,188	-16,375	244,591	109,006
201,202	-15,904	244,443	109,319
202,217	-16,095	244,421	109,142
203,232	-15,909	244,146	109,163
204,246	-16,319	243,874	108,694
205,261	-16,733	243,535	108,193
206,275	-15,700	243,846	109,171
207,290	-11,205	245,498	113,619
208,304	-4,445	247,713	120,264
209,319	-0,808	248,338	123,585
210,334	-0,048	248,678	124,375
211,348	0,893	249,030	125,324
212,363	1,574	249,078	125,904
213,377	2,004	248,951	126,187
214,392	2,087	248,997	126,269
215,407	2,223	248,826	126,283
216,421	2,344	248,580	126,248
217,436	2,445	248,476	126,267
218,450	2,325	248,264	126,049
219,465	2,517	248,134	126,130
220,480	2,195	247,964	125,766
221,494	1,840	247,739	125,347
222,509	1,504	247,507	124,941
223,523	1,441	247,109	124,677
224,538	1,301	247,007	124,499
225,553	1,165	246,732	124,238
226,567	1,050	246,609	124,069
227,582	1,106	246,345	123,972
228,596	1,033	246,254	123,855
229,611	1,212	246,216	123,972
230,626	1,238	245,963	123,855
231,640	1,080	245,774	123,619
232,655	1,142	245,640	123,591
233,669	1,113	245,459	123,466
234,684	1,159	245,264	123,395
235,699	1,375	245,150	123,503
236,713	1,309	244,975	123,350
237,728	1,438	244,917	123,414
238,742	1,099	244,704	123,020
239,757	1,312	244,600	123,130
240,772	1,290	244,253	122,927
241,786	1,384	244,033	122,881
242,801	1,307	244,030	122,806
243,815	1,145	243,803	122,549
244,830	1,109	243,617	122,415
245,844	1,198	243,541	122,438
246,859	0,914	243,474	122,164
247,874	1,207	243,252	122,279
248,888	1,349	242,955	122,233
249,903	1,242	243,014	122,166
250,917	1,442	242,761	122,189
251,932	1,473	242,605	122,125
252,947	1,265	242,467	121,877
253,961	1,309	242,246	121,790
254,976	1,357	242,042	121,715
255,990	1,193	241,990	121,546
257,005	1,363	241,875	121,615
258,020	1,273	241,758	121,472
259,034	1,522	241,367	121,465
260,049	1,324	241,349	121,286
261,063	1,250	241,188	121,135
262,078	1,218	241,010	121,009
263,093	1,068	240,836	120,791
264,107	1,049	240,806	120,749
265,122	1,216	240,502	120,720
266,136	1,289	240,437	120,735
267,151	1,441	240,186	120,720
268,166	1,173	240,155	120,480
269,180	1,215	239,843	120,346
270,195	1,468	239,769	120,500
271,209	1,381	239,692	120,381
272,224	1,285	239,470	120,182
273,239	1,144	239,432	120,040
274,253	1,294	239,155	120,010
275,268	1,310	238,892	119,880
276,282	1,366	238,825	119,880
277,297	1,243	238,670	119,694
278,312	1,335	238,575	119,709
279,326	1,480	238,293	119,671
280,341	1,363	238,255	119,549
281,355	1,422	237,991	119,453
282,370	1,410	237,853	119,363
283,384	1,255	237,859	119,233
284,399	1,393	237,616	119,209
285,414	1,233	237,570	119,049
286,428	1,293	237,362	118,982
287,443	1,227	237,230	118,853
288,457	1,162	237,069	118,711
289,472	1,209	236,869	118,637
290,487	1,252	236,704	118,578
291,501	1,188	236,640	118,484
292,516	1,121	236,493	118,348
293,530	1,287	236,279	118,360
294,545	1,483	236,059	118,393
295,560	1,531	235,883	118,332
296,574	1,576	235,704	118,267
297,589	1,291	235,738	118,050
298,603	1,504	235,531	118,103
299,618	1,389	235,442	117,957
300,633	1,310	235,299	117,814
301,647	1,458	235,105	117,821
302,662	1,536	235,010	117,825
303,676	1,557	234,722	117,685
304,691	1,362	234,608	117,466
305,706	1,313	234,556	117,392
306,720	1,455	234,359	117,393
307,735	1,440	234,217	117,300
308,749	1,357	234,170	117,201
309,764	1,667	233,807	117,249
310,779	1,547	233,669	117,077
311,793	1,308	233,680	116,887
312,808	1,616	233,460	117,005
313,822	1,290	233,210	116,617
314,837	1,446	233,125	116,684
315,852	1,450	233,192	116,711
316,866	1,571	232,822	116,609
317,881	1,546	232,599	116,467
318,895	1,394	232,551	116,316
319,910	1,444	232,478	116,307
320,925	1,426	232,228	116,158
321,939	1,396	231,966	115,993
322,954	1,345	232,010	115,966
323,968	1,538	231,742	115,970
324,983	1,572	231,590	115,909
325,997	1,597	231,466	115,856
327,012	1,429	231,399	115,683
328,027	1,262	231,241	115,466
329,041	1,531	231,002	115,543
330,056	1,510	230,830	115,431
331,070	1,495	230,801	115,393
332,085	1,606	230,640	115,388
333,100	1,387	230,374	115,077
334,114	1,618	230,206	115,159
335,129	1,469	230,179	115,022
336,143	1,486	229,973	114,922
337,158	1,623	229,807	114,933
338,173	1,378	229,754	114,709
339,187	1,670	229,416	114,752
340,202	1,584	229,454	114,696
341,216	1,555	229,263	114,568
342,231	1,474	229,164	114,447
343,246	1,452	229,071	114,374
344,260	1,559	228,962	114,390
345,275	1,494	228,808	114,254
346,289	1,635	228,477	114,185
347,304	1,569	228,480	114,126
348,319	1,664	228,127	114,011
349,333	1,488	228,076	113,843
350,348	1,595	228,013	113,882
351,362	1,600	227,859	113,799
352,377	1,425	227,708	113,582
353,392	1,385	227,551	113,464
354,406	1,515	227,239	113,395
355,421	193,579	1312,539	1383,551
356,435	155,170	1444,656	1383,424
