DTS Sentinel unit serial number:	SN410029Multiplexer serial number:	ORYXHardware model number:	OX2-SRSoftware version number:	ORYX F/W v4,00 Oryx Data Collector v3.7.2.0data status	okinstallation	B5 Nyhavnadifferential loss correction	single-endedforward channel	channel 2reverse channel	N/Adate	2023/12/14time	05:22:13forward acquisition time	300,00reverse acquisition time	0,00gamma	499,1914k internal	0,3156k external	0,3156temperature offset calibration	1,0000default loss term (dB/km)	0,3820temperature slope calibration	1,0000multiplexer offset coefficient	1,0000multiplexer slope coefficient	1,0000fibre end	0,00T internal ref (°C)	7,80T ext. ref 1 (°C)	-8,72T ext. ref 2 (°C)	-8,82length (m)	temperature (°C)	Stokes	anti-Stokes-744,400	-44,729	0,245	0,090
-743,385	17,378	-0,359	-0,210
-742,371	-66,814	0,268	0,078
-741,356	-152,335	-0,435	0,023
-740,342	-33,181	0,164	0,067
-739,327	-97,233	-0,412	-0,079
-738,312	-3,507	0,054	-0,027
-737,298	-23,775	-0,309	-0,136
-736,283	11,440	0,193	0,109
-735,269	-155,753	-0,355	0,016
-734,254	-200,000	-0,004	0,086
-733,239	-14,687	-0,619	-0,292
-732,225	-101,906	0,292	0,052
-731,210	428,724	0,023	-0,036
-730,196	245,777	-0,052	0,065
-729,181	-200,000	-0,002	-0,127
-728,167	164,077	0,073	-0,076
-727,152	-62,524	0,015	-0,005
-726,137	50,394	-0,074	-0,051
-725,123	-161,058	-0,013	-0,000
-724,108	-200,000	-0,003	-0,101
-723,094	-153,182	-0,150	-0,008
-722,079	129,591	-0,108	-0,102
-721,064	-61,950	0,086	0,026
-720,050	59,893	-0,047	0,034
-719,035	43,704	0,078	-0,052
-718,021	-52,083	0,015	-0,005
-717,006	212,623	-0,024	0,028
-715,991	191,966	-0,036	-0,041
-714,977	142,543	-0,031	-0,030
-713,962	-107,291	-0,085	-0,014
-712,948	129,021	-0,081	-0,076
-711,933	74,617	-0,067	-0,052
-710,918	10,409	0,181	0,101
-709,904	2,581	-0,026	-0,014
-708,889	585,592	0,048	-0,087
-707,875	114,342	0,070	-0,062
-706,860	-52,883	-0,060	0,020
-705,845	18,024	0,065	0,038
-704,831	82,604	-0,083	-0,066
-703,816	275,079	0,051	-0,067
-702,802	-132,294	-0,041	0,004
-701,787	367,723	-0,041	-0,061
-700,772	22,846	0,106	0,064
-699,758	-59,866	-0,113	0,035
-698,743	-46,491	0,107	-0,039
-697,729	-200,000	-0,013	0,082
-696,714	-124,429	-0,059	0,007
-695,699	-200,000	-0,035	-0,128
-694,685	449,382	0,036	-0,059
-693,670	800,000	-0,055	-0,142
-692,656	-68,428	-0,083	0,024
-691,641	-4,127	-0,038	0,019
-690,627	727,219	0,074	0,145
-689,612	3,481	-0,077	-0,041
-688,597	-200,000	0,025	-0,101
-687,583	65,341	-0,163	-0,121
-686,568	140,127	-0,078	-0,076
-685,554	48,175	-0,083	-0,057
-684,539	-200,000	-0,004	-0,055
-683,524	-92,109	0,057	0,012
-682,510	800,000	-0,034	-0,086
-681,495	-90,518	-0,098	-0,021
-680,481	-123,587	-0,106	0,012
-679,466	800,000	-0,015	-0,038
-678,451	800,000	-0,020	-0,051
-677,437	-26,050	0,147	0,063
-676,422	771,184	-0,047	0,095
-675,408	-26,219	-0,073	0,031
-674,393	-200,000	-0,001	-0,082
-673,378	176,721	-0,055	-0,059
-672,364	579,587	-0,018	-0,032
-671,349	57,235	-0,158	0,113
-670,335	-159,510	-0,069	-0,003
-669,320	31,295	0,073	-0,046
-668,305	800,000	0,028	0,088
-667,291	-200,000	0,005	-0,034
-666,276	56,299	-0,011	0,008
-665,262	216,819	-0,076	0,089
-664,247	35,089	0,131	-0,084
-663,232	71,807	0,010	-0,008
-662,218	30,598	0,022	-0,014
-661,203	-127,002	-0,073	0,008
-660,189	75,005	-0,101	0,078
-659,174	-69,828	-0,074	-0,020
-658,159	-153,309	0,035	0,002
-657,145	-200,000	-0,002	-0,106
-656,130	4,528	0,137	-0,074
-655,116	110,154	0,093	-0,082
-654,101	-159,733	0,064	-0,003
-653,086	188,577	-0,059	-0,065
-652,072	800,000	-0,088	-0,232
-651,057	1,091	-0,102	-0,054
-650,043	126,368	-0,084	-0,078
-649,028	-126,791	-0,079	0,008
-648,014	-101,876	0,124	0,022
-646,999	19,236	0,043	-0,025
-645,984	-4,113	-0,067	0,034
-644,970	-175,505	-0,090	0,002
-643,955	-200,000	0,019	-0,066
-642,941	-200,000	-0,017	0,058
-641,926	-200,000	-0,017	-0,105
-640,911	230,671	0,062	-0,075
-639,897	-54,864	0,052	-0,017
-638,882	518,662	-0,046	0,079
-637,868	-200,000	-0,039	0,142
-636,853	-96,045	0,093	-0,018
-635,838	-200,000	-0,005	-0,078
-634,824	-21,231	-0,057	0,026
-633,809	800,000	0,057	0,123
-632,795	399,588	-0,009	0,014
-631,780	-200,000	0,000	0,123
-630,765	114,896	-0,069	0,062
-629,751	21,538	-0,047	0,028
-628,736	-25,692	0,031	0,013
-627,722	-117,010	0,123	-0,016
-626,707	191,793	-0,036	-0,040
-625,692	800,000	0,023	0,062
-624,678	178,970	-0,119	0,128
-623,663	-137,434	0,136	0,011
-622,649	-18,051	-0,189	-0,087
-621,634	52,451	-0,165	-0,116
-620,619	-200,000	-0,045	-0,153
-619,605	59,575	0,149	-0,108
-618,590	74,618	0,082	-0,064
-617,576	-114,554	-0,052	-0,007
-616,561	21,438	-0,117	-0,070
-615,546	-86,164	-0,118	-0,026
-614,532	55,501	0,074	-0,052
-613,517	263,389	-0,031	-0,040
-612,503	800,000	0,026	0,076
-611,488	13,795	0,049	-0,028
-610,474	-200,000	0,013	0,071
-609,459	-32,798	-0,064	0,026
-608,444	800,000	-0,025	-0,062
-607,430	-200,000	0,020	-0,108
-606,415	-200,000	-0,017	0,097
-605,401	99,012	-0,103	0,087
-604,386	318,893	-0,075	0,104
-603,371	-200,000	-0,012	0,133
-602,357	48,652	0,019	0,013
-601,342	240,499	-0,012	-0,015
-600,328	-200,000	-0,007	0,118
-599,313	800,000	0,050	-0,147
-598,298	-88,579	-0,144	0,031
-597,284	-54,573	0,027	-0,009
-596,269	23,165	-0,070	-0,042
-595,255	-85,629	0,129	0,029
-594,240	-82,408	-0,136	0,032
-593,225	-200,000	-0,014	-0,116
-592,211	-108,264	0,079	0,012
-591,196	-200,000	0,016	-0,107
-590,182	-15,331	-0,090	0,042
-589,167	93,411	-0,031	0,026
-588,152	-97,933	0,120	-0,022
-587,138	-200,000	0,010	-0,056
-586,123	-14,759	-0,133	-0,062
-585,109	-96,619	-0,082	-0,016
-584,094	17,676	-0,021	-0,012
-583,079	-140,488	-0,106	-0,008
-582,065	377,577	-0,084	0,126
-581,050	800,000	0,011	-0,031
-580,036	-200,000	-0,002	0,056
-579,021	800,000	0,009	0,027
-578,006	-10,071	-0,212	-0,103
-576,992	-95,028	0,066	0,013
-575,977	93,468	-0,104	-0,086
-574,963	600,079	-0,085	-0,154
-573,948	-200,000	-0,018	0,072
-572,934	-189,381	-0,060	-0,000
-571,919	13,923	-0,124	0,070
-570,904	188,879	-0,029	-0,031
-569,890	90,515	0,087	-0,071
-568,875	92,538	-0,103	0,085
-567,861	-34,991	0,137	0,054
-566,846	-200,000	0,035	0,138
-565,831	351,205	0,065	-0,094
-564,817	-200,000	0,027	0,099
-563,802	800,000	-0,059	-0,140
-562,788	-19,183	-0,087	0,039
-561,773	-22,728	-0,087	0,038
-560,758	173,176	0,063	0,067
-559,744	-200,000	-0,007	0,069
-558,729	-200,000	-0,015	0,063
-557,715	-200,000	0,002	-0,009
-556,700	-71,435	-0,152	0,041
-555,685	800,000	0,051	0,141
-554,671	81,940	0,091	0,072
-553,656	-200,000	0,026	-0,111
-552,642	-200,000	0,004	0,114
-551,627	-200,000	0,012	-0,128
-550,612	-200,000	0,011	-0,097
-549,598	-89,903	-0,073	0,015
-548,583	-40,329	0,080	-0,030
-547,569	424,927	0,019	-0,030
-546,554	275,760	0,051	0,067
-545,539	214,910	0,123	0,143
-544,525	-127,723	0,073	0,008
-543,510	-8,561	-0,097	-0,048
-542,496	245,371	0,077	-0,095
-541,481	420,510	0,032	0,050
-540,466	36,048	0,042	0,027
-539,452	-75,620	0,183	0,047
-538,437	496,974	-0,051	-0,086
-537,423	-24,166	0,010	0,005
-536,408	-200,000	-0,013	0,045
-535,393	-69,240	-0,105	0,029
-534,379	-200,000	0,004	-0,060
-533,364	-141,930	0,101	0,007
-532,350	604,107	-0,036	0,065
-531,335	-130,772	0,093	0,009
-530,321	800,000	-0,024	0,050
-529,306	-192,333	0,005	0,000
-528,291	800,000	-0,023	-0,052
-527,277	800,000	-0,021	0,054
-526,262	-108,678	-0,029	0,004
-525,248	156,398	-0,031	-0,032
-524,233	294,533	0,041	0,055
-523,218	-36,269	-0,060	-0,024
-522,204	-38,050	0,099	0,038
-521,189	-200,000	-0,010	0,122
-520,175	-7,242	0,094	0,046
-519,160	-200,000	-0,004	-0,057
-518,145	-36,817	0,081	0,032
-517,131	43,939	0,066	-0,044
-516,116	-200,000	-0,010	0,076
-515,102	57,434	-0,060	0,043
-514,087	-24,676	-0,090	-0,039
-513,072	-119,264	0,061	0,008
-512,058	17,182	0,044	0,025
-511,043	526,906	-0,081	0,140
-510,029	-97,717	0,125	0,023
-509,014	-200,000	0,043	0,142
-507,999	743,367	0,010	0,019
-506,985	800,000	0,044	-0,114
-505,970	-15,901	-0,144	-0,067
-504,956	-18,247	-0,076	0,035
-503,941	-20,271	0,138	-0,062
-502,926	50,982	0,063	-0,044
-501,912	-27,415	-0,132	-0,056
-500,897	-95,393	0,090	-0,017
-499,883	459,184	0,014	0,023
-498,868	800,000	-0,033	-0,089
-497,853	-113,719	0,078	-0,011
-496,839	-36,804	0,101	-0,039
-495,824	83,335	-0,047	0,037
-494,810	590,858	-0,071	0,129
-493,795	257,025	-0,066	0,084
-492,781	-200,000	-0,004	-0,017
-491,766	149,533	0,085	0,084
-490,751	-200,000	0,043	-0,159
-489,737	-200,000	0,017	0,069
-488,722	-140,751	0,101	-0,008
-487,708	-200,000	-0,010	-0,109
-486,693	800,000	0,034	0,082
-485,678	-32,201	0,157	0,064
-484,664	-200,000	-0,009	-0,085
-483,649	345,090	-0,049	0,070
-482,635	485,322	0,072	-0,121
-481,620	-200,000	-0,004	-0,054
-480,605	-200,000	-0,014	0,074
-479,591	175,651	0,054	0,057
-478,576	199,836	0,060	-0,067
-477,562	421,172	-0,016	-0,024
-476,547	31,074	-0,060	0,037
-475,532	135,001	-0,027	-0,026
-474,518	800,000	-0,012	0,033
-473,503	-78,162	-0,066	-0,016
-472,489	327,642	0,040	-0,056
-471,474	174,728	0,010	-0,011
-470,459	252,702	0,037	-0,047
-469,445	-104,872	-0,138	-0,023
-468,430	146,003	0,023	-0,023
-467,416	800,000	0,043	0,125
-466,401	-200,000	0,021	0,120
-465,386	800,000	-0,060	-0,151
-464,372	117,465	-0,069	-0,062
-463,357	126,400	0,041	-0,037
-462,343	116,081	-0,065	-0,058
-461,328	-41,383	0,098	-0,037
-460,313	-96,972	0,063	-0,012
-459,299	-9,898	-0,127	0,062
-458,284	41,479	-0,032	0,021
-457,270	313,117	-0,027	0,037
-456,255	64,624	0,057	0,042
-455,241	60,476	-0,051	-0,037
-454,226	-200,000	0,022	-0,149
-453,211	784,612	-0,026	0,052
-452,197	40,810	-0,053	0,035
-451,182	800,000	0,032	0,069
-450,168	800,000	-0,033	-0,074
-449,153	168,697	0,022	0,023
-448,138	-200,000	0,004	0,156
-447,124	-200,000	0,027	-0,138
-446,109	800,000	0,049	-0,105
-445,095	6,912	0,135	-0,073
-444,080	385,644	0,068	0,103
-443,065	558,854	-0,013	-0,023
-442,051	111,698	-0,064	-0,056
-441,036	-200,000	-0,022	-0,087
-440,022	85,043	0,118	-0,094
-439,007	-88,169	-0,042	0,009
-437,992	-96,018	-0,070	-0,013
-436,978	-38,534	0,116	0,044
-435,963	-200,000	0,002	0,108
-434,949	-12,800	-0,114	0,054
-433,934	319,504	-0,047	-0,066
-432,919	800,000	0,014	0,030
-431,905	-200,000	-0,001	-0,014
-430,890	-94,755	0,050	0,010
-429,876	-147,453	0,137	-0,008
-428,861	-31,729	-0,113	-0,046
-427,846	69,617	0,051	0,038
-426,832	641,321	0,073	-0,136
-425,817	560,321	0,031	0,055
-424,803	313,549	-0,087	-0,120
-423,788	588,908	-0,047	0,085
-422,773	51,355	-0,039	0,027
-421,759	417,863	-0,062	0,097
-420,744	76,744	0,027	-0,021
-419,730	-200,000	-0,032	-0,132
-418,715	143,550	-0,045	0,044
-417,701	-200,000	0,020	-0,187
-416,686	95,786	-0,036	-0,030
-415,671	-59,466	0,168	0,052
-414,657	-200,000	0,015	0,088
-413,642	621,273	-0,011	0,020
-412,628	235,152	0,106	0,128
-411,613	-47,386	-0,174	-0,061
-410,598	800,000	0,033	-0,078
-409,584	-122,331	-0,141	0,017
-408,569	80,485	-0,086	-0,067
-407,555	-200,000	-0,031	-0,124
-406,540	151,044	0,090	-0,090
-405,525	83,506	-0,077	0,061
-404,511	461,161	-0,067	-0,110
-403,496	99,129	-0,091	-0,076
-402,482	-200,000	0,003	0,051
-401,467	393,926	0,153	0,233
-400,452	-200,000	0,011	0,127
-399,438	86,283	0,028	0,023
-398,423	507,984	-0,078	0,132
-397,409	125,748	0,061	0,056
-396,394	-93,563	-0,091	-0,018
-395,379	496,868	0,054	-0,091
-394,365	-200,000	-0,000	0,088
-393,350	-2,736	0,002	-0,001
-392,336	-137,484	0,063	-0,005
-391,321	277,077	0,054	-0,071
-390,306	800,000	-0,031	-0,098
-389,292	336,944	0,041	-0,057
-388,277	-120,732	0,025	-0,003
-387,263	-200,000	0,031	0,000
-386,248	183,454	-0,133	0,143
-385,233	203,394	-0,039	-0,044
-384,219	-200,000	0,018	0,093
-383,204	-200,000	0,005	-0,025
-382,190	-150,508	-0,047	-0,003
-381,175	-60,823	0,118	-0,036
-380,160	800,000	0,055	0,113
-379,146	-81,074	0,108	0,026
-378,131	-200,000	0,001	-0,053
-377,117	-30,502	-0,080	-0,033
-376,102	-105,515	0,048	-0,008
-375,088	-200,000	0,001	-0,053
-374,073	-200,000	0,018	-0,072
-373,058	-200,000	0,001	0,007
-372,044	-100,900	0,102	0,018
-371,029	-200,000	0,005	0,068
-370,015	-129,730	0,231	0,023
-369,000	118,723	0,137	0,123
-367,985	-200,000	-0,026	-0,155
-366,971	-200,000	-0,018	-0,064
-365,956	-93,625	0,070	0,014
-364,942	-200,000	-0,009	-0,073
-363,927	105,774	0,036	-0,031
-362,912	-200,000	-0,044	-0,156
-361,898	-80,805	0,074	-0,018
-360,883	-40,666	-0,039	-0,015
-359,869	-26,324	-0,053	-0,022
-358,854	-200,000	-0,017	0,105
-357,839	12,979	0,049	0,027
-356,825	0,002	0,028	-0,014
-355,810	-92,941	0,037	-0,008
-354,796	188,286	0,052	0,057
-353,781	117,872	-0,157	-0,141
-352,766	194,290	-0,068	0,075
-351,752	-200,000	0,025	0,115
-350,737	654,299	-0,063	-0,118
-349,723	-139,968	-0,052	0,004
-348,708	384,339	-0,012	0,019
-347,693	-200,000	0,016	-0,082
-346,679	800,000	-0,055	-0,149
-345,664	-23,719	0,044	0,019
-344,650	510,511	-0,049	0,084
-343,635	188,911	0,175	0,190
-342,620	242,668	-0,052	0,064
-341,606	-12,571	-0,187	0,088
-340,591	-200,000	0,060	0,193
-339,577	246,437	-0,034	-0,042
-338,562	-80,383	0,027	-0,006
-337,548	487,949	0,017	0,029
-336,533	161,253	0,099	-0,101
-335,518	800,000	0,005	-0,013
-334,504	-35,262	-0,188	-0,074
-333,489	-96,558	-0,096	-0,018
-332,475	123,716	0,052	0,047
-331,460	81,793	0,094	0,074
-330,445	-134,201	0,080	0,007
-329,431	107,572	0,078	0,068
-328,416	-200,000	-0,004	0,043
-327,402	120,379	-0,028	0,025
-326,387	230,167	-0,058	0,069
-325,372	800,000	-0,050	-0,138
-324,358	-200,000	0,022	-0,075
-323,343	-200,000	0,009	-0,033
-322,329	494,541	0,054	0,090
-321,314	348,940	0,030	0,044
-320,299	-86,184	-0,062	0,014
-319,285	233,296	0,028	-0,033
-318,270	-200,000	0,000	-0,087
-317,256	789,107	-0,016	-0,033
-316,241	-54,520	0,134	0,044
-315,226	18,579	-0,101	-0,058
-314,212	-52,285	0,122	0,041
-313,197	-77,632	0,100	0,025
-312,183	-200,000	-0,001	-0,034
-311,168	44,013	0,110	0,073
-310,153	-60,288	0,109	0,034
-309,139	-200,000	0,005	-0,024
-308,124	800,000	0,026	0,065
-307,110	534,338	-0,078	0,134
-306,095	671,809	0,020	-0,038
-305,080	800,000	0,028	-0,060
-304,066	153,035	0,082	0,082
-303,051	115,931	-0,053	-0,047
-302,037	-121,430	-0,042	-0,005
-301,022	78,871	0,068	0,053
-300,008	800,000	0,051	0,156
-298,993	-145,707	-0,060	0,004
-297,978	276,705	0,076	0,099
-296,964	-47,779	-0,124	-0,043
-295,949	73,051	-0,022	-0,016
-294,935	-200,000	-0,016	-0,094
-293,920	507,748	-0,045	-0,075
-292,905	800,000	-0,027	0,055
-291,891	800,000	-0,045	0,099
-290,876	-200,000	0,010	-0,034
-289,862	200,281	-0,032	-0,036
-288,847	-166,696	-0,167	-0,005
-287,832	-45,569	0,113	-0,040
-286,818	94,969	-0,143	0,118
-285,803	-200,000	-0,007	0,038
-284,789	90,852	-0,049	-0,040
-283,774	-200,000	-0,002	0,080
-282,759	-72,621	-0,058	-0,015
-281,745	24,731	0,078	-0,047
-280,730	293,218	0,057	-0,075
-279,716	-139,013	-0,097	-0,008
-278,701	23,292	0,044	-0,026
-277,686	26,084	-0,071	0,043
-276,672	-38,499	0,140	0,053
-275,657	-200,000	-0,038	-0,145
-274,643	237,739	-0,117	-0,140
-273,628	800,000	0,066	-0,139
-272,613	135,890	0,032	-0,030
-271,599	-143,452	0,130	0,009
-270,584	-200,000	-0,017	0,082
-269,570	-62,471	0,084	0,025
-268,555	572,077	0,025	-0,043
-267,540	778,389	-0,074	-0,147
-266,526	-65,621	-0,137	-0,039
-265,511	71,014	-0,026	-0,019
-264,497	800,000	-0,003	0,008
-263,482	-54,813	0,038	-0,012
-262,467	221,627	-0,095	0,110
-261,453	21,555	0,086	0,051
-260,438	239,987	-0,051	-0,062
-259,424	-15,527	-0,155	-0,072
-258,409	-132,815	0,086	0,008
-257,395	90,844	0,075	0,061
-256,380	-88,145	0,098	0,021
-255,365	168,098	0,092	0,094
-254,351	800,000	0,026	0,065
-253,336	-61,427	-0,096	-0,029
-252,322	-200,000	0,016	-0,076
-251,307	296,680	0,080	-0,106
-250,292	800,000	-0,042	-0,096
-249,278	-74,201	0,096	0,025
-248,263	-200,000	0,026	-0,126
-247,249	119,022	0,102	-0,091
-246,234	296,231	-0,058	-0,078
-245,219	43,845	-0,084	-0,055
-244,205	800,000	-0,059	-0,177
-243,190	800,000	0,023	-0,058
-242,176	36,140	0,045	-0,029
-241,161	-82,651	-0,020	-0,005
-240,146	15,502	-0,040	0,023
-239,132	-26,852	0,086	0,036
-238,117	260,808	-0,060	-0,076
-237,103	800,000	0,012	-0,030
-236,088	220,150	0,079	-0,092
-235,073	-9,445	0,089	0,043
-234,059	800,000	-0,025	-0,072
-233,044	-200,000	0,018	-0,069
-232,030	-58,971	0,083	0,026
-231,015	730,313	-0,066	-0,127
-230,000	-60,470	-0,133	-0,041
-228,986	109,761	0,066	-0,057
-227,971	-127,239	-0,057	-0,006
-226,957	-200,000	-0,009	0,146
-225,942	-159,113	-0,031	-0,001
-224,927	367,420	0,014	0,020
-223,913	-200,000	0,001	0,047
-222,898	-200,000	-0,021	-0,092
-221,884	694,564	-0,038	-0,073
-220,869	-47,907	-0,052	0,018
-219,855	-200,000	0,011	0,058
-218,840	-200,000	-0,044	0,193
-217,825	111,053	0,100	0,087
-216,811	-200,000	-0,015	-0,072
-215,796	800,000	-0,033	-0,097
-214,782	-200,000	-0,014	-0,114
-213,767	-63,060	-0,053	-0,016
-212,752	427,070	0,026	0,041
-211,738	-200,000	-0,018	0,075
-210,723	-200,000	0,018	0,110
-209,709	155,757	-0,061	0,060
-208,694	20,650	-0,102	-0,060
-207,679	430,662	0,010	-0,015
-206,665	-71,766	-0,137	-0,037
-205,650	128,191	0,046	-0,043
-204,636	383,320	0,064	0,095
-203,621	169,086	0,059	0,061
-202,606	-50,014	-0,144	-0,049
-201,592	-200,000	-0,011	0,108
-200,577	-200,000	-0,009	-0,102
-199,563	-200,000	0,026	0,087
-198,548	438,481	-0,030	-0,048
-197,533	-171,523	-0,103	0,002
-196,519	202,741	0,018	-0,020
-195,504	101,496	0,020	0,017
-194,490	230,115	-0,078	-0,092
-193,475	157,426	-0,033	-0,033
-192,460	-152,964	0,046	0,002
-191,446	290,564	-0,059	-0,078
-190,431	6,552	0,081	0,043
-189,417	-200,000	0,023	0,094
-188,402	745,335	0,047	-0,091
-187,387	-200,000	0,010	-0,136
-186,373	-80,162	-0,132	0,032
-185,358	-2,730	0,115	0,058
-184,344	-200,000	0,013	0,077
-183,329	218,923	-0,054	0,062
-182,315	-107,315	0,078	-0,012
-181,300	574,390	0,011	-0,019
-180,285	800,000	-0,028	0,080
-179,271	-172,712	0,066	-0,001
-178,256	-200,000	-0,005	0,089
-177,242	-200,000	0,002	0,147
-176,227	-15,391	0,125	0,058
-175,212	800,000	0,022	0,062
-174,198	-200,000	0,002	0,024
-173,183	-200,000	0,005	-0,195
-172,169	-72,142	0,012	0,003
-171,154	800,000	0,033	-0,105
-170,139	-200,000	-0,010	-0,072
-169,125	142,424	0,092	-0,088
-168,110	459,268	0,059	0,094
-167,096	-34,273	0,116	0,046
-166,081	-137,546	-0,107	-0,009
-165,066	72,391	0,014	-0,010
-164,052	111,133	-0,138	0,119
-163,037	-39,273	0,058	0,022
-162,023	-88,574	0,050	0,011
-161,008	-200,000	0,025	0,139
-159,993	-45,379	-0,094	0,033
-158,979	200,138	0,033	0,036
-157,964	-200,000	-0,026	-0,096
-156,950	110,644	-0,024	-0,021
-155,935	60,237	0,055	-0,039
-154,920	233,298	-0,063	0,075
-153,906	-200,000	-0,030	0,104
-152,891	290,299	-0,081	0,106
-151,877	308,941	-0,039	-0,053
-150,862	-200,000	0,020	-0,073
-149,847	-200,000	-0,006	-0,143
-148,833	-108,353	0,108	-0,017
-147,818	-39,265	0,081	0,030
-146,804	-200,000	0,004	0,106
-145,789	21,698	-0,113	0,066
-144,775	-200,000	-0,020	0,107
-143,760	793,652	-0,018	0,037
-142,745	-200,000	-0,001	-0,066
-141,731	-104,140	0,057	0,009
-140,716	187,723	0,096	0,103
-139,702	743,360	0,061	0,118
-138,687	-12,192	-0,010	0,005
-137,672	-87,520	0,037	0,008
-136,658	-200,000	0,020	-0,070
-135,643	693,777	-0,104	-0,198
-134,629	800,000	-0,053	0,138
-133,614	800,000	0,033	0,098
-132,599	-118,981	-0,033	0,004
-131,585	800,000	0,008	-0,025
-130,570	308,117	-0,058	-0,078
-129,556	211,881	0,022	0,024
-128,541	-19,214	-0,121	0,054
-127,526	-98,306	0,135	0,025
-126,512	151,705	0,130	0,128
-125,497	24,501	0,022	-0,013
-124,483	182,433	0,114	0,121
-123,468	17,842	0,057	0,032
-122,453	43,652	-0,053	-0,035
-121,439	800,000	-0,060	0,157
-120,424	-200,000	0,003	-0,025
-119,410	-171,100	0,092	0,002
-118,395	800,000	0,042	-0,116
-117,380	6,502	0,075	0,040
-116,366	-200,000	-0,010	0,195
-115,351	-156,188	0,181	-0,008
-114,337	-200,000	-0,027	-0,164
-113,322	-79,111	0,083	0,020
-112,307	373,018	0,067	0,098
-111,293	601,524	-0,022	0,040
-110,278	192,706	-0,059	-0,064
-109,264	-200,000	-0,019	-0,116
-108,249	-77,869	0,044	0,011
-107,234	-150,539	-0,124	0,007
-106,220	564,174	-0,043	0,075
-105,205	800,000	0,005	0,010
-104,191	310,235	-0,029	-0,039
-103,176	-200,000	0,007	0,037
-102,162	231,038	0,156	-0,184
-101,147	566,357	0,040	-0,069
-100,132	-200,000	0,006	-0,146
-99,118	78,898	-0,168	-0,130
-98,103	-200,000	0,006	-0,083
-97,089	721,699	0,064	0,124
-96,074	-200,000	-0,005	0,078
-95,059	432,230	0,039	-0,061
-94,045	-40,184	0,153	-0,057
-93,030	-200,000	0,014	0,049
-92,016	-200,000	-0,020	-0,071
-91,001	-109,480	-0,038	0,006
-89,986	800,000	-0,022	0,055
-88,972	-200,000	0,031	0,118
-87,957	-68,454	-0,107	-0,030
-86,943	93,784	0,067	0,055
-85,928	49,244	-0,038	-0,026
-84,913	586,503	0,048	-0,084
-83,899	486,248	0,037	0,061
-82,884	5,197	0,060	0,032
-81,870	-142,048	0,007	0,000
-80,855	83,011	0,107	0,083
-79,840	140,180	0,148	-0,140
-78,826	368,661	0,017	-0,025
-77,811	242,526	-0,012	0,015
-76,797	800,000	0,029	0,061
-75,782	-55,406	0,088	-0,028
-74,767	33,141	0,085	0,053
-73,753	47,247	-0,136	0,091
-72,738	-72,496	-0,191	0,050
-71,724	-78,979	0,072	0,017
-70,709	-36,570	-0,032	0,012
-69,694	762,032	-0,062	-0,120
-68,680	95,045	-0,050	-0,041
-67,665	239,341	-0,009	0,010
-66,651	800,000	0,025	0,063
-65,636	-200,000	-0,015	0,062
-64,622	-91,990	-0,037	-0,007
-63,607	630,538	0,034	0,062
-62,592	381,761	-0,080	-0,118
-61,578	344,269	0,028	-0,040
-60,563	-107,267	0,115	0,018
-59,549	-200,000	0,023	0,123
-58,534	88,456	-2,570	-2,049
-57,519	106,572	0,384	-0,327
-56,505	-200,000	-1,705	-5,529
-55,490	465,497	1,260	2,033
-54,476	800,000	5,264	11,459
-53,461	-200,000	22,283	350,143
-52,446	800,000	760,424	2293,006
-51,432	512,083	1644,633	2760,516
-50,417	96,601	1607,195	1320,485
-49,403	64,337	1264,248	912,909
-48,388	22,685	1016,686	596,100
-47,373	19,564	984,043	566,652
-46,359	12,825	971,080	537,138
-45,344	8,457	967,839	521,026
-44,330	8,922	965,864	521,465
-43,315	7,962	963,993	517,298
-42,300	7,864	962,952	516,396
-41,286	7,850	961,776	515,701
-40,271	7,789	960,976	515,053
-39,257	7,782	960,136	514,558
-38,242	7,851	958,908	514,104
-37,227	7,877	958,202	513,789
-36,213	7,847	957,451	513,270
-35,198	7,843	956,566	512,763
-34,184	7,965	955,754	512,703
-33,169	7,867	954,845	511,877
-32,154	7,857	954,021	511,382
-31,140	7,885	953,157	510,989
-30,125	7,925	952,474	510,731
-29,111	7,876	951,689	510,131
-28,096	7,876	951,061	509,777
-27,082	7,843	950,470	509,334
-26,067	7,830	949,731	508,875
-25,052	7,785	948,739	508,178
-24,038	7,764	948,129	507,763
-23,023	7,730	947,408	507,247
-22,009	7,826	946,814	507,219
-20,994	7,818	946,168	506,827
-19,979	7,848	945,618	506,607
-18,965	7,793	944,992	506,075
-17,950	7,843	944,311	505,851
-16,936	7,800	943,741	505,390
-15,921	7,796	942,906	504,909
-14,906	7,676	942,359	504,214
-13,892	7,745	941,705	504,063
-12,877	7,725	941,017	503,610
-11,863	7,694	940,523	503,226
-10,848	7,702	939,884	502,890
-9,833	7,826	939,362	502,986
-8,819	7,790	938,659	502,476
-7,804	7,693	938,079	501,836
-6,790	7,663	937,607	501,468
-5,775	7,803	936,948	501,540
-4,760	7,746	936,509	501,105
-3,746	7,766	935,687	500,710
-2,731	7,664	934,939	499,966
-1,717	7,590	934,386	499,417
-0,702	7,555	933,858	499,004
0,313	7,473	933,036	499,058
1,327	10,860	930,851	508,521
2,342	19,530	778,964	448,247
3,356	14,501	446,910	249,593
4,371	-11,942	311,447	145,902
5,386	-15,915	294,004	133,712
6,400	-17,941	287,984	128,961
7,415	-18,022	285,394	127,710
8,429	-18,437	283,362	126,386
9,444	-18,778	282,578	125,694
10,459	-18,547	281,960	125,632
11,473	-18,454	281,297	125,415
12,488	-18,615	280,923	125,082
13,502	-18,677	280,456	124,803
14,517	-18,357	279,907	124,856
15,531	-18,444	279,530	124,592
16,546	-18,265	279,308	124,653
17,561	-18,417	278,772	124,258
18,575	-18,241	278,623	124,349
19,590	-18,348	278,174	124,036
20,604	-18,223	277,842	123,995
21,619	-18,307	277,374	123,696
22,634	-18,194	276,994	123,622
23,648	-18,304	276,784	123,413
24,663	-18,280	276,573	123,331
25,677	-18,333	276,342	123,166
26,692	-18,301	276,010	123,038
27,707	-18,311	275,748	122,901
28,721	-18,277	275,501	122,812
29,736	-18,394	275,255	122,581
30,750	-18,256	274,941	122,560
31,765	-18,483	274,620	122,193
32,780	-18,453	274,498	122,155
33,794	-18,188	274,131	122,230
34,809	-18,177	273,922	122,136
35,823	-18,127	273,509	121,988
36,838	-18,192	273,384	121,861
37,853	-18,298	273,117	121,632
38,867	-18,301	273,020	121,575
39,882	-18,200	272,847	121,581
40,896	-18,237	272,428	121,349
41,911	-18,137	272,081	121,277
42,926	-18,122	271,799	121,155
43,940	-18,211	271,659	120,998
44,955	-18,392	271,551	120,771
45,969	-18,189	271,217	120,800
46,984	-18,181	271,265	120,819
47,999	-18,102	271,065	120,792
49,013	-17,917	270,656	120,770
50,028	-18,083	270,649	120,603
51,042	-17,881	270,266	120,607
52,057	-17,890	270,158	120,541
53,071	-18,187	269,782	120,088
54,086	-18,212	269,528	119,941
55,101	-18,153	269,280	119,874
56,115	-18,163	269,137	119,791
57,130	-18,236	268,792	119,560
58,144	-18,326	268,521	119,346
59,159	-18,357	268,297	119,208
60,174	-18,376	268,112	119,097
61,188	-18,373	267,957	119,020
62,203	-18,392	267,681	118,870
63,217	-17,964	267,381	119,117
64,232	-18,285	267,176	118,722
65,247	-18,233	266,950	118,658
66,261	-18,440	266,637	118,320
67,276	-18,405	266,437	118,253
68,290	-18,170	266,301	118,395
69,305	-18,059	265,950	118,330
70,320	-18,311	265,921	118,077
71,334	-18,280	265,610	117,957
72,349	-18,268	265,354	117,844
73,363	-18,321	265,155	117,697
74,378	-18,181	264,817	117,662
75,393	-18,138	264,753	117,662
76,407	-18,150	264,463	117,512
77,422	-18,190	264,326	117,405
78,436	-18,187	264,037	117,269
79,451	-18,237	263,900	117,153
80,466	-18,258	263,598	116,989
81,480	-18,208	263,361	116,918
82,495	-18,332	263,209	116,729
83,509	-18,200	262,946	116,721
84,524	-18,250	262,752	116,579
85,539	-18,078	262,768	116,730
86,553	-18,144	262,184	116,401
87,568	-18,185	262,218	116,369
88,582	-18,337	262,003	116,128
89,597	-18,092	261,800	116,246
90,611	-18,105	261,493	116,088
91,626	-18,243	261,353	115,892
92,641	-18,165	261,093	115,836
93,655	-18,130	260,846	115,747
94,670	-18,317	260,723	115,516
95,684	-17,993	260,264	115,589
96,699	-18,255	260,271	115,351
97,714	-18,130	260,085	115,369
98,728	-18,213	259,882	115,195
99,743	-18,061	259,797	115,281
100,757	-18,194	259,498	115,021
101,772	-18,111	259,356	115,021
102,787	-18,371	259,097	114,667
103,801	-18,277	258,852	114,630
104,816	-18,068	258,649	114,714
105,830	-18,177	258,417	114,505
106,845	-18,380	258,343	114,284
107,860	-18,160	258,037	114,332
108,874	-18,303	257,851	114,113
109,889	-18,140	257,442	114,065
110,903	-18,223	257,326	113,931
111,918	-18,333	257,291	113,809
112,933	-18,102	257,034	113,887
113,947	-17,998	256,683	113,812
114,962	-18,123	256,546	113,632
115,976	-18,120	256,314	113,522
116,991	-18,127	256,066	113,396
118,006	-18,154	256,020	113,342
119,020	-18,305	255,948	113,168
120,035	-18,160	255,788	113,214
121,049	-18,302	255,528	112,966
122,064	-18,269	255,319	112,891
123,079	-17,935	255,099	113,074
124,093	-18,153	254,853	112,765
125,108	-18,103	254,561	112,670
126,122	-18,090	254,665	112,717
127,137	-18,049	254,317	112,588
128,151	-18,060	254,106	112,476
129,166	-18,009	253,903	112,420
130,181	-18,139	253,834	112,267
131,195	-18,312	253,556	111,985
132,210	-18,017	253,185	112,064
133,224	-18,082	252,981	111,908
134,239	-18,259	252,987	111,749
135,254	-18,166	252,545	111,623
136,268	-17,935	252,431	111,761
137,283	-17,967	252,246	111,642
138,297	-17,861	252,147	111,679
139,312	-18,018	251,933	111,439
140,327	-17,929	251,580	111,350
141,341	-18,279	251,413	110,968
142,356	-18,253	251,272	110,918
143,370	-18,258	251,128	110,840
144,385	-18,093	250,955	110,894
145,400	-18,296	250,664	110,583
146,414	-18,215	250,575	110,603
147,429	-18,093	250,314	110,582
148,443	-18,030	250,152	110,554
149,458	-17,955	249,920	110,504
150,473	-18,050	249,726	110,328
151,487	-18,088	249,423	110,153
152,502	-18,080	249,399	110,139
153,516	-18,120	249,028	109,932
154,531	-18,065	248,931	109,925
155,546	-18,148	248,962	109,859
156,560	-18,296	248,767	109,638
157,575	-18,189	248,531	109,615
158,589	-18,205	248,348	109,511
159,604	-18,091	248,032	109,458
160,619	-18,177	247,807	109,276
161,633	-17,992	247,628	109,343
162,648	-17,987	247,471	109,268
163,662	-18,103	247,481	109,165
164,677	-18,076	247,253	109,078
165,692	-18,147	246,984	108,890
166,706	-18,061	246,928	108,927
167,721	-18,089	246,730	108,806
168,735	-18,061	246,424	108,686
169,750	-18,105	246,467	108,658
170,764	-18,066	246,326	108,619
171,779	-18,126	246,009	108,419
172,794	-18,037	245,933	108,450
173,808	-18,247	245,830	108,221
174,823	-17,762	245,570	108,500
175,837	-18,000	245,554	108,285
176,852	-18,207	245,293	107,988
177,867	-18,114	245,056	107,952
178,881	-18,018	244,814	107,914
179,896	-18,078	244,540	107,735
180,910	-18,242	244,674	107,648
181,925	-18,173	244,232	107,502
182,940	-18,180	244,231	107,486
183,954	-18,196	243,927	107,329
184,969	-18,186	243,768	107,258
185,983	-18,325	243,562	107,043
186,998	-18,105	243,522	107,197
188,013	-17,985	243,248	107,166
189,027	-18,219	243,105	106,900
190,042	-18,265	242,925	106,774
191,056	-18,203	242,750	106,739
192,071	-18,106	242,621	106,752
193,086	-18,126	242,414	106,635
194,100	-18,261	242,223	106,431
195,115	-18,042	241,942	106,476
196,129	-18,089	241,676	106,312
197,144	-18,162	241,563	106,194
198,159	-18,063	241,340	106,166
199,173	-18,075	241,281	106,121
200,188	-18,232	241,105	105,907
201,202	-18,260	240,966	105,813
202,217	-17,925	240,784	105,996
203,232	-17,819	240,535	105,963
204,246	-18,043	240,236	105,641
205,261	-18,271	240,198	105,430
206,275	-16,965	240,554	106,636
207,290	-12,551	242,167	110,943
208,304	-5,863	244,265	117,388
209,319	-2,165	245,312	120,924
210,334	-1,185	245,553	121,838
211,348	-0,203	245,634	122,674
212,363	0,159	245,507	122,897
213,377	0,300	245,452	122,975
214,392	0,430	245,538	123,114
215,407	0,976	245,376	123,469
216,421	1,078	245,239	123,473
217,436	1,138	245,129	123,456
218,450	1,280	245,001	123,497
219,465	1,289	244,827	123,405
220,480	1,209	244,702	123,266
221,494	1,211	244,545	123,177
222,509	0,733	244,168	122,586
223,523	0,493	244,082	122,336
224,538	0,552	243,754	122,209
225,553	0,426	243,656	122,047
226,567	0,540	243,474	122,037
227,582	0,620	243,292	122,001
228,596	0,348	243,086	121,666
229,611	0,494	243,030	121,745
230,626	0,371	242,931	121,585
231,640	0,523	242,534	121,498
232,655	0,460	242,373	121,356
233,669	0,409	242,221	121,228
234,684	0,610	242,132	121,335
235,699	0,572	242,021	121,238
236,713	0,423	241,831	121,011
237,728	0,603	241,755	121,108
238,742	0,367	241,542	120,800
239,757	0,330	241,513	120,745
240,772	0,458	241,191	120,676
241,786	0,635	241,088	120,756
242,801	0,468	240,906	120,520
243,815	0,499	240,759	120,461
244,830	0,527	240,465	120,325
245,844	0,536	240,412	120,295
246,859	0,543	240,197	120,183
247,874	0,495	240,141	120,106
248,888	0,538	239,920	120,018
249,903	0,582	239,816	119,991
250,917	0,569	239,780	119,952
251,932	0,683	239,437	119,861
252,947	0,587	239,459	119,784
253,961	0,601	239,140	119,626
254,976	0,500	239,055	119,491
255,990	0,525	238,914	119,431
257,005	0,602	238,630	119,339
258,020	0,561	238,758	119,360
259,034	0,494	238,516	119,175
260,049	0,485	238,299	119,049
261,063	0,361	238,123	118,852
262,078	0,609	237,842	118,898
263,093	0,497	237,784	118,769
264,107	0,498	237,554	118,644
265,122	0,491	237,442	118,572
266,136	0,498	237,318	118,505
267,151	0,661	237,128	118,528
268,166	0,450	236,984	118,279
269,180	0,603	236,823	118,309
270,195	0,329	236,728	118,035
271,209	0,505	236,502	118,051
272,224	0,538	236,322	117,976
273,239	0,594	236,171	117,935
274,253	0,664	235,966	117,876
275,268	0,597	235,963	117,812
276,282	0,481	235,763	117,610
277,297	0,428	235,533	117,444
278,312	0,642	235,412	117,541
279,326	0,475	235,368	117,377
280,341	0,560	235,208	117,353
281,355	0,596	234,939	117,237
282,370	0,744	234,976	117,361
283,384	0,572	234,771	117,113
284,399	0,660	234,477	117,025
285,414	0,464	234,393	116,820
286,428	0,572	234,330	116,863
287,443	0,700	234,150	116,862
288,457	0,711	233,950	116,760
289,472	0,684	233,809	116,659
290,487	0,587	233,747	116,542
291,501	0,664	233,566	116,500
292,516	0,630	233,424	116,393
293,530	0,606	233,223	116,264
294,545	0,538	233,140	116,159
295,560	0,649	233,099	116,214
296,574	0,663	232,744	116,038
297,589	0,861	232,632	116,124
298,603	0,725	232,475	115,931
299,618	0,755	232,301	115,857
300,633	0,767	232,276	115,844
301,647	0,848	232,110	115,813
302,662	0,812	232,027	115,733
303,676	0,842	231,765	115,615
304,691	0,966	231,609	115,623
305,706	0,894	231,398	115,451
306,720	0,877	231,405	115,431
307,735	0,713	231,208	115,197
308,749	0,805	231,274	115,291
309,764	0,723	231,028	115,095
310,779	0,991	230,690	115,121
311,793	0,702	230,656	114,874
312,808	0,721	230,571	114,835
313,822	0,849	230,246	114,760
314,837	0,795	230,119	114,645
315,852	0,771	230,100	114,608
316,866	0,860	229,971	114,602
317,881	0,870	229,693	114,460
318,895	0,845	229,536	114,353
319,910	0,792	229,391	114,230
320,925	0,678	229,402	114,138
321,939	0,903	229,204	114,201
322,954	0,875	229,113	114,124
323,968	0,717	229,008	113,942
324,983	0,647	228,808	113,779
325,997	0,778	228,629	113,779
327,012	0,796	228,452	113,694
328,027	0,831	228,272	113,621
329,041	0,765	228,204	113,527
330,056	0,949	227,953	113,531
331,070	1,007	227,828	113,502
332,085	0,876	227,599	113,279
333,100	0,848	227,579	113,238
334,114	0,858	227,303	113,099
335,129	0,812	227,097	112,951
336,143	1,091	226,997	113,101
337,158	0,925	226,907	112,922
338,173	0,938	226,662	112,799
339,187	0,894	226,787	112,818
340,202	1,078	226,467	112,787
341,216	0,837	226,516	112,621
342,231	0,910	226,256	112,536
343,246	0,810	226,159	112,403
344,260	0,868	225,990	112,352
345,275	0,895	225,889	112,312
346,289	0,929	225,770	112,268
347,304	0,930	225,567	112,158
348,319	1,084	225,458	112,209
349,333	0,794	225,319	111,914
350,348	0,949	225,058	111,890
351,362	0,906	225,035	111,836
352,377	1,025	224,837	111,816
353,392	0,998	224,763	111,749
354,406	0,966	224,690	111,679
355,421	191,242	1311,315	1374,390
356,435	153,128	1443,553	1374,219
