DTS Sentinel unit serial number:	SN410029Multiplexer serial number:	ORYXHardware model number:	OX2-SRSoftware version number:	ORYX F/W v4,00 Oryx Data Collector v3.7.2.0data status	okinstallation	B5 Nyhavnadifferential loss correction	single-endedforward channel	channel 2reverse channel	N/Adate	2023/12/14time	18:02:13forward acquisition time	300,00reverse acquisition time	0,00gamma	499,1914k internal	0,3157k external	0,3157temperature offset calibration	1,0000default loss term (dB/km)	0,3820temperature slope calibration	1,0000multiplexer offset coefficient	1,0000multiplexer slope coefficient	1,0000fibre end	0,00T internal ref (°C)	8,37T ext. ref 1 (°C)	-7,01T ext. ref 2 (°C)	-7,06length (m)	temperature (°C)	Stokes	anti-Stokes-744,400	-43,583	0,208	0,077
-743,385	-103,813	-0,222	-0,038
-742,371	163,995	0,147	0,152
-741,356	-79,651	-0,429	-0,106
-740,342	-109,067	0,147	-0,023
-739,327	-91,792	-0,378	-0,078
-738,312	95,826	0,102	0,086
-737,298	-17,026	-0,438	-0,203
-736,283	-116,494	0,276	0,037
-735,269	-145,695	-0,347	-0,023
-734,254	46,466	0,116	0,079
-733,239	-126,565	-0,522	-0,056
-732,225	-179,598	0,248	-0,004
-731,210	590,641	-0,088	0,160
-730,196	-200,000	0,008	-0,118
-729,181	63,989	-0,039	0,029
-728,167	-4,435	-0,030	0,015
-727,152	85,408	-0,137	0,110
-726,137	-200,000	0,019	-0,240
-725,123	-138,386	-0,065	0,005
-724,108	704,959	-0,095	-0,186
-723,094	800,000	-0,024	-0,052
-722,079	436,992	-0,032	0,052
-721,064	-139,291	0,089	-0,007
-720,050	10,654	0,170	0,095
-719,035	-200,000	0,013	0,048
-718,021	-35,074	-0,079	0,032
-717,006	-60,058	-0,254	0,079
-715,991	-200,000	-0,043	-0,153
-714,977	-114,099	0,052	0,007
-713,962	-200,000	-0,022	-0,127
-712,948	-95,699	-0,062	-0,012
-711,933	-200,000	-0,039	0,153
-710,918	87,706	-0,068	0,055
-709,904	-14,856	-0,090	-0,042
-708,889	191,166	0,129	0,143
-707,875	46,713	-0,177	-0,121
-706,860	252,812	-0,095	0,120
-705,845	-49,724	0,043	-0,015
-704,831	-110,430	-0,081	0,012
-703,816	-114,643	-0,074	-0,010
-702,802	-200,000	0,013	0,069
-701,787	-200,000	-0,030	-0,107
-700,772	-200,000	-0,003	-0,209
-699,758	-52,168	-0,065	0,022
-698,743	-200,000	-0,000	0,026
-697,729	-75,297	-0,111	0,029
-696,714	403,789	0,089	0,139
-695,699	800,000	0,066	-0,142
-694,685	-200,000	-0,005	-0,124
-693,670	123,736	-0,100	-0,093
-692,656	-200,000	0,020	0,099
-691,641	-6,716	-0,035	0,018
-690,627	-200,000	-0,009	0,102
-689,612	418,497	0,051	0,081
-688,597	-126,029	0,096	0,011
-687,583	223,108	-0,042	0,049
-686,568	800,000	-0,045	-0,139
-685,554	27,495	-0,100	-0,062
-684,539	-200,000	0,002	-0,073
-683,524	15,123	-0,095	-0,054
-682,510	-3,736	-0,097	-0,049
-681,495	607,821	-0,014	0,026
-680,481	233,748	-0,096	-0,116
-679,466	226,219	-0,120	0,143
-678,451	-200,000	0,005	0,068
-677,437	-196,396	0,134	-0,001
-676,422	-200,000	-0,007	-0,060
-675,408	-152,953	0,182	-0,009
-674,393	-200,000	-0,027	-0,113
-673,378	143,817	-0,054	-0,053
-672,364	281,534	-0,037	-0,049
-671,349	-111,065	0,102	0,015
-670,335	-50,012	0,099	-0,034
-669,320	-176,440	-0,081	-0,002
-668,305	-200,000	-0,008	0,064
-667,291	260,204	-0,149	-0,190
-666,276	-10,880	0,063	0,031
-665,262	-200,000	-0,007	-0,053
-664,247	318,509	0,017	0,023
-663,232	113,720	0,024	-0,021
-662,218	-121,019	0,102	0,012
-661,203	-200,000	0,003	-0,032
-660,189	745,676	-0,075	-0,149
-659,174	50,025	0,021	0,014
-658,159	83,724	0,039	0,031
-657,145	51,965	-0,063	0,044
-656,130	-114,221	0,093	-0,013
-655,116	-21,142	0,050	-0,022
-654,101	141,160	0,100	0,097
-653,086	-200,000	0,007	0,046
-652,072	-29,896	-0,096	0,040
-651,057	-74,790	-0,044	-0,012
-650,043	-200,000	-0,008	-0,064
-649,028	-200,000	-0,000	0,065
-648,014	-158,953	0,120	0,005
-646,999	130,020	-0,043	0,040
-645,984	150,238	0,062	0,062
-644,970	-200,000	0,008	-0,040
-643,955	129,470	0,078	0,073
-642,941	335,775	0,036	-0,051
-641,926	66,480	-0,031	0,023
-640,911	27,138	-0,062	-0,038
-639,897	-200,000	0,007	0,097
-638,882	-65,708	0,106	-0,031
-637,868	5,769	-0,142	0,077
-636,853	195,843	-0,113	-0,127
-635,838	102,267	-0,065	-0,056
-634,824	-103,301	-0,092	0,016
-633,809	800,000	0,035	0,105
-632,795	84,494	0,104	0,083
-631,780	-200,000	0,020	-0,086
-630,765	107,537	-0,077	-0,068
-629,751	-200,000	-0,007	0,029
-628,736	24,847	-0,049	0,030
-627,722	-200,000	0,032	-0,107
-626,707	100,104	-0,043	-0,037
-625,692	-200,000	0,017	0,157
-624,678	-200,000	0,009	0,061
-623,663	220,640	-0,030	-0,036
-622,649	173,068	0,107	-0,114
-621,634	-200,000	-0,033	-0,193
-620,619	-200,000	-0,008	0,079
-619,605	180,334	0,122	-0,131
-618,590	-200,000	-0,023	-0,085
-617,576	31,467	0,078	-0,049
-616,561	13,767	-0,038	0,022
-615,546	192,567	0,055	0,061
-614,532	800,000	-0,023	0,059
-613,517	37,774	0,101	0,065
-612,503	800,000	0,037	-0,111
-611,488	-134,639	-0,206	-0,018
-610,474	4,638	0,123	0,066
-609,459	-30,581	0,107	0,044
-608,444	680,323	-0,009	-0,018
-607,430	800,000	-0,035	-0,100
-606,415	800,000	0,064	-0,132
-605,401	195,928	0,140	-0,157
-604,386	141,198	0,146	-0,142
-603,371	-200,000	-0,004	0,015
-602,357	-35,343	-0,126	-0,050
-601,342	468,650	0,120	0,199
-600,328	800,000	-0,009	-0,023
-599,313	-200,000	-0,012	-0,143
-598,298	-200,000	-0,055	-0,209
-597,284	-200,000	-0,014	0,073
-596,269	-28,534	-0,047	0,020
-595,255	800,000	0,014	-0,041
-594,240	95,327	0,051	0,043
-593,225	-195,426	-0,175	-0,001
-592,211	-200,000	0,016	0,141
-591,196	142,518	0,030	-0,029
-590,182	-20,319	-0,024	-0,011
-589,167	-52,884	0,074	-0,025
-588,152	800,000	-0,025	0,052
-587,138	-200,000	-0,040	-0,231
-586,123	188,117	0,086	-0,094
-585,109	-74,068	-0,100	0,026
-584,094	-200,000	0,007	-0,153
-583,079	-137,114	0,070	-0,006
-582,065	-200,000	-0,077	-0,000
-581,050	-200,000	-0,023	0,174
-580,036	162,799	0,082	0,085
-579,021	-200,000	0,018	-0,064
-578,006	-200,000	-0,027	-0,135
-576,992	-1,089	0,030	0,016
-575,977	78,755	-0,058	0,045
-574,963	122,716	0,133	0,122
-573,948	-200,000	0,016	0,114
-572,934	-85,696	0,104	-0,023
-571,919	-73,687	-0,099	0,026
-570,904	-67,632	0,070	-0,020
-569,890	-97,694	0,028	-0,005
-568,875	-32,275	0,082	-0,033
-567,861	-82,955	0,029	0,007
-566,846	150,403	0,161	-0,161
-565,831	-200,000	0,004	-0,029
-564,817	250,655	-0,087	-0,109
-563,802	-78,106	-0,113	-0,028
-562,788	-200,000	0,009	0,120
-561,773	93,449	-0,114	-0,094
-560,758	133,022	0,106	-0,101
-559,744	76,881	-0,136	0,105
-558,729	-10,764	0,155	0,075
-557,715	-99,047	-0,035	-0,006
-556,700	-111,725	0,102	0,015
-555,685	-200,000	-0,004	-0,092
-554,671	-200,000	0,002	0,108
-553,656	-81,985	0,070	0,017
-552,642	-111,977	-0,099	-0,015
-551,627	-24,679	-0,118	-0,051
-550,612	-83,995	-0,065	0,015
-549,598	-143,810	-0,182	-0,012
-548,583	326,734	0,057	0,080
-547,569	-93,486	0,149	0,030
-546,554	143,104	-0,099	-0,096
-545,539	-200,000	-0,006	-0,095
-544,525	710,620	-0,018	0,034
-543,510	-200,000	0,017	-0,073
-542,496	128,063	0,044	-0,041
-541,481	-200,000	-0,001	-0,194
-540,466	304,450	0,050	-0,067
-539,452	-134,850	0,046	-0,004
-538,437	-200,000	-0,028	0,094
-537,423	104,655	0,018	-0,016
-536,408	75,793	-0,051	-0,039
-535,393	-45,497	-0,181	-0,065
-534,379	213,354	0,064	-0,074
-533,364	237,078	-0,062	-0,076
-532,350	-200,000	0,009	-0,096
-531,335	459,930	-0,073	0,119
-530,321	-200,000	-0,012	0,038
-529,306	-96,198	0,085	-0,016
-528,291	164,342	-0,028	-0,029
-527,277	-60,585	0,186	-0,057
-526,262	-200,000	-0,002	0,054
-525,248	67,129	0,067	0,050
-524,233	800,000	-0,024	0,052
-523,218	-40,305	0,118	0,045
-522,204	800,000	0,023	-0,068
-521,189	-139,141	-0,155	0,012
-520,175	364,467	-0,063	-0,093
-519,160	-121,019	0,163	0,020
-518,145	532,388	0,009	0,016
-517,131	-200,000	-0,001	0,044
-516,116	-130,021	0,145	0,014
-515,102	-200,000	0,008	-0,064
-514,087	800,000	0,030	-0,095
-513,072	800,000	-0,058	-0,174
-512,058	800,000	-0,056	-0,160
-511,043	206,564	0,017	-0,020
-510,029	-200,000	0,008	0,123
-509,014	800,000	-0,047	0,105
-507,999	-39,642	-0,141	0,054
-506,985	-200,000	0,010	0,048
-505,970	248,858	-0,081	-0,100
-504,956	800,000	-0,008	-0,017
-503,941	455,497	-0,036	0,059
-502,926	-74,997	0,026	0,007
-501,912	-4,560	0,135	0,068
-500,897	-120,721	-0,071	0,009
-499,883	-5,197	0,104	0,052
-498,868	53,129	-0,095	-0,066
-497,853	385,345	-0,049	-0,075
-496,839	283,341	0,031	-0,041
-495,824	271,236	-0,087	0,113
-494,810	626,184	-0,081	-0,149
-493,795	-27,526	0,158	0,067
-492,781	-117,992	-0,034	-0,004
-491,766	-106,312	0,155	0,025
-490,751	800,000	-0,040	-0,090
-489,737	-200,000	-0,012	-0,054
-488,722	127,224	0,046	-0,043
-487,708	252,777	-0,092	0,115
-486,693	679,586	-0,022	0,041
-485,678	283,970	-0,147	-0,194
-484,664	-200,000	0,034	-0,146
-483,649	265,038	-0,119	0,151
-482,635	107,030	-0,105	-0,091
-481,620	24,724	-0,073	-0,044
-480,605	116,791	0,100	0,090
-479,591	290,842	0,104	0,139
-478,576	-9,358	0,085	-0,041
-477,562	480,727	0,065	0,108
-476,547	63,459	-0,079	0,058
-475,532	-12,975	-0,141	-0,067
-474,518	-200,000	0,003	0,172
-473,503	59,604	0,154	0,111
-472,489	-91,453	0,108	-0,022
-471,474	-200,000	0,021	0,145
-470,459	-85,296	-0,098	0,022
-469,445	-21,009	-0,065	0,029
-468,430	313,250	-0,050	0,068
-467,416	-75,883	0,093	-0,024
-466,401	313,904	0,033	-0,045
-465,386	800,000	-0,005	0,015
-464,372	27,592	0,062	-0,038
-463,357	-96,760	-0,134	0,026
-462,343	800,000	-0,024	0,064
-461,328	800,000	0,033	-0,074
-460,313	17,716	0,028	-0,016
-459,299	145,962	-0,080	0,078
-458,284	200,433	-0,009	-0,010
-457,270	-0,289	0,033	-0,017
-456,255	-200,000	-0,006	-0,045
-455,241	-200,000	-0,014	-0,053
-454,226	800,000	-0,067	-0,161
-453,211	-200,000	-0,017	0,110
-452,197	-10,339	-0,114	-0,055
-451,182	-17,354	-0,085	0,039
-450,168	394,740	-0,069	0,105
-449,153	-200,000	0,017	0,088
-448,138	-22,317	0,146	-0,064
-447,124	-200,000	-0,035	-0,154
-446,109	-132,653	-0,025	0,002
-445,095	574,474	0,044	-0,078
-444,080	-171,847	-0,106	0,002
-443,065	-111,745	-0,200	0,029
-442,051	-100,432	0,100	-0,018
-441,036	602,565	-0,058	-0,106
-440,022	139,108	-0,114	-0,109
-439,007	133,443	0,023	-0,022
-437,992	-200,000	0,000	-0,006
-436,978	-88,599	0,056	0,012
-435,963	-200,000	-0,000	0,062
-434,949	166,599	0,104	-0,108
-433,934	537,786	-0,041	-0,072
-432,919	-131,558	0,121	-0,012
-431,905	434,853	0,036	0,057
-430,890	-28,429	0,172	0,072
-429,876	-80,819	0,190	-0,046
-428,861	800,000	-0,049	0,104
-427,846	-160,963	-0,075	-0,003
-426,832	166,239	-0,041	0,042
-425,817	-47,634	-0,143	-0,050
-424,803	800,000	-0,045	0,122
-423,788	331,877	0,030	-0,043
-422,773	-94,056	0,080	-0,016
-421,759	-17,334	0,097	-0,044
-420,744	-200,000	0,003	-0,109
-419,730	470,561	-0,038	-0,063
-418,715	-34,335	0,080	-0,032
-417,701	-200,000	0,030	-0,124
-416,686	-200,000	0,004	0,076
-415,671	-21,561	0,093	-0,041
-414,657	40,031	-0,055	0,036
-413,642	631,483	-0,028	0,051
-412,628	245,968	0,024	-0,029
-411,613	-6,369	-0,027	0,013
-410,598	1,981	-0,059	-0,031
-409,584	800,000	0,075	0,226
-408,569	-136,458	-0,139	0,012
-407,555	-81,473	0,082	0,020
-406,540	-91,726	-0,068	0,014
-405,525	-169,110	-0,085	0,002
-404,511	716,158	0,043	0,084
-403,496	-56,151	-0,053	0,017
-402,482	-147,854	0,200	0,012
-401,467	110,839	0,055	0,048
-400,452	-200,000	-0,004	-0,063
-399,438	800,000	0,023	-0,050
-398,423	-200,000	-0,013	0,071
-397,409	-11,454	-0,064	-0,031
-396,394	-142,488	-0,114	-0,008
-395,379	-200,000	-0,007	0,026
-394,365	800,000	-0,031	-0,082
-393,350	-141,566	-0,042	-0,003
-392,336	23,539	0,089	0,053
-391,321	-68,754	-0,179	0,050
-390,306	80,743	0,137	-0,107
-389,292	398,909	-0,126	-0,192
-388,277	-200,000	0,025	-0,125
-387,263	250,460	0,016	0,020
-386,248	42,510	0,041	0,027
-385,233	800,000	0,010	-0,022
-384,219	-49,060	-0,085	0,030
-383,204	-7,589	0,073	-0,036
-382,190	173,326	-0,085	0,090
-381,175	-88,329	0,123	0,026
-380,160	344,092	0,010	-0,015
-379,146	-103,042	-0,056	0,009
-378,131	-200,000	0,001	-0,043
-377,117	67,145	0,031	-0,023
-376,102	800,000	-0,023	0,063
-375,088	-200,000	0,023	0,122
-374,073	243,876	-0,030	-0,037
-373,058	-134,479	-0,052	0,005
-372,044	-200,000	-0,005	-0,021
-371,029	-98,170	-0,079	0,015
-370,015	-200,000	0,003	0,142
-369,000	414,191	-0,022	0,034
-367,985	-200,000	0,039	-0,264
-366,971	-200,000	-0,007	-0,084
-365,956	508,674	0,053	0,089
-364,942	-127,968	0,191	-0,020
-363,927	269,800	0,042	0,054
-362,912	324,669	0,017	0,023
-361,898	-61,395	0,183	0,055
-360,883	-53,638	0,103	-0,034
-359,869	-48,191	-0,120	0,042
-358,854	-50,903	0,080	0,027
-357,839	-44,392	0,067	-0,024
-356,825	-60,946	-0,084	0,026
-355,810	-78,964	-0,151	-0,037
-354,796	61,783	-0,066	0,047
-353,781	145,217	-0,046	0,045
-352,766	-30,093	-0,097	0,040
-351,752	-68,663	0,040	-0,011
-350,737	310,590	0,043	-0,059
-349,723	-200,000	-0,015	-0,090
-348,708	-124,438	-0,108	-0,012
-347,693	-200,000	-0,034	-0,123
-346,679	-81,755	0,138	-0,033
-345,664	410,474	0,021	0,033
-344,650	104,165	0,060	0,051
-343,635	117,287	0,062	0,055
-342,620	4,102	-0,126	0,067
-341,606	-99,073	-0,105	0,019
-340,591	280,735	-0,037	0,048
-339,577	-109,672	-0,077	0,012
-338,562	17,378	0,102	-0,059
-337,548	-200,000	0,007	-0,108
-336,533	649,437	0,071	0,132
-335,518	-27,830	0,127	0,053
-334,504	-138,938	-0,114	-0,009
-333,489	340,879	-0,083	-0,118
-332,475	62,536	-0,055	0,040
-331,460	215,413	0,017	-0,019
-330,445	-200,000	0,031	0,168
-329,431	-200,000	-0,003	0,024
-328,416	317,163	-0,022	0,030
-327,402	177,751	0,040	0,042
-326,387	-36,959	0,038	-0,015
-325,372	443,670	-0,047	0,075
-324,358	-107,458	-0,069	-0,011
-323,343	-200,000	0,014	0,077
-322,329	800,000	0,061	0,126
-321,314	-116,935	0,036	-0,005
-320,299	-72,421	-0,047	-0,013
-319,285	-114,652	-0,049	-0,007
-318,270	-200,000	-0,000	-0,030
-317,256	-200,000	-0,020	-0,169
-316,241	-200,000	0,014	0,116
-315,226	800,000	0,050	0,113
-314,212	-128,669	0,083	-0,008
-313,197	-0,677	-0,081	-0,041
-312,183	166,258	0,067	0,069
-311,168	281,760	0,105	-0,137
-310,153	-51,223	0,087	0,029
-309,139	-18,209	0,033	-0,015
-308,124	407,409	0,066	-0,102
-307,110	244,759	-0,040	-0,049
-306,095	-200,000	0,007	-0,033
-305,080	237,361	0,076	-0,091
-304,066	-101,506	0,041	0,007
-303,051	175,591	-0,067	-0,070
-302,037	16,145	-0,088	0,050
-301,022	-82,127	0,015	0,004
-300,008	324,263	-0,102	0,142
-298,993	233,714	0,028	-0,033
-297,978	-200,000	0,049	-0,190
-296,964	46,345	-0,114	-0,076
-295,949	-180,354	-0,139	-0,002
-294,935	21,381	-0,028	0,017
-293,920	-200,000	-0,006	0,161
-292,905	227,221	-0,095	-0,112
-291,891	545,541	0,094	-0,164
-290,876	-32,181	0,085	-0,034
-289,862	800,000	-0,045	0,119
-288,847	26,237	-0,113	-0,068
-287,832	321,117	-0,099	0,136
-286,818	66,295	0,064	0,047
-285,803	-56,189	0,029	0,009
-284,789	481,600	0,039	-0,065
-283,774	-200,000	0,021	-0,093
-282,759	-200,000	-0,012	-0,133
-281,745	38,601	-0,055	-0,035
-280,730	180,652	0,051	-0,055
-279,716	147,313	0,024	-0,023
-278,701	386,399	-0,092	0,139
-277,686	128,515	-0,034	-0,032
-276,672	-34,392	0,058	-0,023
-275,657	320,582	-0,088	0,121
-274,643	-200,000	-0,026	0,134
-273,628	55,187	0,078	0,055
-272,613	279,241	-0,032	-0,042
-271,599	-2,971	0,051	-0,025
-270,584	344,812	-0,169	0,242
-269,570	-8,274	0,162	0,079
-268,555	31,795	0,144	0,090
-267,540	-200,000	-0,011	-0,084
-266,526	-200,000	0,001	0,075
-265,511	64,721	-0,045	-0,033
-264,497	-118,975	-0,087	-0,011
-263,482	-47,071	0,172	-0,060
-262,467	514,947	-0,009	0,015
-261,453	-124,019	-0,140	0,016
-260,438	-72,077	0,052	-0,014
-259,424	-200,000	-0,007	-0,225
-258,409	-70,250	-0,106	-0,029
-257,395	77,892	0,149	-0,115
-256,380	47,409	-0,033	-0,022
-255,365	-121,914	0,107	0,013
-254,351	-176,197	-0,149	-0,003
-253,336	-43,955	-0,112	0,040
-252,322	-200,000	0,001	-0,092
-251,307	24,032	0,063	-0,038
-250,292	800,000	0,015	0,045
-249,278	241,722	-0,011	-0,013
-248,263	-200,000	-0,008	0,035
-247,249	800,000	0,020	0,063
-246,234	84,533	-0,025	0,020
-245,219	-91,190	0,011	-0,002
-244,205	-13,496	-0,081	0,038
-243,190	-51,162	0,075	-0,025
-242,176	-86,634	0,038	-0,008
-241,161	269,163	0,044	-0,056
-240,146	-172,607	-0,070	-0,002
-239,132	101,319	-0,009	0,007
-238,117	-14,312	0,141	0,065
-237,103	170,893	0,036	-0,038
-236,088	20,403	-0,094	-0,055
-235,073	-200,000	0,039	0,194
-234,059	-136,712	-0,051	-0,004
-233,044	167,102	0,090	0,092
-232,030	52,481	0,053	0,036
-231,015	800,000	-0,067	-0,140
-230,000	-184,087	-0,115	-0,001
-228,986	800,000	0,033	-0,077
-227,971	-174,306	0,177	0,004
-226,957	-200,000	0,008	0,120
-225,942	-200,000	0,004	0,048
-224,927	201,245	-0,104	0,116
-223,913	-108,635	-0,093	-0,014
-222,898	154,417	-0,068	-0,067
-221,884	-200,000	-0,004	-0,057
-220,869	-200,000	-0,127	-0,000
-219,855	800,000	0,020	0,064
-218,840	-200,000	-0,009	0,085
-217,825	-200,000	-0,006	-0,028
-216,811	399,193	-0,051	0,078
-215,796	163,247	0,032	-0,032
-214,782	-200,000	-0,036	0,128
-213,767	124,551	-0,018	0,016
-212,752	-26,921	-0,021	0,009
-211,738	-200,000	-0,055	0,202
-210,723	-200,000	-0,014	0,172
-209,709	55,605	-0,065	-0,046
-208,694	800,000	0,061	-0,124
-207,679	-200,000	-0,000	-0,024
-206,665	0,877	0,139	0,071
-205,650	-200,000	0,039	-0,132
-204,636	-200,000	0,018	0,061
-203,621	-14,624	0,051	-0,024
-202,606	-200,000	-0,014	-0,093
-201,592	-200,000	-0,027	-0,106
-200,577	639,093	0,081	0,150
-199,563	-200,000	-0,013	0,046
-198,548	-36,402	0,060	0,023
-197,533	-200,000	0,045	0,155
-196,519	800,000	0,057	0,131
-195,504	800,000	-0,103	0,222
-194,490	683,402	0,065	0,124
-193,475	-81,037	-0,084	-0,020
-192,460	-77,139	-0,051	0,013
-191,446	-89,060	0,084	0,018
-190,431	-200,000	-0,006	0,046
-189,417	-159,853	0,049	0,002
-188,402	10,737	0,031	-0,017
-187,387	39,516	-0,128	-0,082
-186,373	9,100	0,024	0,013
-185,358	80,533	-0,026	0,021
-184,344	663,189	0,011	-0,020
-183,329	-148,357	-0,130	0,008
-182,315	-179,243	0,069	-0,001
-181,300	193,836	0,039	-0,042
-180,285	167,826	-0,122	0,125
-179,271	88,089	-0,054	-0,043
-178,256	188,086	0,046	0,049
-177,242	-8,263	0,066	0,032
-176,227	800,000	0,044	0,105
-175,212	281,076	0,039	-0,050
-174,198	685,700	0,052	0,098
-173,183	35,525	-0,021	0,013
-172,169	117,718	0,116	-0,103
-171,154	121,866	-0,091	-0,082
-170,139	-200,000	0,026	0,119
-169,125	43,473	-0,029	0,019
-168,110	471,661	0,021	0,035
-167,096	-200,000	-0,006	0,085
-166,081	-153,114	-0,067	-0,003
-165,066	705,056	-0,062	-0,118
-164,052	-134,418	-0,140	0,012
-163,037	-53,898	-0,138	-0,045
-162,023	156,691	-0,018	0,018
-161,008	-200,000	0,040	0,217
-159,993	-79,094	-0,273	0,066
-158,979	-190,667	0,079	-0,001
-157,964	-8,026	0,138	-0,067
-156,950	-175,167	0,058	0,001
-155,935	-102,131	0,104	-0,018
-154,920	-200,000	0,007	0,030
-153,906	-21,356	0,141	0,062
-152,891	563,670	0,019	-0,034
-151,877	-200,000	0,015	-0,111
-150,862	-70,293	0,077	-0,021
-149,847	534,254	-0,077	0,132
-148,833	75,963	-0,057	-0,044
-147,818	-41,874	0,183	-0,067
-146,804	-95,948	-0,107	-0,020
-145,789	-190,747	0,044	-0,000
-144,775	78,184	0,059	-0,045
-143,760	800,000	0,021	0,044
-142,745	87,428	-0,185	-0,147
-141,731	37,173	0,111	-0,071
-140,716	134,456	0,063	-0,059
-139,702	-79,477	0,021	0,005
-138,687	11,515	-0,038	-0,021
-137,672	682,436	-0,045	-0,084
-136,658	120,947	0,032	0,029
-135,643	70,324	-0,060	0,045
-134,629	-200,000	0,010	0,075
-133,614	-149,711	0,108	0,006
-132,599	234,972	0,027	-0,032
-131,585	178,147	0,111	0,117
-130,570	-46,873	0,081	-0,028
-129,556	-200,000	-0,038	-0,142
-128,541	-200,000	0,013	-0,069
-127,526	-22,852	-0,028	-0,012
-126,512	293,653	-0,069	0,092
-125,497	32,385	0,113	0,070
-124,483	-200,000	-0,001	-0,047
-123,468	461,059	-0,022	-0,036
-122,453	145,114	-0,044	0,042
-121,439	-57,794	-0,042	0,013
-120,424	57,903	0,039	-0,027
-119,410	-200,000	-0,015	0,071
-118,395	-78,200	0,130	-0,032
-117,380	800,000	0,028	-0,069
-116,366	-119,223	-0,074	-0,009
-115,351	68,084	0,019	-0,014
-114,337	-117,800	-0,027	0,004
-113,322	373,399	-0,112	0,165
-112,307	800,000	0,006	-0,016
-111,293	12,582	0,169	0,093
-110,278	431,042	0,063	0,098
-109,264	103,771	-0,063	-0,053
-108,249	-26,442	-0,052	-0,022
-107,234	-200,000	0,006	-0,043
-106,220	-89,835	-0,094	-0,020
-105,205	130,576	0,077	0,071
-104,191	-118,326	-0,128	-0,016
-103,176	-53,932	0,121	-0,039
-102,162	800,000	-0,039	0,082
-101,147	-72,318	-0,131	0,035
-100,132	203,074	-0,065	-0,073
-99,118	800,000	0,014	0,033
-98,103	-106,041	-0,105	-0,017
-97,089	-70,659	0,092	-0,025
-96,074	-63,303	0,146	0,043
-95,059	152,068	0,142	0,140
-94,045	-91,914	0,102	-0,021
-93,030	343,481	-0,057	-0,081
-92,016	-200,000	-0,022	0,072
-91,001	800,000	0,034	0,082
-89,986	-200,000	0,002	-0,034
-88,972	-200,000	0,004	0,032
-87,957	129,732	0,066	-0,061
-86,943	312,179	-0,057	0,077
-85,928	-42,147	0,094	0,034
-84,913	-200,000	0,006	0,035
-83,899	-200,000	-0,013	-0,084
-82,884	-34,870	0,034	0,013
-81,870	-93,723	0,032	-0,006
-80,855	800,000	0,052	0,162
-79,840	-28,105	0,086	0,036
-78,826	-105,354	-0,121	0,020
-77,811	-200,000	-0,037	-0,176
-76,797	-90,342	0,114	-0,024
-75,782	-200,000	-0,003	0,011
-74,767	-155,020	0,081	0,004
-73,753	-109,036	0,057	0,009
-72,738	610,046	-0,033	0,060
-71,724	310,190	-0,033	0,045
-70,709	-75,510	-0,054	-0,014
-69,694	-103,570	0,060	-0,010
-68,680	242,214	0,034	0,041
-67,665	199,209	0,056	-0,061
-66,651	186,838	0,083	0,088
-65,636	-84,684	0,063	-0,014
-64,622	299,630	-0,081	0,107
-63,607	800,000	-0,031	0,082
-62,592	-200,000	-0,011	-0,051
-61,578	800,000	0,053	0,124
-60,563	800,000	-0,038	0,113
-59,549	32,481	-0,154	0,096
-58,534	101,326	-2,499	-2,089
-57,519	78,575	0,429	-0,329
-56,505	-200,000	-1,588	-5,404
-55,490	472,672	1,235	2,005
-54,476	800,000	5,094	11,292
-53,461	-200,000	21,980	344,928
-52,446	800,000	761,854	2306,358
-51,432	516,282	1651,908	2781,889
-50,417	102,342	1616,132	1355,414
-49,403	71,908	1271,292	948,197
-48,388	24,800	1020,806	605,678
-47,373	19,043	987,411	566,818
-46,359	13,219	974,445	540,251
-45,344	9,076	971,176	524,817
-44,330	9,532	969,094	525,165
-43,315	8,530	967,318	520,900
-42,300	8,420	966,320	519,981
-41,286	8,462	965,263	519,530
-40,271	8,423	964,250	518,835
-39,257	8,359	963,464	518,184
-38,242	8,408	962,514	517,814
-37,227	8,433	961,535	517,347
-36,213	8,383	960,919	516,833
-35,198	8,413	959,983	516,407
-34,184	8,451	959,212	516,094
-33,169	8,391	958,405	515,444
-32,154	8,470	957,250	515,059
-31,140	8,434	956,534	514,535
-30,125	8,460	955,615	514,106
-29,111	8,439	954,850	513,606
-28,096	8,494	954,322	513,479
-27,082	8,444	953,507	512,860
-26,067	8,403	952,833	512,345
-25,052	8,368	951,986	511,754
-24,038	8,404	951,297	511,482
-23,023	8,358	950,793	511,040
-22,009	8,414	949,998	510,773
-20,994	8,419	949,593	510,550
-19,979	8,423	949,012	510,233
-18,965	8,333	948,501	509,648
-17,950	8,421	947,563	509,406
-16,936	8,287	947,161	508,741
-15,921	8,349	946,299	508,454
-14,906	8,282	945,636	507,864
-13,892	8,312	944,974	507,585
-12,877	8,292	944,232	507,103
-11,863	8,259	943,689	506,685
-10,848	8,261	943,144	506,380
-9,833	8,370	942,639	506,436
-8,819	8,338	941,891	505,911
-7,804	8,309	941,172	505,414
-6,790	8,349	940,661	505,245
-5,775	8,369	940,163	505,022
-4,760	8,337	939,621	504,608
-3,746	8,304	938,979	504,138
-2,731	8,196	938,355	503,442
-1,717	8,173	937,642	502,967
-0,702	8,153	936,823	502,443
0,313	8,062	936,233	502,598
1,327	11,495	934,181	512,301
2,342	20,394	781,928	452,182
3,356	15,565	448,892	252,287
4,371	-10,606	312,425	147,778
5,386	-14,222	294,816	135,782
6,400	-16,539	288,807	130,708
7,415	-16,856	286,072	129,147
8,429	-17,660	284,190	127,502
9,444	-17,800	283,221	126,921
10,459	-17,718	282,585	126,703
11,473	-17,848	282,058	126,331
12,488	-17,710	281,524	126,213
13,502	-17,800	281,046	125,901
14,517	-17,603	280,710	125,929
15,531	-17,706	280,054	125,524
16,546	-17,816	279,626	125,215
17,561	-17,735	279,281	125,127
18,575	-17,764	278,938	124,935
19,590	-17,917	278,468	124,567
20,604	-17,601	278,303	124,784
21,619	-17,757	277,970	124,475
22,634	-17,832	277,695	124,270
23,648	-17,860	277,346	124,075
24,663	-17,735	277,072	124,060
25,677	-17,841	276,826	123,839
26,692	-17,744	276,418	123,737
27,707	-17,949	276,301	123,480
28,721	-17,897	275,998	123,382
29,736	-17,772	275,565	123,296
30,750	-17,668	275,428	123,321
31,765	-18,088	275,346	122,878
32,780	-17,888	274,939	122,874
33,794	-17,839	274,866	122,876
34,809	-17,705	274,521	122,837
35,823	-17,844	274,243	122,572
36,838	-17,700	273,925	122,553
37,853	-17,910	273,845	122,309
38,867	-17,807	273,499	122,240
39,882	-17,727	273,198	122,170
40,896	-17,668	273,042	122,144
41,911	-17,890	272,831	121,832
42,926	-17,568	272,345	121,904
43,940	-17,813	272,321	121,654
44,955	-17,897	272,105	121,468
45,969	-17,763	271,809	121,450
46,984	-17,599	271,592	121,495
47,999	-17,760	271,414	121,255
49,013	-17,621	271,369	121,353
50,028	-17,605	270,929	121,160
51,042	-17,767	270,695	120,895
52,057	-17,692	270,515	120,873
53,071	-17,720	270,279	120,731
54,086	-17,553	270,012	120,755
55,101	-17,714	269,786	120,494
56,115	-17,609	269,502	120,453
57,130	-17,745	269,440	120,290
58,144	-17,626	269,132	120,252
59,159	-17,821	268,880	119,949
60,174	-17,882	268,635	119,773
61,188	-17,731	268,312	119,756
62,203	-17,745	268,160	119,665
63,217	-17,732	267,952	119,574
64,232	-17,674	267,698	119,502
65,247	-17,805	267,439	119,257
66,261	-17,764	267,026	119,099
67,276	-17,706	266,843	119,060
68,290	-17,735	266,858	119,029
69,305	-17,593	266,606	119,036
70,320	-17,677	266,245	118,787
71,334	-17,683	266,121	118,716
72,349	-17,790	265,879	118,500
73,363	-17,578	265,758	118,628
74,378	-17,701	265,430	118,360
75,393	-17,839	265,269	118,153
76,407	-17,732	264,990	118,115
77,422	-17,535	264,736	118,169
78,436	-17,751	264,478	117,848
79,451	-17,763	264,358	117,773
80,466	-17,725	264,030	117,651
81,480	-17,624	263,855	117,654
82,495	-17,585	263,530	117,533
83,509	-17,483	263,468	117,587
84,524	-17,720	263,344	117,308
85,539	-17,787	263,094	117,126
86,553	-17,702	262,923	117,115
87,568	-17,467	262,635	117,187
88,582	-17,671	262,389	116,885
89,597	-17,717	262,160	116,731
90,611	-17,652	262,103	116,753
91,626	-17,722	261,740	116,519
92,641	-17,759	261,590	116,409
93,655	-17,525	261,365	116,506
94,670	-17,622	261,073	116,280
95,684	-17,579	260,907	116,233
96,699	-17,615	260,634	116,070
97,714	-17,659	260,694	116,046
98,728	-17,695	260,368	115,860
99,743	-17,523	260,190	115,922
100,757	-17,936	260,104	115,508
101,772	-17,613	259,725	115,615
102,787	-17,749	259,490	115,380
103,801	-17,728	259,344	115,323
104,816	-17,526	259,040	115,356
105,830	-17,613	258,931	115,221
106,845	-17,578	258,748	115,160
107,860	-17,519	258,507	115,094
108,874	-17,505	258,257	114,985
109,889	-17,479	258,018	114,891
110,903	-17,658	257,865	114,655
111,918	-17,556	257,679	114,652
112,933	-17,647	257,519	114,491
113,947	-17,590	257,317	114,440
114,962	-17,451	257,039	114,428
115,976	-17,439	256,937	114,383
116,991	-17,759	256,742	114,007
118,006	-17,611	256,453	113,997
119,020	-17,709	256,372	113,866
120,035	-17,546	256,148	113,898
121,049	-17,850	256,194	113,644
122,064	-17,652	255,842	113,649
123,079	-17,611	255,569	113,554
124,093	-17,692	255,288	113,348
125,108	-17,774	255,171	113,215
126,122	-17,531	255,110	113,389
127,137	-17,581	254,947	113,263
128,151	-17,328	254,557	113,298
129,166	-17,479	254,476	113,121
130,181	-17,449	254,273	113,048
131,195	-17,344	253,917	112,969
132,210	-17,452	253,700	112,770
133,224	-17,612	253,682	112,614
134,239	-17,531	253,392	112,545
135,254	-17,624	253,240	112,387
136,268	-17,429	252,901	112,395
137,283	-17,298	252,745	112,428
138,297	-17,447	252,613	112,231
139,312	-17,518	252,418	112,073
140,327	-17,416	252,142	112,028
141,341	-17,466	252,002	111,913
142,356	-17,521	251,801	111,767
143,370	-17,602	251,629	111,611
144,385	-17,627	251,403	111,480
145,400	-17,600	251,251	111,426
146,414	-17,396	250,931	111,447
147,429	-17,725	250,924	111,155
148,443	-17,589	250,708	111,164
149,458	-17,389	250,589	111,271
150,473	-17,542	250,415	111,055
151,487	-17,335	250,033	111,051
152,502	-17,435	249,941	110,915
153,516	-17,390	249,749	110,858
154,531	-17,343	249,532	110,792
155,546	-17,556	249,507	110,591
156,560	-17,399	249,214	110,584
157,575	-17,611	249,088	110,339
158,589	-17,478	248,688	110,264
159,604	-17,482	248,621	110,221
160,619	-17,508	248,321	110,056
161,633	-17,564	248,311	109,995
162,648	-17,619	248,202	109,890
163,662	-17,512	247,988	109,876
164,677	-17,649	247,912	109,717
165,692	-17,461	247,661	109,754
166,706	-17,438	247,433	109,663
167,721	-17,512	247,166	109,472
168,735	-17,559	247,135	109,410
169,750	-17,547	246,890	109,302
170,764	-17,466	246,771	109,307
171,779	-17,303	246,548	109,334
172,794	-17,565	246,519	109,093
173,808	-17,299	246,111	109,124
174,823	-17,543	246,167	108,936
175,837	-17,497	245,903	108,847
176,852	-17,396	245,868	108,907
177,867	-17,539	245,718	108,712
178,881	-17,419	245,489	108,701
179,896	-17,507	245,250	108,512
180,910	-17,489	244,970	108,393
181,925	-17,414	244,860	108,397
182,940	-17,357	244,737	108,379
183,954	-17,626	244,684	108,125
184,969	-17,360	244,315	108,171
185,983	-17,418	244,231	108,077
186,998	-17,555	244,209	107,944
188,013	-17,544	243,812	107,768
189,027	-17,485	243,734	107,772
190,042	-17,305	243,412	107,768
191,056	-17,303	243,217	107,674
192,071	-17,478	243,155	107,494
193,086	-17,593	243,126	107,377
194,100	-17,498	242,849	107,323
195,115	-17,400	242,658	107,309
196,129	-17,446	242,472	107,180
197,144	-17,420	242,198	107,071
198,159	-17,440	241,960	106,939
199,173	-17,534	241,861	106,809
200,188	-17,311	241,761	106,937
201,202	-17,195	241,483	106,899
202,217	-17,265	241,377	106,786
203,232	-17,486	241,277	106,552
204,246	-17,417	241,013	106,482
205,261	-17,061	241,009	106,760
206,275	-15,615	241,365	108,085
207,290	-11,534	242,860	112,083
208,304	-5,807	244,636	117,603
209,319	-2,937	245,376	120,311
210,334	-2,401	245,398	120,751
211,348	-1,692	245,450	121,349
212,363	-1,174	245,404	121,741
213,377	-0,688	245,649	122,251
214,392	-0,078	245,562	122,698
215,407	0,125	245,557	122,852
216,421	0,430	245,339	122,982
217,436	0,190	245,313	122,761
218,450	0,311	245,050	122,718
219,465	0,480	245,041	122,840
220,480	0,476	244,799	122,705
221,494	0,456	244,730	122,643
222,509	0,302	244,318	122,300
223,523	0,224	244,268	122,200
224,538	0,275	243,934	122,064
225,553	0,039	243,894	121,840
226,567	0,036	243,663	121,712
227,582	-0,011	243,614	121,638
228,596	0,020	243,381	121,536
229,611	-0,038	243,365	121,470
230,626	-0,035	243,204	121,382
231,640	-0,257	243,040	121,109
232,655	0,130	242,535	121,160
233,669	0,004	242,565	121,062
234,684	0,044	242,354	120,978
235,699	0,028	242,221	120,888
236,713	-0,179	242,151	120,675
237,728	0,053	241,912	120,733
238,742	0,074	241,797	120,681
239,757	-0,039	241,719	120,541
240,772	-0,004	241,496	120,446
241,786	-0,030	241,286	120,310
242,801	0,076	241,019	120,252
243,815	-0,045	240,893	120,081
244,830	-0,140	240,926	120,011
245,844	0,094	240,676	120,063
246,859	0,012	240,431	119,864
247,874	0,189	240,393	119,976
248,888	-0,042	240,221	119,695
249,903	0,020	239,970	119,609
250,917	0,042	239,866	119,564
251,932	0,482	239,620	119,782
252,947	0,101	239,502	119,408
253,961	-0,093	239,465	119,224
254,976	-0,021	239,300	119,188
255,990	-0,063	239,130	119,060
257,005	0,074	238,968	119,078
258,020	0,036	238,831	118,969
259,034	0,013	238,708	118,879
260,049	-0,177	238,579	118,653
261,063	0,161	238,251	118,747
262,078	-0,004	238,244	118,603
263,093	-0,204	238,076	118,350
264,107	0,099	237,897	118,489
265,122	0,032	237,733	118,345
266,136	0,192	237,580	118,385
267,151	0,091	237,472	118,241
268,166	0,164	237,172	118,138
269,180	0,078	237,083	118,016
270,195	-0,004	237,012	117,905
271,209	-0,139	236,980	117,772
272,224	0,155	236,577	117,792
273,239	0,016	236,474	117,621
274,253	0,176	236,272	117,636
275,268	-0,021	236,275	117,473
276,282	0,067	235,993	117,391
277,297	-0,086	235,927	117,227
278,312	0,028	235,770	117,228
279,326	0,114	235,631	117,216
280,341	0,018	235,482	117,056
281,355	0,121	235,315	117,043
282,370	0,089	235,165	116,934
283,384	0,111	234,929	116,823
284,399	-0,014	235,025	116,763
285,414	-0,150	234,883	116,576
286,428	0,133	234,587	116,639
287,443	0,328	234,303	116,639
288,457	0,221	234,252	116,519
289,472	0,240	234,056	116,427
290,487	0,105	234,113	116,340
291,501	0,200	233,793	116,244
292,516	0,122	233,608	116,081
293,530	0,122	233,526	116,030
294,545	0,189	233,426	116,022
295,560	0,236	233,140	115,906
296,574	-0,046	233,196	115,705
297,589	0,146	232,906	115,699
298,603	0,199	232,834	115,694
299,618	0,289	232,625	115,649
300,633	0,279	232,517	115,578
301,647	0,148	232,419	115,417
302,662	0,343	232,193	115,446
303,676	0,295	232,081	115,343
304,691	0,428	231,944	115,366
305,706	0,245	231,826	115,157
306,720	0,405	231,577	115,145
307,735	0,191	231,482	114,924
308,749	0,434	231,243	114,981
309,764	0,394	231,125	114,882
310,779	0,337	231,099	114,815
311,793	0,272	230,867	114,640
312,808	0,167	230,728	114,480
313,822	0,286	230,583	114,489
314,837	0,128	230,534	114,333
315,852	0,492	230,204	114,437
316,866	0,558	230,086	114,419
317,881	0,502	229,915	114,281
318,895	0,399	229,916	114,193
319,910	0,425	229,640	114,065
320,925	0,335	229,556	113,945
321,939	0,397	229,370	113,890
322,954	0,490	229,300	113,916
323,968	0,275	229,117	113,651
324,983	0,495	229,013	113,756
325,997	0,096	228,940	113,407
327,012	0,463	228,682	113,547
328,027	0,520	228,419	113,449
329,041	0,430	228,510	113,417
330,056	0,444	228,205	113,266
331,070	0,400	228,240	113,239
332,085	0,527	228,026	113,220
333,100	0,491	227,847	113,093
334,114	0,539	227,518	112,956
335,129	0,366	227,490	112,802
336,143	0,414	227,446	112,806
337,158	0,492	227,241	112,753
338,173	0,603	227,130	112,772
339,187	0,742	226,926	112,764
340,202	0,727	226,665	112,613
341,216	0,332	226,799	112,374
342,231	0,510	226,572	112,385
343,246	0,646	226,420	112,401
344,260	0,546	226,133	112,173
345,275	0,506	226,204	112,169
346,289	0,462	225,982	112,016
347,304	0,710	225,859	112,130
348,319	0,547	225,648	111,894
349,333	0,534	225,571	111,836
350,348	0,522	225,307	111,686
351,362	0,602	225,262	111,713
352,377	0,731	225,100	111,719
353,392	0,693	225,017	111,639
354,406	0,447	224,937	111,407
355,421	192,805	1312,384	1380,363
356,435	154,450	1444,729	1380,213
