DTS Sentinel unit serial number:	SN410029Multiplexer serial number:	ORYXHardware model number:	OX2-SRSoftware version number:	ORYX F/W v4,00 Oryx Data Collector v3.7.2.0data status	okinstallation	B5 Nyhavnadifferential loss correction	single-endedforward channel	channel 2reverse channel	N/Adate	2023/12/12time	01:22:13forward acquisition time	300,00reverse acquisition time	0,00gamma	499,1914k internal	0,3156k external	0,3156temperature offset calibration	1,0000default loss term (dB/km)	0,3820temperature slope calibration	1,0000multiplexer offset coefficient	1,0000multiplexer slope coefficient	1,0000fibre end	0,00T internal ref (°C)	15,93T ext. ref 1 (°C)	-0,43T ext. ref 2 (°C)	-0,72length (m)	temperature (°C)	Stokes	anti-Stokes-744,400	-2,828	0,165	0,085
-743,385	-129,028	-0,349	-0,036
-742,371	46,492	0,134	0,092
-741,356	-1,675	-0,277	0,143
-740,342	-25,798	0,134	-0,058
-739,327	-114,990	-0,157	0,022
-738,312	-24,672	0,133	-0,058
-737,298	-168,409	-0,259	0,007
-736,283	360,752	0,109	0,162
-735,269	-83,373	-0,240	0,056
-734,254	-200,000	-0,027	0,134
-733,239	-133,628	-0,468	-0,043
-732,225	97,680	0,078	0,066
-731,210	-200,000	0,007	-0,104
-730,196	-200,000	-0,027	-0,126
-729,181	-120,679	0,018	0,002
-728,167	31,451	-0,141	0,089
-727,152	-103,461	-0,015	0,003
-726,137	-18,721	-0,095	-0,043
-725,123	-200,000	-0,004	-0,115
-724,108	-164,778	-0,199	0,006
-723,094	559,156	0,085	-0,153
-722,079	-103,394	0,118	-0,020
-721,064	316,272	-0,047	-0,065
-720,050	-200,000	-0,046	-0,190
-719,035	-21,366	0,105	0,047
-718,021	-62,953	0,033	-0,010
-717,006	314,533	-0,070	-0,097
-715,991	7,872	-0,080	0,044
-714,977	-200,000	0,024	0,116
-713,962	609,310	-0,004	0,007
-712,948	33,131	0,023	-0,015
-711,933	185,760	-0,024	0,026
-710,918	-94,147	0,094	-0,019
-709,904	-63,952	-0,062	-0,019
-708,889	7,113	0,054	-0,029
-707,875	-200,000	-0,005	0,094
-706,860	155,943	-0,047	0,048
-705,845	-47,825	0,056	0,020
-704,831	-200,000	0,013	0,106
-703,816	-3,618	0,049	0,025
-702,802	334,909	-0,026	-0,037
-701,787	-79,211	-0,143	0,036
-700,772	-137,980	-0,054	-0,004
-699,758	800,000	0,062	0,179
-698,743	14,973	0,015	-0,008
-697,729	271,417	-0,115	0,149
-696,714	800,000	-0,002	0,006
-695,699	-200,000	0,024	-0,089
-694,685	-67,715	-0,134	-0,038
-693,670	-200,000	0,000	-0,051
-692,656	8,804	-0,067	0,037
-691,641	800,000	0,022	0,051
-690,627	274,752	0,089	0,117
-689,612	800,000	0,062	-0,157
-688,597	-16,609	0,069	0,032
-687,583	327,184	-0,063	0,089
-686,568	224,613	-0,030	0,036
-685,554	-65,016	-0,098	-0,029
-684,539	116,342	0,144	0,130
-683,524	24,795	-0,107	0,065
-682,510	-105,827	0,150	0,025
-681,495	324,882	-0,074	0,104
-680,481	-145,317	0,093	-0,006
-679,466	383,886	-0,123	-0,188
-678,451	-107,555	0,135	-0,021
-677,437	-39,471	0,039	0,015
-676,422	72,274	-0,172	-0,132
-675,408	647,032	0,018	-0,034
-674,393	129,882	0,083	0,078
-673,378	800,000	-0,020	-0,049
-672,364	611,711	0,006	0,012
-671,349	-200,000	0,039	-0,233
-670,335	-2,924	-0,165	-0,085
-669,320	103,560	-0,109	0,094
-668,305	437,835	-0,082	-0,132
-667,291	-58,056	-0,212	-0,068
-666,276	-200,000	-0,004	-0,057
-665,262	800,000	0,022	-0,068
-664,247	205,454	-0,084	-0,096
-663,232	-200,000	0,000	0,031
-662,218	-200,000	0,043	0,158
-661,203	-200,000	0,017	0,095
-660,189	-200,000	-0,009	-0,031
-659,174	185,372	-0,100	-0,110
-658,159	97,831	0,027	-0,023
-657,145	-102,081	-0,061	0,011
-656,130	89,961	-0,023	-0,019
-655,116	251,792	0,064	-0,080
-654,101	326,684	0,025	-0,035
-653,086	96,217	-0,087	0,073
-652,072	679,557	0,009	-0,018
-651,057	125,808	0,096	-0,089
-650,043	37,968	0,126	-0,082
-649,028	800,000	0,013	-0,029
-648,014	-200,000	-0,004	-0,029
-646,999	93,954	-0,078	-0,065
-645,984	-200,000	0,009	0,197
-644,970	208,046	-0,013	0,015
-643,955	424,835	-0,078	-0,124
-642,941	-200,000	-0,017	-0,091
-641,926	800,000	0,047	-0,128
-640,911	-200,000	0,027	-0,144
-639,897	800,000	-0,018	0,054
-638,882	-144,908	-0,052	-0,003
-637,868	500,068	-0,031	-0,052
-636,853	800,000	0,047	-0,100
-635,838	298,731	-0,015	0,020
-634,824	-84,917	-0,114	0,026
-633,809	174,567	-0,111	-0,118
-632,795	304,848	-0,050	-0,068
-631,780	800,000	0,029	-0,094
-630,765	-200,000	-0,009	0,072
-629,751	800,000	-0,032	-0,072
-628,736	800,000	0,028	-0,076
-627,722	-200,000	-0,012	-0,064
-626,707	404,351	0,036	0,056
-625,692	-200,000	0,001	0,010
-624,678	-43,730	-0,015	-0,006
-623,663	-88,130	-0,087	-0,019
-622,649	198,239	-0,072	0,081
-621,634	-19,806	0,095	0,043
-620,619	-200,000	0,002	0,040
-619,605	-24,415	0,048	0,021
-618,590	95,630	-0,037	0,031
-617,576	668,012	0,078	0,148
-616,561	-154,937	-0,059	0,003
-615,546	655,750	-0,007	-0,014
-614,532	178,526	-0,076	-0,082
-613,517	-200,000	0,021	-0,191
-612,503	487,707	-0,003	-0,005
-611,488	-200,000	-0,036	0,153
-610,474	-97,377	0,111	0,021
-609,459	102,897	-0,126	0,108
-608,444	24,709	-0,197	0,119
-607,430	328,796	-0,017	-0,024
-606,415	-200,000	-0,006	-0,062
-605,401	91,866	0,070	-0,058
-604,386	-54,686	-0,003	-0,001
-603,371	-200,000	0,022	0,125
-602,357	-68,437	0,051	-0,014
-601,342	-200,000	-0,009	-0,061
-600,328	114,021	-0,079	0,070
-599,313	155,177	-0,034	0,034
-598,298	-90,550	-0,055	0,012
-597,284	-59,539	0,052	0,016
-596,269	-40,610	-0,124	0,047
-595,255	27,573	-0,111	0,069
-594,240	181,910	-0,066	-0,071
-593,225	-74,416	0,095	-0,025
-592,211	379,439	-0,054	0,081
-591,196	95,440	-0,081	-0,068
-590,182	800,000	0,031	-0,071
-589,167	-38,285	0,106	0,041
-588,152	-200,000	0,004	-0,016
-587,138	323,491	-0,045	-0,063
-586,123	-122,330	-0,083	0,010
-585,109	448,452	-0,093	-0,151
-584,094	800,000	-0,060	-0,155
-583,079	-133,743	-0,103	-0,009
-582,065	-73,417	0,147	0,039
-581,050	33,225	0,029	-0,018
-580,036	163,385	0,075	-0,077
-579,021	800,000	-0,011	0,030
-578,006	-31,283	-0,143	0,059
-576,992	-200,000	-0,010	0,036
-575,977	6,151	-0,040	0,022
-574,963	-149,666	0,106	-0,006
-573,948	800,000	-0,053	0,110
-572,934	231,298	0,024	0,029
-571,919	800,000	-0,033	0,067
-570,904	-24,646	-0,108	-0,047
-569,890	800,000	0,045	-0,097
-568,875	-22,469	-0,051	-0,023
-567,861	-35,287	0,123	-0,049
-566,846	-200,000	0,024	0,168
-565,831	82,262	0,071	-0,057
-564,817	345,645	0,079	-0,115
-563,802	761,224	-0,033	-0,065
-562,788	344,186	0,024	-0,035
-561,773	102,976	-0,077	-0,066
-560,758	-12,317	0,039	-0,019
-559,744	-54,992	-0,097	-0,032
-558,729	463,248	-0,031	0,051
-557,715	-200,000	-0,002	-0,038
-556,700	-41,526	0,120	0,045
-555,685	516,341	-0,034	0,058
-554,671	-109,312	-0,070	-0,011
-553,656	-158,840	0,079	-0,003
-552,642	-4,575	-0,021	0,010
-551,627	-85,334	0,037	-0,008
-550,612	529,290	-0,044	-0,077
-549,598	419,098	-0,045	-0,071
-548,583	800,000	0,042	-0,122
-547,569	800,000	-0,031	-0,080
-546,554	-99,840	-0,201	0,036
-545,539	-10,900	0,135	0,065
-544,525	-200,000	-0,016	0,082
-543,510	50,971	0,069	-0,048
-542,496	-200,000	-0,012	-0,081
-541,481	39,029	0,138	-0,090
-540,466	617,499	-0,061	-0,112
-539,452	201,459	0,036	-0,041
-538,437	76,884	0,066	-0,051
-537,423	-200,000	-0,004	-0,045
-536,408	313,854	-0,078	-0,108
-535,393	-186,333	-0,125	0,001
-534,379	196,919	-0,090	0,100
-533,364	67,020	0,078	0,058
-532,350	-200,000	0,000	-0,025
-531,335	-11,077	-0,043	-0,021
-530,321	-75,696	0,031	0,008
-529,306	-177,576	0,080	0,001
-528,291	800,000	0,037	0,080
-527,277	127,726	-0,012	0,011
-526,262	478,325	0,036	-0,060
-525,248	-3,446	0,058	-0,029
-524,233	800,000	-0,018	-0,042
-523,218	-104,566	0,052	-0,009
-522,204	-83,554	-0,176	0,041
-521,189	-12,187	0,043	0,021
-520,175	172,367	-0,058	-0,061
-519,160	-185,054	0,021	-0,000
-518,145	800,000	-0,067	-0,137
-517,131	379,776	-0,069	0,104
-516,116	161,287	0,078	0,080
-515,102	-200,000	-0,016	-0,116
-514,087	155,758	-0,055	0,055
-513,072	14,939	-0,092	0,052
-512,058	-12,742	-0,035	0,017
-511,043	-54,165	0,035	-0,012
-510,029	-200,000	0,005	-0,110
-509,014	-127,129	0,172	0,018
-507,999	800,000	-0,068	0,169
-506,985	284,929	-0,067	0,088
-505,970	-17,929	0,085	0,039
-504,956	44,169	-0,089	0,060
-503,941	500,999	0,049	0,082
-502,926	-148,807	-0,074	0,004
-501,912	440,472	0,012	0,019
-500,897	217,403	0,085	0,099
-499,883	-200,000	0,008	0,070
-498,868	42,381	0,003	-0,002
-497,853	-200,000	-0,036	-0,146
-496,839	-10,724	0,063	0,030
-495,824	-45,715	-0,096	0,034
-494,810	-114,369	0,078	0,011
-493,795	-200,000	0,012	0,140
-492,781	308,515	-0,062	0,084
-491,766	309,783	0,026	0,036
-490,751	800,000	0,068	-0,165
-489,737	24,865	-0,086	0,052
-488,722	-200,000	-0,018	0,108
-487,708	34,914	0,056	0,036
-486,693	62,882	0,086	-0,063
-485,678	-200,000	-0,010	0,077
-484,664	445,560	-0,075	-0,121
-483,649	-55,997	0,106	0,034
-482,635	-85,416	-0,022	0,005
-481,620	-53,818	-0,065	0,022
-480,605	-116,219	0,146	-0,020
-479,591	-200,000	-0,015	0,066
-478,576	171,003	-0,007	0,008
-477,562	578,407	0,085	-0,153
-476,547	21,434	-0,102	0,060
-475,532	800,000	0,031	-0,085
-474,518	-17,884	0,098	-0,045
-473,503	-133,563	0,150	0,014
-472,489	42,536	0,052	-0,034
-471,474	154,028	-0,073	0,073
-470,459	-3,202	0,064	0,032
-469,445	180,126	-0,029	-0,031
-468,430	-200,000	-0,006	0,030
-467,416	-200,000	0,014	-0,091
-466,401	-200,000	-0,028	-0,131
-465,386	218,088	-0,031	0,036
-464,372	-56,707	-0,103	-0,033
-463,357	205,527	0,036	0,041
-462,343	-200,000	-0,011	-0,078
-461,328	-200,000	-0,018	-0,064
-460,313	-200,000	-0,009	0,047
-459,299	16,916	0,094	0,054
-458,284	69,988	0,103	0,078
-457,270	-200,000	-0,020	0,087
-456,255	406,927	-0,056	-0,086
-455,241	-200,000	-0,002	0,018
-454,226	254,530	-0,014	0,018
-453,211	-121,226	0,060	-0,007
-452,197	141,855	-0,078	0,076
-451,182	-200,000	0,016	0,076
-450,168	800,000	0,053	0,106
-449,153	800,000	-0,022	0,069
-448,138	800,000	0,033	-0,090
-447,124	173,835	0,030	0,031
-446,109	800,000	-0,061	-0,172
-445,095	-124,981	-0,064	0,007
-444,080	-19,959	-0,074	0,033
-443,065	800,000	0,034	0,072
-442,051	-32,420	-0,075	-0,030
-441,036	-200,000	0,019	-0,141
-440,022	-63,075	0,117	-0,035
-439,007	117,097	0,055	-0,049
-437,992	-200,000	0,056	0,182
-436,978	121,959	0,114	0,104
-435,963	-120,021	0,040	-0,005
-434,949	800,000	-0,047	-0,147
-433,934	59,715	-0,026	-0,019
-432,919	133,298	0,030	-0,028
-431,905	-200,000	0,005	-0,019
-430,890	-191,023	-0,038	-0,000
-429,876	800,000	-0,052	-0,126
-428,861	-72,848	-0,164	-0,044
-427,846	-4,149	0,098	0,049
-426,832	800,000	0,035	-0,108
-425,817	-3,935	-0,053	-0,027
-424,803	-54,140	0,035	-0,011
-423,788	-200,000	-0,006	0,026
-422,773	800,000	-0,021	-0,061
-421,759	35,885	0,178	-0,114
-420,744	-84,816	0,065	0,015
-419,730	-19,594	-0,089	0,040
-418,715	-200,000	-0,045	-0,187
-417,701	-107,045	0,139	0,022
-416,686	-176,125	0,061	-0,001
-415,671	105,079	0,067	-0,057
-414,657	558,964	0,071	0,125
-413,642	179,066	0,092	0,098
-412,628	-66,549	-0,124	0,036
-411,613	55,936	-0,142	-0,100
-410,598	48,932	-0,039	-0,027
-409,584	189,007	0,090	0,098
-408,569	113,588	0,114	-0,101
-407,555	154,416	-0,132	0,132
-406,540	-38,390	0,054	0,021
-405,525	800,000	0,016	0,048
-404,511	777,228	0,051	-0,102
-403,496	-146,214	-0,091	0,006
-402,482	-142,282	0,103	-0,007
-401,467	60,452	0,077	-0,056
-400,452	-200,000	-0,007	0,116
-399,438	-101,101	0,073	-0,013
-398,423	800,000	0,016	-0,043
-397,409	800,000	-0,069	-0,199
-396,394	62,067	-0,036	-0,026
-395,379	-113,540	0,107	0,015
-394,365	5,126	0,181	0,097
-393,350	27,880	-0,019	0,012
-392,336	-25,759	0,138	0,059
-391,321	80,245	0,004	0,003
-390,306	-200,000	-0,005	-0,023
-389,292	246,280	0,113	0,139
-388,277	117,634	0,071	-0,064
-387,263	220,615	-0,080	-0,094
-386,248	7,654	0,167	-0,091
-385,233	-200,000	0,026	0,128
-384,219	91,014	0,104	-0,085
-383,204	320,902	-0,035	-0,049
-382,190	-108,892	-0,118	0,018
-381,175	10,289	0,111	-0,061
-380,160	19,410	-0,029	-0,017
-379,146	349,157	-0,077	0,111
-378,131	-200,000	0,026	0,116
-377,117	-68,951	0,176	0,049
-376,102	-57,747	0,097	-0,031
-375,088	-200,000	0,009	-0,201
-374,073	14,281	-0,057	0,032
-373,058	800,000	0,016	0,034
-372,044	800,000	0,022	0,049
-371,029	-200,000	-0,036	0,142
-370,015	-116,297	0,119	0,016
-369,000	447,751	0,034	0,055
-367,985	-53,029	-0,145	0,048
-366,971	800,000	0,002	0,004
-365,956	-135,228	-0,080	0,007
-364,942	298,617	0,093	0,124
-363,927	453,500	0,073	0,117
-362,912	-44,286	0,163	0,059
-361,898	159,541	-0,064	-0,065
-360,883	-121,795	-0,073	0,009
-359,869	-82,328	0,113	0,027
-358,854	-200,000	-0,014	0,113
-357,839	-200,000	-0,008	0,031
-356,825	-200,000	-0,016	0,142
-355,810	-200,000	0,011	0,111
-354,796	466,461	0,074	-0,121
-353,781	-200,000	-0,011	-0,039
-352,766	-200,000	0,007	0,031
-351,752	800,000	-0,035	0,073
-350,737	-173,652	0,096	0,002
-349,723	223,927	-0,022	-0,026
-348,708	14,496	-0,057	-0,032
-347,693	800,000	0,006	0,015
-346,679	-200,000	-0,014	0,057
-345,664	-87,179	0,046	0,010
-344,650	-92,558	-0,120	0,024
-343,635	-147,935	0,095	0,006
-342,620	55,500	-0,072	-0,051
-341,606	-200,000	0,005	0,077
-340,591	590,154	0,007	-0,012
-339,577	-200,000	0,019	-0,075
-338,562	239,168	0,051	-0,061
-337,548	-45,824	-0,045	0,016
-336,533	-72,836	0,215	-0,057
-335,518	469,899	-0,037	-0,060
-334,504	-200,000	0,030	0,237
-333,489	-32,661	-0,075	0,030
-332,475	-34,217	0,088	0,035
-331,460	84,712	0,057	-0,045
-330,445	37,967	-0,041	-0,027
-329,431	64,851	0,130	-0,095
-328,416	800,000	-0,006	0,014
-327,402	629,850	0,059	0,109
-326,387	301,070	-0,036	0,048
-325,372	175,247	-0,033	0,035
-324,358	-92,605	-0,177	0,036
-323,343	595,838	0,082	-0,148
-322,329	-200,000	0,016	-0,130
-321,314	-200,000	-0,026	0,107
-320,299	214,569	-0,017	0,019
-319,285	-48,815	-0,011	0,004
-318,270	800,000	0,038	-0,088
-317,256	-200,000	0,014	0,095
-316,241	35,768	-0,006	0,004
-315,226	-200,000	0,026	-0,123
-314,212	-200,000	-0,009	-0,111
-313,197	38,246	0,070	-0,045
-312,183	231,892	0,079	-0,094
-311,168	800,000	-0,023	-0,065
-310,153	800,000	-0,015	0,029
-309,139	-159,960	-0,151	0,006
-308,124	631,131	-0,020	-0,037
-307,110	-200,000	-0,006	0,054
-306,095	-96,982	0,114	-0,021
-305,080	-125,706	0,059	-0,006
-304,066	113,214	-0,019	-0,017
-303,051	305,424	-0,020	0,027
-302,037	-82,913	-0,180	0,042
-301,022	800,000	-0,008	0,022
-300,008	800,000	-0,025	-0,051
-298,993	-29,963	0,021	0,009
-297,978	800,000	-0,032	0,095
-296,964	338,732	0,046	-0,065
-295,949	272,700	-0,047	0,060
-294,935	125,189	-0,132	0,120
-293,920	800,000	-0,053	0,110
-292,905	-200,000	0,048	0,174
-291,891	-200,000	-0,016	0,249
-290,876	333,627	-0,065	0,092
-289,862	113,440	0,085	0,075
-288,847	550,017	-0,046	-0,081
-287,832	385,627	0,141	-0,212
-286,818	-200,000	0,001	0,077
-285,803	169,565	-0,076	0,078
-284,789	-41,706	0,085	0,031
-283,774	-167,507	-0,096	-0,003
-282,759	114,106	-0,025	0,022
-281,745	80,229	0,046	0,036
-280,730	60,364	-0,039	-0,028
-279,716	336,048	-0,054	0,076
-278,701	-200,000	0,036	0,149
-277,686	-102,369	-0,060	0,010
-276,672	21,616	-0,110	0,065
-275,657	-150,426	0,049	0,003
-274,643	37,272	-0,044	-0,028
-273,628	537,035	-0,023	-0,040
-272,613	25,285	-0,062	-0,037
-271,599	-200,000	-0,010	0,038
-270,584	800,000	-0,059	0,141
-269,570	95,286	0,069	0,057
-268,555	-162,591	0,128	-0,004
-267,540	-26,710	-0,086	-0,036
-266,526	-200,000	-0,016	-0,093
-265,511	-200,000	0,020	-0,152
-264,497	800,000	0,034	0,071
-263,482	-24,031	0,077	-0,033
-262,467	21,327	0,051	-0,030
-261,453	800,000	-0,035	-0,085
-260,438	-45,088	0,075	0,027
-259,424	-143,317	-0,022	-0,002
-258,409	-21,586	-0,137	0,060
-257,395	-112,639	0,022	-0,003
-256,380	-200,000	0,028	0,125
-255,365	339,370	-0,015	0,021
-254,351	171,380	0,043	-0,045
-253,336	140,482	-0,075	0,072
-252,322	-200,000	-0,007	-0,076
-251,307	-33,132	0,086	-0,034
-250,292	49,409	0,131	-0,089
-249,278	-113,111	0,159	0,022
-248,263	-144,433	-0,032	-0,002
-247,249	800,000	-0,064	0,188
-246,234	2,119	-0,068	0,036
-245,219	-107,841	0,019	0,003
-244,205	66,312	-0,097	-0,071
-243,190	-200,000	0,007	-0,142
-242,176	-21,471	-0,057	0,025
-241,161	113,637	0,036	-0,031
-240,146	429,782	0,065	0,102
-239,132	-159,381	0,035	0,001
-238,117	503,903	-0,091	-0,153
-237,103	72,473	-0,029	-0,022
-236,088	-200,000	0,015	0,072
-235,073	412,649	0,046	0,071
-234,059	-200,000	0,010	0,078
-233,044	-111,528	0,015	-0,002
-232,030	70,365	-0,082	-0,061
-231,015	-200,000	-0,006	-0,048
-230,000	800,000	-0,021	-0,051
-228,986	137,966	0,003	0,003
-227,971	129,964	0,133	0,123
-226,957	-173,130	0,035	-0,001
-225,942	172,412	0,029	-0,030
-224,927	-114,007	-0,049	0,007
-223,913	290,494	-0,009	0,011
-222,898	-137,340	-0,116	-0,009
-221,884	401,705	-0,085	-0,129
-220,869	82,386	-0,120	-0,094
-219,855	11,926	0,097	-0,054
-218,840	85,093	-0,066	0,052
-217,825	-76,142	0,065	-0,016
-216,811	147,748	-0,020	0,020
-215,796	-123,717	-0,127	-0,014
-214,782	-115,952	-0,043	-0,006
-213,767	-103,293	0,015	-0,003
-212,752	-200,000	0,000	-0,015
-211,738	-129,621	-0,022	0,002
-210,723	800,000	0,008	-0,017
-209,709	-20,382	-0,081	-0,036
-208,694	18,144	-0,034	-0,019
-207,679	211,466	-0,107	-0,122
-206,665	-47,268	0,150	-0,052
-205,650	443,037	0,068	0,108
-204,636	-34,923	-0,048	0,019
-203,621	28,667	-0,028	0,017
-202,606	-200,000	-0,012	-0,055
-201,592	800,000	0,015	0,033
-200,577	-27,339	-0,052	0,022
-199,563	-24,107	-0,059	0,025
-198,548	211,868	-0,084	0,096
-197,533	-200,000	-0,011	-0,042
-196,519	-61,353	0,208	0,063
-195,504	-23,522	-0,056	0,024
-194,490	-67,768	-0,089	0,025
-193,475	800,000	0,054	-0,118
-192,460	800,000	-0,059	0,132
-191,446	757,530	0,042	0,082
-190,431	406,665	-0,076	-0,116
-189,417	-200,000	-0,000	-0,036
-188,402	-200,000	-0,023	-0,075
-187,387	-43,227	0,070	0,025
-186,373	684,116	0,044	0,083
-185,358	130,864	0,037	0,034
-184,344	62,292	0,045	-0,032
-183,329	-200,000	0,006	0,077
-182,315	-36,876	-0,058	-0,022
-181,300	-200,000	0,018	0,139
-180,285	-149,662	0,118	0,007
-179,271	145,836	-0,123	-0,119
-178,256	21,232	-0,092	-0,054
-177,242	-200,000	0,006	-0,090
-176,227	800,000	0,049	0,105
-175,212	-53,964	0,029	0,010
-174,198	64,068	0,070	0,051
-173,183	-200,000	0,000	-0,136
-172,169	-134,020	-0,119	-0,010
-171,154	800,000	-0,015	0,041
-170,139	142,463	-0,032	-0,031
-169,125	-200,000	-0,014	0,066
-168,110	-200,000	0,008	0,066
-167,096	47,578	-0,052	-0,035
-166,081	76,769	-0,031	-0,023
-165,066	-83,780	-0,187	0,043
-164,052	194,479	0,086	-0,094
-163,037	-29,154	0,094	-0,039
-162,023	-74,931	0,054	-0,014
-161,008	-88,392	0,077	0,016
-159,993	800,000	-0,030	0,077
-158,979	-68,036	-0,070	-0,020
-157,964	800,000	0,019	0,046
-156,950	800,000	0,018	-0,046
-155,935	206,994	-0,065	-0,073
-154,920	-141,900	-0,025	0,002
-153,906	-26,049	-0,060	0,025
-152,891	800,000	0,071	-0,161
-151,877	-125,154	-0,075	-0,008
-150,862	-200,000	0,012	-0,102
-149,847	113,520	0,059	-0,052
-148,833	-200,000	0,008	-0,095
-147,818	386,838	0,061	0,092
-146,804	135,584	0,131	-0,123
-145,789	800,000	-0,064	-0,140
-144,775	-200,000	-0,011	-0,080
-143,760	-200,000	0,032	-0,119
-142,745	10,378	0,009	-0,005
-141,731	-200,000	-0,013	0,106
-140,716	-200,000	0,015	-0,091
-139,702	797,733	0,048	0,095
-138,687	-200,000	0,003	-0,089
-137,672	616,614	0,045	0,081
-136,658	800,000	-0,006	-0,016
-135,643	120,710	-0,094	0,084
-134,629	-78,306	0,072	-0,018
-133,614	-33,228	0,045	-0,018
-132,599	60,972	0,085	0,061
-131,585	800,000	0,039	0,099
-130,570	-200,000	-0,001	0,089
-129,556	-200,000	0,018	-0,070
-128,541	-62,491	-0,060	0,018
-127,526	-200,000	0,005	0,133
-126,512	180,552	-0,073	0,077
-125,497	290,992	-0,024	0,031
-124,483	-112,009	-0,060	0,009
-123,468	353,611	0,024	0,034
-122,453	-200,000	0,001	-0,023
-121,439	-200,000	-0,044	-0,172
-120,424	-162,638	-0,060	0,002
-119,410	91,286	-0,046	0,037
-118,395	154,495	-0,108	0,107
-117,380	-200,000	0,015	0,115
-116,366	49,801	0,066	0,045
-115,351	-200,000	-0,004	-0,073
-114,337	64,931	-0,088	-0,064
-113,322	333,920	0,047	-0,065
-112,307	673,432	-0,075	-0,141
-111,293	-200,000	-0,000	-0,052
-110,278	-16,137	0,097	-0,044
-109,264	-200,000	-0,016	0,086
-108,249	-18,643	-0,071	0,032
-107,234	800,000	-0,022	-0,052
-106,220	-200,000	-0,013	0,055
-105,205	-11,354	0,035	-0,016
-104,191	800,000	0,040	0,093
-103,176	172,217	-0,104	0,108
-102,162	-200,000	0,006	0,057
-101,147	800,000	0,036	0,086
-100,132	216,871	-0,144	-0,165
-99,118	-200,000	-0,041	-0,190
-98,103	-138,465	0,082	-0,006
-97,089	-64,997	0,070	-0,020
-96,074	-46,134	-0,118	0,042
-95,059	159,743	-0,069	-0,069
-94,045	-200,000	0,005	0,068
-93,030	130,505	-0,117	-0,108
-92,016	-200,000	0,020	-0,082
-91,001	112,153	-0,084	0,073
-89,986	715,642	-0,040	-0,077
-88,972	800,000	0,057	0,124
-87,957	-106,420	0,040	0,006
-86,943	0,531	-0,038	-0,019
-85,928	-107,469	-0,207	-0,032
-84,913	-117,856	-0,050	0,006
-83,899	800,000	0,023	0,057
-82,884	210,776	-0,093	-0,106
-81,870	-95,945	0,056	0,011
-80,855	-200,000	0,008	0,036
-79,840	-65,906	-0,028	-0,008
-78,826	800,000	-0,035	0,095
-77,811	134,240	-0,163	-0,152
-76,797	-200,000	-0,039	-0,223
-75,782	-200,000	0,013	-0,057
-74,767	-200,000	0,019	0,059
-73,753	172,997	0,097	0,101
-72,738	-144,457	-0,197	0,013
-71,724	126,682	-0,066	0,060
-70,709	140,794	-0,036	-0,034
-69,694	43,884	-0,076	0,050
-68,680	-35,131	-0,097	0,038
-67,665	217,927	-0,048	0,055
-66,651	-27,263	-0,177	0,074
-65,636	-200,000	0,009	0,154
-64,622	467,704	0,047	-0,076
-63,607	111,982	0,045	0,039
-62,592	92,035	-0,010	-0,008
-61,578	-21,042	-0,068	0,030
-60,563	-8,619	0,177	-0,085
-59,549	-66,540	-0,203	0,058
-58,534	-21,235	-1,968	-0,860
-57,519	800,000	-0,357	-0,904
-56,505	-200,000	-1,183	-4,858
-55,490	-6,112	0,758	0,371
-54,476	800,000	5,311	12,211
-53,461	-200,000	17,353	283,710
-52,446	800,000	722,862	2228,029
-51,432	543,797	1639,115	2820,387
-50,417	112,089	1631,423	1415,351
-49,403	76,354	1286,971	977,936
-48,388	32,931	1028,849	638,374
-47,373	20,285	990,886	573,067
-46,359	18,787	979,105	561,310
-45,344	16,235	975,078	550,613
-44,330	16,431	973,602	550,401
-43,315	16,061	971,692	548,088
-42,300	15,899	970,707	546,984
-41,286	15,910	969,566	546,353
-40,271	15,944	968,767	545,994
-39,257	15,925	967,720	545,321
-38,242	15,973	966,944	545,016
-37,227	15,981	966,124	544,560
-36,213	15,958	965,246	543,969
-35,198	15,895	964,461	543,301
-34,184	15,968	963,704	543,086
-33,169	15,902	962,623	542,243
-32,154	15,997	961,580	541,943
-31,140	15,980	960,799	541,426
-30,125	16,036	959,875	541,062
-29,111	16,007	959,178	540,557
-28,096	16,023	958,613	540,268
-27,082	15,965	957,900	539,656
-26,067	15,948	957,265	539,223
-25,052	15,942	956,235	538,603
-24,038	15,963	955,735	538,366
-23,023	15,973	955,028	537,980
-22,009	16,012	954,342	537,697
-20,994	15,984	953,746	537,249
-19,979	15,947	953,201	536,802
-18,965	15,948	952,506	536,393
-17,950	15,989	951,903	536,165
-16,936	15,946	951,294	535,661
-15,921	15,917	950,771	535,253
-14,906	15,857	949,924	534,563
-13,892	15,841	949,388	534,189
-12,877	15,803	948,730	533,677
-11,863	15,813	948,028	533,292
-10,848	15,857	947,472	533,098
-9,833	15,923	947,011	533,030
-8,819	15,902	946,262	532,518
-7,804	15,865	945,721	532,075
-6,790	15,862	945,107	531,699
-5,775	15,906	944,500	531,477
-4,760	15,893	943,943	531,100
-3,746	15,842	943,302	530,558
-2,731	15,766	942,658	529,933
-1,717	15,660	942,079	529,251
-0,702	15,655	941,413	528,839
0,313	15,481	940,806	528,747
1,327	18,606	938,474	537,252
2,342	27,321	795,978	478,816
3,356	23,976	459,736	271,403
4,371	-3,043	314,179	156,768
5,386	-6,974	295,923	143,671
6,400	-8,909	289,877	138,803
7,415	-9,546	287,542	137,046
8,429	-9,473	285,936	136,340
9,444	-9,486	284,973	135,856
10,459	-9,603	284,396	135,454
11,473	-9,551	283,769	135,194
12,488	-9,431	283,271	135,061
13,502	-9,707	282,877	134,594
14,517	-9,531	282,461	134,555
15,531	-9,619	282,058	134,266
16,546	-9,275	281,464	134,302
17,561	-9,473	281,119	133,935
18,575	-9,432	280,892	133,855
19,590	-9,456	280,585	133,673
20,604	-9,319	280,151	133,586
21,619	-9,437	279,756	133,272
22,634	-9,524	279,521	133,066
23,648	-9,555	279,246	132,893
24,663	-9,641	278,908	132,639
25,677	-9,485	278,588	132,623
26,692	-9,433	278,346	132,545
27,707	-9,464	278,047	132,362
28,721	-9,530	277,874	132,205
29,736	-9,459	277,534	132,099
30,750	-9,385	277,253	132,024
31,765	-9,620	277,193	131,761
32,780	-9,525	276,868	131,684
33,794	-9,483	276,584	131,577
34,809	-9,421	276,366	131,520
35,823	-9,490	276,012	131,275
36,838	-9,681	275,898	131,029
37,853	-9,695	275,669	130,896
38,867	-9,553	275,297	130,841
39,882	-9,619	275,142	130,693
40,896	-9,645	275,063	130,620
41,911	-9,618	274,761	130,490
42,926	-9,514	274,564	130,482
43,940	-9,568	274,242	130,267
44,955	-9,730	273,852	129,919
45,969	-9,621	273,685	129,930
46,984	-9,758	273,553	129,727
47,999	-9,926	273,186	129,385
49,013	-10,118	272,918	129,068
50,028	-10,154	272,650	128,896
51,042	-10,001	272,430	128,924
52,057	-10,112	272,130	128,667
53,071	-10,198	271,962	128,496
54,086	-10,166	271,712	128,396
55,101	-10,032	271,578	128,445
56,115	-9,855	271,569	128,593
57,130	-9,647	271,312	128,653
58,144	-9,520	271,147	128,680
59,159	-9,344	270,899	128,713
60,174	-9,433	270,552	128,455
61,188	-9,547	270,389	128,262
62,203	-9,460	270,301	128,288
63,217	-9,373	269,974	128,202
64,232	-9,465	269,854	128,049
65,247	-9,357	269,448	127,944
66,261	-9,527	269,285	127,699
67,276	-9,775	269,164	127,403
68,290	-9,855	268,700	127,099
69,305	-9,819	268,519	127,035
70,320	-9,838	268,357	126,929
71,334	-9,381	268,106	127,217
72,349	-9,380	268,020	127,165
73,363	-9,371	267,904	127,107
74,378	-9,440	267,676	126,925
75,393	-9,482	267,347	126,719
76,407	-9,357	267,222	126,762
77,422	-9,429	266,969	126,566
78,436	-9,444	266,920	126,518
79,451	-9,537	266,500	126,222
80,466	-9,592	266,171	126,006
81,480	-9,600	266,022	125,917
82,495	-9,631	265,693	125,723
83,509	-9,566	265,741	125,792
84,524	-9,526	265,492	125,699
85,539	-9,617	265,206	125,470
86,553	-9,815	264,901	125,137
87,568	-9,689	264,840	125,210
88,582	-9,645	264,530	125,091
89,597	-9,844	264,439	124,859
90,611	-9,753	264,235	124,833
91,626	-9,448	264,033	125,000
92,641	-9,438	263,723	124,851
93,655	-9,485	263,630	124,754
94,670	-9,551	263,347	124,550
95,684	-9,536	263,362	124,560
96,699	-9,470	263,095	124,481
97,714	-9,542	262,801	124,267
98,728	-9,642	262,608	124,075
99,743	-9,691	262,316	123,882
100,757	-9,819	262,048	123,630
101,772	-9,529	261,866	123,792
102,787	-9,754	261,736	123,519
103,801	-9,500	261,559	123,650
104,816	-9,575	261,566	123,576
105,830	-9,210	261,225	123,728
106,845	-9,586	261,221	123,382
107,860	-9,525	260,935	123,289
108,874	-9,636	260,680	123,060
109,889	-9,432	260,392	123,092
110,903	-9,477	260,252	122,976
111,918	-9,606	260,055	122,758
112,933	-9,500	259,718	122,682
113,947	-9,522	259,656	122,622
114,962	-9,549	259,561	122,543
115,976	-9,515	259,337	122,456
116,991	-9,498	259,222	122,406
118,006	-9,494	258,944	122,266
119,020	-9,503	258,781	122,171
120,035	-9,628	258,756	122,038
121,049	-9,269	258,337	122,144
122,064	-9,356	258,349	122,064
123,079	-9,372	258,053	121,898
124,093	-9,582	257,894	121,629
125,108	-9,657	257,595	121,411
126,122	-9,698	257,340	121,245
127,137	-9,791	257,152	121,064
128,151	-9,768	257,028	121,015
129,166	-9,723	256,831	120,951
130,181	-9,608	256,634	120,947
131,195	-9,818	256,451	120,668
132,210	-9,763	256,299	120,633
133,224	-9,416	256,138	120,848
134,239	-9,435	255,900	120,708
135,254	-9,379	255,762	120,680
136,268	-9,519	255,570	120,458
137,283	-9,763	255,280	120,100
138,297	-9,876	254,990	119,855
139,312	-9,977	254,816	119,676
140,327	-9,687	254,771	119,894
141,341	-9,346	254,588	120,091
142,356	-9,626	254,607	119,848
143,370	-9,529	254,359	119,804
144,385	-9,294	254,055	119,852
145,400	-9,359	253,904	119,715
146,414	-9,308	253,690	119,646
147,429	-9,287	253,511	119,569
148,443	-9,294	253,359	119,481
149,458	-9,338	253,306	119,407
150,473	-9,463	253,129	119,206
151,487	-9,366	252,692	119,073
152,502	-9,362	252,569	119,007
153,516	-9,396	252,465	118,919
154,531	-9,245	252,217	118,920
155,546	-9,213	252,110	118,887
156,560	-9,441	251,899	118,582
157,575	-9,355	251,543	118,477
158,589	-9,189	251,452	118,565
159,604	-9,320	251,479	118,456
160,619	-9,314	251,051	118,249
161,633	-9,334	251,013	118,204
162,648	-9,199	250,777	118,196
163,662	-9,451	250,711	117,941
164,677	-9,254	250,392	117,947
165,692	-9,298	250,311	117,861
166,706	-9,233	250,172	117,840
167,721	-9,238	249,859	117,678
168,735	-9,284	249,874	117,636
169,750	-9,244	249,524	117,494
170,764	-9,361	249,637	117,438
171,779	-9,113	249,472	117,559
172,794	-9,190	249,401	117,450
173,808	-9,274	249,195	117,272
174,823	-9,676	248,749	116,714
175,837	-9,968	248,581	116,380
176,852	-9,390	248,493	116,813
177,867	-9,162	248,476	116,986
178,881	-9,169	248,181	116,831
179,896	-9,293	248,141	116,698
180,910	-9,153	247,846	116,666
181,925	-9,163	247,511	116,490
182,940	-9,196	247,531	116,461
183,954	-9,216	247,292	116,321
184,969	-9,213	247,193	116,266
185,983	-9,182	247,006	116,194
186,998	-9,024	246,875	116,253
188,013	-9,146	246,630	116,027
189,027	-9,118	246,617	116,034
190,042	-9,259	246,267	115,741
191,056	-9,421	246,225	115,577
192,071	-9,237	245,892	115,562
193,086	-9,209	245,788	115,526
194,100	-9,264	245,602	115,384
195,115	-9,180	245,422	115,358
196,129	-9,255	245,304	115,230
197,144	-9,302	245,135	115,102
198,159	-9,273	244,857	114,985
199,173	-9,182	244,660	114,957
200,188	-9,284	244,463	114,770
201,202	-9,660	244,334	114,391
202,217	-9,797	244,050	114,135
203,232	-9,995	243,856	113,871
204,246	-9,566	243,728	114,153
205,261	-9,353	243,603	114,259
206,275	-10,421	243,308	113,236
207,290	-7,162	244,527	116,473
208,304	-0,472	246,487	122,929
209,319	2,620	247,285	125,873
210,334	2,887	247,356	126,118
211,348	3,256	247,406	126,437
212,363	3,434	247,157	126,446
213,377	3,588	247,066	126,515
214,392	3,589	246,802	126,370
215,407	3,556	246,632	126,243
216,421	3,406	246,487	126,035
217,436	3,762	246,486	126,316
218,450	3,736	246,285	126,181
219,465	3,327	246,000	125,688
220,480	3,346	245,873	125,627
221,494	3,076	245,717	125,315
222,509	3,485	245,573	125,565
223,523	3,469	245,212	125,357
224,538	2,949	244,921	124,771
225,553	2,688	245,040	124,608
226,567	3,232	244,784	124,911
227,582	3,258	244,586	124,820
228,596	3,129	244,582	124,701
229,611	2,956	244,311	124,411
230,626	2,960	244,049	124,270
231,640	3,043	243,926	124,264
232,655	3,197	243,844	124,336
233,669	2,927	243,613	123,987
234,684	2,964	243,421	123,909
235,699	3,203	243,477	124,120
236,713	3,517	243,223	124,234
237,728	3,071	242,938	123,717
238,742	2,894	242,751	123,467
239,757	2,897	242,614	123,389
240,772	3,101	242,477	123,473
241,786	3,266	242,288	123,499
242,801	3,023	242,127	123,209
243,815	2,886	242,096	123,073
244,830	2,982	242,081	123,132
245,844	3,207	241,766	123,141
246,859	3,091	241,577	122,941
247,874	2,995	241,349	122,736
248,888	2,959	241,216	122,629
249,903	3,049	241,191	122,678
250,917	3,255	241,007	122,739
251,932	3,690	241,022	123,084
252,947	3,162	240,887	122,581
253,961	2,803	240,626	122,150
254,976	3,003	240,504	122,237
255,990	3,045	240,289	122,150
257,005	3,049	240,084	122,039
258,020	2,737	239,852	121,661
259,034	2,842	239,736	121,675
260,049	3,270	239,549	121,910
261,063	2,852	239,400	121,490
262,078	2,879	239,168	121,383
263,093	3,250	239,075	121,620
264,107	3,457	238,932	121,701
265,122	3,041	238,805	121,295
266,136	3,222	238,652	121,351
267,151	3,276	238,660	121,386
268,166	2,821	238,291	120,828
269,180	2,816	238,208	120,771
270,195	3,397	238,263	121,248
271,209	3,722	238,105	121,414
272,224	3,132	237,867	120,816
273,239	2,867	237,496	120,407
274,253	3,032	237,322	120,438
275,268	3,127	237,269	120,476
276,282	3,283	237,168	120,536
277,297	3,087	236,846	120,208
278,312	2,709	236,850	119,902
279,326	3,177	236,730	120,198
280,341	3,060	236,650	120,055
281,355	3,198	236,448	120,050
282,370	3,285	236,369	120,068
283,384	3,179	236,183	119,880
284,399	2,996	235,842	119,552
285,414	2,975	235,665	119,435
286,428	2,984	235,667	119,433
287,443	3,121	235,367	119,377
288,457	3,281	235,375	119,495
289,472	3,238	235,161	119,343
290,487	3,136	235,010	119,176
291,501	2,950	234,763	118,895
292,516	2,760	234,729	118,719
293,530	2,655	234,488	118,505
294,545	3,152	234,363	118,818
295,560	2,963	234,226	118,591
296,574	2,599	234,188	118,278
297,589	2,982	233,886	118,413
298,603	3,455	233,779	118,714
299,618	3,347	233,785	118,623
300,633	3,243	233,630	118,453
301,647	3,103	233,551	118,294
302,662	3,585	233,503	118,632
303,676	3,677	233,301	118,590
304,691	3,474	233,131	118,336
305,706	3,456	233,062	118,277
306,720	3,529	232,746	118,162
307,735	3,468	232,554	118,007
308,749	3,575	232,386	117,994
309,764	3,035	232,311	117,530
310,779	2,769	232,061	117,189
311,793	2,635	231,798	116,942
312,808	2,935	231,568	117,046
313,822	2,806	231,485	116,895
314,837	2,781	231,320	116,782
315,852	2,979	231,098	116,811
316,866	3,231	231,179	117,034
317,881	3,315	231,078	117,036
318,895	3,398	231,088	117,095
319,910	3,452	230,861	117,011
320,925	3,239	230,681	116,746
321,939	3,025	230,458	116,460
322,954	3,285	230,263	116,549
323,968	3,154	230,178	116,396
324,983	3,040	229,978	116,198
325,997	2,916	229,756	115,981
327,012	3,272	229,636	116,180
328,027	3,359	229,567	116,201
329,041	3,519	229,416	116,235
330,056	3,603	229,700	116,433
331,070	3,678	229,322	116,288
332,085	3,196	228,939	115,718
333,100	3,290	228,869	115,744
334,114	3,619	228,685	115,889
335,129	3,681	228,567	115,866
336,143	3,361	228,588	115,624
337,158	3,831	228,315	115,830
338,173	3,353	228,280	115,442
339,187	3,290	228,097	115,292
340,202	3,417	227,898	115,277
341,216	3,457	227,769	115,231
342,231	3,308	227,518	114,982
343,246	3,388	227,365	114,954
344,260	3,466	227,346	114,993
345,275	3,729	227,169	115,090
346,289	3,613	227,057	114,936
347,304	3,590	226,843	114,800
348,319	3,635	226,788	114,796
349,333	3,373	226,615	114,502
350,348	3,207	226,358	114,239
351,362	3,491	226,343	114,432
352,377	3,362	226,129	114,218
353,392	3,055	226,045	113,937
354,406	3,181	225,692	113,842
355,421	195,075	1321,879	1397,901
356,435	156,336	1455,437	1397,898
