DTS Sentinel unit serial number:	SN410029Multiplexer serial number:	ORYXHardware model number:	OX2-SRSoftware version number:	ORYX F/W v4,00 Oryx Data Collector v3.7.2.0data status	okinstallation	B5 Nyhavnadifferential loss correction	single-endedforward channel	channel 2reverse channel	N/Adate	2023/12/12time	17:52:13forward acquisition time	300,00reverse acquisition time	0,00gamma	499,1914k internal	0,3157k external	0,3157temperature offset calibration	1,0000default loss term (dB/km)	0,3820temperature slope calibration	1,0000multiplexer offset coefficient	1,0000multiplexer slope coefficient	1,0000fibre end	0,00T internal ref (°C)	15,68T ext. ref 1 (°C)	-0,78T ext. ref 2 (°C)	-1,08length (m)	temperature (°C)	Stokes	anti-Stokes-744,400	-52,505	0,090	0,031
-743,385	35,993	-0,208	0,135
-742,371	-200,000	0,029	0,097
-741,356	-85,714	-0,279	-0,063
-740,342	414,168	0,087	0,137
-739,327	-67,764	-0,276	0,079
-738,312	-200,000	-0,001	-0,093
-737,298	-34,766	-0,255	-0,102
-736,283	800,000	0,014	0,035
-735,269	-142,297	-0,237	0,017
-734,254	-149,093	0,087	0,005
-733,239	-78,797	-0,511	-0,128
-732,225	-22,288	0,183	0,081
-731,210	-200,000	-0,004	0,125
-730,196	-151,024	0,017	0,001
-729,181	43,812	-0,075	0,050
-728,167	-7,827	0,107	-0,053
-727,152	-200,000	-0,021	0,077
-726,137	43,111	-0,107	-0,072
-725,123	-74,085	-0,162	-0,043
-724,108	237,454	-0,067	0,082
-723,094	-115,577	-0,217	-0,030
-722,079	-200,000	-0,029	-0,136
-721,064	113,384	-0,089	-0,080
-720,050	549,282	0,075	-0,134
-719,035	-111,228	-0,078	0,012
-718,021	342,973	-0,082	0,119
-717,006	84,670	-0,114	-0,092
-715,991	800,000	-0,050	-0,117
-714,977	282,074	0,037	0,049
-713,962	386,120	0,032	-0,049
-712,948	31,230	0,039	-0,024
-711,933	592,839	-0,069	0,126
-710,918	107,314	0,162	-0,142
-709,904	-77,183	-0,127	0,032
-708,889	239,185	-0,116	0,143
-707,875	501,137	0,050	-0,086
-706,860	-15,398	-0,040	0,019
-705,845	-103,487	-0,004	0,001
-704,831	-200,000	-0,013	0,102
-703,816	-64,000	-0,058	-0,017
-702,802	26,527	-0,053	0,032
-701,787	-89,914	0,067	-0,014
-700,772	156,833	-0,082	-0,083
-699,758	-200,000	0,004	-0,029
-698,743	-200,000	-0,005	-0,093
-697,729	800,000	0,073	0,181
-696,714	-104,271	-0,083	-0,014
-695,699	34,281	-0,149	-0,095
-694,685	-37,954	-0,032	-0,012
-693,670	-22,948	0,036	0,016
-692,656	-200,000	0,049	0,194
-691,641	79,466	-0,016	0,012
-690,627	-134,190	-0,080	0,007
-689,612	-31,267	0,129	-0,053
-688,597	-2,774	-0,127	0,065
-687,583	-24,523	-0,033	0,014
-686,568	197,565	-0,102	-0,115
-685,554	-26,822	-0,076	-0,033
-684,539	26,779	0,058	0,035
-683,524	-200,000	0,002	-0,102
-682,510	-90,108	-0,160	0,034
-681,495	-200,000	0,001	-0,027
-680,481	1,311	-0,040	-0,021
-679,466	-148,861	0,093	-0,005
-678,451	281,895	-0,039	-0,051
-677,437	800,000	-0,103	0,212
-676,422	-200,000	-0,006	0,106
-675,408	160,870	0,099	0,102
-674,393	-126,770	-0,069	-0,007
-673,378	-69,185	-0,080	-0,023
-672,364	-73,737	-0,111	-0,029
-671,349	89,787	-0,095	0,078
-670,335	-160,121	0,167	0,007
-669,320	508,567	0,003	0,006
-668,305	-129,432	0,020	-0,002
-667,291	-200,000	0,005	-0,102
-666,276	-29,411	-0,149	0,063
-665,262	-200,000	-0,011	-0,069
-664,247	800,000	-0,030	0,067
-663,232	800,000	0,003	-0,008
-662,218	-103,525	-0,034	-0,006
-661,203	-200,000	0,026	-0,157
-660,189	-41,331	-0,111	-0,042
-659,174	95,123	-0,019	0,016
-658,159	-143,595	-0,070	-0,005
-657,145	751,047	0,071	-0,142
-656,130	-200,000	-0,005	-0,028
-655,116	324,588	-0,073	-0,103
-654,101	800,000	-0,017	0,051
-653,086	-136,401	-0,075	0,006
-652,072	130,325	0,066	0,062
-651,057	24,019	-0,069	-0,042
-650,043	46,414	-0,134	-0,091
-649,028	-200,000	0,015	-0,077
-648,014	-38,632	0,056	0,021
-646,999	119,062	-0,102	0,093
-645,984	-134,255	-0,038	0,003
-644,970	36,992	-0,106	-0,069
-643,955	135,496	-0,035	-0,034
-642,941	-166,205	-0,051	-0,002
-641,926	-200,000	-0,014	-0,113
-640,911	234,769	-0,031	-0,038
-639,897	-136,368	0,122	0,010
-638,882	61,871	-0,035	-0,026
-637,868	-200,000	-0,009	0,047
-636,853	-70,208	0,020	0,005
-635,838	44,671	-0,159	-0,107
-634,824	546,967	0,021	-0,038
-633,809	158,013	0,066	-0,068
-632,795	-1,063	-0,142	0,073
-631,780	800,000	-0,064	-0,151
-630,765	-200,000	0,004	-0,148
-629,751	418,873	-0,039	-0,061
-628,736	-128,121	-0,067	-0,007
-627,722	-200,000	0,003	0,038
-626,707	-200,000	0,009	0,164
-625,692	800,000	0,030	0,082
-624,678	612,717	-0,039	-0,072
-623,663	-200,000	-0,002	0,144
-622,649	-200,000	-0,021	-0,084
-621,634	-99,160	0,088	-0,016
-620,619	-200,000	-0,011	-0,044
-619,605	38,750	0,036	0,024
-618,590	800,000	-0,016	0,037
-617,576	53,877	-0,141	0,099
-616,561	198,927	0,055	-0,061
-615,546	-154,034	-0,169	-0,008
-614,532	45,820	-0,167	-0,113
-613,517	800,000	-0,022	-0,070
-612,503	358,464	-0,051	-0,075
-611,488	571,329	0,039	0,070
-610,474	-141,656	0,069	-0,005
-609,459	-144,942	0,096	-0,006
-608,444	475,732	0,054	0,090
-607,430	-66,432	0,047	-0,014
-606,415	168,049	-0,055	0,057
-605,401	343,113	0,101	0,146
-604,386	-14,582	0,106	-0,050
-603,371	509,729	0,008	-0,014
-602,357	-138,181	-0,068	0,005
-601,342	800,000	0,029	-0,064
-600,328	115,316	-0,070	-0,063
-599,313	-200,000	0,014	-0,082
-598,298	44,094	-0,085	-0,057
-597,284	-200,000	0,039	-0,130
-596,269	800,000	0,030	-0,094
-595,255	156,542	0,110	0,112
-594,240	-90,080	-0,114	-0,024
-593,225	106,474	-0,123	-0,107
-592,211	27,931	-0,034	-0,021
-591,196	-92,354	-0,063	0,013
-590,182	280,414	0,045	0,059
-589,167	162,846	0,192	0,198
-588,152	800,000	-0,005	0,011
-587,138	-200,000	0,017	-0,131
-586,123	800,000	-0,043	-0,092
-585,109	-200,000	-0,015	0,072
-584,094	57,153	-0,049	-0,035
-583,079	-200,000	0,038	-0,136
-582,065	-99,114	-0,057	0,010
-581,050	-66,986	0,092	-0,026
-580,036	68,447	-0,030	0,023
-579,021	-200,000	0,017	-0,068
-578,006	543,680	0,094	-0,164
-576,992	-71,535	0,137	0,037
-575,977	-200,000	0,019	0,154
-574,963	-138,987	-0,048	-0,004
-573,948	-200,000	-0,029	-0,161
-572,934	-147,249	-0,138	0,008
-571,919	194,234	-0,078	-0,086
-570,904	-200,000	0,029	-0,123
-569,890	436,716	-0,068	0,108
-568,875	-136,987	0,110	-0,009
-567,861	95,971	-0,039	0,033
-566,846	81,838	0,045	-0,036
-565,831	183,040	0,076	-0,083
-564,817	-115,151	-0,039	-0,005
-563,802	800,000	0,045	-0,108
-562,788	-200,000	0,015	-0,101
-561,773	253,452	-0,095	0,119
-560,758	9,832	0,145	0,080
-559,744	-200,000	-0,009	0,072
-558,729	625,716	0,038	0,070
-557,715	-87,501	-0,099	0,022
-556,700	575,887	-0,069	-0,123
-555,685	3,161	-0,069	0,037
-554,671	-112,411	-0,047	-0,007
-553,656	455,426	0,047	0,077
-552,642	-30,397	-0,061	-0,025
-551,627	-125,021	0,087	0,010
-550,612	-200,000	-0,030	0,157
-549,598	-58,271	-0,133	-0,042
-548,583	-200,000	0,026	0,094
-547,569	27,762	-0,049	0,030
-546,554	141,495	0,052	0,050
-545,539	-200,000	0,013	0,061
-544,525	-200,000	-0,000	-0,054
-543,510	8,773	-0,052	-0,029
-542,496	407,035	0,047	-0,072
-541,481	-4,518	0,068	-0,034
-540,466	18,574	-0,159	-0,093
-539,452	-30,110	0,079	-0,033
-538,437	-83,334	-0,069	-0,016
-537,423	713,710	0,022	-0,042
-536,408	736,659	-0,023	0,045
-535,393	-89,304	0,047	-0,010
-534,379	-22,786	0,026	0,011
-533,364	-200,000	-0,006	-0,109
-532,350	68,978	0,024	0,018
-531,335	-200,000	0,016	0,115
-530,321	-200,000	-0,004	0,170
-529,306	-14,088	0,062	0,029
-528,291	-200,000	-0,035	0,143
-527,277	-137,060	-0,195	0,016
-526,262	22,599	0,143	0,085
-525,248	188,051	-0,066	0,073
-524,233	411,223	0,064	0,100
-523,218	247,783	0,063	0,078
-522,204	95,972	0,032	-0,027
-521,189	-200,000	0,014	0,061
-520,175	279,877	-0,041	-0,054
-519,160	-200,000	-0,007	0,133
-518,145	354,386	0,090	0,132
-517,131	800,000	-0,035	-0,090
-516,116	-133,606	0,083	0,008
-515,102	-21,052	-0,076	0,034
-514,087	-200,000	-0,023	-0,087
-513,072	800,000	-0,048	-0,106
-512,058	-200,000	-0,025	0,096
-511,043	245,774	-0,046	-0,057
-510,029	223,386	0,075	0,088
-509,014	-137,542	0,034	0,003
-507,999	355,336	0,097	0,141
-506,985	-192,868	0,062	0,000
-505,970	-200,000	-0,032	0,131
-504,956	85,276	0,081	0,065
-503,941	245,493	-0,111	0,136
-502,926	218,366	-0,025	-0,029
-501,912	573,792	-0,035	0,063
-500,897	-200,000	-0,006	-0,084
-499,883	-91,568	-0,090	0,019
-498,868	35,875	0,137	-0,088
-497,853	-200,000	0,005	-0,204
-496,839	152,109	0,021	-0,021
-495,824	-200,000	-0,018	0,087
-494,810	-200,000	-0,001	0,024
-493,795	139,341	0,071	-0,069
-492,781	800,000	-0,033	-0,076
-491,766	125,757	0,043	-0,039
-490,751	-55,992	-0,108	0,035
-489,737	177,118	-0,035	-0,037
-488,722	18,664	-0,065	0,038
-487,708	-200,000	-0,001	-0,022
-486,693	800,000	0,042	0,125
-485,678	680,414	0,031	-0,059
-484,664	778,437	0,075	-0,150
-483,649	444,791	0,015	0,024
-482,635	800,000	0,017	-0,051
-481,620	156,858	0,061	0,062
-480,605	-74,318	-0,090	-0,024
-479,591	-22,783	-0,032	-0,014
-478,576	94,352	0,035	0,029
-477,562	-15,391	-0,121	0,056
-476,547	-129,643	-0,043	0,004
-475,532	800,000	0,025	-0,070
-474,518	-105,173	0,128	0,021
-473,503	-200,000	-0,013	0,043
-472,489	0,287	0,073	-0,038
-471,474	800,000	0,048	-0,138
-470,459	164,497	-0,046	0,047
-469,445	-200,000	0,016	-0,067
-468,430	800,000	0,039	0,080
-467,416	-64,335	0,183	-0,054
-466,401	-5,305	0,149	-0,075
-465,386	-24,440	-0,059	-0,025
-464,372	231,250	0,052	0,063
-463,357	-200,000	0,009	-0,100
-462,343	-110,565	0,021	0,003
-461,328	20,721	0,068	-0,040
-460,313	-83,054	0,085	0,020
-459,299	-200,000	0,010	0,141
-458,284	-200,000	0,037	0,247
-457,270	78,610	-0,080	0,063
-456,255	-42,379	-0,066	0,025
-455,241	-200,000	0,014	-0,122
-454,226	-84,306	0,036	0,008
-453,211	-200,000	0,005	0,145
-452,197	286,526	0,079	0,104
-451,182	-36,991	-0,059	0,023
-450,168	-37,102	0,065	-0,025
-449,153	348,125	-0,073	0,106
-448,138	-200,000	-0,026	-0,192
-447,124	211,630	0,071	-0,082
-446,109	-52,119	0,228	0,077
-445,095	5,993	0,102	-0,055
-444,080	280,977	-0,079	0,104
-443,065	202,107	-0,012	0,013
-442,051	-200,000	0,031	0,126
-441,036	-129,903	-0,042	0,004
-440,022	-64,836	0,088	-0,026
-439,007	800,000	-0,031	-0,076
-437,992	-129,796	0,138	0,014
-436,978	48,073	-0,052	0,036
-435,963	217,533	0,063	0,073
-434,949	-52,468	0,028	0,009
-433,934	-147,244	-0,119	-0,007
-432,919	204,539	-0,079	0,089
-431,905	-200,000	-0,002	0,109
-430,890	310,766	0,041	0,057
-429,876	126,382	0,101	0,093
-428,861	800,000	0,029	0,062
-427,846	310,450	0,049	-0,067
-426,832	302,986	0,050	0,067
-425,817	747,434	-0,040	0,080
-424,803	-47,476	-0,190	-0,067
-423,788	431,157	0,036	0,057
-422,773	-200,000	-0,002	0,069
-421,759	-32,305	-0,098	0,040
-420,744	-200,000	-0,009	-0,081
-419,730	-19,198	-0,081	-0,036
-418,715	-165,825	0,062	-0,002
-417,701	-200,000	-0,050	0,168
-416,686	96,992	0,020	0,017
-415,671	-200,000	-0,023	-0,085
-414,657	-200,000	0,044	0,141
-413,642	52,934	-0,102	-0,071
-412,628	224,281	0,064	-0,076
-411,613	-48,010	0,028	-0,010
-410,598	215,693	-0,012	-0,014
-409,584	-44,063	-0,074	0,027
-408,569	703,377	-0,050	-0,096
-407,555	70,977	0,113	0,085
-406,540	431,520	-0,053	0,083
-405,525	-93,205	-0,012	0,002
-404,511	78,148	-0,020	0,015
-403,496	114,177	0,089	0,079
-402,482	-200,000	0,009	0,158
-401,467	800,000	0,032	0,087
-400,452	275,951	-0,063	0,081
-399,438	-59,998	0,062	-0,019
-398,423	-200,000	-0,026	-0,127
-397,409	800,000	-0,051	0,143
-396,394	800,000	0,066	-0,140
-395,379	800,000	0,047	-0,113
-394,365	-200,000	0,018	-0,158
-393,350	-24,864	-0,060	-0,026
-392,336	800,000	0,021	-0,058
-391,321	146,598	-0,055	0,054
-390,306	-200,000	-0,005	-0,092
-389,292	155,363	0,090	-0,090
-388,277	-113,504	-0,153	-0,022
-387,263	172,390	0,040	-0,042
-386,248	-200,000	-0,004	0,053
-385,233	-200,000	0,021	-0,148
-384,219	-200,000	0,012	0,055
-383,204	38,383	-0,135	-0,088
-382,190	56,248	-0,136	-0,096
-381,175	229,995	0,073	-0,087
-380,160	-200,000	0,003	-0,014
-379,146	-72,174	-0,121	0,032
-378,131	-200,000	0,046	-0,180
-377,117	-137,071	-0,165	-0,014
-376,102	214,847	0,103	-0,119
-375,088	-200,000	0,007	-0,112
-374,073	800,000	0,037	-0,100
-373,058	-66,695	0,121	0,035
-372,044	81,671	-0,022	0,017
-371,029	-123,505	0,074	-0,008
-370,015	-200,000	-0,001	0,014
-369,000	-7,497	0,041	0,020
-367,985	-124,909	0,146	0,016
-366,971	5,569	-0,064	-0,034
-365,956	62,954	0,101	0,073
-364,942	-200,000	-0,017	0,093
-363,927	49,926	-0,096	-0,066
-362,912	225,275	0,023	-0,027
-361,898	-200,000	0,004	-0,114
-360,883	-200,000	-0,003	0,045
-359,869	21,632	-0,075	0,044
-358,854	-200,000	0,020	0,083
-357,839	715,898	0,049	0,094
-356,825	-200,000	0,010	0,086
-355,810	-200,000	0,015	0,084
-354,796	-200,000	-0,028	-0,130
-353,781	571,956	0,021	0,037
-352,766	-46,692	0,055	0,019
-351,752	495,813	-0,041	0,069
-350,737	-200,000	-0,002	-0,047
-349,723	219,785	0,026	0,030
-348,708	-200,000	0,006	-0,052
-347,693	258,389	-0,060	-0,075
-346,679	-103,543	0,016	-0,003
-345,664	488,955	0,051	0,085
-344,650	-200,000	0,019	-0,069
-343,635	-0,775	0,122	0,062
-342,620	800,000	0,028	-0,060
-341,606	302,299	-0,078	0,104
-340,591	-200,000	-0,044	0,144
-339,577	115,551	-0,100	0,089
-338,562	181,690	-0,111	-0,118
-337,548	-0,880	-0,128	-0,065
-336,533	800,000	0,018	0,038
-335,518	-200,000	0,025	-0,141
-334,504	504,125	0,039	0,065
-333,489	-130,535	-0,110	0,011
-332,475	40,867	0,099	-0,065
-331,460	800,000	-0,034	-0,077
-330,445	-40,045	-0,032	-0,012
-329,431	-200,000	0,017	0,115
-328,416	671,387	0,062	0,117
-327,402	413,561	0,017	0,027
-326,387	255,417	-0,040	-0,050
-325,372	-27,681	-0,065	0,027
-324,358	103,778	0,037	0,032
-323,343	-158,846	-0,153	-0,006
-322,329	-200,000	0,032	-0,169
-321,314	800,000	0,027	-0,058
-320,299	800,000	-0,013	-0,029
-319,285	800,000	-0,037	0,116
-318,270	32,256	-0,170	-0,106
-317,256	800,000	0,041	-0,120
-316,241	361,482	-0,080	-0,116
-315,226	-0,583	-0,068	-0,035
-314,212	-200,000	0,000	0,100
-313,197	800,000	-0,033	0,082
-312,183	101,368	-0,109	0,092
-311,168	-15,223	0,006	0,003
-310,153	-129,734	-0,107	0,011
-309,139	-94,638	-0,029	-0,006
-308,124	503,059	0,046	0,078
-307,110	-200,000	-0,005	0,064
-306,095	93,673	0,176	0,145
-305,080	701,598	0,017	0,032
-304,066	261,830	0,022	0,028
-303,051	-0,806	-0,051	-0,026
-302,037	-12,668	0,119	-0,056
-301,022	654,038	-0,069	-0,129
-300,008	14,499	0,142	0,080
-298,993	-115,576	-0,081	-0,011
-297,978	38,408	-0,132	0,085
-296,964	27,330	-0,059	0,036
-295,949	-200,000	-0,003	-0,089
-294,935	-85,536	-0,094	-0,021
-293,920	-93,117	-0,131	-0,026
-292,905	538,901	0,043	0,075
-291,891	-103,016	-0,041	-0,007
-290,876	756,930	0,028	-0,055
-289,862	-200,000	-0,005	0,118
-288,847	142,288	-0,069	0,067
-287,832	18,250	0,079	0,046
-286,818	-3,344	0,153	-0,077
-285,803	273,710	0,100	-0,128
-284,789	103,783	-0,086	0,073
-283,774	-1,208	0,125	0,064
-282,759	-161,084	0,013	0,000
-281,745	800,000	-0,064	-0,133
-280,730	800,000	0,027	-0,062
-279,716	-95,965	0,030	0,006
-278,701	-123,813	0,100	-0,011
-277,686	-200,000	0,012	0,071
-276,672	-33,539	0,179	0,071
-275,657	409,410	0,064	0,098
-274,643	-129,662	-0,094	0,009
-273,628	800,000	-0,016	-0,036
-272,613	137,102	0,044	-0,041
-271,599	-63,190	0,023	-0,007
-270,584	544,062	-0,076	0,132
-269,570	-128,611	0,092	-0,009
-268,555	-200,000	0,001	-0,031
-267,540	263,546	0,072	-0,091
-266,526	101,740	-0,144	-0,122
-265,511	189,133	-0,062	-0,068
-264,497	596,703	-0,023	0,041
-263,482	-200,000	-0,003	-0,081
-262,467	267,906	-0,061	0,077
-261,453	-200,000	0,022	0,111
-260,438	-109,023	-0,065	0,010
-259,424	800,000	0,042	-0,131
-258,409	229,571	0,054	0,064
-257,395	-200,000	0,003	0,159
-256,380	-41,973	0,171	0,063
-255,365	11,763	-0,048	0,027
-254,351	463,882	-0,058	0,094
-253,336	54,945	-0,033	-0,023
-252,322	-200,000	0,012	-0,048
-251,307	410,020	-0,081	0,124
-250,292	800,000	0,052	0,130
-249,278	110,824	0,028	-0,024
-248,263	-200,000	0,105	-0,000
-247,249	-153,988	0,113	0,005
-246,234	220,350	-0,055	0,064
-245,219	107,068	-0,100	-0,086
-244,205	-200,000	0,011	-0,049
-243,190	-82,564	0,076	0,018
-242,176	-45,731	-0,048	-0,017
-241,161	43,863	0,102	0,068
-240,146	431,014	0,043	-0,068
-239,132	483,454	-0,056	-0,093
-238,117	38,591	0,072	0,046
-237,103	60,918	-0,117	-0,084
-236,088	-200,000	-0,026	0,095
-235,073	-145,879	0,199	-0,013
-234,059	20,230	0,160	0,093
-233,044	32,391	0,100	0,062
-232,030	200,206	-0,015	-0,017
-231,015	-200,000	-0,024	0,096
-230,000	156,614	-0,132	-0,131
-228,986	800,000	0,035	0,084
-227,971	-200,000	-0,008	0,053
-226,957	66,745	0,076	-0,056
-225,942	672,659	0,072	-0,136
-224,927	-35,470	-0,036	0,014
-223,913	-85,115	-0,113	-0,025
-222,898	-200,000	0,018	0,104
-221,884	473,955	-0,060	-0,098
-220,869	-200,000	-0,008	0,105
-219,855	-200,000	-0,006	0,111
-218,840	441,570	0,077	0,121
-217,825	-200,000	-0,012	-0,060
-216,811	-45,109	-0,043	-0,015
-215,796	-137,414	0,152	0,012
-214,782	22,780	-0,109	-0,064
-213,767	-37,086	-0,014	-0,006
-212,752	304,605	0,065	-0,087
-211,738	728,850	-0,047	-0,092
-210,723	-54,338	0,075	-0,025
-209,709	-200,000	0,000	-0,026
-208,694	-200,000	0,016	-0,106
-207,679	800,000	-0,051	-0,117
-206,665	52,031	0,075	0,052
-205,650	-174,898	-0,090	0,002
-204,636	-51,384	0,077	-0,026
-203,621	-40,071	0,110	0,041
-202,606	-58,540	-0,126	0,039
-201,592	303,631	0,067	-0,089
-200,577	-200,000	-0,005	-0,087
-199,563	-200,000	-0,003	-0,128
-198,548	-200,000	-0,033	-0,165
-197,533	86,752	0,063	0,050
-196,519	-200,000	-0,050	0,166
-195,504	186,844	-0,081	0,087
-194,490	800,000	-0,074	-0,152
-193,475	165,671	0,027	-0,028
-192,460	48,000	-0,063	0,043
-191,446	800,000	0,022	0,060
-190,431	-34,352	0,058	-0,023
-189,417	-200,000	-0,001	0,008
-188,402	-200,000	-0,015	-0,091
-187,387	-200,000	-0,006	-0,034
-186,373	-71,538	-0,155	0,042
-185,358	-200,000	-0,002	0,017
-184,344	-200,000	0,001	0,129
-183,329	384,067	0,013	0,020
-182,315	110,459	0,082	0,071
-181,300	800,000	-0,043	0,089
-180,285	-200,000	0,004	0,075
-179,271	-156,180	0,047	0,002
-178,256	800,000	0,051	-0,144
-177,242	-85,498	0,015	-0,003
-176,227	-188,378	-0,094	0,001
-175,212	5,716	-0,086	-0,046
-174,198	-96,481	-0,059	-0,011
-173,183	300,601	-0,114	-0,153
-172,169	195,445	-0,060	-0,066
-171,154	575,928	0,059	-0,104
-170,139	-200,000	-0,012	-0,047
-169,125	750,955	0,043	-0,084
-168,110	204,283	0,026	0,029
-167,096	800,000	-0,040	-0,081
-166,081	-200,000	0,001	-0,012
-165,066	42,964	0,017	0,011
-164,052	800,000	-0,050	0,147
-163,037	256,704	0,033	-0,041
-162,023	800,000	0,017	-0,037
-161,008	-36,011	-0,075	0,029
-159,993	-200,000	-0,002	-0,078
-158,979	-123,177	0,089	0,010
-157,964	-200,000	-0,061	-0,198
-156,950	29,256	0,053	0,032
-155,935	800,000	0,061	0,169
-154,920	719,645	-0,043	0,084
-153,906	-90,468	0,132	-0,027
-152,891	-130,178	-0,050	0,005
-151,877	-104,379	0,085	0,014
-150,862	385,224	0,069	-0,104
-149,847	800,000	-0,039	-0,105
-148,833	161,263	-0,101	-0,102
-147,818	526,937	-0,101	-0,172
-146,804	-49,600	0,124	-0,042
-145,789	-200,000	-0,027	0,133
-144,775	-200,000	0,009	0,089
-143,760	776,617	-0,032	-0,064
-142,745	800,000	0,036	-0,088
-141,731	-200,000	-0,009	-0,080
-140,716	611,503	-0,045	0,081
-139,702	226,471	0,024	-0,028
-138,687	-50,559	0,130	-0,044
-137,672	48,410	0,050	0,034
-136,658	800,000	-0,039	-0,118
-135,643	-22,505	0,068	-0,030
-134,629	5,601	0,039	0,021
-133,614	-158,470	0,076	0,003
-132,599	-193,063	0,044	-0,000
-131,585	800,000	0,039	0,081
-130,570	101,712	-0,050	-0,042
-129,556	-104,081	0,095	0,016
-128,541	-86,367	-0,095	-0,021
-127,526	110,351	-0,063	0,054
-126,512	65,148	0,086	-0,062
-125,497	465,807	0,092	0,149
-124,483	0,499	0,126	0,065
-123,468	140,386	0,047	-0,045
-122,453	197,750	-0,056	0,062
-121,439	-26,298	-0,099	-0,042
-120,424	23,701	-0,102	0,061
-119,410	246,081	0,039	0,047
-118,395	146,479	-0,060	0,058
-117,380	-200,000	0,001	0,008
-116,366	-82,026	-0,111	0,026
-115,351	-200,000	0,001	-0,024
-114,337	510,964	-0,046	-0,077
-113,322	-31,072	-0,061	-0,025
-112,307	-8,303	0,098	-0,047
-111,293	-65,503	-0,066	0,019
-110,278	282,967	0,068	0,088
-109,264	-200,000	-0,001	0,121
-108,249	-200,000	-0,013	0,103
-107,234	511,716	-0,072	-0,121
-106,220	-200,000	0,002	-0,010
-105,205	468,787	-0,006	0,009
-104,191	-186,845	-0,072	-0,001
-103,176	-3,890	0,107	-0,053
-102,162	127,648	-0,136	0,124
-101,147	-147,385	-0,096	-0,006
-100,132	-200,000	0,009	-0,059
-99,118	800,000	0,024	0,071
-98,103	120,483	-0,157	0,140
-97,089	-3,903	0,158	-0,079
-96,074	307,103	0,113	-0,152
-95,059	-35,594	0,048	-0,019
-94,045	-88,681	-0,104	-0,022
-93,030	-149,337	-0,024	0,001
-92,016	243,140	-0,066	-0,079
-91,001	133,283	0,037	0,034
-89,986	152,547	-0,058	0,057
-88,972	568,636	-0,047	0,083
-87,957	-200,000	0,013	0,127
-86,943	-117,297	-0,148	-0,019
-85,928	-200,000	0,007	-0,063
-84,913	470,720	0,069	0,112
-83,899	226,888	0,021	0,025
-82,884	1,831	-0,061	-0,031
-81,870	800,000	0,084	0,179
-80,855	243,802	-0,010	0,012
-79,840	-152,395	-0,175	-0,009
-78,826	242,816	0,077	-0,093
-77,811	-200,000	0,011	-0,119
-76,797	101,498	0,097	-0,081
-75,782	255,224	0,046	-0,056
-74,767	-30,413	0,139	0,056
-73,753	-12,492	0,061	0,029
-72,738	122,265	-0,065	0,058
-71,724	158,340	0,023	-0,023
-70,709	-153,029	0,099	0,005
-69,694	-200,000	0,012	-0,074
-68,680	-200,000	0,021	0,140
-67,665	335,355	0,064	0,089
-66,651	205,900	0,101	0,113
-65,636	800,000	-0,066	0,157
-64,622	800,000	-0,045	0,099
-63,607	-200,000	0,004	0,046
-62,592	-42,531	-0,123	-0,045
-61,578	-200,000	-0,026	0,100
-60,563	42,926	-0,128	-0,084
-59,549	-200,000	-0,015	0,077
-58,534	-5,036	-1,882	-0,927
-57,519	-200,000	-0,268	-0,915
-56,505	-200,000	-1,214	-5,012
-55,490	18,819	0,792	0,454
-54,476	800,000	5,258	12,081
-53,461	-200,000	17,362	284,199
-52,446	800,000	724,621	2223,665
-51,432	540,308	1640,685	2814,778
-50,417	111,113	1631,890	1410,644
-49,403	75,315	1286,306	972,959
-48,388	32,448	1028,062	636,037
-47,373	20,180	989,945	571,990
-46,359	18,653	978,037	560,073
-45,344	15,979	974,156	549,076
-44,330	16,187	972,593	548,853
-43,315	15,764	970,758	546,414
-42,300	15,656	969,826	545,513
-41,286	15,731	968,636	545,067
-40,271	15,733	967,421	544,369
-39,257	15,716	966,760	543,921
-38,242	15,741	965,938	543,518
-37,227	15,665	965,222	542,844
-36,213	15,728	964,421	542,579
-35,198	15,715	963,443	541,964
-34,184	15,698	962,781	541,517
-33,169	15,686	961,679	540,835
-32,154	15,691	960,945	540,418
-31,140	15,718	959,836	539,860
-30,125	15,736	959,183	539,528
-29,111	15,744	958,268	539,020
-28,096	15,709	957,735	538,584
-27,082	15,735	956,950	538,205
-26,067	15,711	956,313	537,748
-25,052	15,749	955,365	537,317
-24,038	15,696	954,880	536,853
-23,023	15,684	954,240	536,431
-22,009	15,734	953,531	536,172
-20,994	15,728	952,934	535,796
-19,979	15,704	952,384	535,388
-18,965	15,684	951,757	534,953
-17,950	15,751	951,089	534,768
-16,936	15,673	950,522	534,180
-15,921	15,715	949,717	533,840
-14,906	15,616	949,013	533,107
-13,892	15,654	948,316	532,817
-12,877	15,559	947,975	532,301
-11,863	15,561	947,042	531,760
-10,848	15,527	946,839	531,519
-9,833	15,697	946,136	531,644
-8,819	15,719	945,463	531,315
-7,804	15,615	944,957	530,678
-6,790	15,552	944,402	530,144
-5,775	15,590	943,840	529,929
-4,760	15,647	943,011	529,624
-3,746	15,622	942,378	529,167
-2,731	15,446	941,976	528,365
-1,717	15,447	941,140	527,877
-0,702	15,479	940,426	527,558
0,313	15,301	939,748	527,411
1,327	18,476	937,412	536,059
2,342	27,320	794,776	477,935
3,356	24,106	459,097	271,137
4,371	-3,024	313,951	156,623
5,386	-7,164	295,776	143,359
6,400	-9,172	289,727	138,426
7,415	-9,765	287,247	136,644
8,429	-9,751	285,853	135,983
9,444	-9,899	284,822	135,336
10,459	-9,912	284,285	135,056
11,473	-9,913	283,580	134,709
12,488	-9,881	283,115	134,507
13,502	-9,852	282,550	134,254
14,517	-9,707	282,221	134,226
15,531	-9,953	281,878	133,814
16,546	-9,835	281,455	133,715
17,561	-9,707	280,966	133,593
18,575	-9,636	280,641	133,495
19,590	-9,763	280,205	133,155
20,604	-9,781	280,064	133,058
21,619	-9,788	279,724	132,878
22,634	-9,885	279,488	132,661
23,648	-9,694	278,953	132,578
24,663	-9,865	278,682	132,274
25,677	-9,814	278,588	132,267
26,692	-9,776	278,341	132,173
27,707	-9,696	277,974	132,063
28,721	-9,862	277,904	131,861
29,736	-9,759	277,332	131,675
30,750	-9,910	277,077	131,399
31,765	-9,778	276,850	131,405
32,780	-9,662	276,587	131,378
33,794	-9,776	276,435	131,186
34,809	-9,710	276,232	131,141
35,823	-9,813	275,867	130,859
36,838	-9,654	275,595	130,867
37,853	-9,890	275,462	130,571
38,867	-9,746	275,037	130,493
39,882	-9,937	275,066	130,316
40,896	-9,709	274,504	130,252
41,911	-9,854	274,432	130,070
42,926	-9,706	274,341	130,154
43,940	-9,997	273,835	129,631
44,955	-9,768	273,624	129,732
45,969	-9,891	273,437	129,517
46,984	-10,064	273,259	129,261
47,999	-10,316	273,071	128,925
49,013	-10,277	272,713	128,781
50,028	-10,368	272,339	128,508
51,042	-10,645	272,177	128,163
52,057	-10,696	272,068	128,053
53,071	-10,482	271,766	128,098
54,086	-10,510	271,668	128,014
55,101	-10,304	271,482	128,106
56,115	-10,149	271,342	128,172
57,130	-9,773	271,166	128,425
58,144	-9,654	270,897	128,396
59,159	-9,753	270,773	128,234
60,174	-9,598	270,444	128,210
61,188	-9,541	270,153	128,114
62,203	-9,712	270,116	127,927
63,217	-9,718	269,765	127,743
64,232	-9,544	269,638	127,832
65,247	-9,643	269,429	127,630
66,261	-9,713	269,005	127,354
67,276	-9,904	268,868	127,103
68,290	-10,010	268,685	126,908
69,305	-10,001	268,249	126,699
70,320	-9,973	268,142	126,663
71,334	-9,745	268,000	126,792
72,349	-9,791	267,828	126,658
73,363	-9,743	267,609	126,587
74,378	-9,649	267,407	126,566
75,393	-9,666	267,334	126,504
76,407	-9,687	266,920	126,278
77,422	-9,783	266,874	126,158
78,436	-9,775	266,418	125,939
79,451	-9,813	266,429	125,897
80,466	-9,856	266,058	125,672
81,480	-9,781	265,864	125,638
82,495	-10,040	265,667	125,299
83,509	-9,825	265,469	125,389
84,524	-9,760	265,061	125,243
85,539	-10,017	265,032	124,987
86,553	-9,955	264,961	124,997
87,568	-9,980	264,611	124,799
88,582	-9,737	264,341	124,879
89,597	-9,859	264,186	124,685
90,611	-9,739	264,022	124,705
91,626	-9,647	264,010	124,770
92,641	-9,858	263,838	124,488
93,655	-9,716	263,399	124,397
94,670	-9,842	263,236	124,197
95,684	-9,866	263,143	124,120
96,699	-9,851	262,906	124,010
97,714	-9,726	262,649	123,990
98,728	-10,053	262,455	123,596
99,743	-10,138	262,275	123,425
100,757	-9,942	261,868	123,396
101,772	-9,959	261,855	123,364
102,787	-9,998	261,632	123,213
103,801	-9,851	261,478	123,260
104,816	-9,791	261,333	123,234
105,830	-9,726	261,018	123,133
106,845	-9,718	260,836	123,042
107,860	-9,860	260,691	122,837
108,874	-9,742	260,433	122,809
109,889	-9,844	260,477	122,729
110,903	-10,010	260,194	122,438
111,918	-9,766	259,778	122,446
112,933	-9,611	259,675	122,524
113,947	-9,701	259,430	122,317
114,962	-9,620	259,263	122,299
115,976	-9,641	259,146	122,215
116,991	-9,748	258,987	122,035
118,006	-9,723	258,790	121,952
119,020	-9,773	258,646	121,831
120,035	-9,632	258,508	121,878
121,049	-9,752	258,316	121,672
122,064	-9,821	258,316	121,600
123,079	-9,856	257,926	121,376
124,093	-10,020	257,722	121,125
125,108	-9,817	257,425	121,152
126,122	-10,128	257,199	120,764
127,137	-10,199	256,819	120,512
128,151	-9,999	256,698	120,620
129,166	-9,891	256,662	120,685
130,181	-9,893	256,481	120,588
131,195	-9,887	256,092	120,400
132,210	-9,948	256,134	120,356
133,224	-10,047	255,988	120,190
134,239	-9,813	255,718	120,255
135,254	-9,962	255,506	120,016
136,268	-9,901	255,231	119,929
137,283	-10,109	255,049	119,653
138,297	-10,022	254,861	119,630
139,312	-10,036	254,644	119,505
140,327	-9,883	254,559	119,586
141,341	-9,676	254,462	119,708
142,356	-9,736	254,268	119,555
143,370	-9,494	254,101	119,673
144,385	-9,423	253,871	119,615
145,400	-9,613	253,757	119,388
146,414	-9,683	253,628	119,256
147,429	-9,575	253,333	119,199
148,443	-9,471	253,192	119,211
149,458	-9,543	253,003	119,050
150,473	-9,561	252,883	118,968
151,487	-9,776	252,616	118,649
152,502	-9,800	252,589	118,605
153,516	-9,667	252,308	118,575
154,531	-9,507	252,106	118,607
155,546	-9,494	251,847	118,484
156,560	-9,588	251,857	118,399
157,575	-9,551	251,507	118,256
158,589	-9,661	251,360	118,082
159,604	-9,614	251,122	118,000
160,619	-9,673	251,090	117,924
161,633	-9,447	250,821	117,979
162,648	-9,366	250,686	117,973
163,662	-9,477	250,543	117,802
164,677	-9,544	250,380	117,658
165,692	-9,591	250,180	117,513
166,706	-9,527	250,097	117,518
167,721	-9,378	249,904	117,543
168,735	-9,616	249,748	117,258
169,750	-9,377	249,470	117,318
170,764	-9,540	249,408	117,142
171,779	-9,381	249,323	117,225
172,794	-9,768	249,089	116,779
173,808	-9,695	248,897	116,740
174,823	-9,813	248,418	116,406
175,837	-9,972	248,302	116,208
176,852	-9,662	248,285	116,449
177,867	-9,624	248,162	116,413
178,881	-9,554	248,151	116,456
179,896	-9,526	247,930	116,366
180,910	-9,552	247,783	116,265
181,925	-9,522	247,590	116,189
182,940	-9,539	247,388	116,069
183,954	-9,757	247,162	115,771
184,969	-9,471	246,999	115,923
185,983	-9,548	246,885	115,795
186,998	-9,595	246,761	115,688
188,013	-9,416	246,531	115,718
189,027	-9,565	246,441	115,542
190,042	-9,383	246,142	115,542
191,056	-9,456	245,974	115,392
192,071	-9,525	245,836	115,260
193,086	-9,605	245,616	115,081
194,100	-9,449	245,295	115,049
195,115	-9,596	245,376	114,955
196,129	-9,403	245,086	114,968
197,144	-9,343	244,829	114,887
198,159	-9,569	244,685	114,623
199,173	-9,475	244,524	114,615
200,188	-9,674	244,402	114,383
201,202	-9,727	244,008	114,145
202,217	-9,993	243,788	113,814
203,232	-10,121	243,727	113,671
204,246	-9,841	243,631	113,845
205,261	-9,213	243,541	114,307
206,275	-10,219	243,163	113,297
207,290	-6,960	244,411	116,546
208,304	-0,055	246,815	123,397
209,319	3,862	247,738	127,089
210,334	4,619	247,694	127,681
211,348	4,555	247,526	127,531
212,363	4,601	247,615	127,602
213,377	4,520	247,486	127,458
214,392	4,579	247,262	127,380
215,407	4,487	247,024	127,170
216,421	4,630	246,769	127,145
217,436	4,698	246,769	127,190
218,450	4,807	246,620	127,191
219,465	4,436	246,384	126,754
220,480	4,272	246,109	126,466
221,494	4,313	246,035	126,451
222,509	4,449	245,783	126,421
223,523	4,299	245,642	126,215
224,538	3,912	245,173	125,646
225,553	4,033	245,171	125,733
226,567	4,105	245,134	125,762
227,582	4,129	245,000	125,701
228,596	4,241	244,810	125,684
229,611	3,952	244,536	125,297
230,626	3,999	244,381	125,244
231,640	3,861	244,252	125,055
232,655	4,029	244,196	125,152
233,669	3,971	243,846	124,914
234,684	3,890	243,665	124,745
235,699	4,284	243,698	125,070
236,713	4,380	243,706	125,140
237,728	4,109	243,342	124,723
238,742	3,912	243,159	124,459
239,757	3,906	242,898	124,309
240,772	3,972	242,752	124,276
241,786	4,227	242,769	124,480
242,801	3,861	242,398	123,984
243,815	4,001	242,444	124,109
244,830	4,099	242,332	124,119
245,844	4,094	242,088	123,979
246,859	3,914	241,880	123,717
247,874	3,867	241,743	123,598
248,888	3,956	241,483	123,526
249,903	4,051	241,537	123,619
250,917	4,213	241,275	123,603
251,932	4,343	241,405	123,763
252,947	4,198	241,075	123,467
253,961	3,966	240,803	123,131
254,976	4,075	240,674	123,141
255,990	4,311	240,657	123,310
257,005	3,939	240,264	122,801
258,020	4,057	240,019	122,758
259,034	4,072	240,029	122,764
260,049	4,126	239,969	122,766
261,063	3,921	239,579	122,393
262,078	3,927	239,588	122,391
263,093	4,414	239,530	122,738
264,107	4,217	239,297	122,451
265,122	4,013	239,166	122,211
266,136	4,150	238,992	122,220
267,151	4,378	238,927	122,357
268,166	4,134	238,630	122,000
269,180	3,935	238,529	121,780
270,195	4,468	238,494	122,173
271,209	4,706	238,339	122,271
272,224	4,245	237,947	121,696
273,239	3,751	237,771	121,205
274,253	3,793	237,660	121,171
275,268	3,883	237,470	121,134
276,282	4,041	237,482	121,254
277,297	3,922	237,141	120,975
278,312	4,015	237,051	120,991
279,326	3,991	237,127	121,001
280,341	4,242	236,907	121,075
281,355	4,059	236,751	120,841
282,370	4,173	236,604	120,844
283,384	4,019	236,480	120,650
284,399	4,020	236,111	120,451
285,414	3,831	235,966	120,219
286,428	3,812	235,835	120,126
287,443	3,947	235,863	120,236
288,457	4,013	235,699	120,193
289,472	4,048	235,732	120,226
290,487	4,195	235,402	120,162
291,501	3,942	235,215	119,859
292,516	3,649	234,976	119,498
293,530	3,601	234,811	119,366
294,545	4,010	234,888	119,712
295,560	4,247	234,536	119,707
296,574	3,735	234,340	119,199
297,589	3,726	234,357	119,189
298,603	4,289	234,141	119,506
299,618	4,129	234,034	119,317
300,633	4,200	233,937	119,311
301,647	4,406	233,799	119,390
302,662	4,501	233,686	119,395
303,676	4,517	233,497	119,300
304,691	4,379	233,301	119,083
305,706	4,611	233,234	119,217
306,720	4,350	233,069	118,921
307,735	4,188	232,874	118,685
308,749	3,938	232,755	118,422
309,764	4,174	232,392	118,409
310,779	3,939	232,278	118,159
311,793	3,989	232,014	118,053
312,808	3,826	231,965	117,892
313,822	3,667	231,713	117,631
314,837	3,936	231,585	117,762
315,852	3,830	231,510	117,632
316,866	3,860	231,388	117,583
317,881	4,019	231,210	117,603
318,895	4,181	231,190	117,706
319,910	4,429	231,118	117,849
320,925	4,253	230,871	117,578
321,939	3,894	230,723	117,218
322,954	4,004	230,682	117,271
323,968	3,945	230,295	117,019
324,983	3,808	230,260	116,887
325,997	4,221	230,256	117,188
327,012	4,404	230,110	117,242
328,027	4,023	229,998	116,886
329,041	4,490	229,903	117,182
330,056	4,579	229,882	117,228
331,070	4,737	229,705	117,247
332,085	4,425	229,404	116,846
333,100	4,246	229,276	116,635
334,114	4,187	229,096	116,489
335,129	4,609	228,835	116,664
336,143	4,719	228,760	116,699
337,158	4,320	228,729	116,372
338,173	4,212	228,504	116,165
339,187	4,127	228,342	116,009
340,202	4,225	228,110	115,954
341,216	4,055	228,004	115,762
342,231	3,985	227,900	115,646
343,246	4,075	227,703	115,603
344,260	4,323	227,568	115,710
345,275	4,350	227,605	115,740
346,289	4,391	227,450	115,681
347,304	4,457	227,292	115,640
348,319	4,622	227,030	115,620
349,333	4,416	226,907	115,392
350,348	4,003	226,773	115,006
351,362	4,423	226,569	115,205
352,377	3,925	226,509	114,793
353,392	3,923	226,306	114,678
354,406	4,009	226,087	114,621
355,421	195,864	1323,308	1401,464
356,435	157,008	1456,982	1401,467
