DTS Sentinel unit serial number:	SN410029Multiplexer serial number:	ORYXHardware model number:	OX2-SRSoftware version number:	ORYX F/W v4,00 Oryx Data Collector v3.7.2.0data status	okinstallation	B5 Nyhavnadifferential loss correction	single-endedforward channel	channel 2reverse channel	N/Adate	2023/12/12time	02:52:14forward acquisition time	300,00reverse acquisition time	0,00gamma	499,1914k internal	0,3156k external	0,3156temperature offset calibration	1,0000default loss term (dB/km)	0,3820temperature slope calibration	1,0000multiplexer offset coefficient	1,0000multiplexer slope coefficient	1,0000fibre end	0,00T internal ref (°C)	15,75T ext. ref 1 (°C)	-0,67T ext. ref 2 (°C)	-0,96length (m)	temperature (°C)	Stokes	anti-Stokes-744,400	179,528	0,039	-0,042
-743,385	-109,135	-0,194	-0,030
-742,371	-200,000	0,019	0,094
-741,356	-41,452	-0,220	0,083
-740,342	-200,000	-0,041	0,173
-739,327	-200,000	-0,330	0,000
-738,312	-154,097	0,097	-0,005
-737,298	-186,304	-0,325	-0,003
-736,283	17,092	0,038	-0,022
-735,269	-90,683	-0,271	-0,057
-734,254	177,875	0,085	-0,092
-733,239	-26,805	-0,485	-0,208
-732,225	328,966	0,037	-0,053
-731,210	-200,000	0,007	0,094
-730,196	399,907	-0,053	-0,083
-729,181	103,256	-0,078	0,067
-728,167	392,362	0,026	-0,041
-727,152	-76,832	-0,054	-0,014
-726,137	-200,000	-0,023	-0,075
-725,123	-200,000	-0,030	-0,163
-724,108	20,476	-0,152	-0,091
-723,094	61,678	-0,118	-0,087
-722,079	-200,000	0,012	0,048
-721,064	70,315	-0,149	0,113
-720,050	54,915	0,120	0,085
-719,035	230,629	0,062	0,075
-718,021	-53,441	0,075	-0,025
-717,006	43,802	-0,081	-0,054
-715,991	87,131	-0,080	-0,065
-714,977	17,941	-0,022	0,013
-713,962	-47,511	-0,104	-0,037
-712,948	90,088	0,017	-0,014
-711,933	-200,000	0,003	-0,022
-710,918	-69,978	0,098	0,027
-709,904	-63,979	-0,084	-0,025
-708,889	800,000	0,040	-0,099
-707,875	53,356	0,096	0,067
-706,860	10,176	-0,074	0,041
-705,845	-200,000	-0,001	0,066
-704,831	-83,510	-0,119	-0,028
-703,816	-73,832	-0,078	0,021
-702,802	-73,167	-0,105	0,028
-701,787	228,657	0,006	0,007
-700,772	-200,000	-0,007	0,086
-699,758	219,100	-0,055	0,064
-698,743	-7,952	-0,082	-0,041
-697,729	70,056	0,081	-0,061
-696,714	149,602	-0,057	-0,057
-695,699	-200,000	-0,038	-0,178
-694,685	-200,000	0,022	0,158
-693,670	800,000	0,042	-0,123
-692,656	80,481	-0,110	0,088
-691,641	800,000	0,032	0,074
-690,627	800,000	-0,030	-0,077
-689,612	-145,220	-0,058	0,004
-688,597	-11,511	0,052	-0,025
-687,583	16,713	-0,150	-0,087
-686,568	-174,001	-0,147	0,003
-685,554	-200,000	-0,037	0,124
-684,539	-102,885	0,118	0,020
-683,524	797,185	0,054	0,109
-682,510	85,905	-0,092	0,074
-681,495	-18,556	-0,111	-0,051
-680,481	149,377	-0,068	-0,068
-679,466	7,153	0,044	-0,024
-678,451	-55,729	0,061	-0,020
-677,437	290,496	0,043	-0,058
-676,422	-138,107	0,082	-0,007
-675,408	800,000	0,052	-0,128
-674,393	72,800	0,028	-0,022
-673,378	122,433	-0,049	-0,045
-672,364	-113,446	-0,023	0,003
-671,349	-23,536	-0,108	-0,047
-670,335	-161,672	0,092	-0,003
-669,320	630,575	-0,021	-0,040
-668,305	800,000	0,016	-0,043
-667,291	83,725	-0,055	-0,044
-666,276	144,005	-0,063	-0,062
-665,262	420,185	0,034	-0,053
-664,247	800,000	0,019	0,046
-663,232	-28,805	-0,053	-0,022
-662,218	-75,111	-0,090	-0,024
-661,203	-119,941	0,036	0,005
-660,189	-200,000	-0,011	-0,052
-659,174	147,965	0,049	-0,048
-658,159	17,359	-0,099	-0,057
-657,145	-111,752	-0,072	-0,011
-656,130	-125,952	-0,123	0,013
-655,116	211,210	-0,035	0,040
-654,101	-200,000	0,009	0,073
-653,086	-200,000	0,065	0,000
-652,072	554,185	0,019	0,033
-651,057	353,528	-0,094	-0,137
-650,043	138,659	-0,088	-0,085
-649,028	-200,000	0,001	-0,016
-648,014	-200,000	0,016	0,108
-646,999	-108,263	-0,058	-0,009
-645,984	192,095	-0,079	-0,087
-644,970	-200,000	-0,017	-0,081
-643,955	-200,000	0,025	-0,099
-642,941	107,623	0,048	-0,042
-641,926	-200,000	-0,002	0,084
-640,911	625,543	0,024	-0,045
-639,897	800,000	-0,017	-0,040
-638,882	-101,283	0,064	-0,011
-637,868	-95,107	-0,128	-0,025
-636,853	141,575	0,079	-0,077
-635,838	70,044	-0,023	-0,018
-634,824	800,000	-0,040	0,086
-633,809	613,456	-0,053	-0,098
-632,795	-127,632	-0,010	0,001
-631,780	706,091	0,033	-0,064
-630,765	-131,948	-0,129	-0,012
-629,751	607,568	0,040	-0,073
-628,736	800,000	-0,052	-0,123
-627,722	-53,985	-0,119	0,040
-626,707	27,555	-0,120	0,074
-625,692	800,000	-0,038	0,108
-624,678	231,662	0,087	0,105
-623,663	-200,000	0,009	0,050
-622,649	-85,554	-0,129	-0,029
-621,634	-200,000	0,002	-0,050
-620,619	-32,216	0,016	0,006
-619,605	-3,701	0,038	0,019
-618,590	-200,000	0,001	-0,012
-617,576	-200,000	0,006	0,062
-616,561	-110,189	0,062	0,009
-615,546	-200,000	0,014	0,098
-614,532	-200,000	-0,002	-0,086
-613,517	731,674	-0,028	-0,055
-612,503	637,078	-0,030	0,057
-611,488	-200,000	-0,001	0,085
-610,474	-60,461	0,134	-0,042
-609,459	-200,000	0,016	-0,061
-608,444	369,326	-0,027	0,040
-607,430	-175,149	-0,004	0,000
-606,415	-127,119	-0,045	-0,005
-605,401	-2,004	0,151	0,077
-604,386	-200,000	-0,004	0,035
-603,371	481,042	0,031	-0,051
-602,357	-200,000	0,063	0,219
-601,342	-90,079	-0,096	-0,020
-600,328	81,337	0,110	-0,087
-599,313	160,919	0,075	-0,077
-598,298	773,725	-0,034	0,068
-597,284	-45,978	-0,142	0,051
-596,269	-178,091	0,038	0,001
-595,255	-200,000	0,001	0,047
-594,240	800,000	-0,060	-0,139
-593,225	48,174	-0,126	-0,086
-592,211	-200,000	0,023	-0,075
-591,196	57,436	-0,045	-0,032
-590,182	-98,148	0,099	0,018
-589,167	706,489	0,031	0,059
-588,152	430,915	0,039	-0,062
-587,138	-200,000	0,040	-0,158
-586,123	800,000	-0,011	-0,030
-585,109	-200,000	0,001	-0,144
-584,094	-153,662	0,061	0,003
-583,079	-123,671	0,171	0,020
-582,065	-200,000	-0,005	0,049
-581,050	-38,961	0,019	-0,007
-580,036	334,977	-0,067	0,095
-579,021	42,770	-0,073	0,049
-578,006	-161,438	-0,081	-0,003
-576,992	-200,000	-0,007	-0,044
-575,977	-14,208	0,095	0,045
-574,963	800,000	0,016	-0,038
-573,948	-200,000	0,007	0,105
-572,934	658,095	-0,028	0,053
-571,919	610,718	-0,037	0,068
-570,904	-71,475	0,023	0,006
-569,890	-22,304	-0,143	0,063
-568,875	-43,495	-0,141	-0,052
-567,861	84,654	0,113	-0,091
-566,846	-200,000	-0,011	0,052
-565,831	-25,883	0,133	-0,057
-564,817	-200,000	-0,002	-0,115
-563,802	63,848	-0,148	-0,109
-562,788	-200,000	0,004	-0,104
-561,773	220,732	-0,085	0,100
-560,758	-156,580	0,240	-0,011
-559,744	800,000	0,044	0,099
-558,729	-67,015	-0,062	0,018
-557,715	115,438	-0,069	0,062
-556,700	333,760	-0,079	0,112
-555,685	344,432	-0,047	0,068
-554,671	-158,940	0,104	-0,004
-553,656	800,000	0,050	0,106
-552,642	424,366	0,029	-0,046
-551,627	-169,667	-0,125	-0,003
-550,612	83,080	0,044	-0,035
-549,598	17,717	-0,179	0,104
-548,583	-200,000	0,001	-0,017
-547,569	-200,000	0,027	-0,124
-546,554	5,393	-0,048	-0,026
-545,539	800,000	0,011	0,030
-544,525	-46,918	-0,019	-0,007
-543,510	-25,410	-0,145	0,062
-542,496	-60,291	-0,140	0,043
-541,481	-51,550	0,122	-0,041
-540,466	68,776	0,087	-0,065
-539,452	-200,000	-0,030	0,214
-538,437	23,654	0,101	0,061
-537,423	-84,967	0,010	-0,002
-536,408	-200,000	0,013	-0,118
-535,393	-200,000	0,000	-0,002
-534,379	185,609	0,044	-0,048
-533,364	114,699	0,074	0,066
-532,350	-114,420	0,126	-0,018
-531,335	-110,541	0,103	-0,015
-530,321	-200,000	-0,011	0,073
-529,306	-200,000	-0,016	-0,102
-528,291	89,622	-0,028	0,023
-527,277	800,000	0,055	-0,136
-526,262	-200,000	-0,005	-0,116
-525,248	-5,071	-0,021	0,010
-524,233	-48,939	0,160	-0,056
-523,218	-200,000	0,025	0,136
-522,204	-200,000	0,004	0,104
-521,189	251,576	-0,045	-0,056
-520,175	-118,329	-0,107	0,014
-519,160	-0,149	0,071	-0,037
-518,145	-200,000	0,022	0,133
-517,131	800,000	0,012	-0,038
-516,116	260,644	0,044	0,055
-515,102	-9,253	-0,051	-0,025
-514,087	339,292	-0,081	0,116
-513,072	128,674	0,112	0,104
-512,058	-200,000	-0,007	-0,036
-511,043	-200,000	0,007	0,076
-510,029	349,714	-0,042	0,061
-509,014	118,170	0,009	0,008
-507,999	219,009	0,071	-0,084
-506,985	202,766	0,024	-0,028
-505,970	-18,325	0,033	0,015
-504,956	390,285	-0,076	-0,116
-503,941	477,234	0,066	-0,109
-502,926	531,769	-0,076	0,132
-501,912	800,000	-0,028	-0,061
-500,897	84,485	-0,069	-0,055
-499,883	-8,759	-0,063	-0,031
-498,868	-200,000	0,011	-0,186
-497,853	-200,000	0,001	-0,099
-496,839	800,000	-0,050	0,137
-495,824	-200,000	-0,002	0,056
-494,810	97,016	-0,086	-0,072
-493,795	166,769	0,144	0,149
-492,781	82,123	0,089	-0,071
-491,766	-31,421	-0,123	-0,050
-490,751	-126,819	0,058	-0,006
-489,737	95,801	0,118	-0,099
-488,722	136,014	0,062	-0,059
-487,708	-90,954	0,162	-0,034
-486,693	175,998	0,010	-0,010
-485,678	3,124	-0,085	0,045
-484,664	-200,000	0,019	0,070
-483,649	224,015	0,034	-0,040
-482,635	-200,000	-0,007	0,039
-481,620	211,793	-0,034	0,040
-480,605	158,760	0,128	0,130
-479,591	-73,807	-0,074	-0,019
-478,576	-162,142	-0,117	-0,004
-477,562	-119,904	-0,038	0,005
-476,547	-200,000	-0,018	-0,135
-475,532	123,598	-0,069	-0,063
-474,518	-200,000	-0,012	0,058
-473,503	-28,034	0,038	0,016
-472,489	-69,445	0,065	0,018
-471,474	-81,888	-0,068	-0,016
-470,459	800,000	0,048	-0,099
-469,445	-200,000	-0,011	-0,078
-468,430	-26,647	0,113	0,048
-467,416	-41,080	-0,066	-0,025
-466,401	-200,000	0,008	0,035
-465,386	-200,000	-0,005	0,096
-464,372	11,431	-0,120	0,067
-463,357	-99,731	0,121	-0,022
-462,343	44,558	-0,139	-0,093
-461,328	-200,000	0,001	0,007
-460,313	-93,182	0,068	-0,014
-459,299	800,000	0,051	0,109
-458,284	113,364	-0,091	0,080
-457,270	800,000	-0,019	-0,041
-456,255	-133,797	0,159	-0,014
-455,241	199,205	-0,082	0,092
-454,226	557,074	0,043	-0,076
-453,211	-200,000	0,010	-0,034
-452,197	492,103	-0,017	-0,029
-451,182	221,474	-0,049	-0,057
-450,168	109,432	0,075	0,065
-449,153	113,980	0,058	-0,051
-448,138	596,950	-0,050	-0,091
-447,124	569,224	0,059	-0,106
-446,109	800,000	0,004	0,009
-445,095	-34,478	0,042	-0,017
-444,080	43,482	-0,071	0,047
-443,065	-90,339	0,048	0,010
-442,051	800,000	-0,083	0,180
-441,036	253,015	-0,046	-0,057
-440,022	-200,000	-0,013	0,073
-439,007	-200,000	0,018	-0,075
-437,992	-39,390	0,067	0,025
-436,978	-155,036	0,028	-0,001
-435,963	-54,128	0,124	-0,041
-434,949	236,110	0,072	0,087
-433,934	800,000	-0,058	-0,157
-432,919	-111,102	-0,103	-0,015
-431,905	145,985	0,081	-0,079
-430,890	39,438	-0,163	-0,106
-429,876	-179,440	0,152	0,002
-428,861	-200,000	0,012	0,049
-427,846	-200,000	0,004	0,131
-426,832	10,506	0,104	0,057
-425,817	-53,045	-0,145	-0,048
-424,803	224,161	0,052	-0,062
-423,788	267,711	0,066	-0,084
-422,773	-113,916	-0,070	0,010
-421,759	-200,000	0,028	0,170
-420,744	-200,000	0,005	0,017
-419,730	26,071	-0,067	-0,040
-418,715	-200,000	0,010	-0,207
-417,701	-126,254	-0,024	0,003
-416,686	-149,767	-0,191	-0,011
-415,671	321,274	0,107	-0,149
-414,657	-39,370	-0,112	0,042
-413,642	53,115	-0,077	0,054
-412,628	303,863	0,035	0,047
-411,613	-21,556	-0,126	0,056
-410,598	-14,691	0,059	0,028
-409,584	619,063	0,027	-0,050
-408,569	-200,000	0,015	0,120
-407,555	140,590	-0,001	-0,001
-406,540	-18,166	0,142	0,064
-405,525	-200,000	0,000	-0,063
-404,511	167,172	0,052	-0,054
-403,496	800,000	-0,004	-0,014
-402,482	-200,000	0,018	-0,065
-401,467	-100,567	0,030	-0,005
-400,452	41,233	0,084	-0,055
-399,438	-200,000	-0,014	0,110
-398,423	-1,725	0,065	-0,033
-397,409	-115,558	-0,070	-0,010
-396,394	-200,000	-0,020	-0,096
-395,379	-135,389	0,128	-0,011
-394,365	304,564	-0,024	0,033
-393,350	-58,976	0,056	0,017
-392,336	-200,000	-0,014	0,153
-391,321	655,178	0,107	0,201
-390,306	-200,000	-0,002	0,083
-389,292	268,660	0,056	-0,072
-388,277	-200,000	0,016	0,104
-387,263	101,364	-0,094	0,080
-386,248	213,361	0,120	0,138
-385,233	370,503	0,088	0,130
-384,219	146,425	0,038	0,037
-383,204	38,542	-0,074	0,048
-382,190	-153,410	0,157	-0,008
-381,175	-20,691	0,121	-0,054
-380,160	-200,000	0,006	-0,072
-379,146	153,003	-0,053	-0,053
-378,131	-200,000	0,008	0,031
-377,117	-140,396	-0,016	0,001
-376,102	315,803	-0,066	-0,091
-375,088	800,000	-0,064	-0,165
-374,073	-111,765	-0,071	0,010
-373,058	109,212	-0,039	0,034
-372,044	800,000	0,048	0,115
-371,029	64,675	0,071	0,052
-370,015	5,040	0,058	-0,031
-369,000	6,087	0,011	0,006
-367,985	-200,000	0,005	0,027
-366,971	800,000	-0,044	-0,103
-365,956	-61,948	0,074	0,022
-364,942	-31,813	0,065	-0,027
-363,927	20,202	-0,036	-0,021
-362,912	-30,856	-0,093	-0,038
-361,898	108,085	-0,072	-0,062
-360,883	109,581	0,058	0,051
-359,869	-200,000	-0,001	0,061
-358,854	800,000	-0,046	-0,106
-357,839	800,000	-0,031	-0,063
-356,825	332,543	-0,076	0,106
-355,810	152,927	-0,054	-0,054
-354,796	43,339	0,044	0,029
-353,781	-73,685	-0,168	0,044
-352,766	30,907	-0,173	0,108
-351,752	800,000	-0,026	-0,065
-350,737	325,203	-0,157	-0,218
-349,723	358,553	0,094	0,137
-348,708	-200,000	-0,016	-0,092
-347,693	-33,439	-0,064	-0,026
-346,679	307,757	0,111	-0,151
-345,664	-159,206	-0,222	-0,009
-344,650	-200,000	0,017	0,064
-343,635	23,273	0,047	-0,028
-342,620	213,048	-0,067	0,077
-341,606	800,000	-0,032	0,088
-340,591	-200,000	-0,039	0,140
-339,577	-36,178	0,110	0,043
-338,562	800,000	0,028	-0,082
-337,548	-71,190	0,148	0,040
-336,533	-200,000	-0,001	-0,009
-335,518	-48,689	0,162	0,056
-334,504	-200,000	-0,006	0,122
-333,489	-22,898	0,025	0,011
-332,475	-88,898	0,090	0,019
-331,460	195,757	-0,108	-0,119
-330,445	185,933	0,040	-0,043
-329,431	800,000	-0,019	0,049
-328,416	186,040	-0,044	0,047
-327,402	16,416	0,064	0,037
-326,387	25,910	0,020	0,012
-325,372	39,468	0,116	-0,076
-324,358	800,000	-0,021	0,052
-323,343	268,339	0,041	0,052
-322,329	800,000	-0,044	-0,123
-321,314	-200,000	-0,006	0,112
-320,299	177,484	-0,033	0,035
-319,285	-15,017	0,041	-0,019
-318,270	-200,000	-0,004	0,063
-317,256	-9,506	-0,123	-0,060
-316,241	-110,603	0,178	-0,026
-315,226	6,742	-0,146	0,078
-314,212	56,222	-0,065	-0,045
-313,197	340,500	0,046	0,065
-312,183	355,784	-0,057	-0,083
-311,168	-58,554	-0,093	-0,029
-310,153	388,033	-0,063	-0,094
-309,139	12,296	-0,038	0,021
-308,124	280,327	0,084	0,109
-307,110	152,483	-0,036	-0,035
-306,095	-200,000	0,023	0,141
-305,080	40,333	0,127	-0,083
-304,066	226,719	-0,118	0,139
-303,051	800,000	-0,062	-0,126
-302,037	137,226	0,022	0,021
-301,022	-200,000	-0,008	0,130
-300,008	-129,386	-0,112	-0,011
-298,993	-200,000	-0,006	0,047
-297,978	44,283	-0,039	0,026
-296,964	366,412	-0,093	-0,137
-295,949	800,000	0,053	0,115
-294,935	125,185	-0,023	-0,021
-293,920	800,000	0,016	0,048
-292,905	-140,643	-0,091	-0,007
-291,891	-68,568	0,032	-0,009
-290,876	149,852	-0,061	0,060
-289,862	-200,000	-0,014	0,048
-288,847	459,512	-0,054	-0,088
-287,832	-200,000	-0,005	-0,123
-286,818	-52,819	0,040	0,013
-285,803	-100,437	0,157	-0,028
-284,789	-200,000	-0,008	-0,038
-283,774	800,000	0,034	-0,086
-282,759	-200,000	0,005	-0,083
-281,745	-200,000	0,009	-0,056
-280,730	257,507	-0,093	-0,116
-279,716	334,603	-0,046	0,065
-278,701	-200,000	0,046	0,152
-277,686	-34,263	0,055	0,022
-276,672	-126,024	0,063	-0,007
-275,657	-96,445	-0,074	-0,014
-274,643	180,100	-0,066	0,070
-273,628	-20,952	-0,157	0,069
-272,613	800,000	-0,034	-0,071
-271,599	-200,000	0,016	0,094
-270,584	628,259	0,038	0,070
-269,570	-113,148	0,125	-0,018
-268,555	800,000	-0,068	0,198
-267,540	-90,426	0,146	0,030
-266,526	97,235	-0,037	-0,031
-265,511	460,525	-0,020	-0,033
-264,497	139,983	0,076	0,073
-263,482	238,974	-0,032	0,038
-262,467	-200,000	0,014	0,173
-261,453	-160,804	-0,083	-0,003
-260,438	400,477	-0,100	-0,152
-259,424	-200,000	-0,043	-0,166
-258,409	-134,407	-0,055	-0,005
-257,395	-190,596	-0,071	-0,001
-256,380	800,000	-0,007	-0,018
-255,365	71,955	0,158	-0,119
-254,351	476,390	-0,004	0,006
-253,336	-200,000	0,012	0,052
-252,322	129,603	-0,022	-0,020
-251,307	303,953	-0,035	0,047
-250,292	84,181	0,077	0,061
-249,278	-12,148	0,016	-0,008
-248,263	30,318	0,119	-0,074
-247,249	147,022	-0,071	-0,069
-246,234	800,000	-0,024	0,064
-245,219	-200,000	-0,015	-0,078
-244,205	156,754	-0,135	-0,135
-243,190	-79,991	-0,078	0,019
-242,176	-44,575	0,154	0,055
-241,161	-5,745	-0,056	-0,027
-240,146	-175,901	0,027	0,001
-239,132	-200,000	0,006	-0,187
-238,117	-200,000	0,029	0,121
-237,103	-200,000	0,010	0,078
-236,088	-200,000	-0,039	0,166
-235,073	-200,000	0,007	-0,036
-234,059	-31,962	0,111	0,045
-233,044	507,814	-0,004	-0,006
-232,030	684,806	-0,006	-0,011
-231,015	-200,000	-0,026	-0,130
-230,000	87,369	-0,054	-0,043
-228,986	-200,000	0,006	-0,050
-227,971	89,612	0,053	-0,042
-226,957	395,090	0,055	-0,083
-225,942	-200,000	-0,006	0,103
-224,927	800,000	-0,048	-0,138
-223,913	-124,896	-0,064	-0,007
-222,898	-200,000	0,024	-0,104
-221,884	214,814	-0,091	0,105
-220,869	678,561	-0,046	0,087
-219,855	800,000	0,060	0,134
-218,840	83,322	0,091	0,072
-217,825	12,217	0,063	0,035
-216,811	772,567	-0,030	0,060
-215,796	28,788	-0,066	-0,040
-214,782	800,000	-0,042	0,104
-213,767	238,719	0,041	-0,049
-212,752	221,824	-0,033	0,038
-211,738	568,925	-0,086	0,151
-210,723	-28,529	0,055	0,023
-209,709	-200,000	-0,017	0,059
-208,694	-34,835	-0,084	0,033
-207,679	160,259	-0,108	-0,109
-206,665	78,050	0,106	0,081
-205,650	-28,266	-0,129	-0,053
-204,636	-7,756	0,053	-0,026
-203,621	561,379	0,018	0,032
-202,606	-141,090	-0,123	-0,009
-201,592	48,976	0,031	0,021
-200,577	800,000	-0,050	-0,128
-199,563	71,569	0,029	-0,022
-198,548	274,491	0,105	-0,134
-197,533	188,065	0,072	0,077
-196,519	-141,317	-0,108	0,008
-195,504	800,000	-0,005	0,014
-194,490	-200,000	0,009	-0,079
-193,475	248,327	-0,038	0,046
-192,460	-200,000	0,013	-0,115
-191,446	198,879	0,122	-0,135
-190,431	173,990	0,028	0,030
-189,417	143,542	-0,065	-0,063
-188,402	199,153	0,078	-0,086
-187,387	-79,908	0,081	0,019
-186,373	-122,632	-0,140	-0,016
-185,358	-81,915	0,074	-0,017
-184,344	-200,000	-0,012	0,057
-183,329	61,336	0,004	0,003
-182,315	259,917	0,049	-0,061
-181,300	800,000	0,027	0,076
-180,285	-2,796	-0,071	-0,036
-179,271	800,000	0,012	-0,030
-178,256	106,368	-0,018	-0,016
-177,242	800,000	-0,033	0,104
-176,227	165,378	0,050	0,051
-175,212	-10,846	0,072	0,034
-174,198	-137,287	-0,265	-0,021
-173,183	-143,577	0,139	0,009
-172,169	312,609	-0,053	-0,071
-171,154	-200,000	-0,026	-0,087
-170,139	-47,244	0,229	0,080
-169,125	-89,415	-0,031	-0,007
-168,110	94,701	0,073	0,060
-167,096	800,000	0,036	-0,113
-166,081	-166,015	0,136	-0,004
-165,066	800,000	-0,035	-0,100
-164,052	-200,000	0,034	-0,112
-163,037	6,278	-0,115	-0,061
-162,023	-51,155	0,184	0,062
-161,008	795,203	-0,029	-0,058
-159,993	76,104	0,029	0,022
-158,979	800,000	-0,017	-0,053
-157,964	-200,000	0,009	0,071
-156,950	227,148	-0,060	-0,070
-155,935	95,020	-0,084	0,069
-154,920	-138,035	0,058	-0,005
-153,906	-35,799	0,053	0,020
-152,891	-200,000	-0,012	0,209
-151,877	-91,133	0,194	0,040
-150,862	107,527	0,115	-0,099
-149,847	-200,000	0,033	-0,196
-148,833	-131,034	0,037	0,004
-147,818	268,348	-0,108	0,136
-146,804	-200,000	-0,022	0,109
-145,789	-130,675	0,024	0,002
-144,775	-139,217	-0,206	-0,016
-143,760	-35,517	-0,058	-0,023
-142,745	-5,178	-0,164	0,081
-141,731	-200,000	-0,033	0,124
-140,716	-13,337	-0,108	-0,050
-139,702	92,655	0,029	-0,023
-138,687	-51,732	0,021	-0,007
-137,672	86,145	0,095	-0,075
-136,658	4,261	-0,079	0,042
-135,643	344,836	-0,059	-0,084
-134,629	-82,322	-0,099	0,023
-133,614	676,772	-0,049	-0,093
-132,599	229,512	0,072	0,084
-131,585	800,000	0,056	0,114
-130,570	800,000	0,042	-0,092
-129,556	11,542	0,087	-0,048
-128,541	-127,406	-0,074	0,008
-127,526	800,000	-0,044	-0,090
-126,512	24,130	0,127	0,075
-125,497	-200,000	0,005	0,116
-124,483	710,522	-0,024	0,045
-123,468	-74,789	-0,055	-0,014
-122,453	193,812	-0,137	-0,150
-121,439	225,951	-0,099	-0,116
-120,424	-72,391	-0,108	-0,029
-119,410	-154,579	-0,126	-0,006
-118,395	-127,958	0,058	-0,006
-117,380	-200,000	-0,009	0,049
-116,366	451,592	0,040	0,064
-115,351	136,191	0,041	0,039
-114,337	-164,571	-0,089	-0,003
-113,322	800,000	-0,035	-0,086
-112,307	-200,000	0,046	-0,203
-111,293	19,876	-0,030	0,017
-110,278	370,297	-0,044	-0,064
-109,264	555,363	-0,034	0,060
-108,249	-200,000	-0,000	0,058
-107,234	174,064	-0,106	-0,110
-106,220	544,021	-0,020	-0,035
-105,205	-200,000	-0,001	-0,022
-104,191	-200,000	0,004	0,066
-103,176	-118,095	-0,149	0,019
-102,162	-200,000	0,003	0,059
-101,147	-84,491	-0,048	0,011
-100,132	35,721	-0,184	-0,116
-99,118	-152,056	-0,130	-0,007
-98,103	-184,442	0,101	0,001
-97,089	467,406	0,073	-0,118
-96,074	-25,521	0,107	-0,045
-95,059	487,223	-0,062	-0,102
-94,045	-200,000	0,014	0,070
-93,030	-70,987	-0,072	0,019
-92,016	800,000	-0,015	-0,031
-91,001	-90,885	0,022	-0,005
-89,986	-197,396	0,116	0,001
-88,972	257,041	0,088	0,109
-87,957	406,455	0,006	-0,009
-86,943	-200,000	0,001	-0,126
-85,928	139,231	-0,146	-0,138
-84,913	-82,283	-0,040	-0,009
-83,899	-105,235	-0,063	0,010
-82,884	299,712	0,085	0,112
-81,870	-200,000	-0,012	-0,129
-80,855	159,757	-0,037	-0,037
-79,840	27,446	-0,129	-0,078
-78,826	800,000	-0,042	-0,109
-77,811	-119,593	0,106	-0,013
-76,797	601,053	0,015	0,026
-75,782	-200,000	0,017	0,126
-74,767	462,361	-0,045	-0,073
-73,753	703,410	0,044	0,084
-72,738	-177,871	-0,051	0,001
-71,724	191,402	0,091	0,099
-70,709	99,146	-0,068	0,056
-69,694	98,409	0,016	0,013
-68,680	1,081	0,072	-0,037
-67,665	167,572	-0,071	0,073
-66,651	-133,747	0,060	-0,005
-65,636	-200,000	-0,006	0,038
-64,622	-200,000	0,004	0,014
-63,607	-164,492	-0,188	0,006
-62,592	43,750	0,084	-0,055
-61,578	-200,000	0,003	-0,060
-60,563	-60,920	-0,053	-0,016
-59,549	-200,000	-0,035	0,189
-58,534	14,080	-1,848	-1,031
-57,519	800,000	-0,442	-0,965
-56,505	-200,000	-1,251	-5,030
-55,490	-65,605	0,809	0,231
-54,476	800,000	5,273	12,205
-53,461	-200,000	17,315	283,687
-52,446	800,000	724,265	2223,813
-51,432	540,743	1640,634	2816,081
-50,417	111,334	1631,679	1411,750
-49,403	75,787	1286,451	975,120
-48,388	32,595	1028,150	636,698
-47,373	20,227	990,285	572,435
-46,359	18,629	978,286	560,233
-45,344	16,107	974,227	549,625
-44,330	16,276	972,807	549,356
-43,315	15,803	971,115	546,831
-42,300	15,834	969,868	546,209
-41,286	15,763	968,896	545,408
-40,271	15,674	968,079	544,637
-39,257	15,772	967,093	544,381
-38,242	15,803	966,109	543,905
-37,227	15,771	965,365	543,362
-36,213	15,798	964,528	542,955
-35,198	15,814	963,565	542,443
-34,184	15,835	962,891	542,111
-33,169	15,708	962,046	541,203
-32,154	15,813	960,849	540,847
-31,140	15,737	960,195	540,213
-30,125	15,732	959,322	539,684
-29,111	15,772	958,520	539,339
-28,096	15,850	958,019	539,287
-27,082	15,782	957,308	538,649
-26,067	15,824	956,496	538,304
-25,052	15,792	955,651	537,706
-24,038	15,762	954,899	537,164
-23,023	15,736	954,503	536,837
-22,009	15,859	953,636	536,722
-20,994	15,796	953,236	536,272
-19,979	15,884	952,518	536,129
-18,965	15,777	951,936	535,438
-17,950	15,788	951,274	535,082
-16,936	15,715	950,572	534,430
-15,921	15,714	949,948	534,055
-14,906	15,699	949,086	533,502
-13,892	15,696	948,664	533,235
-12,877	15,647	947,917	532,636
-11,863	15,630	947,434	532,291
-10,848	15,635	946,958	532,018
-9,833	15,715	946,403	531,939
-8,819	15,735	945,753	531,617
-7,804	15,709	944,963	531,068
-6,790	15,664	944,451	530,616
-5,775	15,694	943,896	530,378
-4,760	15,685	943,209	529,943
-3,746	15,636	942,627	529,439
-2,731	15,519	941,966	528,677
-1,717	15,564	941,405	528,483
-0,702	15,534	940,739	527,994
0,313	15,330	940,053	527,760
1,327	18,431	937,484	536,047
2,342	27,119	794,993	477,612
3,356	23,703	459,105	270,569
4,371	-3,259	313,610	156,227
5,386	-7,298	295,491	143,110
6,400	-8,981	289,349	138,457
7,415	-9,666	287,124	136,706
8,429	-9,629	285,561	135,986
9,444	-9,712	284,653	135,461
10,459	-9,786	283,972	135,053
11,473	-9,890	283,494	134,713
12,488	-9,646	283,107	134,753
13,502	-9,688	282,484	134,404
14,517	-9,714	282,011	134,142
15,531	-9,714	281,617	133,942
16,546	-9,714	281,221	133,742
17,561	-9,712	280,801	133,532
18,575	-9,547	280,551	133,560
19,590	-9,634	280,041	133,222
20,604	-9,646	279,883	133,124
21,619	-9,584	279,474	132,977
22,634	-9,496	279,193	132,915
23,648	-9,749	278,897	132,521
24,663	-9,760	278,576	132,347
25,677	-9,523	278,184	132,373
26,692	-9,769	278,309	132,187
27,707	-9,598	277,838	132,114
28,721	-9,690	277,444	131,828
29,736	-9,778	277,323	131,675
30,750	-9,765	277,034	131,538
31,765	-9,943	276,729	131,213
32,780	-9,755	276,501	131,271
33,794	-9,892	276,350	131,058
34,809	-9,604	275,926	131,117
35,823	-9,770	275,674	130,829
36,838	-9,542	275,334	130,870
37,853	-9,762	275,212	130,594
38,867	-9,639	274,939	130,569
39,882	-9,703	274,637	130,353
40,896	-9,513	274,494	130,452
41,911	-9,618	274,200	130,203
42,926	-9,817	273,969	129,895
43,940	-9,870	273,827	129,766
44,955	-9,927	273,662	129,624
45,969	-9,855	273,396	129,553
46,984	-9,833	273,238	129,487
47,999	-10,033	272,819	129,091
49,013	-10,290	272,709	128,788
50,028	-10,240	272,345	128,651
51,042	-10,517	272,020	128,229
52,057	-10,265	271,675	128,288
53,071	-10,416	271,616	128,110
54,086	-10,075	271,240	128,236
55,101	-10,095	271,253	128,212
56,115	-10,071	271,202	128,199
57,130	-9,728	271,065	128,441
58,144	-9,663	270,720	128,326
59,159	-9,496	270,487	128,357
60,174	-9,444	270,213	128,264
61,188	-9,427	269,935	128,136
62,203	-9,461	269,891	128,072
63,217	-9,518	269,521	127,833
64,232	-9,445	269,436	127,848
65,247	-9,334	269,040	127,750
66,261	-9,566	268,798	127,412
67,276	-9,735	268,618	127,160
68,290	-9,788	268,282	126,942
69,305	-10,057	268,172	126,633
70,320	-9,970	268,100	126,667
71,334	-9,842	267,940	126,697
72,349	-9,545	267,758	126,870
73,363	-9,611	267,534	126,692
74,378	-9,532	267,265	126,626
75,393	-9,771	267,104	126,321
76,407	-9,537	266,841	126,397
77,422	-9,520	266,632	126,303
78,436	-9,529	266,376	126,162
79,451	-9,552	266,059	125,980
80,466	-9,704	265,991	125,799
81,480	-9,732	265,543	125,550
82,495	-9,740	265,434	125,481
83,509	-9,990	265,472	125,262
84,524	-9,757	265,022	125,248
85,539	-9,773	264,700	125,071
86,553	-9,822	264,667	125,000
87,568	-9,733	264,467	124,974
88,582	-9,721	264,234	124,864
89,597	-9,795	264,150	124,746
90,611	-9,542	263,802	124,798
91,626	-9,324	263,665	124,917
92,641	-9,438	263,488	124,720
93,655	-9,628	263,171	124,389
94,670	-9,560	263,001	124,358
95,684	-9,681	262,913	124,197
96,699	-9,691	262,645	124,051
97,714	-9,765	262,537	123,923
98,728	-9,781	262,276	123,775
99,743	-9,839	261,989	123,576
100,757	-9,823	261,618	123,404
101,772	-9,837	261,575	123,361
102,787	-9,861	261,433	123,261
103,801	-9,846	261,304	123,203
104,816	-9,724	261,109	123,209
105,830	-9,436	260,919	123,363
106,845	-9,507	260,749	123,209
107,860	-9,758	260,498	122,857
108,874	-9,780	260,545	122,848
109,889	-9,877	260,259	122,617
110,903	-9,607	259,833	122,644
111,918	-9,582	259,625	122,557
112,933	-9,730	259,600	122,403
113,947	-9,700	259,411	122,330
114,962	-9,575	259,331	122,391
115,976	-9,809	259,088	122,060
116,991	-9,692	258,836	122,032
118,006	-9,582	258,551	121,984
119,020	-9,575	258,405	121,911
120,035	-9,617	258,412	121,866
121,049	-9,542	258,201	121,821
122,064	-9,593	257,937	121,642
123,079	-9,661	257,912	121,559
124,093	-9,656	257,575	121,394
125,108	-9,714	257,237	121,174
126,122	-9,953	257,094	120,887
127,137	-9,951	256,883	120,779
128,151	-9,896	256,675	120,718
129,166	-9,812	256,586	120,739
130,181	-9,858	256,349	120,576
131,195	-9,988	256,156	120,362
132,210	-9,960	256,048	120,325
133,224	-9,700	255,925	120,481
134,239	-9,606	255,682	120,438
135,254	-9,700	255,462	120,242
136,268	-9,828	255,418	120,100
137,283	-10,010	254,929	119,702
138,297	-10,110	254,901	119,592
139,312	-10,064	254,473	119,420
140,327	-9,688	254,472	119,733
141,341	-9,488	254,318	119,822
142,356	-9,518	254,071	119,669
143,370	-9,706	254,025	119,475
144,385	-9,646	253,976	119,493
145,400	-9,514	253,610	119,423
146,414	-9,368	253,522	119,496
147,429	-9,700	253,239	119,068
148,443	-9,405	252,965	119,181
149,458	-9,357	252,994	119,225
150,473	-9,537	252,594	118,872
151,487	-9,635	252,515	118,741
152,502	-9,570	252,418	118,740
153,516	-9,430	252,136	118,716
154,531	-9,397	251,980	118,660
155,546	-9,386	251,843	118,594
156,560	-9,382	251,661	118,502
157,575	-9,662	251,487	118,171
158,589	-9,542	251,179	118,118
159,604	-9,592	251,217	118,083
160,619	-9,259	250,879	118,195
161,633	-9,318	250,772	118,085
162,648	-9,551	250,558	117,776
163,662	-9,330	250,401	117,879
164,677	-9,550	250,268	117,620
165,692	-9,463	250,069	117,589
166,706	-9,505	249,929	117,478
167,721	-9,401	249,685	117,440
168,735	-9,428	249,455	117,298
169,750	-9,332	249,305	117,299
170,764	-9,492	249,311	117,156
171,779	-9,461	249,117	117,080
172,794	-9,465	249,006	117,015
173,808	-9,751	248,745	116,642
174,823	-9,875	248,503	116,414
175,837	-9,934	248,223	116,223
176,852	-9,648	248,149	116,417
177,867	-9,455	248,138	116,563
178,881	-9,442	247,955	116,477
179,896	-9,527	247,646	116,250
180,910	-9,471	247,453	116,197
181,925	-9,263	247,251	116,265
182,940	-9,367	247,144	116,117
183,954	-9,384	247,132	116,087
184,969	-9,322	246,884	116,012
185,983	-9,214	246,613	115,964
186,998	-9,355	246,599	115,830
188,013	-9,247	246,378	115,806
189,027	-9,308	246,140	115,633
190,042	-9,406	245,980	115,466
191,056	-9,436	245,841	115,366
192,071	-9,315	245,632	115,358
193,086	-9,541	245,604	115,147
194,100	-9,638	245,440	114,980
195,115	-9,564	245,297	114,964
196,129	-9,385	244,954	114,941
197,144	-9,489	244,812	114,778
198,159	-9,650	244,674	114,570
199,173	-9,447	244,408	114,602
200,188	-9,500	244,194	114,448
201,202	-9,717	243,932	114,137
202,217	-9,603	243,560	114,047
203,232	-10,015	243,466	113,655
204,246	-9,504	243,464	114,062
205,261	-9,168	243,282	114,242
206,275	-10,408	242,891	113,035
207,290	-7,361	244,104	116,090
208,304	-0,149	246,169	123,016
209,319	2,722	247,204	125,896
210,334	3,313	247,142	126,341
211,348	3,541	246,989	126,439
212,363	3,857	247,085	126,737
213,377	3,835	246,843	126,584
214,392	3,680	246,705	126,374
215,407	3,720	246,484	126,282
216,421	3,536	246,370	126,061
217,436	3,645	246,304	126,106
218,450	3,971	246,031	126,223
219,465	3,786	245,779	125,930
220,480	3,641	245,569	125,693
221,494	3,652	245,354	125,581
222,509	3,570	245,331	125,490
223,523	3,402	245,096	125,222
224,538	3,370	244,858	125,063
225,553	3,350	244,726	124,968
226,567	3,482	244,593	124,997
227,582	3,415	244,376	124,820
228,596	3,537	244,476	124,960
229,611	3,021	244,135	124,354
230,626	2,938	243,982	124,198
231,640	3,139	243,700	124,207
232,655	3,458	243,509	124,357
233,669	3,337	243,262	124,122
234,684	3,145	243,111	123,878
235,699	3,601	243,264	124,314
236,713	3,684	242,997	124,234
237,728	3,301	242,741	123,782
238,742	3,318	242,613	123,720
239,757	2,937	242,556	123,371
240,772	3,067	242,318	123,345
241,786	3,165	242,237	123,371
242,801	3,309	241,967	123,339
243,815	3,161	241,817	123,132
244,830	3,462	241,613	123,259
245,844	3,436	241,502	123,171
246,859	3,322	241,406	123,019
247,874	3,064	241,145	122,669
248,888	3,235	241,150	122,797
249,903	3,315	240,855	122,701
250,917	3,477	240,779	122,781
251,932	3,593	240,679	122,811
252,947	3,267	240,491	122,443
253,961	3,228	240,132	122,219
254,976	3,241	240,220	122,263
255,990	3,472	239,892	122,270
257,005	3,267	239,763	122,029
258,020	3,106	239,599	121,807
259,034	3,347	239,280	121,825
260,049	3,380	239,294	121,848
261,063	3,135	239,056	121,521
262,078	3,075	238,881	121,374
263,093	3,236	238,935	121,518
264,107	3,364	238,848	121,565
265,122	3,325	238,536	121,364
266,136	3,241	238,373	121,204
267,151	3,568	238,262	121,396
268,166	3,309	238,031	121,062
269,180	3,154	237,919	120,872
270,195	3,834	237,995	121,437
271,209	3,897	237,775	121,364
272,224	3,351	237,540	120,802
273,239	2,936	237,161	120,272
274,253	3,151	237,173	120,437
275,268	3,351	236,981	120,487
276,282	3,364	236,936	120,463
277,297	3,262	236,739	120,271
278,312	3,293	236,554	120,191
279,326	3,539	236,492	120,342
280,341	3,278	236,341	120,050
281,355	3,416	236,085	120,017
282,370	3,496	236,220	120,138
283,384	3,494	235,940	119,983
284,399	3,151	235,779	119,623
285,414	2,902	235,428	119,239
286,428	3,156	235,574	119,500
287,443	3,076	235,379	119,329
288,457	3,642	235,110	119,623
289,472	3,345	235,176	119,414
290,487	3,302	234,828	119,194
291,501	3,271	234,626	119,056
292,516	2,871	234,504	118,673
293,530	2,978	234,191	118,587
294,545	3,288	234,205	118,825
295,560	3,374	234,156	118,855
296,574	3,198	233,720	118,487
297,589	3,148	233,795	118,476
298,603	3,524	233,739	118,728
299,618	3,332	233,511	118,453
300,633	3,431	233,346	118,436
301,647	3,598	233,274	118,517
302,662	3,857	233,308	118,724
303,676	3,925	232,952	118,585
304,691	3,713	232,936	118,403
305,706	3,715	232,737	118,293
306,720	3,773	232,466	118,189
307,735	3,629	232,390	118,029
308,749	3,303	232,093	117,617
309,764	3,182	231,912	117,422
310,779	3,299	231,741	117,415
311,793	2,894	231,555	116,999
312,808	2,981	231,368	116,961
313,822	3,317	231,196	117,121
314,837	3,012	231,221	116,890
315,852	3,202	230,962	116,894
316,866	3,524	230,965	117,130
317,881	3,506	230,854	117,050
318,895	3,629	230,769	117,091
319,910	3,634	230,664	117,030
320,925	3,425	230,384	116,719
321,939	3,169	230,202	116,421
322,954	3,405	230,174	116,576
323,968	3,316	229,967	116,394
324,983	3,128	229,838	116,175
325,997	3,196	229,523	116,057
327,012	3,492	229,521	116,270
328,027	3,566	229,253	116,180
329,041	3,621	229,275	116,223
330,056	4,042	229,337	116,562
331,070	3,915	229,118	116,345
332,085	3,477	228,858	115,872
333,100	3,497	228,734	115,813
334,114	3,626	228,569	115,817
335,129	3,817	228,496	115,913
336,143	3,652	228,288	115,674
337,158	3,655	228,238	115,640
338,173	3,711	228,095	115,599
339,187	3,616	227,858	115,398
340,202	3,711	227,734	115,396
341,216	3,675	227,524	115,252
342,231	3,575	227,358	115,083
343,246	3,521	227,258	114,981
344,260	3,665	227,163	115,031
345,275	3,897	227,060	115,142
346,289	3,813	226,913	114,995
347,304	3,658	226,824	114,823
348,319	3,989	226,549	114,922
349,333	3,724	226,322	114,598
350,348	3,315	226,288	114,265
351,362	3,451	226,104	114,264
352,377	3,381	225,947	114,122
353,392	3,244	225,837	113,954
354,406	3,567	225,505	114,017
355,421	195,363	1325,105	1402,004
356,435	156,556	1459,080	1402,006
