DTS Sentinel unit serial number:	SN410029Multiplexer serial number:	ORYXHardware model number:	OX2-SRSoftware version number:	ORYX F/W v4,00 Oryx Data Collector v3.7.2.0data status	okinstallation	B5 Nyhavnadifferential loss correction	single-endedforward channel	channel 2reverse channel	N/Adate	2023/12/14time	04:07:13forward acquisition time	300,00reverse acquisition time	0,00gamma	499,1914k internal	0,3157k external	0,3157temperature offset calibration	1,0000default loss term (dB/km)	0,3820temperature slope calibration	1,0000multiplexer offset coefficient	1,0000multiplexer slope coefficient	1,0000fibre end	0,00T internal ref (°C)	8,00T ext. ref 1 (°C)	-8,45T ext. ref 2 (°C)	-8,54length (m)	temperature (°C)	Stokes	anti-Stokes-744,400	-182,859	0,029	-0,000
-743,385	0,684	-0,448	-0,235
-742,371	475,518	0,118	0,197
-741,356	-2,170	-0,219	-0,113
-740,342	393,023	0,081	0,124
-739,327	-156,692	-0,381	0,017
-738,312	74,588	0,056	-0,043
-737,298	-107,847	-0,302	0,048
-736,283	155,603	0,195	0,199
-735,269	-140,982	-0,245	-0,018
-734,254	159,329	0,075	0,077
-733,239	18,131	-0,638	-0,374
-732,225	-91,743	0,192	0,040
-731,210	410,745	-0,050	-0,078
-730,196	191,001	-0,061	0,067
-729,181	-51,513	-0,021	0,007
-728,167	-64,695	0,068	-0,020
-727,152	-200,000	0,024	0,126
-726,137	378,635	-0,070	-0,106
-725,123	79,892	-0,103	0,081
-724,108	130,139	0,090	-0,085
-723,094	42,780	-0,024	0,016
-722,079	-70,099	0,040	0,011
-721,064	70,905	-0,093	-0,071
-720,050	-200,000	-0,010	0,106
-719,035	34,211	0,056	0,036
-718,021	800,000	0,042	-0,117
-717,006	800,000	-0,014	0,033
-715,991	92,770	-0,162	-0,135
-714,977	800,000	-0,044	-0,124
-713,962	-200,000	0,026	-0,246
-712,948	-200,000	-0,005	-0,028
-711,933	762,204	-0,081	0,162
-710,918	18,855	-0,032	-0,019
-709,904	-165,216	0,036	0,001
-708,889	766,725	-0,080	-0,161
-707,875	126,252	-0,084	0,078
-706,860	-35,389	0,076	0,030
-705,845	800,000	-0,017	0,047
-704,831	643,556	0,079	0,148
-703,816	-200,000	-0,008	-0,134
-702,802	798,953	0,037	-0,075
-701,787	800,000	0,039	-0,090
-700,772	-200,000	-0,032	-0,110
-699,758	-200,000	-0,015	-0,193
-698,743	-58,095	0,163	0,052
-697,729	-200,000	0,000	0,109
-696,714	5,408	-0,043	0,023
-695,699	800,000	-0,022	0,064
-694,685	-31,074	-0,192	-0,079
-693,670	229,643	-0,078	-0,093
-692,656	-79,952	0,157	-0,039
-691,641	365,582	-0,061	-0,091
-690,627	-156,519	-0,171	0,008
-689,612	-200,000	-0,012	0,107
-688,597	-25,199	-0,142	-0,062
-687,583	-200,000	0,004	-0,054
-686,568	-200,000	-0,004	-0,048
-685,554	-114,051	-0,069	-0,010
-684,539	-26,915	0,075	-0,032
-683,524	-31,885	-0,079	-0,033
-682,510	-88,051	0,065	0,014
-681,495	-200,000	-0,013	0,131
-680,481	-123,159	-0,104	-0,012
-679,466	-200,000	0,005	-0,130
-678,451	-132,625	0,157	0,015
-677,437	41,400	-0,031	-0,021
-676,422	-101,167	-0,079	-0,014
-675,408	81,761	0,092	0,073
-674,393	50,191	-0,110	0,076
-673,378	-78,944	0,055	0,014
-672,364	5,619	0,082	0,044
-671,349	62,653	-0,109	0,080
-670,335	128,066	-0,148	-0,138
-669,320	-155,476	0,034	0,002
-668,305	800,000	-0,020	0,054
-667,291	224,531	-0,025	0,030
-666,276	458,742	-0,016	-0,026
-665,262	-81,901	-0,038	-0,009
-664,247	377,872	0,014	0,021
-663,232	-200,000	0,005	-0,048
-662,218	255,626	-0,016	0,020
-661,203	269,268	-0,043	-0,056
-660,189	-62,209	-0,065	0,020
-659,174	-121,493	0,203	-0,025
-658,159	-60,683	-0,119	-0,037
-657,145	-200,000	0,007	-0,115
-656,130	-175,074	-0,037	-0,001
-655,116	217,108	-0,123	0,145
-654,101	535,280	-0,026	-0,045
-653,086	73,316	-0,148	-0,114
-652,072	-200,000	-0,000	-0,064
-651,057	-117,503	-0,111	-0,015
-650,043	150,155	-0,042	0,041
-649,028	800,000	0,037	-0,084
-648,014	128,777	-0,053	0,050
-646,999	-200,000	0,001	0,162
-645,984	800,000	0,026	0,075
-644,970	-48,391	0,126	0,044
-643,955	-200,000	0,000	0,028
-642,941	335,095	-0,028	-0,040
-641,926	68,792	-0,120	-0,091
-640,911	59,947	0,103	0,075
-639,897	-200,000	0,004	0,197
-638,882	20,977	0,034	0,020
-637,868	-69,275	-0,083	0,023
-636,853	-23,788	-0,056	0,025
-635,838	-200,000	0,017	0,057
-634,824	236,077	-0,051	0,062
-633,809	135,550	0,010	0,009
-632,795	-73,008	0,111	0,030
-631,780	258,365	0,073	0,092
-630,765	-109,326	-0,092	0,014
-629,751	34,817	-0,068	0,044
-628,736	478,072	-0,023	-0,039
-627,722	13,501	-0,100	-0,057
-626,707	800,000	0,035	-0,081
-625,692	-89,917	0,124	0,026
-624,678	554,703	-0,048	-0,085
-623,663	-123,172	-0,074	-0,009
-622,649	-200,000	0,004	-0,097
-621,634	-16,757	-0,118	-0,055
-620,619	141,506	-0,032	-0,031
-619,605	800,000	-0,104	-0,224
-618,590	-61,620	0,122	-0,037
-617,576	-118,885	-0,131	0,017
-616,561	114,710	-0,036	0,032
-615,546	-180,963	-0,112	-0,002
-614,532	-200,000	-0,005	-0,016
-613,517	488,506	0,015	-0,026
-612,503	197,787	-0,061	-0,068
-611,488	-40,251	0,248	-0,094
-610,474	367,268	-0,061	0,090
-609,459	-16,252	0,020	-0,009
-608,444	-129,331	-0,124	-0,012
-607,430	-117,688	-0,083	-0,011
-606,415	-152,313	-0,121	-0,006
-605,401	800,000	-0,033	0,101
-604,386	-69,828	0,098	0,027
-603,371	800,000	0,073	0,172
-602,357	555,963	0,073	0,130
-601,342	-78,178	-0,084	-0,021
-600,328	-162,428	-0,153	0,005
-599,313	37,094	0,061	0,040
-598,298	-58,689	-0,105	-0,033
-597,284	-200,000	-0,005	0,041
-596,269	800,000	-0,034	0,078
-595,255	238,072	0,037	0,045
-594,240	-200,000	-0,003	-0,017
-593,225	-200,000	-0,013	-0,090
-592,211	-87,334	-0,079	-0,017
-591,196	239,009	0,066	0,080
-590,182	-36,764	-0,102	-0,040
-589,167	800,000	-0,021	0,059
-588,152	123,104	0,020	-0,018
-587,138	163,828	-0,040	-0,041
-586,123	-200,000	0,002	-0,091
-585,109	-81,226	0,107	-0,026
-584,094	-89,841	-0,174	-0,037
-583,079	-200,000	-0,019	0,065
-582,065	-48,055	0,117	0,041
-581,050	800,000	-0,017	0,052
-580,036	395,828	0,029	0,044
-579,021	-121,395	-0,222	0,027
-578,006	800,000	-0,028	-0,076
-576,992	800,000	-0,032	0,070
-575,977	-200,000	-0,029	-0,145
-574,963	428,323	-0,002	-0,003
-573,948	-101,529	-0,046	-0,008
-572,934	-66,730	0,054	0,016
-571,919	91,877	-0,111	-0,091
-570,904	20,432	0,098	-0,058
-569,890	-12,139	-0,161	0,077
-568,875	345,549	0,094	-0,135
-567,861	-200,000	-0,001	0,075
-566,846	-200,000	0,002	0,107
-565,831	135,543	0,127	0,121
-564,817	215,683	-0,037	-0,043
-563,802	-200,000	0,015	-0,065
-562,788	301,296	-0,029	0,040
-561,773	14,620	0,082	-0,047
-560,758	-200,000	0,009	0,030
-559,744	-200,000	-0,020	0,070
-558,729	-51,942	-0,062	-0,021
-557,715	310,028	-0,067	0,092
-556,700	27,158	-0,007	0,004
-555,685	-44,274	-0,052	-0,019
-554,671	250,975	-0,055	-0,069
-553,656	219,725	0,052	-0,061
-552,642	43,903	0,015	0,010
-551,627	-40,609	0,086	0,033
-550,612	-200,000	-0,030	-0,138
-549,598	231,074	-0,056	-0,067
-548,583	-33,243	-0,055	-0,022
-547,569	571,730	0,024	-0,042
-546,554	97,755	0,100	-0,084
-545,539	-200,000	-0,051	-0,218
-544,525	355,486	-0,062	0,091
-543,510	-115,328	0,128	0,018
-542,496	4,177	-0,146	-0,078
-541,481	-78,197	0,011	0,003
-540,466	640,847	-0,010	0,019
-539,452	90,381	0,068	-0,055
-538,437	-200,000	-0,017	0,081
-537,423	153,489	-0,079	0,079
-536,408	-200,000	-0,009	0,066
-535,393	259,381	-0,096	-0,122
-534,379	-200,000	0,022	-0,078
-533,364	166,946	0,028	-0,029
-532,350	-56,960	-0,073	-0,023
-531,335	-60,276	0,091	-0,028
-530,321	-200,000	-0,009	0,149
-529,306	800,000	-0,053	0,123
-528,291	-200,000	-0,006	-0,101
-527,277	89,073	0,024	0,020
-526,262	581,185	-0,064	-0,115
-525,248	538,194	-0,027	0,046
-524,233	-83,840	0,018	0,004
-523,218	689,511	-0,068	0,130
-522,204	-113,454	0,088	-0,012
-521,189	-200,000	0,011	-0,046
-520,175	275,845	-0,073	-0,095
-519,160	181,173	-0,065	-0,070
-518,145	800,000	0,045	0,091
-517,131	-117,298	0,165	-0,022
-516,116	375,950	-0,061	0,091
-515,102	-32,786	0,037	-0,015
-514,087	-106,238	0,182	0,030
-513,072	-0,259	-0,082	0,042
-512,058	-95,733	-0,035	-0,007
-511,043	-7,686	-0,128	0,063
-510,029	95,882	0,105	0,087
-509,014	59,352	0,047	0,034
-507,999	-15,341	-0,144	-0,067
-506,985	-2,901	0,091	-0,046
-505,970	38,407	0,039	-0,025
-504,956	800,000	-0,044	-0,141
-503,941	54,491	0,023	0,016
-502,926	116,069	0,079	0,070
-501,912	-89,400	0,143	0,030
-500,897	-94,613	-0,052	-0,010
-499,883	-147,704	-0,185	0,011
-498,868	617,158	-0,010	0,019
-497,853	-1,092	-0,066	0,034
-496,839	800,000	0,049	-0,116
-495,824	584,095	0,035	-0,064
-494,810	478,103	-0,029	0,048
-493,795	-129,012	0,025	-0,002
-492,781	-86,391	-0,204	0,045
-491,766	-86,194	0,154	0,034
-490,751	46,716	-0,163	0,110
-489,737	257,033	0,033	0,041
-488,722	-200,000	-0,016	0,097
-487,708	-200,000	0,002	0,167
-486,693	1,434	-0,084	-0,044
-485,678	409,204	0,080	-0,124
-484,664	224,216	-0,068	-0,080
-483,649	407,746	0,070	-0,108
-482,635	-79,278	-0,159	0,039
-481,620	-200,000	-0,008	0,027
-480,605	800,000	0,005	0,013
-479,591	-0,781	-0,093	-0,048
-478,576	-87,662	-0,052	-0,011
-477,562	153,208	0,017	-0,017
-476,547	62,948	-0,089	0,065
-475,532	-11,973	0,030	0,014
-474,518	-200,000	-0,019	0,097
-473,503	611,537	0,027	0,050
-472,489	-200,000	-0,004	0,068
-471,474	-200,000	-0,004	0,135
-470,459	-15,947	0,049	0,023
-469,445	310,753	-0,062	0,085
-468,430	645,034	-0,012	-0,022
-467,416	165,768	-0,020	-0,020
-466,401	-105,130	-0,136	-0,022
-465,386	800,000	-0,030	-0,076
-464,372	104,691	-0,108	-0,093
-463,357	800,000	-0,023	-0,055
-462,343	-200,000	-0,020	-0,111
-461,328	-82,803	-0,049	-0,011
-460,313	-200,000	-0,026	-0,094
-459,299	-200,000	0,010	-0,044
-458,284	-104,292	-0,002	-0,000
-457,270	21,131	0,142	0,084
-456,255	378,924	0,063	-0,095
-455,241	-200,000	0,022	-0,148
-454,226	52,162	-0,051	-0,036
-453,211	650,519	0,039	0,073
-452,197	-40,153	0,154	0,058
-451,182	-59,742	-0,063	-0,020
-450,168	-173,003	0,017	0,000
-449,153	401,241	-0,049	0,075
-448,138	-67,701	-0,158	-0,045
-447,124	732,069	-0,039	-0,077
-446,109	-200,000	0,005	-0,110
-445,095	8,846	0,119	-0,065
-444,080	674,486	0,043	0,083
-443,065	311,967	-0,054	0,073
-442,051	133,778	-0,119	0,113
-441,036	-200,000	-0,010	-0,054
-440,022	800,000	-0,062	0,140
-439,007	800,000	-0,015	0,049
-437,992	632,501	0,010	0,019
-436,978	-28,591	0,132	0,055
-435,963	-25,174	-0,092	-0,040
-434,949	237,234	0,097	0,118
-433,934	-200,000	-0,025	-0,081
-432,919	-45,574	0,013	0,005
-431,905	-62,547	0,119	-0,036
-430,890	-33,431	0,135	-0,054
-429,876	-90,728	0,060	0,012
-428,861	800,000	0,030	-0,097
-427,846	22,007	-0,028	0,017
-426,832	-200,000	0,016	0,122
-425,817	-200,000	0,007	-0,034
-424,803	73,382	0,097	-0,074
-423,788	47,396	0,010	0,007
-422,773	-49,925	0,038	-0,013
-421,759	12,378	0,090	0,050
-420,744	-101,895	0,088	0,015
-419,730	138,676	-0,108	-0,103
-418,715	-200,000	0,009	-0,081
-417,701	635,616	-0,016	-0,031
-416,686	84,902	-0,043	-0,034
-415,671	-69,684	0,100	0,028
-414,657	-64,526	0,085	0,025
-413,642	800,000	0,010	0,022
-412,628	106,785	-0,036	-0,031
-411,613	343,317	-0,085	-0,121
-410,598	-200,000	-0,030	-0,223
-409,584	-200,000	-0,001	0,072
-408,569	-200,000	-0,019	0,081
-407,555	-200,000	-0,005	0,023
-406,540	-75,015	-0,098	-0,025
-405,525	-38,969	-0,053	-0,020
-404,511	763,564	0,045	-0,090
-403,496	14,573	0,134	-0,076
-402,482	-200,000	0,001	-0,069
-401,467	47,082	-0,051	0,035
-400,452	-11,671	-0,041	-0,020
-399,438	5,877	0,048	-0,026
-398,423	-200,000	-0,043	-0,151
-397,409	800,000	0,041	0,115
-396,394	-200,000	0,012	-0,060
-395,379	113,264	0,071	-0,062
-394,365	33,113	0,072	-0,045
-393,350	-200,000	0,011	-0,095
-392,336	-200,000	-0,008	-0,037
-391,321	800,000	-0,031	-0,086
-390,306	-163,184	-0,041	0,001
-389,292	-200,000	0,018	-0,113
-388,277	-3,822	0,065	-0,033
-387,263	52,843	0,118	0,082
-386,248	-34,993	0,164	0,065
-385,233	-100,105	-0,184	0,033
-384,219	-54,168	-0,054	-0,018
-383,204	8,015	0,070	0,038
-382,190	0,136	-0,174	-0,090
-381,175	217,653	-0,017	-0,019
-380,160	-84,863	0,052	0,012
-379,146	-200,000	-0,020	0,095
-378,131	52,889	-0,115	0,080
-377,117	131,963	0,094	0,088
-376,102	-65,460	-0,162	0,047
-375,088	-200,000	0,001	0,011
-374,073	-27,076	-0,051	0,022
-373,058	193,721	-0,024	-0,027
-372,044	-92,191	0,141	0,029
-371,029	-118,503	0,085	0,011
-370,015	-200,000	-0,008	0,202
-369,000	800,000	-0,082	0,211
-367,985	254,025	-0,013	0,017
-366,971	51,818	0,049	-0,034
-365,956	362,219	0,036	0,053
-364,942	10,166	0,157	0,086
-363,927	800,000	0,104	0,221
-362,912	189,522	0,022	0,024
-361,898	-8,858	-0,106	-0,052
-360,883	185,712	-0,057	0,062
-359,869	774,568	-0,027	-0,053
-358,854	471,365	0,098	-0,161
-357,839	38,157	0,081	0,052
-356,825	800,000	-0,043	0,087
-355,810	85,056	0,085	0,068
-354,796	800,000	-0,031	-0,093
-353,781	-200,000	0,020	-0,084
-352,766	-11,255	-0,099	-0,047
-351,752	74,129	0,090	0,069
-350,737	556,774	-0,090	0,159
-349,723	270,370	-0,061	0,078
-348,708	223,713	0,018	0,021
-347,693	-18,064	0,031	-0,014
-346,679	-3,431	0,096	-0,049
-345,664	357,636	0,073	-0,106
-344,650	-200,000	0,010	0,147
-343,635	-45,849	-0,079	0,028
-342,620	164,849	0,060	0,062
-341,606	124,938	0,057	-0,052
-340,591	-159,740	0,073	0,003
-339,577	56,054	-0,098	-0,069
-338,562	-182,719	0,089	0,001
-337,548	9,194	0,041	0,023
-336,533	-78,128	0,127	0,031
-335,518	-200,000	0,017	0,115
-334,504	-121,655	0,149	-0,018
-333,489	-117,776	0,097	-0,013
-332,475	83,670	0,056	0,044
-331,460	-101,473	-0,057	0,010
-330,445	-76,826	-0,163	-0,041
-329,431	-108,414	0,100	-0,016
-328,416	62,697	0,112	0,081
-327,402	160,637	0,079	0,081
-326,387	630,121	-0,021	-0,039
-325,372	-200,000	0,030	-0,098
-324,358	800,000	0,036	-0,095
-323,343	277,288	-0,028	-0,036
-322,329	-13,778	0,029	-0,013
-321,314	391,057	0,036	0,054
-320,299	800,000	-0,003	0,009
-319,285	142,270	0,044	0,042
-318,270	125,058	0,073	-0,067
-317,256	305,910	-0,098	-0,133
-316,241	-200,000	0,004	-0,061
-315,226	-67,850	-0,195	0,055
-314,212	-93,849	0,179	-0,035
-313,197	8,967	0,044	-0,024
-312,183	-16,178	-0,030	0,014
-311,168	-93,118	-0,126	0,025
-310,153	142,413	0,029	0,027
-309,139	-45,807	0,062	0,022
-308,124	-200,000	-0,012	0,056
-307,110	-89,327	0,094	0,020
-306,095	-148,142	0,149	0,009
-305,080	379,905	-0,066	0,098
-304,066	683,429	-0,016	-0,030
-303,051	22,090	-0,055	-0,032
-302,037	27,690	-0,140	-0,085
-301,022	800,000	-0,021	0,056
-300,008	276,707	0,073	-0,094
-298,993	-149,321	-0,057	-0,003
-297,978	-200,000	0,016	0,108
-296,964	140,178	-0,136	0,130
-295,949	-200,000	-0,001	-0,044
-294,935	604,549	0,010	-0,018
-293,920	112,997	-0,015	-0,013
-292,905	328,931	0,115	-0,161
-291,891	-117,456	0,163	-0,021
-290,876	800,000	0,041	0,114
-289,862	422,105	-0,079	0,123
-288,847	1,235	-0,197	-0,102
-287,832	643,071	-0,015	-0,028
-286,818	-3,301	-0,070	-0,035
-285,803	175,920	0,091	-0,096
-284,789	94,409	0,166	-0,137
-283,774	-200,000	0,011	0,108
-282,759	422,163	0,047	-0,073
-281,745	338,349	0,057	-0,081
-280,730	-200,000	0,147	0,000
-279,716	-57,195	-0,110	0,035
-278,701	-129,731	0,100	0,010
-277,686	-79,212	0,028	-0,007
-276,672	180,320	-0,063	0,067
-275,657	-46,224	-0,058	0,021
-274,643	27,558	-0,112	-0,068
-273,628	58,483	-0,008	-0,005
-272,613	-76,245	0,135	-0,034
-271,599	-30,082	0,130	0,053
-270,584	154,215	0,090	0,089
-269,570	800,000	0,014	0,037
-268,555	-200,000	0,010	-0,047
-267,540	-74,577	-0,180	-0,046
-266,526	391,839	0,023	-0,035
-265,511	41,521	-0,052	-0,034
-264,497	-110,319	0,154	0,023
-263,482	15,379	0,109	-0,061
-262,467	32,099	0,124	0,078
-261,453	105,332	-0,045	0,038
-260,438	99,847	0,027	0,023
-259,424	-200,000	-0,004	-0,086
-258,409	-200,000	-0,008	-0,028
-257,395	-129,080	-0,057	0,006
-256,380	527,228	0,015	-0,025
-255,365	-139,885	-0,071	-0,005
-254,351	257,263	-0,065	0,081
-253,336	-51,694	-0,053	0,018
-252,322	-200,000	0,013	-0,045
-251,307	143,337	-0,060	-0,058
-250,292	-182,084	0,073	-0,001
-249,278	-10,876	0,057	0,027
-248,263	223,416	-0,084	0,098
-247,249	-200,000	-0,026	0,110
-246,234	-85,899	0,130	-0,029
-245,219	-45,534	-0,009	-0,003
-244,205	-200,000	0,014	-0,101
-243,190	44,984	0,102	0,068
-242,176	-200,000	0,051	-0,168
-241,161	9,560	-0,039	-0,021
-240,146	164,199	-0,066	0,068
-239,132	-200,000	0,007	-0,059
-238,117	16,428	-0,066	0,038
-237,103	106,958	0,050	-0,043
-236,088	-52,248	-0,188	0,063
-235,073	88,306	-0,024	-0,019
-234,059	108,655	0,091	-0,079
-233,044	571,594	-0,095	0,168
-232,030	800,000	0,071	0,183
-231,015	-115,011	-0,073	0,010
-230,000	800,000	0,030	-0,073
-228,986	-95,952	0,140	0,027
-227,971	-200,000	-0,041	-0,142
-226,957	62,030	-0,129	0,093
-225,942	-200,000	0,024	0,114
-224,927	-57,668	0,048	0,015
-223,913	-104,104	-0,149	-0,025
-222,898	63,087	0,099	0,071
-221,884	44,843	0,094	-0,063
-220,869	-200,000	0,001	0,067
-219,855	-200,000	0,010	0,040
-218,840	-200,000	-0,010	0,060
-217,825	800,000	0,050	-0,122
-216,811	-200,000	-0,005	0,092
-215,796	-200,000	-0,009	-0,030
-214,782	-24,473	0,107	-0,046
-213,767	800,000	0,017	0,039
-212,752	-59,685	0,152	0,047
-211,738	800,000	-0,055	0,147
-210,723	-200,000	0,009	0,099
-209,709	32,014	-0,072	-0,045
-208,694	-75,279	-0,088	-0,023
-207,679	-200,000	-0,015	0,093
-206,665	711,579	0,018	0,034
-205,650	51,506	0,057	0,039
-204,636	-179,084	0,099	0,002
-203,621	-88,257	-0,090	0,019
-202,606	119,115	-0,086	-0,077
-201,592	-200,000	-0,010	-0,117
-200,577	-73,396	0,062	-0,016
-199,563	-200,000	0,015	0,134
-198,548	54,393	0,100	-0,069
-197,533	-200,000	0,000	0,148
-196,519	-115,861	0,218	-0,029
-195,504	-154,925	-0,182	-0,009
-194,490	-122,564	-0,081	-0,009
-193,475	129,492	0,096	-0,089
-192,460	-200,000	-0,026	-0,101
-191,446	-74,057	0,073	0,019
-190,431	360,268	0,093	0,135
-189,417	-92,706	0,132	0,026
-188,402	397,635	-0,011	-0,016
-187,387	-126,920	-0,107	-0,011
-186,373	-200,000	-0,039	-0,167
-185,358	161,369	0,033	0,033
-184,344	3,599	0,195	0,102
-183,329	-95,831	-0,205	-0,039
-182,315	800,000	0,053	-0,153
-181,300	-126,626	0,057	0,006
-180,285	115,902	0,008	-0,007
-179,271	-200,000	0,010	-0,116
-178,256	-200,000	-0,003	0,019
-177,242	800,000	-0,042	0,094
-176,227	545,940	-0,032	-0,056
-175,212	225,323	0,057	0,066
-174,198	-200,000	-0,038	0,145
-173,183	494,734	0,036	-0,060
-172,169	3,033	0,069	-0,036
-171,154	-44,882	-0,139	0,050
-170,139	563,689	0,037	-0,065
-169,125	326,583	0,117	-0,162
-168,110	-79,678	-0,052	-0,012
-167,096	259,468	-0,102	-0,127
-166,081	170,777	-0,018	0,019
-165,066	-43,347	-0,011	0,004
-164,052	-200,000	-0,043	-0,157
-163,037	800,000	0,026	0,060
-162,023	186,461	-0,052	0,056
-161,008	92,632	0,030	0,024
-159,993	-69,022	-0,093	-0,026
-158,979	97,111	-0,125	-0,103
-157,964	-66,035	0,034	0,010
-156,950	76,498	-0,026	-0,020
-155,935	-116,743	-0,038	0,005
-154,920	446,074	-0,024	0,038
-153,906	-89,572	0,115	-0,024
-152,891	800,000	-0,088	-0,182
-151,877	-200,000	-0,013	0,057
-150,862	399,473	0,092	0,139
-149,847	1,494	-0,146	-0,075
-148,833	-200,000	-0,024	-0,115
-147,818	167,319	0,023	0,024
-146,804	289,088	-0,039	-0,051
-145,789	252,076	0,011	-0,014
-144,775	162,037	-0,096	-0,097
-143,760	-200,000	-0,000	-0,142
-142,745	332,587	0,042	-0,059
-141,731	60,777	0,018	-0,013
-140,716	21,355	0,087	0,051
-139,702	-166,183	0,031	0,001
-138,687	-200,000	0,010	0,055
-137,672	82,484	-0,064	0,050
-136,658	-200,000	0,014	-0,094
-135,643	121,753	-0,061	-0,055
-134,629	-54,028	0,105	0,034
-133,614	-44,618	0,075	0,027
-132,599	217,570	0,048	0,056
-131,585	228,176	0,082	0,097
-130,570	-1,133	0,103	0,052
-129,556	-101,780	-0,117	-0,020
-128,541	770,299	0,073	-0,144
-127,526	82,059	-0,058	-0,045
-126,512	-42,800	0,147	-0,053
-125,497	-101,633	0,075	-0,013
-124,483	-111,671	0,034	0,005
-123,468	-84,257	-0,051	-0,011
-122,453	29,917	0,117	-0,072
-121,439	800,000	-0,079	-0,161
-120,424	800,000	-0,043	-0,090
-119,410	-38,641	-0,065	0,025
-118,395	-200,000	-0,009	0,037
-117,380	-200,000	-0,012	-0,092
-116,366	63,740	0,103	-0,074
-115,351	-56,109	-0,205	-0,065
-114,337	56,948	-0,103	-0,072
-113,322	39,751	-0,141	-0,091
-112,307	704,853	0,100	-0,190
-111,293	-200,000	0,004	-0,107
-110,278	102,106	0,163	-0,137
-109,264	-141,650	-0,095	-0,007
-108,249	514,404	0,044	-0,074
-107,234	-70,533	-0,018	0,005
-106,220	-141,443	-0,003	-0,000
-105,205	71,566	0,088	0,065
-104,191	-115,965	-0,100	-0,013
-103,176	-200,000	-0,004	0,064
-102,162	-200,000	0,027	-0,115
-101,147	-200,000	-0,016	-0,085
-100,132	-7,145	0,090	-0,044
-99,118	129,092	-0,040	0,036
-98,103	12,764	0,035	0,019
-97,089	65,510	0,022	0,016
-96,074	296,486	-0,022	-0,029
-95,059	-200,000	-0,011	0,073
-94,045	316,277	0,066	-0,090
-93,030	-96,883	0,066	-0,012
-92,016	-5,761	-0,094	-0,046
-91,001	126,661	0,024	0,022
-89,986	-33,507	0,043	-0,017
-88,972	103,667	0,113	0,095
-87,957	338,993	0,011	0,015
-86,943	429,076	0,041	0,065
-85,928	281,568	-0,019	-0,025
-84,913	800,000	-0,009	-0,020
-83,899	562,687	-0,030	-0,052
-82,884	-119,837	-0,062	0,008
-81,870	-200,000	-0,032	0,125
-80,855	-200,000	-0,026	0,202
-79,840	-200,000	0,006	0,050
-78,826	164,508	-0,029	-0,029
-77,811	582,368	0,079	-0,139
-76,797	-160,445	0,073	-0,003
-75,782	-14,681	-0,032	-0,015
-74,767	-80,271	0,069	-0,016
-73,753	-200,000	0,002	0,032
-72,738	707,122	0,020	-0,038
-71,724	-200,000	0,017	-0,098
-70,709	-22,400	-0,128	0,056
-69,694	192,181	0,055	0,059
-68,680	800,000	-0,064	-0,154
-67,665	-167,558	-0,050	-0,001
-66,651	11,084	0,093	-0,051
-65,636	-200,000	0,026	0,103
-64,622	144,591	0,053	0,051
-63,607	800,000	-0,047	-0,126
-62,592	-56,390	0,081	0,026
-61,578	-151,984	0,163	-0,008
-60,563	-200,000	0,035	-0,166
-59,549	800,000	-0,029	-0,088
-58,534	70,853	-2,757	-2,048
-57,519	-12,225	0,423	-0,198
-56,505	800,000	-1,716	-5,409
-55,490	772,434	1,017	2,001
-54,476	800,000	5,354	11,331
-53,461	-200,000	22,236	347,783
-52,446	800,000	759,472	2294,868
-51,432	514,334	1644,200	2764,480
-50,417	97,160	1607,248	1323,067
-49,403	64,785	1264,804	914,994
-48,388	22,980	1017,142	597,301
-47,373	19,546	984,589	566,839
-46,359	13,012	971,531	537,940
-45,344	8,639	968,421	521,874
-44,330	9,065	966,472	522,197
-43,315	8,113	964,518	518,011
-42,300	8,054	963,410	517,202
-41,286	8,108	962,376	516,802
-40,271	8,058	961,186	515,979
-39,257	8,056	960,469	515,569
-38,242	8,079	959,457	515,081
-37,227	8,011	958,793	514,482
-36,213	8,047	958,007	514,156
-35,198	7,950	957,209	513,393
-34,184	8,077	956,432	513,368
-33,169	8,009	955,486	512,620
-32,154	8,092	954,362	512,264
-31,140	8,076	953,597	511,780
-30,125	8,074	952,833	511,344
-29,111	8,040	952,306	510,932
-28,096	7,977	951,521	510,286
-27,082	8,016	950,887	510,053
-26,067	8,030	950,203	509,710
-25,052	8,014	949,264	509,134
-24,038	8,009	948,448	508,660
-23,023	7,942	947,833	508,097
-22,009	8,064	947,304	508,184
-20,994	8,116	946,724	508,018
-19,979	8,005	946,267	507,397
-18,965	8,008	945,349	506,895
-17,950	8,053	944,665	506,652
-16,936	7,960	943,976	505,965
-15,921	7,958	943,543	505,706
-14,906	7,943	942,724	505,201
-13,892	7,931	942,217	504,869
-12,877	7,915	941,511	504,421
-11,863	7,889	940,944	504,016
-10,848	7,945	940,406	503,885
-9,833	8,014	939,930	503,828
-8,819	7,964	939,368	503,349
-7,804	7,908	938,520	502,695
-6,790	7,890	938,081	502,383
-5,775	7,985	937,356	502,276
-4,760	7,990	936,737	501,940
-3,746	7,909	936,421	501,496
-2,731	7,849	935,547	500,818
-1,717	7,741	934,857	500,086
-0,702	7,772	934,218	499,823
0,313	7,604	933,478	499,649
1,327	10,939	931,326	508,966
2,342	19,527	779,632	448,572
3,356	14,530	447,452	249,910
4,371	-11,709	311,787	146,292
5,386	-15,512	294,408	134,287
6,400	-17,468	288,117	129,473
7,415	-17,789	285,806	128,107
8,429	-18,372	283,782	126,622
9,444	-18,512	282,887	126,075
10,459	-18,148	282,577	126,278
11,473	-18,172	281,659	125,834
12,488	-18,245	281,284	125,585
13,502	-18,253	280,709	125,309
14,517	-18,194	280,546	125,282
15,531	-18,182	279,990	125,034
16,546	-17,994	279,575	125,018
17,561	-18,157	279,149	124,661
18,575	-17,944	278,861	124,724
19,590	-18,064	278,545	124,457
20,604	-17,794	278,173	124,537
21,619	-18,118	277,825	124,062
22,634	-17,937	277,568	124,108
23,648	-18,069	277,207	123,810
24,663	-17,959	276,894	123,764
25,677	-17,884	276,572	123,680
26,692	-17,971	276,431	123,523
27,707	-18,002	276,085	123,329
28,721	-17,984	275,852	123,230
29,736	-17,918	275,605	123,172
30,750	-17,905	275,353	123,060
31,765	-17,952	275,101	122,892
32,780	-17,790	274,797	122,898
33,794	-18,063	274,619	122,551
34,809	-17,933	274,237	122,491
35,823	-17,842	274,003	122,461
36,838	-18,016	273,810	122,201
37,853	-17,813	273,494	122,239
38,867	-17,711	273,167	122,177
39,882	-17,803	273,056	122,031
40,896	-17,919	272,933	121,856
41,911	-17,917	272,468	121,640
42,926	-17,846	272,347	121,642
43,940	-17,791	272,208	121,620
44,955	-17,949	271,995	121,366
45,969	-17,727	271,692	121,427
46,984	-18,026	271,676	121,131
47,999	-17,801	271,296	121,160
49,013	-17,764	271,051	121,073
50,028	-17,749	271,013	121,059
51,042	-17,598	270,544	120,979
52,057	-17,871	270,419	120,660
53,071	-17,680	270,192	120,725
54,086	-17,787	269,978	120,519
55,101	-17,618	269,623	120,506
56,115	-17,679	269,462	120,367
57,130	-17,800	269,184	120,121
58,144	-18,025	268,827	119,744
59,159	-17,980	268,663	119,702
60,174	-17,955	268,415	119,603
61,188	-17,979	268,204	119,477
62,203	-17,965	268,081	119,424
63,217	-17,812	267,764	119,412
64,232	-17,777	267,523	119,326
65,247	-17,953	267,317	119,063
66,261	-17,948	267,038	118,932
67,276	-17,743	266,729	118,971
68,290	-17,855	266,604	118,803
69,305	-17,945	266,503	118,665
70,320	-17,790	266,087	118,610
71,334	-17,607	265,983	118,719
72,349	-18,058	265,679	118,164
73,363	-17,905	265,471	118,200
74,378	-17,955	265,162	118,006
75,393	-17,806	264,914	118,020
76,407	-17,810	264,781	117,946
77,422	-17,918	264,602	117,759
78,436	-17,899	264,342	117,650
79,451	-17,939	264,067	117,481
80,466	-17,902	263,971	117,461
81,480	-17,829	263,697	117,394
82,495	-17,971	263,407	117,127
83,509	-17,798	263,332	117,239
84,524	-17,738	263,192	117,220
85,539	-17,705	262,877	117,098
86,553	-17,795	262,609	116,888
87,568	-17,747	262,389	116,823
88,582	-17,915	262,103	116,535
89,597	-18,029	261,964	116,361
90,611	-17,813	261,841	116,489
91,626	-17,938	261,688	116,299
92,641	-17,726	261,343	116,324
93,655	-17,622	261,106	116,300
94,670	-17,875	260,909	115,978
95,684	-17,796	260,769	115,975
96,699	-17,957	260,684	115,784
97,714	-17,835	260,406	115,758
98,728	-17,687	260,072	115,731
99,743	-17,705	259,970	115,660
100,757	-17,543	259,730	115,685
101,772	-17,828	259,464	115,305
102,787	-17,829	259,334	115,236
103,801	-17,829	259,071	115,109
104,816	-17,923	258,958	114,966
105,830	-17,733	258,686	115,002
106,845	-17,809	258,448	114,819
107,860	-17,878	258,411	114,731
108,874	-17,850	258,142	114,626
109,889	-17,749	257,635	114,480
110,903	-17,994	257,573	114,227
111,918	-17,767	257,414	114,345
112,933	-17,691	257,318	114,359
113,947	-17,861	257,073	114,092
114,962	-17,848	256,774	113,960
115,976	-17,925	256,698	113,849
116,991	-17,901	256,377	113,717
118,006	-17,909	256,279	113,657
119,020	-17,942	256,092	113,534
120,035	-17,867	256,097	113,592
121,049	-17,745	255,796	113,554
122,064	-17,942	255,579	113,277
123,079	-17,915	255,432	113,225
124,093	-17,668	255,128	113,294
125,108	-17,680	254,817	113,135
126,122	-17,601	254,739	113,159
127,137	-17,432	254,519	113,197
128,151	-17,647	254,466	112,978
129,166	-17,574	254,130	112,882
130,181	-17,556	253,830	112,754
131,195	-17,579	253,765	112,695
132,210	-17,605	253,354	112,481
133,224	-17,662	253,326	112,408
134,239	-17,876	253,251	112,181
135,254	-17,576	252,773	112,217
136,268	-17,834	252,733	111,968
137,283	-17,598	252,532	112,071
138,297	-17,628	252,355	111,957
139,312	-17,647	252,060	111,800
140,327	-17,790	251,963	111,624
141,341	-17,922	251,658	111,367
142,356	-17,885	251,661	111,391
143,370	-17,806	251,336	111,303
144,385	-17,737	251,127	111,260
145,400	-17,762	251,053	111,196
146,414	-17,813	250,822	111,040
147,429	-17,856	250,522	110,861
148,443	-17,705	250,376	110,915
149,458	-17,875	250,245	110,703
150,473	-17,857	250,055	110,624
151,487	-17,841	249,886	110,552
152,502	-17,842	249,674	110,449
153,516	-17,887	249,557	110,349
154,531	-17,743	249,238	110,319
155,546	-17,862	249,173	110,180
156,560	-17,687	248,884	110,190
157,575	-17,512	248,690	110,242
158,589	-17,916	248,532	109,823
159,604	-17,749	248,341	109,868
160,619	-17,977	248,182	109,596
161,633	-17,579	247,779	109,743
162,648	-17,829	247,816	109,540
163,662	-17,587	247,684	109,675
164,677	-17,740	247,493	109,452
165,692	-17,574	247,266	109,480
166,706	-17,704	247,149	109,310
167,721	-17,574	246,885	109,292
168,735	-17,762	246,812	109,094
169,750	-17,728	246,591	109,014
170,764	-17,661	246,456	109,001
171,779	-17,750	246,281	108,839
172,794	-17,624	246,108	108,859
173,808	-17,557	246,019	108,864
174,823	-17,791	245,974	108,641
175,837	-17,679	245,586	108,552
176,852	-17,640	245,403	108,495
177,867	-17,749	245,302	108,350
178,881	-17,634	245,145	108,366
179,896	-17,783	244,874	108,113
180,910	-17,793	244,841	108,081
181,925	-17,698	244,525	108,010
182,940	-17,789	244,247	107,802
183,954	-17,826	244,157	107,723
184,969	-17,697	243,988	107,745
185,983	-17,683	243,900	107,708
186,998	-17,629	243,680	107,645
188,013	-17,820	243,506	107,402
189,027	-17,693	243,354	107,430
190,042	-17,902	243,118	107,144
191,056	-17,898	242,835	107,013
192,071	-17,783	242,852	107,106
193,086	-17,817	242,537	106,929
194,100	-17,815	242,470	106,892
195,115	-17,829	242,196	106,750
196,129	-17,847	241,961	106,622
197,144	-17,821	241,717	106,527
198,159	-17,803	241,606	106,483
199,173	-17,657	241,459	106,528
200,188	-17,735	241,233	106,354
201,202	-17,579	241,107	106,416
202,217	-17,676	240,975	106,270
203,232	-17,415	240,845	106,415
204,246	-17,669	240,512	106,052
205,261	-17,978	240,285	105,693
206,275	-16,776	240,777	106,876
207,290	-12,013	242,455	111,501
208,304	-5,455	244,452	117,799
209,319	-2,187	245,329	120,900
210,334	-1,193	245,518	121,800
211,348	-0,243	245,818	122,719
212,363	0,155	245,664	122,958
213,377	0,441	245,800	123,250
214,392	0,872	245,571	123,478
215,407	1,143	245,545	123,677
216,421	1,409	245,397	123,810
217,436	1,261	245,274	123,615
218,450	1,453	245,090	123,668
219,465	1,292	245,130	123,545
220,480	1,357	244,864	123,454
221,494	1,172	244,658	123,188
222,509	0,893	244,283	122,760
223,523	0,648	244,179	122,497
224,538	0,608	243,934	122,330
225,553	0,728	243,676	122,289
226,567	0,479	243,623	122,048
227,582	0,657	243,421	122,080
228,596	0,612	243,297	121,971
229,611	0,790	243,053	121,982
230,626	0,630	242,891	121,760
231,640	0,503	242,844	121,623
232,655	0,492	242,738	121,550
233,669	0,695	242,458	121,563
234,684	0,615	242,169	121,343
235,699	0,742	242,171	121,436
236,713	0,752	241,868	121,281
237,728	0,640	241,888	121,190
238,742	0,669	241,670	121,093
239,757	0,828	241,443	121,096
240,772	0,688	241,432	120,967
241,786	0,543	241,222	120,734
242,801	0,496	241,044	120,597
243,815	0,597	240,938	120,615
244,830	0,490	240,780	120,439
245,844	0,669	240,640	120,501
246,859	0,468	240,458	120,238
247,874	0,602	240,389	120,301
248,888	0,578	240,138	120,146
249,903	0,584	240,030	120,085
250,917	0,735	239,818	120,089
251,932	0,808	239,765	120,110
252,947	0,618	239,638	119,885
253,961	0,606	239,419	119,755
254,976	0,405	239,156	119,453
255,990	0,694	239,046	119,616
257,005	0,600	238,847	119,432
258,020	0,646	238,731	119,400
259,034	0,649	238,481	119,266
260,049	0,627	238,405	119,200
261,063	0,769	238,118	119,158
262,078	0,476	238,100	118,907
263,093	0,481	238,094	118,897
264,107	0,613	237,733	118,811
265,122	0,600	237,745	118,796
266,136	0,700	237,405	118,694
267,151	0,694	237,380	118,667
268,166	0,642	237,283	118,566
269,180	0,534	236,859	118,259
270,195	0,638	236,889	118,345
271,209	0,558	236,827	118,240
272,224	0,467	236,701	118,096
273,239	0,856	236,301	118,191
274,253	0,563	236,368	117,984
275,268	0,781	236,047	117,985
276,282	0,740	235,838	117,837
277,297	0,374	235,789	117,515
278,312	0,548	235,700	117,596
279,326	0,772	235,419	117,621
280,341	0,530	235,418	117,421
281,355	0,765	235,170	117,470
282,370	0,768	235,048	117,402
283,384	0,735	234,914	117,298
284,399	0,531	234,761	117,053
285,414	0,697	234,621	117,102
286,428	0,648	234,406	116,946
287,443	0,932	234,207	117,056
288,457	0,693	234,133	116,824
289,472	0,693	234,033	116,763
290,487	0,738	233,795	116,669
291,501	0,701	233,602	116,533
292,516	0,799	233,616	116,606
293,530	0,669	233,447	116,411
294,545	0,832	233,281	116,443
295,560	0,785	233,106	116,310
296,574	0,710	232,902	116,139
297,589	0,789	232,776	116,127
298,603	0,821	232,595	116,051
299,618	0,997	232,468	116,114
300,633	0,741	232,551	115,947
301,647	0,918	232,320	115,958
302,662	0,816	232,087	115,752
303,676	1,057	231,851	115,810
304,691	0,767	231,810	115,556
305,706	0,932	231,748	115,642
306,720	0,878	231,541	115,486
307,735	0,981	231,324	115,447
308,749	1,046	231,250	115,450
309,764	0,823	231,057	115,172
310,779	1,030	230,933	115,259
311,793	0,702	230,783	114,923
312,808	0,889	230,660	114,994
313,822	1,012	230,351	114,924
314,837	0,840	230,423	114,818
315,852	0,791	230,202	114,660
316,866	1,049	230,090	114,791
317,881	1,030	229,931	114,687
318,895	0,925	229,692	114,478
319,910	1,077	229,381	114,428
320,925	0,930	229,429	114,330
321,939	0,889	229,251	114,200
322,954	0,804	229,161	114,080
323,968	0,835	229,071	114,049
324,983	0,782	228,881	113,904
325,997	0,851	228,718	113,865
327,012	1,230	228,445	114,005
328,027	0,893	228,509	113,773
329,041	0,850	228,227	113,590
330,056	0,892	228,163	113,579
331,070	1,013	227,995	113,577
332,085	0,941	227,748	113,389
333,100	1,135	227,589	113,446
334,114	0,903	227,479	113,206
335,129	0,961	227,339	113,170
336,143	0,885	227,227	113,047
337,158	0,996	227,070	113,042
338,173	1,017	227,036	113,031
339,187	1,197	226,807	113,042
340,202	1,154	226,563	112,878
341,216	1,129	226,523	112,829
342,231	0,780	226,407	112,500
343,246	1,024	226,299	112,620
344,260	1,025	226,182	112,552
345,275	1,198	225,890	112,526
346,289	1,174	225,798	112,452
347,304	1,121	225,752	112,379
348,319	1,051	225,511	112,197
349,333	1,041	225,329	112,089
350,348	1,140	225,255	112,116
351,362	1,078	225,158	112,012
352,377	1,139	224,999	111,968
353,392	1,426	224,701	112,023
354,406	0,931	224,630	111,610
355,421	192,341	1309,724	1376,047
356,435	154,057	1441,791	1375,876
