DTS Sentinel unit serial number:	SN410029Multiplexer serial number:	ORYXHardware model number:	OX2-SRSoftware version number:	ORYX F/W v4,00 Oryx Data Collector v3.7.2.0data status	okinstallation	B5 Nyhavnadifferential loss correction	single-endedforward channel	channel 2reverse channel	N/Adate	2023/12/12time	10:57:13forward acquisition time	300,00reverse acquisition time	0,00gamma	499,1914k internal	0,3158k external	0,3158temperature offset calibration	1,0000default loss term (dB/km)	0,3820temperature slope calibration	1,0000multiplexer offset coefficient	1,0000multiplexer slope coefficient	1,0000fibre end	0,00T internal ref (°C)	15,01T ext. ref 1 (°C)	-1,23T ext. ref 2 (°C)	-1,49length (m)	temperature (°C)	Stokes	anti-Stokes-744,400	-28,925	0,054	0,023
-743,385	12,639	-0,175	0,099
-742,371	-88,180	0,120	-0,026
-741,356	-126,737	-0,275	-0,030
-740,342	-170,951	0,171	-0,004
-739,327	-143,663	-0,336	0,023
-738,312	-200,000	-0,005	-0,148
-737,298	-142,519	-0,373	0,027
-736,283	-118,807	0,078	0,010
-735,269	20,150	-0,322	0,191
-734,254	-200,000	0,007	0,106
-733,239	-31,695	-0,441	-0,181
-732,225	35,835	0,161	0,104
-731,210	-36,804	-0,148	0,058
-730,196	80,132	0,094	-0,074
-729,181	108,138	-0,082	0,072
-728,167	-200,000	0,001	-0,064
-727,152	83,532	-0,072	-0,058
-726,137	-135,741	-0,030	-0,003
-725,123	-99,064	-0,188	-0,035
-724,108	-78,439	-0,143	0,036
-723,094	-200,000	0,005	-0,067
-722,079	-98,491	-0,102	0,019
-721,064	21,286	-0,080	0,048
-720,050	-69,327	0,036	0,010
-719,035	-163,590	-0,138	-0,005
-718,021	22,348	0,094	0,056
-717,006	-95,904	-0,137	-0,027
-715,991	48,607	-0,012	0,008
-714,977	-52,269	-0,066	-0,022
-713,962	283,507	-0,080	-0,106
-712,948	224,957	-0,034	-0,040
-711,933	-200,000	-0,001	-0,048
-710,918	26,632	-0,076	-0,047
-709,904	-200,000	-0,066	0,000
-708,889	377,630	-0,046	0,070
-707,875	-104,961	-0,149	-0,025
-706,860	66,516	0,088	-0,066
-705,845	-53,703	0,098	-0,033
-704,831	701,401	-0,032	0,061
-703,816	-84,068	0,015	0,004
-702,802	-113,606	-0,126	0,018
-701,787	9,829	-0,122	0,068
-700,772	194,658	-0,113	0,126
-699,758	509,800	-0,013	-0,023
-698,743	-4,720	-0,144	0,073
-697,729	-200,000	0,020	-0,093
-696,714	-9,413	0,035	-0,017
-695,699	183,507	0,031	-0,033
-694,685	-156,930	-0,265	-0,012
-693,670	-108,432	-0,043	0,007
-692,656	-6,586	0,104	0,052
-691,641	305,252	0,023	0,032
-690,627	-61,520	-0,098	0,030
-689,612	-200,000	-0,017	0,130
-688,597	-200,000	0,015	-0,077
-687,583	90,521	0,162	0,134
-686,568	73,226	-0,187	-0,144
-685,554	332,237	0,015	-0,022
-684,539	-113,755	-0,069	0,010
-683,524	128,093	0,023	-0,022
-682,510	35,502	0,155	0,100
-681,495	16,668	-0,031	-0,018
-680,481	800,000	0,011	-0,032
-679,466	243,701	0,067	0,083
-678,451	6,584	-0,047	0,025
-677,437	800,000	0,038	-0,082
-676,422	84,975	-0,097	-0,078
-675,408	800,000	-0,046	0,121
-674,393	86,781	0,013	-0,010
-673,378	343,125	-0,083	-0,120
-672,364	800,000	0,024	-0,070
-671,349	151,818	0,006	-0,006
-670,335	233,931	0,070	0,085
-669,320	-47,720	0,120	-0,042
-668,305	-119,940	0,064	0,008
-667,291	228,367	-0,035	-0,042
-666,276	-24,822	0,163	-0,071
-665,262	800,000	0,022	-0,064
-664,247	241,245	-0,050	-0,062
-663,232	-200,000	0,015	-0,061
-662,218	-200,000	0,003	0,144
-661,203	-200,000	-0,023	-0,099
-660,189	97,542	0,177	-0,150
-659,174	697,569	-0,047	0,091
-658,159	-200,000	-0,003	-0,039
-657,145	253,928	-0,089	-0,112
-656,130	441,278	-0,023	-0,037
-655,116	800,000	-0,042	-0,087
-654,101	71,375	0,070	0,053
-653,086	-4,674	0,044	-0,022
-652,072	800,000	-0,028	-0,063
-651,057	-67,595	0,048	-0,014
-650,043	-200,000	-0,006	-0,104
-649,028	-200,000	0,020	-0,117
-648,014	-200,000	-0,005	0,057
-646,999	-120,040	0,135	0,017
-645,984	-104,043	0,148	0,025
-644,970	284,009	-0,081	-0,108
-643,955	335,079	0,056	-0,080
-642,941	-200,000	0,016	-0,115
-641,926	-85,483	-0,126	0,029
-640,911	-45,959	-0,156	-0,056
-639,897	-200,000	-0,002	-0,055
-638,882	-200,000	0,003	0,017
-637,868	-200,000	0,009	-0,054
-636,853	-163,427	-0,079	0,003
-635,838	-200,000	0,021	0,071
-634,824	-200,000	0,001	0,030
-633,809	-200,000	0,020	-0,156
-632,795	74,964	0,040	-0,031
-631,780	-39,733	0,082	-0,031
-630,765	-200,000	0,005	-0,064
-629,751	78,108	-0,045	-0,035
-628,736	-71,945	-0,072	0,020
-627,722	508,131	-0,015	0,026
-626,707	-12,481	-0,063	0,030
-625,692	292,416	-0,096	0,128
-624,678	-200,000	-0,016	0,062
-623,663	181,652	-0,069	0,074
-622,649	-200,000	0,040	0,210
-621,634	-200,000	0,030	-0,158
-620,619	800,000	-0,055	-0,171
-619,605	-82,013	0,103	0,024
-618,590	83,156	0,075	0,060
-617,576	-200,000	-0,042	0,157
-616,561	-176,330	-0,017	0,000
-615,546	-156,204	0,087	-0,004
-614,532	170,181	-0,060	0,063
-613,517	800,000	-0,043	-0,104
-612,503	124,245	0,026	-0,024
-611,488	-92,053	-0,099	0,020
-610,474	-200,000	0,020	-0,074
-609,459	90,803	0,109	-0,090
-608,444	-121,440	-0,099	-0,012
-607,430	321,013	0,024	-0,033
-606,415	-200,000	0,002	0,011
-605,401	800,000	0,059	-0,126
-604,386	85,581	-0,044	0,035
-603,371	52,138	-0,063	0,044
-602,357	-20,863	0,167	-0,075
-601,342	53,920	0,028	0,020
-600,328	-200,000	-0,017	-0,084
-599,313	642,219	-0,079	-0,149
-598,298	800,000	0,055	-0,113
-597,284	58,555	0,033	0,024
-596,269	343,576	-0,048	0,068
-595,255	-23,038	0,079	0,035
-594,240	30,307	-0,096	0,060
-593,225	800,000	-0,011	-0,036
-592,211	-200,000	-0,011	-0,050
-591,196	177,769	0,039	0,042
-590,182	755,847	-0,027	-0,054
-589,167	-200,000	-0,001	0,069
-588,152	-200,000	0,019	-0,105
-587,138	800,000	-0,006	-0,019
-586,123	89,184	-0,046	0,037
-585,109	248,075	-0,025	-0,031
-584,094	151,327	-0,103	-0,103
-583,079	800,000	-0,048	-0,121
-582,065	-200,000	-0,006	-0,060
-581,050	7,800	-0,069	0,038
-580,036	-141,388	-0,069	0,005
-579,021	-200,000	-0,037	0,130
-578,006	208,112	-0,079	-0,091
-576,992	199,738	-0,036	-0,040
-575,977	336,977	-0,044	-0,063
-574,963	-185,420	0,125	-0,001
-573,948	79,374	0,033	0,026
-572,934	-190,059	-0,144	-0,001
-571,919	746,269	0,051	-0,101
-570,904	175,357	-0,084	0,089
-569,890	-46,379	-0,202	-0,072
-568,875	56,955	0,078	0,056
-567,861	-99,705	-0,075	0,014
-566,846	182,140	0,027	0,030
-565,831	-40,540	-0,121	0,046
-564,817	-101,920	0,098	0,017
-563,802	95,827	-0,086	-0,072
-562,788	90,141	-0,096	-0,078
-561,773	-0,229	-0,088	0,046
-560,758	-171,065	0,055	0,001
-559,744	800,000	0,064	0,147
-558,729	134,006	0,085	0,081
-557,715	-122,834	-0,066	-0,008
-556,700	-118,584	-0,131	-0,017
-555,685	800,000	0,038	-0,082
-554,671	-200,000	0,008	-0,070
-553,656	-200,000	0,015	0,086
-552,642	-75,719	-0,100	0,026
-551,627	242,782	0,058	-0,072
-550,612	-167,375	-0,189	0,005
-549,598	-200,000	0,016	0,054
-548,583	296,154	-0,036	0,048
-547,569	-200,000	-0,003	0,026
-546,554	182,083	0,037	0,040
-545,539	89,785	-0,080	0,065
-544,525	-200,000	0,011	-0,056
-543,510	-86,131	-0,042	-0,009
-542,496	179,513	0,025	-0,027
-541,481	231,932	0,132	-0,159
-540,466	-27,773	-0,083	0,035
-539,452	389,537	0,097	-0,147
-538,437	800,000	-0,052	-0,121
-537,423	-200,000	0,004	0,104
-536,408	-200,000	0,019	-0,067
-535,393	253,952	-0,094	-0,118
-534,379	-80,358	0,041	0,010
-533,364	-44,481	-0,041	0,015
-532,350	508,932	0,072	-0,123
-531,335	-193,594	-0,073	-0,000
-530,321	370,927	-0,027	-0,040
-529,306	-4,871	-0,054	-0,027
-528,291	800,000	-0,017	0,049
-527,277	-200,000	0,000	-0,058
-526,262	-200,000	0,038	-0,130
-525,248	89,256	0,106	0,086
-524,233	136,301	-0,029	0,028
-523,218	-2,155	0,127	0,065
-522,204	207,881	-0,062	-0,070
-521,189	41,651	-0,024	-0,016
-520,175	800,000	-0,010	-0,027
-519,160	-20,798	-0,142	0,063
-518,145	646,492	0,044	0,082
-517,131	-93,299	0,156	-0,031
-516,116	10,337	0,060	-0,034
-515,102	-45,582	0,095	0,034
-514,087	-16,894	-0,072	-0,033
-513,072	274,597	0,042	0,055
-512,058	-51,089	-0,098	-0,033
-511,043	328,388	0,010	0,014
-510,029	123,825	0,064	0,058
-509,014	-200,000	0,029	0,105
-507,999	-132,959	-0,033	0,003
-506,985	24,613	0,066	-0,040
-505,970	121,753	-0,127	-0,115
-504,956	800,000	0,023	0,053
-503,941	272,209	0,063	0,082
-502,926	800,000	0,019	-0,043
-501,912	-80,116	0,164	0,040
-500,897	-200,000	-0,009	-0,084
-499,883	-27,584	-0,141	0,060
-498,868	-69,854	-0,059	-0,016
-497,853	-200,000	-0,016	-0,055
-496,839	-81,859	0,068	0,016
-495,824	276,804	0,091	0,119
-494,810	-62,604	-0,072	0,022
-493,795	800,000	0,037	0,084
-492,781	12,176	0,034	0,019
-491,766	-200,000	0,018	0,089
-490,751	205,990	-0,045	-0,051
-489,737	-19,524	0,091	0,041
-488,722	69,722	-0,039	-0,029
-487,708	800,000	0,016	0,048
-486,693	349,449	0,055	0,080
-485,678	167,118	0,103	0,107
-484,664	16,777	-0,182	-0,105
-483,649	-25,688	-0,072	0,031
-482,635	-47,860	0,054	-0,019
-481,620	-200,000	-0,014	-0,141
-480,605	-200,000	0,022	-0,138
-479,591	800,000	0,047	0,129
-478,576	800,000	-0,052	-0,135
-477,562	270,001	-0,063	0,082
-476,547	523,866	0,040	-0,068
-475,532	563,383	0,046	-0,081
-474,518	-26,065	0,024	-0,010
-473,503	-200,000	-0,010	-0,070
-472,489	-200,000	0,006	0,033
-471,474	165,668	-0,065	0,067
-470,459	220,160	-0,059	0,069
-469,445	76,213	-0,036	-0,028
-468,430	-200,000	0,010	-0,073
-467,416	800,000	0,049	0,122
-466,401	-55,468	0,079	0,026
-465,386	113,486	-0,073	-0,064
-464,372	15,544	0,115	-0,065
-463,357	686,946	0,090	-0,172
-462,343	-152,260	-0,102	0,005
-461,328	-200,000	-0,012	0,061
-460,313	800,000	0,019	-0,048
-459,299	-200,000	0,034	0,126
-458,284	-98,747	-0,075	0,014
-457,270	187,807	-0,049	0,053
-456,255	-138,217	0,019	-0,002
-455,241	156,120	-0,063	0,063
-454,226	89,351	0,096	-0,078
-453,211	-80,703	0,093	-0,022
-452,197	-200,000	0,087	0,000
-451,182	152,309	-0,035	0,035
-450,168	439,082	0,030	0,048
-449,153	42,406	0,065	-0,043
-448,138	541,490	0,028	0,049
-447,124	586,071	-0,065	-0,117
-446,109	60,948	0,071	-0,051
-445,095	-200,000	0,009	-0,056
-444,080	135,609	-0,080	0,076
-443,065	-200,000	0,001	-0,129
-442,051	-146,469	-0,147	0,009
-441,036	378,243	0,053	-0,079
-440,022	-123,354	-0,054	-0,006
-439,007	49,780	-0,124	-0,085
-437,992	800,000	-0,049	0,158
-436,978	25,837	-0,009	-0,005
-435,963	-12,640	0,043	0,020
-434,949	324,254	0,096	-0,134
-433,934	50,781	0,100	0,069
-432,919	194,465	0,068	0,075
-431,905	92,348	-0,090	0,074
-430,890	-200,000	0,022	0,115
-429,876	-200,000	-0,020	-0,083
-428,861	102,179	-0,118	-0,100
-427,846	800,000	0,097	0,222
-426,832	-200,000	0,018	-0,142
-425,817	41,300	-0,026	-0,017
-424,803	-200,000	0,002	0,049
-423,788	-103,173	0,083	0,014
-422,773	-97,675	-0,046	-0,009
-421,759	-52,211	-0,042	0,014
-420,744	-200,000	0,024	0,103
-419,730	800,000	-0,056	-0,165
-418,715	658,449	0,053	-0,100
-417,701	-200,000	-0,012	0,057
-416,686	-121,386	0,141	-0,017
-415,671	182,926	0,007	0,008
-414,657	37,446	0,091	0,059
-413,642	5,950	0,072	0,039
-412,628	-200,000	0,049	0,161
-411,613	-200,000	0,010	-0,037
-410,598	210,791	-0,145	0,166
-409,584	556,482	0,055	-0,097
-408,569	-200,000	0,022	0,094
-407,555	-34,482	0,029	-0,012
-406,540	-200,000	-0,003	0,038
-405,525	96,495	0,057	-0,048
-404,511	-111,562	-0,024	-0,004
-403,496	43,889	-0,046	-0,030
-402,482	-6,959	0,094	0,046
-401,467	800,000	-0,058	0,121
-400,452	173,493	0,097	0,102
-399,438	-63,239	0,151	-0,045
-398,423	-200,000	0,022	0,084
-397,409	-76,195	-0,073	0,019
-396,394	-200,000	0,000	-0,116
-395,379	366,218	0,003	-0,004
-394,365	-200,000	-0,007	-0,038
-393,350	-30,820	0,018	-0,007
-392,336	-54,179	-0,042	0,014
-391,321	-24,447	-0,063	-0,027
-390,306	-18,489	-0,028	0,013
-389,292	-51,931	0,164	0,055
-388,277	-152,940	0,148	0,007
-387,263	-200,000	-0,006	-0,062
-386,248	560,867	0,043	-0,076
-385,233	-120,476	0,062	0,008
-384,219	-126,353	-0,037	-0,004
-383,204	65,942	-0,138	-0,102
-382,190	469,914	0,070	0,115
-381,175	225,743	-0,055	-0,064
-380,160	-21,351	-0,102	-0,045
-379,146	597,155	0,084	-0,152
-378,131	-200,000	0,016	-0,062
-377,117	43,526	-0,052	-0,035
-376,102	-10,017	0,070	0,034
-375,088	58,874	0,039	0,028
-374,073	800,000	-0,039	-0,089
-373,058	-129,358	0,090	0,009
-372,044	-67,859	0,047	0,013
-371,029	-200,000	-0,002	-0,044
-370,015	-35,152	-0,107	0,042
-369,000	29,141	0,064	0,039
-367,985	78,664	-0,196	-0,152
-366,971	-85,793	0,109	0,024
-365,956	-200,000	-0,049	0,214
-364,942	231,000	-0,131	0,156
-363,927	-200,000	0,001	0,234
-362,912	101,632	-0,004	0,004
-361,898	-200,000	-0,037	-0,135
-360,883	-40,371	-0,143	0,054
-359,869	-50,367	0,098	0,033
-358,854	-200,000	0,000	-0,010
-357,839	-65,247	0,057	-0,017
-356,825	800,000	-0,034	0,107
-355,810	-100,701	-0,033	-0,006
-354,796	237,150	-0,021	-0,025
-353,781	270,725	0,025	-0,032
-352,766	123,680	-0,050	0,046
-351,752	141,568	-0,038	-0,036
-350,737	-5,943	-0,045	0,022
-349,723	95,674	-0,085	0,070
-348,708	94,751	0,224	0,185
-347,693	-67,972	0,100	0,028
-346,679	99,154	0,087	0,073
-345,664	-48,199	-0,040	-0,014
-344,650	-25,896	-0,106	0,045
-343,635	13,149	-0,057	0,032
-342,620	-141,504	0,123	-0,009
-341,606	214,664	0,050	-0,058
-340,591	532,807	0,078	0,134
-339,577	-200,000	0,009	-0,048
-338,562	64,333	0,032	-0,023
-337,548	176,919	0,115	-0,122
-336,533	-57,972	0,097	-0,030
-335,518	97,536	0,020	0,017
-334,504	-43,574	0,044	-0,016
-333,489	447,937	0,023	-0,037
-332,475	527,054	-0,040	0,069
-331,460	-200,000	0,041	-0,152
-330,445	40,573	-0,029	0,019
-329,431	800,000	-0,022	0,064
-328,416	500,543	0,040	-0,067
-327,402	350,461	-0,017	0,025
-326,387	-200,000	-0,003	0,093
-325,372	147,808	-0,066	-0,064
-324,358	188,085	-0,088	0,095
-323,343	31,084	-0,056	0,035
-322,329	-113,288	0,071	0,010
-321,314	-200,000	-0,003	0,187
-320,299	102,896	0,088	0,075
-319,285	-200,000	-0,018	-0,084
-318,270	6,309	-0,090	0,048
-317,256	-174,229	-0,066	-0,001
-316,241	-200,000	-0,002	-0,060
-315,226	10,744	-0,130	-0,072
-314,212	800,000	-0,021	0,055
-313,197	43,956	0,170	0,113
-312,183	800,000	-0,053	-0,162
-311,168	556,763	0,035	0,061
-310,153	761,633	0,039	-0,076
-309,139	-124,288	-0,069	-0,008
-308,124	261,605	-0,034	0,043
-307,110	237,936	0,130	0,157
-306,095	-77,035	0,020	0,005
-305,080	800,000	0,009	-0,021
-304,066	122,751	-0,118	0,107
-303,051	254,613	-0,047	-0,058
-302,037	-200,000	0,001	-0,030
-301,022	-20,560	0,041	0,018
-300,008	800,000	0,037	-0,079
-298,993	-21,415	0,166	-0,073
-297,978	-200,000	-0,007	0,096
-296,964	472,687	0,063	-0,104
-295,949	-87,254	-0,183	-0,040
-294,935	-200,000	0,002	-0,016
-293,920	196,857	0,026	-0,028
-292,905	-22,338	0,161	0,071
-291,891	376,379	0,015	-0,022
-290,876	800,000	-0,027	0,056
-289,862	-102,234	-0,100	-0,017
-288,847	337,157	-0,082	-0,116
-287,832	-200,000	0,006	0,078
-286,818	195,218	-0,026	-0,029
-285,803	800,000	-0,039	0,094
-284,789	315,761	0,112	-0,154
-283,774	-200,000	0,048	-0,164
-282,759	-145,135	-0,089	-0,006
-281,745	800,000	0,015	-0,032
-280,730	-200,000	-0,022	-0,072
-279,716	127,091	0,063	0,058
-278,701	150,614	-0,037	0,037
-277,686	141,263	-0,037	0,035
-276,672	-147,767	-0,046	0,003
-275,657	43,510	0,063	-0,042
-274,643	800,000	0,038	-0,093
-273,628	134,375	0,017	-0,016
-272,613	-18,801	-0,112	-0,050
-271,599	-200,000	0,008	0,064
-270,584	-169,013	0,059	0,002
-269,570	-200,000	-0,006	-0,030
-268,555	800,000	-0,028	-0,085
-267,540	-200,000	-0,009	0,097
-266,526	29,402	-0,090	-0,055
-265,511	-200,000	0,020	-0,091
-264,497	-200,000	0,001	-0,119
-263,482	-200,000	0,003	0,046
-262,467	-200,000	-0,005	0,028
-261,453	-179,102	0,075	0,001
-260,438	374,648	-0,019	0,029
-259,424	-80,641	0,128	-0,030
-258,409	10,708	-0,117	-0,065
-257,395	-200,000	0,005	-0,081
-256,380	376,643	0,056	0,083
-255,365	-200,000	0,017	0,074
-254,351	109,234	0,070	0,061
-253,336	510,096	0,034	0,057
-252,322	800,000	-0,032	-0,095
-251,307	-169,533	0,038	-0,001
-250,292	-180,866	-0,116	0,002
-249,278	72,801	0,083	0,063
-248,263	-132,738	-0,053	-0,005
-247,249	-102,029	0,134	0,023
-246,234	-51,650	-0,025	0,008
-245,219	54,364	-0,100	0,070
-244,205	426,189	-0,026	-0,041
-243,190	308,911	0,014	0,019
-242,176	50,819	-0,053	-0,036
-241,161	383,147	-0,054	0,081
-240,146	143,906	0,105	0,101
-239,132	314,813	0,057	0,078
-238,117	42,320	-0,145	-0,095
-237,103	210,180	0,065	-0,074
-236,088	28,366	-0,072	0,044
-235,073	-200,000	0,010	-0,071
-234,059	315,868	0,077	0,106
-233,044	67,312	-0,055	0,040
-232,030	800,000	-0,009	-0,020
-231,015	-46,549	-0,064	-0,023
-230,000	-119,066	-0,045	-0,006
-228,986	-119,193	-0,028	0,003
-227,971	70,880	0,021	-0,016
-226,957	800,000	0,027	-0,067
-225,942	10,719	-0,036	0,020
-224,927	-164,455	0,120	0,004
-223,913	554,648	0,006	0,011
-222,898	430,712	-0,044	0,069
-221,884	-200,000	0,009	-0,040
-220,869	-121,591	-0,100	-0,012
-219,855	-200,000	-0,023	0,122
-218,840	-200,000	0,010	0,114
-217,825	-200,000	0,009	0,108
-216,811	800,000	0,029	-0,083
-215,796	22,600	-0,035	-0,020
-214,782	-200,000	-0,023	0,088
-213,767	190,530	0,069	0,075
-212,752	422,949	0,037	0,058
-211,738	-50,843	0,095	0,032
-210,723	16,835	0,079	0,045
-209,709	-200,000	0,006	-0,084
-208,694	-55,199	-0,028	0,009
-207,679	102,529	0,041	-0,034
-206,665	-100,776	-0,077	-0,014
-205,650	-101,513	-0,108	0,019
-204,636	800,000	0,058	0,122
-203,621	800,000	-0,028	-0,062
-202,606	-200,000	-0,034	0,130
-201,592	501,217	0,033	-0,054
-200,577	341,268	-0,097	-0,137
-199,563	-2,961	0,219	-0,110
-198,548	-200,000	-0,002	-0,076
-197,533	-167,611	-0,048	0,001
-196,519	-200,000	0,011	0,111
-195,504	587,885	0,076	0,136
-194,490	800,000	-0,060	-0,140
-193,475	800,000	-0,017	-0,038
-192,460	85,762	-0,139	0,110
-191,446	150,400	0,046	-0,045
-190,431	-200,000	-0,008	-0,033
-189,417	-152,499	-0,039	0,002
-188,402	102,044	-0,059	0,050
-187,387	-58,048	-0,107	-0,033
-186,373	223,465	0,065	0,075
-185,358	200,018	-0,055	0,061
-184,344	800,000	-0,041	-0,096
-183,329	42,516	-0,147	0,096
-182,315	-200,000	0,017	0,107
-181,300	-28,562	0,085	0,035
-180,285	800,000	0,043	-0,115
-179,271	-200,000	0,014	-0,073
-178,256	303,753	0,051	-0,068
-177,242	309,628	0,087	0,118
-176,227	69,518	-0,047	0,035
-175,212	-200,000	-0,014	0,145
-174,198	477,342	-0,066	0,108
-173,183	800,000	0,059	-0,120
-172,169	-118,324	0,105	-0,013
-171,154	144,662	-0,084	-0,081
-170,139	-9,149	0,061	0,029
-169,125	800,000	-0,021	-0,047
-168,110	84,244	0,031	0,024
-167,096	61,841	0,095	0,068
-166,081	-200,000	-0,007	0,056
-165,066	-21,795	-0,075	-0,033
-164,052	131,568	0,113	-0,105
-163,037	-59,082	0,050	0,015
-162,023	680,199	-0,062	-0,117
-161,008	130,765	0,064	0,059
-159,993	-1,677	0,131	-0,066
-158,979	-65,764	-0,152	-0,043
-157,964	39,530	-0,141	-0,091
-156,950	793,312	0,038	0,076
-155,935	145,192	0,119	0,115
-154,920	-200,000	0,020	0,133
-153,906	53,655	-0,061	-0,042
-152,891	500,101	0,088	0,146
-151,877	-200,000	-0,007	0,080
-150,862	221,340	-0,066	-0,077
-149,847	-111,409	0,081	0,012
-148,833	4,449	-0,139	-0,073
-147,818	-111,532	0,042	0,006
-146,804	352,278	0,050	-0,071
-145,789	-200,000	0,017	0,101
-144,775	-118,512	-0,111	0,014
-143,760	-200,000	0,015	-0,115
-142,745	48,350	0,100	-0,067
-141,731	-13,742	-0,078	-0,036
-140,716	148,373	-0,026	0,025
-139,702	-200,000	0,053	0,218
-138,687	61,402	0,042	-0,030
-137,672	113,193	0,141	0,123
-136,658	-200,000	-0,022	0,147
-135,643	-42,288	-0,155	0,057
-134,629	-18,737	0,142	0,064
-133,614	22,437	0,051	-0,030
-132,599	109,922	-0,026	0,022
-131,585	-80,914	0,079	-0,019
-130,570	-200,000	-0,032	0,105
-129,556	148,427	0,035	-0,034
-128,541	800,000	-0,050	-0,143
-127,526	-64,446	0,053	-0,015
-126,512	-136,005	0,072	0,006
-125,497	-99,301	-0,036	0,006
-124,483	499,034	0,069	0,116
-123,468	-91,167	0,132	0,027
-122,453	-18,174	-0,095	-0,043
-121,439	-162,027	-0,222	-0,008
-120,424	-129,185	-0,118	-0,012
-119,410	800,000	0,057	0,126
-118,395	-97,829	-0,093	-0,017
-117,380	-200,000	0,005	0,102
-116,366	-99,877	-0,070	0,012
-115,351	-200,000	0,010	-0,148
-114,337	-102,652	-0,196	-0,033
-113,322	170,684	0,114	0,117
-112,307	800,000	-0,028	0,076
-111,293	-0,755	0,040	0,020
-110,278	281,273	-0,065	-0,084
-109,264	-200,000	0,001	0,190
-108,249	-14,486	-0,085	-0,039
-107,234	365,849	0,052	0,076
-106,220	595,633	-0,094	-0,169
-105,205	125,441	-0,049	0,045
-104,191	-42,991	0,151	0,055
-103,176	-200,000	0,020	-0,091
-102,162	54,347	0,072	0,050
-101,147	-200,000	-0,068	-0,311
-100,132	494,547	-0,026	0,043
-99,118	-69,910	-0,133	0,036
-98,103	55,166	0,082	-0,057
-97,089	-200,000	0,001	0,027
-96,074	15,236	0,039	0,022
-95,059	-200,000	0,038	-0,000
-94,045	-200,000	0,000	-0,072
-93,030	-41,340	-0,137	-0,050
-92,016	800,000	-0,032	0,083
-91,001	0,823	0,034	-0,018
-89,986	230,683	-0,088	0,103
-88,972	737,464	0,024	0,046
-87,957	-156,882	0,104	-0,004
-86,943	-86,457	-0,028	0,006
-85,928	0,857	-0,055	-0,028
-84,913	-40,667	0,100	-0,037
-83,899	135,524	0,048	0,045
-82,884	180,990	-0,028	0,030
-81,870	800,000	-0,053	-0,129
-80,855	-200,000	-0,006	0,104
-79,840	722,234	0,024	-0,046
-78,826	133,414	-0,140	-0,130
-77,811	-69,287	-0,096	0,026
-76,797	800,000	-0,036	0,081
-75,782	294,621	0,041	-0,055
-74,767	261,531	-0,031	-0,039
-73,753	-110,788	0,041	0,006
-72,738	8,147	0,034	0,018
-71,724	563,001	-0,022	-0,038
-70,709	774,749	0,072	-0,142
-69,694	800,000	-0,036	-0,101
-68,680	-200,000	-0,000	0,104
-67,665	104,910	-0,089	0,075
-66,651	310,387	-0,103	0,139
-65,636	800,000	-0,034	0,090
-64,622	21,276	-0,083	0,048
-63,607	-66,561	-0,074	-0,021
-62,592	-16,795	-0,120	0,054
-61,578	-200,000	0,016	0,057
-60,563	204,687	0,136	0,152
-59,549	35,236	-0,095	0,060
-58,534	20,633	-1,938	-1,123
-57,519	-200,000	-0,196	-0,858
-56,505	-200,000	-1,320	-5,070
-55,490	-35,027	0,931	0,362
-54,476	800,000	5,314	12,122
-53,461	-200,000	17,687	288,603
-52,446	800,000	729,262	2230,916
-51,432	537,509	1645,571	2816,199
-50,417	109,518	1635,303	1405,467
-49,403	75,400	1287,094	973,553
-48,388	31,707	1027,240	632,789
-47,373	20,140	989,081	571,158
-46,359	18,306	976,773	558,019
-45,344	15,352	972,962	546,156
-44,330	15,571	971,395	545,971
-43,315	15,108	969,418	543,327
-42,300	14,956	968,591	542,345
-41,286	14,961	967,605	541,788
-40,271	15,004	966,292	541,171
-39,257	15,041	965,472	540,812
-38,242	15,024	964,832	540,376
-37,227	15,049	963,931	539,931
-36,213	15,032	962,917	539,286
-35,198	15,033	961,954	538,731
-34,184	15,079	961,199	538,435
-33,169	14,950	960,400	537,550
-32,154	15,055	959,406	537,311
-31,140	15,060	958,567	536,835
-30,125	15,045	957,968	536,429
-29,111	15,055	956,913	535,850
-28,096	15,068	956,345	535,553
-27,082	15,090	955,635	535,205
-26,067	15,031	954,931	534,598
-25,052	15,081	954,026	534,232
-24,038	15,030	953,548	533,778
-23,023	14,991	952,911	533,275
-22,009	15,060	952,267	533,115
-20,994	15,041	951,722	532,729
-19,979	15,116	950,862	532,465
-18,965	15,014	950,233	531,766
-17,950	15,012	949,609	531,391
-16,936	14,959	949,037	530,880
-15,921	14,975	948,327	530,511
-14,906	14,895	947,650	529,856
-13,892	14,890	946,906	529,407
-12,877	14,899	946,241	529,041
-11,863	14,944	945,762	528,896
-10,848	14,907	945,222	528,453
-9,833	15,049	944,733	528,611
-8,819	14,994	944,141	528,084
-7,804	14,959	943,456	527,568
-6,790	14,982	942,941	527,334
-5,775	14,962	942,351	526,917
-4,760	14,969	941,559	526,478
-3,746	14,942	941,098	526,114
-2,731	14,786	940,362	525,186
-1,717	14,734	939,809	524,694
-0,702	14,762	939,070	524,348
0,313	14,582	938,368	524,180
1,327	17,841	936,132	533,142
2,342	26,864	792,738	475,341
3,356	23,474	457,719	269,264
4,371	-3,403	313,572	155,974
5,386	-7,438	295,708	143,000
6,400	-9,360	289,608	138,133
7,415	-9,834	287,116	136,468
8,429	-10,097	285,512	135,436
9,444	-10,080	284,473	134,947
10,459	-10,036	283,891	134,702
11,473	-10,112	283,345	134,357
12,488	-10,006	282,828	134,203
13,502	-10,083	282,367	133,897
14,517	-10,168	281,947	133,604
15,531	-10,211	281,581	133,378
16,546	-10,096	280,962	133,183
17,561	-10,332	280,621	132,783
18,575	-9,972	280,204	132,918
19,590	-10,031	279,898	132,705
20,604	-10,165	279,752	132,496
21,619	-10,176	279,278	132,249
22,634	-10,025	278,931	132,218
23,648	-10,237	278,782	131,933
24,663	-10,094	278,351	131,854
25,677	-10,283	278,119	131,553
26,692	-10,091	277,754	131,550
27,707	-10,056	277,474	131,438
28,721	-10,161	277,339	131,263
29,736	-10,216	277,019	131,049
30,750	-10,142	276,692	130,952
31,765	-10,234	276,428	130,728
32,780	-10,131	276,102	130,659
33,794	-10,177	276,006	130,560
34,809	-10,064	275,618	130,471
35,823	-10,236	275,361	130,175
36,838	-10,270	275,363	130,133
37,853	-10,340	274,909	129,841
38,867	-10,278	274,657	129,769
39,882	-10,195	274,538	129,779
40,896	-10,226	274,144	129,552
41,911	-10,319	273,891	129,334
42,926	-10,101	273,642	129,408
43,940	-10,285	273,581	129,196
44,955	-10,261	273,277	129,063
45,969	-10,344	273,123	128,902
46,984	-10,391	272,840	128,713
47,999	-10,707	272,721	128,351
49,013	-10,725	272,277	128,115
50,028	-11,015	272,141	127,770
51,042	-10,887	271,624	127,634
52,057	-10,851	271,516	127,605
53,071	-10,830	271,284	127,505
54,086	-10,857	271,196	127,427
55,101	-10,751	270,930	127,388
56,115	-10,487	270,910	127,611
57,130	-10,224	270,747	127,765
58,144	-10,057	270,564	127,821
59,159	-9,949	270,212	127,744
60,174	-10,103	269,965	127,474
61,188	-10,265	269,872	127,269
62,203	-10,170	269,666	127,248
63,217	-10,003	269,139	127,141
64,232	-10,242	269,176	126,928
65,247	-10,089	268,888	126,921
66,261	-10,201	268,781	126,758
67,276	-10,234	268,368	126,521
68,290	-10,522	268,127	126,134
69,305	-10,474	268,100	126,153
70,320	-10,379	267,626	126,005
71,334	-10,350	267,611	126,014
72,349	-9,997	267,242	126,149
73,363	-10,152	267,246	125,999
74,378	-10,199	266,878	125,771
75,393	-10,232	266,775	125,682
76,407	-10,098	266,567	125,694
77,422	-10,074	266,329	125,592
78,436	-10,223	266,228	125,398
79,451	-9,908	265,871	125,505
80,466	-10,192	265,567	125,093
81,480	-10,259	265,289	124,890
82,495	-10,296	265,175	124,793
83,509	-10,420	265,042	124,607
84,524	-10,239	264,659	124,579
85,539	-10,588	264,468	124,164
86,553	-10,331	264,241	124,277
87,568	-10,172	264,032	124,310
88,582	-10,223	263,864	124,174
89,597	-10,382	263,765	123,974
90,611	-10,133	263,483	124,054
91,626	-10,133	263,391	123,999
92,641	-10,278	263,122	123,732
93,655	-10,153	263,009	123,780
94,670	-10,344	262,766	123,483
95,684	-10,218	262,532	123,475
96,699	-10,083	262,306	123,478
97,714	-10,116	262,038	123,311
98,728	-10,241	261,938	123,142
99,743	-10,508	261,658	122,762
100,757	-10,431	261,347	122,673
101,772	-10,283	261,278	122,762
102,787	-10,265	261,125	122,695
103,801	-10,235	260,912	122,610
104,816	-10,149	260,725	122,588
105,830	-10,106	260,532	122,524
106,845	-10,049	260,403	122,502
107,860	-10,109	260,203	122,345
108,874	-10,296	260,206	122,170
109,889	-10,055	259,747	122,156
110,903	-10,241	259,686	121,953
111,918	-10,101	259,400	121,930
112,933	-10,068	259,222	121,865
113,947	-10,034	259,063	121,809
114,962	-10,031	258,925	121,736
115,976	-10,207	258,746	121,487
116,991	-9,857	258,344	121,594
118,006	-9,999	258,248	121,414
119,020	-10,203	258,292	121,245
120,035	-9,973	257,939	121,269
121,049	-10,109	257,790	121,069
122,064	-9,907	257,470	121,085
123,079	-10,087	257,365	120,868
124,093	-10,196	257,158	120,665
125,108	-10,389	257,014	120,418
126,122	-10,494	256,741	120,188
127,137	-10,657	256,560	119,951
128,151	-10,543	256,339	119,937
129,166	-10,430	256,255	119,984
130,181	-10,402	255,914	119,838
131,195	-10,182	255,761	119,946
132,210	-10,074	255,625	119,965
133,224	-10,175	255,601	119,856
134,239	-9,968	255,216	119,844
135,254	-9,914	255,045	119,799
136,268	-10,064	254,807	119,547
137,283	-10,303	254,430	119,154
138,297	-10,544	254,412	118,927
139,312	-10,504	254,163	118,835
140,327	-10,242	253,984	118,966
141,341	-10,082	253,955	119,079
142,356	-10,112	253,880	119,007
143,370	-10,115	253,637	118,881
144,385	-9,868	253,372	118,957
145,400	-9,817	253,172	118,896
146,414	-9,896	253,033	118,753
147,429	-9,708	252,775	118,782
148,443	-9,930	252,802	118,594
149,458	-9,790	252,533	118,577
150,473	-10,126	252,453	118,242
151,487	-9,978	252,134	118,208
152,502	-9,739	251,805	118,247
153,516	-9,874	251,609	118,030
154,531	-9,955	251,593	117,943
155,546	-10,019	251,294	117,738
156,560	-9,939	251,133	117,719
157,575	-9,975	251,003	117,618
158,589	-9,879	250,816	117,601
159,604	-9,808	250,559	117,530
160,619	-10,099	250,535	117,262
161,633	-9,869	250,274	117,323
162,648	-10,008	250,156	117,141
163,662	-9,949	250,053	117,132
164,677	-9,732	249,803	117,187
165,692	-9,652	249,600	117,149
166,706	-9,649	249,388	117,041
167,721	-9,899	249,335	116,796
168,735	-9,847	249,121	116,729
169,750	-9,880	249,038	116,652
170,764	-9,842	248,959	116,637
171,779	-9,710	248,651	116,593
172,794	-9,776	248,512	116,461
173,808	-9,982	248,465	116,257
174,823	-10,021	248,003	115,997
175,837	-10,439	247,906	115,592
176,852	-9,926	247,808	115,965
177,867	-9,741	247,669	116,044
178,881	-10,063	247,675	115,768
179,896	-9,897	247,280	115,711
180,910	-9,921	247,306	115,693
181,925	-9,947	246,894	115,468
182,940	-9,913	246,829	115,456
183,954	-9,904	246,577	115,335
184,969	-9,778	246,564	115,423
185,983	-9,757	246,393	115,351
186,998	-9,929	246,207	115,110
188,013	-9,630	246,030	115,265
189,027	-9,700	245,843	115,109
190,042	-9,731	245,590	114,955
191,056	-9,643	245,561	115,004
192,071	-9,766	245,335	114,786
193,086	-9,932	245,260	114,604
194,100	-9,917	245,035	114,501
195,115	-9,841	244,899	114,489
196,129	-9,799	244,695	114,418
197,144	-9,738	244,170	114,213
198,159	-9,814	244,177	114,143
199,173	-9,633	244,036	114,217
200,188	-9,569	243,915	114,202
201,202	-9,936	243,573	113,731
202,217	-10,312	243,443	113,352
203,232	-10,552	243,217	113,040
204,246	-9,931	243,052	113,461
205,261	-9,313	243,058	113,959
206,275	-9,283	242,886	113,892
207,290	-4,670	244,818	118,581
208,304	1,787	246,779	124,855
209,319	4,020	247,399	127,001
210,334	4,347	247,196	127,156
211,348	4,238	247,158	127,035
212,363	4,222	246,927	126,892
213,377	4,386	246,815	126,958
214,392	4,416	246,564	126,842
215,407	4,266	246,551	126,701
216,421	4,409	246,253	126,653
217,436	4,275	246,264	126,538
218,450	4,255	245,978	126,364
219,465	4,142	245,711	126,122
220,480	3,773	245,638	125,772
221,494	3,752	245,411	125,627
222,509	3,972	245,171	125,673
223,523	4,046	245,118	125,695
224,538	3,985	244,837	125,490
225,553	3,537	244,770	125,079
226,567	3,760	244,602	125,163
227,582	3,912	244,452	125,199
228,596	3,814	244,373	125,068
229,611	3,810	244,057	124,892
230,626	3,815	243,842	124,775
231,640	3,735	243,736	124,645
232,655	4,085	243,577	124,836
233,669	3,671	243,323	124,359
234,684	3,568	243,239	124,222
235,699	4,129	243,093	124,590
236,713	4,050	243,073	124,505
237,728	3,748	242,855	124,138
238,742	3,715	242,469	123,903
239,757	3,708	242,489	123,896
240,772	3,712	242,428	123,858
241,786	3,673	242,289	123,744
242,801	3,725	242,011	123,633
243,815	3,848	241,845	123,636
244,830	3,868	241,708	123,571
245,844	4,005	241,611	123,620
246,859	3,775	241,358	123,295
247,874	3,875	241,060	123,212
248,888	3,913	241,060	123,232
249,903	4,087	240,936	123,296
250,917	3,944	240,832	123,118
251,932	3,929	240,621	122,987
252,947	4,116	240,483	123,055
253,961	3,724	240,395	122,686
254,976	3,655	240,212	122,526
255,990	3,791	240,106	122,570
257,005	3,853	239,825	122,465
258,020	3,720	239,824	122,348
259,034	3,743	239,522	122,201
260,049	3,507	239,392	121,936
261,063	3,656	239,074	121,881
262,078	3,803	239,112	122,006
263,093	3,752	238,929	121,862
264,107	3,833	238,946	121,924
265,122	3,773	238,764	121,773
266,136	4,096	238,364	121,814
267,151	4,031	238,320	121,729
268,166	3,950	238,240	121,613
269,180	3,772	237,933	121,305
270,195	4,019	237,913	121,479
271,209	4,193	237,632	121,462
272,224	3,898	237,414	121,107
273,239	3,688	237,372	120,909
274,253	3,692	237,189	120,809
275,268	3,429	237,179	120,586
276,282	3,805	236,906	120,731
277,297	3,658	236,618	120,459
278,312	3,558	236,656	120,389
279,326	4,022	236,527	120,677
280,341	3,795	236,313	120,379
281,355	3,989	236,117	120,420
282,370	3,915	235,987	120,285
283,384	3,758	235,850	120,082
284,399	3,644	235,598	119,854
285,414	3,662	235,580	119,848
286,428	3,970	235,438	120,005
287,443	3,870	235,190	119,790
288,457	3,962	235,081	119,796
289,472	3,926	234,995	119,713
290,487	3,766	234,837	119,498
291,501	3,564	234,639	119,229
292,516	3,713	234,522	119,274
293,530	3,515	234,386	119,041
294,545	3,867	234,204	119,212
295,560	3,865	234,052	119,122
296,574	3,826	234,005	119,057
297,589	3,796	233,925	118,982
298,603	3,757	233,749	118,852
299,618	4,091	233,532	118,990
300,633	3,945	233,462	118,830
301,647	3,932	233,308	118,731
302,662	4,298	233,116	118,906
303,676	3,840	233,031	118,498
304,691	3,997	232,764	118,472
305,706	3,924	232,692	118,369
306,720	3,899	232,604	118,295
307,735	3,909	232,298	118,137
308,749	3,594	232,141	117,804
309,764	3,736	232,013	117,838
310,779	3,611	231,717	117,581
311,793	3,537	231,669	117,490
312,808	3,601	231,471	117,428
313,822	3,571	231,401	117,359
314,837	3,649	231,302	117,357
315,852	3,621	231,068	117,207
316,866	3,840	231,161	117,411
317,881	4,274	230,888	117,593
318,895	3,914	230,755	117,240
319,910	3,864	230,601	117,114
320,925	3,775	230,289	116,877
321,939	4,131	230,207	117,096
322,954	4,315	230,223	117,233
323,968	3,839	230,133	116,816
324,983	3,776	229,834	116,606
325,997	3,956	229,762	116,695
327,012	3,772	229,581	116,453
328,027	4,072	229,396	116,576
329,041	4,373	229,435	116,813
330,056	4,427	229,342	116,796
331,070	4,180	229,139	116,496
332,085	4,147	228,896	116,337
333,100	4,313	228,687	116,346
334,114	4,201	228,480	116,145
335,129	4,324	228,299	116,135
336,143	4,219	228,345	116,070
337,158	4,301	228,097	115,995
338,173	4,084	227,995	115,770
339,187	3,904	227,729	115,489
340,202	4,181	227,595	115,618
341,216	4,046	227,546	115,482
342,231	3,933	227,292	115,258
343,246	4,149	227,182	115,354
344,260	4,207	227,150	115,371
345,275	3,968	226,999	115,106
346,289	4,034	226,897	115,093
347,304	3,883	226,801	114,921
348,319	3,931	226,562	114,825
349,333	3,892	226,199	114,602
350,348	3,631	226,054	114,324
351,362	3,455	226,059	114,185
352,377	3,224	225,928	113,937
353,392	3,329	225,557	113,817
354,406	3,139	225,349	113,562
355,421	195,365	1321,895	1397,893
356,435	156,571	1455,486	1397,887
