DTS Sentinel unit serial number:	SN410029Multiplexer serial number:	ORYXHardware model number:	OX2-SRSoftware version number:	ORYX F/W v4,00 Oryx Data Collector v3.7.2.0data status	okinstallation	B5 Nyhavnadifferential loss correction	single-endedforward channel	channel 2reverse channel	N/Adate	2023/12/13time	00:22:13forward acquisition time	300,00reverse acquisition time	0,00gamma	499,1914k internal	0,3159k external	0,3159temperature offset calibration	1,0000default loss term (dB/km)	0,3820temperature slope calibration	1,0000multiplexer offset coefficient	1,0000multiplexer slope coefficient	1,0000fibre end	0,00T internal ref (°C)	14,30T ext. ref 1 (°C)	-2,23T ext. ref 2 (°C)	-2,55length (m)	temperature (°C)	Stokes	anti-Stokes-744,400	-5,793	0,113	0,057
-743,385	-171,042	-0,289	0,007
-742,371	-140,862	0,225	0,017
-741,356	-25,608	-0,184	0,080
-740,342	-200,000	0,035	0,151
-739,327	-95,430	-0,355	-0,070
-738,312	-64,458	0,077	-0,023
-737,298	-71,845	-0,181	-0,049
-736,283	-200,000	0,017	-0,091
-735,269	-66,254	-0,244	0,071
-734,254	-151,160	0,243	-0,013
-733,239	-77,667	-0,427	-0,108
-732,225	61,819	0,181	0,133
-731,210	-200,000	-0,009	0,042
-730,196	104,670	-0,035	0,030
-729,181	-200,000	0,004	0,023
-728,167	-70,255	-0,038	-0,010
-727,152	-92,826	0,110	-0,022
-726,137	-200,000	-0,031	-0,102
-725,123	800,000	0,008	0,024
-724,108	800,000	-0,041	-0,131
-723,094	800,000	-0,022	-0,065
-722,079	44,271	-0,164	-0,111
-721,064	15,721	0,067	-0,039
-720,050	-200,000	0,001	0,040
-719,035	-61,229	-0,109	-0,034
-718,021	74,683	0,077	-0,059
-717,006	19,304	-0,171	-0,101
-715,991	800,000	-0,050	-0,152
-714,977	-200,000	-0,015	-0,105
-713,962	158,960	0,065	-0,067
-712,948	-28,445	-0,102	-0,043
-711,933	-200,000	-0,008	-0,143
-710,918	-152,572	-0,137	-0,007
-709,904	176,184	-0,087	0,094
-708,889	-180,647	-0,121	-0,002
-707,875	3,481	-0,066	-0,036
-706,860	-200,000	-0,032	-0,141
-705,845	366,545	0,088	-0,131
-704,831	192,907	0,158	-0,176
-703,816	-200,000	0,009	0,109
-702,802	-200,000	0,028	0,103
-701,787	497,220	-0,064	-0,109
-700,772	-62,336	0,179	-0,054
-699,758	114,442	0,090	-0,081
-698,743	-200,000	-0,006	0,084
-697,729	258,607	-0,057	-0,073
-696,714	-92,983	-0,032	0,007
-695,699	389,133	-0,051	-0,078
-694,685	205,403	-0,015	0,017
-693,670	-35,237	-0,117	-0,046
-692,656	-189,980	-0,007	0,000
-691,641	-200,000	0,007	0,063
-690,627	-57,612	-0,056	-0,018
-689,612	-200,000	0,013	-0,121
-688,597	143,478	-0,037	0,037
-687,583	50,091	-0,060	0,042
-686,568	-19,311	-0,048	0,022
-685,554	220,007	-0,091	-0,107
-684,539	-20,751	-0,089	0,040
-683,524	-15,528	0,098	-0,046
-682,510	-64,784	-0,039	0,012
-681,495	193,627	-0,098	0,109
-680,481	800,000	-0,044	-0,121
-679,466	-200,000	-0,008	-0,265
-678,451	-200,000	0,019	-0,063
-677,437	117,634	-0,147	0,133
-676,422	-200,000	0,019	0,093
-675,408	-200,000	0,005	0,060
-674,393	800,000	-0,026	-0,068
-673,378	84,708	0,017	-0,014
-672,364	-36,940	-0,056	-0,022
-671,349	-200,000	-0,001	0,043
-670,335	18,397	0,079	0,046
-669,320	-200,000	0,007	-0,059
-668,305	72,257	-0,047	0,036
-667,291	-16,806	-0,069	0,032
-666,276	-147,312	-0,198	-0,012
-665,262	150,168	-0,059	-0,059
-664,247	214,149	-0,103	-0,120
-663,232	-200,000	-0,024	-0,080
-662,218	-14,723	0,089	-0,042
-661,203	-112,419	0,054	-0,008
-660,189	14,487	-0,018	0,011
-659,174	392,726	-0,076	-0,117
-658,159	800,000	0,021	0,052
-657,145	330,050	0,078	-0,110
-656,130	236,051	-0,090	-0,109
-655,116	751,694	-0,081	0,162
-654,101	800,000	-0,035	0,079
-653,086	156,347	-0,126	0,128
-652,072	206,887	-0,062	-0,071
-651,057	716,718	-0,010	0,019
-650,043	-200,000	-0,003	-0,042
-649,028	119,380	0,052	0,047
-648,014	-165,184	0,124	-0,004
-646,999	800,000	-0,031	0,068
-645,984	-54,749	-0,010	-0,003
-644,970	-200,000	0,016	-0,087
-643,955	-81,243	-0,165	0,040
-642,941	-200,000	0,006	-0,144
-641,926	-92,123	-0,092	-0,019
-640,911	450,780	0,106	-0,172
-639,897	58,189	0,101	-0,073
-638,882	186,067	-0,058	-0,063
-637,868	31,621	-0,095	0,060
-636,853	-58,939	-0,144	0,045
-635,838	34,356	0,082	-0,052
-634,824	161,231	0,086	0,088
-633,809	-200,000	0,020	0,099
-632,795	-39,162	0,109	0,042
-631,780	106,391	-0,161	0,140
-630,765	732,310	-0,029	-0,058
-629,751	-60,114	0,044	0,014
-628,736	273,832	-0,038	-0,049
-627,722	-200,000	-0,038	-0,176
-626,707	405,959	-0,042	-0,065
-625,692	-200,000	0,007	0,168
-624,678	-169,959	-0,046	0,001
-623,663	221,221	-0,068	0,081
-622,649	-200,000	-0,016	-0,071
-621,634	96,830	0,080	-0,067
-620,619	-71,237	0,029	0,008
-619,605	-200,000	-0,001	0,171
-618,590	407,360	-0,041	0,064
-617,576	-200,000	-0,013	-0,067
-616,561	-14,622	-0,075	0,035
-615,546	-200,000	-0,018	-0,061
-614,532	176,454	-0,014	-0,015
-613,517	429,125	-0,058	0,092
-612,503	-200,000	-0,008	-0,125
-611,488	-200,000	0,001	-0,043
-610,474	285,544	0,024	0,032
-609,459	-200,000	-0,008	0,062
-608,444	-184,031	-0,136	-0,002
-607,430	-200,000	0,003	0,038
-606,415	-200,000	0,008	-0,046
-605,401	137,264	0,053	-0,051
-604,386	409,806	0,022	-0,035
-603,371	30,205	0,048	-0,030
-602,357	246,382	-0,013	-0,016
-601,342	-200,000	0,004	-0,064
-600,328	-200,000	-0,037	0,154
-599,313	-92,904	-0,038	0,008
-598,298	-200,000	0,024	-0,122
-597,284	187,161	0,089	0,097
-596,269	-200,000	0,014	0,046
-595,255	-200,000	0,016	0,054
-594,240	553,104	0,020	0,035
-593,225	-200,000	-0,026	-0,093
-592,211	800,000	-0,014	-0,038
-591,196	-79,441	0,126	0,031
-590,182	-15,288	-0,022	0,010
-589,167	10,181	0,108	-0,060
-588,152	80,211	0,086	-0,067
-587,138	269,574	-0,071	-0,091
-586,123	120,471	0,159	-0,145
-585,109	-200,000	-0,013	-0,083
-584,094	225,189	0,042	-0,049
-583,079	-96,290	0,067	-0,013
-582,065	735,906	-0,037	-0,072
-581,050	-74,599	-0,108	0,028
-580,036	-160,832	-0,094	0,004
-579,021	517,623	0,038	-0,065
-578,006	-200,000	-0,023	-0,078
-576,992	-200,000	-0,010	-0,168
-575,977	179,470	0,144	-0,155
-574,963	96,225	0,091	0,076
-573,948	-50,665	0,016	0,006
-572,934	-169,551	-0,027	-0,001
-571,919	-122,538	-0,100	0,012
-570,904	190,759	-0,051	-0,056
-569,890	-200,000	0,015	-0,102
-568,875	-3,612	0,080	0,040
-567,861	800,000	0,033	-0,070
-566,846	283,616	0,073	0,097
-565,831	216,180	-0,059	-0,069
-564,817	281,368	-0,048	-0,063
-563,802	49,581	-0,145	0,100
-562,788	-200,000	0,004	0,210
-561,773	340,002	0,052	-0,074
-560,758	238,700	0,040	0,048
-559,744	145,608	0,088	0,087
-558,729	20,292	0,129	0,076
-557,715	400,434	-0,090	-0,139
-556,700	-94,320	-0,139	-0,028
-555,685	452,072	0,009	-0,015
-554,671	-62,037	0,017	0,005
-553,656	393,067	0,036	-0,056
-552,642	-200,000	-0,002	0,057
-551,627	386,638	0,021	0,031
-550,612	689,918	-0,026	-0,050
-549,598	455,205	0,038	-0,061
-548,583	-200,000	-0,003	0,030
-547,569	-200,000	0,002	0,060
-546,554	328,001	0,075	-0,106
-545,539	510,428	-0,021	0,036
-544,525	-0,081	-0,053	0,027
-543,510	-126,135	-0,084	-0,009
-542,496	-200,000	0,009	-0,094
-541,481	102,705	-0,061	-0,053
-540,466	-176,132	-0,123	-0,002
-539,452	-99,049	0,142	-0,026
-538,437	470,437	0,029	0,049
-537,423	800,000	-0,104	0,230
-536,408	-200,000	-0,011	-0,069
-535,393	227,034	-0,063	-0,075
-534,379	-41,046	0,146	-0,055
-533,364	-200,000	0,027	-0,132
-532,350	800,000	0,015	-0,043
-531,335	-200,000	-0,014	0,058
-530,321	-106,061	0,097	0,016
-529,306	-24,408	0,059	0,026
-528,291	334,510	-0,061	-0,087
-527,277	150,717	0,046	-0,045
-526,262	166,610	0,073	0,076
-525,248	53,813	0,067	-0,047
-524,233	-200,000	-0,007	-0,038
-523,218	345,859	-0,038	-0,055
-522,204	-200,000	0,027	-0,107
-521,189	61,760	-0,063	0,045
-520,175	-200,000	0,000	-0,007
-519,160	386,620	-0,051	0,078
-518,145	-27,454	-0,117	0,049
-517,131	181,982	-0,093	-0,101
-516,116	148,937	0,046	0,046
-515,102	401,132	-0,041	0,063
-514,087	380,766	0,061	0,092
-513,072	800,000	-0,023	-0,052
-512,058	415,966	-0,027	-0,042
-511,043	-200,000	-0,003	-0,064
-510,029	-1,439	0,082	0,042
-509,014	60,675	0,082	0,060
-507,999	800,000	-0,021	0,063
-506,985	536,842	0,022	-0,039
-505,970	124,826	-0,093	-0,085
-504,956	-90,697	-0,081	-0,017
-503,941	39,910	0,040	-0,026
-502,926	800,000	-0,047	0,100
-501,912	800,000	-0,030	0,070
-500,897	100,240	0,054	-0,046
-499,883	-200,000	-0,002	-0,064
-498,868	800,000	0,044	-0,113
-497,853	250,105	-0,087	-0,108
-496,839	800,000	-0,066	0,139
-495,824	435,437	0,080	0,128
-494,810	590,225	0,039	0,071
-493,795	-200,000	-0,018	0,184
-492,781	-83,192	-0,119	-0,028
-491,766	-46,544	0,078	-0,028
-490,751	-200,000	0,014	0,213
-489,737	-19,457	0,082	-0,037
-488,722	405,707	-0,083	-0,128
-487,708	501,118	0,081	0,137
-486,693	-116,905	0,181	-0,024
-485,678	692,099	-0,066	-0,127
-484,664	-200,000	-0,012	-0,081
-483,649	-170,715	-0,090	0,002
-482,635	-125,748	-0,159	0,017
-481,620	800,000	0,101	0,205
-480,605	4,693	-0,110	-0,059
-479,591	588,797	-0,045	-0,080
-478,576	78,008	-0,057	0,045
-477,562	605,700	-0,033	0,060
-476,547	487,597	-0,074	-0,124
-475,532	800,000	0,039	-0,104
-474,518	101,904	0,008	0,007
-473,503	-200,000	-0,004	0,073
-472,489	-200,000	0,033	0,128
-471,474	-15,589	-0,165	0,077
-470,459	331,755	0,039	0,055
-469,445	67,746	-0,099	-0,074
-468,430	8,327	-0,245	0,134
-467,416	55,346	-0,059	0,041
-466,401	40,291	-0,029	-0,019
-465,386	800,000	-0,029	0,072
-464,372	800,000	-0,030	-0,067
-463,357	800,000	-0,036	-0,077
-462,343	99,281	0,031	0,026
-461,328	-200,000	0,014	-0,062
-460,313	-87,127	-0,020	0,004
-459,299	-103,597	0,148	0,025
-458,284	800,000	0,051	0,128
-457,270	800,000	-0,020	-0,062
-456,255	-51,316	0,058	0,020
-455,241	-33,974	-0,063	-0,025
-454,226	766,066	-0,030	0,059
-453,211	-200,000	-0,025	0,119
-452,197	121,385	-0,027	0,025
-451,182	-98,626	0,081	-0,015
-450,168	482,822	0,043	0,071
-449,153	32,404	-0,039	-0,024
-448,138	25,853	-0,093	-0,056
-447,124	128,026	0,084	0,078
-446,109	800,000	-0,032	-0,087
-445,095	201,271	0,112	-0,126
-444,080	32,675	-0,082	-0,052
-443,065	155,345	-0,034	0,034
-442,051	379,356	0,076	0,114
-441,036	146,180	0,063	-0,062
-440,022	-26,210	0,042	0,018
-439,007	800,000	-0,028	-0,057
-437,992	313,899	0,095	-0,130
-436,978	234,500	-0,092	0,110
-435,963	31,319	0,072	0,045
-434,949	194,555	0,048	-0,053
-433,934	-200,000	0,003	0,156
-432,919	800,000	-0,014	0,036
-431,905	-200,000	-0,021	0,092
-430,890	-3,984	0,044	0,022
-429,876	-200,000	0,007	0,099
-428,861	-42,978	0,071	-0,026
-427,846	-26,817	0,054	0,023
-426,832	-133,352	-0,179	0,016
-425,817	-124,104	0,098	0,011
-424,803	-58,382	0,153	-0,048
-423,788	169,678	0,088	0,091
-422,773	-53,563	0,103	0,034
-421,759	671,708	0,084	-0,160
-420,744	277,947	-0,079	0,102
-419,730	222,120	0,052	-0,061
-418,715	621,295	0,015	-0,028
-417,701	-200,000	0,025	0,081
-416,686	-44,117	0,148	-0,054
-415,671	800,000	-0,027	0,072
-414,657	-200,000	-0,017	0,123
-413,642	321,729	-0,112	-0,155
-412,628	-131,773	0,059	-0,006
-411,613	800,000	0,056	0,144
-410,598	-95,472	0,175	0,034
-409,584	-200,000	0,039	0,174
-408,569	800,000	-0,025	-0,072
-407,555	9,386	0,088	0,048
-406,540	550,061	0,011	-0,020
-405,525	-200,000	0,008	-0,042
-404,511	-49,585	-0,128	-0,044
-403,496	540,135	0,020	0,035
-402,482	312,053	0,051	-0,070
-401,467	-33,564	0,034	0,014
-400,452	-142,872	0,140	-0,010
-399,438	179,660	-0,076	-0,081
-398,423	-200,000	-0,004	-0,153
-397,409	62,552	0,010	0,007
-396,394	800,000	0,029	-0,075
-395,379	-163,082	0,116	-0,004
-394,365	186,000	-0,039	-0,043
-393,350	-107,475	-0,085	-0,013
-392,336	-200,000	0,013	0,213
-391,321	-200,000	0,008	0,084
-390,306	800,000	-0,040	-0,085
-389,292	253,557	0,014	-0,018
-388,277	165,968	-0,040	-0,041
-387,263	-200,000	0,004	0,073
-386,248	77,935	0,033	0,026
-385,233	-200,000	0,006	0,118
-384,219	17,885	0,086	0,049
-383,204	248,653	-0,042	0,051
-382,190	60,658	-0,041	-0,029
-381,175	-38,570	0,034	0,013
-380,160	-200,000	-0,006	0,036
-379,146	171,723	0,035	-0,036
-378,131	-63,198	-0,092	0,027
-377,117	36,128	0,034	-0,021
-376,102	-141,619	0,050	-0,004
-375,088	165,449	-0,069	-0,071
-374,073	-2,808	-0,031	-0,016
-373,058	-93,152	0,013	0,003
-372,044	-84,214	-0,052	0,012
-371,029	342,633	-0,003	0,004
-370,015	-57,588	-0,083	-0,026
-369,000	358,777	0,074	-0,107
-367,985	673,248	0,008	-0,014
-366,971	98,954	0,021	-0,018
-365,956	-65,086	0,033	0,010
-364,942	12,665	-0,021	0,012
-363,927	-200,000	-0,019	0,160
-362,912	-118,267	-0,077	0,010
-361,898	-200,000	0,023	0,109
-360,883	44,591	-0,062	0,041
-359,869	800,000	0,024	-0,073
-358,854	-200,000	0,026	-0,091
-357,839	-151,475	-0,036	0,002
-356,825	290,191	0,065	0,086
-355,810	34,666	0,040	-0,026
-354,796	-200,000	-0,006	-0,052
-353,781	-200,000	-0,003	-0,056
-352,766	610,497	-0,032	0,058
-351,752	800,000	0,071	-0,157
-350,737	-165,330	0,110	0,003
-349,723	133,221	0,078	0,074
-348,708	-19,404	-0,038	0,017
-347,693	-103,479	-0,119	0,020
-346,679	-69,041	-0,062	-0,017
-345,664	-200,000	0,008	0,104
-344,650	374,078	0,058	0,086
-343,635	-67,246	0,128	0,036
-342,620	800,000	0,019	-0,046
-341,606	-200,000	-0,007	0,078
-340,591	800,000	-0,018	-0,052
-339,577	-200,000	0,024	-0,094
-338,562	-61,717	0,042	-0,013
-337,548	800,000	-0,024	-0,061
-336,533	661,746	-0,054	0,102
-335,518	158,436	-0,044	0,045
-334,504	-200,000	0,012	0,068
-333,489	262,571	-0,074	0,093
-332,475	800,000	-0,039	0,114
-331,460	101,433	0,049	-0,041
-330,445	-103,491	-0,056	-0,009
-329,431	274,095	0,069	0,089
-328,416	-38,201	0,156	0,060
-327,402	-103,297	-0,062	-0,010
-326,387	-164,560	0,087	0,003
-325,372	440,585	0,072	0,115
-324,358	-200,000	-0,016	0,087
-323,343	256,515	0,065	0,081
-322,329	-200,000	-0,004	-0,015
-321,314	-89,625	0,060	-0,013
-320,299	800,000	-0,089	0,186
-319,285	-23,456	-0,122	-0,053
-318,270	-200,000	-0,042	-0,192
-317,256	800,000	-0,031	0,074
-316,241	-187,511	-0,104	-0,001
-315,226	-200,000	0,019	0,070
-314,212	-31,972	0,126	0,051
-313,197	-108,376	0,128	0,020
-312,183	-142,052	-0,132	-0,009
-311,168	-67,589	-0,110	-0,031
-310,153	-200,000	0,004	-0,056
-309,139	-200,000	-0,021	0,161
-308,124	-200,000	0,020	0,067
-307,110	-200,000	-0,023	0,093
-306,095	40,534	-0,046	-0,030
-305,080	800,000	-0,021	0,062
-304,066	220,115	-0,034	0,039
-303,051	800,000	0,029	0,067
-302,037	602,476	-0,076	-0,137
-301,022	-95,741	0,129	0,025
-300,008	-105,652	-0,026	-0,004
-298,993	-200,000	-0,008	-0,128
-297,978	97,452	-0,078	0,065
-296,964	54,911	-0,108	-0,075
-295,949	-77,691	0,016	0,004
-294,935	-200,000	-0,019	-0,107
-293,920	404,793	-0,011	-0,016
-292,905	-200,000	0,010	0,055
-291,891	800,000	0,061	-0,122
-290,876	-84,036	0,007	-0,002
-289,862	272,448	-0,053	0,068
-288,847	71,251	0,050	-0,038
-287,832	-200,000	0,026	-0,106
-286,818	91,926	-0,059	0,048
-285,803	124,496	0,034	0,031
-284,789	337,330	-0,053	-0,075
-283,774	-200,000	-0,004	-0,037
-282,759	-45,546	0,202	0,072
-281,745	-15,759	-0,071	0,033
-280,730	-114,613	-0,191	-0,026
-279,716	429,130	-0,014	-0,022
-278,701	-175,007	0,172	0,003
-277,686	-3,022	0,085	-0,043
-276,672	-200,000	-0,003	-0,135
-275,657	800,000	0,027	-0,081
-274,643	265,158	-0,047	0,060
-273,628	45,128	0,129	0,086
-272,613	311,181	0,062	0,085
-271,599	-200,000	0,013	0,123
-270,584	-24,443	0,026	0,011
-269,570	-200,000	0,040	0,144
-268,555	800,000	-0,034	-0,070
-267,540	26,104	-0,037	-0,022
-266,526	51,949	0,147	-0,101
-265,511	-38,987	-0,169	-0,064
-264,497	272,069	0,057	-0,072
-263,482	-200,000	0,024	0,107
-262,467	-200,000	0,013	0,112
-261,453	338,532	0,064	-0,091
-260,438	671,642	0,028	0,053
-259,424	-129,277	-0,142	-0,014
-258,409	-116,007	-0,088	0,012
-257,395	800,000	-0,020	-0,052
-256,380	242,809	-0,030	-0,036
-255,365	-120,850	0,125	-0,015
-254,351	72,573	-0,043	-0,032
-253,336	-37,158	-0,107	-0,041
-252,322	800,000	-0,056	-0,125
-251,307	-20,791	0,193	-0,085
-250,292	-200,000	0,013	0,113
-249,278	369,880	0,050	-0,073
-248,263	-200,000	0,026	-0,115
-247,249	20,127	0,078	-0,045
-246,234	-68,137	0,109	0,031
-245,219	-49,458	-0,119	-0,041
-244,205	-200,000	-0,027	-0,089
-243,190	-114,634	-0,116	-0,016
-242,176	74,635	-0,137	0,104
-241,161	-10,785	0,143	0,068
-240,146	542,965	-0,121	-0,210
-239,132	-137,625	0,149	0,012
-238,117	-200,000	-0,002	-0,032
-237,103	218,737	0,015	-0,017
-236,088	-200,000	-0,008	-0,171
-235,073	121,661	0,069	0,063
-234,059	-200,000	0,031	-0,119
-233,044	30,659	-0,104	0,064
-232,030	121,694	-0,068	0,061
-231,015	800,000	-0,023	-0,067
-230,000	577,097	0,087	-0,155
-228,986	-200,000	-0,016	0,113
-227,971	800,000	0,099	0,201
-226,957	-23,756	0,126	0,054
-225,942	800,000	-0,080	0,165
-224,927	15,746	0,081	0,046
-223,913	-84,787	-0,089	-0,020
-222,898	146,070	-0,072	0,069
-221,884	536,750	-0,029	-0,050
-220,869	-31,825	-0,069	0,028
-219,855	-200,000	-0,011	0,057
-218,840	320,816	0,070	0,096
-217,825	332,479	0,055	-0,077
-216,811	472,624	0,044	-0,072
-215,796	160,519	-0,105	0,106
-214,782	141,332	-0,130	-0,125
-213,767	118,466	-0,020	-0,018
-212,752	478,123	0,133	0,218
-211,738	181,918	-0,128	0,136
-210,723	-47,274	-0,172	-0,060
-209,709	277,457	-0,042	-0,055
-208,694	59,259	-0,119	-0,084
-207,679	111,010	-0,044	-0,038
-206,665	-200,000	0,053	-0,172
-205,650	567,306	0,080	-0,141
-204,636	-12,866	-0,126	0,059
-203,621	-200,000	0,048	-0,184
-202,606	-200,000	-0,027	-0,146
-201,592	-200,000	-0,029	-0,185
-200,577	358,341	0,021	0,030
-199,563	46,487	0,013	0,008
-198,548	30,206	0,091	-0,056
-197,533	213,305	-0,040	0,046
-196,519	-40,928	0,189	-0,070
-195,504	90,772	-0,107	-0,086
-194,490	31,124	0,030	0,018
-193,475	111,516	-0,130	-0,113
-192,460	110,408	0,060	-0,052
-191,446	-115,259	0,077	0,010
-190,431	-30,598	0,184	0,075
-189,417	-20,004	-0,111	0,049
-188,402	800,000	-0,049	0,120
-187,387	183,179	-0,073	0,078
-186,373	-200,000	0,013	0,049
-185,358	-200,000	-0,004	0,065
-184,344	-49,144	-0,029	-0,010
-183,329	-200,000	-0,013	0,066
-182,315	-200,000	0,013	0,076
-181,300	-140,921	0,129	-0,009
-180,285	800,000	-0,041	-0,112
-179,271	720,792	-0,030	-0,058
-178,256	-200,000	0,015	-0,145
-177,242	-200,000	0,008	0,053
-176,227	300,678	0,074	0,098
-175,212	-200,000	-0,019	0,146
-174,198	126,912	-0,035	-0,032
-173,183	-200,000	0,012	-0,102
-172,169	168,201	-0,079	0,081
-171,154	800,000	-0,074	-0,208
-170,139	-124,673	0,123	-0,014
-169,125	-200,000	0,002	0,142
-168,110	325,048	0,063	0,087
-167,096	-200,000	-0,004	0,062
-166,081	-200,000	0,013	-0,050
-165,066	-200,000	-0,013	-0,161
-164,052	29,860	-0,047	-0,029
-163,037	253,636	-0,071	0,088
-162,023	-200,000	0,018	0,097
-161,008	800,000	0,056	0,148
-159,993	409,711	-0,078	-0,119
-158,979	800,000	0,029	0,059
-157,964	130,798	-0,076	0,070
-156,950	-200,000	-0,014	-0,197
-155,935	-200,000	0,029	0,106
-154,920	-101,914	-0,103	-0,018
-153,906	-60,976	-0,046	-0,014
-152,891	-126,619	-0,107	0,011
-151,877	334,713	0,074	-0,104
-150,862	766,744	-0,091	-0,179
-149,847	800,000	-0,036	-0,104
-148,833	-39,297	-0,096	0,036
-147,818	593,247	-0,087	0,155
-146,804	-200,000	-0,024	0,116
-145,789	800,000	-0,028	-0,075
-144,775	800,000	0,035	0,089
-143,760	-200,000	0,002	0,014
-142,745	-27,586	0,074	0,031
-141,731	133,150	0,009	0,008
-140,716	-62,097	-0,149	0,044
-139,702	16,209	-0,025	0,014
-138,687	313,809	-0,061	-0,083
-137,672	-200,000	-0,010	0,056
-136,658	-200,000	-0,003	-0,074
-135,643	800,000	-0,049	0,105
-134,629	-200,000	-0,006	0,053
-133,614	-112,712	0,010	0,001
-132,599	-85,065	0,013	-0,003
-131,585	-95,034	0,102	-0,020
-130,570	-139,896	0,199	-0,015
-129,556	347,463	0,018	-0,025
-128,541	-200,000	0,011	-0,192
-127,526	-200,000	-0,001	-0,094
-126,512	-93,945	0,091	0,018
-125,497	-200,000	-0,027	0,098
-124,483	-200,000	0,021	0,235
-123,468	236,789	-0,090	-0,107
-122,453	-45,664	-0,170	-0,060
-121,439	313,194	0,049	-0,067
-120,424	26,545	-0,054	0,032
-119,410	-200,000	-0,026	0,100
-118,395	413,796	0,036	-0,055
-117,380	37,057	0,151	0,096
-116,366	122,527	0,088	-0,079
-115,351	-200,000	-0,013	0,054
-114,337	-200,000	0,034	0,115
-113,322	-124,435	-0,155	-0,017
-112,307	800,000	-0,015	0,035
-111,293	-87,624	-0,076	-0,016
-110,278	-200,000	0,004	0,110
-109,264	256,225	0,126	-0,156
-108,249	-32,414	0,108	-0,043
-107,234	-200,000	0,007	-0,066
-106,220	-103,518	-0,179	0,030
-105,205	521,039	0,088	0,148
-104,191	-200,000	0,015	0,078
-103,176	-16,852	0,069	-0,031
-102,162	292,058	-0,025	0,032
-101,147	4,190	0,089	-0,047
-100,132	-87,678	0,072	-0,015
-99,118	436,063	0,018	-0,028
-98,103	760,866	0,024	-0,048
-97,089	289,339	0,043	0,057
-96,074	13,582	-0,063	0,035
-95,059	549,516	-0,040	0,069
-94,045	159,232	-0,089	-0,089
-93,030	-108,736	0,087	-0,013
-92,016	80,892	-0,012	-0,009
-91,001	-49,482	-0,023	0,008
-89,986	800,000	0,044	-0,132
-88,972	-116,303	0,121	-0,016
-87,957	800,000	-0,079	-0,188
-86,943	-200,000	-0,003	0,014
-85,928	800,000	-0,091	-0,186
-84,913	-118,932	0,126	0,016
-83,899	-200,000	-0,009	0,076
-82,884	4,891	0,039	-0,021
-81,870	216,804	0,072	0,082
-80,855	254,999	-0,042	0,052
-79,840	6,503	0,045	0,024
-78,826	513,661	-0,046	-0,077
-77,811	503,078	-0,025	-0,042
-76,797	800,000	-0,022	0,055
-75,782	39,370	0,108	0,069
-74,767	125,801	0,031	-0,028
-73,753	-5,548	-0,132	0,065
-72,738	-200,000	-0,024	0,231
-71,724	218,741	-0,083	0,096
-70,709	-200,000	-0,036	-0,198
-69,694	-200,000	-0,009	-0,046
-68,680	800,000	0,017	0,035
-67,665	-200,000	0,006	0,053
-66,651	-69,335	0,066	-0,018
-65,636	-101,162	0,083	-0,014
-64,622	-21,557	0,076	-0,033
-63,607	-21,795	0,019	-0,008
-62,592	-60,022	0,172	-0,052
-61,578	64,009	0,147	0,106
-60,563	180,669	0,119	0,126
-59,549	-98,226	-0,057	-0,010
-58,534	15,176	-2,139	-1,200
-57,519	-200,000	-0,197	-0,929
-56,505	-200,000	-1,293	-5,051
-55,490	109,942	0,721	0,621
-54,476	800,000	5,343	12,082
-53,461	-200,000	18,178	303,607
-52,446	800,000	736,608	2287,231
-51,432	549,617	1653,050	2854,000
-50,417	110,015	1639,344	1410,959
-49,403	74,608	1289,327	971,812
-48,388	30,829	1029,744	631,171
-47,373	19,991	991,907	572,143
-46,359	17,818	979,540	557,846
-45,344	14,581	975,871	545,112
-44,330	14,926	974,236	545,308
-43,315	14,337	972,276	542,263
-42,300	14,322	971,012	541,485
-41,286	14,324	970,247	541,044
-40,271	14,311	969,310	540,457
-39,257	14,328	968,378	539,972
-38,242	14,303	967,478	539,366
-37,227	14,345	966,696	539,046
-36,213	14,327	965,788	538,460
-35,198	14,272	964,924	537,779
-34,184	14,369	964,130	537,630
-33,169	14,308	963,066	536,819
-32,154	14,333	962,059	536,315
-31,140	14,308	961,507	535,904
-30,125	14,340	960,647	535,508
-29,111	14,303	959,840	534,916
-28,096	14,416	959,012	534,798
-27,082	14,333	958,371	534,153
-26,067	14,366	957,609	533,816
-25,052	14,360	956,921	533,391
-24,038	14,312	956,353	532,899
-23,023	14,303	955,699	532,484
-22,009	14,289	954,931	531,989
-20,994	14,334	954,227	531,721
-19,979	14,354	953,699	531,470
-18,965	14,350	952,964	531,027
-17,950	14,313	952,515	530,635
-16,936	14,263	951,889	530,107
-15,921	14,266	951,101	529,655
-14,906	14,213	950,280	529,007
-13,892	14,239	949,703	528,751
-12,877	14,183	949,224	528,281
-11,863	14,165	948,574	527,843
-10,848	14,175	948,155	527,620
-9,833	14,306	947,634	527,726
-8,819	14,347	946,590	527,256
-7,804	14,283	946,152	526,786
-6,790	14,209	945,645	526,247
-5,775	14,326	945,075	526,283
-4,760	14,259	944,433	525,691
-3,746	14,248	943,714	525,234
-2,731	14,090	943,165	524,406
-1,717	14,082	942,362	523,915
-0,702	14,055	941,984	523,599
0,313	13,845	941,313	523,350
1,327	17,077	938,926	532,183
2,342	25,979	794,494	473,928
3,356	22,310	460,087	268,797
4,371	-4,581	317,279	156,501
5,386	-8,502	299,059	143,494
6,400	-10,398	292,719	138,541
7,415	-10,685	290,479	137,184
8,429	-10,914	288,821	136,162
9,444	-11,007	288,016	135,678
10,459	-10,846	287,436	135,551
11,473	-10,906	286,757	135,161
12,488	-10,990	286,413	134,904
13,502	-10,914	285,899	134,724
14,517	-10,901	285,422	134,500
15,531	-10,819	284,898	134,321
16,546	-10,743	284,459	134,176
17,561	-10,869	284,184	133,912
18,575	-10,871	283,897	133,763
19,590	-10,730	283,370	133,640
20,604	-10,955	283,235	133,346
21,619	-11,027	282,930	133,121
22,634	-10,744	282,450	133,157
23,648	-10,961	282,169	132,803
24,663	-10,745	281,950	132,896
25,677	-10,777	281,597	132,687
26,692	-10,877	281,341	132,458
27,707	-10,856	281,094	132,350
28,721	-10,902	280,844	132,177
29,736	-10,971	280,604	131,986
30,750	-10,995	280,179	131,751
31,765	-10,857	280,083	131,826
32,780	-10,857	279,816	131,689
33,794	-10,812	279,604	131,620
34,809	-10,802	279,208	131,432
35,823	-11,060	279,020	131,086
36,838	-10,862	278,681	131,104
37,853	-10,867	278,425	130,966
38,867	-10,967	278,278	130,790
39,882	-10,979	277,914	130,596
40,896	-10,911	277,777	130,584
41,911	-10,919	277,501	130,436
42,926	-11,024	277,353	130,255
43,940	-11,009	277,062	130,121
44,955	-11,003	276,763	129,975
45,969	-10,912	276,538	129,943
46,984	-11,004	276,327	129,746
47,999	-11,287	275,924	129,279
49,013	-11,416	275,709	129,045
50,028	-11,327	275,378	128,962
51,042	-11,445	275,268	128,789
52,057	-11,564	274,929	128,507
53,071	-11,386	274,781	128,593
54,086	-11,357	274,614	128,530
55,101	-11,343	274,514	128,486
56,115	-11,130	274,311	128,578
57,130	-10,864	274,213	128,769
58,144	-10,816	273,946	128,677
59,159	-10,815	273,760	128,579
60,174	-10,759	273,339	128,422
61,188	-10,731	273,163	128,354
62,203	-11,004	273,087	128,053
63,217	-10,731	272,862	128,190
64,232	-10,739	272,494	127,998
65,247	-10,784	272,430	127,915
66,261	-10,927	272,250	127,686
67,276	-10,866	271,821	127,530
68,290	-11,258	271,663	127,082
69,305	-11,193	271,285	126,954
70,320	-11,217	271,098	126,833
71,334	-10,930	270,964	127,024
72,349	-10,729	270,741	127,093
73,363	-10,746	270,479	126,943
74,378	-10,883	270,343	126,741
75,393	-10,744	270,032	126,712
76,407	-10,783	269,922	126,614
77,422	-10,811	269,662	126,455
78,436	-10,865	269,512	126,324
79,451	-10,734	269,129	126,253
80,466	-10,805	268,880	126,060
81,480	-11,000	268,755	125,812
82,495	-10,999	268,388	125,630
83,509	-10,854	268,321	125,720
84,524	-10,878	268,071	125,570
85,539	-11,059	267,853	125,291
86,553	-11,093	267,642	125,150
87,568	-10,970	267,441	125,157
88,582	-11,125	267,334	124,955
89,597	-11,081	267,046	124,849
90,611	-10,795	266,897	125,028
91,626	-10,820	266,774	124,936
92,641	-10,856	266,624	124,822
93,655	-10,817	266,324	124,706
94,670	-10,871	266,103	124,543
95,684	-10,727	265,920	124,575
96,699	-10,793	265,626	124,368
97,714	-11,015	265,567	124,128
98,728	-11,083	265,355	123,958
99,743	-11,172	264,922	123,664
100,757	-11,097	264,784	123,656
101,772	-10,920	264,534	123,687
102,787	-10,905	264,404	123,628
103,801	-10,785	264,272	123,664
104,816	-10,663	263,957	123,614
105,830	-10,678	263,882	123,555
106,845	-10,695	263,770	123,476
107,860	-10,702	263,621	123,389
108,874	-10,810	263,353	123,156
109,889	-10,890	263,123	122,966
110,903	-10,731	262,865	122,976
111,918	-10,764	262,567	122,797
112,933	-11,041	262,639	122,573
113,947	-10,937	262,270	122,482
114,962	-10,753	262,103	122,556
115,976	-10,911	261,869	122,295
116,991	-10,754	261,608	122,302
118,006	-10,983	261,610	122,089
119,020	-10,859	261,491	122,133
120,035	-10,815	261,239	122,043
121,049	-10,792	261,094	121,985
122,064	-11,022	260,955	121,706
123,079	-10,817	260,648	121,733
124,093	-10,802	260,416	121,627
125,108	-10,983	260,146	121,330
126,122	-11,254	260,088	121,053
127,137	-11,150	259,799	121,000
128,151	-11,320	259,715	120,800
129,166	-11,038	259,553	120,963
130,181	-11,063	259,227	120,778
131,195	-11,139	258,929	120,561
132,210	-10,978	258,846	120,653
133,224	-10,853	258,580	120,627
134,239	-10,759	258,556	120,687
135,254	-10,818	258,282	120,498
136,268	-11,058	257,942	120,119
137,283	-11,114	257,693	119,944
138,297	-11,124	257,531	119,849
139,312	-11,341	257,368	119,573
140,327	-10,998	257,254	119,808
141,341	-10,695	257,104	119,991
142,356	-10,731	256,946	119,876
143,370	-10,642	256,811	119,879
144,385	-10,651	256,626	119,774
145,400	-10,660	256,504	119,698
146,414	-10,806	256,335	119,482
147,429	-10,558	256,124	119,588
148,443	-10,669	255,841	119,349
149,458	-10,765	255,753	119,214
150,473	-10,471	255,426	119,306
151,487	-10,757	255,315	118,996
152,502	-10,822	255,179	118,866
153,516	-10,734	255,064	118,878
154,531	-10,695	254,838	118,796
155,546	-10,716	254,519	118,618
156,560	-10,597	254,381	118,646
157,575	-10,747	254,147	118,397
158,589	-10,740	254,092	118,367
159,604	-10,636	253,894	118,353
160,619	-10,796	253,590	118,064
161,633	-10,910	253,542	117,933
162,648	-10,580	253,363	118,122
163,662	-10,555	253,159	118,037
164,677	-10,500	253,107	118,050
165,692	-10,762	252,871	117,705
166,706	-10,532	252,594	117,762
167,721	-10,703	252,461	117,544
168,735	-10,577	252,406	117,615
169,750	-10,545	252,092	117,486
170,764	-10,579	252,128	117,463
171,779	-10,578	251,801	117,301
172,794	-10,726	251,695	117,116
173,808	-10,798	251,538	116,971
174,823	-10,964	251,159	116,644
175,837	-11,249	250,905	116,274
176,852	-10,852	251,015	116,651
177,867	-10,749	250,833	116,643
178,881	-10,682	250,776	116,662
179,896	-10,622	250,465	116,558
180,910	-10,546	250,232	116,503
181,925	-10,645	250,105	116,351
182,940	-10,815	250,016	116,155
183,954	-10,816	249,903	116,092
184,969	-10,668	249,631	116,080
185,983	-10,677	249,437	115,972
186,998	-10,501	249,129	115,966
188,013	-10,647	249,183	115,858
189,027	-10,681	248,896	115,685
190,042	-10,671	248,840	115,658
191,056	-10,640	248,540	115,534
192,071	-10,705	248,392	115,401
193,086	-10,585	248,261	115,429
194,100	-10,778	248,198	115,229
195,115	-10,460	247,815	115,306
196,129	-10,575	247,731	115,161
197,144	-10,380	247,436	115,176
198,159	-10,569	247,243	114,918
199,173	-10,831	247,203	114,671
200,188	-10,769	246,933	114,588
201,202	-10,735	246,624	114,462
202,217	-11,014	246,467	114,148
203,232	-11,182	246,268	113,906
204,246	-10,857	246,212	114,139
205,261	-10,501	246,040	114,344
206,275	-11,401	245,658	113,413
207,290	-7,090	247,458	117,818
208,304	1,183	249,952	125,923
209,319	3,982	250,893	128,730
210,334	4,405	250,867	129,058
211,348	4,740	250,721	129,252
212,363	5,016	250,551	129,383
213,377	5,091	250,463	129,389
214,392	4,702	250,348	128,993
215,407	5,001	250,015	129,059
216,421	4,939	249,966	128,971
217,436	5,151	249,762	129,030
218,450	5,239	249,771	129,097
219,465	4,721	249,456	128,493
220,480	4,763	249,164	128,365
221,494	4,561	249,059	128,132
222,509	4,617	248,933	128,102
223,523	4,654	248,613	127,956
224,538	4,304	248,474	127,584
225,553	4,353	248,461	127,607
226,567	4,357	248,300	127,516
227,582	4,447	248,098	127,475
228,596	4,449	247,942	127,386
229,611	4,255	247,726	127,103
230,626	4,282	247,401	126,947
231,640	4,304	247,176	126,838
232,655	4,456	247,245	126,988
233,669	4,473	246,948	126,838
234,684	4,111	246,643	126,373
235,699	4,643	246,759	126,858
236,713	4,689	246,570	126,787
237,728	4,381	246,276	126,372
238,742	4,094	246,215	126,095
239,757	4,191	245,938	126,021
240,772	4,364	245,768	126,064
241,786	4,465	245,760	126,131
242,801	4,095	245,567	125,719
243,815	4,007	245,504	125,603
244,830	4,436	245,324	125,850
245,844	4,336	245,133	125,659
246,859	4,271	244,892	125,471
247,874	4,214	244,878	125,406
248,888	4,376	244,667	125,420
249,903	4,325	244,527	125,295
250,917	4,454	244,442	125,345
251,932	4,527	244,290	125,315
252,947	4,680	243,972	125,265
253,961	4,243	243,813	124,818
254,976	4,513	243,564	124,898
255,990	4,591	243,631	124,984
257,005	4,327	243,272	124,575
258,020	4,236	243,128	124,417
259,034	4,236	243,086	124,385
260,049	4,507	242,936	124,515
261,063	4,014	242,815	124,045
262,078	4,246	242,479	124,049
263,093	4,586	242,367	124,254
264,107	4,637	242,274	124,236
265,122	4,339	242,144	123,919
266,136	4,382	241,979	123,858
267,151	4,725	241,858	124,060
268,166	4,427	241,670	123,714
269,180	4,201	241,503	123,436
270,195	4,637	241,464	123,755
271,209	4,931	241,429	123,961
272,224	4,446	240,921	123,302
273,239	4,186	240,773	123,007
274,253	4,238	240,625	122,962
275,268	4,353	240,537	122,998
276,282	4,579	240,200	122,994
277,297	4,209	240,112	122,644
278,312	4,188	240,124	122,622
279,326	4,332	239,960	122,642
280,341	4,492	239,660	122,605
281,355	4,413	239,648	122,526
282,370	4,544	239,491	122,538
283,384	4,316	239,365	122,282
284,399	3,919	239,273	121,910
285,414	4,059	239,027	121,884
286,428	4,104	238,931	121,860
287,443	4,122	238,725	121,758
288,457	4,532	238,495	121,954
289,472	4,901	238,370	122,170
290,487	4,414	238,264	121,721
291,501	4,349	237,955	121,501
292,516	4,068	237,848	121,214
293,530	4,130	237,697	121,175
294,545	4,279	237,645	121,255
295,560	4,380	237,486	121,243
296,574	3,989	237,265	120,813
297,589	4,224	237,268	120,987
298,603	4,393	237,196	121,072
299,618	4,405	236,976	120,959
300,633	4,419	236,762	120,849
301,647	4,521	236,720	120,897
302,662	4,788	236,756	121,114
303,676	4,628	236,530	120,862
304,691	4,701	236,267	120,774
305,706	4,799	236,239	120,826
306,720	4,680	236,097	120,649
307,735	4,677	235,775	120,471
308,749	4,405	235,610	120,165
309,764	4,456	235,277	120,024
310,779	4,127	235,270	119,754
311,793	3,966	234,849	119,404
312,808	3,709	234,907	119,223
313,822	3,727	234,625	119,083
314,837	4,230	234,481	119,389
315,852	4,233	234,419	119,350
316,866	4,506	234,396	119,538
317,881	4,547	234,221	119,470
318,895	4,649	233,959	119,405
319,910	4,532	233,920	119,284
320,925	4,200	233,746	118,928
321,939	4,363	233,480	118,908
322,954	4,605	233,596	119,143
323,968	4,433	233,415	118,908
324,983	4,541	233,244	118,893
325,997	4,631	233,106	118,881
327,012	4,552	232,979	118,745
328,027	4,326	232,772	118,456
329,041	4,632	232,771	118,679
330,056	4,779	232,848	118,821
331,070	4,939	232,560	118,786
332,085	4,675	232,300	118,441
333,100	4,417	232,077	118,118
334,114	4,445	231,877	118,028
335,129	4,614	231,896	118,156
336,143	4,961	231,662	118,291
337,158	4,781	231,492	118,057
338,173	4,399	231,328	117,672
339,187	4,241	231,210	117,480
340,202	4,489	231,059	117,583
341,216	4,542	230,901	117,531
342,231	4,481	230,713	117,379
343,246	4,407	230,381	117,144
344,260	4,559	230,415	117,265
345,275	4,558	230,466	117,280
346,289	4,689	230,310	117,290
347,304	4,685	230,104	117,171
348,319	4,757	230,069	117,198
349,333	4,554	229,805	116,900
350,348	4,445	229,516	116,659
351,362	4,439	229,293	116,531
352,377	4,308	229,272	116,411
353,392	3,912	229,060	115,994
354,406	4,232	228,919	116,154
355,421	196,672	1319,038	1398,646
356,435	157,795	1451,830	1398,617
