DTS Sentinel unit serial number:	SN410029Multiplexer serial number:	ORYXHardware model number:	OX2-SRSoftware version number:	ORYX F/W v4,00 Oryx Data Collector v3.7.2.0data status	okinstallation	B5 Nyhavnadifferential loss correction	single-endedforward channel	channel 2reverse channel	N/Adate	2023/12/14time	19:32:13forward acquisition time	300,00reverse acquisition time	0,00gamma	499,1914k internal	0,3156k external	0,3156temperature offset calibration	1,0000default loss term (dB/km)	0,3820temperature slope calibration	1,0000multiplexer offset coefficient	1,0000multiplexer slope coefficient	1,0000fibre end	0,00T internal ref (°C)	8,96T ext. ref 1 (°C)	-5,74T ext. ref 2 (°C)	-5,80length (m)	temperature (°C)	Stokes	anti-Stokes-744,400	208,851	0,148	0,171
-743,385	-97,270	-0,425	-0,081
-742,371	404,416	0,046	0,071
-741,356	-9,124	-0,325	-0,160
-740,342	519,145	0,119	0,206
-739,327	-117,030	-0,385	-0,051
-738,312	135,873	0,142	0,137
-737,298	-193,375	-0,308	0,002
-736,283	207,822	0,107	0,124
-735,269	-49,232	-0,245	-0,086
-734,254	393,224	0,059	0,091
-733,239	-5,445	-0,546	-0,275
-732,225	8,868	0,248	0,138
-731,210	-66,892	0,057	-0,016
-730,196	155,148	-0,035	0,036
-729,181	176,456	0,061	-0,066
-728,167	-200,000	-0,008	0,031
-727,152	36,736	0,127	0,082
-726,137	42,641	-0,129	-0,086
-725,123	800,000	0,038	-0,089
-724,108	-87,182	-0,150	-0,033
-723,094	464,109	-0,057	-0,095
-722,079	-6,653	-0,141	-0,071
-721,064	-200,000	-0,008	-0,094
-720,050	535,942	0,019	-0,034
-719,035	-200,000	0,002	-0,037
-718,021	-90,856	-0,136	0,029
-717,006	9,460	-0,138	0,077
-715,991	-200,000	-0,046	-0,154
-714,977	-139,650	-0,123	-0,010
-713,962	133,201	0,076	0,072
-712,948	250,351	0,051	-0,064
-711,933	356,854	-0,065	-0,096
-710,918	66,174	0,101	-0,076
-709,904	-178,253	-0,075	0,001
-708,889	217,884	-0,064	-0,075
-707,875	-162,487	-0,077	-0,003
-706,860	44,640	-0,107	-0,072
-705,845	755,596	0,019	0,039
-704,831	800,000	-0,033	0,084
-703,816	800,000	0,034	0,082
-702,802	156,490	0,113	-0,115
-701,787	-200,000	-0,026	-0,160
-700,772	-92,925	-0,156	-0,032
-699,758	-200,000	-0,026	0,169
-698,743	-6,650	0,054	0,027
-697,729	345,397	0,049	-0,071
-696,714	118,675	0,056	0,051
-695,699	19,474	-0,047	-0,027
-694,685	211,478	0,006	-0,006
-693,670	242,247	0,049	0,061
-692,656	-200,000	-0,027	-0,109
-691,641	307,109	-0,083	-0,114
-690,627	-17,647	-0,035	-0,016
-689,612	-200,000	-0,019	-0,106
-688,597	-57,385	-0,040	-0,013
-687,583	800,000	-0,013	0,037
-686,568	71,760	-0,051	0,039
-685,554	800,000	-0,013	-0,031
-684,539	106,571	-0,155	-0,135
-683,524	430,024	0,042	-0,067
-682,510	-90,030	-0,128	-0,027
-681,495	450,035	0,053	0,086
-680,481	800,000	-0,042	-0,109
-679,466	-121,253	-0,063	0,008
-678,451	96,804	0,037	0,031
-677,437	196,847	0,116	-0,130
-676,422	-120,819	0,100	0,012
-675,408	-90,992	0,038	0,008
-674,393	307,380	-0,073	0,100
-673,378	800,000	-0,036	-0,093
-672,364	158,333	-0,073	-0,074
-671,349	235,310	0,004	0,005
-670,335	25,413	-0,064	0,039
-669,320	-200,000	-0,013	0,075
-668,305	800,000	0,016	-0,036
-667,291	-38,145	-0,162	0,063
-666,276	366,472	-0,112	-0,166
-665,262	-200,000	-0,041	-0,181
-664,247	-200,000	-0,002	0,040
-663,232	-68,476	-0,084	-0,024
-662,218	-200,000	0,049	0,178
-661,203	135,255	0,064	-0,061
-660,189	-200,000	-0,007	-0,049
-659,174	-200,000	-0,033	-0,177
-658,159	729,123	-0,077	-0,153
-657,145	195,336	0,070	-0,079
-656,130	-200,000	0,001	0,012
-655,116	145,016	-0,133	0,131
-654,101	293,754	0,051	0,069
-653,086	87,794	-0,062	-0,051
-652,072	-159,193	-0,040	-0,002
-651,057	152,410	-0,128	0,128
-650,043	341,381	-0,037	-0,054
-649,028	-149,263	-0,048	0,003
-648,014	355,804	0,086	0,127
-646,999	-200,000	0,008	0,054
-645,984	-200,000	0,018	0,073
-644,970	-200,000	0,010	-0,120
-643,955	323,836	-0,064	-0,091
-642,941	-90,422	-0,123	-0,026
-641,926	-200,000	-0,018	-0,065
-640,911	-79,359	0,080	0,020
-639,897	800,000	0,056	0,171
-638,882	800,000	-0,033	0,077
-637,868	-6,430	0,088	0,044
-636,853	84,252	0,045	-0,036
-635,838	-200,000	-0,008	0,041
-634,824	182,042	0,050	-0,054
-633,809	2,824	-0,115	-0,061
-632,795	545,823	-0,022	-0,040
-631,780	-11,743	-0,070	-0,034
-630,765	11,120	-0,069	-0,039
-629,751	-200,000	-0,034	0,116
-628,736	74,777	-0,029	0,023
-627,722	10,603	0,090	0,050
-626,707	-200,000	0,000	0,013
-625,692	50,563	-0,125	0,087
-624,678	249,119	-0,013	-0,017
-623,663	800,000	0,010	-0,022
-622,649	-55,293	0,105	-0,034
-621,634	193,534	-0,029	-0,032
-620,619	-200,000	-0,020	-0,191
-619,605	266,829	0,027	-0,035
-618,590	266,538	0,080	0,103
-617,576	221,294	-0,078	0,092
-616,561	194,748	-0,039	0,044
-615,546	123,276	-0,066	0,061
-614,532	-200,000	-0,022	0,083
-613,517	627,433	-0,025	0,047
-612,503	492,109	0,048	-0,082
-611,488	295,856	0,026	0,035
-610,474	125,527	0,150	0,139
-609,459	-30,425	-0,056	0,023
-608,444	800,000	-0,033	0,084
-607,430	48,726	0,141	0,097
-606,415	-68,229	-0,123	0,035
-605,401	245,660	0,048	0,059
-604,386	227,796	0,028	-0,033
-603,371	-200,000	-0,002	0,049
-602,357	-200,000	-0,005	0,067
-601,342	91,652	0,077	-0,064
-600,328	119,445	0,052	-0,047
-599,313	483,238	-0,038	0,063
-598,298	800,000	-0,013	-0,038
-597,284	638,166	-0,023	-0,044
-596,269	-124,322	0,100	-0,011
-595,255	-48,405	-0,101	0,036
-594,240	-71,891	-0,128	-0,035
-593,225	520,683	0,024	-0,042
-592,211	36,661	0,114	-0,074
-591,196	800,000	-0,020	-0,054
-590,182	26,594	-0,070	0,043
-589,167	-200,000	0,010	-0,122
-588,152	-40,605	-0,040	0,015
-587,138	-107,003	0,091	0,015
-586,123	259,330	-0,117	-0,149
-585,109	-108,101	0,066	0,010
-584,094	-65,622	-0,129	-0,038
-583,079	61,728	0,049	0,036
-582,065	745,033	0,030	-0,060
-581,050	9,298	-0,152	-0,084
-580,036	-9,041	-0,065	0,032
-579,021	800,000	-0,034	-0,089
-578,006	-200,000	0,024	-0,089
-576,992	10,999	-0,112	0,063
-575,977	92,935	0,018	-0,015
-574,963	112,204	0,032	-0,028
-573,948	-86,227	-0,123	-0,027
-572,934	-200,000	-0,014	-0,098
-571,919	733,363	-0,044	-0,087
-570,904	800,000	-0,049	-0,114
-569,890	-200,000	0,010	-0,081
-568,875	-122,397	0,018	-0,002
-567,861	800,000	0,047	0,104
-566,846	-200,000	0,010	0,102
-565,831	517,751	-0,084	0,145
-564,817	399,471	-0,061	-0,093
-563,802	31,411	-0,049	-0,031
-562,788	-138,398	0,062	0,005
-561,773	-48,805	-0,132	0,046
-560,758	-200,000	-0,007	-0,034
-559,744	180,902	0,102	0,110
-558,729	123,997	-0,081	-0,074
-557,715	297,967	-0,027	0,036
-556,700	-147,276	0,145	-0,009
-555,685	57,377	-0,070	0,050
-554,671	-200,000	0,006	-0,049
-553,656	320,866	0,008	0,012
-552,642	800,000	0,014	0,037
-551,627	-200,000	0,017	0,065
-550,612	227,207	-0,060	-0,071
-549,598	-92,742	0,113	-0,023
-548,583	-139,788	-0,105	-0,008
-547,569	137,949	-0,022	0,021
-546,554	-174,654	0,054	-0,001
-545,539	28,038	-0,027	0,016
-544,525	20,379	0,054	-0,032
-543,510	800,000	-0,063	-0,199
-542,496	-35,996	-0,127	-0,050
-541,481	212,768	-0,120	-0,138
-540,466	-200,000	-0,002	-0,126
-539,452	82,711	0,080	0,064
-538,437	-200,000	-0,001	0,025
-537,423	800,000	0,011	0,035
-536,408	225,071	0,073	-0,087
-535,393	-1,221	-0,141	-0,073
-534,379	11,649	0,051	-0,029
-533,364	-37,810	-0,092	-0,035
-532,350	-200,000	-0,007	-0,033
-531,335	653,346	0,032	0,061
-530,321	223,215	0,026	0,031
-529,306	285,559	0,048	-0,064
-528,291	-78,442	-0,126	-0,031
-527,277	-121,132	-0,193	0,023
-526,262	-174,501	0,096	-0,002
-525,248	800,000	0,039	0,094
-524,233	-7,025	-0,005	-0,003
-523,218	-76,702	0,125	-0,032
-522,204	-113,747	0,061	0,009
-521,189	800,000	-0,026	-0,082
-520,175	36,820	-0,102	-0,066
-519,160	800,000	0,044	-0,103
-518,145	-200,000	-0,002	0,044
-517,131	-97,529	0,050	-0,009
-516,116	475,516	-0,057	-0,094
-515,102	-61,467	-0,101	-0,031
-514,087	-163,211	-0,082	-0,003
-513,072	566,872	-0,097	-0,172
-512,058	146,184	-0,027	-0,027
-511,043	101,341	-0,161	0,137
-510,029	118,364	0,045	0,041
-509,014	-200,000	0,026	0,114
-507,999	-176,471	-0,089	-0,002
-506,985	186,678	0,091	-0,099
-505,970	182,655	0,034	0,036
-504,956	8,571	-0,118	-0,065
-503,941	-200,000	-0,006	0,022
-502,926	-27,756	0,204	0,086
-501,912	45,001	-0,006	-0,004
-500,897	-72,042	0,090	0,024
-499,883	395,167	-0,032	0,048
-498,868	173,286	0,018	-0,019
-497,853	-200,000	-0,011	-0,081
-496,839	-86,848	-0,045	0,010
-495,824	-138,524	0,030	-0,002
-494,810	-49,402	0,043	-0,015
-493,795	85,947	-0,029	-0,024
-492,781	-151,943	-0,122	-0,006
-491,766	260,933	0,042	-0,053
-490,751	-200,000	-0,002	-0,092
-489,737	18,689	0,046	0,027
-488,722	33,376	0,018	0,012
-487,708	800,000	-0,079	0,168
-486,693	303,823	-0,057	-0,077
-485,678	-161,626	-0,098	-0,004
-484,664	-25,971	-0,112	-0,048
-483,649	800,000	-0,040	-0,101
-482,635	-163,560	-0,046	-0,002
-481,620	512,823	0,023	0,039
-480,605	-200,000	-0,012	0,062
-479,591	-200,000	-0,003	0,011
-478,576	503,376	-0,022	-0,037
-477,562	-200,000	0,007	0,025
-476,547	-200,000	-0,004	-0,020
-475,532	156,780	-0,080	0,081
-474,518	163,856	0,077	-0,079
-473,503	-13,610	0,038	-0,018
-472,489	-189,149	0,183	-0,002
-471,474	408,466	0,052	0,081
-470,459	-200,000	-0,021	0,077
-469,445	-200,000	0,011	-0,049
-468,430	186,973	-0,070	-0,076
-467,416	-83,179	-0,059	-0,014
-466,401	157,082	0,058	-0,058
-465,386	800,000	0,015	-0,039
-464,372	-122,763	-0,080	-0,009
-463,357	-200,000	0,004	-0,028
-462,343	358,218	0,029	-0,042
-461,328	-88,563	-0,021	-0,005
-460,313	114,847	0,090	0,080
-459,299	23,461	0,098	-0,059
-458,284	-200,000	-0,005	0,048
-457,270	-130,425	0,096	0,009
-456,255	-15,798	-0,155	-0,072
-455,241	-200,000	-0,001	-0,029
-454,226	19,652	0,025	-0,015
-453,211	-45,373	0,055	-0,020
-452,197	-92,872	0,024	0,005
-451,182	127,439	-0,100	-0,093
-450,168	111,295	0,033	0,029
-449,153	-200,000	0,003	-0,023
-448,138	800,000	0,049	-0,117
-447,124	144,949	-0,113	-0,111
-446,109	-87,638	0,139	0,030
-445,095	4,194	-0,043	0,023
-444,080	-200,000	0,005	0,061
-443,065	297,051	-0,046	-0,061
-442,051	-200,000	-0,008	-0,033
-441,036	20,242	-0,031	-0,018
-440,022	406,491	-0,028	-0,044
-439,007	156,138	0,057	-0,058
-437,992	374,771	0,006	0,009
-436,978	-95,652	-0,096	-0,018
-435,963	-118,819	-0,086	-0,011
-434,949	47,898	-0,094	-0,064
-433,934	800,000	-0,062	-0,128
-432,919	-200,000	-0,011	-0,056
-431,905	-200,000	-0,003	0,041
-430,890	-15,589	0,080	-0,037
-429,876	-200,000	-0,012	-0,071
-428,861	69,583	0,094	0,070
-427,846	-200,000	0,003	0,112
-426,832	-200,000	-0,011	0,042
-425,817	49,527	-0,023	0,016
-424,803	41,454	-0,023	0,015
-423,788	9,286	0,081	0,045
-422,773	-200,000	-0,011	0,108
-421,759	1,750	0,103	0,054
-420,744	800,000	0,021	-0,060
-419,730	28,731	-0,094	-0,058
-418,715	800,000	-0,023	0,056
-417,701	359,937	0,036	-0,053
-416,686	-200,000	-0,029	0,105
-415,671	-200,000	0,010	-0,035
-414,657	-6,043	0,103	0,051
-413,642	278,080	0,060	-0,078
-412,628	189,014	-0,057	-0,062
-411,613	332,360	-0,040	0,056
-410,598	-145,491	0,068	0,004
-409,584	281,048	-0,116	-0,151
-408,569	800,000	0,057	-0,120
-407,555	800,000	0,017	-0,052
-406,540	-200,000	-0,036	-0,139
-405,525	44,270	-0,061	-0,041
-404,511	-88,052	0,121	-0,026
-403,496	-139,290	-0,084	-0,007
-402,482	182,579	0,054	-0,058
-401,467	192,656	-0,118	-0,130
-400,452	55,906	0,116	0,082
-399,438	800,000	-0,056	0,145
-398,423	1,892	-0,085	-0,044
-397,409	492,057	0,049	0,082
-396,394	234,728	0,111	-0,134
-395,379	234,656	-0,059	-0,071
-394,365	-200,000	-0,016	-0,161
-393,350	-97,395	0,157	0,029
-392,336	395,956	0,121	0,184
-391,321	-200,000	-0,008	-0,106
-390,306	-142,682	-0,260	0,018
-389,292	93,105	-0,087	-0,072
-388,277	-30,359	-0,045	0,019
-387,263	-200,000	0,021	-0,138
-386,248	-114,195	-0,050	0,007
-385,233	407,484	-0,067	0,104
-384,219	-102,894	-0,119	-0,020
-383,204	-100,913	0,184	-0,033
-382,190	-200,000	0,026	-0,106
-381,175	371,218	-0,024	0,036
-380,160	-10,168	0,081	0,039
-379,146	255,953	0,033	0,041
-378,131	156,209	-0,036	-0,037
-377,117	800,000	0,009	0,028
-376,102	34,213	0,010	0,007
-375,088	-200,000	-0,004	-0,122
-374,073	800,000	0,051	0,158
-373,058	255,515	-0,026	0,033
-372,044	-47,113	0,096	-0,034
-371,029	-200,000	-0,028	0,107
-370,015	-170,644	-0,038	0,001
-369,000	800,000	-0,039	-0,126
-367,985	800,000	-0,046	-0,095
-366,971	-43,926	0,063	0,023
-365,956	-106,847	0,051	0,008
-364,942	-11,496	0,076	-0,036
-363,927	-53,492	0,112	-0,037
-362,912	-16,058	-0,144	0,066
-361,898	-200,000	0,019	0,156
-360,883	362,875	0,086	0,126
-359,869	-105,068	-0,064	0,011
-358,854	108,071	-0,070	-0,060
-357,839	39,426	0,099	0,064
-356,825	40,131	0,225	0,147
-355,810	380,078	0,032	0,047
-354,796	72,181	0,094	0,071
-353,781	125,616	-0,035	-0,032
-352,766	-200,000	0,030	-0,170
-351,752	800,000	0,043	0,117
-350,737	-35,219	-0,041	0,016
-349,723	-4,229	0,119	-0,060
-348,708	800,000	0,037	0,076
-347,693	-200,000	0,003	-0,029
-346,679	-200,000	0,016	0,139
-345,664	42,970	0,133	0,088
-344,650	-0,435	-0,056	0,029
-343,635	-100,739	0,066	0,012
-342,620	411,070	0,026	-0,040
-341,606	800,000	-0,029	0,073
-340,591	-200,000	-0,025	0,141
-339,577	254,409	-0,072	-0,090
-338,562	800,000	-0,021	0,047
-337,548	470,358	0,061	-0,100
-336,533	-15,241	0,078	0,036
-335,518	-101,765	0,074	0,013
-334,504	453,659	0,057	-0,091
-333,489	468,749	-0,024	-0,040
-332,475	800,000	-0,024	0,064
-331,460	23,125	0,089	0,053
-330,445	-40,346	0,121	0,046
-329,431	215,096	-0,045	-0,052
-328,416	-153,075	0,120	0,006
-327,402	-103,555	0,030	0,005
-326,387	-18,192	0,062	0,028
-325,372	135,809	0,039	-0,037
-324,358	-200,000	0,034	0,216
-323,343	12,553	-0,050	0,028
-322,329	-200,000	0,001	0,061
-321,314	-200,000	0,050	0,176
-320,299	-200,000	0,021	0,071
-319,285	218,836	-0,033	0,039
-318,270	-171,564	-0,070	-0,002
-317,256	-115,441	-0,069	-0,009
-316,241	480,062	-0,064	0,105
-315,226	-200,000	0,017	0,112
-314,212	543,024	0,039	0,068
-313,197	-135,863	-0,087	0,007
-312,183	-81,197	-0,093	-0,022
-311,168	276,635	0,027	-0,035
-310,153	-128,782	-0,124	0,012
-309,139	476,656	0,065	-0,107
-308,124	-175,575	0,144	0,003
-307,110	114,951	-0,055	-0,049
-306,095	64,852	0,075	0,055
-305,080	116,070	-0,085	-0,076
-304,066	-40,445	0,084	-0,032
-303,051	800,000	0,002	0,005
-302,037	-18,991	0,152	-0,068
-301,022	129,445	-0,068	0,063
-300,008	-200,000	0,004	0,019
-298,993	163,224	0,059	0,060
-297,978	36,701	-0,135	-0,086
-296,964	-151,017	0,091	-0,005
-295,949	-200,000	-0,026	-0,098
-294,935	14,351	0,142	-0,080
-293,920	-200,000	0,042	-0,206
-292,905	-200,000	0,029	-0,099
-291,891	153,812	0,115	0,115
-290,876	680,866	-0,062	-0,118
-289,862	-148,794	-0,087	0,005
-288,847	114,742	-0,017	0,015
-287,832	-200,000	0,008	-0,074
-286,818	-30,356	-0,010	-0,004
-285,803	-119,456	0,067	-0,008
-284,789	-114,894	-0,084	0,011
-283,774	89,831	0,047	0,038
-282,759	-62,609	-0,068	0,020
-281,745	66,625	0,049	-0,036
-280,730	-200,000	-0,028	-0,112
-279,716	-200,000	-0,009	-0,184
-278,701	-29,892	0,050	-0,021
-277,686	101,408	-0,085	-0,072
-276,672	-79,342	0,114	-0,028
-275,657	-41,101	0,085	-0,032
-274,643	-28,683	-0,108	0,045
-273,628	800,000	0,040	0,120
-272,613	611,934	0,054	0,098
-271,599	290,311	-0,053	0,070
-270,584	247,505	0,027	-0,033
-269,570	417,153	-0,018	0,028
-268,555	-155,379	-0,083	-0,004
-267,540	-112,793	0,032	0,005
-266,526	774,263	-0,036	0,072
-265,511	-200,000	0,036	0,121
-264,497	36,239	0,067	0,043
-263,482	-200,000	0,017	-0,098
-262,467	-200,000	-0,016	0,052
-261,453	-29,480	0,040	-0,017
-260,438	-16,045	-0,073	0,034
-259,424	96,083	-0,077	0,064
-258,409	-157,388	-0,067	0,003
-257,395	368,974	0,098	0,144
-256,380	120,884	-0,059	-0,053
-255,365	55,235	0,122	0,085
-254,351	-200,000	-0,011	0,043
-253,336	800,000	-0,047	0,128
-252,322	-200,000	0,004	0,151
-251,307	-200,000	0,018	0,074
-250,292	150,354	0,077	0,076
-249,278	215,157	0,068	0,079
-248,263	800,000	-0,043	0,111
-247,249	-160,668	-0,096	0,004
-246,234	113,539	-0,057	-0,050
-245,219	-200,000	-0,092	0,000
-244,205	93,794	0,050	0,041
-243,190	-200,000	0,029	0,209
-242,176	800,000	0,059	0,156
-241,161	-200,000	0,004	0,082
-240,146	9,960	0,097	0,053
-239,132	-200,000	0,027	-0,088
-238,117	12,013	-0,094	0,052
-237,103	80,435	0,136	-0,106
-236,088	167,426	0,007	0,007
-235,073	-22,764	-0,043	0,019
-234,059	-200,000	0,016	0,135
-233,044	542,734	0,032	-0,055
-232,030	-200,000	-0,011	0,077
-231,015	145,302	0,073	0,071
-230,000	478,510	0,045	0,075
-228,986	353,936	0,092	-0,133
-227,971	774,862	-0,041	-0,080
-226,957	-200,000	0,014	0,135
-225,942	65,330	-0,094	0,069
-224,927	39,356	0,154	0,099
-223,913	-16,984	-0,120	-0,054
-222,898	-96,979	-0,039	-0,007
-221,884	42,380	-0,081	-0,053
-220,869	800,000	-0,029	-0,058
-219,855	-95,595	0,110	-0,021
-218,840	-200,000	-0,010	0,120
-217,825	-41,408	0,028	0,010
-216,811	242,278	-0,071	-0,086
-215,796	-200,000	-0,034	0,119
-214,782	800,000	-0,014	0,039
-213,767	639,777	0,047	0,087
-212,752	-55,204	-0,065	0,021
-211,738	-162,691	0,111	0,004
-210,723	-200,000	-0,013	0,070
-209,709	-48,308	0,038	-0,013
-208,694	-200,000	-0,005	-0,049
-207,679	156,023	-0,087	-0,087
-206,665	-200,000	-0,033	0,126
-205,650	-200,000	0,006	-0,043
-204,636	-9,653	0,081	-0,039
-203,621	174,643	0,063	0,066
-202,606	-200,000	0,041	-0,148
-201,592	800,000	0,079	-0,163
-200,577	800,000	0,005	0,013
-199,563	800,000	0,034	0,109
-198,548	267,477	-0,074	0,094
-197,533	539,199	-0,060	0,103
-196,519	98,329	-0,041	-0,034
-195,504	-21,824	-0,080	0,035
-194,490	800,000	0,020	-0,051
-193,475	176,383	-0,035	-0,037
-192,460	-200,000	-0,023	0,113
-191,446	-200,000	-0,013	0,115
-190,431	800,000	0,072	0,161
-189,417	249,472	0,084	0,103
-188,402	19,600	-0,088	-0,051
-187,387	-71,237	-0,076	0,020
-186,373	800,000	0,077	-0,169
-185,358	180,813	0,021	0,022
-184,344	120,629	-0,061	0,055
-183,329	-90,652	0,246	-0,051
-182,315	800,000	-0,036	-0,091
-181,300	800,000	0,101	-0,219
-180,285	31,181	-0,068	-0,042
-179,271	514,669	-0,013	-0,023
-178,256	109,210	0,044	0,038
-177,242	-86,053	0,210	0,047
-176,227	-193,216	-0,076	-0,000
-175,212	-91,646	-0,109	0,022
-174,198	31,374	0,150	0,093
-173,183	120,840	0,036	0,032
-172,169	-200,000	0,000	-0,061
-171,154	240,187	-0,068	-0,082
-170,139	21,599	-0,093	-0,055
-169,125	-140,193	-0,091	0,007
-168,110	647,760	0,045	0,083
-167,096	415,614	0,054	-0,083
-166,081	64,255	-0,097	-0,070
-165,066	136,121	-0,043	-0,040
-164,052	800,000	-0,039	-0,096
-163,037	212,573	-0,037	-0,043
-162,023	75,182	-0,032	0,024
-161,008	-122,754	-0,079	0,009
-159,993	-104,700	-0,077	0,013
-158,979	-200,000	-0,006	-0,093
-157,964	-5,502	-0,070	-0,035
-156,950	800,000	-0,014	0,043
-155,935	-45,734	0,049	0,017
-154,920	-84,101	-0,033	0,007
-153,906	-139,016	0,056	0,004
-152,891	107,537	0,052	-0,045
-151,877	-149,351	0,012	-0,001
-150,862	-200,000	-0,020	-0,087
-149,847	432,234	0,026	-0,040
-148,833	800,000	0,029	-0,074
-147,818	-200,000	-0,037	0,211
-146,804	-200,000	0,023	-0,085
-145,789	406,474	0,051	0,078
-144,775	-200,000	0,014	0,108
-143,760	254,080	0,014	0,017
-142,745	-200,000	-0,035	-0,164
-141,731	-188,785	-0,181	-0,002
-140,716	-6,312	0,152	0,074
-139,702	-200,000	0,013	0,080
-138,687	9,848	0,065	-0,036
-137,672	-25,143	-0,086	-0,036
-136,658	378,320	-0,018	0,027
-135,643	-200,000	0,014	-0,162
-134,629	100,105	-0,114	-0,095
-133,614	19,931	0,088	-0,051
-132,599	637,254	0,063	0,115
-131,585	315,453	0,030	-0,040
-130,570	800,000	-0,023	0,070
-129,556	-200,000	-0,007	0,035
-128,541	-18,667	0,075	0,034
-127,526	694,886	0,032	-0,061
-126,512	800,000	0,044	0,094
-125,497	-137,257	-0,140	0,011
-124,483	800,000	0,040	-0,126
-123,468	294,425	-0,051	-0,068
-122,453	519,026	-0,057	-0,096
-121,439	164,139	-0,028	0,028
-120,424	31,361	-0,018	0,011
-119,410	-200,000	-0,010	0,124
-118,395	225,326	0,029	0,034
-117,380	-200,000	0,093	0,000
-116,366	-200,000	-0,015	0,184
-115,351	761,394	-0,008	0,016
-114,337	-200,000	0,005	-0,071
-113,322	-170,805	-0,101	0,002
-112,307	684,768	-0,008	0,015
-111,293	31,548	-0,141	0,087
-110,278	-200,000	-0,003	-0,021
-109,264	-58,115	-0,103	0,032
-108,249	800,000	-0,040	-0,092
-107,234	-88,751	0,116	-0,025
-106,220	239,735	-0,123	0,148
-105,205	-110,702	0,169	0,025
-104,191	-200,000	0,052	-0,171
-103,176	-155,179	0,085	-0,004
-102,162	83,193	-0,135	-0,106
-101,147	-52,444	-0,097	-0,032
-100,132	-99,889	-0,116	-0,021
-99,118	-131,754	-0,064	-0,006
-98,103	328,772	0,086	-0,119
-97,089	800,000	-0,030	0,086
-96,074	569,221	0,052	-0,091
-95,059	-189,668	-0,103	0,001
-94,045	-200,000	-0,002	-0,045
-93,030	-79,708	-0,167	0,040
-92,016	79,636	-0,014	0,011
-91,001	-41,427	0,028	-0,010
-89,986	800,000	0,041	0,109
-88,972	-200,000	0,034	0,184
-87,957	-147,205	-0,013	-0,001
-86,943	257,847	-0,079	-0,097
-85,928	-200,000	-0,015	-0,052
-84,913	116,917	0,055	0,048
-83,899	-200,000	-0,019	0,111
-82,884	-65,162	0,095	0,027
-81,870	-200,000	-0,003	0,065
-80,855	129,934	-0,093	0,086
-79,840	800,000	0,018	0,039
-78,826	-10,811	-0,079	-0,037
-77,811	25,491	-0,066	0,039
-76,797	-190,414	-0,132	-0,001
-75,782	270,899	0,119	0,150
-74,767	-59,665	0,125	-0,038
-73,753	-119,623	-0,056	-0,007
-72,738	-182,191	-0,101	-0,001
-71,724	800,000	-0,027	0,071
-70,709	-200,000	-0,011	0,063
-69,694	-200,000	0,016	-0,144
-68,680	-147,070	0,081	-0,005
-67,665	-200,000	0,009	-0,076
-66,651	369,260	0,083	0,121
-65,636	274,650	-0,049	-0,062
-64,622	3,163	0,051	-0,026
-63,607	-200,000	0,045	-0,172
-62,592	547,064	-0,054	0,093
-61,578	-21,221	-0,069	0,030
-60,563	118,119	-0,119	0,105
-59,549	178,185	-0,105	0,110
-58,534	75,017	-2,417	-1,827
-57,519	368,978	0,170	-0,247
-56,505	-200,000	-1,630	-5,376
-55,490	574,552	1,119	1,968
-54,476	800,000	5,246	11,025
-53,461	-200,000	21,526	335,734
-52,446	800,000	762,416	2287,733
-51,432	508,434	1658,426	2775,457
-50,417	104,679	1623,313	1372,807
-49,403	75,396	1276,979	966,421
-48,388	26,157	1023,751	612,116
-47,373	19,064	989,478	568,129
-46,359	13,542	976,722	542,632
-45,344	9,591	973,468	527,803
-44,330	10,171	971,354	528,541
-43,315	9,070	969,488	523,891
-42,300	8,979	968,328	522,947
-41,286	9,010	967,156	522,395
-40,271	8,970	966,342	521,803
-39,257	8,962	965,373	521,232
-38,242	8,914	964,731	520,709
-37,227	8,927	963,795	520,227
-36,213	8,939	963,139	519,891
-35,198	8,994	962,416	519,658
-34,184	9,016	961,370	519,143
-33,169	8,947	960,307	518,325
-32,154	8,984	959,334	517,899
-31,140	9,050	958,537	517,662
-30,125	9,057	957,681	517,204
-29,111	9,044	956,989	516,766
-28,096	9,069	956,442	516,531
-27,082	9,073	955,612	516,077
-26,067	8,988	955,057	515,482
-25,052	8,962	954,093	514,856
-24,038	8,929	953,517	514,418
-23,023	8,934	952,824	514,041
-22,009	8,997	952,245	513,912
-20,994	9,029	951,604	513,647
-19,979	9,013	951,014	513,256
-18,965	8,973	950,499	512,830
-17,950	8,954	949,868	512,409
-16,936	8,932	949,112	511,910
-15,921	8,914	948,492	511,498
-14,906	8,958	947,497	511,082
-13,892	8,903	947,074	510,656
-12,877	8,913	946,394	510,300
-11,863	8,837	945,811	509,724
-10,848	8,865	945,265	509,499
-9,833	8,961	944,753	509,510
-8,819	8,903	944,101	508,953
-7,804	8,868	943,196	508,334
-6,790	8,908	942,847	508,253
-5,775	8,935	942,411	508,083
-4,760	8,875	941,710	507,493
-3,746	8,865	941,055	507,088
-2,731	8,795	940,218	506,396
-1,717	8,767	939,526	505,912
-0,702	8,798	938,963	505,687
0,313	8,553	938,396	505,370
1,327	12,070	936,179	515,267
2,342	20,854	785,012	455,219
3,356	16,220	451,854	254,973
4,371	-9,834	314,722	149,711
5,386	-13,400	297,140	137,704
6,400	-15,514	291,022	132,747
7,415	-16,213	288,286	130,796
8,429	-17,242	286,434	128,933
9,444	-17,120	285,219	128,494
10,459	-17,188	284,737	128,199
11,473	-17,203	284,140	127,904
12,488	-17,350	283,525	127,472
13,502	-17,275	282,906	127,256
14,517	-17,207	282,588	127,167
15,531	-17,354	282,111	126,799
16,546	-17,302	281,773	126,686
17,561	-17,382	281,260	126,366
18,575	-17,275	281,187	126,426
19,590	-17,412	280,692	126,061
20,604	-17,247	280,315	126,039
21,619	-17,595	280,014	125,558
22,634	-17,345	279,638	125,618
23,648	-17,397	279,252	125,384
24,663	-17,420	279,101	125,282
25,677	-17,520	278,859	125,067
26,692	-17,212	278,386	125,137
27,707	-17,360	278,223	124,912
28,721	-17,475	278,047	124,712
29,736	-17,429	277,595	124,542
30,750	-17,580	277,513	124,351
31,765	-17,410	277,139	124,334
32,780	-17,472	276,969	124,188
33,794	-17,350	276,737	124,187
34,809	-17,392	276,528	124,043
35,823	-17,320	276,222	123,963
36,838	-17,286	275,925	123,851
37,853	-17,556	275,856	123,553
38,867	-17,373	275,377	123,501
39,882	-17,447	275,206	123,343
40,896	-17,356	274,897	123,279
41,911	-17,270	274,562	123,198
42,926	-17,472	274,574	123,004
43,940	-17,332	274,159	122,938
44,955	-17,474	273,970	122,709
45,969	-17,455	273,694	122,593
46,984	-17,402	273,641	122,607
47,999	-17,466	273,353	122,408
49,013	-17,238	273,185	122,535
50,028	-17,235	272,968	122,429
51,042	-17,212	272,650	122,297
52,057	-17,381	272,281	121,963
53,071	-17,438	272,322	121,917
54,086	-17,297	271,943	121,868
55,101	-17,197	271,816	121,893
56,115	-17,274	271,452	121,648
57,130	-17,344	271,257	121,484
58,144	-17,276	271,060	121,449
59,159	-17,305	270,837	121,311
60,174	-17,335	270,643	121,186
61,188	-17,079	270,179	121,203
62,203	-17,148	270,196	121,136
63,217	-17,261	269,674	120,787
64,232	-17,511	269,678	120,548
65,247	-17,341	269,339	120,543
66,261	-17,327	268,982	120,384
67,276	-17,248	268,898	120,409
68,290	-17,257	268,759	120,328
69,305	-17,284	268,615	120,228
70,320	-17,223	268,185	120,081
71,334	-17,255	267,910	119,917
72,349	-17,163	267,799	119,941
73,363	-17,195	267,574	119,800
74,378	-17,298	267,362	119,601
75,393	-17,242	267,210	119,573
76,407	-16,992	266,658	119,543
77,422	-17,030	266,791	119,557
78,436	-17,203	266,476	119,248
79,451	-17,096	266,252	119,235
80,466	-17,196	265,817	118,938
81,480	-17,261	265,710	118,821
82,495	-17,270	265,453	118,687
83,509	-17,096	265,439	118,828
84,524	-17,273	265,177	118,540
85,539	-17,274	264,879	118,395
86,553	-17,497	264,678	118,094
87,568	-17,276	264,494	118,201
88,582	-17,372	264,276	118,006
89,597	-17,136	263,992	118,081
90,611	-17,228	263,816	117,909
91,626	-17,423	263,631	117,640
92,641	-17,047	263,392	117,860
93,655	-17,225	263,236	117,621
94,670	-17,248	263,068	117,514
95,684	-17,309	262,916	117,382
96,699	-17,222	262,533	117,278
97,714	-17,356	262,461	117,115
98,728	-17,120	262,125	117,166
99,743	-17,117	261,940	117,075
100,757	-17,294	261,687	116,795
101,772	-17,311	261,649	116,752
102,787	-17,277	261,263	116,599
103,801	-17,236	261,165	116,581
104,816	-17,390	260,974	116,349
105,830	-17,270	261,002	116,458
106,845	-17,340	260,729	116,263
107,860	-17,280	260,500	116,204
108,874	-17,025	260,096	116,239
109,889	-17,082	260,024	116,147
110,903	-17,241	259,741	115,869
111,918	-17,123	259,554	115,880
112,933	-17,135	259,518	115,843
113,947	-17,165	259,129	115,632
114,962	-17,154	258,961	115,556
115,976	-17,146	258,800	115,481
116,991	-17,271	258,563	115,256
118,006	-17,114	258,420	115,320
119,020	-17,283	258,202	115,064
120,035	-17,228	258,280	115,136
121,049	-17,156	257,976	115,053
122,064	-17,195	257,728	114,899
123,079	-17,089	257,550	114,902
124,093	-17,143	257,299	114,733
125,108	-17,253	256,962	114,476
126,122	-17,121	256,916	114,560
127,137	-17,119	256,578	114,401
128,151	-17,204	256,570	114,314
129,166	-17,269	256,186	114,075
130,181	-17,080	256,077	114,181
131,195	-17,237	255,995	113,997
132,210	-17,280	255,593	113,772
133,224	-17,283	255,507	113,721
134,239	-17,344	255,450	113,632
135,254	-17,104	254,965	113,614
136,268	-17,241	254,813	113,418
137,283	-17,131	254,737	113,468
138,297	-17,195	254,639	113,359
139,312	-17,310	254,321	113,108
140,327	-17,176	254,063	113,100
141,341	-17,176	253,976	113,050
142,356	-17,041	253,656	113,014
143,370	-16,990	253,524	112,989
144,385	-17,175	253,191	112,672
145,400	-17,266	253,200	112,588
146,414	-17,083	252,772	112,544
147,429	-17,164	252,871	112,509
148,443	-16,933	252,504	112,533
149,458	-17,271	252,431	112,201
150,473	-16,945	252,231	112,381
151,487	-17,083	252,045	112,171
152,502	-16,936	251,790	112,172
153,516	-17,235	251,664	111,852
154,531	-17,129	251,451	111,837
155,546	-16,961	251,197	111,856
156,560	-16,847	251,085	111,894
157,575	-16,981	250,838	111,660
158,589	-16,968	250,740	111,618
159,604	-17,029	250,604	111,495
160,619	-16,905	250,332	111,469
161,633	-17,161	250,179	111,174
162,648	-17,067	250,011	111,170
163,662	-17,117	249,927	111,080
164,677	-17,007	249,609	111,021
165,692	-17,052	249,540	110,943
166,706	-17,013	249,235	110,830
167,721	-16,996	249,096	110,773
168,735	-17,047	248,984	110,671
169,750	-16,887	248,804	110,715
170,764	-17,054	248,664	110,503
171,779	-17,119	248,598	110,409
172,794	-17,058	248,488	110,401
173,808	-17,072	248,281	110,287
174,823	-16,980	247,916	110,193
175,837	-17,203	247,913	109,995
176,852	-16,925	247,647	110,100
177,867	-17,065	247,457	109,888
178,881	-16,973	247,273	109,873
179,896	-16,973	247,172	109,819
180,910	-16,873	247,057	109,841
181,925	-17,112	246,841	109,536
182,940	-17,154	246,650	109,407
183,954	-17,189	246,642	109,365
184,969	-17,083	246,385	109,328
185,983	-16,998	246,179	109,298
186,998	-16,909	246,035	109,299
188,013	-16,880	245,699	109,164
189,027	-17,001	245,661	109,036
190,042	-17,011	245,468	108,933
191,056	-17,096	245,361	108,806
192,071	-16,883	245,075	108,845
193,086	-16,794	244,892	108,828
194,100	-17,040	244,814	108,581
195,115	-16,866	244,599	108,619
196,129	-16,954	244,386	108,442
197,144	-16,992	244,175	108,308
198,159	-16,924	243,875	108,220
199,173	-16,842	243,739	108,218
200,188	-16,981	243,579	108,023
201,202	-16,869	243,482	108,063
202,217	-16,987	243,254	107,855
203,232	-16,748	243,032	107,943
204,246	-16,785	242,849	107,821
205,261	-16,707	243,014	107,949
206,275	-14,880	243,309	109,569
207,290	-11,115	244,691	113,284
208,304	-5,874	246,329	118,373
209,319	-2,810	246,973	121,210
210,334	-2,233	247,248	121,813
211,348	-1,586	247,302	122,365
212,363	-1,421	247,296	122,487
213,377	-0,874	247,283	122,923
214,392	-0,207	247,433	123,539
215,407	-0,008	247,447	123,699
216,421	0,193	247,091	123,676
217,436	0,260	246,976	123,663
218,450	0,368	246,796	123,651
219,465	0,508	246,687	123,701
220,480	0,642	246,549	123,730
221,494	0,424	246,263	123,397
222,509	-0,056	246,230	122,974
223,523	0,039	245,914	122,884
224,538	-0,003	245,758	122,760
225,553	-0,023	245,439	122,573
226,567	-0,011	245,448	122,577
227,582	-0,167	245,208	122,318
228,596	-0,098	245,138	122,329
229,611	-0,202	245,024	122,176
230,626	0,009	244,774	122,213
231,640	-0,002	244,625	122,119
232,655	-0,123	244,409	121,901
233,669	-0,205	244,438	121,838
234,684	-0,141	244,060	121,690
235,699	-0,056	243,997	121,717
236,713	-0,080	243,760	121,569
237,728	0,109	243,636	121,650
238,742	-0,016	243,501	121,470
239,757	-0,074	243,455	121,389
240,772	-0,004	243,217	121,317
241,786	-0,039	242,993	121,165
242,801	-0,074	242,848	121,054
243,815	0,046	242,604	121,019
244,830	-0,153	242,540	120,816
245,844	-0,054	242,331	120,780
246,859	0,105	242,085	120,776
247,874	-0,119	241,992	120,537
248,888	0,048	241,947	120,639
249,903	-0,073	241,715	120,415
250,917	0,156	241,508	120,485
251,932	0,021	241,482	120,353
252,947	0,003	241,283	120,229
253,961	0,123	241,070	120,208
254,976	0,040	240,872	120,032
255,990	-0,130	240,781	119,840
257,005	-0,004	240,639	119,859
258,020	0,141	240,628	119,960
259,034	-0,248	240,449	119,548
260,049	-0,188	240,135	119,429
261,063	-0,062	239,894	119,399
262,078	-0,098	239,869	119,348
263,093	-0,038	239,668	119,285
264,107	-0,112	239,492	119,127
265,122	-0,075	239,394	119,098
266,136	0,032	239,301	119,126
267,151	0,052	238,998	118,981
268,166	0,065	238,824	118,894
269,180	0,002	238,779	118,811
270,195	-0,090	238,548	118,612
271,209	-0,105	238,425	118,528
272,224	-0,004	238,306	118,539
273,239	-0,032	238,166	118,436
274,253	-0,043	238,002	118,335
275,268	-0,167	237,865	118,159
276,282	-0,100	237,603	118,071
277,297	-0,047	237,366	117,984
278,312	0,020	237,313	118,001
279,326	0,054	237,231	117,976
280,341	-0,027	237,199	117,885
281,355	-0,142	236,995	117,683
282,370	-0,018	236,781	117,664
283,384	0,118	236,673	117,707
284,399	0,129	236,339	117,539
285,414	0,060	236,244	117,427
286,428	0,005	236,299	117,401
287,443	-0,045	236,182	117,293
288,457	0,101	235,982	117,298
289,472	0,060	235,733	117,131
290,487	0,045	235,600	117,043
291,501	0,007	235,317	116,863
292,516	0,099	235,273	116,902
293,530	0,197	235,123	116,893
294,545	0,003	234,971	116,657
295,560	0,039	234,942	116,660
296,574	0,273	234,647	116,685
297,589	0,221	234,575	116,599
298,603	0,099	234,435	116,424
299,618	0,229	234,119	116,357
300,633	0,118	234,161	116,281
301,647	0,093	234,028	116,185
302,662	0,239	233,899	116,224
303,676	0,184	233,776	116,110
304,691	0,366	233,475	116,091
305,706	0,112	233,484	115,889
306,720	0,401	233,161	115,942
307,735	0,287	233,241	115,882
308,749	0,168	232,897	115,610
309,764	0,153	232,978	115,628
310,779	0,264	232,606	115,518
311,793	0,311	232,412	115,448
312,808	0,570	232,164	115,514
313,822	0,268	232,200	115,289
314,837	0,088	232,162	115,121
315,852	0,485	231,856	115,264
316,866	0,372	231,747	115,113
317,881	0,315	231,501	114,937
318,895	0,289	231,436	114,875
319,910	0,308	231,380	114,851
320,925	0,290	231,198	114,737
321,939	0,216	231,016	114,579
322,954	0,354	230,951	114,642
323,968	0,364	230,723	114,527
324,983	0,410	230,656	114,518
325,997	0,564	230,399	114,498
327,012	0,305	230,267	114,225
328,027	0,478	230,072	114,250
329,041	0,249	230,103	114,080
330,056	0,394	229,944	114,102
331,070	0,587	229,682	114,108
332,085	0,545	229,484	113,968
333,100	0,489	229,436	113,891
334,114	0,443	229,317	113,787
335,129	0,502	229,050	113,689
336,143	0,397	228,895	113,523
337,158	0,678	228,748	113,652
338,173	0,586	228,739	113,568
339,187	0,635	228,511	113,482
340,202	0,522	228,529	113,395
341,216	0,322	228,218	113,080
342,231	0,420	228,120	113,095
343,246	0,461	228,031	113,072
344,260	0,492	227,957	113,049
345,275	0,552	227,816	113,013
346,289	0,604	227,672	112,971
347,304	0,532	227,423	112,783
348,319	0,763	227,313	112,893
349,333	0,683	227,079	112,706
350,348	0,541	227,001	112,551
351,362	0,667	226,760	112,516
352,377	0,492	226,666	112,328
353,392	0,577	226,526	112,312
354,406	0,715	226,392	112,339
355,421	194,046	1312,338	1384,384
356,435	155,540	1444,519	1384,249
