DTS Sentinel unit serial number:	SN410029Multiplexer serial number:	ORYXHardware model number:	OX2-SRSoftware version number:	ORYX F/W v4,00 Oryx Data Collector v3.7.2.0data status	okinstallation	B5 Nyhavnadifferential loss correction	single-endedforward channel	channel 2reverse channel	N/Adate	2023/12/12time	04:57:13forward acquisition time	300,00reverse acquisition time	0,00gamma	499,1914k internal	0,3157k external	0,3157temperature offset calibration	1,0000default loss term (dB/km)	0,3820temperature slope calibration	1,0000multiplexer offset coefficient	1,0000multiplexer slope coefficient	1,0000fibre end	0,00T internal ref (°C)	15,42T ext. ref 1 (°C)	-0,99T ext. ref 2 (°C)	-1,27length (m)	temperature (°C)	Stokes	anti-Stokes-744,400	3,040	-0,051	0,027
-743,385	-61,185	-0,239	0,074
-742,371	800,000	0,036	0,090
-741,356	-116,710	-0,320	0,043
-740,342	800,000	0,050	0,116
-739,327	133,103	-0,178	-0,170
-738,312	53,797	-0,038	0,027
-737,298	-94,275	-0,334	-0,067
-736,283	82,797	0,079	0,063
-735,269	-155,565	-0,383	0,018
-734,254	-200,000	-0,012	-0,048
-733,239	-5,722	-0,534	-0,269
-732,225	30,598	0,208	0,131
-731,210	-99,285	0,137	0,025
-730,196	-19,740	0,060	0,027
-729,181	-200,000	0,011	-0,170
-728,167	5,806	0,055	-0,030
-727,152	-200,000	0,007	0,046
-726,137	-166,573	-0,187	0,006
-725,123	201,022	0,099	-0,112
-724,108	301,150	-0,087	-0,118
-723,094	-200,000	-0,057	-0,239
-722,079	800,000	-0,061	-0,167
-721,064	158,395	0,020	-0,020
-720,050	-105,706	-0,030	0,005
-719,035	222,202	-0,108	-0,129
-718,021	-13,905	-0,162	-0,077
-717,006	-1,759	-0,025	-0,013
-715,991	51,668	-0,122	-0,085
-714,977	-200,000	0,008	-0,042
-713,962	800,000	-0,009	0,022
-712,948	14,538	0,079	-0,045
-711,933	-71,196	-0,038	0,010
-710,918	87,323	-0,016	0,013
-709,904	800,000	-0,025	0,068
-708,889	800,000	-0,031	-0,079
-707,875	800,000	0,028	0,064
-706,860	-44,051	-0,054	0,020
-705,845	214,916	-0,025	0,029
-704,831	234,697	0,048	-0,058
-703,816	-102,417	-0,150	-0,026
-702,802	-200,000	0,017	0,081
-701,787	-200,000	-0,025	-0,192
-700,772	-200,000	-0,007	-0,056
-699,758	71,586	0,055	0,042
-698,743	-126,123	-0,020	0,002
-697,729	-28,360	0,096	-0,041
-696,714	248,234	-0,074	0,092
-695,699	-25,714	0,156	-0,067
-694,685	-182,186	-0,134	-0,002
-693,670	432,771	-0,033	-0,053
-692,656	58,590	-0,083	0,060
-691,641	-75,708	0,098	-0,025
-690,627	251,057	0,059	0,074
-689,612	800,000	-0,045	-0,097
-688,597	69,858	-0,133	0,101
-687,583	471,125	0,023	-0,039
-686,568	466,225	0,023	-0,038
-685,554	800,000	-0,048	-0,110
-684,539	-200,000	-0,017	0,091
-683,524	456,722	0,066	0,109
-682,510	670,486	-0,070	0,134
-681,495	800,000	-0,021	-0,068
-680,481	506,994	-0,045	-0,078
-679,466	28,681	0,037	0,023
-678,451	2,704	-0,113	0,060
-677,437	-39,933	-0,071	0,027
-676,422	-200,000	-0,028	-0,137
-675,408	127,641	-0,087	0,081
-674,393	-200,000	-0,008	-0,044
-673,378	-200,000	0,003	0,026
-672,364	18,483	-0,043	-0,025
-671,349	15,024	-0,058	0,033
-670,335	686,597	-0,066	-0,126
-669,320	-115,100	-0,135	0,019
-668,305	800,000	-0,061	0,144
-667,291	237,173	0,045	0,055
-666,276	-69,514	-0,059	0,016
-665,262	414,538	-0,055	0,087
-664,247	37,869	0,064	0,042
-663,232	206,918	-0,088	0,100
-662,218	0,418	-0,162	0,085
-661,203	-146,916	0,099	0,006
-660,189	-200,000	0,018	-0,063
-659,174	-31,888	-0,160	-0,066
-658,159	-119,846	0,073	0,009
-657,145	82,571	-0,077	-0,061
-656,130	139,317	0,019	-0,018
-655,116	182,625	0,100	-0,108
-654,101	58,520	-0,135	-0,098
-653,086	7,295	-0,091	0,050
-652,072	-79,112	0,089	-0,022
-651,057	17,714	-0,037	0,021
-650,043	43,889	0,063	-0,043
-649,028	16,729	-0,116	0,067
-648,014	326,858	0,134	-0,189
-646,999	-200,000	0,002	-0,095
-645,984	-200,000	0,026	0,150
-644,970	142,392	-0,086	-0,084
-643,955	506,343	-0,033	-0,056
-642,941	-49,862	-0,044	0,015
-641,926	82,061	0,134	0,106
-640,911	50,815	0,060	0,042
-639,897	-24,880	0,064	-0,028
-638,882	-33,208	0,049	-0,020
-637,868	-200,000	-0,009	0,038
-636,853	91,892	-0,049	-0,041
-635,838	-200,000	0,016	0,062
-634,824	800,000	-0,022	-0,049
-633,809	-168,528	0,069	-0,002
-632,795	-110,543	0,016	0,002
-631,780	800,000	-0,042	0,114
-630,765	235,896	-0,056	0,068
-629,751	83,679	0,079	-0,063
-628,736	-158,552	0,135	-0,006
-627,722	-115,044	-0,196	0,027
-626,707	-27,528	0,138	0,059
-625,692	800,000	-0,054	-0,122
-624,678	-93,517	0,080	-0,016
-623,663	112,785	-0,042	-0,037
-622,649	-185,109	0,126	-0,001
-621,634	800,000	-0,041	-0,101
-620,619	-2,728	-0,053	0,027
-619,605	561,412	0,048	0,086
-618,590	265,178	-0,062	0,080
-617,576	581,881	0,045	0,081
-616,561	247,409	-0,027	-0,034
-615,546	-127,956	-0,071	0,007
-614,532	800,000	0,009	-0,024
-613,517	144,920	-0,087	-0,086
-612,503	24,543	-0,038	-0,023
-611,488	-200,000	0,001	0,070
-610,474	-10,575	-0,112	-0,054
-609,459	-106,907	0,121	0,019
-608,444	-200,000	0,010	-0,102
-607,430	-135,201	-0,068	0,006
-606,415	-100,298	-0,037	-0,007
-605,401	-93,668	0,042	0,008
-604,386	231,867	-0,080	0,096
-603,371	184,298	0,059	0,064
-602,357	800,000	-0,008	0,024
-601,342	-154,204	0,021	-0,001
-600,328	-200,000	-0,026	-0,122
-599,313	47,239	-0,038	0,026
-598,298	16,341	0,135	0,078
-597,284	756,138	-0,061	0,122
-596,269	115,154	0,071	0,063
-595,255	797,087	0,058	0,119
-594,240	43,160	0,058	-0,039
-593,225	202,415	-0,074	0,084
-592,211	-188,538	-0,121	0,001
-591,196	800,000	0,041	-0,108
-590,182	-113,634	0,022	0,003
-589,167	-200,000	0,036	0,127
-588,152	465,292	0,052	-0,085
-587,138	-194,779	0,032	-0,000
-586,123	114,164	-0,031	-0,028
-585,109	800,000	-0,011	0,029
-584,094	154,311	-0,025	0,025
-583,079	-170,500	-0,076	-0,002
-582,065	133,175	0,030	-0,028
-581,050	-186,659	0,071	-0,001
-580,036	-113,490	-0,101	-0,014
-579,021	-45,995	0,040	-0,014
-578,006	-133,733	-0,113	-0,010
-576,992	36,065	-0,102	-0,066
-575,977	-80,586	0,158	-0,038
-574,963	7,019	0,072	0,039
-573,948	149,739	-0,024	-0,023
-572,934	-7,102	0,047	-0,024
-571,919	-200,000	0,006	-0,036
-570,904	147,940	0,109	-0,108
-569,890	382,358	-0,062	0,093
-568,875	334,438	0,054	0,076
-567,861	-120,707	0,057	-0,007
-566,846	-120,439	0,026	0,003
-565,831	75,810	-0,081	0,063
-564,817	-169,820	-0,078	-0,002
-563,802	439,464	0,069	-0,110
-562,788	-73,903	0,023	0,006
-561,773	-200,000	-0,008	0,052
-560,758	-16,602	0,095	0,044
-559,744	-66,760	0,063	0,018
-558,729	14,158	-0,051	-0,029
-557,715	-200,000	-0,011	-0,224
-556,700	-200,000	-0,020	-0,115
-555,685	-59,983	-0,109	-0,034
-554,671	-200,000	-0,003	0,050
-553,656	800,000	-0,004	0,009
-552,642	800,000	0,054	0,128
-551,627	59,237	0,060	0,043
-550,612	-200,000	-0,036	0,124
-549,598	-200,000	-0,022	-0,077
-548,583	213,573	-0,092	-0,107
-547,569	800,000	0,022	-0,063
-546,554	-200,000	-0,004	-0,058
-545,539	43,135	0,108	0,072
-544,525	-200,000	-0,005	0,088
-543,510	-89,223	-0,077	0,017
-542,496	314,469	-0,059	-0,081
-541,481	-200,000	-0,033	-0,177
-540,466	739,506	-0,011	0,022
-539,452	440,387	-0,007	-0,010
-538,437	303,932	0,071	0,096
-537,423	800,000	-0,048	-0,128
-536,408	-28,863	-0,094	0,039
-535,393	138,548	-0,067	-0,064
-534,379	-200,000	0,000	-0,207
-533,364	437,459	-0,097	-0,155
-532,350	21,270	-0,045	-0,027
-531,335	-13,629	-0,022	-0,010
-530,321	-43,649	-0,051	0,019
-529,306	245,294	-0,092	0,113
-528,291	98,705	-0,033	0,027
-527,277	-200,000	0,010	-0,148
-526,262	126,341	0,130	-0,120
-525,248	-200,000	-0,032	-0,111
-524,233	576,197	-0,081	0,146
-523,218	660,045	-0,037	0,069
-522,204	-200,000	0,007	0,086
-521,189	-166,388	-0,029	0,001
-520,175	-66,204	0,146	0,042
-519,160	745,408	-0,018	-0,036
-518,145	203,117	-0,066	0,074
-517,131	-88,849	0,021	-0,005
-516,116	89,230	-0,058	0,047
-515,102	211,843	0,108	0,125
-514,087	102,311	-0,050	-0,043
-513,072	-200,000	-0,037	-0,175
-512,058	800,000	0,010	-0,031
-511,043	688,438	0,032	-0,062
-510,029	431,371	-0,096	0,152
-509,014	800,000	-0,065	0,207
-507,999	-126,051	-0,059	0,006
-506,985	-200,000	0,012	-0,087
-505,970	-31,756	-0,088	-0,036
-504,956	107,602	-0,053	-0,046
-503,941	668,024	0,057	-0,109
-502,926	-74,301	0,117	0,031
-501,912	800,000	-0,046	0,102
-500,897	800,000	-0,029	-0,066
-499,883	-11,563	-0,057	0,027
-498,868	-95,647	-0,011	-0,002
-497,853	-82,610	-0,086	0,020
-496,839	531,968	-0,054	0,093
-495,824	-8,848	0,052	0,025
-494,810	-154,060	0,089	0,004
-493,795	52,928	-0,100	0,070
-492,781	-55,187	0,080	-0,026
-491,766	602,817	-0,045	0,081
-490,751	-200,000	0,004	0,188
-489,737	-2,086	-0,139	-0,071
-488,722	37,471	0,083	0,054
-487,708	-119,274	-0,039	0,005
-486,693	-104,835	0,157	-0,026
-485,678	-200,000	-0,003	0,020
-484,664	485,183	-0,030	-0,050
-483,649	291,905	0,091	-0,121
-482,635	97,657	-0,055	0,046
-481,620	204,882	-0,072	0,082
-480,605	-45,055	-0,151	-0,054
-479,591	-200,000	-0,006	0,059
-478,576	465,552	0,048	-0,079
-477,562	-200,000	-0,004	-0,027
-476,547	-200,000	-0,002	-0,106
-475,532	-20,443	-0,086	-0,038
-474,518	-200,000	-0,001	0,032
-473,503	445,480	0,048	-0,078
-472,489	-110,063	0,067	-0,010
-471,474	-25,553	0,075	0,032
-470,459	35,365	-0,099	0,063
-469,445	800,000	-0,020	-0,053
-468,430	-200,000	0,032	0,127
-467,416	-200,000	-0,031	-0,121
-466,401	-122,943	0,041	-0,005
-465,386	254,439	0,041	-0,051
-464,372	-15,966	0,064	0,030
-463,357	-123,432	-0,077	0,009
-462,343	587,451	-0,050	-0,091
-461,328	-200,000	0,017	0,067
-460,313	29,700	0,052	-0,032
-459,299	800,000	0,040	-0,091
-458,284	250,360	-0,033	-0,041
-457,270	-22,761	0,078	-0,034
-456,255	-200,000	-0,017	-0,071
-455,241	204,223	0,089	-0,101
-454,226	-170,112	-0,043	-0,001
-453,211	-200,000	-0,027	0,143
-452,197	-200,000	0,000	-0,114
-451,182	530,710	-0,029	0,050
-450,168	-2,528	0,124	0,063
-449,153	40,162	-0,093	-0,061
-448,138	-144,264	0,116	-0,008
-447,124	535,265	0,055	-0,096
-446,109	584,764	-0,068	0,121
-445,095	97,848	0,107	0,090
-444,080	800,000	-0,036	-0,101
-443,065	-200,000	0,023	0,163
-442,051	-59,610	0,040	-0,013
-441,036	-13,298	-0,090	0,042
-440,022	571,563	0,021	0,038
-439,007	-200,000	0,017	-0,074
-437,992	225,244	0,019	0,023
-436,978	66,729	0,058	0,043
-435,963	148,386	0,066	0,065
-434,949	126,480	0,019	-0,018
-433,934	36,841	0,119	0,077
-432,919	-59,327	-0,052	0,016
-431,905	51,617	0,037	0,026
-430,890	-93,955	-0,084	-0,017
-429,876	610,505	-0,036	0,067
-428,861	-140,050	0,113	0,009
-427,846	72,964	-0,054	0,041
-426,832	83,443	-0,041	-0,032
-425,817	5,052	-0,104	-0,056
-424,803	800,000	-0,041	-0,089
-423,788	268,893	-0,036	-0,047
-422,773	-75,882	0,109	-0,028
-421,759	-200,000	0,001	0,005
-420,744	788,953	0,078	-0,157
-419,730	-15,488	0,036	0,017
-418,715	9,340	-0,118	-0,065
-417,701	54,455	0,021	0,015
-416,686	-200,000	0,024	-0,078
-415,671	514,820	-0,024	0,041
-414,657	6,532	0,066	-0,035
-413,642	-200,000	-0,002	0,148
-412,628	0,334	-0,102	0,053
-411,613	-157,887	-0,041	-0,002
-410,598	-200,000	-0,012	-0,168
-409,584	332,304	0,041	0,057
-408,569	-200,000	0,005	0,071
-407,555	-1,935	0,109	0,056
-406,540	98,192	-0,085	0,072
-405,525	358,224	-0,077	0,112
-404,511	800,000	0,021	0,063
-403,496	56,538	-0,070	0,049
-402,482	-97,609	0,164	0,031
-401,467	590,854	0,043	-0,077
-400,452	-110,105	-0,129	0,019
-399,438	-200,000	-0,002	0,066
-398,423	-200,000	-0,006	-0,032
-397,409	800,000	-0,004	0,012
-396,394	-200,000	-0,011	-0,038
-395,379	-200,000	0,005	-0,033
-394,365	-200,000	-0,013	0,090
-393,350	-68,363	0,090	-0,025
-392,336	-50,776	0,039	0,013
-391,321	-72,049	0,045	0,012
-390,306	-153,856	-0,266	0,013
-389,292	-200,000	-0,020	0,068
-388,277	350,700	0,060	-0,087
-387,263	800,000	0,015	-0,038
-386,248	-200,000	-0,002	-0,062
-385,233	-200,000	-0,001	-0,010
-384,219	-124,354	-0,115	-0,013
-383,204	497,991	0,050	0,085
-382,190	160,213	0,031	-0,032
-381,175	86,526	0,046	0,037
-380,160	-68,720	0,125	-0,035
-379,146	613,030	-0,027	-0,050
-378,131	-200,000	-0,020	-0,097
-377,117	140,622	0,130	0,125
-376,102	9,010	-0,095	0,052
-375,088	490,730	-0,071	-0,118
-374,073	355,541	-0,030	-0,043
-373,058	221,501	-0,054	0,064
-372,044	220,628	0,056	0,065
-371,029	13,441	-0,056	-0,032
-370,015	800,000	-0,026	0,052
-369,000	-90,024	0,082	0,017
-367,985	-9,679	0,027	0,013
-366,971	-200,000	0,015	0,083
-365,956	-200,000	0,011	-0,132
-364,942	-115,876	0,117	0,016
-363,927	800,000	0,016	0,039
-362,912	-137,522	0,066	-0,005
-361,898	661,772	0,038	-0,072
-360,883	-21,382	0,071	0,031
-359,869	-9,509	-0,079	0,038
-358,854	-200,000	0,007	0,119
-357,839	181,062	0,016	0,017
-356,825	-200,000	-0,015	0,094
-355,810	-200,000	-0,005	-0,022
-354,796	-56,431	-0,021	0,007
-353,781	-150,188	-0,095	-0,005
-352,766	680,797	-0,053	0,101
-351,752	-140,228	0,214	-0,016
-350,737	-130,660	0,151	0,015
-349,723	-200,000	-0,036	-0,132
-348,708	800,000	0,024	-0,062
-347,693	-200,000	0,002	-0,081
-346,679	193,657	-0,047	0,052
-345,664	-86,006	-0,063	-0,014
-344,650	-101,530	0,070	-0,012
-343,635	57,698	0,102	-0,073
-342,620	484,414	-0,046	0,076
-341,606	20,055	-0,088	0,051
-340,591	135,517	-0,019	0,018
-339,577	-53,692	-0,044	0,014
-338,562	286,131	0,026	-0,034
-337,548	-12,695	0,061	-0,029
-336,533	269,910	-0,048	0,061
-335,518	29,395	0,066	-0,041
-334,504	-60,685	-0,036	0,011
-333,489	-200,000	0,031	0,192
-332,475	-59,512	-0,048	0,015
-331,460	92,753	-0,039	0,032
-330,445	450,172	-0,042	0,067
-329,431	115,249	0,095	0,084
-328,416	-200,000	-0,000	-0,005
-327,402	70,823	-0,053	-0,040
-326,387	472,884	0,075	-0,123
-325,372	445,548	-0,097	-0,155
-324,358	-200,000	0,003	-0,021
-323,343	-200,000	0,014	-0,049
-322,329	-200,000	0,027	-0,187
-321,314	-78,623	0,048	0,012
-320,299	800,000	0,044	-0,100
-319,285	29,276	-0,080	0,049
-318,270	-200,000	-0,019	0,080
-317,256	-200,000	0,006	0,098
-316,241	-51,504	0,154	-0,052
-315,226	247,400	0,010	0,013
-314,212	-118,876	-0,057	-0,007
-313,197	800,000	0,008	0,016
-312,183	11,387	0,081	-0,045
-311,168	-200,000	0,018	-0,162
-310,153	-200,000	-0,041	-0,167
-309,139	-200,000	0,010	-0,079
-308,124	-23,569	0,087	-0,038
-307,110	112,850	-0,076	-0,067
-306,095	800,000	-0,038	0,100
-305,080	258,094	0,134	0,167
-304,066	63,837	0,044	-0,032
-303,051	800,000	-0,039	0,122
-302,037	800,000	-0,010	-0,025
-301,022	-200,000	-0,019	-0,116
-300,008	-200,000	0,015	0,068
-298,993	-11,412	0,134	0,064
-297,978	511,323	-0,071	0,120
-296,964	-163,133	0,026	0,001
-295,949	-200,000	-0,003	-0,091
-294,935	179,300	-0,098	0,104
-293,920	-200,000	0,019	0,106
-292,905	-81,075	-0,018	0,004
-291,891	-200,000	-0,010	0,039
-290,876	4,338	0,067	0,035
-289,862	-173,663	-0,189	-0,004
-288,847	-144,350	-0,056	-0,004
-287,832	-200,000	0,004	-0,123
-286,818	84,536	0,018	-0,014
-285,803	-31,631	-0,118	-0,048
-284,789	193,155	0,096	0,106
-283,774	51,655	-0,068	0,047
-282,759	14,751	0,113	-0,064
-281,745	-132,290	-0,065	0,006
-280,730	800,000	-0,038	0,087
-279,716	-118,092	0,080	-0,010
-278,701	-48,579	-0,021	0,007
-277,686	-200,000	0,023	0,133
-276,672	349,558	-0,050	-0,071
-275,657	229,764	-0,090	0,106
-274,643	26,199	-0,031	-0,019
-273,628	497,948	0,019	-0,033
-272,613	-200,000	0,001	0,060
-271,599	26,021	0,069	0,042
-270,584	430,182	0,027	0,043
-269,570	-59,635	-0,149	0,046
-268,555	652,091	0,034	0,064
-267,540	-5,899	0,064	0,032
-266,526	-46,861	0,028	-0,010
-265,511	119,704	-0,081	-0,073
-264,497	-105,581	-0,028	0,005
-263,482	800,000	0,071	0,177
-262,467	498,021	-0,038	0,063
-261,453	-200,000	0,012	0,152
-260,438	-200,000	0,004	-0,084
-259,424	58,582	-0,064	-0,045
-258,409	-177,746	0,030	-0,001
-257,395	295,056	-0,097	0,129
-256,380	400,826	0,034	0,051
-255,365	-200,000	0,003	-0,117
-254,351	-200,000	-0,000	-0,107
-253,336	-200,000	0,005	0,100
-252,322	51,436	0,015	-0,010
-251,307	240,470	-0,054	0,065
-250,292	267,801	-0,032	0,040
-249,278	124,271	0,036	-0,033
-248,263	90,359	0,085	-0,068
-247,249	557,101	-0,038	0,066
-246,234	-136,345	0,015	0,001
-245,219	800,000	-0,013	-0,029
-244,205	-200,000	0,003	-0,028
-243,190	19,957	0,069	0,040
-242,176	11,586	-0,076	-0,042
-241,161	-14,537	0,145	0,067
-240,146	182,519	-0,145	0,155
-239,132	-93,487	0,062	0,012
-238,117	800,000	0,055	-0,120
-237,103	-119,267	-0,088	-0,011
-236,088	800,000	0,039	-0,080
-235,073	-85,544	0,062	-0,014
-234,059	800,000	0,011	0,032
-233,044	68,680	-0,075	-0,056
-232,030	-153,706	0,081	-0,004
-231,015	-200,000	0,006	-0,122
-230,000	407,292	0,026	0,039
-228,986	9,013	-0,023	0,012
-227,971	-200,000	0,029	-0,179
-226,957	-63,246	-0,187	0,055
-225,942	-200,000	0,004	0,049
-224,927	800,000	-0,049	0,111
-223,913	-40,847	-0,034	-0,013
-222,898	646,921	0,047	-0,088
-221,884	201,773	-0,072	-0,081
-220,869	-200,000	0,004	0,127
-219,855	72,567	0,125	0,094
-218,840	-50,248	0,065	-0,022
-217,825	-174,364	-0,012	0,000
-216,811	-54,444	0,071	0,023
-215,796	64,335	-0,130	-0,094
-214,782	800,000	0,033	-0,104
-213,767	138,855	-0,062	0,059
-212,752	-19,929	0,101	-0,045
-211,738	29,725	0,100	0,061
-210,723	-55,911	-0,035	0,011
-209,709	-200,000	0,007	-0,110
-208,694	85,199	-0,123	-0,097
-207,679	-200,000	-0,002	0,067
-206,665	127,144	-0,064	-0,058
-205,650	-131,667	0,084	-0,008
-204,636	-9,672	-0,011	-0,006
-203,621	800,000	0,016	0,049
-202,606	-63,403	-0,196	-0,058
-201,592	800,000	0,021	-0,059
-200,577	-102,210	0,122	0,021
-199,563	18,191	0,085	-0,049
-198,548	204,215	-0,054	0,061
-197,533	-200,000	-0,013	0,048
-196,519	75,629	-0,131	-0,100
-195,504	-200,000	-0,032	-0,138
-194,490	97,637	-0,048	-0,040
-193,475	277,413	0,019	0,025
-192,460	-136,106	0,087	-0,007
-191,446	-200,000	-0,010	0,132
-190,431	-24,501	-0,101	-0,043
-189,417	800,000	0,030	0,063
-188,402	-200,000	0,002	0,094
-187,387	754,299	-0,044	-0,087
-186,373	-42,558	0,081	-0,030
-185,358	-200,000	0,001	0,006
-184,344	800,000	-0,027	-0,064
-183,329	2,534	0,095	-0,050
-182,315	119,006	-0,038	-0,034
-181,300	-67,227	-0,138	0,039
-180,285	800,000	-0,043	-0,091
-179,271	-12,622	-0,041	0,019
-178,256	-146,149	-0,078	-0,005
-177,242	800,000	0,044	0,108
-176,227	-200,000	0,008	0,133
-175,212	-200,000	-0,013	-0,088
-174,198	-155,034	-0,081	-0,004
-173,183	13,595	0,140	0,078
-172,169	-200,000	-0,015	-0,255
-171,154	-39,374	-0,137	-0,051
-170,139	-200,000	-0,006	0,053
-169,125	-200,000	-0,019	-0,104
-168,110	368,952	0,084	0,123
-167,096	-37,677	-0,107	-0,041
-166,081	-11,845	0,059	-0,028
-165,066	-181,486	-0,045	-0,001
-164,052	-58,933	-0,064	-0,020
-163,037	636,572	-0,033	0,060
-162,023	-94,669	0,189	-0,037
-161,008	-164,058	0,169	0,006
-159,993	-200,000	0,025	-0,115
-158,979	-50,676	0,126	0,043
-157,964	800,000	-0,027	0,065
-156,950	800,000	-0,016	-0,037
-155,935	-106,343	0,066	0,010
-154,920	-68,846	0,118	-0,033
-153,906	-0,101	0,126	0,064
-152,891	-114,742	-0,033	0,004
-151,877	102,006	0,048	0,040
-150,862	-117,551	0,119	-0,015
-149,847	800,000	-0,032	-0,067
-148,833	-22,566	0,095	0,041
-147,818	101,087	-0,030	-0,025
-146,804	56,760	-0,081	-0,057
-145,789	-200,000	0,004	0,111
-144,775	125,036	0,024	-0,022
-143,760	-155,081	-0,109	0,005
-142,745	28,783	-0,138	0,084
-141,731	-200,000	0,000	-0,055
-140,716	-122,437	-0,057	-0,007
-139,702	454,989	0,080	0,128
-138,687	22,673	-0,029	0,017
-137,672	-24,816	-0,066	-0,028
-136,658	-138,043	-0,099	-0,008
-135,643	800,000	-0,050	-0,151
-134,629	-16,003	-0,036	-0,016
-133,614	-14,955	-0,042	0,020
-132,599	-200,000	-0,016	-0,098
-131,585	800,000	-0,053	0,113
-130,570	22,646	-0,023	0,014
-129,556	167,819	0,085	-0,087
-128,541	-200,000	-0,002	0,103
-127,526	432,706	-0,031	-0,049
-126,512	30,066	0,088	0,054
-125,497	300,490	0,021	0,028
-124,483	93,815	0,051	-0,042
-123,468	6,397	0,054	-0,029
-122,453	-200,000	0,017	-0,142
-121,439	-1,065	-0,033	0,017
-120,424	158,579	0,060	0,060
-119,410	800,000	0,037	0,099
-118,395	-31,389	0,068	-0,027
-117,380	28,233	-0,076	0,046
-116,366	210,143	-0,059	-0,067
-115,351	236,631	-0,058	0,069
-114,337	800,000	-0,026	-0,067
-113,322	72,049	0,052	0,039
-112,307	-200,000	-0,014	-0,103
-111,293	800,000	0,027	-0,069
-110,278	56,404	0,089	0,062
-109,264	-15,715	-0,172	0,079
-108,249	-56,514	0,050	-0,016
-107,234	-118,639	0,028	0,004
-106,220	-200,000	-0,010	-0,120
-105,205	-200,000	-0,003	-0,059
-104,191	-200,000	-0,010	-0,107
-103,176	118,642	-0,154	-0,137
-102,162	210,066	-0,040	-0,045
-101,147	800,000	0,021	0,046
-100,132	-200,000	-0,014	0,056
-99,118	-200,000	0,044	-0,182
-98,103	-122,047	-0,107	0,012
-97,089	391,090	0,133	0,199
-96,074	588,638	-0,048	0,086
-95,059	-100,309	-0,193	-0,034
-94,045	43,006	-0,069	0,045
-93,030	111,300	-0,064	-0,056
-92,016	53,192	-0,134	-0,092
-91,001	50,366	0,031	-0,021
-89,986	385,638	0,061	-0,090
-88,972	-200,000	-0,007	-0,065
-87,957	800,000	-0,072	-0,180
-86,943	55,955	-0,025	0,018
-85,928	-30,303	-0,039	-0,016
-84,913	-200,000	-0,011	0,041
-83,899	800,000	-0,079	0,201
-82,884	498,831	0,042	-0,070
-81,870	53,218	0,091	0,062
-80,855	-43,299	0,079	0,029
-79,840	-200,000	0,007	0,045
-78,826	-50,405	0,146	0,049
-77,811	230,273	-0,081	-0,096
-76,797	452,065	0,070	0,111
-75,782	-66,201	0,110	-0,031
-74,767	391,536	-0,022	-0,033
-73,753	-53,515	-0,041	0,014
-72,738	485,823	0,037	-0,061
-71,724	164,583	-0,102	-0,103
-70,709	-200,000	0,023	-0,092
-69,694	-117,837	0,177	0,023
-68,680	392,278	-0,054	-0,080
-67,665	93,865	0,042	0,034
-66,651	-200,000	0,033	0,122
-65,636	-200,000	0,026	-0,110
-64,622	3,828	0,112	0,058
-63,607	221,551	0,038	0,044
-62,592	-149,305	0,061	0,003
-61,578	16,019	-0,069	-0,039
-60,563	-127,904	-0,138	0,014
-59,549	113,968	-0,071	0,062
-58,534	20,234	-1,936	-1,120
-57,519	-200,000	-0,285	-0,997
-56,505	-200,000	-1,318	-4,895
-55,490	9,261	0,676	0,366
-54,476	800,000	5,394	12,320
-53,461	-200,000	17,578	282,622
-52,446	800,000	727,203	2213,105
-51,432	534,757	1643,252	2807,221
-50,417	110,054	1633,708	1407,104
-49,403	75,405	1286,268	973,257
-48,388	32,133	1027,654	634,690
-47,373	20,219	989,537	571,862
-46,359	18,512	977,486	559,277
-45,344	15,717	973,583	547,874
-44,330	15,950	972,114	547,786
-43,315	15,472	970,300	545,183
-42,300	15,497	969,161	544,602
-41,286	15,379	968,344	543,737
-40,271	15,422	967,135	543,175
-39,257	15,433	966,326	542,736
-38,242	15,458	965,401	542,276
-37,227	15,430	964,591	541,707
-36,213	15,454	963,757	541,297
-35,198	15,442	962,753	540,672
-34,184	15,457	962,177	540,376
-33,169	15,421	961,105	539,637
-32,154	15,527	960,122	539,405
-31,140	15,502	959,439	538,921
-30,125	15,557	958,422	538,503
-29,111	15,454	957,800	537,803
-28,096	15,417	957,390	537,430
-27,082	15,506	956,345	537,108
-26,067	15,450	955,566	536,471
-25,052	15,458	954,912	536,107
-24,038	15,439	954,322	535,693
-23,023	15,450	953,563	535,282
-22,009	15,535	952,810	535,110
-20,994	15,504	952,266	534,684
-19,979	15,498	951,482	534,203
-18,965	15,495	950,928	533,862
-17,950	15,498	950,417	533,562
-16,936	15,389	949,793	532,844
-15,921	15,386	949,173	532,464
-14,906	15,381	948,355	531,968
-13,892	15,268	948,008	531,393
-12,877	15,309	947,216	531,060
-11,863	15,288	946,472	530,555
-10,848	15,295	946,061	530,324
-9,833	15,450	945,683	530,584
-8,819	15,428	944,839	530,022
-7,804	15,365	944,245	529,466
-6,790	15,292	943,765	528,943
-5,775	15,361	943,089	528,762
-4,760	15,410	942,409	528,514
-3,746	15,343	941,882	527,986
-2,731	15,295	940,953	527,292
-1,717	15,277	940,369	526,887
-0,702	15,196	939,744	526,261
0,313	14,999	939,167	526,110
1,327	18,232	936,947	535,005
2,342	27,205	794,191	477,261
3,356	23,929	459,230	270,934
4,371	-3,330	314,939	156,782
5,386	-7,292	296,803	143,723
6,400	-9,402	290,835	138,721
7,415	-9,817	288,456	137,164
8,429	-9,877	286,887	136,347
9,444	-9,818	285,985	135,964
10,459	-9,976	285,574	135,601
11,473	-9,914	284,724	135,246
12,488	-9,746	284,176	135,138
13,502	-10,004	283,883	134,736
14,517	-9,964	283,420	134,543
15,531	-9,932	282,971	134,349
16,546	-9,820	282,423	134,184
17,561	-9,845	282,011	133,953
18,575	-9,842	281,717	133,804
19,590	-10,039	281,460	133,480
20,604	-9,888	281,185	133,483
21,619	-10,022	280,770	133,146
22,634	-9,819	280,355	133,132
23,648	-9,827	280,180	133,029
24,663	-9,983	279,927	132,748
25,677	-10,020	279,609	132,550
26,692	-9,972	279,387	132,478
27,707	-9,932	278,908	132,277
28,721	-10,032	278,969	132,199
29,736	-9,922	278,456	132,049
30,750	-9,948	278,391	131,982
31,765	-9,833	277,902	131,848
32,780	-9,840	277,705	131,736
33,794	-9,887	277,547	131,605
34,809	-9,846	277,242	131,487
35,823	-9,963	277,069	131,283
36,838	-10,196	276,887	130,964
37,853	-10,090	276,408	130,826
38,867	-9,984	276,255	130,842
39,882	-10,048	276,197	130,742
40,896	-9,946	275,906	130,689
41,911	-9,958	275,563	130,503
42,926	-10,089	275,320	130,254
43,940	-9,900	275,018	130,277
44,955	-9,999	274,864	130,099
45,969	-10,216	274,495	129,710
46,984	-10,241	274,336	129,600
47,999	-10,439	274,019	129,253
49,013	-10,397	273,780	129,168
50,028	-10,529	273,470	128,888
51,042	-10,555	273,262	128,754
52,057	-10,562	272,967	128,597
53,071	-10,469	272,730	128,560
54,086	-10,582	272,637	128,399
55,101	-10,445	272,461	128,432
56,115	-10,242	272,232	128,501
57,130	-9,946	272,181	128,740
58,144	-9,832	272,040	128,768
59,159	-9,829	271,697	128,597
60,174	-9,793	271,618	128,582
61,188	-9,815	271,361	128,428
62,203	-9,773	271,082	128,323
63,217	-9,736	270,870	128,246
64,232	-9,914	270,743	128,010
65,247	-9,819	270,546	127,994
66,261	-9,722	270,112	127,866
67,276	-10,047	269,878	127,445
68,290	-10,080	269,603	127,273
69,305	-10,092	269,404	127,156
70,320	-10,145	269,224	127,012
71,334	-9,972	269,123	127,111
72,349	-9,833	268,820	127,084
73,363	-10,029	268,779	126,874
74,378	-9,785	268,411	126,912
75,393	-9,820	268,163	126,751
76,407	-9,865	268,109	126,674
77,422	-9,860	267,768	126,505
78,436	-9,964	267,737	126,385
79,451	-9,864	267,337	126,276
80,466	-9,892	267,114	126,134
81,480	-9,896	266,955	126,044
82,495	-9,997	266,721	125,831
83,509	-9,802	266,474	125,880
84,524	-10,044	266,085	125,466
85,539	-9,999	265,937	125,425
86,553	-9,983	265,757	125,344
87,568	-10,123	265,676	125,168
88,582	-10,084	265,490	125,104
89,597	-9,918	265,154	125,085
90,611	-10,042	265,079	124,926
91,626	-9,950	265,008	124,965
92,641	-9,744	264,653	124,971
93,655	-9,961	264,442	124,666
94,670	-9,951	264,164	124,532
95,684	-10,035	264,154	124,442
96,699	-9,998	263,892	124,339
97,714	-9,918	263,634	124,279
98,728	-10,011	263,236	123,997
99,743	-10,197	263,173	123,790
100,757	-10,277	262,915	123,586
101,772	-10,159	262,833	123,642
102,787	-10,065	262,637	123,622
103,801	-9,885	262,386	123,654
104,816	-9,787	262,221	123,652
105,830	-9,989	262,036	123,374
106,845	-9,985	261,950	123,326
107,860	-9,928	261,703	123,249
108,874	-10,006	261,548	123,096
109,889	-9,864	261,173	123,035
110,903	-10,021	261,175	122,886
111,918	-10,032	260,915	122,742
112,933	-9,916	260,712	122,738
113,947	-9,831	260,571	122,736
114,962	-9,784	260,291	122,635
115,976	-9,802	260,079	122,508
116,991	-9,813	259,888	122,397
118,006	-9,744	259,621	122,322
119,020	-9,770	259,599	122,278
120,035	-9,794	259,525	122,211
121,049	-9,807	259,346	122,104
122,064	-9,924	259,063	121,857
123,079	-9,897	258,901	121,794
124,093	-9,738	258,695	121,826
125,108	-10,114	258,515	121,400
126,122	-10,097	258,120	121,219
127,137	-10,258	257,987	121,005
128,151	-9,980	257,683	121,094
129,166	-9,834	257,525	121,137
130,181	-10,136	257,417	120,812
131,195	-10,165	257,210	120,678
132,210	-10,006	257,070	120,741
133,224	-9,941	256,933	120,722
134,239	-9,749	256,783	120,808
135,254	-9,822	256,597	120,646
136,268	-9,893	256,261	120,416
137,283	-10,202	256,023	120,026
138,297	-10,113	255,835	120,004
139,312	-10,163	255,573	119,827
140,327	-9,978	255,547	119,964
141,341	-9,824	255,516	120,071
142,356	-9,630	255,158	120,060
143,370	-9,807	255,127	119,882
144,385	-9,488	254,911	120,045
145,400	-9,677	254,846	119,840
146,414	-9,631	254,397	119,658
147,429	-9,711	254,352	119,558
148,443	-9,646	254,127	119,497
149,458	-9,658	254,053	119,441
150,473	-9,515	253,732	119,403
151,487	-9,781	253,570	119,088
152,502	-9,698	253,446	119,090
153,516	-9,788	253,328	118,947
154,531	-9,507	253,063	119,052
155,546	-9,658	252,922	118,846
156,560	-9,748	252,672	118,642
157,575	-9,969	252,498	118,361
158,589	-9,857	252,471	118,433
159,604	-9,747	252,098	118,341
160,619	-9,680	251,991	118,338
161,633	-9,783	251,837	118,167
162,648	-9,703	251,671	118,146
163,662	-9,659	251,491	118,089
164,677	-9,711	251,421	118,001
165,692	-9,663	251,058	117,860
166,706	-9,748	250,917	117,712
167,721	-9,745	250,827	117,662
168,735	-9,599	250,667	117,700
169,750	-9,605	250,519	117,615
170,764	-9,679	250,315	117,446
171,779	-9,762	250,282	117,350
172,794	-9,558	249,927	117,345
173,808	-9,685	249,834	117,184
174,823	-9,906	249,477	116,821
175,837	-10,176	249,310	116,505
176,852	-9,761	249,317	116,846
177,867	-9,752	249,299	116,835
178,881	-9,678	249,081	116,785
179,896	-9,777	248,903	116,608
180,910	-9,608	248,616	116,605
181,925	-9,637	248,442	116,488
182,940	-9,344	248,195	116,607
183,954	-9,561	248,215	116,424
184,969	-9,699	248,047	116,220
185,983	-9,527	247,771	116,224
186,998	-9,597	247,723	116,133
188,013	-9,586	247,411	115,985
189,027	-9,670	247,413	115,905
190,042	-9,480	247,014	115,867
191,056	-9,559	246,784	115,682
192,071	-9,482	246,594	115,647
193,086	-9,811	246,669	115,399
194,100	-9,564	246,289	115,416
195,115	-9,755	246,214	115,212
196,129	-9,487	246,032	115,339
197,144	-9,718	245,808	115,032
198,159	-9,594	245,543	115,000
199,173	-9,731	245,387	114,804
200,188	-9,562	245,267	114,877
201,202	-10,078	245,112	114,368
202,217	-10,170	244,775	114,125
203,232	-10,237	244,538	113,949
204,246	-9,786	244,544	114,313
205,261	-9,603	244,542	114,453
206,275	-10,179	243,838	113,640
207,290	-7,541	245,162	116,422
208,304	-0,686	247,421	123,173
209,319	3,157	248,463	126,872
210,334	3,533	248,551	127,217
211,348	3,993	248,385	127,502
212,363	3,914	248,402	127,435
213,377	4,074	248,242	127,473
214,392	3,776	247,965	127,074
215,407	3,841	247,900	127,083
216,421	3,899	247,597	126,964
217,436	4,060	247,509	127,040
218,450	4,333	247,218	127,105
219,465	3,926	247,043	126,669
220,480	3,749	246,876	126,426
221,494	3,694	246,822	126,341
222,509	3,713	246,602	126,233
223,523	3,476	246,464	125,956
224,538	3,529	245,980	125,741
225,553	3,274	245,870	125,465
226,567	3,593	245,732	125,645
227,582	3,755	245,607	125,703
228,596	3,600	245,631	125,576
229,611	3,408	245,273	125,225
230,626	3,174	245,259	125,015
231,640	3,412	245,003	125,068
232,655	3,329	244,910	124,942
233,669	3,456	244,698	124,926
234,684	3,460	244,443	124,788
235,699	3,600	244,436	124,888
236,713	3,888	244,397	125,090
237,728	3,425	244,113	124,558
238,742	3,336	243,877	124,354
239,757	3,252	243,812	124,242
240,772	3,581	243,427	124,301
241,786	3,509	243,409	124,222
242,801	3,457	243,132	124,028
243,815	3,400	243,130	123,969
244,830	3,487	242,959	123,941
245,844	3,662	242,807	123,994
246,859	3,519	242,514	123,718
247,874	3,430	242,403	123,579
248,888	3,328	242,424	123,496
249,903	3,739	242,186	123,696
250,917	3,699	242,109	123,612
251,932	4,021	241,831	123,718
252,947	3,862	241,658	123,491
253,961	3,403	241,440	123,001
254,976	3,465	241,436	123,037
255,990	3,682	241,286	123,124
257,005	3,548	241,091	122,906
258,020	3,293	240,947	122,617
259,034	3,144	240,895	122,460
260,049	3,482	240,645	122,593
261,063	3,381	240,350	122,351
262,078	3,454	240,259	122,352
263,093	3,636	240,191	122,452
264,107	3,379	240,087	122,182
265,122	3,403	239,745	122,017
266,136	3,623	239,723	122,170
267,151	3,846	239,591	122,269
268,166	3,438	239,423	121,848
269,180	3,407	239,055	121,626
270,195	3,672	239,279	121,940
271,209	3,962	239,067	122,050
272,224	3,629	238,684	121,581
273,239	2,952	238,698	121,040
274,253	3,093	238,464	121,022
275,268	3,499	238,331	121,265
276,282	3,570	238,251	121,270
277,297	3,315	237,885	120,871
278,312	3,527	237,873	121,022
279,326	3,585	237,774	121,007
280,341	3,682	237,525	120,945
281,355	3,463	237,493	120,745
282,370	3,917	237,221	120,954
283,384	3,832	236,992	120,759
284,399	3,454	236,783	120,345
285,414	3,134	236,751	120,067
286,428	3,294	236,640	120,126
287,443	3,447	236,524	120,176
288,457	3,694	236,288	120,239
289,472	3,657	236,219	120,164
290,487	3,681	235,984	120,052
291,501	3,372	235,631	119,621
292,516	3,099	235,609	119,386
293,530	3,222	235,412	119,372
294,545	3,487	235,351	119,537
295,560	3,619	235,345	119,626
296,574	3,238	235,092	119,190
297,589	3,233	235,022	119,140
298,603	3,763	234,896	119,478
299,618	3,722	234,713	119,342
300,633	3,685	234,778	119,336
301,647	3,763	234,522	119,255
302,662	4,089	234,550	119,512
303,676	4,112	234,204	119,343
304,691	3,722	234,075	118,965
305,706	3,990	233,946	119,096
306,720	4,013	233,811	119,034
307,735	3,665	233,705	118,701
308,749	3,679	233,461	118,577
309,764	3,499	233,153	118,271
310,779	3,414	233,112	118,174
311,793	3,204	232,728	117,807
312,808	3,132	232,701	117,728
313,822	3,050	232,438	117,521
314,837	3,497	232,354	117,812
315,852	3,472	232,088	117,647
316,866	3,532	232,098	117,688
317,881	3,839	232,063	117,895
318,895	3,791	231,999	117,815
319,910	4,070	231,701	117,867
320,925	3,683	231,548	117,483
321,939	3,331	231,419	117,137
322,954	3,596	231,482	117,362
323,968	3,308	231,056	116,915
324,983	3,120	230,916	116,690
325,997	3,624	230,797	117,004
327,012	3,863	230,648	117,101
328,027	3,661	230,552	116,887
329,041	3,900	230,434	116,999
330,056	4,319	230,368	117,274
331,070	3,922	230,289	116,921
332,085	3,847	230,070	116,743
333,100	3,860	230,049	116,731
334,114	3,883	229,786	116,605
335,129	4,090	229,577	116,646
336,143	3,783	229,548	116,388
337,158	3,850	229,344	116,324
338,173	3,783	229,217	116,199
339,187	3,761	229,013	116,068
340,202	4,072	228,778	116,174
341,216	3,759	228,797	115,937
342,231	3,749	228,405	115,720
343,246	3,634	228,398	115,620
344,260	4,091	228,397	115,954
345,275	4,043	228,139	115,776
346,289	3,812	228,220	115,633
347,304	3,939	227,992	115,603
348,319	3,980	227,708	115,479
349,333	3,620	227,625	115,156
350,348	3,548	227,368	114,962
351,362	3,821	227,304	115,124
352,377	3,677	227,038	114,871
353,392	3,487	226,983	114,691
354,406	3,774	226,800	114,803
355,421	195,269	1322,008	1398,146
356,435	156,534	1455,436	1398,138
