DTS Sentinel unit serial number:	SN410029Multiplexer serial number:	ORYXHardware model number:	OX2-SRSoftware version number:	ORYX F/W v4,00 Oryx Data Collector v3.7.2.0data status	okinstallation	B5 Nyhavnadifferential loss correction	single-endedforward channel	channel 2reverse channel	N/Adate	2023/12/12time	16:02:13forward acquisition time	300,00reverse acquisition time	0,00gamma	499,1914k internal	0,3156k external	0,3156temperature offset calibration	1,0000default loss term (dB/km)	0,3820temperature slope calibration	1,0000multiplexer offset coefficient	1,0000multiplexer slope coefficient	1,0000fibre end	0,00T internal ref (°C)	15,90T ext. ref 1 (°C)	-0,58T ext. ref 2 (°C)	-0,85length (m)	temperature (°C)	Stokes	anti-Stokes-744,400	-200,000	0,013	0,109
-743,385	-139,550	-0,165	0,013
-742,371	174,111	0,096	0,102
-741,356	-87,614	-0,329	-0,073
-740,342	-199,737	0,145	0,001
-739,327	-169,214	-0,244	0,007
-738,312	386,667	-0,063	-0,096
-737,298	-22,149	-0,208	0,093
-736,283	11,969	0,057	-0,032
-735,269	-200,000	-0,045	0,157
-734,254	25,288	-0,119	0,073
-733,239	5,394	-0,643	-0,349
-732,225	31,872	0,106	0,067
-731,210	-200,000	-0,025	0,170
-730,196	434,614	0,076	0,122
-729,181	-32,954	-0,170	0,069
-728,167	800,000	0,029	-0,072
-727,152	-113,581	-0,090	0,013
-726,137	-156,661	-0,070	0,003
-725,123	-200,000	-0,017	-0,166
-724,108	-99,067	-0,242	0,045
-723,094	-100,464	0,046	-0,008
-722,079	125,115	-0,060	-0,056
-721,064	-49,226	0,120	-0,042
-720,050	800,000	0,055	0,115
-719,035	800,000	-0,017	0,053
-718,021	-200,000	0,002	0,037
-717,006	-200,000	-0,011	-0,075
-715,991	-153,976	-0,195	0,010
-714,977	23,857	0,080	0,049
-713,962	-50,555	-0,116	-0,040
-712,948	800,000	-0,028	-0,060
-711,933	707,186	-0,022	0,042
-710,918	-104,719	-0,054	0,009
-709,904	1,913	-0,090	-0,048
-708,889	202,140	-0,069	-0,079
-707,875	800,000	0,070	-0,194
-706,860	-108,609	-0,064	0,010
-705,845	759,415	0,016	0,032
-704,831	4,275	-0,073	0,039
-703,816	-200,000	-0,003	-0,029
-702,802	90,772	-0,055	-0,046
-701,787	-200,000	0,006	-0,066
-700,772	-200,000	-0,018	0,084
-699,758	-200,000	-0,013	0,093
-698,743	800,000	0,011	0,031
-697,729	112,164	0,093	0,083
-696,714	-73,544	-0,031	0,008
-695,699	-148,274	-0,143	-0,009
-694,685	-27,354	-0,173	0,074
-693,670	222,463	-0,046	-0,055
-692,656	728,568	-0,053	0,105
-691,641	84,728	0,058	0,047
-690,627	-200,000	0,010	0,104
-689,612	-153,446	-0,133	0,007
-688,597	95,458	-0,036	0,030
-687,583	374,585	-0,013	-0,019
-686,568	-200,000	0,013	-0,107
-685,554	276,362	0,018	-0,024
-684,539	800,000	0,044	-0,135
-683,524	390,615	0,055	0,084
-682,510	538,424	0,038	-0,067
-681,495	417,400	-0,062	0,098
-680,481	19,344	0,144	-0,085
-679,466	-157,885	-0,056	-0,002
-678,451	-200,000	0,001	-0,042
-677,437	75,173	-0,074	-0,057
-676,422	-181,387	-0,089	-0,001
-675,408	-200,000	0,010	-0,103
-674,393	50,053	-0,030	0,021
-673,378	800,000	-0,051	-0,162
-672,364	270,996	-0,049	-0,064
-671,349	800,000	0,030	0,077
-670,335	800,000	0,022	-0,064
-669,320	-64,093	0,033	-0,010
-668,305	132,962	-0,104	0,098
-667,291	-63,577	-0,044	-0,013
-666,276	-79,790	-0,073	-0,018
-665,262	212,487	-0,073	-0,085
-664,247	116,039	-0,065	0,059
-663,232	-55,453	-0,051	0,017
-662,218	147,115	0,056	0,056
-661,203	-17,724	-0,047	0,021
-660,189	-200,000	0,003	0,017
-659,174	171,133	-0,056	-0,059
-658,159	322,870	-0,030	-0,042
-657,145	141,519	0,028	0,027
-656,130	-200,000	0,009	-0,058
-655,116	-145,616	0,192	0,012
-654,101	236,836	0,075	0,092
-653,086	-114,143	0,078	-0,011
-652,072	104,117	0,050	0,043
-651,057	337,412	-0,049	-0,070
-650,043	28,211	-0,054	0,033
-649,028	291,345	0,134	0,180
-648,014	-200,000	0,007	0,057
-646,999	800,000	0,044	-0,094
-645,984	255,731	0,033	0,041
-644,970	-121,370	-0,106	-0,013
-643,955	100,812	-0,093	0,080
-642,941	232,458	-0,067	-0,080
-641,926	-200,000	0,037	-0,120
-640,911	-200,000	-0,016	0,058
-639,897	-103,189	0,055	-0,009
-638,882	-200,000	0,017	-0,144
-637,868	800,000	-0,059	0,160
-636,853	-162,608	-0,095	-0,003
-635,838	800,000	0,074	-0,153
-634,824	800,000	0,030	-0,063
-633,809	800,000	-0,022	0,061
-632,795	-200,000	0,026	-0,095
-631,780	-155,280	-0,077	0,004
-630,765	-101,148	-0,056	-0,010
-629,751	-121,982	-0,096	-0,011
-628,736	37,250	-0,078	-0,050
-627,722	800,000	0,031	0,086
-626,707	281,757	0,085	0,112
-625,692	-0,092	0,082	0,043
-624,678	-200,000	-0,012	0,047
-623,663	674,685	0,026	0,051
-622,649	323,070	-0,055	-0,078
-621,634	171,074	0,054	0,057
-620,619	659,946	-0,104	-0,197
-619,605	46,905	-0,035	0,024
-618,590	-70,974	0,124	0,034
-617,576	-200,000	0,002	0,028
-616,561	65,092	-0,061	-0,045
-615,546	800,000	0,007	-0,017
-614,532	-115,238	0,041	-0,006
-613,517	399,648	0,016	0,025
-612,503	800,000	-0,027	0,075
-611,488	82,794	0,061	-0,049
-610,474	429,043	-0,013	-0,021
-609,459	-61,417	0,016	0,005
-608,444	-65,912	0,146	0,042
-607,430	-72,307	-0,146	0,039
-606,415	6,874	-0,082	0,045
-605,401	800,000	-0,034	-0,074
-604,386	-112,739	0,042	0,006
-603,371	800,000	-0,014	0,039
-602,357	-200,000	-0,021	0,154
-601,342	78,534	-0,094	0,074
-600,328	-200,000	-0,037	-0,128
-599,313	-190,217	-0,064	-0,001
-598,298	8,692	-0,029	-0,016
-597,284	21,664	0,198	0,118
-596,269	-200,000	-0,004	-0,072
-595,255	-200,000	-0,038	0,139
-594,240	330,555	0,018	0,025
-593,225	-96,605	-0,054	-0,010
-592,211	-200,000	-0,007	-0,062
-591,196	81,395	-0,078	0,062
-590,182	-200,000	-0,001	0,038
-589,167	800,000	0,033	0,077
-588,152	-200,000	-0,018	0,104
-587,138	-39,557	-0,115	0,044
-586,123	-200,000	0,013	-0,129
-585,109	505,541	-0,105	-0,180
-584,094	-154,875	-0,068	-0,003
-583,079	331,464	0,026	0,037
-582,065	-200,000	0,010	-0,070
-581,050	-57,526	-0,156	0,050
-580,036	-200,000	-0,007	-0,109
-579,021	-200,000	0,011	-0,171
-578,006	-200,000	-0,113	0,000
-576,992	-200,000	-0,002	0,056
-575,977	233,417	0,056	0,067
-574,963	-200,000	0,014	-0,061
-573,948	-132,525	0,076	-0,007
-572,934	-22,111	-0,083	-0,037
-571,919	-200,000	-0,024	0,089
-570,904	-200,000	0,001	0,088
-569,890	-111,171	-0,085	-0,013
-568,875	56,815	0,113	-0,080
-567,861	549,070	-0,048	-0,084
-566,846	127,755	-0,074	0,069
-565,831	110,367	-0,077	0,068
-564,817	-200,000	-0,007	-0,059
-563,802	271,531	-0,090	0,117
-562,788	-27,754	0,160	0,068
-561,773	106,467	0,065	0,057
-560,758	98,014	0,134	-0,113
-559,744	-79,943	0,078	-0,019
-558,729	216,114	-0,043	0,050
-557,715	-200,000	-0,015	-0,095
-556,700	800,000	-0,036	0,097
-555,685	-39,598	-0,069	-0,026
-554,671	-200,000	0,016	0,108
-553,656	-61,593	0,059	-0,018
-552,642	-32,787	-0,017	0,007
-551,627	-93,803	-0,008	0,002
-550,612	-200,000	-0,002	-0,042
-549,598	84,713	0,042	0,034
-548,583	26,162	-0,033	-0,020
-547,569	118,262	-0,165	-0,149
-546,554	-200,000	0,014	0,086
-545,539	800,000	0,023	0,068
-544,525	261,085	-0,048	-0,061
-543,510	219,682	-0,044	0,052
-542,496	-200,000	-0,019	0,148
-541,481	35,329	-0,097	-0,062
-540,466	-51,276	0,056	-0,019
-539,452	126,165	0,030	-0,027
-538,437	-110,022	0,048	0,007
-537,423	187,464	-0,097	0,106
-536,408	-200,000	0,004	-0,022
-535,393	-200,000	-0,002	-0,040
-534,379	800,000	0,040	-0,119
-533,364	-200,000	0,087	0,000
-532,350	-200,000	0,016	0,113
-531,335	-200,000	-0,006	0,031
-530,321	-132,112	0,066	0,006
-529,306	-9,297	0,097	-0,047
-528,291	73,171	-0,072	-0,055
-527,277	-200,000	0,016	-0,102
-526,262	375,743	0,082	-0,123
-525,248	222,481	0,104	-0,122
-524,233	135,628	-0,083	-0,079
-523,218	800,000	0,042	0,113
-522,204	-15,668	-0,044	-0,021
-521,189	146,570	0,129	-0,127
-520,175	-200,000	0,006	-0,094
-519,160	138,002	-0,070	0,067
-518,145	-200,000	0,003	0,073
-517,131	243,755	0,067	0,082
-516,116	-200,000	-0,015	0,166
-515,102	-200,000	-0,007	-0,187
-514,087	-200,000	0,033	-0,109
-513,072	-103,575	0,188	0,032
-512,058	142,819	0,051	0,050
-511,043	-116,511	0,157	0,021
-510,029	463,985	-0,089	0,146
-509,014	-195,220	0,099	0,001
-507,999	154,657	-0,068	0,069
-506,985	272,262	0,079	-0,103
-505,970	-200,000	0,028	-0,113
-504,956	-137,791	0,115	-0,009
-503,941	290,219	0,098	0,130
-502,926	-164,581	0,147	-0,005
-501,912	-200,000	0,001	-0,082
-500,897	314,544	-0,046	0,063
-499,883	-77,383	-0,099	0,025
-498,868	-200,000	-0,021	-0,069
-497,853	5,830	-0,086	-0,046
-496,839	194,995	-0,071	-0,079
-495,824	-78,158	-0,120	0,030
-494,810	3,054	0,039	0,021
-493,795	575,146	0,030	0,053
-492,781	356,297	-0,088	-0,128
-491,766	85,885	0,063	-0,051
-490,751	800,000	0,036	-0,096
-489,737	-64,416	0,075	-0,022
-488,722	-79,976	0,150	-0,037
-487,708	245,795	-0,037	-0,045
-486,693	-200,000	0,020	-0,122
-485,678	81,929	-0,075	-0,059
-484,664	64,591	0,087	-0,064
-483,649	173,829	-0,059	0,062
-482,635	163,668	0,078	0,080
-481,620	45,637	0,121	0,082
-480,605	-200,000	0,029	0,126
-479,591	-108,518	0,070	-0,011
-478,576	-200,000	0,002	-0,017
-477,562	-200,000	-0,004	0,139
-476,547	-65,937	0,136	-0,040
-475,532	238,515	0,061	0,074
-474,518	800,000	0,019	0,051
-473,503	800,000	0,048	0,113
-472,489	-148,366	0,053	-0,003
-471,474	-200,000	-0,023	-0,085
-470,459	800,000	0,029	-0,064
-469,445	82,050	0,025	-0,020
-468,430	75,447	-0,026	-0,020
-467,416	107,785	-0,050	-0,043
-466,401	-200,000	-0,008	0,045
-465,386	125,173	-0,066	-0,061
-464,372	90,063	-0,053	-0,043
-463,357	133,024	-0,071	-0,067
-462,343	75,109	-0,167	-0,128
-461,328	-159,763	-0,150	-0,006
-460,313	-200,000	0,000	0,009
-459,299	169,269	-0,037	-0,038
-458,284	-72,201	0,051	-0,014
-457,270	371,144	0,055	0,082
-456,255	231,338	-0,027	0,032
-455,241	328,804	-0,019	-0,027
-454,226	76,703	-0,069	-0,053
-453,211	-17,507	0,094	0,043
-452,197	28,331	0,150	0,092
-451,182	312,745	0,028	0,039
-450,168	-200,000	-0,006	-0,062
-449,153	160,487	-0,089	0,090
-448,138	-200,000	0,019	-0,129
-447,124	111,701	0,054	-0,047
-446,109	800,000	-0,010	-0,026
-445,095	-200,000	0,020	0,068
-444,080	528,578	-0,051	0,089
-443,065	-8,332	0,049	-0,024
-442,051	800,000	0,031	0,081
-441,036	467,006	-0,055	-0,089
-440,022	-84,298	-0,108	0,025
-439,007	79,208	0,034	0,027
-437,992	-95,552	0,135	0,026
-436,978	800,000	0,067	0,178
-435,963	-200,000	0,011	0,082
-434,949	198,132	-0,115	-0,128
-433,934	332,264	0,026	-0,036
-432,919	-200,000	0,004	-0,063
-431,905	305,389	0,036	-0,049
-430,890	78,458	0,042	-0,033
-429,876	322,407	-0,062	0,087
-428,861	800,000	0,044	-0,133
-427,846	-46,466	0,055	0,020
-426,832	-200,000	0,004	-0,048
-425,817	-200,000	0,001	0,094
-424,803	-176,718	0,038	0,001
-423,788	800,000	-0,036	0,074
-422,773	502,701	0,021	0,036
-421,759	-3,226	-0,048	0,024
-420,744	48,298	0,100	0,068
-419,730	69,198	-0,090	0,068
-418,715	148,415	0,020	-0,020
-417,701	-200,000	-0,010	0,032
-416,686	-145,654	-0,063	-0,004
-415,671	-108,277	0,122	0,019
-414,657	455,163	-0,057	-0,093
-413,642	28,532	0,092	-0,056
-412,628	-33,792	-0,037	0,015
-411,613	-111,077	-0,288	-0,043
-410,598	18,907	0,130	-0,075
-409,584	-200,000	-0,025	0,117
-408,569	-200,000	0,021	0,081
-407,555	158,181	-0,080	-0,081
-406,540	-169,851	0,077	0,002
-405,525	-5,950	0,105	-0,052
-404,511	-200,000	0,000	-0,059
-403,496	84,736	-0,072	-0,058
-402,482	-200,000	-0,001	0,004
-401,467	-9,700	0,120	-0,058
-400,452	315,899	-0,005	0,007
-399,438	6,919	-0,052	-0,028
-398,423	132,445	-0,028	0,026
-397,409	-11,972	-0,097	0,046
-396,394	203,888	0,112	0,127
-395,379	-93,339	-0,036	-0,007
-394,365	187,621	0,024	-0,026
-393,350	800,000	0,034	0,082
-392,336	422,493	0,080	0,125
-391,321	19,255	-0,100	0,058
-390,306	800,000	-0,039	-0,096
-389,292	29,485	0,083	0,051
-388,277	-128,905	0,047	0,005
-387,263	-36,116	-0,039	0,015
-386,248	53,896	0,070	-0,049
-385,233	651,039	-0,039	0,074
-384,219	-90,310	-0,158	-0,033
-383,204	342,600	-0,043	-0,062
-382,190	-200,000	0,007	-0,102
-381,175	42,849	0,076	-0,050
-380,160	-135,099	0,070	0,006
-379,146	370,407	0,126	0,187
-378,131	87,930	-0,084	0,068
-377,117	-25,100	0,015	0,006
-376,102	800,000	-0,030	-0,085
-375,088	4,153	0,060	0,032
-374,073	43,095	-0,055	-0,036
-373,058	800,000	0,052	0,109
-372,044	-94,755	-0,117	-0,023
-371,029	800,000	-0,048	0,123
-370,015	-165,094	0,093	0,003
-369,000	53,623	-0,083	-0,058
-367,985	143,251	-0,066	-0,064
-366,971	306,461	-0,010	-0,014
-365,956	-91,904	0,119	-0,024
-364,942	-200,000	0,001	0,050
-363,927	135,082	0,041	-0,039
-362,912	23,192	-0,083	-0,049
-361,898	-200,000	-0,050	-0,172
-360,883	-135,056	-0,054	0,005
-359,869	188,514	0,023	-0,025
-358,854	210,993	-0,026	-0,030
-357,839	77,071	-0,095	0,074
-356,825	800,000	-0,007	0,015
-355,810	800,000	0,049	0,120
-354,796	-39,210	-0,047	0,018
-353,781	-76,724	-0,043	-0,011
-352,766	-200,000	-0,034	-0,108
-351,752	62,757	0,167	-0,121
-350,737	-36,934	0,072	0,028
-349,723	800,000	0,066	0,163
-348,708	-45,686	0,036	0,013
-347,693	-200,000	-0,018	-0,083
-346,679	-32,383	-0,075	0,030
-345,664	590,119	-0,015	-0,027
-344,650	-200,000	0,002	0,063
-343,635	467,779	0,065	0,107
-342,620	-68,666	-0,084	-0,024
-341,606	35,178	-0,060	0,038
-340,591	-7,719	0,043	0,021
-339,577	-163,598	0,134	-0,004
-338,562	-200,000	0,001	-0,064
-337,548	-157,123	0,094	-0,004
-336,533	-42,896	0,198	0,073
-335,518	800,000	0,039	-0,108
-334,504	-66,660	0,100	0,029
-333,489	189,042	-0,118	-0,128
-332,475	-95,030	-0,162	0,032
-331,460	93,986	0,035	-0,029
-330,445	419,653	-0,023	-0,035
-329,431	120,480	0,073	0,066
-328,416	800,000	0,023	0,062
-327,402	-200,000	-0,012	0,109
-326,387	593,567	0,045	-0,080
-325,372	255,486	0,069	-0,086
-324,358	-44,901	-0,205	-0,074
-323,343	-200,000	-0,024	-0,109
-322,329	-48,559	0,139	-0,048
-321,314	-200,000	0,027	0,102
-320,299	334,282	0,064	0,090
-319,285	-97,574	-0,054	0,010
-318,270	-101,082	0,101	0,018
-317,256	69,971	-0,077	-0,057
-316,241	-200,000	0,005	-0,027
-315,226	-80,394	0,212	-0,051
-314,212	-200,000	-0,017	0,145
-313,197	-64,432	-0,059	0,017
-312,183	10,172	-0,039	-0,021
-311,168	776,855	0,019	-0,037
-310,153	-200,000	-0,004	-0,056
-309,139	-72,761	-0,130	-0,035
-308,124	800,000	-0,032	0,073
-307,110	-200,000	0,068	0,000
-306,095	342,129	0,076	0,108
-305,080	800,000	-0,042	0,104
-304,066	-109,847	-0,149	-0,022
-303,051	591,946	0,052	-0,094
-302,037	-200,000	0,010	0,090
-301,022	27,649	0,109	0,066
-300,008	256,792	-0,100	0,125
-298,993	-74,849	0,181	-0,047
-297,978	225,872	-0,052	0,061
-296,964	478,024	-0,021	0,035
-295,949	-61,407	0,141	0,043
-294,935	800,000	-0,053	-0,140
-293,920	-133,141	0,081	-0,007
-292,905	327,855	0,060	-0,084
-291,891	688,509	-0,047	0,090
-290,876	-40,658	-0,026	0,010
-289,862	741,954	0,050	-0,098
-288,847	-56,712	-0,139	-0,044
-287,832	447,698	-0,028	-0,045
-286,818	-200,000	-0,030	0,099
-285,803	-84,152	0,151	0,034
-284,789	207,030	-0,041	-0,047
-283,774	172,761	0,025	0,026
-282,759	-200,000	0,002	-0,059
-281,745	800,000	0,031	-0,075
-280,730	-66,699	0,103	0,029
-279,716	-200,000	0,003	0,063
-278,701	-200,000	-0,038	0,138
-277,686	193,040	0,064	0,071
-276,672	800,000	0,061	0,168
-275,657	134,878	0,080	0,075
-274,643	-200,000	-0,035	-0,123
-273,628	-200,000	-0,034	-0,152
-272,613	800,000	-0,042	-0,119
-271,599	23,305	0,105	-0,062
-270,584	-200,000	0,011	0,087
-269,570	672,731	0,052	0,099
-268,555	520,934	0,062	0,105
-267,540	-200,000	-0,002	0,053
-266,526	-91,242	-0,025	0,005
-265,511	490,374	-0,034	-0,056
-264,497	-23,363	-0,107	0,046
-263,482	800,000	0,039	0,090
-262,467	-200,000	-0,011	0,045
-261,453	-200,000	0,028	-0,119
-260,438	56,312	0,041	-0,029
-259,424	-200,000	0,006	0,034
-258,409	-110,272	-0,050	0,007
-257,395	-68,070	-0,145	-0,041
-256,380	47,018	0,059	0,039
-255,365	-200,000	0,036	0,125
-254,351	-106,483	-0,096	-0,015
-253,336	-200,000	-0,015	-0,209
-252,322	403,818	-0,056	-0,085
-251,307	-200,000	-0,014	-0,130
-250,292	385,955	-0,064	0,096
-249,278	-39,983	0,011	0,004
-248,263	36,556	0,046	-0,029
-247,249	98,727	-0,081	0,067
-246,234	-16,074	0,013	-0,006
-245,219	22,396	-0,077	-0,045
-244,205	-143,404	-0,097	0,007
-243,190	800,000	0,064	0,136
-242,176	441,601	-0,093	-0,148
-241,161	680,782	0,020	-0,038
-240,146	800,000	-0,048	-0,097
-239,132	800,000	-0,007	0,014
-238,117	800,000	0,040	-0,102
-237,103	-200,000	0,022	-0,125
-236,088	4,192	0,015	-0,008
-235,073	99,578	0,162	0,136
-234,059	800,000	-0,045	0,123
-233,044	282,613	-0,063	0,082
-232,030	-200,000	-0,022	-0,076
-231,015	142,745	-0,165	-0,159
-230,000	-30,028	-0,137	0,056
-228,986	63,594	-0,045	0,033
-227,971	67,902	-0,067	-0,050
-226,957	34,663	-0,123	-0,078
-225,942	154,721	0,053	-0,052
-224,927	126,620	0,088	-0,080
-223,913	-200,000	0,020	-0,177
-222,898	318,021	-0,089	-0,122
-221,884	-200,000	-0,005	-0,130
-220,869	-103,806	0,044	0,007
-219,855	35,624	-0,055	0,035
-218,840	-55,054	0,073	0,024
-217,825	-200,000	0,005	0,023
-216,811	-78,601	-0,028	0,007
-215,796	800,000	-0,031	-0,080
-214,782	-200,000	0,014	0,048
-213,767	-200,000	0,010	0,095
-212,752	735,300	-0,068	0,133
-211,738	137,175	0,061	0,058
-210,723	800,000	-0,042	-0,104
-209,709	-157,603	0,077	0,003
-208,694	-200,000	0,019	-0,077
-207,679	239,466	-0,042	0,050
-206,665	36,021	-0,070	-0,045
-205,650	-85,093	0,015	-0,003
-204,636	-200,000	0,020	0,143
-203,621	25,865	-0,075	-0,045
-202,606	-7,389	0,115	0,056
-201,592	26,965	-0,107	-0,065
-200,577	-149,311	-0,134	-0,008
-199,563	-112,049	0,141	-0,020
-198,548	125,697	0,057	-0,052
-197,533	192,901	-0,113	0,124
-196,519	800,000	0,028	0,078
-195,504	-54,855	-0,066	0,021
-194,490	-200,000	-0,015	0,055
-193,475	-60,529	0,080	-0,024
-192,460	2,017	0,068	-0,036
-191,446	-200,000	-0,008	-0,037
-190,431	179,769	-0,113	0,120
-189,417	-200,000	0,018	0,090
-188,402	-113,980	-0,089	0,012
-187,387	-78,230	0,077	-0,019
-186,373	506,790	-0,077	-0,129
-185,358	-69,467	0,088	-0,024
-184,344	-79,238	-0,052	0,013
-183,329	151,228	0,071	0,069
-182,315	800,000	0,033	-0,075
-181,300	-17,380	-0,092	0,042
-180,285	-200,000	-0,026	-0,094
-179,271	602,479	0,036	-0,065
-178,256	-200,000	-0,017	0,120
-177,242	800,000	0,014	0,040
-176,227	132,438	0,029	-0,027
-175,212	-200,000	0,007	0,111
-174,198	367,937	-0,028	0,041
-173,183	800,000	-0,038	-0,110
-172,169	-149,496	-0,040	0,002
-171,154	-53,860	-0,019	0,006
-170,139	-200,000	-0,004	0,102
-169,125	-200,000	0,054	0,227
-168,110	49,666	-0,018	0,012
-167,096	-71,986	0,076	0,020
-166,081	800,000	-0,030	0,069
-165,066	-200,000	0,039	-0,126
-164,052	-56,907	0,043	0,013
-163,037	-55,170	-0,153	-0,049
-162,023	-200,000	0,005	-0,087
-161,008	362,281	-0,020	-0,029
-159,993	21,215	-0,224	0,131
-158,979	758,157	0,051	0,100
-157,964	598,236	-0,115	-0,206
-156,950	-200,000	-0,005	-0,036
-155,935	-200,000	0,008	0,117
-154,920	-200,000	0,014	-0,111
-153,906	-159,183	0,046	0,002
-152,891	-20,879	0,061	-0,027
-151,877	256,339	0,040	-0,049
-150,862	181,525	-0,053	-0,056
-149,847	-87,251	0,194	-0,042
-148,833	586,023	0,071	0,126
-147,818	-168,547	0,033	-0,001
-146,804	12,881	0,083	0,046
-145,789	-153,960	0,031	0,001
-144,775	-31,101	0,083	0,034
-143,760	-200,000	-0,025	-0,121
-142,745	800,000	0,041	-0,105
-141,731	800,000	-0,016	0,046
-140,716	800,000	-0,052	0,112
-139,702	800,000	-0,045	0,104
-138,687	-19,445	-0,023	-0,010
-137,672	233,090	0,123	0,146
-136,658	20,235	-0,106	0,061
-135,643	800,000	-0,066	-0,139
-134,629	-41,450	0,134	-0,050
-133,614	-200,000	0,000	-0,093
-132,599	26,833	0,058	0,035
-131,585	5,822	0,098	-0,052
-130,570	-200,000	0,001	-0,063
-129,556	800,000	-0,031	-0,074
-128,541	-51,903	-0,154	0,051
-127,526	61,849	-0,049	0,035
-126,512	92,889	-0,090	-0,073
-125,497	84,818	-0,074	-0,058
-124,483	800,000	0,018	0,053
-123,468	53,911	-0,121	0,084
-122,453	366,667	0,030	-0,043
-121,439	168,451	0,015	-0,015
-120,424	49,655	0,106	-0,072
-119,410	-200,000	-0,014	0,094
-118,395	61,420	-0,049	-0,035
-117,380	-35,285	-0,070	0,027
-116,366	176,326	-0,116	0,121
-115,351	364,631	0,040	0,058
-114,337	-200,000	0,027	0,088
-113,322	-194,734	-0,037	0,000
-112,307	800,000	-0,035	-0,101
-111,293	735,320	-0,041	0,080
-110,278	-42,014	0,108	-0,039
-109,264	331,693	0,049	0,068
-108,249	-200,000	0,007	-0,046
-107,234	-120,071	0,079	0,010
-106,220	448,888	-0,026	-0,042
-105,205	-139,820	0,029	0,002
-104,191	736,426	-0,071	0,138
-103,176	-146,902	-0,075	-0,005
-102,162	193,090	0,103	0,112
-101,147	-200,000	-0,007	-0,064
-100,132	458,547	-0,049	-0,079
-99,118	-38,693	0,032	0,012
-98,103	-200,000	-0,016	0,105
-97,089	-102,152	-0,146	-0,025
-96,074	116,511	0,116	0,102
-95,059	127,760	0,092	-0,084
-94,045	-200,000	0,009	-0,047
-93,030	229,166	-0,046	0,054
-92,016	728,185	0,057	-0,110
-91,001	-200,000	-0,002	-0,054
-89,986	-25,250	-0,089	-0,038
-88,972	-48,278	-0,019	0,007
-87,957	25,040	0,021	-0,012
-86,943	6,439	-0,015	-0,008
-85,928	-200,000	-0,012	-0,065
-84,913	9,527	0,071	-0,039
-83,899	-1,321	-0,109	-0,055
-82,884	800,000	0,033	-0,094
-81,870	-200,000	-0,026	0,197
-80,855	-93,273	-0,070	0,014
-79,840	159,283	0,003	-0,003
-78,826	341,048	-0,090	-0,126
-77,811	78,512	0,080	-0,062
-76,797	800,000	-0,014	-0,030
-75,782	-2,409	-0,052	-0,026
-74,767	800,000	0,084	0,175
-73,753	-124,358	0,189	0,021
-72,738	800,000	0,046	0,103
-71,724	-130,705	-0,100	0,010
-70,709	-200,000	0,007	-0,075
-69,694	-200,000	0,005	-0,098
-68,680	-160,057	0,045	0,002
-67,665	371,690	-0,020	-0,029
-66,651	-53,301	-0,067	0,022
-65,636	-22,108	0,070	-0,030
-64,622	800,000	-0,040	-0,109
-63,607	800,000	-0,013	-0,034
-62,592	212,896	-0,077	0,087
-61,578	353,695	-0,029	-0,042
-60,563	-86,138	0,079	0,017
-59,549	-200,000	-0,008	0,193
-58,534	0,047	-1,927	-0,983
-57,519	-200,000	-0,316	-1,142
-56,505	-200,000	-1,179	-4,987
-55,490	44,546	0,756	0,498
-54,476	800,000	5,308	12,023
-53,461	-200,000	17,353	285,428
-52,446	800,000	723,241	2231,871
-51,432	544,540	1638,909	2821,448
-50,417	112,187	1631,079	1415,447
-49,403	76,316	1286,608	977,456
-48,388	32,838	1029,066	638,159
-47,373	20,298	990,835	573,051
-46,359	18,816	978,929	561,276
-45,344	16,244	975,062	550,606
-44,330	16,429	973,503	550,311
-43,315	16,002	971,636	547,834
-42,300	15,952	970,510	547,015
-41,286	15,966	969,504	546,471
-40,271	15,910	968,713	545,822
-39,257	15,928	967,804	545,348
-38,242	15,964	966,914	544,940
-37,227	15,943	966,047	544,362
-36,213	15,924	965,325	543,873
-35,198	15,921	964,339	543,284
-34,184	15,977	963,574	543,016
-33,169	15,880	962,679	542,174
-32,154	15,957	961,745	541,875
-31,140	15,919	960,756	541,176
-30,125	15,943	960,051	540,833
-29,111	15,944	959,180	540,326
-28,096	15,963	958,600	540,037
-27,082	15,978	957,875	539,655
-26,067	15,941	957,268	539,172
-25,052	15,957	956,402	538,716
-24,038	15,906	955,749	538,161
-23,023	15,877	955,141	537,707
-22,009	15,958	954,380	537,517
-20,994	15,945	953,693	537,065
-19,979	15,986	953,129	536,859
-18,965	15,896	952,665	536,288
-17,950	15,932	952,066	536,044
-16,936	15,861	951,338	535,386
-15,921	15,887	950,668	535,072
-14,906	15,804	950,012	534,415
-13,892	15,762	949,521	533,983
-12,877	15,816	948,728	533,690
-11,863	15,754	948,063	533,097
-10,848	15,849	947,459	533,039
-9,833	15,910	947,090	533,003
-8,819	15,876	946,450	532,515
-7,804	15,806	945,687	531,840
-6,790	15,840	945,096	531,596
-5,775	15,843	944,464	531,228
-4,760	15,845	944,143	531,032
-3,746	15,860	943,189	530,522
-2,731	15,682	942,527	529,566
-1,717	15,670	942,052	529,240
-0,702	15,613	941,410	528,677
0,313	15,470	940,780	528,671
1,327	18,587	938,611	537,241
2,342	27,316	796,038	478,814
3,356	24,091	459,929	271,680
4,371	-2,923	314,369	156,983
5,386	-7,111	296,213	143,665
6,400	-9,096	290,046	138,690
7,415	-9,390	287,579	137,210
8,429	-9,409	286,122	136,484
9,444	-9,638	285,175	135,796
10,459	-9,410	284,497	135,683
11,473	-9,399	283,954	135,423
12,488	-9,360	283,486	135,225
13,502	-9,511	282,965	134,819
14,517	-9,494	282,432	134,570
15,531	-9,339	282,088	134,543
16,546	-9,460	281,826	134,289
17,561	-9,494	281,373	134,029
18,575	-9,379	280,934	133,918
19,590	-9,658	280,811	133,579
20,604	-9,418	280,422	133,613
21,619	-9,624	280,098	133,249
22,634	-9,244	279,611	133,369
23,648	-9,705	279,559	132,892
24,663	-9,590	279,161	132,801
25,677	-9,499	278,923	132,762
26,692	-9,530	278,414	132,478
27,707	-9,494	278,479	132,533
28,721	-9,435	278,082	132,387
29,736	-9,484	277,664	132,131
30,750	-9,441	277,562	132,110
31,765	-9,492	277,407	131,976
32,780	-9,686	277,223	131,693
33,794	-9,618	276,864	131,575
34,809	-9,554	276,618	131,508
35,823	-9,529	276,249	131,344
36,838	-9,789	276,058	130,996
37,853	-9,687	275,919	131,014
38,867	-9,634	275,590	130,896
39,882	-9,556	275,346	130,842
40,896	-9,577	275,221	130,752
41,911	-9,658	274,858	130,491
42,926	-9,574	274,617	130,445
43,940	-9,552	274,466	130,382
44,955	-9,569	274,145	130,202
45,969	-9,741	274,002	129,961
46,984	-9,771	273,661	129,760
47,999	-9,895	273,418	129,517
49,013	-9,963	273,065	129,275
50,028	-10,017	272,775	129,076
51,042	-10,147	272,406	128,769
52,057	-10,375	272,276	128,485
53,071	-10,253	272,017	128,464
54,086	-10,083	272,046	128,624
55,101	-9,997	271,740	128,548
56,115	-9,753	271,674	128,731
57,130	-9,508	271,601	128,912
58,144	-9,292	271,359	128,985
59,159	-9,542	271,097	128,618
60,174	-9,505	270,815	128,507
61,188	-9,383	270,657	128,533
62,203	-9,482	270,424	128,319
63,217	-9,439	270,223	128,253
64,232	-9,348	269,900	128,172
65,247	-9,468	269,766	127,986
66,261	-9,352	269,580	127,992
67,276	-9,493	269,247	127,694
68,290	-9,738	268,972	127,328
69,305	-9,979	268,787	127,008
70,320	-9,846	268,492	126,979
71,334	-9,592	268,372	127,143
72,349	-9,449	268,086	127,127
73,363	-9,479	267,907	127,003
74,378	-9,465	267,761	126,936
75,393	-9,375	267,543	126,903
76,407	-9,588	267,305	126,585
77,422	-9,424	267,027	126,591
78,436	-9,542	266,913	126,418
79,451	-9,300	266,583	126,470
80,466	-9,512	266,321	126,142
81,480	-9,438	266,084	126,086
82,495	-9,685	265,941	125,784
83,509	-9,472	265,838	125,917
84,524	-9,506	265,448	125,690
85,539	-9,823	265,277	125,311
86,553	-9,806	265,221	125,290
87,568	-9,582	264,920	125,337
88,582	-9,665	264,719	125,156
89,597	-9,680	264,607	125,079
90,611	-9,507	264,433	125,142
91,626	-9,466	264,382	125,142
92,641	-9,502	264,113	124,972
93,655	-9,318	263,709	124,935
94,670	-9,471	263,692	124,778
95,684	-9,578	263,389	124,528
96,699	-9,643	263,325	124,428
97,714	-9,578	263,055	124,348
98,728	-9,572	262,706	124,178
99,743	-9,603	262,526	124,054
100,757	-9,807	262,410	123,806
101,772	-9,874	262,210	123,641
102,787	-9,666	262,052	123,740
103,801	-9,605	261,759	123,645
104,816	-9,404	261,577	123,727
105,830	-9,495	261,523	123,609
106,845	-9,478	261,345	123,529
107,860	-9,306	261,079	123,545
108,874	-9,622	260,879	123,159
109,889	-9,537	260,695	123,137
110,903	-9,654	260,507	122,934
111,918	-9,656	260,081	122,720
112,933	-9,485	259,977	122,811
113,947	-9,324	259,944	122,926
114,962	-9,544	259,683	122,597
115,976	-9,310	259,498	122,706
116,991	-9,425	259,349	122,523
118,006	-9,440	259,206	122,432
119,020	-9,360	259,006	122,396
120,035	-9,499	259,040	122,279
121,049	-9,507	258,645	122,075
122,064	-9,338	258,332	122,064
123,079	-9,503	258,423	121,952
124,093	-9,343	257,989	121,876
125,108	-9,734	257,755	121,413
126,122	-9,783	257,459	121,220
127,137	-9,859	257,331	121,083
128,151	-9,856	257,103	120,967
129,166	-9,745	257,060	121,032
130,181	-9,672	256,811	120,968
131,195	-9,739	256,712	120,852
132,210	-9,655	256,376	120,757
133,224	-9,518	256,269	120,815
134,239	-9,537	256,174	120,742
135,254	-9,494	255,939	120,658
136,268	-9,523	255,818	120,565
137,283	-9,869	255,449	120,081
138,297	-10,008	255,268	119,866
139,312	-9,807	255,014	119,909
140,327	-9,672	254,992	120,004
141,341	-9,368	254,907	120,215
142,356	-9,374	254,500	120,008
143,370	-9,287	254,540	120,091
144,385	-9,139	254,284	120,087
145,400	-9,081	254,034	120,008
146,414	-9,420	254,014	119,697
147,429	-9,339	253,623	119,571
148,443	-9,183	253,541	119,655
149,458	-9,179	253,339	119,553
150,473	-9,180	253,093	119,425
151,487	-9,570	253,023	119,048
152,502	-9,321	252,812	119,151
153,516	-9,269	252,638	119,103
154,531	-9,187	252,579	119,135
155,546	-9,373	252,404	118,882
156,560	-9,274	252,130	118,827
157,575	-9,347	251,899	118,645
158,589	-9,334	251,769	118,585
159,604	-9,166	251,492	118,587
160,619	-9,106	251,245	118,510
161,633	-9,164	251,238	118,447
162,648	-9,323	251,065	118,221
163,662	-9,315	251,063	118,216
164,677	-9,321	250,684	118,021
165,692	-9,121	250,514	118,100
166,706	-9,208	250,491	118,005
167,721	-9,296	250,208	117,787
168,735	-9,406	250,155	117,659
169,750	-9,378	249,982	117,590
170,764	-9,116	249,738	117,686
171,779	-9,185	249,686	117,593
172,794	-9,340	249,590	117,407
173,808	-9,294	249,178	117,242
174,823	-9,403	248,944	117,029
175,837	-9,881	248,774	116,538
176,852	-9,493	248,837	116,882
177,867	-9,453	248,697	116,839
178,881	-9,218	248,494	116,931
179,896	-9,282	248,171	116,715
180,910	-9,006	247,931	116,822
181,925	-9,244	247,868	116,583
182,940	-9,246	247,794	116,537
183,954	-9,329	247,557	116,345
184,969	-9,160	247,454	116,428
185,983	-9,276	247,229	116,215
186,998	-9,244	247,046	116,145
188,013	-9,113	246,981	116,213
189,027	-9,138	246,650	116,026
190,042	-9,158	246,446	115,903
191,056	-9,147	246,425	115,892
192,071	-9,237	246,167	115,686
193,086	-9,221	246,027	115,623
194,100	-9,390	245,912	115,418
195,115	-9,363	245,705	115,334
196,129	-9,214	245,648	115,420
197,144	-9,427	245,348	115,092
198,159	-9,272	245,154	115,119
199,173	-9,358	244,895	114,917
200,188	-9,635	244,833	114,649
201,202	-9,556	244,510	114,552
202,217	-9,797	244,321	114,255
203,232	-9,850	243,933	114,020
204,246	-9,415	243,965	114,382
205,261	-9,041	243,909	114,652
206,275	-10,312	243,354	113,341
207,290	-7,259	244,737	116,487
208,304	0,203	247,081	123,776
209,319	3,752	247,998	127,167
210,334	4,190	247,870	127,453
211,348	4,279	247,821	127,488
212,363	4,527	247,829	127,687
213,377	4,683	247,628	127,701
214,392	4,537	247,259	127,379
215,407	4,586	247,216	127,386
216,421	4,472	247,036	127,187
217,436	4,637	246,917	127,251
218,450	4,680	246,793	127,211
219,465	4,342	246,589	126,816
220,480	4,229	246,505	126,669
221,494	4,117	246,267	126,444
222,509	4,211	246,180	126,465
223,523	4,008	245,872	126,129
224,538	3,852	245,556	125,828
225,553	3,902	245,407	125,781
226,567	4,108	245,139	125,801
227,582	3,933	245,277	125,717
228,596	4,121	245,155	125,797
229,611	3,880	244,733	125,373
230,626	3,836	244,589	125,252
231,640	3,821	244,424	125,145
232,655	4,038	244,371	125,283
233,669	3,685	244,215	124,904
234,684	3,705	243,930	124,764
235,699	4,196	244,035	125,206
236,713	4,219	243,769	125,076
237,728	4,124	243,559	124,880
238,742	3,827	243,251	124,471
239,757	3,911	243,037	124,418
240,772	3,836	243,137	124,398
241,786	3,875	242,930	124,312
242,801	3,921	242,811	124,278
243,815	3,834	242,513	124,044
244,830	4,107	242,462	124,227
245,844	4,188	242,200	124,146
246,859	4,019	242,118	123,957
247,874	4,021	242,010	123,893
248,888	3,799	241,911	123,652
249,903	3,983	241,706	123,685
250,917	4,286	241,538	123,831
251,932	4,283	241,397	123,746
252,947	4,329	241,247	123,694
253,961	3,959	241,033	123,277
254,976	4,140	240,994	123,391
255,990	4,169	240,783	123,295
257,005	4,136	240,564	123,145
258,020	3,722	240,389	122,714
259,034	4,074	240,275	122,926
260,049	4,018	240,093	122,777
261,063	3,757	240,103	122,563
262,078	3,983	239,701	122,527
263,093	4,049	239,718	122,577
264,107	4,302	239,464	122,637
265,122	3,710	239,394	122,120
266,136	4,130	239,086	122,286
267,151	4,194	239,194	122,381
268,166	4,002	238,799	122,016
269,180	3,757	238,642	121,730
270,195	4,254	238,826	122,207
271,209	4,784	238,651	122,527
272,224	4,122	238,365	121,845
273,239	3,962	238,000	121,522
274,253	3,906	237,790	121,359
275,268	3,733	237,912	121,274
276,282	4,156	237,589	121,433
277,297	3,659	237,559	121,015
278,312	3,830	237,348	121,030
279,326	3,977	237,153	121,036
280,341	3,882	237,084	120,916
281,355	3,833	236,944	120,795
282,370	4,164	236,650	120,893
283,384	4,020	236,576	120,732
284,399	3,799	236,459	120,488
285,414	3,713	236,226	120,292
286,428	3,824	236,070	120,289
287,443	3,982	235,838	120,283
288,457	4,056	235,829	120,325
289,472	4,051	235,761	120,276
290,487	4,152	235,429	120,175
291,501	3,881	235,298	119,886
292,516	3,721	235,158	119,680
293,530	3,409	235,171	119,432
294,545	3,845	235,170	119,761
295,560	4,047	234,838	119,738
296,574	3,878	234,458	119,402
297,589	3,879	234,393	119,359
298,603	4,269	234,266	119,587
299,618	4,250	234,296	119,576
300,633	4,295	234,055	119,478
301,647	4,110	234,095	119,344
302,662	4,442	234,091	119,589
303,676	4,314	233,807	119,334
304,691	4,208	233,520	119,095
305,706	4,320	233,617	119,220
306,720	4,500	233,276	119,175
307,735	4,135	233,110	118,797
308,749	4,164	233,022	118,765
309,764	3,916	232,685	118,391
310,779	3,716	232,437	118,101
311,793	3,636	232,320	117,969
312,808	3,494	232,207	117,792
313,822	3,868	231,914	117,920
314,837	3,718	231,774	117,724
315,852	3,755	231,676	117,692
316,866	3,714	231,833	117,729
317,881	4,092	231,635	117,908
318,895	3,825	231,352	117,549
319,910	4,223	231,267	117,799
320,925	4,226	231,050	117,680
321,939	3,989	230,966	117,447
322,954	4,096	230,880	117,474
323,968	4,068	230,654	117,327
324,983	3,742	230,464	116,972
325,997	3,932	230,476	117,112
327,012	4,351	230,278	117,320
328,027	4,133	230,175	117,092
329,041	4,433	230,021	117,230
330,056	4,685	230,047	117,424
331,070	4,692	229,903	117,345
332,085	4,246	229,648	116,867
333,100	4,005	229,447	116,572
334,114	4,137	229,098	116,484
335,129	4,467	229,202	116,776
336,143	4,369	229,079	116,629
337,158	4,273	229,037	116,525
338,173	4,125	228,740	116,251
339,187	3,951	228,457	115,966
340,202	4,210	228,364	116,104
341,216	4,112	228,202	115,937
342,231	4,205	227,984	115,886
343,246	3,909	228,057	115,690
344,260	4,261	227,868	115,848
345,275	4,376	227,705	115,842
346,289	4,307	227,649	115,751
347,304	4,665	227,267	115,814
348,319	4,489	227,218	115,648
349,333	4,264	227,086	115,401
350,348	4,182	226,764	115,166
351,362	4,175	226,774	115,156
352,377	4,051	226,626	114,978
353,392	3,934	226,349	114,740
354,406	3,882	226,443	114,738
355,421	194,583	1323,330	1397,791
356,435	155,937	1456,974	1397,790
