DTS Sentinel unit serial number:	SN410029Multiplexer serial number:	ORYXHardware model number:	OX2-SRSoftware version number:	ORYX F/W v4,00 Oryx Data Collector v3.7.2.0data status	okinstallation	B5 Nyhavnadifferential loss correction	single-endedforward channel	channel 2reverse channel	N/Adate	2023/12/11time	17:12:13forward acquisition time	300,00reverse acquisition time	0,00gamma	499,1914k internal	0,3164k external	0,3164temperature offset calibration	1,0000default loss term (dB/km)	0,3820temperature slope calibration	1,0000multiplexer offset coefficient	1,0000multiplexer slope coefficient	1,0000fibre end	0,00T internal ref (°C)	14,54T ext. ref 1 (°C)	-0,66T ext. ref 2 (°C)	-0,85length (m)	temperature (°C)	Stokes	anti-Stokes-744,400	85,182	0,054	-0,043
-743,385	-92,166	-0,350	-0,072
-742,371	-15,329	0,135	0,063
-741,356	-114,631	-0,322	0,045
-740,342	-92,827	0,200	-0,041
-739,327	25,510	-0,134	0,082
-738,312	-41,173	0,113	0,043
-737,298	-101,889	-0,386	-0,068
-736,283	-14,689	0,095	0,045
-735,269	136,069	-0,229	-0,220
-734,254	-200,000	0,038	0,138
-733,239	-33,162	-0,567	-0,230
-732,225	-200,000	-0,020	0,082
-731,210	71,179	-0,059	0,045
-730,196	488,660	0,099	-0,168
-729,181	16,145	-0,045	-0,026
-728,167	-16,522	-0,064	-0,030
-727,152	-3,416	-0,059	-0,030
-726,137	800,000	-0,080	-0,181
-725,123	13,582	-0,081	-0,046
-724,108	12,797	0,088	0,050
-723,094	604,396	-0,042	-0,077
-722,079	-67,076	-0,082	-0,024
-721,064	-58,706	0,039	0,012
-720,050	-89,634	0,119	0,026
-719,035	139,259	0,057	-0,055
-718,021	800,000	-0,034	0,071
-717,006	-200,000	0,033	-0,123
-715,991	35,631	-0,042	-0,027
-714,977	125,350	-0,073	-0,067
-713,962	-200,000	-0,012	0,045
-712,948	-12,788	-0,068	-0,032
-711,933	101,859	-0,110	-0,094
-710,918	83,789	0,079	0,063
-709,904	40,641	-0,058	0,038
-708,889	321,424	-0,037	-0,052
-707,875	347,720	-0,064	-0,094
-706,860	-84,451	0,051	-0,012
-705,845	-84,622	0,052	0,012
-704,831	260,475	-0,090	0,114
-703,816	-200,000	0,000	-0,017
-702,802	268,645	0,132	-0,171
-701,787	114,348	-0,057	0,051
-700,772	44,707	-0,149	-0,100
-699,758	800,000	-0,005	-0,010
-698,743	604,270	0,008	-0,015
-697,729	-76,461	0,019	-0,005
-696,714	384,548	-0,028	-0,043
-695,699	215,367	0,071	-0,083
-694,685	170,450	-0,033	-0,035
-693,670	35,961	-0,085	-0,055
-692,656	800,000	0,009	-0,021
-691,641	155,066	0,041	-0,041
-690,627	126,189	-0,056	0,052
-689,612	800,000	0,043	-0,102
-688,597	653,974	-0,036	-0,068
-687,583	192,138	-0,088	-0,097
-686,568	-200,000	0,003	0,082
-685,554	281,026	-0,028	-0,037
-684,539	369,398	0,008	-0,012
-683,524	-200,000	0,002	-0,020
-682,510	-39,861	0,122	0,046
-681,495	129,169	-0,054	-0,051
-680,481	77,454	-0,092	-0,072
-679,466	-144,022	-0,229	-0,016
-678,451	122,293	0,145	0,133
-677,437	-89,966	-0,106	0,022
-676,422	277,869	0,034	-0,045
-675,408	-29,737	-0,119	0,049
-674,393	-200,000	0,018	-0,084
-673,378	132,630	-0,069	0,066
-672,364	291,771	-0,049	-0,066
-671,349	-135,891	0,044	-0,004
-670,335	-200,000	0,002	0,069
-669,320	145,977	-0,098	0,097
-668,305	-200,000	-0,022	0,156
-667,291	-200,000	-0,006	-0,160
-666,276	800,000	-0,029	0,072
-665,262	-200,000	0,030	-0,131
-664,247	609,290	-0,029	-0,053
-663,232	-2,983	-0,084	-0,043
-662,218	-200,000	0,022	-0,148
-661,203	224,656	0,072	0,086
-660,189	-200,000	-0,007	-0,047
-659,174	-200,000	-0,022	-0,191
-658,159	800,000	0,019	-0,050
-657,145	328,314	-0,111	-0,157
-656,130	-57,020	-0,072	-0,023
-655,116	36,483	-0,052	0,033
-654,101	106,799	0,036	0,031
-653,086	-85,338	0,062	0,014
-652,072	70,756	-0,097	-0,073
-651,057	-12,663	-0,129	-0,062
-650,043	-200,000	0,007	-0,095
-649,028	185,993	-0,034	-0,037
-648,014	504,623	-0,053	0,090
-646,999	800,000	-0,014	0,031
-645,984	-2,646	0,038	-0,019
-644,970	58,679	-0,088	0,063
-643,955	-200,000	-0,009	-0,153
-642,941	159,457	-0,034	-0,035
-641,926	-200,000	-0,008	-0,066
-640,911	-11,919	0,014	0,007
-639,897	339,618	0,095	-0,135
-638,882	800,000	-0,037	-0,107
-637,868	-200,000	-0,001	-0,042
-636,853	-200,000	0,007	-0,086
-635,838	112,363	-0,066	-0,059
-634,824	-200,000	0,009	-0,033
-633,809	139,781	-0,047	0,045
-632,795	-110,868	0,048	-0,007
-631,780	396,036	0,012	-0,018
-630,765	800,000	0,010	-0,031
-629,751	800,000	0,034	0,089
-628,736	-59,036	-0,166	-0,052
-627,722	-165,299	-0,024	-0,001
-626,707	50,421	0,051	0,035
-625,692	-200,000	0,005	0,041
-624,678	800,000	-0,039	-0,099
-623,663	-20,499	-0,082	-0,037
-622,649	800,000	0,012	0,031
-621,634	-59,335	0,067	0,021
-620,619	20,091	-0,062	-0,037
-619,605	-48,463	0,102	0,036
-618,590	38,030	-0,124	-0,081
-617,576	207,115	-0,078	0,090
-616,561	800,000	-0,034	-0,075
-615,546	-108,094	0,072	0,011
-614,532	-0,430	-0,057	-0,029
-613,517	800,000	-0,074	-0,209
-612,503	455,323	0,049	0,080
-611,488	800,000	0,009	-0,021
-610,474	800,000	0,006	0,014
-609,459	347,184	0,082	-0,118
-608,444	611,901	-0,037	-0,067
-607,430	-69,458	-0,125	0,035
-606,415	57,254	-0,189	-0,135
-605,401	-175,441	-0,072	-0,001
-604,386	-200,000	-0,006	0,022
-603,371	433,046	0,064	0,101
-602,357	-200,000	-0,032	-0,157
-601,342	-103,710	0,096	0,016
-600,328	-200,000	-0,010	-0,057
-599,313	147,816	0,060	0,059
-598,298	-200,000	0,060	-0,231
-597,284	-84,806	-0,060	-0,014
-596,269	-172,732	0,126	0,003
-595,255	54,959	0,067	0,047
-594,240	15,061	0,096	-0,055
-593,225	133,281	-0,054	0,051
-592,211	800,000	-0,036	-0,084
-591,196	-180,270	0,216	0,003
-590,182	39,139	-0,088	-0,057
-589,167	77,248	-0,034	0,027
-588,152	278,726	-0,073	0,096
-587,138	-99,462	-0,053	0,010
-586,123	113,275	-0,074	-0,066
-585,109	800,000	0,051	-0,134
-584,094	-189,166	-0,087	-0,001
-583,079	92,873	0,047	0,038
-582,065	-57,076	-0,053	-0,017
-581,050	117,564	0,104	0,093
-580,036	47,617	-0,083	-0,056
-579,021	-200,000	0,024	-0,127
-578,006	800,000	0,010	-0,031
-576,992	-163,093	-0,031	0,001
-575,977	-200,000	0,153	0,000
-574,963	-200,000	-0,002	0,089
-573,948	-61,235	0,106	0,032
-572,934	-38,109	0,112	-0,043
-571,919	-152,719	-0,081	0,004
-570,904	800,000	0,034	-0,110
-569,890	563,535	-0,036	0,064
-568,875	-174,967	0,189	0,004
-567,861	-200,000	0,000	0,038
-566,846	-18,771	0,056	0,025
-565,831	9,304	-0,188	0,104
-564,817	800,000	0,025	0,067
-563,802	800,000	0,034	-0,077
-562,788	-127,265	-0,105	0,011
-561,773	-200,000	0,007	0,073
-560,758	-200,000	-0,022	0,073
-559,744	450,577	0,094	-0,151
-558,729	-2,333	0,060	0,030
-557,715	-200,000	0,025	-0,086
-556,700	-200,000	-0,052	-0,215
-555,685	23,239	-0,102	0,061
-554,671	-115,154	0,133	0,018
-553,656	195,870	-0,062	0,069
-552,642	-76,509	-0,040	0,010
-551,627	-35,465	0,061	-0,024
-550,612	800,000	-0,085	-0,180
-549,598	-110,744	-0,047	0,007
-548,583	25,806	0,055	0,034
-547,569	431,408	0,049	-0,078
-546,554	-48,269	0,013	-0,004
-545,539	-200,000	0,028	0,110
-544,525	-200,000	0,001	-0,021
-543,510	800,000	-0,011	0,024
-542,496	-200,000	-0,015	-0,139
-541,481	800,000	-0,047	-0,115
-540,466	35,346	-0,035	-0,022
-539,452	449,053	-0,021	0,033
-538,437	-142,177	0,041	0,003
-537,423	800,000	0,015	0,040
-536,408	-71,533	-0,125	-0,034
-535,393	370,091	-0,004	0,006
-534,379	480,033	-0,045	-0,074
-533,364	-200,000	0,004	0,252
-532,350	114,245	-0,081	0,072
-531,335	-105,818	0,148	-0,024
-530,321	90,688	-0,074	0,060
-529,306	0,688	0,086	0,045
-528,291	29,510	-0,125	-0,077
-527,277	617,053	-0,090	-0,166
-526,262	96,914	-0,050	0,042
-525,248	800,000	0,030	0,060
-524,233	-109,191	-0,056	-0,009
-523,218	-76,691	0,022	0,006
-522,204	105,265	0,001	-0,001
-521,189	188,131	-0,067	-0,073
-520,175	-200,000	0,032	0,154
-519,160	-54,816	0,103	0,034
-518,145	-41,687	-0,047	-0,017
-517,131	-112,030	0,141	0,021
-516,116	278,466	0,066	0,086
-515,102	437,829	0,031	0,049
-514,087	507,159	0,065	-0,110
-513,072	-59,296	-0,170	-0,053
-512,058	340,021	0,083	0,118
-511,043	49,509	0,060	0,041
-510,029	-43,800	0,161	0,059
-509,014	126,292	0,075	-0,070
-507,999	800,000	-0,071	0,176
-506,985	127,698	0,031	-0,029
-505,970	-200,000	-0,000	-0,014
-504,956	419,034	-0,044	0,068
-503,941	-90,186	0,102	0,021
-502,926	190,120	0,049	0,054
-501,912	-200,000	-0,010	-0,033
-500,897	6,237	-0,071	-0,038
-499,883	-200,000	-0,031	-0,213
-498,868	46,341	0,028	0,019
-497,853	-200,000	-0,008	-0,083
-496,839	-81,396	-0,086	0,020
-495,824	191,115	0,082	0,090
-494,810	459,697	-0,021	-0,035
-493,795	282,373	0,106	-0,139
-492,781	58,512	0,090	-0,064
-491,766	67,025	-0,141	0,104
-490,751	-200,000	0,048	-0,171
-489,737	346,969	-0,077	0,110
-488,722	584,809	0,019	-0,033
-487,708	663,523	-0,031	-0,059
-486,693	-200,000	-0,009	0,152
-485,678	259,692	-0,078	-0,098
-484,664	378,511	-0,091	-0,136
-483,649	166,979	0,040	0,041
-482,635	34,711	0,113	-0,072
-481,620	-200,000	0,012	-0,222
-480,605	212,138	0,019	0,022
-479,591	7,342	0,189	0,103
-478,576	-200,000	0,012	0,068
-477,562	-200,000	0,032	-0,114
-476,547	-133,718	-0,167	0,015
-475,532	24,034	0,084	-0,050
-474,518	800,000	-0,017	0,041
-473,503	-130,796	0,075	-0,007
-472,489	-200,000	-0,010	-0,127
-471,474	-141,776	0,034	0,002
-470,459	-129,773	0,150	0,015
-469,445	-200,000	-0,007	-0,198
-468,430	-200,000	-0,021	0,086
-467,416	-132,762	0,015	0,001
-466,401	60,002	0,064	-0,046
-465,386	-53,030	0,132	-0,044
-464,372	-200,000	-0,028	-0,111
-463,357	-200,000	0,029	-0,100
-462,343	-113,414	-0,071	-0,010
-461,328	-0,444	0,106	-0,055
-460,313	-167,011	0,168	0,005
-459,299	-200,000	-0,001	0,127
-458,284	-76,252	0,094	0,024
-457,270	56,032	-0,024	0,017
-456,255	-200,000	0,004	-0,023
-455,241	67,975	0,062	0,046
-454,226	-174,397	0,083	-0,002
-453,211	-200,000	0,011	0,045
-452,197	239,732	0,054	0,066
-451,182	800,000	-0,039	0,086
-450,168	-45,809	0,090	0,032
-449,153	-200,000	0,028	-0,135
-448,138	-1,264	-0,099	0,051
-447,124	800,000	0,037	-0,094
-446,109	140,348	-0,082	0,079
-445,095	800,000	0,051	0,130
-444,080	41,603	0,028	-0,018
-443,065	-200,000	-0,001	-0,077
-442,051	-132,691	-0,117	-0,011
-441,036	-200,000	0,000	0,064
-440,022	-200,000	0,015	-0,140
-439,007	-63,038	0,060	0,018
-437,992	-66,436	-0,025	0,007
-436,978	187,715	-0,018	0,019
-435,963	719,601	-0,033	-0,064
-434,949	-200,000	-0,016	-0,137
-433,934	-107,468	-0,074	-0,012
-432,919	675,743	-0,041	-0,079
-431,905	800,000	0,017	0,043
-430,890	-3,778	-0,074	-0,037
-429,876	-102,378	0,031	-0,005
-428,861	-87,265	-0,103	0,023
-427,846	-141,258	-0,152	-0,011
-426,832	416,162	0,069	-0,107
-425,817	-200,000	0,021	0,120
-424,803	511,534	-0,032	0,055
-423,788	800,000	0,012	0,026
-422,773	9,131	-0,068	0,037
-421,759	-200,000	-0,005	-0,035
-420,744	225,778	-0,120	0,142
-419,730	319,156	0,061	-0,085
-418,715	-200,000	0,012	0,140
-417,701	-200,000	0,056	0,000
-416,686	-123,232	0,082	0,009
-415,671	-200,000	0,008	0,157
-414,657	-200,000	-0,008	0,111
-413,642	217,864	0,029	0,034
-412,628	-9,457	0,042	0,020
-411,613	800,000	-0,039	-0,086
-410,598	72,225	-0,078	-0,059
-409,584	290,957	0,024	0,032
-408,569	437,502	0,062	0,098
-407,555	583,125	0,056	0,101
-406,540	-200,000	0,025	0,095
-405,525	10,457	-0,100	-0,055
-404,511	87,475	-0,083	0,067
-403,496	-200,000	0,011	-0,132
-402,482	389,084	-0,053	-0,080
-401,467	-0,626	0,063	0,032
-400,452	-195,044	0,141	-0,001
-399,438	-102,195	-0,068	-0,012
-398,423	-200,000	0,012	0,049
-397,409	29,420	0,006	-0,004
-396,394	-6,135	-0,073	-0,036
-395,379	663,759	-0,045	0,084
-394,365	256,411	0,083	0,103
-393,350	146,611	0,053	-0,052
-392,336	800,000	0,037	-0,079
-391,321	800,000	0,031	0,083
-390,306	-50,419	-0,065	-0,022
-389,292	-200,000	-0,032	-0,149
-388,277	-200,000	0,013	0,089
-387,263	-134,971	0,025	0,002
-386,248	110,683	0,057	0,050
-385,233	800,000	0,015	-0,038
-384,219	800,000	-0,052	-0,125
-383,204	800,000	0,033	-0,101
-382,190	-200,000	-0,008	-0,080
-381,175	321,689	0,049	-0,068
-380,160	610,616	0,118	-0,216
-379,146	-154,483	0,101	-0,005
-378,131	608,089	0,054	0,097
-377,117	93,138	-0,085	-0,070
-376,102	-86,606	-0,132	-0,029
-375,088	-200,000	-0,009	-0,080
-374,073	61,687	-0,053	0,038
-373,058	-9,915	0,091	0,044
-372,044	494,750	-0,005	0,009
-371,029	72,293	-0,103	-0,078
-370,015	-90,121	0,168	-0,035
-369,000	45,412	-0,071	-0,047
-367,985	-200,000	-0,013	-0,076
-366,971	215,210	-0,020	-0,023
-365,956	-200,000	-0,006	-0,098
-364,942	155,212	0,095	0,095
-363,927	26,718	-0,083	0,050
-362,912	488,427	-0,051	0,085
-361,898	-64,978	-0,058	-0,017
-360,883	-200,000	-0,012	-0,066
-359,869	-67,855	-0,107	-0,030
-358,854	319,173	-0,051	0,070
-357,839	594,452	-0,107	0,192
-356,825	456,940	0,018	0,030
-355,810	43,379	-0,031	0,020
-354,796	383,335	0,025	0,037
-353,781	311,386	0,059	-0,080
-352,766	326,895	0,054	-0,075
-351,752	39,667	0,041	-0,026
-350,737	193,820	-0,052	-0,057
-349,723	-61,490	0,064	0,019
-348,708	299,468	0,074	0,099
-347,693	800,000	0,018	-0,052
-346,679	-51,845	-0,095	-0,032
-345,664	45,822	-0,053	0,035
-344,650	31,610	0,046	0,029
-343,635	-200,000	0,022	0,073
-342,620	-90,415	0,037	-0,008
-341,606	97,203	-0,052	-0,043
-340,591	800,000	-0,032	0,096
-339,577	-87,432	-0,052	-0,011
-338,562	-154,537	-0,118	-0,006
-337,548	800,000	-0,038	-0,089
-336,533	800,000	0,033	-0,086
-335,518	451,811	-0,053	0,085
-334,504	-200,000	0,001	0,115
-333,489	-13,287	0,023	0,011
-332,475	800,000	0,026	0,059
-331,460	587,673	-0,054	-0,096
-330,445	-200,000	-0,010	-0,067
-329,431	-200,000	-0,008	-0,110
-328,416	305,160	-0,097	0,130
-327,402	-70,134	0,057	0,016
-326,387	-20,279	-0,102	0,045
-325,372	211,861	-0,043	-0,049
-324,358	-19,297	0,055	-0,024
-323,343	629,425	-0,035	0,063
-322,329	-87,386	-0,104	0,023
-321,314	-200,000	-0,029	0,141
-320,299	-200,000	-0,017	0,072
-319,285	-73,538	-0,016	0,004
-318,270	-200,000	0,016	0,117
-317,256	800,000	-0,045	-0,094
-316,241	800,000	-0,045	0,111
-315,226	-189,541	0,092	0,001
-314,212	243,072	0,033	-0,040
-313,197	-200,000	-0,018	0,114
-312,183	-61,452	-0,136	0,041
-311,168	-75,046	-0,042	0,011
-310,153	334,777	-0,049	-0,069
-309,139	-39,385	0,099	-0,037
-308,124	-200,000	0,009	0,066
-307,110	800,000	-0,071	0,197
-306,095	117,336	-0,077	0,069
-305,080	800,000	0,020	0,044
-304,066	-181,139	0,147	0,002
-303,051	-25,392	-0,004	0,002
-302,037	800,000	-0,025	-0,068
-301,022	192,514	-0,024	0,027
-300,008	792,827	-0,038	0,077
-298,993	-200,000	0,010	0,090
-297,978	418,560	0,032	-0,049
-296,964	800,000	-0,036	-0,091
-295,949	-120,043	-0,161	0,020
-294,935	-48,274	0,047	0,016
-293,920	-200,000	0,005	0,036
-292,905	31,242	-0,119	0,074
-291,891	800,000	0,015	0,036
-290,876	418,243	0,039	0,060
-289,862	-200,000	-0,007	0,095
-288,847	120,905	0,014	0,013
-287,832	12,818	0,097	-0,054
-286,818	10,330	0,145	-0,080
-285,803	-19,644	0,061	-0,027
-284,789	-147,558	-0,061	-0,004
-283,774	-200,000	-0,031	0,186
-282,759	634,233	-0,041	-0,076
-281,745	-128,270	0,038	-0,004
-280,730	800,000	-0,060	-0,139
-279,716	1,806	0,055	-0,029
-278,701	-200,000	-0,014	-0,154
-277,686	72,289	0,059	0,045
-276,672	74,444	0,038	0,029
-275,657	414,796	0,038	-0,059
-274,643	104,487	0,048	0,041
-273,628	86,311	0,063	0,050
-272,613	-122,195	-0,118	-0,014
-271,599	-23,369	0,091	0,039
-270,584	-64,552	-0,086	-0,025
-269,570	-200,000	0,009	0,048
-268,555	288,085	0,020	-0,026
-267,540	-177,973	-0,143	0,002
-266,526	186,668	-0,071	-0,076
-265,511	59,268	0,020	-0,015
-264,497	164,363	-0,064	-0,065
-263,482	-182,117	-0,047	-0,001
-262,467	28,080	0,036	0,022
-261,453	-49,275	0,056	0,019
-260,438	-119,135	-0,055	0,007
-259,424	-0,592	0,009	-0,005
-258,409	-32,947	-0,040	0,016
-257,395	-63,922	0,122	-0,036
-256,380	105,571	0,091	0,078
-255,365	348,209	0,044	0,063
-254,351	-59,546	-0,094	0,029
-253,336	800,000	-0,033	-0,086
-252,322	625,712	-0,063	-0,115
-251,307	800,000	-0,039	0,080
-250,292	562,238	0,077	0,135
-249,278	392,164	-0,020	-0,030
-248,263	-200,000	-0,025	-0,106
-247,249	123,755	0,042	0,038
-246,234	-58,138	-0,118	0,037
-245,219	-13,988	-0,006	-0,003
-244,205	73,951	0,016	-0,012
-243,190	-74,296	0,162	0,042
-242,176	296,748	0,033	0,043
-241,161	-87,706	0,199	0,043
-240,146	-200,000	-0,032	-0,116
-239,132	-12,568	0,086	-0,040
-238,117	-200,000	-0,020	0,084
-237,103	-200,000	0,006	0,034
-236,088	283,406	0,054	-0,070
-235,073	-157,807	0,102	-0,004
-234,059	-69,163	0,105	0,029
-233,044	-200,000	0,021	0,159
-232,030	-200,000	-0,003	-0,083
-231,015	37,896	0,035	-0,022
-230,000	101,133	-0,069	-0,058
-228,986	800,000	-0,034	-0,088
-227,971	52,084	0,077	-0,053
-226,957	595,530	-0,133	0,239
-225,942	105,358	0,042	0,036
-224,927	-200,000	-0,027	0,099
-223,913	-200,000	0,011	-0,093
-222,898	470,482	0,019	0,031
-221,884	194,718	-0,082	0,090
-220,869	-200,000	-0,006	-0,062
-219,855	-124,762	0,164	0,018
-218,840	-200,000	0,003	-0,169
-217,825	-200,000	0,056	0,248
-216,811	800,000	-0,055	0,133
-215,796	-82,103	-0,061	-0,014
-214,782	-125,126	-0,157	-0,017
-213,767	646,851	-0,018	-0,033
-212,752	-200,000	0,003	0,066
-211,738	12,094	-0,137	0,076
-210,723	-133,993	0,173	-0,015
-209,709	199,280	0,036	0,040
-208,694	652,675	-0,040	-0,075
-207,679	-76,267	-0,057	-0,014
-206,665	-25,897	0,070	-0,030
-205,650	-31,137	-0,032	-0,013
-204,636	-132,390	-0,025	0,002
-203,621	-70,498	0,064	0,017
-202,606	-123,136	-0,094	0,011
-201,592	-200,000	0,108	-0,000
-200,577	342,577	0,055	-0,078
-199,563	219,153	-0,035	0,041
-198,548	800,000	0,009	0,023
-197,533	-200,000	-0,035	0,121
-196,519	-81,611	0,136	-0,032
-195,504	433,232	-0,059	0,093
-194,490	-53,786	-0,037	-0,012
-193,475	120,607	-0,061	0,054
-192,460	664,884	-0,077	0,144
-191,446	-200,000	0,041	-0,145
-190,431	38,350	-0,052	-0,033
-189,417	162,061	-0,080	-0,081
-188,402	-200,000	-0,025	0,109
-187,387	371,334	-0,063	0,093
-186,373	-101,780	0,046	0,008
-185,358	237,678	0,026	0,031
-184,344	-200,000	-0,017	0,106
-183,329	-200,000	0,030	0,135
-182,315	-129,985	0,031	-0,003
-181,300	-200,000	0,007	0,099
-180,285	-62,972	0,055	0,016
-179,271	-200,000	-0,011	-0,058
-178,256	-61,991	-0,055	-0,017
-177,242	560,952	0,045	0,079
-176,227	-200,000	0,001	-0,018
-175,212	-34,638	0,036	0,014
-174,198	-200,000	-0,003	-0,056
-173,183	-64,207	-0,133	0,039
-172,169	-102,069	0,043	-0,007
-171,154	-200,000	-0,004	0,104
-170,139	-10,995	0,081	0,038
-169,125	54,108	-0,111	0,077
-168,110	-84,653	-0,058	-0,013
-167,096	-38,059	-0,057	0,022
-166,081	800,000	-0,024	-0,069
-165,066	-200,000	0,003	-0,128
-164,052	-200,000	-0,016	0,125
-163,037	94,107	0,087	0,071
-162,023	-200,000	0,001	-0,004
-161,008	399,444	0,039	-0,058
-159,993	322,594	-0,016	-0,022
-158,979	323,056	0,059	0,082
-157,964	-51,035	0,042	-0,014
-156,950	-41,458	-0,123	0,045
-155,935	-200,000	-0,022	-0,134
-154,920	62,429	0,057	-0,041
-153,906	258,971	0,124	0,154
-152,891	309,665	-0,069	0,093
-151,877	252,126	0,037	-0,045
-150,862	-200,000	-0,005	-0,028
-149,847	-91,319	-0,082	0,017
-148,833	-200,000	-0,019	0,126
-147,818	-200,000	0,002	0,131
-146,804	-14,217	-0,079	-0,036
-145,789	-200,000	-0,010	0,032
-144,775	136,763	-0,047	-0,045
-143,760	-200,000	-0,012	-0,070
-142,745	438,496	0,009	-0,014
-141,731	800,000	-0,018	0,045
-140,716	274,216	-0,041	-0,053
-139,702	133,609	-0,070	0,065
-138,687	-109,842	-0,056	-0,008
-137,672	779,469	-0,020	-0,040
-136,658	295,954	-0,030	0,040
-135,643	-200,000	0,016	0,070
-134,629	-37,827	-0,022	-0,009
-133,614	-6,793	-0,044	-0,021
-132,599	346,850	0,113	-0,160
-131,585	-200,000	0,008	-0,048
-130,570	-200,000	-0,016	-0,172
-129,556	28,806	0,050	-0,030
-128,541	-49,774	0,039	0,013
-127,526	-15,541	0,063	0,029
-126,512	-200,000	-0,020	-0,083
-125,497	187,113	0,042	-0,045
-124,483	-125,236	-0,091	-0,010
-123,468	-118,727	-0,124	-0,016
-122,453	-200,000	-0,020	-0,073
-121,439	2,741	-0,059	0,031
-120,424	54,568	-0,056	0,039
-119,410	137,088	-0,026	-0,024
-118,395	-200,000	-0,018	0,111
-117,380	-200,000	0,001	0,035
-116,366	30,073	-0,133	-0,081
-115,351	219,038	0,014	-0,017
-114,337	-200,000	0,027	-0,094
-113,322	204,979	0,066	-0,074
-112,307	800,000	0,042	0,085
-111,293	800,000	-0,020	-0,044
-110,278	210,413	0,146	-0,164
-109,264	92,522	-0,072	0,058
-108,249	-200,000	-0,001	-0,041
-107,234	-79,317	0,042	-0,010
-106,220	-91,557	-0,092	0,019
-105,205	429,852	0,017	0,026
-104,191	-200,000	0,005	0,062
-103,176	-140,810	-0,108	0,008
-102,162	15,781	0,128	-0,072
-101,147	-161,544	0,051	0,002
-100,132	-15,265	-0,131	-0,060
-99,118	800,000	-0,007	0,020
-98,103	800,000	-0,049	-0,106
-97,089	-151,977	0,033	-0,002
-96,074	-184,677	0,144	0,002
-95,059	268,066	0,063	0,079
-94,045	-200,000	0,007	-0,141
-93,030	421,897	-0,042	0,065
-92,016	800,000	-0,055	-0,115
-91,001	-200,000	0,016	-0,100
-89,986	-200,000	0,008	-0,066
-88,972	74,307	-0,061	-0,046
-87,957	-6,822	-0,161	-0,078
-86,943	233,924	0,020	-0,024
-85,928	-200,000	-0,005	0,146
-84,913	368,838	0,086	-0,125
-83,899	280,455	0,036	-0,046
-82,884	-200,000	0,002	-0,070
-81,870	-200,000	0,002	0,041
-80,855	-77,674	0,130	0,032
-79,840	-82,593	0,082	-0,019
-78,826	725,060	0,044	-0,085
-77,811	-74,773	0,037	0,009
-76,797	-30,378	0,184	0,075
-75,782	-200,000	-0,012	0,069
-74,767	-13,858	0,100	0,046
-73,753	-200,000	-0,007	-0,066
-72,738	-21,897	-0,047	0,021
-71,724	20,384	-0,031	-0,018
-70,709	800,000	-0,043	-0,095
-69,694	169,149	-0,074	-0,076
-68,680	-72,744	-0,018	-0,005
-67,665	4,009	0,112	0,059
-66,651	32,533	0,065	-0,040
-65,636	-74,203	-0,117	0,030
-64,622	-137,942	0,183	-0,014
-63,607	-83,957	0,046	-0,010
-62,592	-200,000	-0,002	0,071
-61,578	-3,073	-0,091	0,045
-60,563	-3,413	0,062	0,031
-59,549	-200,000	-0,005	0,053
-58,534	5,317	-1,945	-1,025
-57,519	-200,000	-0,162	-0,729
-56,505	-200,000	-1,162	-5,121
-55,490	10,420	0,849	0,462
-54,476	800,000	5,359	12,218
-53,461	-200,000	18,138	297,009
-52,446	800,000	732,988	2252,718
-51,432	538,322	1648,988	2818,798
-50,417	109,119	1637,401	1402,876
-49,403	73,544	1287,997	965,088
-48,388	30,945	1027,892	629,481
-47,373	20,008	989,762	570,101
-46,359	18,026	977,675	556,629
-45,344	14,840	973,787	543,976
-44,330	15,119	972,284	544,028
-43,315	14,577	970,287	541,120
-42,300	14,587	969,132	540,489
-41,286	14,531	968,306	539,822
-40,271	14,526	967,320	539,236
-39,257	14,611	966,262	538,900
-38,242	14,596	965,243	538,263
-37,227	14,557	964,541	537,722
-36,213	14,589	963,760	537,370
-35,198	14,571	962,778	536,743
-34,184	14,597	962,049	536,400
-33,169	14,485	961,306	535,603
-32,154	14,570	960,388	535,343
-31,140	14,529	959,512	534,703
-30,125	14,595	958,677	534,428
-29,111	14,607	957,733	533,918
-28,096	14,602	956,961	533,451
-27,082	14,534	956,473	532,938
-26,067	14,622	955,413	532,609
-25,052	14,531	954,924	532,025
-24,038	14,537	954,332	531,693
-23,023	14,550	953,678	531,351
-22,009	14,590	953,120	531,146
-20,994	14,593	952,304	530,678
-19,979	14,564	951,655	530,202
-18,965	14,577	951,043	529,883
-17,950	14,552	950,402	529,424
-16,936	14,515	949,883	528,997
-15,921	14,516	949,231	528,615
-14,906	14,488	948,259	527,965
-13,892	14,469	947,912	527,690
-12,877	14,441	947,127	527,142
-11,863	14,496	946,525	526,962
-10,848	14,466	946,140	526,632
-9,833	14,565	945,499	526,570
-8,819	14,594	944,768	526,232
-7,804	14,440	944,542	525,598
-6,790	14,469	943,703	525,200
-5,775	14,513	943,135	525,003
-4,760	14,475	942,441	524,476
-3,746	14,412	941,920	523,966
-2,731	14,312	941,376	523,328
-1,717	14,314	940,555	522,857
-0,702	14,287	940,020	522,452
0,313	14,145	939,286	522,384
1,327	17,445	936,906	531,396
2,342	26,664	792,902	474,072
3,356	23,494	457,865	268,904
4,371	-3,630	314,332	155,833
5,386	-7,607	296,153	142,791
6,400	-9,440	290,187	138,086
7,415	-9,801	287,730	136,550
8,429	-10,292	286,241	135,351
9,444	-10,450	285,258	134,720
10,459	-10,421	284,620	134,435
11,473	-10,378	283,973	134,159
12,488	-10,377	283,417	133,885
13,502	-10,306	282,981	133,736
14,517	-10,328	282,543	133,496
15,531	-10,685	282,061	132,913
16,546	-10,719	281,620	132,661
17,561	-10,802	281,391	132,461
18,575	-10,668	280,980	132,384
19,590	-10,832	280,566	132,021
20,604	-10,585	280,365	132,150
21,619	-10,766	279,896	131,744
22,634	-10,842	279,716	131,576
23,648	-10,701	279,262	131,485
24,663	-10,742	279,069	131,342
25,677	-10,715	278,683	131,175
26,692	-10,644	278,427	131,111
27,707	-10,748	278,086	130,840
28,721	-10,640	277,835	130,812
29,736	-10,890	277,727	130,513
30,750	-10,728	277,238	130,425
31,765	-10,827	277,245	130,322
32,780	-10,791	276,829	130,149
33,794	-10,895	276,690	129,974
34,809	-10,669	276,386	130,032
35,823	-10,759	276,126	129,814
36,838	-11,011	275,834	129,429
37,853	-10,908	275,654	129,429
38,867	-10,841	275,364	129,344
39,882	-10,914	275,151	129,164
40,896	-10,823	274,917	129,128
41,911	-10,675	274,593	129,103
42,926	-10,641	274,448	129,055
43,940	-10,751	274,136	128,794
44,955	-11,010	274,009	128,481
45,969	-10,954	273,677	128,367
46,984	-10,951	273,361	128,209
47,999	-11,044	273,187	128,030
49,013	-11,067	272,993	127,906
50,028	-11,086	272,748	127,763
51,042	-11,160	272,602	127,614
52,057	-11,102	272,228	127,481
53,071	-11,181	272,043	127,310
54,086	-11,205	271,866	127,193
55,101	-11,071	271,675	127,217
56,115	-10,868	271,399	127,264
57,130	-10,779	271,335	127,304
58,144	-10,644	271,190	127,350
59,159	-10,538	270,795	127,250
60,174	-10,492	270,486	127,137
61,188	-10,567	270,342	126,988
62,203	-10,674	270,205	126,814
63,217	-10,756	269,992	126,628
64,232	-10,635	269,833	126,653
65,247	-10,608	269,518	126,519
66,261	-10,697	269,337	126,340
67,276	-10,547	268,886	126,255
68,290	-10,748	268,554	125,905
69,305	-10,879	268,601	125,796
70,320	-10,834	268,311	125,690
71,334	-10,671	268,150	125,751
72,349	-10,548	267,831	125,702
73,363	-10,452	267,708	125,721
74,378	-10,515	267,443	125,528
75,393	-10,488	267,333	125,490
76,407	-10,516	266,861	125,232
77,422	-10,665	266,915	125,111
78,436	-10,737	266,736	124,950
79,451	-10,470	266,333	124,992
80,466	-10,568	265,949	124,712
81,480	-10,646	265,918	124,615
82,495	-10,688	265,764	124,495
83,509	-10,746	265,592	124,351
84,524	-10,711	265,294	124,232
85,539	-10,963	265,140	123,922
86,553	-10,777	264,816	123,927
87,568	-10,717	264,663	123,898
88,582	-10,628	264,523	123,901
89,597	-10,654	264,324	123,774
90,611	-10,607	264,264	123,777
91,626	-10,514	263,895	123,676
92,641	-10,686	263,711	123,425
93,655	-10,638	263,531	123,372
94,670	-10,658	263,302	123,236
95,684	-10,640	262,959	123,081
96,699	-10,548	262,898	123,123
97,714	-10,723	262,694	122,861
98,728	-10,756	262,502	122,731
99,743	-10,708	262,375	122,703
100,757	-10,759	262,130	122,532
101,772	-10,755	261,865	122,402
102,787	-10,783	261,815	122,342
103,801	-10,716	261,519	122,252
104,816	-10,567	261,542	122,384
105,830	-10,391	261,054	122,301
106,845	-10,566	260,886	122,056
107,860	-10,533	260,891	122,077
108,874	-10,596	260,598	121,873
109,889	-10,576	260,447	121,810
110,903	-10,573	260,059	121,620
111,918	-10,668	260,123	121,555
112,933	-10,587	259,744	121,438
113,947	-10,594	259,753	121,426
114,962	-10,495	259,367	121,321
115,976	-10,530	259,206	121,205
116,991	-10,624	258,998	121,014
118,006	-10,742	258,756	120,787
119,020	-10,640	258,890	120,928
120,035	-10,500	258,553	120,882
121,049	-10,678	258,347	120,619
122,064	-10,732	258,355	120,565
123,079	-10,589	257,976	120,503
124,093	-10,651	257,793	120,353
125,108	-10,835	257,475	120,033
126,122	-10,719	257,182	119,987
127,137	-10,798	257,091	119,865
128,151	-10,798	256,950	119,788
129,166	-10,525	256,623	119,862
130,181	-10,565	256,425	119,724
131,195	-10,778	256,287	119,464
132,210	-10,604	256,169	119,549
133,224	-10,682	256,066	119,423
134,239	-10,594	255,950	119,435
135,254	-10,652	255,711	119,262
136,268	-10,515	255,377	119,214
137,283	-10,768	255,085	118,849
138,297	-10,901	255,048	118,706
139,312	-10,910	254,882	118,612
140,327	-10,638	254,557	118,683
141,341	-10,454	254,438	118,775
142,356	-10,364	254,366	118,808
143,370	-10,309	254,019	118,683
144,385	-10,348	253,997	118,628
145,400	-10,313	253,672	118,496
146,414	-10,332	253,433	118,358
147,429	-10,688	253,421	118,037
148,443	-10,548	253,314	118,096
149,458	-10,391	252,890	118,022
150,473	-10,475	252,815	117,905
151,487	-10,556	252,701	117,772
152,502	-10,362	252,593	117,876
153,516	-10,341	252,339	117,766
154,531	-10,364	252,088	117,618
155,546	-10,381	252,021	117,562
156,560	-10,400	251,763	117,414
157,575	-10,664	251,538	117,076
158,589	-10,407	251,405	117,221
159,604	-10,609	251,218	116,953
160,619	-10,307	250,985	117,089
161,633	-10,352	250,895	116,998
162,648	-10,475	250,675	116,782
163,662	-10,525	250,512	116,653
164,677	-10,285	250,503	116,841
165,692	-10,399	250,353	116,665
166,706	-10,329	250,165	116,625
167,721	-10,278	249,730	116,455
168,735	-10,384	249,751	116,365
169,750	-10,306	249,630	116,364
170,764	-10,242	249,571	116,381
171,779	-10,217	249,187	116,211
172,794	-10,235	249,142	116,165
173,808	-10,374	248,928	115,939
174,823	-10,523	248,598	115,650
175,837	-10,863	248,478	115,299
176,852	-10,466	248,380	115,575
177,867	-10,430	248,341	115,577
178,881	-10,292	247,937	115,494
179,896	-10,345	248,016	115,476
180,910	-10,265	247,676	115,375
181,925	-10,219	247,639	115,385
182,940	-10,160	247,350	115,289
183,954	-10,329	247,029	114,989
184,969	-10,373	247,177	115,011
185,983	-10,257	246,911	114,973
186,998	-10,170	246,747	114,959
188,013	-10,227	246,548	114,809
189,027	-10,210	246,345	114,718
190,042	-10,039	246,138	114,753
191,056	-10,146	246,098	114,636
192,071	-10,207	245,921	114,493
193,086	-10,277	245,651	114,299
194,100	-10,163	245,503	114,314
195,115	-10,143	245,366	114,256
196,129	-10,107	245,115	114,159
197,144	-10,278	244,986	113,947
198,159	-10,165	244,733	113,913
199,173	-10,141	244,544	113,835
200,188	-10,183	244,480	113,759
201,202	-10,298	244,135	113,494
202,217	-10,770	244,038	113,053
203,232	-10,696	243,721	112,957
204,246	-10,064	243,696	113,452
205,261	-9,169	243,880	114,260
206,275	-9,678	243,642	113,722
207,290	-7,989	244,040	115,281
208,304	-3,854	245,493	119,357
209,319	-0,935	246,200	122,093
210,334	-0,717	246,117	122,221
211,348	-0,358	246,103	122,498
212,363	-0,028	246,216	122,814
213,377	0,473	246,058	123,137
214,392	0,509	246,007	123,129
215,407	0,412	245,809	122,939
216,421	0,337	245,609	122,767
217,436	0,690	245,421	122,951
218,450	0,541	245,268	122,742
219,465	0,308	245,123	122,467
220,480	0,392	244,946	122,438
221,494	0,694	244,833	122,616
222,509	0,592	244,746	122,478
223,523	0,537	244,634	122,367
224,538	0,545	244,375	122,233
225,553	0,334	244,128	121,927
226,567	0,189	244,113	121,790
227,582	0,699	243,934	122,104
228,596	0,768	243,840	122,102
229,611	0,363	243,653	121,670
230,626	0,388	243,474	121,589
231,640	0,663	243,395	121,762
232,655	0,719	243,135	121,666
233,669	0,454	242,952	121,350
234,684	0,129	242,905	121,052
235,699	0,814	242,740	121,513
236,713	0,825	242,384	121,333
237,728	0,560	242,321	121,076
238,742	0,646	242,151	121,050
239,757	0,656	241,819	120,881
240,772	0,554	241,672	120,715
241,786	0,260	241,817	120,540
242,801	-0,073	241,294	120,002
243,815	0,225	241,180	120,174
244,830	0,566	241,179	120,436
245,844	0,642	241,084	120,439
246,859	0,645	240,777	120,277
247,874	0,374	240,690	120,006
248,888	0,628	240,538	120,122
249,903	0,718	240,392	120,111
250,917	0,799	240,401	120,169
251,932	0,777	240,281	120,081
252,947	0,801	239,787	119,843
253,961	0,201	239,851	119,385
254,976	0,561	239,464	119,469
255,990	0,687	239,327	119,490
257,005	0,143	239,224	118,995
258,020	0,271	239,014	118,982
259,034	0,419	238,980	119,072
260,049	0,523	238,801	119,055
261,063	0,317	238,605	118,783
262,078	0,340	238,493	118,735
263,093	0,644	238,231	118,835
264,107	0,788	238,177	118,911
265,122	0,606	238,067	118,701
266,136	0,766	237,882	118,725
267,151	0,943	237,874	118,850
268,166	0,510	237,594	118,359
269,180	0,299	237,387	118,078
270,195	0,841	237,453	118,527
271,209	1,035	237,280	118,584
272,224	0,585	237,004	118,081
273,239	0,393	236,738	117,787
274,253	0,794	236,594	118,020
275,268	0,624	236,454	117,806
276,282	0,506	236,345	117,649
277,297	0,583	236,126	117,590
278,312	0,451	236,050	117,438
279,326	0,258	236,098	117,300
280,341	0,451	235,830	117,308
281,355	0,531	235,693	117,291
282,370	0,839	235,427	117,389
283,384	0,523	235,387	117,112
284,399	0,393	235,197	116,905
285,414	0,208	235,064	116,685
286,428	0,621	235,009	116,969
287,443	0,676	234,810	116,902
288,457	0,805	234,683	116,929
289,472	0,901	234,631	116,968
290,487	0,765	234,382	116,727
291,501	0,521	233,960	116,318
292,516	0,000	233,908	115,878
293,530	0,043	233,770	115,832
294,545	0,447	233,797	116,148
295,560	0,557	233,661	116,155
296,574	0,344	233,293	115,798
297,589	0,178	233,253	115,639
298,603	0,802	233,183	116,075
299,618	0,848	233,087	116,053
300,633	0,995	232,948	116,087
301,647	1,012	232,783	116,007
302,662	1,152	232,761	116,094
303,676	1,079	232,494	115,894
304,691	1,023	232,317	115,752
305,706	1,080	232,254	115,755
306,720	0,962	232,050	115,552
307,735	0,512	232,020	115,181
308,749	0,649	231,609	115,073
309,764	0,436	231,398	114,794
310,779	0,571	231,155	114,766
311,793	0,359	231,151	114,592
312,808	0,429	230,906	114,514
313,822	0,239	230,774	114,293
314,837	0,171	230,663	114,176
315,852	0,351	230,507	114,226
316,866	0,751	230,446	114,491
317,881	0,671	230,323	114,358
318,895	1,242	230,206	114,724
319,910	1,053	230,174	114,554
320,925	0,670	229,912	114,122
321,939	0,937	229,708	114,214
322,954	1,121	229,703	114,341
323,968	1,172	229,543	114,290
324,983	1,053	229,336	114,086
325,997	0,851	229,380	113,945
327,012	0,869	229,056	113,787
328,027	0,590	228,792	113,435
329,041	0,643	228,793	113,466
330,056	1,322	228,688	113,916
331,070	1,250	228,644	113,829
332,085	1,183	228,397	113,647
333,100	1,184	228,215	113,546
334,114	1,125	228,134	113,451
335,129	1,010	228,042	113,309
336,143	1,347	227,769	113,416
337,158	1,007	227,697	113,115
338,173	1,117	227,436	113,058
339,187	1,190	227,287	113,029
340,202	1,140	227,106	112,891
341,216	1,064	227,062	112,802
342,231	0,958	226,921	112,643
343,246	0,759	226,803	112,425
344,260	0,936	226,650	112,472
345,275	1,292	226,559	112,682
346,289	1,300	226,344	112,571
347,304	1,417	226,369	112,661
348,319	1,617	226,174	112,703
349,333	1,284	225,927	112,322
350,348	1,014	225,796	112,046
351,362	1,231	225,594	112,096
352,377	0,764	225,325	111,606
353,392	0,788	225,217	111,561
354,406	1,030	225,174	111,710
355,421	197,291	1317,566	1396,934
356,435	158,207	1450,641	1396,915
