DTS Sentinel unit serial number:	SN410029Multiplexer serial number:	ORYXHardware model number:	OX2-SRSoftware version number:	ORYX F/W v4,00 Oryx Data Collector v3.7.2.0data status	okinstallation	B5 Nyhavnadifferential loss correction	single-endedforward channel	channel 2reverse channel	N/Adate	2023/12/13time	21:32:13forward acquisition time	300,00reverse acquisition time	0,00gamma	499,1914k internal	0,3156k external	0,3156temperature offset calibration	1,0000default loss term (dB/km)	0,3820temperature slope calibration	1,0000multiplexer offset coefficient	1,0000multiplexer slope coefficient	1,0000fibre end	0,00T internal ref (°C)	9,93T ext. ref 1 (°C)	-6,91T ext. ref 2 (°C)	-6,94length (m)	temperature (°C)	Stokes	anti-Stokes-744,400	-120,046	0,124	0,016
-743,385	-174,456	-0,406	-0,008
-742,371	311,119	0,155	0,215
-741,356	-117,735	-0,304	-0,040
-740,342	121,825	0,144	0,133
-739,327	-14,990	-0,389	-0,183
-738,312	2,073	0,140	0,074
-737,298	-21,547	-0,385	-0,172
-736,283	-48,613	0,156	0,055
-735,269	72,215	-0,192	0,147
-734,254	345,640	0,120	-0,174
-733,239	7,768	-0,568	-0,313
-732,225	-46,609	0,291	0,105
-731,210	-200,000	0,027	0,224
-730,196	-147,147	-0,028	0,002
-729,181	-63,464	-0,027	0,008
-728,167	365,826	0,097	0,145
-727,152	-183,343	-0,078	0,001
-726,137	515,328	-0,030	-0,051
-725,123	-70,705	-0,061	-0,017
-724,108	800,000	-0,027	0,066
-723,094	48,104	-0,132	-0,091
-722,079	-15,828	0,024	0,011
-721,064	800,000	0,016	-0,037
-720,050	773,449	0,025	-0,050
-719,035	8,124	-0,136	-0,075
-718,021	-200,000	0,026	0,108
-717,006	91,067	-0,072	-0,059
-715,991	-200,000	-0,014	0,051
-714,977	-200,000	-0,005	-0,092
-713,962	76,689	0,069	-0,054
-712,948	308,867	-0,105	0,145
-711,933	-48,933	-0,121	0,043
-710,918	580,848	-0,035	0,064
-709,904	-200,000	0,012	0,078
-708,889	88,071	0,028	-0,023
-707,875	415,637	-0,119	-0,188
-706,860	800,000	0,053	0,166
-705,845	152,911	0,091	0,092
-704,831	-24,931	-0,046	-0,020
-703,816	48,143	0,034	0,024
-702,802	-200,000	-0,020	-0,116
-701,787	106,130	-0,065	0,057
-700,772	287,442	-0,094	-0,125
-699,758	134,414	0,093	-0,088
-698,743	479,335	-0,006	-0,011
-697,729	800,000	0,058	0,131
-696,714	480,742	-0,079	-0,132
-695,699	21,605	-0,026	0,016
-694,685	41,954	-0,164	-0,110
-693,670	-99,958	-0,096	-0,017
-692,656	-91,694	0,144	0,030
-691,641	264,081	-0,093	0,119
-690,627	-200,000	0,024	0,136
-689,612	800,000	-0,003	0,006
-688,597	800,000	-0,019	-0,045
-687,583	-200,000	-0,005	-0,028
-686,568	-83,672	-0,075	0,017
-685,554	25,245	-0,125	-0,076
-684,539	-28,600	0,059	-0,025
-683,524	-200,000	0,024	-0,089
-682,510	111,097	-0,069	-0,061
-681,495	-179,739	-0,159	0,002
-680,481	-125,656	0,034	-0,004
-679,466	800,000	0,009	0,020
-678,451	-1,720	0,067	-0,035
-677,437	-115,568	0,075	-0,010
-676,422	756,448	-0,008	0,015
-675,408	-52,079	-0,074	0,025
-674,393	264,149	-0,041	0,052
-673,378	-192,209	-0,125	0,001
-672,364	183,973	-0,128	-0,139
-671,349	-2,794	0,047	-0,024
-670,335	-57,231	-0,182	0,059
-669,320	-164,285	0,079	-0,003
-668,305	-45,792	-0,048	0,017
-667,291	800,000	-0,027	-0,079
-666,276	504,923	-0,061	0,104
-665,262	310,765	-0,017	-0,023
-664,247	114,201	-0,091	-0,082
-663,232	8,406	-0,058	-0,032
-662,218	291,275	-0,057	0,077
-661,203	234,540	0,038	0,046
-660,189	-90,330	-0,038	-0,008
-659,174	-78,165	-0,195	0,049
-658,159	-200,000	0,014	-0,169
-657,145	800,000	-0,040	-0,113
-656,130	230,936	0,007	-0,008
-655,116	527,455	-0,046	-0,080
-654,101	37,413	-0,067	-0,044
-653,086	-200,000	-0,026	0,208
-652,072	-45,270	-0,140	-0,051
-651,057	-89,193	-0,082	0,018
-650,043	-99,416	0,059	-0,011
-649,028	-65,333	-0,257	0,075
-648,014	84,877	0,137	0,111
-646,999	293,662	-0,088	0,118
-645,984	-126,364	0,084	0,009
-644,970	615,946	-0,059	0,109
-643,955	62,211	-0,076	0,055
-642,941	-31,722	-0,141	-0,058
-641,926	0,078	-0,092	0,048
-640,911	12,431	0,058	-0,033
-639,897	-200,000	0,006	0,106
-638,882	800,000	0,045	-0,144
-637,868	-200,000	0,026	0,111
-636,853	168,446	-0,028	0,029
-635,838	429,265	-0,117	-0,187
-634,824	-200,000	0,001	-0,111
-633,809	-19,730	-0,100	-0,045
-632,795	217,597	-0,010	-0,012
-631,780	138,445	-0,074	0,072
-630,765	15,099	0,174	0,100
-629,751	-82,435	-0,151	-0,036
-628,736	-200,000	-0,022	-0,144
-627,722	-200,000	0,018	0,063
-626,707	-200,000	0,003	0,065
-625,692	280,110	0,040	-0,053
-624,678	698,602	-0,020	-0,040
-623,663	-200,000	0,002	-0,032
-622,649	-0,031	-0,135	0,070
-621,634	-200,000	-0,011	0,087
-620,619	-87,576	-0,126	-0,028
-619,605	-90,735	-0,098	0,021
-618,590	76,131	0,018	-0,014
-617,576	-200,000	0,035	0,168
-616,561	70,671	0,057	0,043
-615,546	639,954	-0,049	-0,092
-614,532	180,613	-0,073	-0,079
-613,517	438,381	0,027	-0,044
-612,503	-200,000	0,024	0,124
-611,488	-165,756	0,007	-0,000
-610,474	-20,967	-0,022	-0,010
-609,459	-37,291	0,062	0,024
-608,444	312,277	0,124	0,171
-607,430	-200,000	-0,010	-0,111
-606,415	800,000	-0,042	-0,106
-605,401	631,933	0,020	-0,038
-604,386	29,363	0,012	-0,008
-603,371	800,000	0,033	0,072
-602,357	-23,202	0,073	-0,032
-601,342	4,802	0,121	-0,065
-600,328	800,000	-0,030	-0,074
-599,313	800,000	-0,017	-0,039
-598,298	-77,081	-0,066	-0,017
-597,284	800,000	0,018	0,042
-596,269	-200,000	-0,005	0,098
-595,255	800,000	0,033	0,086
-594,240	-17,863	-0,127	-0,058
-593,225	-200,000	0,000	0,037
-592,211	273,729	0,046	-0,060
-591,196	800,000	0,029	0,084
-590,182	-200,000	0,005	0,100
-589,167	22,149	0,036	-0,021
-588,152	-200,000	-0,033	-0,143
-587,138	145,808	-0,036	0,035
-586,123	-200,000	0,006	-0,094
-585,109	800,000	0,042	0,113
-584,094	95,635	-0,037	-0,031
-583,079	-156,021	0,080	-0,004
-582,065	800,000	0,059	0,178
-581,050	-200,000	0,025	0,098
-580,036	152,167	-0,023	0,023
-579,021	800,000	-0,027	-0,055
-578,006	43,536	0,040	-0,027
-576,992	103,247	-0,113	-0,097
-575,977	109,763	0,091	0,080
-574,963	140,203	0,074	0,072
-573,948	-200,000	-0,039	0,211
-572,934	-86,709	-0,078	0,017
-571,919	-200,000	-0,001	-0,057
-570,904	-200,000	0,013	0,074
-569,890	236,405	0,047	-0,057
-568,875	45,825	0,088	0,060
-567,861	800,000	-0,053	0,112
-566,846	800,000	-0,053	0,134
-565,831	425,121	-0,049	-0,078
-564,817	-104,980	0,110	-0,018
-563,802	36,347	-0,114	0,074
-562,788	-127,845	-0,108	0,011
-561,773	-6,064	0,185	0,092
-560,758	23,906	-0,075	0,045
-559,744	7,739	-0,090	0,049
-558,729	192,986	0,048	-0,054
-557,715	-200,000	-0,031	-0,114
-556,700	301,783	-0,042	0,058
-555,685	201,666	-0,174	-0,196
-554,671	108,456	0,057	-0,050
-553,656	800,000	-0,023	-0,051
-552,642	-0,834	0,119	-0,061
-551,627	-200,000	-0,014	0,070
-550,612	-81,763	0,083	-0,020
-549,598	-200,000	0,016	-0,144
-548,583	525,474	-0,047	-0,082
-547,569	185,969	-0,069	-0,075
-546,554	259,329	0,049	0,061
-545,539	-164,292	-0,095	-0,003
-544,525	-200,000	-0,004	-0,042
-543,510	101,963	-0,041	0,035
-542,496	100,332	0,079	0,067
-541,481	-171,026	0,084	0,002
-540,466	-200,000	0,022	-0,084
-539,452	55,282	-0,038	0,027
-538,437	-200,000	-0,040	-0,195
-537,423	506,708	0,053	-0,091
-536,408	-139,850	-0,124	0,010
-535,393	-200,000	0,007	-0,048
-534,379	345,728	-0,105	-0,152
-533,364	-22,548	0,125	-0,055
-532,350	-12,498	-0,010	-0,005
-531,335	-200,000	0,018	0,163
-530,321	800,000	-0,020	0,065
-529,306	103,105	0,049	-0,042
-528,291	-115,256	-0,104	-0,014
-527,277	135,265	-0,119	-0,113
-526,262	-32,040	0,129	0,052
-525,248	457,933	-0,099	0,161
-524,233	82,686	0,027	-0,021
-523,218	53,658	0,111	0,078
-522,204	637,912	-0,012	0,023
-521,189	22,918	-0,068	0,041
-520,175	475,162	-0,074	-0,123
-519,160	-117,189	-0,115	0,015
-518,145	-65,109	0,018	-0,005
-517,131	154,223	0,075	-0,075
-516,116	-200,000	0,013	-0,046
-515,102	607,478	-0,036	0,065
-514,087	-37,707	-0,184	-0,071
-513,072	-200,000	0,002	0,020
-512,058	-27,048	-0,081	-0,035
-511,043	-200,000	-0,006	0,121
-510,029	-200,000	0,017	-0,080
-509,014	-53,067	-0,076	-0,025
-507,999	-200,000	-0,015	0,083
-506,985	27,036	-0,077	-0,047
-505,970	-13,202	-0,081	0,038
-504,956	800,000	0,022	-0,045
-503,941	523,334	0,067	-0,116
-502,926	-200,000	-0,002	0,074
-501,912	-44,128	0,073	0,026
-500,897	-200,000	-0,002	-0,105
-499,883	74,181	0,046	0,036
-498,868	494,800	-0,036	-0,061
-497,853	-200,000	0,019	-0,136
-496,839	128,845	0,028	0,026
-495,824	800,000	-0,023	0,069
-494,810	549,753	-0,050	-0,088
-493,795	-15,484	0,050	-0,023
-492,781	-176,549	-0,053	-0,001
-491,766	22,659	0,049	-0,029
-490,751	-200,000	-0,005	-0,033
-489,737	-49,588	0,065	-0,022
-488,722	221,623	0,073	0,086
-487,708	-200,000	-0,006	0,049
-486,693	362,533	-0,087	0,128
-485,678	43,805	-0,115	-0,077
-484,664	-27,203	-0,235	0,099
-483,649	206,845	0,064	0,073
-482,635	-200,000	0,004	-0,058
-481,620	213,904	0,095	0,110
-480,605	-37,726	-0,093	0,036
-479,591	-124,668	0,050	0,006
-478,576	800,000	0,042	0,111
-477,562	3,142	-0,165	-0,087
-476,547	-97,119	-0,134	-0,025
-475,532	9,543	-0,048	-0,026
-474,518	-85,002	0,101	-0,023
-473,503	-76,378	0,153	-0,039
-472,489	-200,000	-0,020	0,070
-471,474	-29,155	0,208	0,087
-470,459	-86,518	0,101	-0,022
-469,445	-24,646	-0,120	-0,052
-468,430	800,000	-0,025	-0,062
-467,416	-99,495	0,054	0,010
-466,401	-200,000	-0,011	-0,041
-465,386	-79,951	-0,093	0,023
-464,372	-127,162	0,130	0,014
-463,357	-22,173	-0,098	-0,043
-462,343	264,849	0,067	0,085
-461,328	-200,000	-0,019	-0,075
-460,313	-154,617	0,063	0,003
-459,299	21,496	0,138	-0,082
-458,284	427,310	0,065	0,103
-457,270	800,000	0,060	-0,181
-456,255	647,244	-0,015	0,028
-455,241	-38,375	-0,159	-0,061
-454,226	-164,101	0,065	0,002
-453,211	-91,580	0,030	-0,006
-452,197	-171,381	0,040	0,001
-451,182	-200,000	-0,007	0,028
-450,168	670,388	0,033	-0,063
-449,153	157,188	0,097	0,098
-448,138	-200,000	0,017	-0,060
-447,124	-200,000	-0,018	-0,141
-446,109	236,615	0,055	-0,067
-445,095	-116,536	0,024	-0,003
-444,080	-106,320	0,147	0,024
-443,065	800,000	-0,014	0,030
-442,051	-69,264	0,142	-0,040
-441,036	52,938	-0,054	-0,038
-440,022	126,725	0,124	0,114
-439,007	61,502	-0,054	0,039
-437,992	174,854	-0,021	0,023
-436,978	-115,761	-0,143	0,019
-435,963	-147,547	-0,014	0,001
-434,949	-101,600	-0,175	-0,031
-433,934	-200,000	0,033	-0,172
-432,919	-4,339	0,031	-0,016
-431,905	28,618	-0,112	-0,069
-430,890	-139,930	0,112	-0,009
-429,876	-146,818	0,019	0,001
-428,861	-64,829	-0,028	0,008
-427,846	-8,082	0,041	-0,020
-426,832	-200,000	0,014	-0,151
-425,817	800,000	-0,067	-0,180
-424,803	800,000	0,025	-0,053
-423,788	-117,662	0,133	0,017
-422,773	323,522	0,064	0,089
-421,759	40,332	0,029	0,019
-420,744	186,186	0,044	-0,048
-419,730	80,937	-0,122	0,096
-418,715	21,880	0,066	-0,039
-417,701	-149,503	-0,093	0,005
-416,686	-200,000	-0,007	-0,118
-415,671	55,476	-0,053	0,037
-414,657	-10,354	-0,039	0,019
-413,642	52,731	0,081	-0,056
-412,628	-200,000	-0,038	-0,124
-411,613	800,000	0,024	-0,055
-410,598	101,682	0,040	-0,034
-409,584	716,400	0,034	-0,066
-408,569	800,000	0,061	0,157
-407,555	800,000	-0,012	0,040
-406,540	334,965	-0,034	-0,049
-405,525	800,000	-0,031	0,090
-404,511	640,778	0,014	-0,026
-403,496	430,662	0,120	-0,190
-402,482	-200,000	-0,013	-0,071
-401,467	487,087	0,057	0,094
-400,452	232,433	-0,057	0,068
-399,438	344,301	0,071	0,102
-398,423	531,948	0,052	-0,090
-397,409	176,894	-0,094	-0,100
-396,394	-200,000	-0,009	0,151
-395,379	-65,765	-0,075	-0,022
-394,365	50,437	0,072	-0,050
-393,350	425,021	-0,121	0,190
-392,336	-77,095	-0,035	-0,009
-391,321	-105,263	-0,077	0,013
-390,306	-113,454	0,087	0,012
-389,292	-200,000	0,010	-0,102
-388,277	24,585	0,124	-0,074
-387,263	61,768	0,130	0,094
-386,248	-200,000	-0,020	0,081
-385,233	-200,000	0,011	-0,051
-384,219	31,078	-0,117	0,073
-383,204	295,835	0,067	0,090
-382,190	38,068	-0,036	-0,024
-381,175	658,938	-0,027	-0,051
-380,160	143,593	0,055	-0,053
-379,146	-75,475	0,144	0,037
-378,131	800,000	-0,015	-0,048
-377,117	-43,241	0,154	0,056
-376,102	-147,405	-0,061	-0,004
-375,088	-200,000	0,024	-0,103
-374,073	-156,524	-0,053	-0,002
-373,058	211,313	0,050	-0,058
-372,044	78,434	0,076	0,059
-371,029	59,124	-0,031	0,022
-370,015	227,437	0,040	-0,048
-369,000	800,000	0,039	0,088
-367,985	530,890	-0,095	0,165
-366,971	253,267	-0,034	-0,043
-365,956	55,324	-0,107	0,075
-364,942	756,275	0,049	0,096
-363,927	92,395	-0,132	0,108
-362,912	-108,757	-0,074	-0,011
-361,898	-141,487	0,046	0,003
-360,883	68,400	-0,146	-0,109
-359,869	607,087	0,062	-0,112
-358,854	201,818	0,068	0,076
-357,839	800,000	0,056	0,148
-356,825	27,082	0,038	0,023
-355,810	-200,000	-0,021	0,082
-354,796	182,827	0,020	0,021
-353,781	-4,779	0,050	-0,025
-352,766	-100,638	0,053	-0,009
-351,752	-200,000	-0,023	-0,133
-350,737	99,842	0,027	-0,023
-349,723	237,510	0,076	0,092
-348,708	191,112	0,043	-0,047
-347,693	-23,402	0,094	0,041
-346,679	265,500	-0,019	-0,024
-345,664	-44,725	0,034	-0,012
-344,650	266,054	-0,024	-0,031
-343,635	-200,000	0,002	-0,054
-342,620	58,990	0,067	-0,048
-341,606	800,000	0,037	0,082
-340,591	-47,394	0,021	0,007
-339,577	105,022	-0,121	0,103
-338,562	800,000	-0,043	-0,125
-337,548	-74,373	-0,139	0,036
-336,533	800,000	-0,046	0,144
-335,518	-200,000	-0,029	0,173
-334,504	800,000	0,019	0,040
-333,489	-47,774	-0,083	-0,029
-332,475	-200,000	0,007	0,051
-331,460	-71,354	0,116	-0,031
-330,445	41,412	-0,040	-0,026
-329,431	-162,180	0,097	-0,003
-328,416	25,423	-0,013	-0,008
-327,402	800,000	0,035	0,078
-326,387	40,144	0,075	0,049
-325,372	109,743	-0,111	0,097
-324,358	257,796	-0,013	-0,017
-323,343	285,616	-0,038	0,049
-322,329	731,161	0,040	0,077
-321,314	-71,993	0,144	-0,039
-320,299	117,543	0,093	0,083
-319,285	146,141	-0,123	-0,120
-318,270	-200,000	0,007	-0,051
-317,256	409,315	0,046	-0,071
-316,241	-200,000	0,014	-0,170
-315,226	-98,534	-0,023	0,004
-314,212	-161,942	0,090	-0,003
-313,197	-126,967	-0,052	0,006
-312,183	486,563	-0,016	0,027
-311,168	351,639	0,056	-0,081
-310,153	800,000	-0,042	0,124
-309,139	-138,841	-0,140	0,011
-308,124	-54,370	0,111	0,036
-307,110	-109,981	-0,089	0,013
-306,095	-150,528	0,045	0,002
-305,080	443,298	-0,026	0,042
-304,066	194,543	-0,097	-0,107
-303,051	-59,010	-0,147	0,046
-302,037	-121,506	-0,118	-0,014
-301,022	800,000	0,025	-0,068
-300,008	-126,328	0,071	0,008
-298,993	-200,000	0,049	-0,208
-297,978	-200,000	0,006	0,089
-296,964	137,712	0,031	0,030
-295,949	241,911	-0,065	-0,079
-294,935	-38,706	-0,023	0,009
-293,920	110,343	-0,032	0,028
-292,905	157,104	-0,086	-0,086
-291,891	137,795	0,087	-0,082
-290,876	131,084	-0,021	-0,020
-289,862	17,206	0,039	0,023
-288,847	127,721	0,068	-0,063
-287,832	800,000	0,039	-0,083
-286,818	-200,000	0,017	0,088
-285,803	-200,000	-0,001	0,089
-284,789	800,000	0,020	-0,056
-283,774	-200,000	0,005	-0,039
-282,759	615,159	0,064	-0,117
-281,745	-21,047	-0,059	0,026
-280,730	7,590	-0,050	-0,027
-279,716	15,331	0,091	0,051
-278,701	-79,383	0,131	-0,032
-277,686	-154,132	0,056	0,003
-276,672	800,000	0,045	0,106
-275,657	-200,000	-0,021	-0,098
-274,643	615,565	-0,108	-0,198
-273,628	-64,103	-0,068	-0,020
-272,613	800,000	0,044	0,099
-271,599	800,000	-0,012	0,025
-270,584	67,249	-0,118	0,087
-269,570	265,770	-0,029	-0,037
-268,555	-200,000	0,015	-0,192
-267,540	-200,000	-0,024	-0,105
-266,526	30,526	0,056	-0,035
-265,511	800,000	-0,034	-0,083
-264,497	-110,692	0,062	0,009
-263,482	-200,000	-0,006	0,042
-262,467	-200,000	0,000	0,048
-261,453	-20,844	-0,005	-0,002
-260,438	-50,690	0,081	0,027
-259,424	645,351	0,021	0,039
-258,409	-200,000	0,005	0,099
-257,395	-200,000	0,025	0,141
-256,380	78,955	0,040	-0,031
-255,365	-200,000	-0,020	-0,078
-254,351	158,127	-0,088	0,088
-253,336	-89,812	-0,119	0,025
-252,322	-43,817	-0,061	0,022
-251,307	-200,000	0,000	-0,082
-250,292	361,325	-0,030	-0,044
-249,278	-200,000	-0,014	0,082
-248,263	297,340	-0,021	0,028
-247,249	-11,405	-0,103	0,049
-246,234	203,469	-0,024	0,027
-245,219	214,162	-0,094	-0,108
-244,205	263,077	0,051	0,065
-243,190	212,813	-0,083	-0,095
-242,176	138,976	0,028	-0,026
-241,161	-200,000	0,007	0,038
-240,146	800,000	0,062	0,144
-239,132	-200,000	-0,006	-0,100
-238,117	-108,138	-0,094	-0,015
-237,103	271,500	0,043	-0,055
-236,088	-41,582	0,023	-0,009
-235,073	200,810	-0,086	-0,095
-234,059	800,000	0,045	0,132
-233,044	232,858	-0,041	0,049
-232,030	159,613	-0,079	-0,080
-231,015	608,875	0,038	-0,070
-230,000	245,879	-0,103	-0,126
-228,986	-62,842	0,065	0,019
-227,971	-92,644	0,054	-0,011
-226,957	800,000	0,044	0,100
-225,942	361,102	0,083	0,121
-224,927	-42,306	0,024	-0,009
-223,913	65,745	-0,088	-0,064
-222,898	-200,000	-0,006	0,042
-221,884	82,080	0,081	0,063
-220,869	-200,000	-0,013	0,084
-219,855	320,157	-0,036	-0,050
-218,840	-175,660	0,039	0,001
-217,825	-200,000	-0,001	-0,059
-216,811	-105,141	0,011	0,002
-215,796	-6,886	0,018	0,009
-214,782	323,252	-0,061	-0,084
-213,767	-41,983	0,092	0,034
-212,752	-141,480	0,068	-0,005
-211,738	265,952	0,057	-0,072
-210,723	-200,000	0,003	-0,053
-209,709	295,655	0,072	0,096
-208,694	38,245	-0,081	-0,052
-207,679	800,000	-0,022	-0,054
-206,665	-46,869	0,062	-0,022
-205,650	-200,000	-0,024	0,126
-204,636	800,000	-0,017	-0,043
-203,621	53,593	-0,042	-0,029
-202,606	47,973	0,064	-0,043
-201,592	-200,000	0,002	-0,078
-200,577	78,127	0,037	-0,029
-199,563	-65,881	0,096	0,028
-198,548	-200,000	-0,020	-0,065
-197,533	-81,873	-0,020	-0,005
-196,519	-200,000	-0,011	0,154
-195,504	-34,548	0,036	0,014
-194,490	-58,078	0,015	0,005
-193,475	-76,141	-0,051	0,013
-192,460	128,630	0,042	-0,039
-191,446	169,050	0,085	-0,088
-190,431	-200,000	0,010	0,068
-189,417	-112,496	0,090	-0,013
-188,402	161,352	-0,012	0,012
-187,387	-200,000	-0,021	0,090
-186,373	-51,179	-0,048	0,016
-185,358	-200,000	-0,000	-0,027
-184,344	-91,505	0,049	0,010
-183,329	-110,623	0,059	0,009
-182,315	143,548	0,026	-0,025
-181,300	-83,502	-0,137	0,031
-180,285	267,155	-0,054	0,069
-179,271	401,631	0,091	0,138
-178,256	-200,000	0,008	0,049
-177,242	42,739	-0,027	0,018
-176,227	800,000	-0,014	0,044
-175,212	54,346	0,070	0,049
-174,198	-74,843	0,151	0,039
-173,183	64,449	-0,040	0,029
-172,169	-200,000	-0,009	-0,030
-171,154	121,030	0,035	0,032
-170,139	-200,000	0,004	-0,030
-169,125	-200,000	0,010	-0,098
-168,110	800,000	-0,026	-0,065
-167,096	-144,955	0,083	-0,005
-166,081	-94,268	-0,159	-0,031
-165,066	206,691	0,092	0,103
-164,052	-200,000	-0,020	-0,178
-163,037	216,798	-0,070	0,080
-162,023	511,064	0,088	0,148
-161,008	-15,633	-0,108	0,049
-159,993	-164,696	0,065	-0,002
-158,979	-75,419	0,111	0,028
-157,964	-112,602	0,114	-0,016
-156,950	191,213	-0,113	-0,123
-155,935	476,328	0,096	0,158
-154,920	-200,000	-0,020	-0,081
-153,906	-200,000	-0,002	0,161
-152,891	33,911	-0,048	0,030
-151,877	800,000	-0,032	0,079
-150,862	-60,956	0,078	-0,024
-149,847	587,997	-0,038	-0,068
-148,833	-134,103	-0,034	-0,003
-147,818	166,634	0,036	0,037
-146,804	-200,000	0,001	0,015
-145,789	800,000	-0,028	0,060
-144,775	800,000	-0,093	-0,229
-143,760	-200,000	-0,007	0,063
-142,745	434,140	-0,037	0,058
-141,731	736,664	-0,021	0,041
-140,716	95,437	0,120	-0,098
-139,702	800,000	-0,043	0,103
-138,687	-200,000	-0,007	0,107
-137,672	145,913	-0,076	-0,074
-136,658	220,260	0,030	-0,035
-135,643	43,255	-0,051	-0,034
-134,629	-154,110	-0,130	-0,006
-133,614	69,790	0,037	0,028
-132,599	-126,443	-0,071	0,008
-131,585	10,764	0,078	0,043
-130,570	-10,577	-0,099	-0,047
-129,556	-200,000	0,002	0,020
-128,541	-40,087	-0,158	0,059
-127,526	-200,000	-0,025	-0,147
-126,512	-200,000	0,016	0,083
-125,497	648,658	0,033	-0,061
-124,483	-17,865	0,198	0,089
-123,468	-200,000	0,014	-0,077
-122,453	-18,074	0,065	-0,029
-121,439	-80,757	-0,092	0,022
-120,424	-200,000	-0,010	0,093
-119,410	-175,770	-0,046	-0,001
-118,395	800,000	0,034	0,083
-117,380	-128,580	0,102	0,010
-116,366	-46,945	0,054	0,019
-115,351	273,520	-0,033	0,042
-114,337	800,000	-0,038	0,078
-113,322	108,079	0,053	-0,045
-112,307	-200,000	0,002	0,104
-111,293	-64,382	-0,069	0,020
-110,278	800,000	-0,046	0,135
-109,264	-6,187	-0,021	0,010
-108,249	800,000	-0,026	0,056
-107,234	56,522	-0,148	-0,103
-106,220	247,700	0,173	-0,210
-105,205	800,000	0,030	-0,087
-104,191	50,492	-0,039	-0,027
-103,176	-35,808	0,076	-0,029
-102,162	78,968	-0,054	-0,042
-101,147	-124,584	-0,060	-0,007
-100,132	-90,863	0,038	0,008
-99,118	-200,000	0,002	-0,098
-98,103	412,010	0,091	-0,140
-97,089	39,561	0,146	0,094
-96,074	800,000	-0,069	-0,181
-95,059	-200,000	-0,016	0,060
-94,045	41,784	0,084	-0,055
-93,030	-6,174	-0,049	-0,024
-92,016	800,000	-0,020	0,049
-91,001	55,317	-0,050	0,035
-89,986	800,000	0,037	-0,078
-88,972	-200,000	-0,012	0,092
-87,957	-51,102	-0,045	-0,015
-86,943	-200,000	0,005	0,095
-85,928	-67,841	-0,123	0,034
-84,913	174,777	-0,016	0,017
-83,899	-200,000	0,011	0,047
-82,884	559,659	0,049	0,085
-81,870	202,130	-0,039	-0,043
-80,855	-91,434	0,162	0,033
-79,840	257,621	0,056	0,070
-78,826	33,402	0,129	-0,080
-77,811	-200,000	0,026	-0,204
-76,797	-155,186	0,065	0,003
-75,782	-112,028	0,072	0,010
-74,767	48,338	0,152	0,102
-73,753	-200,000	0,019	0,137
-72,738	95,094	0,029	0,024
-71,724	-200,000	-0,009	-0,124
-70,709	589,748	0,012	-0,022
-69,694	800,000	-0,007	0,018
-68,680	83,959	-0,056	0,044
-67,665	-150,156	0,150	0,008
-66,651	538,286	0,065	0,111
-65,636	3,900	-0,105	-0,055
-64,622	-23,651	-0,098	-0,042
-63,607	156,843	0,108	-0,107
-62,592	-115,663	-0,091	0,012
-61,578	-200,000	0,014	0,064
-60,563	-200,000	-0,008	0,052
-59,549	78,228	-0,033	0,025
-58,534	51,847	-2,557	-1,746
-57,519	704,036	0,221	-0,420
-56,505	800,000	-1,729	-5,216
-55,490	311,777	0,988	1,334
-54,476	800,000	5,370	11,685
-53,461	-200,000	21,047	339,868
-52,446	800,000	764,333	2343,192
-51,432	527,827	1667,559	2834,905
-50,417	109,091	1633,256	1402,775
-49,403	78,000	1284,104	982,424
-48,388	27,463	1027,584	619,023
-47,373	19,154	992,413	570,251
-46,359	14,345	979,806	547,130
-45,344	10,458	976,465	532,418
-44,330	10,913	974,285	532,710
-43,315	10,002	972,639	528,791
-42,300	9,957	971,396	527,945
-41,286	9,995	970,287	527,445
-40,271	9,958	969,547	526,903
-39,257	9,907	968,658	526,230
-38,242	9,942	967,669	525,786
-37,227	9,924	966,892	525,285
-36,213	9,928	965,946	524,764
-35,198	9,877	965,038	524,084
-34,184	9,960	964,340	523,953
-33,169	9,929	963,408	523,325
-32,154	9,956	962,541	522,921
-31,140	9,968	961,602	522,429
-30,125	9,968	960,870	522,010
-29,111	9,980	959,841	521,471
-28,096	10,009	959,346	521,275
-27,082	10,026	958,610	520,911
-26,067	10,009	957,798	520,393
-25,052	10,010	957,226	520,064
-24,038	9,948	956,355	519,371
-23,023	9,894	955,813	518,881
-22,009	9,966	955,229	518,775
-20,994	10,008	954,671	518,588
-19,979	9,915	954,226	518,026
-18,965	9,906	953,467	517,562
-17,950	10,027	952,706	517,521
-16,936	9,906	952,314	516,895
-15,921	9,973	951,302	516,540
-14,906	9,889	950,552	515,844
-13,892	9,928	950,016	515,660
-12,877	9,854	949,370	515,051
-11,863	9,883	948,617	514,712
-10,848	9,902	948,170	514,512
-9,833	9,947	947,755	514,409
-8,819	9,874	947,083	513,790
-7,804	9,865	946,185	513,255
-6,790	9,912	945,514	513,020
-5,775	9,921	945,206	512,861
-4,760	9,870	944,499	512,295
-3,746	9,944	943,862	512,166
-2,731	9,743	943,132	511,108
-1,717	9,707	942,530	510,646
-0,702	9,731	941,931	510,377
0,313	9,526	941,365	510,190
1,327	13,153	938,864	520,300
2,342	22,032	788,612	460,523
3,356	17,244	454,515	258,101
4,371	-9,957	315,628	150,045
5,386	-13,941	297,827	137,503
6,400	-16,078	291,761	132,551
7,415	-16,124	289,291	131,371
8,429	-16,650	287,603	130,074
9,444	-16,664	286,655	129,619
10,459	-16,276	285,948	129,669
11,473	-16,503	285,364	129,170
12,488	-16,299	284,983	129,186
13,502	-16,502	284,525	128,769
14,517	-16,361	284,095	128,700
15,531	-16,123	283,652	128,720
16,546	-15,944	283,336	128,739
17,561	-16,086	283,005	128,439
18,575	-16,015	282,636	128,329
19,590	-15,946	282,101	128,141
20,604	-15,839	281,870	128,128
21,619	-16,058	281,537	127,754
22,634	-16,165	281,250	127,509
23,648	-16,118	281,024	127,441
24,663	-15,891	280,651	127,478
25,677	-16,168	280,496	127,130
26,692	-15,924	280,189	127,214
27,707	-16,108	279,910	126,900
28,721	-16,038	279,615	126,822
29,736	-15,956	279,197	126,700
30,750	-16,060	279,105	126,547
31,765	-16,013	278,786	126,435
32,780	-16,012	278,572	126,329
33,794	-15,954	278,376	126,283
34,809	-15,957	277,938	126,070
35,823	-15,981	277,859	126,001
36,838	-15,999	277,633	125,870
37,853	-16,098	277,313	125,620
38,867	-15,925	277,035	125,646
39,882	-15,864	276,851	125,610
40,896	-15,840	276,719	125,561
41,911	-16,070	276,408	125,192
42,926	-15,766	276,033	125,298
43,940	-16,054	275,825	124,920
44,955	-15,919	275,451	124,867
45,969	-15,978	275,316	124,740
46,984	-15,941	275,240	124,728
47,999	-15,757	274,944	124,757
49,013	-15,715	274,729	124,686
50,028	-15,750	274,468	124,525
51,042	-15,811	274,218	124,342
52,057	-15,876	274,127	124,230
53,071	-15,830	273,817	124,121
54,086	-15,687	273,459	124,082
55,101	-15,839	273,356	123,882
56,115	-15,793	273,161	123,825
57,130	-15,931	272,715	123,484
58,144	-16,117	272,538	123,219
59,159	-16,090	272,293	123,122
60,174	-15,976	272,001	123,085
61,188	-16,261	271,857	122,745
62,203	-15,949	271,696	122,950
63,217	-16,034	271,466	122,757
64,232	-15,963	271,243	122,710
65,247	-15,975	270,909	122,537
66,261	-16,109	270,761	122,335
67,276	-15,763	270,378	122,471
68,290	-15,974	270,313	122,236
69,305	-16,028	270,007	122,037
70,320	-15,982	269,815	121,982
71,334	-15,971	269,747	121,950
72,349	-16,017	269,315	121,702
73,363	-16,027	269,054	121,564
74,378	-16,048	268,940	121,482
75,393	-16,069	268,723	121,354
76,407	-15,807	268,368	121,423
77,422	-15,897	268,194	121,251
78,436	-15,989	268,035	121,084
79,451	-16,115	267,801	120,853
80,466	-15,911	267,594	120,934
81,480	-15,925	267,267	120,763
82,495	-15,997	267,105	120,613
83,509	-15,888	266,968	120,640
84,524	-15,907	266,724	120,502
85,539	-15,742	266,570	120,572
86,553	-15,818	266,296	120,368
87,568	-15,876	266,194	120,258
88,582	-16,169	265,914	119,855
89,597	-15,911	265,713	119,988
90,611	-16,007	265,430	119,763
91,626	-15,906	265,165	119,723
92,641	-15,809	265,061	119,753
93,655	-15,889	264,837	119,569
94,670	-16,165	264,831	119,307
95,684	-16,165	264,552	119,170
96,699	-15,925	264,296	119,261
97,714	-15,780	264,015	119,254
98,728	-15,845	263,983	119,170
99,743	-15,822	263,651	119,030
100,757	-15,837	263,473	118,926
101,772	-15,665	263,070	118,887
102,787	-15,877	263,001	118,656
103,801	-15,870	262,689	118,510
104,816	-15,899	262,495	118,387
105,830	-15,954	262,376	118,274
106,845	-16,033	262,200	118,113
107,860	-15,986	261,966	118,039
108,874	-16,044	261,827	117,915
109,889	-16,036	261,598	117,807
110,903	-15,920	261,253	117,744
111,918	-15,896	261,099	117,687
112,933	-15,848	260,902	117,629
113,947	-15,820	260,714	117,559
114,962	-16,021	260,459	117,256
115,976	-16,071	260,321	117,139
116,991	-15,930	260,246	117,219
118,006	-15,917	260,005	117,112
119,020	-16,135	259,883	116,855
120,035	-16,024	259,734	116,874
121,049	-15,895	259,506	116,875
122,064	-15,878	259,338	116,805
123,079	-15,923	258,920	116,566
124,093	-15,834	258,695	116,533
125,108	-15,778	258,714	116,579
126,122	-15,816	258,539	116,457
127,137	-15,917	258,299	116,250
128,151	-16,019	258,225	116,117
129,166	-15,856	257,820	116,067
130,181	-15,844	257,727	116,025
131,195	-15,820	257,373	115,877
132,210	-16,039	257,199	115,597
133,224	-15,834	256,909	115,635
134,239	-16,017	256,902	115,462
135,254	-15,918	256,743	115,466
136,268	-15,812	256,362	115,377
137,283	-15,910	256,209	115,212
138,297	-15,876	256,002	115,139
139,312	-15,916	255,748	114,979
140,327	-15,793	255,621	115,019
141,341	-16,038	255,557	114,768
142,356	-15,997	255,183	114,625
143,370	-15,827	255,001	114,680
144,385	-16,060	254,903	114,424
145,400	-15,914	254,595	114,402
146,414	-15,988	254,540	114,303
147,429	-15,984	254,262	114,171
148,443	-15,833	253,985	114,167
149,458	-15,845	253,743	114,037
150,473	-15,964	253,834	113,966
151,487	-16,120	253,489	113,666
152,502	-15,659	253,276	113,957
153,516	-15,770	253,091	113,768
154,531	-15,949	253,009	113,568
155,546	-15,856	252,754	113,523
156,560	-15,889	252,501	113,370
157,575	-16,012	252,439	113,228
158,589	-15,890	252,118	113,178
159,604	-15,923	251,926	113,053
160,619	-16,005	251,944	112,981
161,633	-16,003	251,677	112,854
162,648	-15,852	251,541	112,911
163,662	-15,838	251,302	112,806
164,677	-15,767	250,976	112,709
165,692	-15,833	250,901	112,610
166,706	-15,949	250,871	112,488
167,721	-15,991	250,625	112,332
168,735	-15,902	250,382	112,288
169,750	-15,653	250,182	112,399
170,764	-15,928	250,123	112,130
171,779	-16,008	250,041	112,016
172,794	-15,848	249,681	111,979
173,808	-15,788	249,471	111,926
174,823	-15,762	249,442	111,925
175,837	-15,874	249,242	111,731
176,852	-15,964	248,981	111,528
177,867	-15,960	248,866	111,470
178,881	-15,696	248,563	111,546
179,896	-15,778	248,350	111,372
180,910	-15,782	248,392	111,377
181,925	-15,865	248,149	111,189
182,940	-15,917	248,000	111,068
183,954	-15,872	247,772	110,994
184,969	-15,839	247,595	110,933
185,983	-15,882	247,506	110,847
186,998	-15,719	247,376	110,915
188,013	-15,933	247,221	110,657
189,027	-15,621	246,656	110,654
190,042	-15,920	246,650	110,393
191,056	-15,971	246,426	110,240
192,071	-15,987	246,358	110,186
193,086	-16,213	246,234	109,933
194,100	-15,866	245,878	110,053
195,115	-15,950	245,817	109,945
196,129	-15,948	245,667	109,870
197,144	-16,057	245,472	109,683
198,159	-15,793	245,072	109,713
199,173	-16,069	245,234	109,547
200,188	-16,286	244,896	109,207
201,202	-15,806	244,732	109,520
202,217	-15,698	244,644	109,561
203,232	-15,762	244,401	109,389
204,246	-16,222	244,062	108,850
205,261	-16,703	243,716	108,290
206,275	-15,733	244,018	109,213
207,290	-11,197	245,761	113,739
208,304	-4,366	247,991	120,455
209,319	-1,013	248,874	123,671
210,334	0,135	249,131	124,745
211,348	1,218	249,158	125,650
212,363	1,751	249,138	126,073
213,377	1,955	249,121	126,223
214,392	2,338	248,976	126,457
215,407	2,386	249,021	126,508
216,421	2,490	248,858	126,500
217,436	2,547	248,688	126,450
218,450	2,461	248,506	126,275
219,465	2,299	248,365	126,058
220,480	2,257	248,221	125,938
221,494	2,079	247,905	125,620
222,509	1,615	247,763	125,153
223,523	1,476	247,358	124,822
224,538	1,397	247,268	124,701
225,553	1,444	246,861	124,522
226,567	1,271	246,673	124,274
227,582	1,349	246,487	124,234
228,596	1,209	246,400	124,064
229,611	1,099	246,449	123,987
230,626	1,239	245,976	123,852
231,640	1,329	245,994	123,925
232,655	1,360	245,903	123,893
233,669	1,213	245,693	123,656
234,684	1,206	245,473	123,528
235,699	1,297	245,342	123,526
236,713	1,373	245,079	123,444
237,728	1,485	245,061	123,516
238,742	1,381	244,946	123,362
239,757	1,278	244,607	123,097
240,772	1,246	244,454	122,982
241,786	1,399	244,255	122,996
242,801	1,219	244,234	122,828
243,815	1,020	244,266	122,670
244,830	1,337	243,824	122,695
245,844	1,258	243,730	122,573
246,859	1,260	243,502	122,449
247,874	1,453	243,467	122,577
248,888	1,363	243,157	122,337
249,903	1,279	243,098	122,229
250,917	1,474	242,922	122,287
251,932	1,630	242,891	122,386
252,947	1,645	242,624	122,254
253,961	1,324	242,378	121,859
254,976	1,293	242,359	121,814
255,990	1,445	242,194	121,842
257,005	1,257	242,054	121,610
258,020	1,392	242,011	121,687
259,034	1,365	241,693	121,494
260,049	1,394	241,375	121,346
261,063	1,345	241,387	121,302
262,078	1,503	241,153	121,301
263,093	1,367	241,056	121,132
264,107	1,102	240,958	120,859
265,122	1,404	240,622	120,922
266,136	1,402	240,695	120,946
267,151	1,374	240,440	120,785
268,166	1,325	240,271	120,650
269,180	1,221	240,081	120,461
270,195	1,360	240,085	120,563
271,209	1,451	239,805	120,484
272,224	1,551	239,602	120,452
273,239	1,298	239,597	120,236
274,253	1,464	239,238	120,178
275,268	1,444	239,056	120,060
276,282	1,086	239,079	119,776
277,297	1,339	238,710	119,781
278,312	1,282	238,680	119,710
279,326	1,214	238,670	119,640
280,341	1,347	238,418	119,609
281,355	1,328	238,259	119,503
282,370	1,249	238,169	119,385
283,384	1,332	237,992	119,351
284,399	1,247	237,766	119,160
285,414	1,388	237,599	119,177
286,428	1,527	237,432	119,192
287,443	1,651	237,378	119,253
288,457	1,487	237,131	118,988
289,472	1,244	237,026	118,734
290,487	1,335	236,837	118,701
291,501	1,338	236,693	118,620
292,516	1,305	236,586	118,530
293,530	1,225	236,516	118,421
294,545	1,445	236,408	118,529
295,560	1,638	236,124	118,528
296,574	1,450	236,023	118,319
297,589	1,499	235,767	118,219
298,603	1,545	235,752	118,237
299,618	1,513	235,543	118,096
300,633	1,546	235,469	118,075
301,647	1,467	235,426	117,981
302,662	1,651	235,168	117,984
303,676	1,502	234,985	117,766
304,691	1,614	234,820	117,760
305,706	1,724	234,568	117,708
306,720	1,544	234,460	117,504
307,735	1,587	234,279	117,436
308,749	1,459	234,252	117,313
309,764	1,243	234,032	117,024
310,779	1,343	233,854	117,003
311,793	1,530	233,697	117,059
312,808	1,544	233,597	117,009
313,822	1,636	233,513	117,027
314,837	1,562	233,209	116,808
315,852	1,506	233,191	116,744
316,866	1,597	232,871	116,644
317,881	1,625	232,812	116,626
318,895	1,543	232,821	116,556
319,910	1,753	232,558	116,576
320,925	1,524	232,454	116,338
321,939	1,777	232,185	116,387
322,954	1,419	232,140	116,079
323,968	1,400	232,092	116,030
324,983	1,516	231,865	115,996
325,997	1,553	231,549	115,855
327,012	1,521	231,577	115,834
328,027	1,382	231,427	115,642
329,041	1,711	231,070	115,706
330,056	1,680	231,004	115,638
331,070	1,778	230,931	115,666
332,085	1,337	230,819	115,263
333,100	1,518	230,574	115,269
334,114	1,724	230,398	115,327
335,129	1,561	230,340	115,164
336,143	1,467	230,139	114,982
337,158	1,616	230,069	115,049
338,173	1,694	229,915	115,022
339,187	1,758	229,616	114,910
340,202	1,815	229,566	114,918
341,216	1,564	229,444	114,657
342,231	1,584	229,374	114,627
343,246	1,694	229,188	114,607
344,260	1,697	229,021	114,515
345,275	1,717	228,935	114,477
346,289	1,797	228,735	114,428
347,304	1,733	228,596	114,299
348,319	1,614	228,423	114,113
349,333	1,432	228,322	113,915
350,348	1,585	228,140	113,929
351,362	1,674	227,999	113,916
352,377	1,662	227,978	113,886
353,392	1,691	227,717	113,768
354,406	1,668	227,484	113,624
355,421	194,498	1312,703	1386,528
356,435	155,953	1444,809	1386,410
