DTS Sentinel unit serial number:	SN410029Multiplexer serial number:	ORYXHardware model number:	OX2-SRSoftware version number:	ORYX F/W v4,00 Oryx Data Collector v3.7.2.0data status	okinstallation	B5 Nyhavnadifferential loss correction	single-endedforward channel	channel 2reverse channel	N/Adate	2023/12/13time	18:52:13forward acquisition time	300,00reverse acquisition time	0,00gamma	499,1914k internal	0,3160k external	0,3160temperature offset calibration	1,0000default loss term (dB/km)	0,3820temperature slope calibration	1,0000multiplexer offset coefficient	1,0000multiplexer slope coefficient	1,0000fibre end	0,00T internal ref (°C)	12,32T ext. ref 1 (°C)	-4,85T ext. ref 2 (°C)	-4,90length (m)	temperature (°C)	Stokes	anti-Stokes-744,400	-153,131	0,214	-0,011
-743,385	-186,080	-0,330	0,003
-742,371	115,458	0,123	0,111
-741,356	8,205	-0,217	0,119
-740,342	-8,332	0,122	0,060
-739,327	43,114	-0,328	-0,220
-738,312	-165,631	0,147	0,005
-737,298	-114,161	-0,354	-0,050
-736,283	-200,000	0,037	0,136
-735,269	-48,575	-0,312	0,110
-734,254	-120,478	0,098	-0,012
-733,239	30,494	-0,411	-0,258
-732,225	-54,320	0,171	-0,057
-731,210	-93,757	-0,089	0,018
-730,196	42,281	-0,131	-0,087
-729,181	-140,450	-0,187	-0,014
-728,167	160,470	-0,044	0,046
-727,152	-17,309	-0,089	0,041
-726,137	18,356	0,082	0,048
-725,123	355,011	0,006	-0,009
-724,108	-130,409	-0,206	0,020
-723,094	800,000	0,021	-0,058
-722,079	143,452	-0,014	0,013
-721,064	-200,000	-0,010	-0,078
-720,050	347,117	-0,052	-0,075
-719,035	717,615	0,035	-0,068
-718,021	-177,667	-0,139	0,002
-717,006	183,810	0,054	-0,059
-715,991	105,339	-0,158	-0,137
-714,977	-200,000	-0,048	-0,226
-713,962	-140,594	-0,055	0,004
-712,948	29,201	0,083	0,052
-711,933	-36,793	-0,061	0,024
-710,918	-200,000	-0,112	0,000
-709,904	-200,000	0,002	0,021
-708,889	433,660	-0,053	-0,085
-707,875	139,569	-0,071	-0,069
-706,860	297,804	0,079	0,107
-705,845	-141,088	-0,117	0,009
-704,831	-184,385	0,155	-0,002
-703,816	-200,000	-0,022	-0,077
-702,802	457,415	-0,080	0,131
-701,787	-39,628	0,054	0,021
-700,772	-200,000	-0,013	0,041
-699,758	800,000	0,049	0,125
-698,743	134,199	-0,054	-0,052
-697,729	-200,000	0,042	-0,148
-696,714	-102,632	-0,186	0,032
-695,699	-167,036	-0,013	-0,000
-694,685	137,670	-0,038	0,037
-693,670	-64,392	-0,074	0,022
-692,656	408,146	0,065	-0,101
-691,641	158,300	-0,060	0,061
-690,627	-181,836	-0,009	0,000
-689,612	127,862	-0,103	-0,097
-688,597	-200,000	0,018	-0,094
-687,583	49,064	-0,143	-0,099
-686,568	-200,000	0,022	-0,177
-685,554	68,646	-0,025	-0,019
-684,539	-200,000	0,005	-0,084
-683,524	568,563	0,052	0,092
-682,510	395,648	0,039	0,061
-681,495	-33,919	-0,021	-0,008
-680,481	61,581	-0,081	-0,059
-679,466	800,000	0,027	-0,086
-678,451	800,000	-0,052	0,152
-677,437	-13,144	-0,093	-0,044
-676,422	-46,726	0,204	-0,073
-675,408	-161,035	-0,061	0,002
-674,393	-73,016	-0,159	0,042
-673,378	-117,919	-0,058	-0,008
-672,364	-75,622	-0,031	0,008
-671,349	-178,983	-0,077	-0,001
-670,335	-200,000	-0,045	0,155
-669,320	291,150	0,027	-0,036
-668,305	-200,000	0,007	0,062
-667,291	-147,368	-0,089	-0,005
-666,276	153,179	-0,070	-0,070
-665,262	-25,360	-0,170	-0,074
-664,247	800,000	-0,041	-0,112
-663,232	6,490	-0,098	0,053
-662,218	800,000	0,036	0,099
-661,203	-200,000	-0,007	-0,054
-660,189	105,398	-0,120	0,104
-659,174	270,729	-0,066	-0,085
-658,159	-89,909	-0,111	-0,024
-657,145	-134,107	-0,050	0,004
-656,130	800,000	0,024	0,069
-655,116	-4,910	-0,092	0,046
-654,101	157,357	0,087	0,089
-653,086	-54,138	-0,171	0,057
-652,072	-200,000	0,003	-0,093
-651,057	-200,000	0,036	-0,124
-650,043	-3,738	-0,207	0,105
-649,028	393,327	0,107	-0,163
-648,014	800,000	0,036	0,100
-646,999	-114,526	0,145	-0,020
-645,984	-68,957	-0,073	-0,020
-644,970	-200,000	0,033	-0,141
-643,955	101,990	-0,109	-0,094
-642,941	17,505	-0,036	0,021
-641,926	800,000	0,084	0,184
-640,911	-200,000	0,007	-0,070
-639,897	800,000	-0,012	0,038
-638,882	139,684	-0,060	0,058
-637,868	800,000	-0,024	-0,052
-636,853	-200,000	0,016	-0,075
-635,838	-200,000	0,030	-0,143
-634,824	-200,000	0,024	0,186
-633,809	64,107	0,096	0,071
-632,795	406,225	0,048	-0,075
-631,780	222,511	0,076	0,090
-630,765	146,817	0,012	0,012
-629,751	63,024	-0,096	-0,070
-628,736	-70,551	0,074	-0,020
-627,722	-90,471	0,057	-0,012
-626,707	-100,929	0,083	-0,015
-625,692	-200,000	-0,008	0,069
-624,678	800,000	-0,048	0,112
-623,663	259,199	-0,049	0,062
-622,649	800,000	-0,069	0,167
-621,634	204,038	-0,067	0,076
-620,619	800,000	0,026	-0,057
-619,605	-200,000	0,014	0,127
-618,590	188,127	-0,050	0,054
-617,576	-31,949	0,039	0,016
-616,561	349,506	0,062	0,090
-615,546	-200,000	0,015	0,148
-614,532	47,452	-0,132	-0,090
-613,517	-200,000	0,000	-0,091
-612,503	394,077	-0,091	-0,140
-611,488	-44,741	0,041	-0,015
-610,474	-200,000	0,012	-0,082
-609,459	37,110	-0,084	-0,055
-608,444	337,525	-0,087	-0,124
-607,430	-200,000	-0,002	-0,033
-606,415	-70,209	-0,096	-0,027
-605,401	-200,000	-0,003	-0,086
-604,386	-200,000	0,030	0,166
-603,371	-14,889	-0,059	0,028
-602,357	-78,813	-0,051	-0,013
-601,342	-200,000	-0,032	-0,164
-600,328	68,996	-0,113	0,085
-599,313	58,202	0,015	-0,011
-598,298	-8,016	0,117	-0,058
-597,284	800,000	-0,021	0,064
-596,269	139,525	0,060	-0,058
-595,255	-200,000	-0,014	0,068
-594,240	316,609	-0,017	0,024
-593,225	-116,444	-0,084	-0,011
-592,211	-99,886	-0,028	-0,005
-591,196	33,644	0,046	-0,029
-590,182	258,909	-0,112	0,141
-589,167	178,504	-0,025	-0,027
-588,152	627,615	0,041	-0,077
-587,138	-200,000	0,013	-0,080
-586,123	11,099	-0,077	0,043
-585,109	-200,000	-0,002	-0,039
-584,094	-100,410	0,017	-0,003
-583,079	240,255	0,138	-0,169
-582,065	-200,000	-0,008	-0,064
-581,050	800,000	-0,049	-0,122
-580,036	-111,267	-0,038	-0,006
-579,021	-200,000	-0,020	0,073
-578,006	199,988	-0,023	0,026
-576,992	-47,712	0,077	0,027
-575,977	800,000	0,045	0,096
-574,963	-116,718	0,075	-0,010
-573,948	-90,178	0,119	-0,025
-572,934	-136,481	-0,107	0,009
-571,919	713,556	0,045	-0,088
-570,904	-200,000	0,006	-0,031
-569,890	-166,634	0,111	-0,003
-568,875	202,139	-0,051	-0,058
-567,861	-200,000	0,018	0,077
-566,846	303,399	-0,057	0,078
-565,831	800,000	-0,037	0,111
-564,817	800,000	0,030	0,082
-563,802	-129,043	-0,029	-0,003
-562,788	31,998	-0,114	0,072
-561,773	-44,847	-0,068	-0,025
-560,758	-68,817	0,064	-0,018
-559,744	578,083	0,068	0,123
-558,729	35,814	-0,042	-0,027
-557,715	212,613	-0,058	-0,067
-556,700	544,531	-0,073	-0,127
-555,685	-94,378	-0,136	-0,027
-554,671	151,877	0,073	0,073
-553,656	246,696	-0,065	0,080
-552,642	-32,961	0,083	-0,033
-551,627	49,493	0,106	-0,073
-550,612	42,015	0,077	-0,051
-549,598	-25,729	0,053	0,023
-548,583	189,749	0,112	0,123
-547,569	-16,959	-0,074	-0,034
-546,554	-200,000	0,001	0,031
-545,539	-200,000	-0,009	0,081
-544,525	-171,422	-0,096	0,002
-543,510	-200,000	-0,010	0,044
-542,496	-86,800	-0,144	-0,032
-541,481	72,247	0,028	-0,021
-540,466	17,951	0,066	0,038
-539,452	589,107	0,035	-0,064
-538,437	222,576	-0,050	0,059
-537,423	-200,000	0,046	-0,155
-536,408	-120,758	-0,135	-0,016
-535,393	-71,149	0,097	0,026
-534,379	-23,167	-0,133	-0,058
-533,364	-200,000	0,015	-0,091
-532,350	198,735	0,057	-0,063
-531,335	-165,761	0,170	0,005
-530,321	77,467	0,095	0,074
-529,306	156,575	-0,108	-0,109
-528,291	-67,948	-0,105	0,030
-527,277	-200,000	0,004	-0,162
-526,262	-153,252	0,142	-0,007
-525,248	50,243	0,046	0,032
-524,233	-200,000	-0,025	0,149
-523,218	310,849	0,052	0,071
-522,204	-23,857	0,110	-0,048
-521,189	102,608	-0,027	-0,023
-520,175	128,289	0,139	-0,129
-519,160	-147,446	-0,157	-0,010
-518,145	-200,000	0,020	0,069
-517,131	-66,718	-0,150	-0,043
-516,116	58,344	-0,079	0,056
-515,102	468,312	0,022	-0,036
-514,087	45,983	-0,114	-0,077
-513,072	145,681	-0,094	-0,092
-512,058	-200,000	-0,010	-0,061
-511,043	524,756	-0,015	0,027
-510,029	800,000	0,021	0,044
-509,014	321,413	0,016	-0,022
-507,999	-106,076	-0,034	0,006
-506,985	-66,017	0,080	-0,023
-505,970	95,389	-0,020	0,017
-504,956	262,082	0,070	-0,089
-503,941	280,742	-0,021	-0,027
-502,926	77,078	-0,080	-0,062
-501,912	252,632	0,110	-0,137
-500,897	800,000	0,026	-0,080
-499,883	800,000	0,040	0,121
-498,868	800,000	-0,021	0,056
-497,853	397,446	-0,071	-0,109
-496,839	544,971	-0,055	-0,096
-495,824	800,000	-0,031	0,066
-494,810	87,978	0,140	0,113
-493,795	34,292	-0,051	-0,033
-492,781	619,498	0,076	-0,140
-491,766	-156,017	-0,154	-0,007
-490,751	184,506	-0,060	-0,065
-489,737	235,836	-0,071	0,086
-488,722	13,889	-0,017	0,010
-487,708	102,055	0,131	0,112
-486,693	9,460	-0,089	0,049
-485,678	283,431	0,003	0,004
-484,664	-200,000	0,033	-0,108
-483,649	25,733	-0,177	-0,108
-482,635	-170,819	0,170	-0,004
-481,620	800,000	-0,021	0,066
-480,605	-200,000	-0,005	-0,053
-479,591	398,086	0,013	-0,020
-478,576	502,566	0,044	0,074
-477,562	216,370	-0,081	0,094
-476,547	-200,000	0,004	-0,123
-475,532	147,930	0,037	0,036
-474,518	-79,593	-0,115	-0,028
-473,503	297,039	-0,064	0,086
-472,489	131,416	-0,133	0,125
-471,474	38,452	-0,047	-0,031
-470,459	-30,374	-0,078	-0,032
-469,445	-88,296	-0,087	0,019
-468,430	117,910	-0,108	-0,097
-467,416	-9,741	0,077	-0,037
-466,401	70,934	0,057	-0,043
-465,386	-200,000	-0,035	0,140
-464,372	800,000	0,025	-0,052
-463,357	273,322	0,064	0,083
-462,343	44,266	-0,066	0,044
-461,328	159,111	-0,118	0,120
-460,313	-9,232	0,092	0,045
-459,299	72,439	0,060	0,045
-458,284	262,844	-0,030	0,038
-457,270	-200,000	-0,027	-0,093
-456,255	115,096	-0,036	-0,032
-455,241	312,251	-0,042	0,057
-454,226	-79,816	-0,107	-0,026
-453,211	-100,010	0,129	0,023
-452,197	800,000	-0,034	0,080
-451,182	231,804	0,087	-0,105
-450,168	800,000	0,039	-0,094
-449,153	73,619	-0,071	0,054
-448,138	-33,524	0,074	-0,030
-447,124	-195,778	-0,124	-0,001
-446,109	232,689	-0,018	-0,021
-445,095	498,560	-0,037	0,063
-444,080	-200,000	-0,002	0,117
-443,065	-200,000	-0,004	0,021
-442,051	50,707	0,054	-0,037
-441,036	-0,329	-0,053	-0,027
-440,022	-10,379	-0,028	-0,014
-439,007	-110,077	0,108	-0,016
-437,992	270,534	-0,094	0,121
-436,978	-184,246	0,094	0,001
-435,963	68,137	0,068	-0,050
-434,949	-200,000	-0,014	-0,074
-433,934	246,246	0,051	-0,062
-432,919	800,000	-0,064	-0,186
-431,905	59,102	-0,060	0,043
-430,890	-70,381	0,013	0,004
-429,876	-200,000	0,039	0,150
-428,861	-200,000	-0,015	0,088
-427,846	-11,325	0,117	0,056
-426,832	-112,905	-0,029	-0,004
-425,817	-116,054	-0,118	-0,016
-424,803	800,000	-0,031	0,082
-423,788	-58,753	0,083	0,026
-422,773	-200,000	0,002	0,093
-421,759	74,486	0,042	0,032
-420,744	83,718	0,105	-0,084
-419,730	58,165	0,030	0,021
-418,715	286,536	0,080	-0,106
-417,701	196,977	-0,079	0,087
-416,686	-200,000	-0,013	-0,051
-415,671	-200,000	0,040	0,172
-414,657	194,855	0,092	-0,102
-413,642	260,303	-0,051	0,064
-412,628	97,544	0,047	-0,039
-411,613	24,836	-0,078	-0,047
-410,598	95,419	0,050	0,041
-409,584	188,052	-0,040	-0,044
-408,569	-62,621	-0,125	0,037
-407,555	-200,000	0,010	-0,092
-406,540	-177,202	-0,032	0,001
-405,525	40,629	0,081	-0,053
-404,511	-102,842	-0,075	0,013
-403,496	-200,000	-0,023	-0,227
-402,482	12,969	0,034	0,019
-401,467	-148,493	-0,134	0,008
-400,452	-200,000	-0,027	0,135
-399,438	15,609	-0,029	-0,017
-398,423	-200,000	-0,007	-0,096
-397,409	-71,151	-0,099	-0,027
-396,394	518,488	-0,022	0,038
-395,379	-200,000	-0,012	0,046
-394,365	800,000	0,019	0,060
-393,350	54,046	-0,096	0,067
-392,336	-121,463	0,129	0,015
-391,321	-200,000	0,008	-0,066
-390,306	-200,000	0,005	-0,035
-389,292	14,899	0,044	-0,025
-388,277	-58,010	0,089	0,028
-387,263	19,633	0,008	0,005
-386,248	284,708	0,049	-0,065
-385,233	-192,356	0,122	0,001
-384,219	-78,877	0,028	-0,007
-383,204	800,000	0,064	-0,150
-382,190	-186,436	-0,041	-0,000
-381,175	62,159	-0,085	-0,061
-380,160	275,526	-0,083	-0,107
-379,146	-200,000	-0,021	0,147
-378,131	-200,000	-0,018	0,146
-377,117	68,377	-0,061	-0,046
-376,102	60,764	-0,155	-0,111
-375,088	-138,636	0,160	-0,013
-374,073	-200,000	0,028	0,206
-373,058	-47,681	0,071	0,025
-372,044	-183,450	0,165	-0,002
-371,029	-200,000	0,003	-0,011
-370,015	-200,000	0,024	-0,291
-369,000	-200,000	0,016	0,085
-367,985	344,678	-0,094	0,135
-366,971	-200,000	-0,019	0,155
-365,956	100,840	0,037	0,031
-364,942	95,095	0,066	-0,055
-363,927	29,574	-0,045	-0,028
-362,912	112,802	0,058	0,051
-361,898	687,456	-0,019	-0,036
-360,883	-24,274	-0,093	-0,040
-359,869	800,000	0,057	0,132
-358,854	-77,284	0,050	0,012
-357,839	-200,000	-0,001	-0,075
-356,825	84,764	0,025	0,020
-355,810	-200,000	-0,021	0,110
-354,796	800,000	0,023	-0,057
-353,781	-200,000	-0,004	-0,151
-352,766	134,060	-0,051	-0,048
-351,752	199,843	0,037	0,041
-350,737	476,266	-0,050	0,082
-349,723	-59,015	0,070	0,022
-348,708	-106,002	-0,028	0,005
-347,693	-94,797	-0,083	0,016
-346,679	18,589	-0,070	0,041
-345,664	-200,000	-0,017	-0,134
-344,650	800,000	-0,024	0,057
-343,635	-200,000	0,034	0,223
-342,620	-38,991	0,123	0,047
-341,606	386,284	0,033	-0,050
-340,591	-100,534	0,069	-0,012
-339,577	-200,000	0,002	-0,044
-338,562	188,875	0,035	0,038
-337,548	-34,707	0,082	-0,032
-336,533	147,235	0,094	0,092
-335,518	473,467	0,090	0,147
-334,504	800,000	-0,066	-0,141
-333,489	-47,779	-0,178	0,062
-332,475	662,466	-0,026	0,049
-331,460	-108,393	-0,082	-0,013
-330,445	800,000	-0,011	-0,026
-329,431	-50,754	0,061	0,021
-328,416	368,958	0,091	0,134
-327,402	-128,823	-0,103	0,010
-326,387	453,823	0,054	0,087
-325,372	-200,000	-0,004	0,073
-324,358	-200,000	0,012	0,056
-323,343	-200,000	0,007	0,049
-322,329	-7,786	0,096	-0,047
-321,314	-34,154	0,084	-0,033
-320,299	120,733	0,084	-0,076
-319,285	-200,000	0,000	0,002
-318,270	-3,603	0,079	0,040
-317,256	607,157	-0,093	0,169
-316,241	-200,000	-0,004	-0,077
-315,226	-82,609	0,156	-0,036
-314,212	-86,794	0,285	0,063
-313,197	-57,034	-0,099	0,032
-312,183	357,064	0,050	0,073
-311,168	-200,000	0,000	0,105
-310,153	-200,000	0,013	0,051
-309,139	-166,235	0,057	-0,002
-308,124	56,332	0,113	0,079
-307,110	137,213	-0,025	0,023
-306,095	137,207	0,046	-0,044
-305,080	94,048	-0,071	-0,058
-304,066	-200,000	-0,007	-0,060
-303,051	496,730	-0,088	-0,147
-302,037	102,934	-0,055	-0,047
-301,022	-200,000	-0,020	-0,114
-300,008	-200,000	-0,021	-0,087
-298,993	626,930	0,067	0,124
-297,978	329,479	-0,046	-0,065
-296,964	29,844	0,079	-0,049
-295,949	12,260	0,038	-0,021
-294,935	-3,323	0,098	0,049
-293,920	707,988	-0,057	-0,110
-292,905	800,000	-0,030	-0,062
-291,891	185,774	-0,005	-0,005
-290,876	-200,000	0,025	-0,124
-289,862	-22,825	0,047	-0,020
-288,847	800,000	-0,015	-0,048
-287,832	-200,000	0,001	-0,072
-286,818	461,431	0,036	-0,059
-285,803	-113,158	-0,185	0,026
-284,789	-200,000	-0,025	0,103
-283,774	309,184	-0,038	-0,052
-282,759	343,723	-0,099	-0,140
-281,745	800,000	-0,012	0,026
-280,730	-200,000	0,001	-0,068
-279,716	-200,000	-0,006	0,127
-278,701	-107,566	0,084	0,013
-277,686	31,246	0,083	0,051
-276,672	4,491	0,121	-0,064
-275,657	-200,000	-0,026	0,082
-274,643	547,044	-0,033	-0,058
-273,628	-200,000	-0,001	-0,097
-272,613	-13,760	0,080	-0,037
-271,599	393,081	-0,029	0,044
-270,584	306,578	-0,050	-0,067
-269,570	183,724	0,028	-0,030
-268,555	68,083	0,041	-0,030
-267,540	-85,196	0,044	-0,010
-266,526	87,937	-0,075	-0,060
-265,511	7,150	0,083	-0,044
-264,497	-200,000	0,001	-0,050
-263,482	-72,411	0,092	0,024
-262,467	624,681	0,024	0,045
-261,453	460,755	0,045	0,073
-260,438	800,000	-0,032	-0,097
-259,424	-180,177	-0,098	-0,001
-258,409	-79,787	0,097	-0,023
-257,395	38,921	-0,214	0,138
-256,380	183,921	0,146	0,156
-255,365	393,664	0,051	0,076
-254,351	-24,211	0,045	0,019
-253,336	139,892	-0,063	0,060
-252,322	-200,000	-0,007	0,055
-251,307	145,944	-0,012	-0,012
-250,292	212,143	0,101	-0,116
-249,278	106,107	0,035	0,030
-248,263	262,875	0,058	-0,072
-247,249	-163,171	-0,014	-0,000
-246,234	-200,000	-0,028	0,092
-245,219	100,543	-0,093	-0,078
-244,205	-107,559	-0,082	0,013
-243,190	-200,000	0,019	0,098
-242,176	-91,912	-0,099	-0,020
-241,161	-3,771	0,035	-0,017
-240,146	-12,619	-0,049	-0,023
-239,132	-77,842	-0,110	-0,027
-238,117	53,222	-0,054	0,037
-237,103	-200,000	0,001	-0,134
-236,088	-108,480	0,116	0,018
-235,073	-200,000	-0,014	0,090
-234,059	751,228	0,010	-0,019
-233,044	127,422	-0,070	0,064
-232,030	-115,487	0,061	0,008
-231,015	800,000	0,037	0,109
-230,000	-68,080	-0,111	0,031
-228,986	-73,038	0,074	0,019
-227,971	-165,557	0,064	0,002
-226,957	65,288	-0,062	-0,046
-225,942	-45,903	0,056	0,020
-224,927	-200,000	-0,011	0,095
-223,913	-200,000	0,011	-0,057
-222,898	70,753	-0,030	0,022
-221,884	219,395	0,082	0,095
-220,869	-200,000	-0,002	0,026
-219,855	164,344	-0,089	0,091
-218,840	-138,475	-0,028	0,002
-217,825	406,875	-0,074	-0,112
-216,811	195,047	0,062	-0,068
-215,796	-200,000	-0,018	-0,112
-214,782	-200,000	0,009	-0,065
-213,767	-58,093	-0,184	0,058
-212,752	315,800	0,080	-0,109
-211,738	134,429	0,060	0,056
-210,723	-200,000	0,014	0,048
-209,709	800,000	-0,030	0,063
-208,694	-200,000	-0,033	-0,117
-207,679	-52,364	0,096	-0,032
-206,665	800,000	-0,031	0,065
-205,650	800,000	-0,043	0,107
-204,636	720,584	-0,017	0,033
-203,621	800,000	0,045	0,143
-202,606	-200,000	0,002	-0,111
-201,592	52,313	-0,066	-0,045
-200,577	800,000	0,058	-0,144
-199,563	-70,705	0,055	-0,015
-198,548	24,148	-0,026	0,016
-197,533	-113,794	0,128	0,018
-196,519	63,561	-0,039	0,028
-195,504	179,231	-0,018	-0,020
-194,490	264,515	-0,071	0,089
-193,475	-200,000	0,011	-0,049
-192,460	-200,000	-0,026	0,261
-191,446	99,448	-0,039	-0,032
-190,431	-200,000	0,003	0,016
-189,417	-87,974	0,041	-0,009
-188,402	-200,000	0,025	0,114
-187,387	800,000	-0,027	0,077
-186,373	55,630	0,103	0,072
-185,358	-27,941	-0,022	0,009
-184,344	-12,549	0,081	-0,038
-183,329	270,415	0,056	0,071
-182,315	-200,000	0,021	0,107
-181,300	62,847	-0,105	0,076
-180,285	91,043	-0,053	-0,043
-179,271	-200,000	-0,016	-0,117
-178,256	57,469	-0,214	-0,150
-177,242	800,000	0,048	0,098
-176,227	-200,000	0,030	0,131
-175,212	316,118	0,038	-0,052
-174,198	-47,728	-0,024	0,008
-173,183	-200,000	-0,049	-0,201
-172,169	-200,000	0,011	0,057
-171,154	-84,650	0,044	-0,010
-170,139	-106,813	-0,053	0,008
-169,125	-113,237	0,141	-0,020
-168,110	322,870	-0,024	0,033
-167,096	41,031	0,017	-0,011
-166,081	-4,873	-0,071	-0,035
-165,066	800,000	-0,063	-0,140
-164,052	-200,000	0,017	-0,107
-163,037	-135,351	0,156	-0,013
-162,023	682,670	-0,054	-0,103
-161,008	-200,000	-0,028	-0,103
-159,993	-200,000	0,005	-0,018
-158,979	11,551	-0,072	-0,040
-157,964	-46,578	0,037	-0,013
-156,950	683,906	0,005	0,010
-155,935	329,011	-0,044	0,061
-154,920	-38,868	0,066	-0,025
-153,906	674,865	0,077	0,145
-152,891	-32,038	-0,037	0,015
-151,877	222,031	0,056	0,065
-150,862	-161,115	-0,169	-0,006
-149,847	-200,000	-0,009	0,121
-148,833	-200,000	-0,008	-0,082
-147,818	-200,000	0,004	0,042
-146,804	800,000	0,082	0,238
-145,789	-47,447	-0,146	0,051
-144,775	31,882	0,043	-0,026
-143,760	348,225	0,027	-0,038
-142,745	-200,000	0,010	-0,055
-141,731	-200,000	-0,005	-0,032
-140,716	800,000	-0,039	0,093
-139,702	129,167	-0,021	-0,019
-138,687	-200,000	0,012	0,071
-137,672	800,000	0,032	0,073
-136,658	-200,000	0,033	-0,181
-135,643	-157,440	-0,131	-0,006
-134,629	270,169	0,010	-0,012
-133,614	215,091	-0,133	0,152
-132,599	272,277	-0,064	0,082
-131,585	44,704	-0,054	0,036
-130,570	800,000	0,015	-0,037
-129,556	800,000	0,012	-0,025
-128,541	-28,804	-0,116	-0,048
-127,526	-78,340	0,126	-0,031
-126,512	800,000	-0,047	0,133
-125,497	344,039	0,059	0,083
-124,483	-200,000	-0,007	0,030
-123,468	-1,983	-0,072	-0,036
-122,453	1,773	-0,079	0,041
-121,439	240,460	0,045	-0,054
-120,424	800,000	-0,035	-0,081
-119,410	-200,000	-0,011	-0,093
-118,395	800,000	-0,043	0,132
-117,380	-93,265	-0,168	-0,033
-116,366	-200,000	0,026	-0,100
-115,351	-153,309	-0,036	0,002
-114,337	-200,000	-0,004	0,067
-113,322	-200,000	0,028	-0,108
-112,307	-200,000	-0,007	0,036
-111,293	-34,472	0,140	-0,055
-110,278	-59,904	-0,159	-0,049
-109,264	-200,000	-0,004	-0,086
-108,249	157,669	0,027	-0,026
-107,234	0,638	-0,044	-0,022
-106,220	-8,572	-0,028	0,013
-105,205	31,797	-0,110	0,068
-104,191	39,962	-0,056	-0,036
-103,176	-32,757	-0,060	0,024
-102,162	117,243	-0,060	0,053
-101,147	199,464	0,030	-0,033
-100,132	499,642	-0,032	-0,052
-99,118	304,671	-0,047	-0,062
-98,103	-22,611	0,060	-0,026
-97,089	-173,631	0,116	0,002
-96,074	324,375	0,027	0,037
-95,059	23,554	0,095	0,056
-94,045	23,313	0,101	0,059
-93,030	-132,401	-0,051	-0,005
-92,016	-200,000	-0,008	-0,123
-91,001	800,000	-0,028	-0,071
-89,986	-200,000	0,002	-0,035
-88,972	-200,000	0,009	0,063
-87,957	-200,000	0,019	-0,082
-86,943	800,000	0,014	0,037
-85,928	748,388	-0,085	-0,166
-84,913	368,792	-0,043	-0,063
-83,899	183,665	0,112	-0,119
-82,884	-79,779	-0,008	-0,002
-81,870	-64,588	0,063	-0,018
-80,855	800,000	-0,010	0,031
-79,840	-200,000	-0,001	-0,023
-78,826	800,000	-0,023	0,069
-77,811	142,755	-0,100	-0,096
-76,797	655,327	0,094	0,174
-75,782	-84,038	-0,170	0,038
-74,767	-200,000	0,001	0,007
-73,753	-19,581	-0,040	-0,018
-72,738	-122,057	0,064	0,008
-71,724	148,850	-0,083	-0,080
-70,709	-16,828	-0,170	-0,077
-69,694	-15,280	-0,064	0,029
-68,680	-15,278	0,170	0,078
-67,665	307,230	0,084	0,112
-66,651	164,051	-0,091	0,092
-65,636	-101,509	-0,032	0,006
-64,622	-9,769	-0,074	0,035
-63,607	344,360	-0,055	-0,077
-62,592	380,782	0,050	-0,074
-61,578	-200,000	0,004	0,027
-60,563	-21,303	0,019	0,008
-59,549	-80,080	-0,039	0,009
-58,534	28,554	-2,345	-1,419
-57,519	-200,000	0,043	-0,662
-56,505	-200,000	-1,382	-5,151
-55,490	158,654	0,919	0,916
-54,476	800,000	5,309	12,081
-53,461	-200,000	19,866	323,349
-52,446	800,000	752,954	2314,373
-51,432	535,596	1664,984	2843,376
-50,417	115,879	1641,161	1439,950
-49,403	84,215	1288,463	1008,960
-48,388	31,400	1028,359	632,011
-47,373	19,752	991,384	570,815
-46,359	16,219	979,261	552,202
-45,344	12,791	975,941	539,046
-44,330	13,282	974,003	539,564
-43,315	12,372	972,122	535,517
-42,300	12,327	971,025	534,745
-41,286	12,351	970,132	534,312
-40,271	12,331	969,114	533,664
-39,257	12,329	968,269	533,171
-38,242	12,357	967,434	532,780
-37,227	12,319	966,645	532,200
-36,213	12,374	965,443	531,699
-35,198	12,339	964,656	531,131
-34,184	12,356	964,018	530,813
-33,169	12,295	963,248	530,170
-32,154	12,373	962,105	529,774
-31,140	12,334	961,322	529,194
-30,125	12,442	960,342	528,982
-29,111	12,370	959,612	528,328
-28,096	12,400	958,922	528,023
-27,082	12,351	958,277	527,490
-26,067	12,378	957,552	527,156
-25,052	12,425	956,697	526,814
-24,038	12,387	956,233	526,415
-23,023	12,353	955,393	525,823
-22,009	12,403	954,761	525,617
-20,994	12,357	954,455	525,277
-19,979	12,366	953,792	524,923
-18,965	12,371	953,033	524,500
-17,950	12,368	952,534	524,195
-16,936	12,374	951,531	523,640
-15,921	12,346	950,998	523,237
-14,906	12,211	950,420	522,467
-13,892	12,215	949,849	522,145
-12,877	12,254	949,170	521,875
-11,863	12,146	948,655	521,225
-10,848	12,235	947,902	521,076
-9,833	12,327	947,489	521,123
-8,819	12,285	946,803	520,589
-7,804	12,265	945,954	520,039
-6,790	12,226	945,473	519,628
-5,775	12,264	944,945	519,438
-4,760	12,288	944,299	519,140
-3,746	12,237	943,775	518,669
-2,731	12,098	943,152	517,864
-1,717	12,092	942,327	517,373
-0,702	12,122	941,625	517,060
0,313	11,900	941,101	516,849
1,327	15,521	938,485	526,814
2,342	24,803	791,518	468,866
3,356	20,430	456,887	263,949
4,371	-7,556	315,794	152,497
5,386	-11,778	297,867	139,526
6,400	-13,909	291,902	134,591
7,415	-13,889	289,436	133,461
8,429	-14,028	287,748	132,534
9,444	-14,166	286,936	132,013
10,459	-14,095	286,393	131,821
11,473	-13,993	285,715	131,597
12,488	-13,875	285,194	131,461
13,502	-13,963	284,583	131,081
14,517	-13,925	284,477	131,058
15,531	-13,563	283,995	131,175
16,546	-13,369	283,722	131,227
17,561	-13,482	283,298	130,909
18,575	-13,320	282,961	130,899
19,590	-13,462	282,583	130,575
20,604	-13,290	282,236	130,569
21,619	-13,604	281,989	130,140
22,634	-13,435	281,584	130,105
23,648	-13,472	281,249	129,903
24,663	-13,459	281,000	129,788
25,677	-13,394	280,710	129,705
26,692	-13,467	280,452	129,504
27,707	-13,351	280,093	129,438
28,721	-13,418	279,907	129,276
29,736	-13,287	279,627	129,261
30,750	-13,422	279,274	128,957
31,765	-13,373	279,104	128,914
32,780	-13,493	278,856	128,674
33,794	-13,486	278,650	128,574
34,809	-13,359	278,390	128,563
35,823	-13,458	278,087	128,318
36,838	-13,463	277,790	128,164
37,853	-13,554	277,520	127,942
38,867	-13,363	277,233	127,979
39,882	-13,565	277,082	127,707
40,896	-13,501	276,775	127,615
41,911	-13,349	276,392	127,571
42,926	-13,484	276,138	127,315
43,940	-13,437	275,990	127,279
44,955	-13,389	275,558	127,114
45,969	-13,211	275,409	127,201
46,984	-13,591	275,470	126,860
47,999	-13,386	275,142	126,891
49,013	-13,430	274,944	126,747
50,028	-13,521	274,751	126,562
51,042	-13,310	274,400	126,586
52,057	-13,424	274,103	126,331
53,071	-13,427	274,008	126,273
54,086	-13,429	273,595	126,070
55,101	-13,440	273,357	125,938
56,115	-13,431	273,231	125,878
57,130	-13,515	273,105	125,730
58,144	-13,582	272,761	125,498
59,159	-13,363	272,492	125,567
60,174	-13,682	272,372	125,204
61,188	-13,595	272,104	125,150
62,203	-13,570	271,967	125,099
63,217	-13,399	271,717	125,131
64,232	-13,418	271,452	124,981
65,247	-13,550	271,083	124,678
66,261	-13,491	270,908	124,641
67,276	-13,564	270,771	124,499
68,290	-13,446	270,457	124,452
69,305	-13,622	270,295	124,204
70,320	-13,437	270,031	124,242
71,334	-13,356	269,774	124,188
72,349	-13,548	269,527	123,887
73,363	-13,553	269,301	123,767
74,378	-13,562	269,040	123,628
75,393	-13,554	268,941	123,579
76,407	-13,534	268,720	123,484
77,422	-13,265	268,390	123,567
78,436	-13,480	268,251	123,296
79,451	-13,270	267,915	123,322
80,466	-13,456	267,836	123,105
81,480	-13,487	267,612	122,963
82,495	-13,449	267,354	122,868
83,509	-13,405	267,117	122,788
84,524	-13,453	266,998	122,679
85,539	-13,290	266,753	122,703
86,553	-13,470	266,512	122,418
87,568	-13,504	266,404	122,327
88,582	-13,345	266,046	122,296
89,597	-13,498	265,893	122,076
90,611	-13,560	265,899	122,012
91,626	-13,509	265,525	121,876
92,641	-13,466	265,322	121,810
93,655	-13,374	265,087	121,775
94,670	-13,512	264,976	121,588
95,684	-13,387	264,771	121,596
96,699	-13,455	264,423	121,364
97,714	-13,409	264,296	121,336
98,728	-13,514	263,961	121,078
99,743	-13,258	263,867	121,253
100,757	-13,272	263,604	121,108
101,772	-13,442	263,480	120,889
102,787	-13,510	263,250	120,711
103,801	-13,618	263,000	120,490
104,816	-13,528	262,865	120,497
105,830	-13,402	262,781	120,561
106,845	-13,629	262,349	120,150
107,860	-13,388	262,171	120,272
108,874	-13,421	262,007	120,156
109,889	-13,543	261,792	119,939
110,903	-13,646	261,584	119,741
111,918	-13,717	261,410	119,588
112,933	-13,699	261,328	119,556
113,947	-13,401	261,020	119,668
114,962	-13,458	260,794	119,504
115,976	-13,360	260,661	119,519
116,991	-13,667	260,543	119,183
118,006	-13,595	260,375	119,159
119,020	-13,562	260,144	119,072
120,035	-13,423	259,917	119,080
121,049	-13,561	259,811	118,898
122,064	-13,550	259,489	118,751
123,079	-13,553	259,308	118,654
124,093	-13,468	259,152	118,647
125,108	-13,612	258,978	118,431
126,122	-13,399	258,731	118,494
127,137	-13,394	258,546	118,402
128,151	-13,495	258,440	118,255
129,166	-13,358	257,974	118,151
130,181	-13,277	257,835	118,148
131,195	-13,516	257,702	117,867
132,210	-13,554	257,486	117,725
133,224	-13,657	257,435	117,601
134,239	-13,540	257,085	117,533
135,254	-13,557	256,766	117,362
136,268	-13,584	256,657	117,278
137,283	-13,453	256,471	117,297
138,297	-13,527	256,341	117,163
139,312	-13,740	256,141	116,876
140,327	-13,490	255,891	116,968
141,341	-13,449	255,854	116,976
142,356	-13,608	255,590	116,707
143,370	-13,692	255,397	116,537
144,385	-13,317	255,225	116,771
145,400	-13,271	254,994	116,695
146,414	-13,391	254,741	116,465
147,429	-13,545	254,748	116,325
148,443	-13,327	254,458	116,370
149,458	-13,507	254,351	116,156
150,473	-13,385	253,953	116,069
151,487	-13,506	253,882	115,922
152,502	-13,402	253,705	115,920
153,516	-13,575	253,670	115,745
154,531	-13,375	253,378	115,773
155,546	-13,580	253,152	115,484
156,560	-13,625	253,014	115,373
157,575	-13,397	252,672	115,401
158,589	-13,602	252,450	115,114
159,604	-13,596	252,302	115,042
160,619	-13,487	252,248	115,099
161,633	-13,314	252,034	115,139
162,648	-13,335	251,905	115,052
163,662	-13,340	251,596	114,896
164,677	-13,543	251,501	114,670
165,692	-13,340	251,263	114,724
166,706	-13,228	251,160	114,762
167,721	-13,298	251,030	114,633
168,735	-13,375	250,863	114,481
169,750	-13,498	250,815	114,345
170,764	-13,387	250,526	114,296
171,779	-13,457	250,330	114,137
172,794	-13,355	250,083	114,101
173,808	-13,404	250,005	114,014
174,823	-13,564	249,857	113,801
175,837	-13,470	249,713	113,805
176,852	-13,400	249,420	113,720
177,867	-13,548	249,375	113,565
178,881	-13,475	249,117	113,499
179,896	-13,381	248,861	113,451
180,910	-13,380	248,763	113,397
181,925	-13,536	248,640	113,200
182,940	-13,419	248,383	113,171
183,954	-13,604	248,203	112,923
184,969	-13,439	248,022	112,969
185,983	-13,325	247,973	113,032
186,998	-13,182	247,774	113,050
188,013	-13,297	247,429	112,787
189,027	-13,236	247,353	112,794
190,042	-13,486	247,107	112,463
191,056	-13,529	246,958	112,349
192,071	-13,677	246,782	112,136
193,086	-13,605	246,426	112,024
194,100	-13,571	246,314	111,992
195,115	-13,432	246,246	112,066
196,129	-13,523	246,131	111,928
197,144	-13,345	245,711	111,874
198,159	-13,685	245,611	111,538
199,173	-13,653	245,463	111,488
200,188	-13,744	245,096	111,236
201,202	-13,830	245,011	111,116
202,217	-13,531	244,911	111,307
203,232	-13,484	244,773	111,273
204,246	-14,085	244,422	110,609
205,261	-14,731	243,802	109,789
206,275	-14,734	243,812	109,782
207,290	-10,724	245,395	113,794
208,304	-3,467	247,745	120,907
209,319	0,513	248,901	124,774
210,334	1,760	249,237	125,970
211,348	2,438	249,237	126,522
212,363	2,568	249,103	126,551
213,377	2,967	249,236	126,938
214,392	3,495	249,135	127,314
215,407	3,580	248,978	127,294
216,421	3,405	248,822	127,057
217,436	3,565	248,704	127,118
218,450	3,527	248,424	126,932
219,465	3,426	248,229	126,737
220,480	3,208	247,999	126,429
221,494	3,234	247,836	126,356
222,509	2,743	247,528	125,783
223,523	2,400	247,312	125,380
224,538	2,257	247,137	125,161
225,553	2,042	246,920	124,864
226,567	2,197	246,632	124,834
227,582	2,220	246,569	124,810
228,596	2,354	246,287	124,766
229,611	2,092	246,204	124,498
230,626	2,112	246,041	124,421
231,640	2,028	245,915	124,278
232,655	2,134	245,691	124,239
233,669	2,109	245,532	124,128
234,684	1,947	245,441	123,938
235,699	2,350	245,314	124,192
236,713	2,263	245,205	124,056
237,728	2,199	244,930	123,853
238,742	2,148	244,833	123,751
239,757	2,235	244,602	123,694
240,772	2,251	244,531	123,660
241,786	2,281	244,243	123,528
242,801	2,275	244,052	123,415
243,815	2,298	243,778	123,284
244,830	2,310	243,830	123,310
245,844	2,390	243,532	123,213
246,859	2,268	243,340	123,006
247,874	2,447	243,186	123,062
248,888	2,254	243,254	122,929
249,903	2,398	243,027	122,920
250,917	2,415	242,846	122,831
251,932	2,623	242,753	122,941
252,947	2,348	242,601	122,631
253,961	2,416	242,315	122,530
254,976	2,433	242,176	122,463
255,990	2,408	242,074	122,381
257,005	2,459	241,827	122,286
258,020	2,327	241,879	122,195
259,034	2,166	241,625	121,926
260,049	2,188	241,486	121,863
261,063	2,315	241,501	121,962
262,078	2,177	241,276	121,726
263,093	2,202	240,974	121,583
264,107	2,224	240,818	121,512
265,122	2,222	240,748	121,463
266,136	2,292	240,546	121,407
267,151	2,435	240,260	121,365
268,166	2,447	240,214	121,341
269,180	2,275	239,939	121,054
270,195	2,261	239,842	120,983
271,209	2,321	239,688	120,942
272,224	2,170	239,516	120,725
273,239	2,133	239,424	120,639
274,253	2,314	239,214	120,666
275,268	2,385	239,039	120,623
276,282	2,121	238,913	120,339
277,297	2,039	238,711	120,161
278,312	2,431	238,528	120,369
279,326	2,272	238,558	120,248
280,341	2,398	238,264	120,188
281,355	2,225	238,148	119,982
282,370	2,451	238,022	120,087
283,384	2,345	237,903	119,932
284,399	2,527	237,701	119,963
285,414	2,290	237,636	119,733
286,428	2,056	237,657	119,549
287,443	2,431	237,360	119,683
288,457	2,292	237,138	119,452
289,472	2,432	236,997	119,480
290,487	2,407	236,902	119,402
291,501	2,363	236,614	119,211
292,516	2,307	236,355	119,027
293,530	2,282	236,369	119,003
294,545	2,281	236,154	118,884
295,560	2,380	236,014	118,880
296,574	2,067	236,043	118,639
297,589	2,236	235,804	118,641
298,603	2,477	235,580	118,705
299,618	2,449	235,305	118,534
300,633	2,330	235,454	118,506
301,647	2,264	235,313	118,373
302,662	2,544	235,182	118,515
303,676	2,417	234,867	118,247
304,691	2,456	234,835	118,250
305,706	2,668	234,514	118,243
306,720	2,723	234,518	118,277
307,735	2,463	234,351	117,981
308,749	2,439	234,190	117,870
309,764	2,149	233,984	117,531
310,779	2,566	233,772	117,737
311,793	2,435	233,586	117,532
312,808	2,469	233,549	117,529
313,822	2,607	233,335	117,518
314,837	2,433	233,287	117,348
315,852	2,449	233,170	117,291
316,866	2,483	233,132	117,288
317,881	2,632	232,860	117,256
318,895	2,606	232,563	117,075
319,910	2,607	232,422	116,995
320,925	2,578	232,390	116,945
321,939	2,211	232,204	116,560
322,954	2,210	232,033	116,463
323,968	2,286	231,915	116,452
324,983	2,549	231,687	116,528
325,997	2,430	231,803	116,485
327,012	2,467	231,417	116,309
328,027	2,407	231,365	116,227
329,041	2,515	231,066	116,149
330,056	2,518	231,028	116,121
331,070	2,413	231,059	116,047
332,085	2,537	230,707	115,953
333,100	2,244	230,568	115,651
334,114	2,512	230,401	115,760
335,129	2,461	230,169	115,595
336,143	2,468	229,996	115,503
337,158	2,600	229,962	115,576
338,173	2,558	229,789	115,447
339,187	2,682	229,647	115,459
340,202	2,581	229,517	115,307
341,216	2,316	229,411	115,043
342,231	2,412	229,241	115,020
343,246	2,346	229,128	114,903
344,260	2,367	228,918	114,803
345,275	2,412	228,870	114,802
346,289	2,561	228,637	114,788
347,304	2,466	228,583	114,679
348,319	2,461	228,290	114,518
349,333	2,395	228,188	114,407
350,348	2,251	228,196	114,293
351,362	2,600	227,970	114,431
352,377	2,773	227,694	114,413
353,392	2,429	227,714	114,154
354,406	2,334	227,440	113,935
355,421	195,063	1315,642	1389,398
356,435	156,413	1448,160	1389,329
