DTS Sentinel unit serial number:	SN410029Multiplexer serial number:	ORYXHardware model number:	OX2-SRSoftware version number:	ORYX F/W v4,00 Oryx Data Collector v3.7.2.0data status	okinstallation	B5 Nyhavnadifferential loss correction	single-endedforward channel	channel 2reverse channel	N/Adate	2023/12/12time	11:17:14forward acquisition time	300,00reverse acquisition time	0,00gamma	499,1914k internal	0,3158k external	0,3158temperature offset calibration	1,0000default loss term (dB/km)	0,3820temperature slope calibration	1,0000multiplexer offset coefficient	1,0000multiplexer slope coefficient	1,0000fibre end	0,00T internal ref (°C)	15,05T ext. ref 1 (°C)	-1,15T ext. ref 2 (°C)	-1,37length (m)	temperature (°C)	Stokes	anti-Stokes-744,400	25,362	0,065	-0,040
-743,385	-147,098	-0,269	0,017
-742,371	-200,000	-0,013	0,166
-741,356	-103,186	-0,265	0,046
-740,342	16,926	0,065	0,038
-739,327	-112,797	-0,365	-0,053
-738,312	-16,923	0,092	-0,043
-737,298	-149,451	-0,444	-0,026
-736,283	-147,269	0,256	0,016
-735,269	-151,488	-0,385	0,021
-734,254	56,211	0,093	0,066
-733,239	-89,314	-0,523	-0,113
-732,225	-153,170	0,112	-0,006
-731,210	93,589	0,051	0,042
-730,196	-106,066	0,083	-0,014
-729,181	-44,269	-0,058	0,021
-728,167	544,600	-0,015	-0,027
-727,152	170,792	-0,054	0,057
-726,137	-200,000	0,033	-0,158
-725,123	-131,546	-0,069	-0,007
-724,108	-200,000	0,000	-0,083
-723,094	39,218	-0,096	0,063
-722,079	113,675	-0,175	-0,157
-721,064	800,000	-0,016	-0,036
-720,050	800,000	-0,011	0,026
-719,035	500,988	0,060	0,103
-718,021	-129,801	0,034	-0,003
-717,006	800,000	-0,043	-0,109
-715,991	-200,000	-0,018	-0,075
-714,977	-39,409	-0,037	-0,014
-713,962	373,311	-0,047	-0,070
-712,948	-44,796	0,139	0,051
-711,933	-149,306	0,044	0,003
-710,918	64,450	0,131	-0,097
-709,904	-52,394	-0,127	0,043
-708,889	800,000	-0,006	0,014
-707,875	800,000	0,050	-0,131
-706,860	-200,000	0,036	-0,145
-705,845	-90,893	0,047	-0,010
-704,831	-200,000	-0,034	0,127
-703,816	-113,023	0,094	0,014
-702,802	-200,000	-0,224	0,001
-701,787	269,133	-0,079	0,102
-700,772	479,179	-0,030	-0,050
-699,758	472,604	0,045	-0,074
-698,743	-159,211	0,057	0,002
-697,729	63,495	0,022	-0,016
-696,714	-36,085	-0,107	-0,042
-695,699	-68,233	-0,024	0,007
-694,685	-126,062	-0,176	-0,019
-693,670	380,364	-0,007	-0,011
-692,656	382,546	0,056	0,084
-691,641	800,000	0,073	0,168
-690,627	-84,639	-0,022	0,005
-689,612	-200,000	0,016	-0,093
-688,597	625,585	-0,022	0,041
-687,583	133,256	-0,065	-0,062
-686,568	190,116	-0,096	-0,106
-685,554	-85,719	-0,068	-0,016
-684,539	491,671	0,054	0,092
-683,524	-200,000	-0,036	-0,144
-682,510	-84,236	-0,131	-0,030
-681,495	800,000	0,032	-0,093
-680,481	18,430	-0,101	-0,059
-679,466	800,000	-0,038	-0,092
-678,451	-200,000	-0,034	-0,203
-677,437	-131,525	0,092	-0,009
-676,422	279,739	-0,078	0,103
-675,408	-200,000	-0,029	-0,107
-674,393	-200,000	-0,003	-0,056
-673,378	800,000	0,017	-0,045
-672,364	-64,859	-0,190	0,056
-671,349	-200,000	0,006	0,096
-670,335	160,771	0,076	0,078
-669,320	-13,709	-0,102	0,048
-668,305	111,856	0,034	-0,030
-667,291	38,632	-0,096	-0,063
-666,276	-200,000	0,023	-0,102
-665,262	705,480	-0,056	-0,109
-664,247	-52,401	-0,051	-0,017
-663,232	-155,147	-0,038	0,002
-662,218	311,388	0,074	-0,102
-661,203	-200,000	0,003	0,017
-660,189	55,408	-0,100	0,071
-659,174	-200,000	-0,012	-0,097
-658,159	106,689	-0,084	-0,073
-657,145	148,556	0,007	0,007
-656,130	-17,600	0,034	0,016
-655,116	-145,553	-0,146	-0,009
-654,101	-200,000	-0,005	-0,046
-653,086	-190,342	-0,146	-0,001
-652,072	183,691	-0,098	0,106
-651,057	-200,000	-0,016	-0,112
-650,043	-200,000	-0,038	-0,129
-649,028	-200,000	0,024	-0,113
-648,014	800,000	-0,031	-0,083
-646,999	37,366	-0,091	0,059
-645,984	-200,000	-0,017	0,095
-644,970	-200,000	0,010	-0,067
-643,955	-95,670	-0,125	0,024
-642,941	445,370	-0,056	-0,091
-641,926	723,240	-0,020	0,039
-640,911	-5,875	0,068	0,034
-639,897	-77,099	0,012	0,003
-638,882	-200,000	-0,005	0,037
-637,868	-52,021	-0,045	0,015
-636,853	800,000	0,037	0,118
-635,838	-200,000	0,001	-0,060
-634,824	134,850	-0,034	0,033
-633,809	-90,569	0,081	0,017
-632,795	116,672	0,107	0,096
-631,780	65,051	0,077	-0,057
-630,765	-194,367	-0,029	-0,000
-629,751	320,463	0,065	-0,091
-628,736	-200,000	0,030	-0,098
-627,722	203,632	0,068	-0,078
-626,707	-1,686	0,047	-0,024
-625,692	13,785	0,030	0,017
-624,678	-4,224	0,063	-0,032
-623,663	-200,000	0,011	0,072
-622,649	800,000	0,020	-0,045
-621,634	-102,078	-0,090	0,016
-620,619	-31,177	-0,024	0,010
-619,605	271,905	0,060	-0,077
-618,590	-200,000	0,007	-0,117
-617,576	97,900	-0,033	0,028
-616,561	-200,000	-0,003	-0,043
-615,546	367,612	0,033	-0,049
-614,532	800,000	-0,041	0,106
-613,517	-66,185	-0,108	0,031
-612,503	-200,000	0,005	0,064
-611,488	-200,000	-0,019	0,069
-610,474	-134,237	0,077	-0,007
-609,459	-200,000	-0,013	-0,047
-608,444	535,647	-0,029	-0,050
-607,430	-79,307	-0,094	0,023
-606,415	-37,217	-0,049	0,019
-605,401	-195,999	0,074	-0,000
-604,386	192,912	0,109	-0,121
-603,371	42,688	0,038	0,025
-602,357	-200,000	0,021	0,082
-601,342	800,000	-0,024	-0,067
-600,328	262,357	0,013	-0,017
-599,313	800,000	-0,023	-0,075
-598,298	694,427	0,031	0,059
-597,284	72,465	0,024	0,018
-596,269	5,099	0,043	-0,023
-595,255	-200,000	0,007	0,063
-594,240	231,679	-0,042	0,051
-593,225	412,212	0,104	0,163
-592,211	-200,000	-0,019	-0,108
-591,196	-200,000	-0,000	-0,096
-590,182	-155,033	0,140	0,007
-589,167	-31,389	0,054	0,022
-588,152	-68,634	0,057	-0,016
-587,138	-26,536	-0,084	0,036
-586,123	-200,000	0,016	0,109
-585,109	-200,000	-0,007	-0,043
-584,094	125,056	-0,128	0,118
-583,079	498,969	-0,058	0,099
-582,065	76,673	0,033	-0,026
-581,050	113,157	-0,022	0,020
-580,036	800,000	0,015	-0,037
-579,021	29,544	0,075	0,047
-578,006	30,795	0,136	-0,085
-576,992	800,000	-0,028	0,076
-575,977	-200,000	0,023	0,108
-574,963	-200,000	-0,066	0,220
-573,948	-54,374	0,142	0,047
-572,934	-95,451	-0,111	0,022
-571,919	286,854	-0,095	-0,126
-570,904	713,011	-0,043	0,084
-569,890	180,019	0,049	0,052
-568,875	800,000	0,007	-0,019
-567,861	276,774	0,045	0,058
-566,846	800,000	-0,044	-0,138
-565,831	-200,000	-0,006	0,113
-564,817	-154,197	0,052	0,003
-563,802	515,612	0,033	0,057
-562,788	-200,000	-0,008	-0,032
-561,773	-200,000	-0,008	-0,028
-560,758	-200,000	0,010	0,051
-559,744	-150,683	0,133	-0,007
-558,729	-116,320	-0,027	0,004
-557,715	43,566	-0,050	0,033
-556,700	-200,000	0,020	-0,130
-555,685	800,000	0,042	-0,124
-554,671	282,974	0,059	0,078
-553,656	228,066	-0,039	-0,046
-552,642	-94,291	-0,004	-0,001
-551,627	-200,000	0,008	0,076
-550,612	800,000	0,029	-0,090
-549,598	156,003	0,031	-0,031
-548,583	202,038	-0,059	0,067
-547,569	15,187	-0,080	-0,046
-546,554	112,030	0,059	-0,052
-545,539	800,000	-0,014	-0,033
-544,525	-21,234	0,094	-0,042
-543,510	483,576	0,094	0,157
-542,496	-96,092	-0,188	-0,036
-541,481	71,183	0,078	0,059
-540,466	201,738	-0,014	0,016
-539,452	-47,977	0,156	-0,055
-538,437	-90,886	-0,068	0,014
-537,423	-100,905	-0,017	0,003
-536,408	-200,000	0,003	-0,119
-535,393	727,978	0,064	-0,125
-534,379	-37,882	0,027	-0,011
-533,364	-200,000	0,002	0,036
-532,350	673,253	0,094	0,178
-531,335	308,275	-0,068	0,094
-530,321	243,019	0,031	0,038
-529,306	-114,769	0,144	-0,020
-528,291	800,000	0,019	-0,060
-527,277	-105,815	-0,064	0,010
-526,262	-39,489	-0,029	0,011
-525,248	20,012	-0,053	-0,031
-524,233	-200,000	0,016	-0,097
-523,218	257,822	-0,051	-0,065
-522,204	-200,000	-0,000	-0,065
-521,189	-41,533	-0,132	-0,049
-520,175	-98,756	0,048	0,009
-519,160	204,070	-0,086	0,097
-518,145	71,719	-0,109	-0,083
-517,131	10,334	0,041	0,023
-516,116	-200,000	-0,005	0,154
-515,102	-200,000	0,016	-0,064
-514,087	-200,000	0,020	0,094
-513,072	-117,188	-0,136	-0,018
-512,058	-158,831	0,112	-0,005
-511,043	-36,168	0,067	0,026
-510,029	413,660	0,027	0,042
-509,014	-56,054	0,046	0,015
-507,999	-28,712	0,048	0,020
-506,985	-5,349	-0,106	-0,053
-505,970	-104,645	-0,079	-0,013
-504,956	-113,805	0,046	0,007
-503,941	-200,000	0,018	0,091
-502,926	333,374	0,063	-0,089
-501,912	-88,067	0,137	-0,030
-500,897	653,865	0,051	0,097
-499,883	108,417	0,067	-0,059
-498,868	680,382	-0,060	0,114
-497,853	183,922	-0,093	-0,100
-496,839	-200,000	-0,003	0,087
-495,824	104,323	0,034	0,029
-494,810	-39,251	0,107	0,041
-493,795	-56,033	-0,072	0,023
-492,781	-200,000	-0,013	-0,063
-491,766	-157,203	-0,103	0,004
-490,751	-200,000	-0,060	-0,221
-489,737	376,134	0,032	-0,047
-488,722	96,439	0,050	0,042
-487,708	223,983	0,106	-0,126
-486,693	-200,000	0,000	-0,013
-485,678	1,959	0,084	0,044
-484,664	-38,791	-0,122	-0,047
-483,649	800,000	-0,006	-0,017
-482,635	-200,000	0,008	-0,066
-481,620	-200,000	0,008	0,107
-480,605	-87,218	0,059	0,013
-479,591	800,000	0,050	0,123
-478,576	-56,563	-0,074	-0,024
-477,562	-200,000	0,001	0,029
-476,547	-86,910	-0,149	-0,033
-475,532	-200,000	-0,055	-0,199
-474,518	-147,421	0,136	0,008
-473,503	557,709	-0,097	0,171
-472,489	146,119	-0,123	0,120
-471,474	26,242	-0,100	0,061
-470,459	747,068	0,056	0,110
-469,445	426,905	-0,019	-0,030
-468,430	800,000	-0,044	-0,125
-467,416	6,880	-0,054	-0,029
-466,401	-200,000	0,006	-0,052
-465,386	127,259	0,031	-0,028
-464,372	-23,624	0,084	0,036
-463,357	-200,000	-0,053	0,238
-462,343	-118,216	-0,058	-0,007
-461,328	-10,185	-0,060	-0,029
-460,313	-27,955	0,102	0,043
-459,299	-156,178	0,001	0,000
-458,284	158,649	0,055	0,055
-457,270	654,710	-0,015	0,028
-456,255	57,479	-0,066	0,047
-455,241	335,430	-0,031	-0,044
-454,226	140,444	-0,040	0,038
-453,211	-200,000	0,016	0,146
-452,197	800,000	0,020	0,058
-451,182	800,000	-0,023	-0,060
-450,168	-200,000	-0,010	-0,089
-449,153	800,000	0,012	-0,035
-448,138	-200,000	0,005	0,042
-447,124	-64,820	-0,074	-0,022
-446,109	333,960	0,039	0,056
-445,095	137,715	0,059	0,057
-444,080	-42,266	-0,017	0,006
-443,065	-161,454	0,136	0,005
-442,051	401,315	0,021	-0,032
-441,036	-200,000	-0,011	0,083
-440,022	641,778	0,036	0,067
-439,007	-134,651	-0,086	-0,007
-437,992	-7,624	-0,072	0,035
-436,978	355,601	-0,029	0,042
-435,963	800,000	-0,015	-0,047
-434,949	800,000	-0,027	0,060
-433,934	67,997	0,083	-0,062
-432,919	135,799	-0,006	0,006
-431,905	492,475	-0,053	0,089
-430,890	1,989	0,125	-0,065
-429,876	-200,000	0,024	-0,142
-428,861	110,798	0,039	-0,034
-427,846	-200,000	0,037	-0,173
-426,832	-51,489	-0,088	-0,030
-425,817	-5,897	0,093	0,046
-424,803	-200,000	-0,005	-0,043
-423,788	-200,000	0,004	-0,022
-422,773	-106,543	-0,053	-0,009
-421,759	-200,000	0,013	0,108
-420,744	115,977	-0,093	0,083
-419,730	-53,914	0,026	0,008
-418,715	-143,680	-0,086	-0,006
-417,701	-88,774	-0,156	0,034
-416,686	-200,000	-0,016	0,136
-415,671	4,834	0,194	0,103
-414,657	170,011	-0,114	0,119
-413,642	-200,000	0,015	0,103
-412,628	21,408	-0,094	-0,056
-411,613	278,769	0,134	-0,175
-410,598	-200,000	-0,003	-0,052
-409,584	-200,000	0,005	-0,104
-408,569	-200,000	0,046	0,205
-407,555	33,245	0,009	-0,006
-406,540	-200,000	0,011	0,047
-405,525	66,189	-0,099	-0,073
-404,511	800,000	0,032	-0,096
-403,496	-68,119	-0,055	-0,016
-402,482	52,349	0,026	0,018
-401,467	800,000	0,032	0,080
-400,452	166,397	0,076	0,078
-399,438	-143,849	0,058	-0,004
-398,423	800,000	0,042	-0,110
-397,409	51,682	-0,088	-0,061
-396,394	-140,655	0,074	0,005
-395,379	207,884	-0,051	0,058
-394,365	164,387	0,080	0,082
-393,350	245,135	-0,040	-0,049
-392,336	-32,778	-0,070	0,028
-391,321	-0,029	-0,066	0,034
-390,306	-200,000	0,009	-0,100
-389,292	-200,000	0,014	-0,098
-388,277	-56,600	0,062	0,020
-387,263	184,470	-0,085	0,091
-386,248	431,424	-0,037	0,058
-385,233	-200,000	0,006	-0,065
-384,219	-126,829	0,031	-0,003
-383,204	-183,090	-0,151	-0,002
-382,190	-200,000	-0,009	-0,093
-381,175	124,938	0,027	-0,025
-380,160	-75,791	0,092	0,024
-379,146	755,528	0,057	-0,113
-378,131	-100,104	0,118	0,021
-377,117	483,741	0,055	-0,092
-376,102	-112,243	0,051	0,007
-375,088	291,358	-0,031	0,042
-374,073	145,832	-0,056	-0,054
-373,058	-200,000	0,051	0,173
-372,044	164,411	0,061	0,062
-371,029	714,018	-0,044	0,086
-370,015	-200,000	-0,022	-0,084
-369,000	501,324	0,047	-0,080
-367,985	-60,360	-0,085	0,026
-366,971	152,197	-0,060	-0,060
-365,956	-200,000	0,041	0,177
-364,942	-77,333	0,201	-0,050
-363,927	-126,487	0,028	0,003
-362,912	-200,000	-0,005	0,045
-361,898	800,000	0,064	-0,129
-360,883	68,075	0,087	-0,065
-359,869	-200,000	0,009	-0,134
-358,854	211,445	-0,028	0,032
-357,839	270,526	0,096	0,123
-356,825	-80,078	0,076	-0,018
-355,810	-200,000	0,017	-0,063
-354,796	124,635	-0,101	-0,092
-353,781	800,000	0,059	-0,156
-352,766	-50,241	-0,134	0,046
-351,752	-121,975	-0,104	-0,012
-350,737	175,769	0,039	0,041
-349,723	16,714	0,061	0,035
-348,708	205,756	-0,053	-0,060
-347,693	103,547	-0,043	0,037
-346,679	301,831	-0,056	-0,075
-345,664	156,971	-0,055	0,055
-344,650	-200,000	-0,011	-0,109
-343,635	639,779	0,026	-0,049
-342,620	198,117	0,113	-0,125
-341,606	344,874	0,089	-0,127
-340,591	357,555	-0,018	-0,027
-339,577	-184,961	-0,093	0,001
-338,562	800,000	-0,047	-0,142
-337,548	-200,000	0,043	-0,207
-336,533	-200,000	-0,024	-0,081
-335,518	800,000	-0,061	0,155
-334,504	-200,000	0,002	0,102
-333,489	49,817	0,130	-0,089
-332,475	149,473	-0,131	-0,129
-331,460	-17,828	-0,079	-0,036
-330,445	-178,232	-0,022	0,000
-329,431	497,773	-0,008	0,014
-328,416	-200,000	0,012	0,077
-327,402	161,414	-0,035	-0,035
-326,387	-200,000	0,001	0,006
-325,372	-200,000	-0,005	0,039
-324,358	274,136	-0,033	0,042
-323,343	-200,000	-0,002	-0,007
-322,329	-200,000	0,002	-0,057
-321,314	-14,818	-0,061	0,028
-320,299	-128,221	0,033	-0,003
-319,285	-24,628	-0,055	0,024
-318,270	-200,000	-0,054	-0,175
-317,256	287,963	-0,060	-0,079
-316,241	-65,298	-0,062	-0,018
-315,226	800,000	-0,012	-0,032
-314,212	126,322	0,116	0,106
-313,197	-200,000	0,031	-0,130
-312,183	-94,395	-0,027	0,005
-311,168	213,358	-0,081	-0,093
-310,153	-200,000	0,013	-0,055
-309,139	-142,297	-0,108	0,008
-308,124	42,711	-0,025	-0,017
-307,110	340,972	0,015	0,021
-306,095	143,471	0,045	0,044
-305,080	-200,000	0,015	0,161
-304,066	-200,000	-0,026	0,120
-303,051	-200,000	0,016	-0,118
-302,037	76,078	-0,067	-0,051
-301,022	-200,000	-0,020	-0,076
-300,008	56,243	0,144	0,101
-298,993	800,000	0,025	-0,076
-297,978	257,523	-0,174	0,218
-296,964	-123,861	0,077	0,009
-295,949	33,880	-0,051	-0,032
-294,935	202,491	-0,039	-0,043
-293,920	-161,644	-0,034	-0,001
-292,905	800,000	0,016	-0,035
-291,891	608,857	0,051	0,093
-290,876	173,093	0,019	0,020
-289,862	800,000	-0,043	0,094
-288,847	800,000	0,039	-0,111
-287,832	-25,314	-0,019	0,008
-286,818	52,638	-0,055	0,038
-285,803	215,953	0,060	0,069
-284,789	79,395	0,085	-0,066
-283,774	-200,000	-0,051	-0,210
-282,759	14,282	-0,022	0,012
-281,745	-52,693	-0,202	0,067
-280,730	-200,000	-0,022	-0,113
-279,716	512,206	0,026	0,044
-278,701	-69,698	0,027	0,007
-277,686	-74,312	0,137	0,036
-276,672	-200,000	0,009	-0,056
-275,657	800,000	-0,016	-0,039
-274,643	0,602	-0,079	-0,041
-273,628	800,000	-0,042	-0,092
-272,613	-200,000	-0,023	-0,166
-271,599	-200,000	0,029	0,129
-270,584	800,000	0,037	0,107
-269,570	599,179	0,038	-0,069
-268,555	93,576	0,092	0,075
-267,540	-200,000	0,027	-0,127
-266,526	184,197	-0,054	-0,057
-265,511	296,345	-0,027	-0,036
-264,497	61,155	-0,104	0,074
-263,482	-47,699	0,013	0,004
-262,467	-129,839	0,091	-0,009
-261,453	-54,628	-0,057	0,019
-260,438	-200,000	-0,053	-0,201
-259,424	368,422	0,014	-0,020
-258,409	800,000	0,042	0,127
-257,395	25,097	0,015	-0,009
-256,380	704,879	-0,047	0,091
-255,365	-200,000	-0,028	0,151
-254,351	-74,980	0,033	0,008
-253,336	-116,769	-0,237	0,031
-252,322	207,178	0,068	-0,077
-251,307	51,740	-0,068	-0,047
-250,292	150,781	0,053	-0,052
-249,278	312,185	0,027	0,037
-248,263	800,000	-0,018	-0,044
-247,249	-200,000	-0,005	0,130
-246,234	260,173	0,081	0,102
-245,219	-200,000	0,031	-0,127
-244,205	800,000	0,027	-0,065
-243,190	800,000	-0,043	-0,117
-242,176	-55,367	0,069	0,022
-241,161	800,000	0,020	0,059
-240,146	-103,573	-0,039	-0,007
-239,132	-28,046	-0,041	0,017
-238,117	99,926	-0,098	-0,082
-237,103	-109,657	-0,123	0,019
-236,088	85,306	0,058	-0,046
-235,073	125,064	-0,100	0,091
-234,059	657,542	0,077	0,144
-233,044	800,000	0,032	-0,069
-232,030	138,299	0,073	-0,069
-231,015	-32,921	0,155	0,062
-230,000	-200,000	-0,004	0,016
-228,986	-58,363	-0,039	0,012
-227,971	113,325	0,151	-0,132
-226,957	-200,000	0,002	0,105
-225,942	-58,736	-0,045	0,014
-224,927	94,586	-0,032	-0,026
-223,913	-55,688	-0,039	-0,013
-222,898	228,682	-0,047	-0,056
-221,884	733,042	0,077	0,149
-220,869	385,670	0,070	0,105
-219,855	-200,000	0,005	0,100
-218,840	60,455	0,030	-0,022
-217,825	-57,923	-0,054	0,017
-216,811	-200,000	0,016	-0,084
-215,796	93,829	0,066	-0,054
-214,782	-200,000	0,004	-0,099
-213,767	800,000	0,037	0,078
-212,752	105,265	0,132	0,112
-211,738	10,017	-0,012	-0,007
-210,723	686,098	-0,008	0,015
-209,709	-27,150	0,140	-0,059
-208,694	70,644	-0,156	-0,117
-207,679	592,735	-0,014	0,024
-206,665	617,216	0,028	0,051
-205,650	593,541	0,045	0,081
-204,636	-200,000	0,056	0,233
-203,621	-200,000	-0,024	0,192
-202,606	800,000	0,036	0,088
-201,592	436,252	-0,046	-0,073
-200,577	800,000	0,008	-0,025
-199,563	-34,736	-0,131	-0,051
-198,548	19,669	-0,123	-0,071
-197,533	199,897	0,041	-0,045
-196,519	-44,686	0,093	-0,033
-195,504	800,000	-0,008	-0,025
-194,490	-200,000	-0,016	-0,101
-193,475	-200,000	0,014	-0,080
-192,460	-7,107	-0,094	0,046
-191,446	62,477	0,055	0,039
-190,431	-71,627	0,102	-0,027
-189,417	-54,111	-0,056	-0,018
-188,402	113,643	0,095	-0,084
-187,387	42,864	-0,188	-0,124
-186,373	431,580	-0,111	-0,174
-185,358	-107,027	-0,054	-0,009
-184,344	333,600	-0,034	-0,048
-183,329	800,000	-0,048	0,131
-182,315	-88,665	-0,087	0,018
-181,300	800,000	-0,085	-0,185
-180,285	-133,662	-0,107	0,010
-179,271	-54,597	0,131	0,042
-178,256	-200,000	-0,024	0,142
-177,242	33,018	-0,106	0,066
-176,227	-59,477	0,140	-0,043
-175,212	-97,103	-0,035	-0,007
-174,198	-145,673	-0,072	0,005
-173,183	800,000	0,051	-0,108
-172,169	800,000	0,033	0,067
-171,154	538,875	-0,040	-0,069
-170,139	-200,000	0,059	0,000
-169,125	188,806	-0,001	-0,001
-168,110	230,285	0,038	0,045
-167,096	-200,000	-0,014	-0,045
-166,081	322,149	0,036	-0,049
-165,066	181,344	-0,051	-0,054
-164,052	55,852	0,107	0,075
-163,037	154,838	0,096	0,095
-162,023	-11,297	-0,040	0,019
-161,008	-200,000	0,016	0,227
-159,993	37,159	-0,097	0,062
-158,979	739,554	-0,024	0,046
-157,964	-106,445	-0,089	-0,014
-156,950	120,245	0,032	0,028
-155,935	-200,000	0,023	0,137
-154,920	-200,000	-0,009	0,094
-153,906	-200,000	0,004	0,059
-152,891	58,179	0,016	0,011
-151,877	-82,845	0,128	-0,029
-150,862	-200,000	-0,009	-0,077
-149,847	-104,662	0,025	0,004
-148,833	-18,838	-0,017	0,007
-147,818	-200,000	0,009	0,104
-146,804	-90,851	-0,098	-0,020
-145,789	-200,000	-0,025	0,157
-144,775	43,301	-0,113	-0,074
-143,760	766,886	-0,042	-0,083
-142,745	461,634	-0,057	0,092
-141,731	71,653	0,061	0,046
-140,716	-68,950	0,078	-0,021
-139,702	-69,421	-0,109	-0,030
-138,687	239,585	-0,066	-0,079
-137,672	138,486	0,024	-0,023
-136,658	323,909	-0,036	-0,050
-135,643	-200,000	0,037	0,000
-134,629	-189,274	-0,125	0,001
-133,614	-200,000	0,004	-0,022
-132,599	-43,128	0,043	0,016
-131,585	-200,000	-0,003	-0,012
-130,570	243,627	-0,120	0,145
-129,556	105,186	-0,071	-0,060
-128,541	113,510	-0,077	0,067
-127,526	222,397	0,092	0,107
-126,512	-65,791	0,077	0,022
-125,497	-112,600	-0,090	-0,013
-124,483	-158,419	-0,083	0,003
-123,468	-103,285	-0,124	-0,021
-122,453	576,585	-0,046	-0,081
-121,439	-200,000	-0,010	0,073
-120,424	584,976	-0,088	-0,157
-119,410	-200,000	0,023	0,246
-118,395	-200,000	-0,023	-0,122
-117,380	443,372	0,033	0,052
-116,366	800,000	-0,011	0,035
-115,351	-62,252	-0,059	0,017
-114,337	-148,107	0,097	-0,006
-113,322	382,945	-0,048	-0,071
-112,307	800,000	0,014	-0,038
-111,293	-200,000	0,015	0,112
-110,278	284,657	-0,057	0,073
-109,264	-55,602	-0,075	0,024
-108,249	-54,251	0,065	0,021
-107,234	299,842	0,043	-0,057
-106,220	-200,000	-0,007	-0,076
-105,205	151,591	-0,025	-0,024
-104,191	-200,000	-0,006	0,198
-103,176	800,000	-0,002	0,006
-102,162	-200,000	-0,009	-0,080
-101,147	-200,000	0,016	-0,095
-100,132	-32,175	0,029	0,012
-99,118	129,395	-0,092	-0,085
-98,103	800,000	-0,015	-0,035
-97,089	-200,000	0,001	0,081
-96,074	365,887	-0,065	0,094
-95,059	546,699	0,141	-0,244
-94,045	392,868	-0,060	0,090
-93,030	-26,551	-0,045	-0,019
-92,016	24,013	-0,074	-0,044
-91,001	283,572	-0,072	-0,093
-89,986	25,418	0,108	0,065
-88,972	-200,000	0,014	0,078
-87,957	193,868	-0,047	-0,051
-86,943	800,000	-0,053	-0,113
-85,928	142,204	-0,063	-0,060
-84,913	187,417	-0,080	-0,086
-83,899	-200,000	-0,005	-0,017
-82,884	800,000	0,038	-0,100
-81,870	-200,000	-0,004	-0,066
-80,855	-103,897	0,199	0,033
-79,840	19,298	0,048	-0,027
-78,826	-200,000	-0,009	0,050
-77,811	103,960	-0,076	-0,064
-76,797	800,000	-0,081	-0,167
-75,782	-200,000	-0,002	0,113
-74,767	-12,799	-0,078	0,037
-73,753	800,000	0,042	0,100
-72,738	671,142	-0,048	0,090
-71,724	202,939	-0,028	0,031
-70,709	690,218	0,068	-0,128
-69,694	-88,249	-0,147	0,031
-68,680	800,000	-0,007	0,015
-67,665	549,964	0,033	0,057
-66,651	-98,207	-0,092	0,017
-65,636	-70,000	0,085	0,023
-64,622	-196,247	-0,125	-0,001
-63,607	-200,000	0,013	-0,094
-62,592	-36,197	-0,035	-0,013
-61,578	232,705	0,042	0,049
-60,563	-41,508	0,198	-0,073
-59,549	153,833	-0,069	0,068
-58,534	-5,877	-2,107	-1,031
-57,519	800,000	-0,283	-0,851
-56,505	-200,000	-1,244	-5,022
-55,490	48,180	0,747	0,501
-54,476	800,000	5,270	12,000
-53,461	-200,000	17,761	288,564
-52,446	800,000	729,017	2229,649
-51,432	537,620	1645,517	2816,282
-50,417	109,770	1635,739	1407,019
-49,403	75,682	1287,451	974,931
-48,388	31,816	1027,719	633,440
-47,373	20,218	989,355	571,560
-46,359	18,363	977,221	558,447
-45,344	15,369	973,178	546,319
-44,330	15,557	971,770	546,124
-43,315	15,122	969,846	543,600
-42,300	15,042	968,720	542,687
-41,286	15,074	967,680	542,186
-40,271	15,076	966,857	541,711
-39,257	15,060	965,887	541,093
-38,242	15,048	965,062	540,570
-37,227	15,117	964,135	540,255
-36,213	15,077	963,311	539,640
-35,198	15,044	962,405	539,006
-34,184	15,084	961,596	538,660
-33,169	14,991	960,828	537,907
-32,154	15,088	959,814	537,632
-31,140	15,080	958,684	536,952
-30,125	15,116	958,167	536,756
-29,111	15,096	957,363	536,222
-28,096	15,098	956,675	535,823
-27,082	15,140	955,936	535,522
-26,067	15,130	955,270	535,095
-25,052	15,165	954,391	534,695
-24,038	15,083	953,741	534,044
-23,023	15,075	953,294	533,747
-22,009	15,090	952,384	533,265
-20,994	15,122	951,752	532,993
-19,979	15,116	951,088	532,582
-18,965	15,075	950,574	532,139
-17,950	15,118	949,872	531,863
-16,936	14,994	949,377	531,171
-15,921	15,050	948,651	530,920
-14,906	14,903	948,019	530,076
-13,892	14,959	947,223	529,790
-12,877	14,969	946,688	529,500
-11,863	14,978	945,915	529,076
-10,848	14,988	945,373	528,784
-9,833	15,057	945,106	528,834
-8,819	15,032	944,387	528,331
-7,804	14,989	943,755	527,820
-6,790	15,024	943,143	527,567
-5,775	14,999	942,626	527,177
-4,760	15,039	941,858	526,855
-3,746	14,952	941,396	526,298
-2,731	14,780	940,786	525,393
-1,717	14,780	939,950	524,906
-0,702	14,782	939,483	524,631
0,313	14,576	938,816	524,399
1,327	17,979	936,640	533,855
2,342	27,140	793,306	476,399
3,356	23,810	458,339	270,136
4,371	-3,319	314,367	156,456
5,386	-7,350	296,346	143,394
6,400	-9,238	289,982	138,430
7,415	-9,663	287,681	136,901
8,429	-10,080	286,234	135,792
9,444	-10,109	285,331	135,323
10,459	-9,987	284,499	135,035
11,473	-10,027	283,836	134,669
12,488	-9,933	283,479	134,579
13,502	-9,898	283,032	134,389
14,517	-10,027	282,363	133,935
15,531	-10,096	282,032	133,699
16,546	-9,938	281,539	133,606
17,561	-10,020	281,139	133,325
18,575	-10,063	281,004	133,208
19,590	-10,013	280,372	132,945
20,604	-10,015	280,246	132,871
21,619	-10,193	279,783	132,469
22,634	-10,035	279,463	132,457
23,648	-10,001	279,169	132,338
24,663	-10,220	279,041	132,056
25,677	-10,142	278,679	131,949
26,692	-10,067	278,431	131,890
27,707	-10,025	278,095	131,759
28,721	-10,230	278,089	131,550
29,736	-10,215	277,593	131,318
30,750	-10,132	277,319	131,255
31,765	-10,111	277,022	131,122
32,780	-9,978	276,805	131,134
33,794	-10,022	276,515	130,943
34,809	-10,096	276,318	130,768
35,823	-10,047	276,067	130,684
36,838	-10,075	275,659	130,453
37,853	-10,217	275,432	130,201
38,867	-10,117	275,309	130,225
39,882	-10,186	275,021	130,013
40,896	-10,192	274,838	129,909
41,911	-10,138	274,628	129,849
42,926	-10,130	274,341	129,709
43,940	-10,184	274,071	129,519
44,955	-10,115	273,779	129,433
45,969	-10,264	273,555	129,178
46,984	-10,426	273,292	128,890
47,999	-10,740	273,302	128,591
49,013	-10,806	272,900	128,329
50,028	-10,675	272,526	128,264
51,042	-10,765	272,361	128,091
52,057	-10,893	272,031	127,806
53,071	-10,825	271,882	127,787
54,086	-10,776	271,775	127,771
55,101	-10,503	271,537	127,900
56,115	-10,502	271,262	127,761
57,130	-9,966	271,135	128,184
58,144	-9,972	270,984	128,095
59,159	-9,981	270,869	128,022
60,174	-9,892	270,543	127,938
61,188	-9,972	270,411	127,791
62,203	-10,100	270,189	127,557
63,217	-10,132	269,989	127,421
64,232	-10,171	269,714	127,245
65,247	-9,952	269,462	127,315
66,261	-9,920	269,212	127,215
67,276	-10,043	268,864	126,927
68,290	-10,383	268,601	126,480
69,305	-10,308	268,476	126,479
70,320	-10,421	268,314	126,288
71,334	-10,129	268,038	126,413
72,349	-9,990	267,954	126,489
73,363	-10,014	267,712	126,341
74,378	-9,913	267,431	126,289
75,393	-9,898	267,251	126,207
76,407	-10,023	267,083	126,002
77,422	-10,044	266,926	125,899
78,436	-9,873	266,588	125,883
79,451	-9,858	266,382	125,788
80,466	-10,063	266,254	125,531
81,480	-10,221	265,915	125,217
82,495	-10,367	265,822	125,030
83,509	-10,177	265,518	125,047
84,524	-10,322	265,346	124,825
85,539	-10,129	264,982	124,815
86,553	-10,260	264,760	124,583
87,568	-10,160	264,713	124,639
88,582	-10,220	264,425	124,439
89,597	-10,262	264,259	124,311
90,611	-10,032	264,093	124,429
91,626	-10,225	264,018	124,209
92,641	-9,924	263,603	124,272
93,655	-10,089	263,493	124,061
94,670	-10,186	263,254	123,852
95,684	-10,030	262,918	123,822
96,699	-10,153	262,870	123,678
97,714	-10,226	262,717	123,530
98,728	-10,392	262,438	123,239
99,743	-10,544	262,231	122,997
100,757	-10,403	262,050	123,025
101,772	-10,271	261,813	123,021
102,787	-10,082	261,635	123,094
103,801	-10,020	261,637	123,139
104,816	-10,038	261,264	122,936
105,830	-10,048	261,312	122,940
106,845	-10,009	260,918	122,777
107,860	-9,961	260,777	122,743
108,874	-9,873	260,472	122,666
109,889	-9,998	260,308	122,468
110,903	-10,223	260,112	122,166
111,918	-10,125	259,866	122,125
112,933	-10,093	259,812	122,118
113,947	-9,943	259,542	122,111
114,962	-9,961	259,366	122,002
115,976	-10,088	259,221	121,812
116,991	-10,148	258,944	121,618
118,006	-9,892	258,655	121,696
119,020	-10,053	258,723	121,575
120,035	-9,778	258,475	121,689
121,049	-9,888	258,406	121,549
122,064	-9,997	258,136	121,316
123,079	-10,022	257,827	121,138
124,093	-10,081	257,739	121,035
125,108	-10,244	257,370	120,708
126,122	-10,408	257,158	120,456
127,137	-10,435	256,897	120,300
128,151	-10,505	256,892	120,225
129,166	-10,254	256,791	120,386
130,181	-10,357	256,507	120,152
131,195	-10,225	256,138	120,083
132,210	-10,171	256,158	120,128
133,224	-10,064	255,815	120,050
134,239	-9,991	255,866	120,126
135,254	-9,809	255,561	120,130
136,268	-10,033	255,369	119,835
137,283	-10,179	255,055	119,551
138,297	-10,300	254,717	119,278
139,312	-10,364	254,647	119,179
140,327	-10,102	254,525	119,337
141,341	-9,756	254,550	119,635
142,356	-9,755	254,183	119,454
143,370	-9,870	254,110	119,310
144,385	-9,724	253,981	119,365
145,400	-9,898	253,788	119,114
146,414	-9,865	253,670	119,076
147,429	-9,908	253,330	118,869
148,443	-9,832	253,190	118,858
149,458	-9,663	252,963	118,885
150,473	-9,797	252,908	118,733
151,487	-9,891	252,700	118,545
152,502	-9,682	252,466	118,603
153,516	-9,832	252,398	118,433
154,531	-9,748	252,132	118,369
155,546	-9,770	251,928	118,244
156,560	-9,890	251,908	118,121
157,575	-9,962	251,639	117,924
158,589	-10,015	251,494	117,800
159,604	-9,831	251,226	117,821
160,619	-9,827	250,942	117,680
161,633	-9,866	250,781	117,561
162,648	-9,869	250,805	117,559
163,662	-9,690	250,608	117,608
164,677	-9,905	250,451	117,342
165,692	-9,827	250,240	117,299
166,706	-9,655	250,122	117,378
167,721	-9,659	249,832	117,228
168,735	-9,750	249,688	117,073
169,750	-9,882	249,648	116,933
170,764	-9,700	249,413	116,965
171,779	-9,743	249,481	116,951
172,794	-9,721	249,100	116,781
173,808	-9,866	248,815	116,514
174,823	-10,187	248,585	116,128
175,837	-10,319	248,373	115,908
176,852	-10,019	248,293	116,111
177,867	-9,745	248,155	116,266
178,881	-9,532	248,056	116,387
179,896	-9,683	247,955	116,203
180,910	-9,733	247,714	116,038
181,925	-9,857	247,468	115,809
182,940	-9,725	247,317	115,838
183,954	-9,764	247,228	115,754
184,969	-9,903	247,026	115,533
185,983	-9,652	246,863	115,655
186,998	-9,657	246,753	115,589
188,013	-9,898	246,561	115,288
189,027	-9,552	246,272	115,430
190,042	-9,712	246,149	115,230
191,056	-9,649	245,952	115,180
192,071	-9,725	245,857	115,062
193,086	-9,536	245,744	115,155
194,100	-9,612	245,636	115,031
195,115	-9,600	245,204	114,829
196,129	-9,609	245,138	114,780
197,144	-9,763	244,851	114,509
198,159	-9,641	244,670	114,514
199,173	-9,717	244,581	114,399
200,188	-9,811	244,522	114,284
201,202	-10,017	244,338	114,019
202,217	-10,129	243,976	113,747
203,232	-10,197	243,630	113,520
204,246	-9,841	243,587	113,783
205,261	-9,255	243,642	114,278
206,275	-9,784	243,338	113,692
207,290	-5,545	245,180	118,034
208,304	1,463	247,077	124,736
209,319	3,826	247,684	126,984
210,334	4,067	247,675	127,168
211,348	4,004	247,703	127,119
212,363	4,561	247,556	127,492
213,377	4,453	247,313	127,266
214,392	4,399	247,083	127,092
215,407	4,296	247,003	126,955
216,421	4,247	246,876	126,838
217,436	4,416	246,804	126,928
218,450	4,533	246,487	126,850
219,465	4,234	246,271	126,483
220,480	4,058	246,246	126,314
221,494	3,875	245,971	126,012
222,509	4,129	245,668	126,053
223,523	4,177	245,554	126,023
224,538	3,742	245,321	125,536
225,553	4,011	245,173	125,669
226,567	3,910	244,880	125,425
227,582	3,923	244,935	125,452
228,596	3,909	244,875	125,400
229,611	3,885	244,553	125,204
230,626	3,749	244,265	124,935
231,640	3,638	244,349	124,876
232,655	3,908	244,185	125,001
233,669	3,826	243,873	124,763
234,684	3,593	243,693	124,471
235,699	3,932	243,730	124,753
236,713	4,070	243,549	124,762
237,728	3,675	243,287	124,297
238,742	3,595	243,162	124,157
239,757	3,551	242,944	123,999
240,772	3,809	242,868	124,158
241,786	3,796	242,636	124,017
242,801	3,560	242,679	123,838
243,815	3,699	242,470	123,833
244,830	3,905	242,288	123,895
245,844	3,827	242,168	123,760
246,859	3,769	241,864	123,546
247,874	3,584	241,756	123,331
248,888	3,730	241,636	123,376
249,903	3,887	241,489	123,417
250,917	3,897	241,386	123,361
251,932	4,002	241,239	123,358
252,947	3,952	241,067	123,220
253,961	3,886	240,718	122,977
254,976	3,928	240,619	122,950
255,990	3,747	240,579	122,773
257,005	3,647	240,361	122,572
258,020	3,530	240,284	122,428
259,034	3,668	239,957	122,360
260,049	3,814	239,877	122,424
261,063	3,639	239,634	122,151
262,078	3,835	239,512	122,234
263,093	4,029	239,281	122,259
264,107	4,065	239,212	122,241
265,122	3,930	238,928	121,978
266,136	3,814	239,001	121,913
267,151	4,134	238,908	122,108
268,166	3,815	238,620	121,698
269,180	3,659	238,523	121,513
270,195	4,370	238,513	122,060
271,209	4,404	238,318	121,976
272,224	3,773	238,028	121,319
273,239	3,455	237,911	120,997
274,253	3,809	237,717	121,167
275,268	3,933	237,556	121,172
276,282	3,824	237,405	120,999
277,297	3,451	237,326	120,654
278,312	3,645	237,195	120,729
279,326	3,952	236,988	120,854
280,341	3,879	236,928	120,756
281,355	3,983	236,652	120,685
282,370	4,101	236,527	120,704
283,384	4,117	236,272	120,575
284,399	3,680	236,174	120,173
285,414	3,533	236,115	120,016
286,428	3,621	235,878	119,954
287,443	3,638	235,892	119,964
288,457	3,960	235,574	120,043
289,472	4,112	235,393	120,058
290,487	3,967	235,274	119,874
291,501	3,752	235,090	119,602
292,516	3,510	234,894	119,304
293,530	3,604	234,791	119,314
294,545	3,723	234,765	119,383
295,560	3,880	234,653	119,437
296,574	3,753	234,379	119,188
297,589	3,899	234,101	119,149
298,603	4,100	234,147	119,318
299,618	4,023	233,971	119,158
300,633	4,039	233,862	119,104
301,647	4,136	233,900	119,188
302,662	4,340	233,728	119,247
303,676	4,125	233,529	118,969
304,691	4,214	233,391	118,957
305,706	4,187	233,210	118,833
306,720	4,273	233,091	118,828
307,735	4,123	232,938	118,624
308,749	3,951	232,695	118,357
309,764	3,786	232,499	118,120
310,779	3,760	232,208	117,942
311,793	3,634	232,005	117,731
312,808	3,817	231,867	117,792
313,822	3,498	231,820	117,513
314,837	3,871	231,619	117,686
315,852	3,558	231,730	117,492
316,866	3,907	231,514	117,639
317,881	4,044	231,390	117,670
318,895	4,191	231,190	117,670
319,910	3,966	231,043	117,413
320,925	3,652	230,770	117,024
321,939	3,841	230,772	117,159
322,954	4,172	230,793	117,412
323,968	3,936	230,418	117,031
324,983	3,667	230,377	116,795
325,997	3,810	230,143	116,775
327,012	3,813	229,975	116,681
328,027	4,142	229,903	116,884
329,041	4,335	229,820	116,978
330,056	4,674	229,722	117,175
331,070	4,492	229,586	116,956
332,085	4,237	229,359	116,638
333,100	3,974	229,156	116,326
334,114	4,017	228,908	116,221
335,129	4,255	228,960	116,417
336,143	4,203	228,884	116,329
337,158	4,408	228,627	116,342
338,173	4,075	228,432	115,982
339,187	4,140	228,269	115,938
340,202	4,012	228,195	115,794
341,216	4,089	228,020	115,753
342,231	3,820	227,911	115,485
343,246	4,018	227,717	115,525
344,260	4,154	227,490	115,502
345,275	4,342	227,551	115,663
346,289	4,175	227,473	115,488
347,304	4,297	227,123	115,391
348,319	4,217	227,068	115,292
349,333	3,881	226,867	114,930
350,348	3,768	226,712	114,756
351,362	3,967	226,523	114,799
352,377	3,776	226,401	114,584
353,392	3,406	226,264	114,229
354,406	3,745	226,021	114,349
355,421	195,644	1321,798	1398,647
356,435	156,828	1455,294	1398,642
