DTS Sentinel unit serial number:	SN410029Multiplexer serial number:	ORYXHardware model number:	OX2-SRSoftware version number:	ORYX F/W v4,00 Oryx Data Collector v3.7.2.0data status	okinstallation	B5 Nyhavnadifferential loss correction	single-endedforward channel	channel 2reverse channel	N/Adate	2023/12/14time	13:52:14forward acquisition time	300,00reverse acquisition time	0,00gamma	499,1914k internal	0,3157k external	0,3157temperature offset calibration	1,0000default loss term (dB/km)	0,3820temperature slope calibration	1,0000multiplexer offset coefficient	1,0000multiplexer slope coefficient	1,0000fibre end	0,00T internal ref (°C)	8,07T ext. ref 1 (°C)	-7,87T ext. ref 2 (°C)	-7,95length (m)	temperature (°C)	Stokes	anti-Stokes-744,400	-154,783	0,087	0,004
-743,385	-186,193	-0,560	0,006
-742,371	-93,945	0,213	-0,043
-741,356	-16,049	-0,342	-0,160
-740,342	-200,000	0,039	0,140
-739,327	-124,862	-0,428	-0,048
-738,312	-141,025	0,182	0,014
-737,298	-41,469	-0,406	-0,153
-736,283	-31,836	0,212	0,087
-735,269	-118,221	-0,409	-0,053
-734,254	25,332	0,127	0,077
-733,239	11,555	-0,610	-0,344
-732,225	116,926	0,166	0,150
-731,210	333,993	0,072	0,103
-730,196	17,061	-0,030	0,018
-729,181	-164,500	-0,140	-0,005
-728,167	-200,000	-0,007	0,097
-727,152	-200,000	0,030	-0,124
-726,137	43,432	-0,167	-0,112
-725,123	615,163	0,047	0,086
-724,108	-35,435	0,050	0,020
-723,094	-113,403	-0,099	-0,014
-722,079	219,349	-0,039	0,046
-721,064	119,416	0,127	0,116
-720,050	240,738	0,067	0,083
-719,035	618,425	-0,047	-0,087
-718,021	166,186	0,052	0,054
-717,006	800,000	-0,041	-0,086
-715,991	800,000	0,084	-0,177
-714,977	-13,371	-0,115	-0,055
-713,962	90,363	-0,050	-0,041
-712,948	-200,000	0,001	0,020
-711,933	-200,000	0,014	-0,051
-710,918	85,214	-0,062	-0,050
-709,904	429,458	0,024	0,038
-708,889	130,304	-0,056	-0,053
-707,875	56,985	-0,054	-0,039
-706,860	800,000	0,038	0,108
-705,845	-1,888	-0,013	-0,007
-704,831	469,870	0,013	-0,022
-703,816	-33,618	-0,093	0,037
-702,802	-200,000	-0,018	0,080
-701,787	-62,888	-0,137	0,042
-700,772	139,036	-0,053	-0,051
-699,758	234,209	0,068	-0,083
-698,743	383,078	0,023	0,034
-697,729	-91,443	-0,070	0,015
-696,714	606,293	0,050	-0,092
-695,699	176,595	-0,057	-0,061
-694,685	68,318	0,066	-0,050
-693,670	-200,000	-0,008	-0,134
-692,656	10,855	0,075	0,042
-691,641	800,000	-0,020	-0,053
-690,627	-61,877	0,114	0,035
-689,612	-91,850	0,051	0,011
-688,597	-26,635	0,108	-0,046
-687,583	800,000	0,073	-0,191
-686,568	800,000	-0,017	-0,052
-685,554	343,805	0,062	-0,089
-684,539	-200,000	0,025	0,088
-683,524	254,490	-0,061	0,077
-682,510	-5,622	-0,045	-0,023
-681,495	-4,863	-0,081	-0,041
-680,481	148,239	0,060	0,059
-679,466	-70,743	-0,058	-0,016
-678,451	183,991	0,069	0,075
-677,437	256,629	-0,037	-0,047
-676,422	308,437	0,050	-0,068
-675,408	369,447	-0,028	-0,042
-674,393	800,000	0,012	-0,037
-673,378	612,438	-0,033	0,062
-672,364	559,610	0,057	-0,101
-671,349	-200,000	-0,008	-0,079
-670,335	800,000	0,034	0,077
-669,320	-200,000	0,010	0,140
-668,305	-11,943	-0,127	0,061
-667,291	-200,000	0,001	-0,068
-666,276	-73,134	0,053	0,014
-665,262	8,602	-0,190	-0,105
-664,247	-200,000	-0,018	-0,072
-663,232	81,255	-0,010	-0,008
-662,218	67,717	0,146	0,109
-661,203	-73,993	0,063	0,017
-660,189	-200,000	0,009	-0,081
-659,174	-146,802	-0,015	0,001
-658,159	367,430	-0,048	0,071
-657,145	48,702	-0,087	-0,060
-656,130	800,000	0,074	-0,175
-655,116	800,000	0,014	-0,045
-654,101	120,242	-0,037	0,034
-653,086	-200,000	0,013	-0,069
-652,072	800,000	0,004	0,009
-651,057	8,866	-0,119	-0,066
-650,043	-92,135	-0,139	0,029
-649,028	-9,351	0,049	0,024
-648,014	-200,000	0,002	0,023
-646,999	-87,726	0,073	0,016
-645,984	57,299	-0,069	0,049
-644,970	152,090	0,013	0,013
-643,955	-11,310	-0,104	0,050
-642,941	728,926	-0,034	-0,067
-641,926	83,630	-0,040	0,032
-640,911	96,324	-0,101	-0,085
-639,897	800,000	0,048	0,100
-638,882	-200,000	0,003	0,043
-637,868	-200,000	0,001	-0,134
-636,853	800,000	-0,030	-0,066
-635,838	-200,000	-0,026	-0,104
-634,824	394,248	0,044	0,068
-633,809	-200,000	-0,099	0,000
-632,795	-112,541	-0,034	0,005
-631,780	246,927	-0,022	-0,028
-630,765	-76,474	0,045	-0,012
-629,751	-65,715	0,041	-0,012
-628,736	-94,245	0,098	-0,020
-627,722	-15,797	0,037	0,017
-626,707	-71,752	0,111	0,030
-625,692	-87,542	0,144	0,032
-624,678	87,788	-0,128	-0,104
-623,663	374,228	-0,047	0,070
-622,649	-95,487	-0,191	0,037
-621,634	-86,576	-0,038	-0,008
-620,619	35,475	-0,051	0,033
-619,605	482,842	0,040	0,067
-618,590	25,224	0,022	-0,013
-617,576	-200,000	-0,012	0,042
-616,561	47,958	0,151	0,104
-615,546	34,502	-0,036	-0,023
-614,532	-37,732	-0,187	-0,073
-613,517	603,348	0,019	-0,036
-612,503	-178,379	0,075	0,001
-611,488	-80,272	-0,184	-0,045
-610,474	403,786	-0,038	-0,058
-609,459	-3,934	0,049	-0,025
-608,444	-200,000	0,005	0,019
-607,430	165,581	-0,032	0,033
-606,415	800,000	0,027	-0,076
-605,401	800,000	0,041	-0,109
-604,386	193,962	0,036	0,040
-603,371	109,591	0,074	0,065
-602,357	-200,000	0,003	-0,097
-601,342	-104,722	0,069	0,012
-600,328	-200,000	-0,019	-0,105
-599,313	173,469	0,080	-0,085
-598,298	800,000	-0,018	0,048
-597,284	194,447	-0,043	-0,048
-596,269	-200,000	0,026	0,124
-595,255	800,000	0,011	0,022
-594,240	-126,215	0,068	0,007
-593,225	-200,000	0,015	-0,161
-592,211	558,893	-0,035	-0,062
-591,196	-200,000	0,000	0,046
-590,182	-200,000	0,023	0,105
-589,167	86,847	0,036	0,030
-588,152	382,817	-0,093	0,141
-587,138	800,000	-0,051	0,120
-586,123	53,572	0,053	0,037
-585,109	-88,316	-0,123	-0,027
-584,094	579,863	-0,038	0,068
-583,079	0,180	0,087	0,045
-582,065	147,797	-0,059	-0,059
-581,050	292,059	-0,035	0,046
-580,036	28,562	0,077	0,048
-579,021	276,082	-0,097	-0,126
-578,006	-150,939	0,116	0,006
-576,992	0,297	-0,016	-0,008
-575,977	-200,000	0,003	-0,041
-574,963	-200,000	0,046	-0,163
-573,948	-117,081	0,059	-0,008
-572,934	-200,000	-0,058	0,000
-571,919	-101,823	-0,177	-0,031
-570,904	14,429	-0,030	-0,017
-569,890	-112,533	-0,095	0,014
-568,875	-67,280	0,073	0,021
-567,861	289,453	0,027	0,037
-566,846	800,000	0,046	0,116
-565,831	-28,114	0,051	-0,022
-564,817	256,883	-0,033	-0,041
-563,802	28,156	-0,077	-0,047
-562,788	202,408	0,049	-0,055
-561,773	431,144	-0,061	0,098
-560,758	800,000	-0,041	-0,113
-559,744	-49,534	-0,097	-0,034
-558,729	186,040	0,111	0,121
-557,715	-92,423	-0,126	-0,026
-556,700	211,312	-0,044	0,051
-555,685	99,083	-0,065	-0,055
-554,671	-200,000	0,015	0,082
-553,656	800,000	-0,042	0,103
-552,642	-200,000	0,009	0,106
-551,627	-200,000	-0,010	0,089
-550,612	72,767	-0,074	0,057
-549,598	-200,000	0,017	-0,071
-548,583	132,813	-0,079	-0,075
-547,569	429,033	0,029	-0,046
-546,554	317,823	0,089	-0,124
-545,539	128,503	0,092	0,086
-544,525	275,660	-0,049	0,064
-543,510	493,186	0,072	0,122
-542,496	-36,420	0,131	-0,051
-541,481	213,122	-0,050	-0,058
-540,466	43,326	0,079	0,053
-539,452	19,245	0,046	-0,027
-538,437	76,566	-0,032	0,025
-537,423	800,000	0,045	-0,103
-536,408	800,000	0,007	-0,018
-535,393	142,057	-0,130	-0,126
-534,379	-200,000	0,050	-0,180
-533,364	800,000	0,058	-0,167
-532,350	299,834	0,057	0,077
-531,335	95,968	0,097	-0,081
-530,321	800,000	-0,032	0,101
-529,306	98,798	-0,098	-0,082
-528,291	-200,000	-0,036	-0,143
-527,277	-102,098	-0,110	-0,019
-526,262	-200,000	-0,008	0,098
-525,248	296,497	0,059	0,079
-524,233	-114,260	0,091	0,013
-523,218	-9,814	-0,133	-0,064
-522,204	479,352	0,002	-0,003
-521,189	270,271	-0,043	-0,055
-520,175	15,273	-0,050	-0,028
-519,160	-55,345	0,219	-0,071
-518,145	-200,000	-0,009	0,066
-517,131	45,365	-0,052	-0,035
-516,116	-200,000	-0,000	0,080
-515,102	800,000	-0,015	-0,046
-514,087	-155,726	-0,125	0,006
-513,072	-168,324	0,029	-0,001
-512,058	-200,000	0,018	-0,103
-511,043	-200,000	0,023	0,121
-510,029	-200,000	0,021	0,109
-509,014	800,000	-0,040	0,115
-507,999	800,000	-0,022	-0,051
-506,985	636,727	0,028	-0,052
-505,970	61,860	0,072	0,053
-504,956	-86,016	-0,103	0,023
-503,941	-200,000	-0,001	-0,037
-502,926	-200,000	0,012	0,121
-501,912	-200,000	0,018	0,067
-500,897	-24,398	0,094	0,041
-499,883	800,000	-0,032	0,088
-498,868	-200,000	0,025	-0,083
-497,853	5,047	0,099	-0,053
-496,839	414,182	-0,089	0,139
-495,824	267,407	0,108	0,138
-494,810	102,013	-0,051	-0,043
-493,795	-200,000	0,002	0,107
-492,781	-126,851	-0,103	-0,011
-491,766	-192,736	-0,078	-0,001
-490,751	225,829	0,020	-0,024
-489,737	-26,409	0,096	-0,041
-488,722	-4,884	-0,089	0,045
-487,708	56,662	0,112	-0,079
-486,693	195,143	-0,081	-0,090
-485,678	-85,686	-0,073	-0,016
-484,664	1,824	-0,059	-0,031
-483,649	800,000	0,055	0,120
-482,635	-58,948	-0,125	0,039
-481,620	-200,000	0,014	-0,072
-480,605	93,673	0,147	0,122
-479,591	145,721	0,021	-0,021
-478,576	-9,228	-0,170	0,083
-477,562	-200,000	-0,015	0,056
-476,547	68,104	0,060	-0,044
-475,532	-22,891	-0,071	0,031
-474,518	394,688	0,097	0,147
-473,503	186,946	0,108	0,117
-472,489	800,000	-0,058	0,151
-471,474	-200,000	0,005	0,121
-470,459	101,898	-0,050	0,043
-469,445	260,812	0,016	0,020
-468,430	206,539	0,053	0,060
-467,416	-200,000	0,036	0,000
-466,401	-18,234	-0,085	0,039
-465,386	800,000	0,065	0,135
-464,372	-200,000	0,020	0,074
-463,357	56,434	0,044	-0,031
-462,343	800,000	0,035	-0,092
-461,328	134,329	-0,089	-0,084
-460,313	-200,000	-0,023	-0,162
-459,299	-200,000	0,011	-0,057
-458,284	514,789	-0,087	0,148
-457,270	134,053	0,038	-0,036
-456,255	-147,338	-0,116	-0,007
-455,241	800,000	0,012	0,029
-454,226	800,000	0,042	0,136
-453,211	264,130	0,071	-0,090
-452,197	141,885	0,143	0,138
-451,182	416,178	0,069	-0,107
-450,168	-200,000	0,007	-0,066
-449,153	800,000	-0,027	-0,056
-448,138	800,000	0,027	-0,063
-447,124	-71,175	-0,146	0,040
-446,109	-76,198	0,047	0,012
-445,095	223,112	-0,034	0,040
-444,080	-200,000	-0,007	0,025
-443,065	344,210	0,055	0,079
-442,051	-3,781	-0,018	0,009
-441,036	-66,194	-0,044	0,013
-440,022	234,580	-0,070	-0,084
-439,007	73,598	0,054	-0,041
-437,992	-200,000	0,000	-0,022
-436,978	-106,950	0,138	0,022
-435,963	56,126	0,080	-0,057
-434,949	-87,019	-0,137	0,030
-433,934	-200,000	-0,059	-0,213
-432,919	25,778	-0,062	0,037
-431,905	-200,000	-0,011	-0,117
-430,890	-200,000	-0,001	0,012
-429,876	710,589	0,019	-0,037
-428,861	639,136	-0,045	0,084
-427,846	-200,000	0,001	-0,056
-426,832	-200,000	-0,008	0,155
-425,817	125,810	-0,056	-0,052
-424,803	800,000	0,021	0,055
-423,788	-200,000	-0,018	0,157
-422,773	800,000	0,100	0,222
-421,759	-200,000	-0,120	0,000
-420,744	-15,076	-0,042	-0,020
-419,730	-103,277	0,047	0,008
-418,715	105,489	-0,044	-0,038
-417,701	13,922	-0,047	0,027
-416,686	281,826	-0,040	0,053
-415,671	212,778	-0,045	0,052
-414,657	-22,633	0,093	0,041
-413,642	800,000	0,078	0,182
-412,628	-200,000	-0,011	0,041
-411,613	800,000	-0,003	-0,007
-410,598	269,386	-0,076	-0,098
-409,584	202,587	0,037	0,042
-408,569	161,584	0,082	-0,084
-407,555	-108,286	0,102	-0,016
-406,540	800,000	-0,035	0,084
-405,525	498,311	-0,062	-0,105
-404,511	-10,751	0,006	-0,003
-403,496	-200,000	-0,020	-0,107
-402,482	16,042	0,134	0,077
-401,467	433,110	0,065	0,103
-400,452	-158,015	-0,053	-0,002
-399,438	-200,000	-0,009	0,122
-398,423	800,000	-0,029	0,091
-397,409	800,000	0,064	-0,200
-396,394	-37,119	-0,154	-0,060
-395,379	-88,647	0,051	0,011
-394,365	237,156	0,043	0,052
-393,350	708,406	0,007	-0,013
-392,336	800,000	0,038	-0,084
-391,321	800,000	-0,070	-0,152
-390,306	-76,635	-0,122	-0,031
-389,292	800,000	0,053	-0,138
-388,277	17,393	-0,057	-0,033
-387,263	800,000	0,017	-0,039
-386,248	-200,000	-0,011	0,088
-385,233	800,000	0,068	0,202
-384,219	-200,000	-0,012	-0,074
-383,204	99,524	-0,032	-0,026
-382,190	761,775	0,048	-0,096
-381,175	-54,957	-0,110	0,036
-380,160	-200,000	-0,007	0,125
-379,146	-200,000	0,008	-0,086
-378,131	800,000	0,032	-0,074
-377,117	0,562	-0,055	0,028
-376,102	800,000	0,027	-0,076
-375,088	-200,000	0,023	-0,180
-374,073	-200,000	-0,014	-0,078
-373,058	286,698	-0,020	-0,026
-372,044	-47,589	0,143	0,050
-371,029	10,078	0,080	0,044
-370,015	-82,580	0,077	-0,018
-369,000	800,000	-0,036	-0,097
-367,985	55,421	0,018	0,013
-366,971	84,063	-0,119	-0,094
-365,956	-20,968	-0,092	-0,041
-364,942	289,132	0,090	0,119
-363,927	-174,986	0,156	-0,003
-362,912	800,000	0,046	-0,133
-361,898	39,314	0,068	0,044
-360,883	-9,326	0,056	0,027
-359,869	-200,000	-0,003	-0,026
-358,854	-122,040	0,067	0,008
-357,839	-1,092	-0,047	0,024
-356,825	215,387	-0,051	-0,059
-355,810	208,281	-0,054	0,062
-354,796	721,142	0,035	0,068
-353,781	-0,356	-0,087	-0,045
-352,766	165,006	-0,110	0,113
-351,752	25,360	0,149	-0,090
-350,737	-43,913	0,092	-0,034
-349,723	243,542	0,042	0,051
-348,708	179,015	-0,036	0,038
-347,693	-101,309	-0,078	0,014
-346,679	71,588	-0,071	-0,054
-345,664	-75,536	-0,151	-0,039
-344,650	-6,581	-0,042	0,020
-343,635	-200,000	0,016	-0,174
-342,620	14,335	0,041	0,023
-341,606	-200,000	-0,033	-0,113
-340,591	-200,000	0,004	-0,037
-339,577	69,397	0,010	0,008
-338,562	-200,000	0,008	-0,134
-337,548	800,000	-0,047	-0,101
-336,533	-64,993	0,135	0,039
-335,518	-200,000	-0,002	0,128
-334,504	64,808	0,046	0,034
-333,489	-200,000	0,011	0,071
-332,475	54,273	-0,069	0,048
-331,460	158,973	-0,111	-0,112
-330,445	800,000	-0,009	0,022
-329,431	265,173	0,017	0,021
-328,416	444,567	-0,046	0,073
-327,402	371,915	-0,055	0,082
-326,387	-4,386	-0,082	-0,041
-325,372	-200,000	-0,023	-0,166
-324,358	11,614	-0,006	0,004
-323,343	-200,000	0,010	0,092
-322,329	-115,101	0,095	-0,013
-321,314	48,300	0,042	0,029
-320,299	800,000	-0,076	0,169
-319,285	251,418	0,051	-0,064
-318,270	-98,697	-0,068	0,012
-317,256	227,376	-0,047	0,055
-316,241	-70,468	0,117	0,032
-315,226	-40,958	-0,082	-0,030
-314,212	-200,000	-0,003	0,147
-313,197	-200,000	0,011	0,099
-312,183	-200,000	0,000	0,008
-311,168	154,434	0,119	-0,119
-310,153	-70,510	-0,060	-0,016
-309,139	3,290	-0,106	-0,056
-308,124	315,016	0,096	0,131
-307,110	800,000	0,039	-0,079
-306,095	97,087	0,086	-0,072
-305,080	14,544	0,044	-0,025
-304,066	72,245	0,022	0,017
-303,051	-69,941	-0,093	0,026
-302,037	746,703	-0,045	0,088
-301,022	-200,000	0,011	0,071
-300,008	10,145	0,147	0,081
-298,993	800,000	-0,046	0,120
-297,978	52,018	-0,052	-0,036
-296,964	276,180	0,075	0,096
-295,949	-8,005	0,109	-0,053
-294,935	800,000	0,015	0,044
-293,920	579,694	0,024	-0,043
-292,905	-200,000	0,024	0,113
-291,891	-84,489	0,084	-0,019
-290,876	138,252	0,025	0,024
-289,862	800,000	0,011	-0,034
-288,847	-139,999	-0,149	-0,011
-287,832	800,000	0,036	-0,097
-286,818	-200,000	-0,019	-0,148
-285,803	75,878	0,144	0,110
-284,789	-200,000	-0,015	-0,107
-283,774	-65,953	0,090	-0,026
-282,759	-200,000	0,007	0,097
-281,745	800,000	-0,014	0,035
-280,730	108,404	0,057	-0,050
-279,716	-0,776	0,079	0,040
-278,701	-28,780	0,057	-0,024
-277,686	-159,115	-0,123	0,005
-276,672	136,438	0,040	0,038
-275,657	800,000	-0,021	0,054
-274,643	-53,897	0,102	0,034
-273,628	-187,898	-0,064	-0,001
-272,613	-171,143	-0,093	-0,002
-271,599	-200,000	0,017	0,081
-270,584	177,794	-0,049	-0,051
-269,570	711,942	0,060	0,115
-268,555	-200,000	0,008	0,029
-267,540	-200,000	-0,018	-0,159
-266,526	-200,000	0,001	0,026
-265,511	325,894	0,059	0,081
-264,497	295,820	-0,082	0,110
-263,482	202,920	-0,101	0,113
-262,467	800,000	-0,040	0,104
-261,453	-200,000	0,006	0,092
-260,438	196,439	-0,071	-0,079
-259,424	33,391	0,120	-0,075
-258,409	-11,483	-0,022	-0,011
-257,395	-105,987	-0,055	-0,009
-256,380	186,871	0,063	0,068
-255,365	-118,782	0,014	-0,002
-254,351	-200,000	-0,004	-0,052
-253,336	-19,690	-0,070	0,031
-252,322	-76,507	0,070	-0,018
-251,307	-181,822	-0,077	0,001
-250,292	256,202	-0,040	-0,049
-249,278	26,144	0,019	0,011
-248,263	-162,162	0,089	0,003
-247,249	-36,566	-0,082	-0,032
-246,234	-200,000	0,028	0,098
-245,219	166,359	-0,020	-0,020
-244,205	-146,937	0,041	0,003
-243,190	-14,901	0,076	0,035
-242,176	-200,000	0,005	-0,126
-241,161	160,826	-0,027	-0,027
-240,146	800,000	0,006	-0,014
-239,132	800,000	-0,022	-0,063
-238,117	800,000	0,066	-0,156
-237,103	-200,000	-0,012	-0,057
-236,088	800,000	0,009	-0,024
-235,073	800,000	-0,041	0,096
-234,059	-61,283	0,128	-0,039
-233,044	-12,446	-0,224	-0,106
-232,030	234,868	0,028	-0,033
-231,015	53,055	0,037	-0,025
-230,000	-118,406	0,096	0,012
-228,986	-200,000	-0,129	-0,000
-227,971	-200,000	-0,000	-0,037
-226,957	800,000	0,072	0,151
-225,942	-200,000	-0,034	0,142
-224,927	-128,599	-0,082	0,008
-223,913	-43,616	-0,110	-0,040
-222,898	800,000	0,022	-0,045
-221,884	-166,087	0,019	0,001
-220,869	25,974	0,071	-0,042
-219,855	165,037	0,081	-0,083
-218,840	701,119	0,028	-0,054
-217,825	223,688	0,096	-0,112
-216,811	413,993	-0,036	-0,056
-215,796	379,921	-0,106	-0,158
-214,782	-200,000	0,026	-0,163
-213,767	31,172	0,174	-0,108
-212,752	-200,000	-0,010	-0,044
-211,738	83,315	-0,073	-0,058
-210,723	526,660	0,064	0,109
-209,709	-50,803	-0,154	-0,052
-208,694	-106,837	-0,064	0,010
-207,679	626,614	0,010	-0,018
-206,665	-200,000	0,038	0,146
-205,650	800,000	0,007	0,014
-204,636	-133,708	0,037	0,003
-203,621	76,830	-0,066	0,051
-202,606	-200,000	-0,007	-0,081
-201,592	-200,000	-0,016	-0,103
-200,577	-70,676	0,176	0,048
-199,563	-5,780	-0,065	-0,032
-198,548	-95,238	0,185	-0,036
-197,533	97,433	-0,063	0,052
-196,519	16,109	-0,077	0,044
-195,504	8,056	0,152	0,082
-194,490	-200,000	-0,007	0,067
-193,475	13,864	-0,053	-0,029
-192,460	670,519	0,095	-0,179
-191,446	-200,000	-0,010	0,120
-190,431	-127,422	0,164	-0,017
-189,417	-109,497	-0,060	0,009
-188,402	201,822	0,064	-0,071
-187,387	-77,011	-0,100	0,025
-186,373	-200,000	-0,031	-0,166
-185,358	-45,835	-0,107	-0,038
-184,344	-200,000	0,021	0,115
-183,329	-67,307	-0,064	0,018
-182,315	-200,000	-0,029	-0,116
-181,300	-31,737	-0,123	-0,049
-180,285	-65,417	-0,050	0,014
-179,271	-200,000	0,009	-0,031
-178,256	-148,596	-0,094	-0,005
-177,242	-73,816	0,105	0,027
-176,227	161,445	0,147	0,148
-175,212	612,670	-0,021	0,038
-174,198	117,399	-0,069	0,061
-173,183	311,535	-0,104	-0,141
-172,169	124,662	0,087	-0,079
-171,154	-200,000	0,019	0,094
-170,139	-200,000	-0,004	-0,041
-169,125	-200,000	-0,014	0,044
-168,110	374,523	0,016	-0,024
-167,096	800,000	0,031	0,079
-166,081	148,061	0,036	-0,035
-165,066	251,656	0,061	-0,074
-164,052	128,140	-0,126	-0,116
-163,037	142,006	0,057	-0,055
-162,023	-200,000	-0,007	0,090
-161,008	800,000	-0,010	0,032
-159,993	-200,000	-0,014	0,146
-158,979	210,240	0,006	-0,007
-157,964	-159,227	-0,077	-0,003
-156,950	-146,064	-0,125	0,008
-155,935	100,921	0,087	-0,073
-154,920	367,599	-0,020	-0,030
-153,906	-58,176	0,152	-0,048
-152,891	331,674	0,070	-0,097
-151,877	800,000	-0,029	-0,061
-150,862	78,700	-0,081	-0,063
-149,847	83,191	0,019	0,015
-148,833	800,000	0,025	-0,071
-147,818	107,924	-0,077	-0,066
-146,804	540,661	-0,071	0,122
-145,789	-159,097	-0,109	-0,004
-144,775	-200,000	0,008	-0,100
-143,760	800,000	-0,106	-0,215
-142,745	-200,000	0,004	-0,049
-141,731	800,000	-0,034	-0,069
-140,716	-200,000	0,000	0,025
-139,702	370,634	0,062	0,091
-138,687	-200,000	-0,010	-0,037
-137,672	-48,956	-0,147	0,051
-136,658	468,243	0,062	-0,100
-135,643	-200,000	-0,006	-0,056
-134,629	317,278	-0,079	-0,107
-133,614	-200,000	0,000	0,077
-132,599	62,886	0,115	0,083
-131,585	800,000	-0,042	0,106
-130,570	-200,000	0,011	-0,163
-129,556	-153,294	-0,075	-0,004
-128,541	-200,000	0,004	-0,052
-127,526	-200,000	0,007	0,034
-126,512	800,000	0,052	0,105
-125,497	307,212	0,124	0,167
-124,483	-165,416	0,118	-0,004
-123,468	-85,400	-0,098	0,022
-122,453	-4,229	0,071	-0,035
-121,439	-69,468	0,066	-0,018
-120,424	-200,000	-0,030	0,111
-119,410	-200,000	0,011	0,047
-118,395	189,583	-0,057	0,061
-117,380	800,000	0,026	-0,056
-116,366	-200,000	0,013	-0,053
-115,351	441,171	-0,051	0,080
-114,337	800,000	0,059	-0,126
-113,322	800,000	-0,067	-0,133
-112,307	65,525	0,092	-0,067
-111,293	-10,199	0,018	0,009
-110,278	-200,000	-0,001	0,003
-109,264	463,134	0,127	0,205
-108,249	450,404	0,037	0,059
-107,234	-42,074	-0,156	0,057
-106,220	108,965	0,025	-0,021
-105,205	-151,087	0,127	-0,007
-104,191	680,088	0,064	0,120
-103,176	-200,000	0,014	0,056
-102,162	185,317	0,118	0,126
-101,147	-95,767	0,079	0,015
-100,132	-110,596	0,043	0,006
-99,118	63,099	0,050	0,036
-98,103	-165,472	-0,115	-0,004
-97,089	-146,570	0,101	0,006
-96,074	538,187	-0,020	-0,034
-95,059	114,769	-0,085	0,075
-94,045	211,455	-0,084	-0,095
-93,030	800,000	-0,034	-0,071
-92,016	-200,000	0,001	-0,118
-91,001	-200,000	-0,006	0,051
-89,986	224,901	0,047	0,054
-88,972	598,851	0,065	0,116
-87,957	-200,000	-0,006	0,174
-86,943	-200,000	-0,006	-0,075
-85,928	-200,000	0,020	-0,135
-84,913	800,000	-0,008	-0,020
-83,899	-200,000	0,008	0,039
-82,884	-200,000	0,007	0,133
-81,870	-200,000	-0,001	0,200
-80,855	800,000	0,037	0,118
-79,840	45,794	0,136	-0,090
-78,826	260,918	-0,067	-0,084
-77,811	-200,000	-0,017	0,057
-76,797	-58,060	0,087	0,027
-75,782	105,482	0,021	-0,018
-74,767	248,015	0,042	-0,051
-73,753	404,827	-0,107	-0,163
-72,738	-200,000	0,019	0,166
-71,724	533,068	-0,042	-0,071
-70,709	717,937	-0,057	0,109
-69,694	800,000	-0,095	-0,222
-68,680	-31,246	0,074	0,030
-67,665	800,000	0,053	0,142
-66,651	21,591	-0,068	-0,039
-65,636	167,281	-0,022	0,022
-64,622	25,926	-0,078	0,047
-63,607	-200,000	0,000	-0,076
-62,592	800,000	-0,030	0,075
-61,578	-200,000	-0,007	0,023
-60,563	244,752	-0,048	0,058
-59,549	189,727	-0,060	0,064
-58,534	79,514	-2,767	-2,130
-57,519	-25,601	0,564	-0,238
-56,505	-200,000	-1,680	-5,480
-55,490	497,597	1,217	2,019
-54,476	800,000	5,165	11,063
-53,461	-200,000	22,203	346,596
-52,446	800,000	759,861	2299,321
-51,432	515,839	1646,550	2771,853
-50,417	98,681	1610,854	1333,404
-49,403	66,735	1267,517	924,784
-48,388	23,458	1018,234	599,586
-47,373	19,216	985,167	566,098
-46,359	12,920	972,316	538,086
-45,344	8,691	969,217	522,486
-44,330	9,141	967,096	522,796
-43,315	8,189	965,242	518,661
-42,300	8,116	964,154	517,817
-41,286	8,132	963,060	517,261
-40,271	8,103	962,179	516,672
-39,257	8,055	961,224	515,983
-38,242	8,123	960,334	515,707
-37,227	8,057	959,603	515,079
-36,213	8,045	958,794	514,585
-35,198	8,057	957,900	514,123
-34,184	8,109	957,234	513,913
-33,169	8,065	956,123	513,155
-32,154	8,089	955,148	512,691
-31,140	8,106	954,466	512,356
-30,125	8,144	953,651	512,022
-29,111	8,149	952,743	511,530
-28,096	8,155	952,070	511,167
-27,082	8,131	951,463	510,744
-26,067	8,140	950,825	510,412
-25,052	8,059	950,013	509,694
-24,038	8,037	949,340	509,242
-23,023	8,090	948,602	508,997
-22,009	8,079	948,083	508,662
-20,994	8,159	947,215	508,433
-19,979	8,139	946,828	508,143
-18,965	8,143	946,026	507,704
-17,950	8,107	945,786	507,441
-16,936	8,053	944,910	506,777
-15,921	8,025	944,145	506,258
-14,906	8,035	943,325	505,828
-13,892	7,977	942,964	505,432
-12,877	7,965	942,322	505,029
-11,863	8,020	941,659	504,828
-10,848	7,975	941,130	504,383
-9,833	8,077	940,707	504,459
-8,819	8,026	939,802	503,792
-7,804	7,966	939,385	503,358
-6,790	7,961	938,725	502,967
-5,775	8,052	938,231	502,973
-4,760	7,991	937,548	502,392
-3,746	8,000	936,900	502,053
-2,731	7,876	936,229	501,282
-1,717	7,836	935,562	500,778
-0,702	7,803	934,849	500,273
0,313	7,725	934,256	500,464
1,327	11,133	932,006	509,962
2,342	19,854	780,402	449,881
3,356	14,928	448,689	251,209
4,371	-11,429	313,014	147,173
5,386	-15,206	295,773	135,224
6,400	-17,201	289,501	130,363
7,415	-17,562	286,968	128,855
8,429	-18,109	284,924	127,391
9,444	-18,292	284,150	126,856
10,459	-18,139	283,558	126,729
11,473	-18,075	282,820	126,450
12,488	-18,096	282,297	126,185
13,502	-18,324	281,893	125,772
14,517	-18,157	281,487	125,741
15,531	-18,226	280,913	125,407
16,546	-18,032	280,838	125,549
17,561	-18,092	280,279	125,231
18,575	-18,042	279,837	125,070
19,590	-18,248	279,470	124,697
20,604	-18,074	279,227	124,744
21,619	-18,166	278,879	124,490
22,634	-18,112	278,521	124,371
23,648	-18,208	278,154	124,104
24,663	-18,242	278,016	123,999
25,677	-18,110	277,655	123,952
26,692	-18,125	277,562	123,886
27,707	-18,011	277,094	123,774
28,721	-18,039	276,841	123,624
29,736	-18,130	276,617	123,427
30,750	-18,035	276,355	123,388
31,765	-18,269	276,251	123,109
32,780	-18,362	275,849	122,831
33,794	-18,003	275,589	123,044
34,809	-18,093	275,237	122,790
35,823	-18,233	275,067	122,572
36,838	-18,071	274,746	122,570
37,853	-17,955	274,475	122,548
38,867	-18,054	274,279	122,356
39,882	-18,115	274,082	122,200
40,896	-17,921	273,829	122,258
41,911	-17,877	273,468	122,127
42,926	-18,031	273,324	121,908
43,940	-18,287	273,183	121,595
44,955	-18,057	272,779	121,619
45,969	-18,154	272,586	121,432
46,984	-18,057	272,405	121,431
47,999	-18,253	272,310	121,195
49,013	-17,949	272,029	121,341
50,028	-17,977	271,678	121,148
51,042	-17,907	271,414	121,084
52,057	-18,110	271,358	120,860
53,071	-17,936	271,237	120,957
54,086	-18,159	270,938	120,607
55,101	-17,955	270,576	120,623
56,115	-18,030	270,407	120,468
57,130	-18,100	270,212	120,306
58,144	-18,174	269,910	120,092
59,159	-17,948	269,640	120,169
60,174	-17,948	269,395	120,050
61,188	-18,155	269,265	119,791
62,203	-18,051	268,851	119,691
63,217	-18,074	268,752	119,616
64,232	-17,785	268,394	119,710
65,247	-17,946	268,255	119,490
66,261	-18,151	267,960	119,161
67,276	-17,891	267,779	119,307
68,290	-17,963	267,625	119,162
69,305	-17,877	267,458	119,156
70,320	-17,836	267,112	119,028
71,334	-17,937	266,883	118,824
72,349	-18,107	266,736	118,593
73,363	-17,896	266,447	118,645
74,378	-18,145	266,168	118,285
75,393	-17,983	265,949	118,324
76,407	-17,937	265,701	118,245
77,422	-18,006	265,589	118,122
78,436	-18,102	265,427	117,953
79,451	-18,124	265,150	117,799
80,466	-17,984	264,774	117,748
81,480	-18,033	264,817	117,712
82,495	-17,830	264,228	117,623
83,509	-18,043	264,262	117,436
84,524	-18,013	263,986	117,329
85,539	-17,823	263,864	117,435
86,553	-17,969	263,552	117,154
87,568	-18,064	263,444	117,011
88,582	-18,164	263,237	116,819
89,597	-18,027	263,062	116,853
90,611	-17,991	262,809	116,764
91,626	-17,835	262,417	116,718
92,641	-17,968	262,443	116,600
93,655	-17,820	261,947	116,501
94,670	-18,017	261,980	116,330
95,684	-17,974	261,632	116,204
96,699	-17,951	261,553	116,178
97,714	-17,870	261,367	116,158
98,728	-17,933	261,114	115,979
99,743	-18,085	260,911	115,743
100,757	-17,903	260,685	115,794
101,772	-18,004	260,559	115,638
102,787	-17,936	260,291	115,569
103,801	-17,929	259,989	115,431
104,816	-17,947	259,840	115,339
105,830	-18,039	259,567	115,126
106,845	-18,107	259,451	115,004
107,860	-17,837	259,376	115,199
108,874	-18,012	259,062	114,895
109,889	-17,980	258,780	114,788
110,903	-18,145	258,525	114,520
111,918	-17,969	258,411	114,614
112,933	-17,880	258,307	114,636
113,947	-17,813	258,011	114,552
114,962	-17,842	257,783	114,416
115,976	-17,960	257,716	114,273
116,991	-17,979	257,426	114,117
118,006	-17,863	257,243	114,127
119,020	-17,737	256,987	114,114
120,035	-17,967	257,061	113,935
121,049	-17,982	256,806	113,799
122,064	-17,857	256,430	113,731
123,079	-18,009	256,405	113,577
124,093	-17,987	256,137	113,468
125,108	-17,916	255,866	113,399
126,122	-18,036	255,775	113,245
127,137	-17,830	255,575	113,325
128,151	-17,861	255,327	113,178
129,166	-17,700	255,179	113,242
130,181	-17,874	254,923	112,967
131,195	-18,026	254,815	112,778
132,210	-17,764	254,643	112,918
133,224	-17,932	254,331	112,624
134,239	-17,981	254,212	112,519
135,254	-17,767	253,884	112,549
136,268	-17,874	253,645	112,341
137,283	-17,887	253,449	112,232
138,297	-17,889	253,333	112,170
139,312	-17,839	253,096	112,097
140,327	-17,821	252,944	112,036
141,341	-17,921	252,826	111,888
142,356	-17,904	252,543	111,767
143,370	-17,827	252,264	111,700
144,385	-17,804	252,200	111,681
145,400	-17,807	251,947	111,556
146,414	-17,684	251,642	111,516
147,429	-17,807	251,510	111,343
148,443	-17,906	251,416	111,207
149,458	-17,908	251,223	111,110
150,473	-17,697	251,042	111,200
151,487	-17,886	250,726	110,889
152,502	-17,878	250,771	110,906
153,516	-17,978	250,475	110,680
154,531	-17,940	250,344	110,645
155,546	-17,844	250,156	110,633
156,560	-18,040	250,149	110,454
157,575	-17,726	249,609	110,471
158,589	-17,840	249,524	110,327
159,604	-17,803	249,226	110,217
160,619	-17,846	249,106	110,119
161,633	-17,893	248,937	109,994
162,648	-17,903	248,973	109,992
163,662	-17,814	248,717	109,944
164,677	-17,794	248,497	109,853
165,692	-17,877	248,342	109,705
166,706	-17,878	248,257	109,657
167,721	-17,868	247,846	109,474
168,735	-17,879	248,011	109,528
169,750	-17,731	247,637	109,477
170,764	-17,802	247,422	109,313
171,779	-17,843	247,329	109,228
172,794	-17,726	247,101	109,215
173,808	-17,816	246,913	109,047
174,823	-17,896	246,804	108,922
175,837	-17,800	246,649	108,924
176,852	-17,801	246,526	108,860
177,867	-17,851	246,360	108,735
178,881	-17,716	246,225	108,778
179,896	-17,779	246,046	108,637
180,910	-17,652	245,743	108,599
181,925	-17,943	245,610	108,289
182,940	-17,781	245,376	108,310
183,954	-17,676	245,202	108,311
184,969	-17,730	245,144	108,230
185,983	-17,792	245,051	108,129
186,998	-17,964	244,721	107,832
188,013	-17,670	244,490	107,962
189,027	-17,836	244,451	107,799
190,042	-17,608	244,063	107,806
191,056	-17,821	244,117	107,645
192,071	-17,923	243,834	107,426
193,086	-17,715	243,481	107,432
194,100	-17,567	243,253	107,443
195,115	-17,689	243,270	107,341
196,129	-17,556	242,956	107,302
197,144	-17,765	242,720	107,017
198,159	-17,695	242,680	107,047
199,173	-17,787	242,511	106,888
200,188	-17,790	242,329	106,795
201,202	-17,838	242,311	106,740
202,217	-17,612	242,105	106,823
203,232	-17,721	241,787	106,585
204,246	-17,592	241,549	106,575
205,261	-17,855	241,422	106,296
206,275	-16,238	241,909	107,819
207,290	-11,546	243,722	112,470
208,304	-5,355	245,447	118,364
209,319	-3,223	246,052	120,405
210,334	-2,535	246,183	121,026
211,348	-1,655	246,213	121,755
212,363	-1,097	246,180	122,189
213,377	-0,585	246,418	122,718
214,392	-0,080	246,530	123,179
215,407	0,385	246,499	123,535
216,421	0,329	246,266	123,362
217,436	0,399	246,112	123,331
218,450	0,602	245,915	123,388
219,465	0,671	245,910	123,432
220,480	0,701	245,605	123,292
221,494	0,639	245,576	123,216
222,509	0,234	245,325	122,747
223,523	0,242	245,050	122,605
224,538	-0,055	244,900	122,276
225,553	0,176	244,698	122,353
226,567	0,167	244,451	122,211
227,582	0,255	244,232	122,163
228,596	-0,039	244,280	121,936
229,611	0,088	244,050	121,914
230,626	0,090	243,865	121,812
231,640	0,194	243,522	121,715
232,655	0,027	243,467	121,541
233,669	0,116	243,247	121,492
234,684	-0,007	243,174	121,345
235,699	0,089	242,981	121,315
236,713	0,034	242,921	121,230
237,728	-0,096	242,740	121,024
238,742	0,121	242,427	121,032
239,757	0,081	242,344	120,947
240,772	-0,125	242,325	120,761
241,786	-0,100	242,044	120,630
242,801	-0,042	241,851	120,570
243,815	-0,012	241,813	120,565
244,830	0,046	241,576	120,482
245,844	-0,087	241,458	120,305
246,859	-0,012	241,282	120,268
247,874	0,248	241,041	120,346
248,888	0,082	241,158	120,261
249,903	0,024	240,839	120,044
250,917	0,094	240,725	120,032
251,932	0,150	240,576	119,993
252,947	0,233	240,230	119,875
253,961	0,112	240,305	119,805
254,976	0,180	240,004	119,699
255,990	0,201	239,788	119,597
257,005	0,186	239,715	119,538
258,020	0,027	239,646	119,366
259,034	0,100	239,431	119,307
260,049	0,104	239,446	119,307
261,063	0,168	239,209	119,229
262,078	0,000	238,959	118,960
263,093	0,041	238,877	118,941
264,107	0,190	238,624	118,923
265,122	0,223	238,444	118,849
266,136	0,070	238,417	118,703
267,151	0,118	238,269	118,657
268,166	0,165	238,032	118,566
269,180	-0,028	237,907	118,341
270,195	0,087	237,724	118,329
271,209	-0,000	237,586	118,181
272,224	0,104	237,426	118,174
273,239	0,304	237,164	118,190
274,253	0,067	237,094	117,959
275,268	0,058	236,767	117,777
276,282	0,056	236,699	117,732
277,297	-0,112	236,644	117,562
278,312	0,247	236,445	117,735
279,326	0,250	236,269	117,639
280,341	0,397	236,096	117,658
281,355	0,318	236,088	117,581
282,370	0,123	235,969	117,359
283,384	-0,009	235,754	117,138
284,399	0,098	235,638	117,153
285,414	0,002	235,432	116,966
286,428	0,061	235,594	117,081
287,443	0,271	235,113	116,996
288,457	0,170	234,905	116,803
289,472	0,314	234,626	116,767
290,487	0,013	234,814	116,615
291,501	0,180	234,535	116,596
292,516	0,122	234,474	116,510
293,530	0,275	234,338	116,551
294,545	0,109	234,142	116,315
295,560	0,480	233,954	116,499
296,574	0,118	233,875	116,168
297,589	0,111	233,765	116,097
298,603	0,262	233,681	116,163
299,618	0,411	233,452	116,154
300,633	0,381	233,234	116,011
301,647	0,370	233,055	115,904
302,662	0,239	232,971	115,751
303,676	0,511	232,836	115,883
304,691	0,499	232,658	115,775
305,706	0,303	232,533	115,551
306,720	0,574	232,267	115,617
307,735	0,435	232,185	115,459
308,749	0,576	232,039	115,485
309,764	0,489	231,919	115,348
310,779	0,263	231,882	115,146
311,793	0,395	231,612	115,103
312,808	0,428	231,581	115,102
313,822	0,182	231,372	114,800
314,837	0,451	231,303	114,961
315,852	0,436	231,076	114,827
316,866	0,536	230,994	114,852
317,881	0,487	230,643	114,630
318,895	0,389	230,521	114,485
319,910	0,408	230,413	114,435
320,925	0,551	230,189	114,422
321,939	0,370	230,115	114,237
322,954	0,560	230,125	114,377
323,968	0,457	229,884	114,169
324,983	0,593	229,743	114,192
325,997	0,637	229,497	114,093
327,012	0,630	229,296	113,978
328,027	0,369	229,237	113,741
329,041	0,561	229,102	113,808
330,056	0,641	228,963	113,790
331,070	0,392	228,937	113,578
332,085	0,494	228,640	113,498
333,100	0,686	228,455	113,541
334,114	0,539	228,369	113,377
335,129	0,613	228,147	113,313
336,143	0,508	227,990	113,146
337,158	0,493	227,895	113,077
338,173	0,540	227,755	113,033
339,187	0,540	227,749	113,020
340,202	0,692	227,580	113,040
341,216	0,530	227,449	112,843
342,231	0,639	227,158	112,770
343,246	0,654	227,003	112,695
344,260	0,887	226,940	112,829
345,275	1,078	226,780	112,882
346,289	0,792	226,759	112,647
347,304	0,800	226,636	112,582
348,319	0,547	226,334	112,233
349,333	0,539	226,294	112,197
350,348	0,542	226,087	112,086
351,362	0,644	226,020	112,119
352,377	0,601	225,798	111,967
353,392	0,509	225,810	111,895
354,406	0,766	225,581	111,962
355,421	192,884	1312,903	1381,146
356,435	154,530	1445,235	1380,983
