DTS Sentinel unit serial number:	SN410029Multiplexer serial number:	ORYXHardware model number:	OX2-SRSoftware version number:	ORYX F/W v4,00 Oryx Data Collector v3.7.2.0data status	okinstallation	B5 Nyhavnadifferential loss correction	single-endedforward channel	channel 2reverse channel	N/Adate	2023/12/13time	14:32:14forward acquisition time	300,00reverse acquisition time	0,00gamma	499,1914k internal	0,3160k external	0,3160temperature offset calibration	1,0000default loss term (dB/km)	0,3820temperature slope calibration	1,0000multiplexer offset coefficient	1,0000multiplexer slope coefficient	1,0000fibre end	0,00T internal ref (°C)	14,96T ext. ref 1 (°C)	-1,24T ext. ref 2 (°C)	-1,53length (m)	temperature (°C)	Stokes	anti-Stokes-744,400	571,941	0,041	-0,073
-743,385	-93,041	-0,364	0,074
-742,371	143,592	0,167	0,164
-741,356	-32,593	-0,345	0,141
-740,342	26,154	0,127	0,078
-739,327	-75,015	-0,236	-0,062
-738,312	20,308	0,113	0,067
-737,298	-75,015	-0,266	-0,070
-736,283	-144,513	0,211	-0,014
-735,269	-85,393	-0,318	0,072
-734,254	-24,471	0,183	0,080
-733,239	-10,760	-0,515	-0,250
-732,225	-43,070	0,193	0,072
-731,210	350,433	0,020	0,030
-730,196	84,060	0,045	0,036
-729,181	-200,000	-0,013	0,043
-728,167	783,328	-0,053	-0,108
-727,152	800,000	-0,029	0,063
-726,137	240,997	-0,067	-0,082
-725,123	-148,457	-0,237	-0,014
-724,108	-93,904	-0,089	0,018
-723,094	-200,000	-0,003	-0,014
-722,079	-0,937	-0,089	-0,046
-721,064	-200,000	0,005	0,066
-720,050	470,459	0,001	-0,002
-719,035	-200,000	-0,056	0,199
-718,021	691,551	0,068	-0,131
-717,006	800,000	-0,075	-0,185
-715,991	-38,292	-0,102	0,040
-714,977	-200,000	-0,001	-0,146
-713,962	-142,088	0,028	-0,002
-712,948	-43,731	0,076	0,028
-711,933	-102,435	0,053	-0,009
-710,918	800,000	-0,039	-0,105
-709,904	800,000	-0,043	-0,106
-708,889	-115,887	-0,263	-0,036
-707,875	-200,000	-0,039	-0,158
-706,860	589,752	0,126	0,229
-705,845	-139,720	0,074	0,006
-704,831	-54,744	-0,020	-0,007
-703,816	-96,491	0,074	-0,014
-702,802	800,000	-0,044	-0,114
-701,787	-200,000	-0,017	-0,152
-700,772	483,253	-0,036	-0,061
-699,758	-76,694	0,117	-0,030
-698,743	-200,000	-0,006	0,038
-697,729	-200,000	-0,006	-0,077
-696,714	21,011	-0,050	-0,029
-695,699	-200,000	0,025	0,087
-694,685	-161,625	-0,157	0,006
-693,670	130,778	-0,126	-0,119
-692,656	677,685	0,027	-0,051
-691,641	-41,971	0,139	0,052
-690,627	800,000	0,065	0,149
-689,612	84,323	0,069	-0,056
-688,597	-96,171	-0,123	0,024
-687,583	-8,754	-0,075	-0,037
-686,568	168,284	0,050	0,052
-685,554	-200,000	-0,032	-0,119
-684,539	-200,000	-0,006	0,045
-683,524	-200,000	-0,029	0,115
-682,510	89,009	0,089	-0,073
-681,495	800,000	0,005	-0,017
-680,481	-101,111	-0,076	0,014
-679,466	132,966	-0,040	-0,038
-678,451	800,000	-0,084	-0,183
-677,437	58,921	-0,055	-0,040
-676,422	103,601	0,046	0,039
-675,408	-200,000	0,003	-0,031
-674,393	-37,540	0,065	-0,025
-673,378	-103,957	-0,074	-0,013
-672,364	-53,724	-0,085	-0,028
-671,349	-46,927	-0,215	-0,077
-670,335	-200,000	0,015	0,062
-669,320	527,674	-0,013	0,023
-668,305	629,930	-0,057	0,106
-667,291	800,000	-0,056	-0,124
-666,276	131,477	-0,091	-0,086
-665,262	176,867	-0,172	-0,184
-664,247	566,298	0,026	0,047
-663,232	126,426	0,034	-0,032
-662,218	-200,000	0,019	0,081
-661,203	-200,000	0,018	0,109
-660,189	-200,000	0,012	-0,064
-659,174	489,291	0,056	-0,094
-658,159	800,000	0,038	-0,105
-657,145	-200,000	-0,011	-0,111
-656,130	-39,260	-0,121	-0,046
-655,116	31,895	0,149	-0,094
-654,101	-200,000	-0,006	-0,032
-653,086	130,112	-0,073	0,069
-652,072	304,448	-0,047	-0,064
-651,057	58,148	0,055	-0,039
-650,043	-105,122	-0,144	-0,024
-649,028	695,711	-0,026	0,051
-648,014	113,765	0,027	-0,024
-646,999	-200,000	-0,001	-0,055
-645,984	800,000	0,033	-0,085
-644,970	-7,036	-0,071	0,035
-643,955	251,378	-0,081	-0,101
-642,941	38,370	0,087	0,057
-641,926	-174,621	0,052	0,001
-640,911	-13,934	0,135	-0,064
-639,897	-200,000	-0,002	0,146
-638,882	800,000	-0,011	-0,034
-637,868	33,204	-0,107	-0,068
-636,853	66,000	-0,119	-0,088
-635,838	-200,000	-0,000	-0,079
-634,824	4,135	-0,137	0,073
-633,809	-200,000	0,022	0,134
-632,795	51,295	0,096	-0,067
-631,780	180,861	0,080	0,086
-630,765	800,000	-0,019	-0,050
-629,751	20,905	-0,028	0,016
-628,736	-33,257	-0,045	-0,018
-627,722	432,980	-0,042	-0,068
-626,707	-200,000	0,010	-0,060
-625,692	-116,546	-0,067	0,009
-624,678	22,174	-0,055	0,033
-623,663	566,523	0,008	0,014
-622,649	47,214	-0,057	0,039
-621,634	116,587	-0,185	-0,166
-620,619	-200,000	-0,050	0,000
-619,605	179,361	-0,114	-0,122
-618,590	-200,000	-0,014	0,080
-617,576	216,181	0,104	-0,122
-616,561	328,670	0,084	0,118
-615,546	-88,038	-0,196	-0,043
-614,532	385,725	0,041	-0,063
-613,517	-112,954	0,079	0,011
-612,503	328,610	-0,014	0,020
-611,488	-31,726	0,129	0,053
-610,474	317,690	0,077	0,107
-609,459	800,000	-0,046	0,112
-608,444	-185,795	0,042	0,000
-607,430	-171,134	-0,170	-0,004
-606,415	-106,017	0,139	0,023
-605,401	41,517	-0,100	0,066
-604,386	762,467	-0,080	0,159
-603,371	28,198	0,041	-0,025
-602,357	-147,009	0,080	-0,005
-601,342	488,933	0,026	0,044
-600,328	272,506	0,019	0,024
-599,313	369,521	0,044	0,065
-598,298	-72,215	-0,072	0,019
-597,284	265,655	0,047	0,060
-596,269	-200,000	-0,014	0,049
-595,255	156,468	0,047	-0,048
-594,240	612,741	-0,054	0,099
-593,225	-3,063	0,108	0,055
-592,211	-3,849	-0,085	0,043
-591,196	204,239	0,151	0,172
-590,182	-143,259	0,100	-0,007
-589,167	44,069	0,056	-0,037
-588,152	240,441	0,046	-0,056
-587,138	-200,000	-0,005	-0,038
-586,123	-95,699	-0,160	0,031
-585,109	800,000	0,045	-0,096
-584,094	-148,382	0,230	-0,014
-583,079	-81,908	0,066	-0,016
-582,065	-32,617	0,133	-0,054
-581,050	-11,863	0,127	-0,061
-580,036	147,164	-0,163	0,161
-579,021	-200,000	-0,018	-0,097
-578,006	-71,360	-0,056	0,015
-576,992	-200,000	0,005	0,018
-575,977	470,289	-0,020	-0,033
-574,963	429,321	-0,103	-0,163
-573,948	116,799	0,049	0,044
-572,934	91,100	0,074	-0,061
-571,919	168,297	0,052	-0,054
-570,904	800,000	-0,048	-0,124
-569,890	-200,000	-0,012	-0,066
-568,875	800,000	-0,015	0,036
-567,861	-108,389	0,120	0,019
-566,846	509,130	0,049	0,083
-565,831	20,406	0,102	0,060
-564,817	800,000	-0,018	-0,048
-563,802	-89,260	-0,044	-0,009
-562,788	-44,828	0,086	0,031
-561,773	-98,408	0,133	0,025
-560,758	-91,400	-0,071	-0,015
-559,744	117,830	0,080	0,072
-558,729	135,355	-0,042	-0,040
-557,715	259,873	0,035	0,044
-556,700	640,031	-0,094	0,177
-555,685	-55,154	-0,098	-0,032
-554,671	36,459	0,105	0,068
-553,656	-8,743	-0,051	0,025
-552,642	-192,970	0,053	-0,000
-551,627	-20,370	-0,081	-0,036
-550,612	-200,000	0,001	-0,025
-549,598	59,698	-0,045	-0,032
-548,583	-81,913	-0,135	-0,032
-547,569	-115,525	0,084	0,011
-546,554	800,000	0,057	-0,178
-545,539	108,286	0,047	-0,041
-544,525	131,617	-0,054	-0,051
-543,510	800,000	-0,080	-0,217
-542,496	189,369	0,054	-0,059
-541,481	800,000	-0,047	-0,108
-540,466	800,000	0,019	0,055
-539,452	451,485	0,081	0,132
-538,437	-38,460	0,087	-0,034
-537,423	-165,974	-0,071	0,002
-536,408	-200,000	0,001	-0,035
-535,393	800,000	-0,107	-0,220
-534,379	-200,000	-0,013	-0,101
-533,364	-119,641	-0,094	0,012
-532,350	459,540	0,107	0,174
-531,335	-15,679	-0,021	-0,010
-530,321	-200,000	-0,014	0,096
-529,306	-200,000	-0,007	0,062
-528,291	26,470	-0,102	-0,062
-527,277	-11,359	-0,091	-0,044
-526,262	524,310	0,040	-0,068
-525,248	-71,432	-0,096	-0,026
-524,233	-95,617	0,145	0,028
-523,218	-101,671	-0,069	0,012
-522,204	800,000	-0,014	-0,043
-521,189	-60,418	0,052	0,016
-520,175	-83,632	-0,125	0,029
-519,160	-200,000	-0,006	-0,044
-518,145	800,000	-0,039	0,100
-517,131	124,174	0,078	-0,072
-516,116	443,130	-0,038	0,062
-515,102	23,053	0,067	-0,040
-514,087	469,314	-0,067	-0,111
-513,072	299,279	-0,052	0,070
-512,058	-200,000	0,005	0,045
-511,043	-119,912	-0,084	0,010
-510,029	126,748	0,071	0,065
-509,014	800,000	0,008	0,017
-507,999	322,921	-0,053	0,074
-506,985	611,454	-0,028	0,052
-505,970	93,705	0,071	-0,059
-504,956	8,597	-0,062	-0,034
-503,941	46,979	0,071	0,048
-502,926	25,412	0,072	0,043
-501,912	800,000	0,034	-0,070
-500,897	800,000	0,032	-0,089
-499,883	-135,083	-0,120	-0,010
-498,868	-142,798	-0,140	-0,010
-497,853	117,489	-0,042	0,038
-496,839	670,838	0,035	-0,066
-495,824	-200,000	0,009	0,033
-494,810	800,000	-0,059	-0,126
-493,795	-200,000	0,009	0,066
-492,781	503,224	-0,025	-0,042
-491,766	-200,000	0,019	-0,070
-490,751	-200,000	0,017	-0,137
-489,737	76,200	-0,143	-0,110
-488,722	-109,808	0,181	0,027
-487,708	-99,056	-0,072	0,013
-486,693	183,753	-0,038	-0,041
-485,678	-200,000	0,003	-0,067
-484,664	-200,000	0,008	-0,106
-483,649	217,955	-0,073	-0,085
-482,635	-59,366	-0,042	-0,013
-481,620	-200,000	-0,010	-0,093
-480,605	67,321	0,083	0,062
-479,591	-61,782	-0,036	0,011
-478,576	800,000	0,018	0,043
-477,562	329,040	0,017	-0,024
-476,547	-184,760	-0,106	0,001
-475,532	127,562	-0,081	0,075
-474,518	-200,000	0,018	-0,061
-473,503	64,645	-0,001	-0,001
-472,489	-108,006	0,075	0,012
-471,474	-27,736	0,073	-0,031
-470,459	386,894	-0,067	-0,101
-469,445	800,000	0,022	-0,052
-468,430	210,012	-0,027	0,031
-467,416	81,980	0,078	0,061
-466,401	-82,577	0,071	0,017
-465,386	-200,000	0,027	0,220
-464,372	39,418	-0,028	-0,019
-463,357	-99,553	-0,187	0,034
-462,343	245,987	0,045	-0,055
-461,328	-200,000	0,014	-0,065
-460,313	-50,964	0,027	0,009
-459,299	-200,000	0,007	0,158
-458,284	128,247	-0,053	0,049
-457,270	51,177	-0,108	0,074
-456,255	360,160	0,020	-0,029
-455,241	800,000	-0,007	0,019
-454,226	-200,000	0,018	-0,071
-453,211	-102,052	-0,065	0,011
-452,197	-200,000	-0,021	0,099
-451,182	-200,000	-0,036	-0,145
-450,168	397,485	0,050	0,077
-449,153	-200,000	-0,017	0,190
-448,138	35,506	-0,040	-0,026
-447,124	-200,000	-0,002	-0,155
-446,109	-28,119	0,111	-0,047
-445,095	16,333	0,082	0,047
-444,080	-200,000	-0,027	0,090
-443,065	17,231	-0,151	0,087
-442,051	12,246	0,131	0,073
-441,036	-200,000	-0,009	-0,195
-440,022	800,000	-0,057	0,139
-439,007	46,081	-0,064	-0,043
-437,992	358,857	0,059	-0,086
-436,978	71,956	-0,062	0,047
-435,963	116,492	-0,024	-0,021
-434,949	-200,000	-0,005	0,068
-433,934	181,082	-0,081	0,087
-432,919	236,462	-0,014	-0,016
-431,905	-98,016	-0,093	-0,017
-430,890	141,553	-0,057	-0,055
-429,876	223,103	0,122	0,143
-428,861	-200,000	0,004	0,118
-427,846	600,581	0,043	0,077
-426,832	-2,611	0,165	-0,084
-425,817	800,000	-0,015	0,030
-424,803	359,666	0,022	-0,032
-423,788	71,055	0,112	0,084
-422,773	-55,331	0,085	0,028
-421,759	307,152	-0,062	0,084
-420,744	-9,165	0,073	-0,036
-419,730	-113,760	-0,106	-0,015
-418,715	-9,859	-0,073	-0,035
-417,701	284,864	-0,017	-0,022
-416,686	-42,670	0,165	0,061
-415,671	113,210	-0,010	-0,009
-414,657	213,700	-0,037	0,042
-413,642	-200,000	0,000	0,029
-412,628	800,000	-0,041	-0,097
-411,613	-200,000	0,005	-0,086
-410,598	800,000	-0,075	-0,192
-409,584	286,694	0,036	-0,047
-408,569	2,933	-0,096	-0,051
-407,555	-170,491	0,175	0,004
-406,540	-57,323	-0,050	0,016
-405,525	311,091	0,074	-0,101
-404,511	-200,000	0,006	-0,094
-403,496	104,196	-0,023	0,020
-402,482	-31,217	-0,006	0,002
-401,467	-200,000	0,047	0,174
-400,452	800,000	0,025	0,059
-399,438	-20,466	-0,031	0,014
-398,423	194,166	-0,044	-0,049
-397,409	-51,961	0,154	0,052
-396,394	416,228	-0,024	-0,038
-395,379	800,000	-0,015	-0,046
-394,365	-200,000	0,002	0,065
-393,350	-35,703	0,105	0,041
-392,336	168,446	-0,006	-0,006
-391,321	-200,000	0,011	-0,078
-390,306	663,861	-0,041	-0,077
-389,292	-122,115	-0,040	-0,005
-388,277	-200,000	0,013	0,073
-387,263	104,343	0,030	0,025
-386,248	-200,000	0,008	0,048
-385,233	-96,221	0,068	-0,013
-384,219	228,118	-0,113	0,134
-383,204	387,528	-0,108	-0,162
-382,190	-138,841	-0,127	0,010
-381,175	-167,700	0,077	0,002
-380,160	-200,000	0,043	0,195
-379,146	-74,632	-0,054	-0,014
-378,131	-39,130	0,050	0,019
-377,117	565,659	-0,036	-0,064
-376,102	192,263	-0,046	-0,050
-375,088	-200,000	0,002	-0,053
-374,073	197,042	-0,056	0,062
-373,058	-54,423	0,117	0,038
-372,044	131,211	0,014	-0,013
-371,029	59,640	-0,076	-0,055
-370,015	-200,000	0,019	0,115
-369,000	-200,000	-0,009	0,100
-367,985	290,498	0,045	0,060
-366,971	49,087	0,045	0,031
-365,956	-81,480	0,059	0,014
-364,942	254,094	0,056	0,070
-363,927	56,718	0,121	-0,086
-362,912	-200,000	0,000	0,024
-361,898	-200,000	-0,008	-0,058
-360,883	617,647	0,034	-0,062
-359,869	-200,000	-0,039	-0,187
-358,854	700,572	0,052	0,101
-357,839	-63,392	0,026	0,008
-356,825	394,472	0,069	0,105
-355,810	-26,130	0,113	0,048
-354,796	-200,000	-0,024	0,086
-353,781	800,000	-0,054	-0,143
-352,766	800,000	-0,016	-0,043
-351,752	-200,000	0,035	0,117
-350,737	395,679	-0,086	0,131
-349,723	800,000	0,023	0,060
-348,708	389,075	-0,043	0,064
-347,693	-200,000	0,001	0,051
-346,679	-200,000	-0,039	0,136
-345,664	40,653	-0,083	0,054
-344,650	-200,000	-0,038	0,198
-343,635	227,587	0,103	-0,122
-342,620	435,634	-0,068	0,107
-341,606	-138,435	-0,097	0,008
-340,591	-200,000	-0,004	0,118
-339,577	65,585	0,081	-0,059
-338,562	88,170	0,085	-0,068
-337,548	-200,000	-0,030	0,109
-336,533	455,431	0,078	0,125
-335,518	-200,000	-0,001	-0,010
-334,504	-156,264	-0,164	0,007
-333,489	493,038	0,088	-0,147
-332,475	46,829	0,060	0,041
-331,460	406,460	0,015	0,023
-330,445	703,986	-0,062	-0,119
-329,431	-141,040	0,031	-0,002
-328,416	-200,000	0,000	0,019
-327,402	71,800	-0,049	0,037
-326,387	15,642	-0,107	0,061
-325,372	-200,000	-0,026	0,118
-324,358	-31,068	-0,163	-0,066
-323,343	-101,462	-0,116	0,020
-322,329	-200,000	0,012	0,040
-321,314	85,697	0,019	0,015
-320,299	149,853	-0,030	0,029
-319,285	-58,029	0,048	-0,015
-318,270	800,000	-0,037	-0,083
-317,256	463,116	0,066	-0,107
-316,241	308,545	0,049	-0,066
-315,226	210,725	0,053	0,061
-314,212	13,254	-0,099	0,055
-313,197	294,402	0,007	0,009
-312,183	-170,172	-0,069	0,002
-311,168	36,659	0,087	-0,056
-310,153	727,425	-0,055	-0,108
-309,139	-84,144	-0,118	0,027
-308,124	91,108	0,051	0,041
-307,110	32,007	-0,048	0,030
-306,095	29,683	0,057	-0,035
-305,080	-109,192	0,071	0,011
-304,066	800,000	0,016	0,040
-303,051	-33,914	-0,128	0,051
-302,037	-200,000	-0,014	-0,116
-301,022	273,950	0,108	-0,138
-300,008	64,978	-0,070	0,051
-298,993	-200,000	0,030	0,177
-297,978	-173,339	-0,030	-0,001
-296,964	-124,231	0,124	-0,014
-295,949	189,451	0,021	-0,023
-294,935	-200,000	-0,018	0,104
-293,920	-85,167	-0,109	0,024
-292,905	-200,000	-0,012	0,054
-291,891	109,012	-0,022	-0,019
-290,876	-42,085	0,119	0,044
-289,862	4,312	0,041	-0,021
-288,847	800,000	-0,038	-0,080
-287,832	256,485	-0,058	-0,072
-286,818	-78,433	-0,039	0,010
-285,803	597,815	0,080	-0,143
-284,789	262,086	0,073	0,092
-283,774	-99,961	-0,086	0,015
-282,759	-200,000	0,026	0,138
-281,745	52,817	-0,153	0,106
-280,730	453,547	-0,042	-0,067
-279,716	-200,000	0,002	-0,162
-278,701	-200,000	-0,001	-0,079
-277,686	146,954	0,053	0,052
-276,672	-200,000	0,009	0,042
-275,657	256,230	0,073	-0,091
-274,643	-84,961	0,059	0,013
-273,628	-145,072	0,145	0,009
-272,613	-19,437	0,086	-0,039
-271,599	64,218	-0,173	0,126
-270,584	-107,065	0,077	0,012
-269,570	352,048	0,041	-0,059
-268,555	696,606	0,062	0,119
-267,540	-23,746	0,063	-0,027
-266,526	800,000	0,045	-0,115
-265,511	-135,979	-0,177	-0,015
-264,497	8,737	0,133	0,072
-263,482	-1,157	0,063	0,032
-262,467	-112,399	0,011	0,002
-261,453	-38,370	0,068	0,026
-260,438	565,560	-0,073	-0,129
-259,424	53,776	-0,077	-0,053
-258,409	-15,258	-0,093	-0,043
-257,395	800,000	0,010	0,024
-256,380	-32,984	0,100	-0,040
-255,365	139,094	0,023	-0,021
-254,351	-30,325	0,066	-0,027
-253,336	127,423	0,043	0,040
-252,322	-200,000	0,020	-0,065
-251,307	127,460	-0,171	-0,157
-250,292	116,393	0,062	0,055
-249,278	399,334	0,051	0,077
-248,263	-200,000	0,019	0,162
-247,249	103,659	-0,031	-0,026
-246,234	555,538	0,065	-0,113
-245,219	-200,000	-0,005	-0,136
-244,205	800,000	0,020	-0,053
-243,190	118,715	0,026	0,023
-242,176	474,301	-0,062	-0,101
-241,161	-80,763	-0,046	-0,011
-240,146	-78,983	-0,038	-0,009
-239,132	26,781	0,102	0,062
-238,117	800,000	0,034	0,070
-237,103	-117,408	-0,210	0,027
-236,088	-109,150	0,073	0,011
-235,073	-28,318	0,070	-0,029
-234,059	166,324	0,143	0,147
-233,044	130,754	0,071	-0,066
-232,030	35,961	-0,018	0,012
-231,015	738,536	-0,086	-0,168
-230,000	800,000	-0,005	0,017
-228,986	-115,066	0,116	-0,016
-227,971	800,000	-0,037	-0,088
-226,957	-10,654	0,142	0,067
-225,942	-77,731	-0,007	-0,002
-224,927	512,193	-0,021	-0,036
-223,913	59,086	0,104	-0,074
-222,898	217,850	0,039	-0,044
-221,884	-71,209	-0,125	-0,034
-220,869	42,931	-0,082	0,054
-219,855	229,003	-0,042	0,050
-218,840	-200,000	-0,005	-0,028
-217,825	-138,756	0,066	-0,005
-216,811	362,591	0,048	0,069
-215,796	-103,815	0,074	-0,012
-214,782	-147,336	-0,062	-0,004
-213,767	-133,847	-0,166	-0,015
-212,752	118,035	-0,068	-0,061
-211,738	-200,000	0,005	-0,040
-210,723	800,000	0,036	0,080
-209,709	133,923	-0,066	0,062
-208,694	-200,000	0,004	0,112
-207,679	-200,000	-0,013	-0,148
-206,665	-195,096	-0,023	0,000
-205,650	800,000	-0,022	0,059
-204,636	-64,461	-0,067	0,020
-203,621	35,267	-0,147	0,093
-202,606	-200,000	0,018	0,059
-201,592	-200,000	-0,027	-0,155
-200,577	-200,000	0,017	-0,061
-199,563	-87,417	-0,087	0,019
-198,548	-200,000	0,012	0,046
-197,533	56,648	-0,075	0,053
-196,519	220,450	0,061	-0,071
-195,504	-105,884	0,060	0,010
-194,490	-33,507	0,099	-0,039
-193,475	800,000	-0,030	0,061
-192,460	503,938	-0,012	-0,019
-191,446	23,557	-0,092	-0,054
-190,431	-17,015	0,031	0,014
-189,417	168,276	0,031	0,032
-188,402	742,327	0,038	-0,073
-187,387	104,010	-0,112	-0,095
-186,373	-200,000	0,003	-0,208
-185,358	315,119	-0,019	0,026
-184,344	278,325	-0,034	0,044
-183,329	-98,935	0,115	0,021
-182,315	-6,655	0,087	0,043
-181,300	5,349	-0,075	0,040
-180,285	-171,795	-0,052	0,001
-179,271	-200,000	-0,014	0,108
-178,256	-166,468	0,073	-0,002
-177,242	-123,119	0,067	-0,008
-176,227	154,593	0,023	0,023
-175,212	-200,000	-0,009	0,088
-174,198	800,000	0,017	-0,047
-173,183	-37,392	0,016	0,006
-172,169	-187,021	-0,032	-0,000
-171,154	800,000	-0,016	-0,035
-170,139	603,576	0,060	-0,107
-169,125	-127,967	0,057	-0,006
-168,110	16,380	-0,062	-0,035
-167,096	69,986	0,026	-0,019
-166,081	-78,480	-0,027	-0,007
-165,066	531,583	0,035	-0,059
-164,052	196,575	0,052	-0,057
-163,037	-200,000	-0,006	0,043
-162,023	231,687	-0,057	0,068
-161,008	-200,000	0,006	0,092
-159,993	-115,031	-0,037	0,005
-158,979	-200,000	0,005	-0,099
-157,964	-155,320	-0,094	-0,004
-156,950	98,682	-0,058	-0,048
-155,935	90,727	0,095	-0,077
-154,920	-79,474	0,119	0,029
-153,906	-137,838	0,129	0,010
-152,891	-200,000	-0,036	0,146
-151,877	-200,000	-0,006	0,118
-150,862	186,555	-0,090	-0,097
-149,847	800,000	-0,038	0,085
-148,833	800,000	-0,022	-0,047
-147,818	-68,678	0,144	-0,040
-146,804	-200,000	0,001	-0,004
-145,789	800,000	0,030	-0,087
-144,775	-200,000	-0,014	0,102
-143,760	145,545	-0,017	0,017
-142,745	376,560	0,032	-0,047
-141,731	-23,177	0,092	0,040
-140,716	-200,000	0,006	0,102
-139,702	800,000	-0,029	0,075
-138,687	43,399	-0,040	0,026
-137,672	800,000	-0,024	-0,067
-136,658	800,000	-0,038	0,087
-135,643	13,189	-0,093	-0,052
-134,629	439,253	-0,045	-0,071
-133,614	48,050	-0,031	-0,021
-132,599	800,000	0,013	0,041
-131,585	83,800	0,049	0,038
-130,570	-40,817	-0,131	-0,049
-129,556	538,585	-0,022	0,038
-128,541	-134,860	-0,151	-0,013
-127,526	-12,639	0,166	-0,078
-126,512	-200,000	-0,023	0,091
-125,497	262,568	0,028	0,034
-124,483	-200,000	0,028	0,101
-123,468	-200,000	-0,002	0,123
-122,453	-200,000	-0,008	-0,086
-121,439	-200,000	0,020	-0,159
-120,424	-200,000	-0,018	-0,109
-119,410	-46,427	0,029	0,010
-118,395	-40,146	0,116	0,043
-117,380	-124,927	0,050	-0,005
-116,366	-200,000	0,015	0,069
-115,351	104,502	-0,064	0,055
-114,337	800,000	-0,050	-0,138
-113,322	-142,667	0,078	0,005
-112,307	82,779	0,099	-0,078
-111,293	-200,000	0,034	0,130
-110,278	-32,910	0,124	0,049
-109,264	800,000	0,065	-0,143
-108,249	-91,361	0,046	-0,009
-107,234	800,000	0,045	-0,116
-106,220	-200,000	0,006	0,049
-105,205	-144,999	0,035	0,002
-104,191	218,500	0,068	0,078
-103,176	-172,766	0,030	0,001
-102,162	-38,153	-0,151	0,057
-101,147	-28,934	0,094	-0,039
-100,132	800,000	0,033	-0,100
-99,118	-20,874	0,054	-0,024
-98,103	800,000	0,016	-0,032
-97,089	206,795	0,012	0,014
-96,074	800,000	0,050	0,155
-95,059	-200,000	0,001	-0,100
-94,045	-200,000	0,007	-0,092
-93,030	-120,717	-0,175	-0,021
-92,016	84,293	0,106	-0,083
-91,001	586,688	0,089	-0,158
-89,986	-200,000	0,010	0,065
-88,972	-74,504	0,091	0,023
-87,957	-89,391	0,152	0,032
-86,943	-15,551	-0,066	-0,030
-85,928	421,566	-0,156	-0,241
-84,913	-102,289	-0,022	0,004
-83,899	-102,620	0,134	-0,023
-82,884	-139,188	0,065	-0,005
-81,870	800,000	0,023	0,063
-80,855	-124,418	-0,036	-0,004
-79,840	316,196	0,073	-0,099
-78,826	37,051	0,079	0,050
-77,811	234,020	-0,036	-0,042
-76,797	340,240	0,011	-0,015
-75,782	215,692	0,037	-0,042
-74,767	84,215	0,117	0,092
-73,753	-113,778	0,056	0,008
-72,738	391,678	0,040	0,060
-71,724	550,119	0,044	0,076
-70,709	-5,940	-0,048	0,024
-69,694	-5,904	-0,098	0,048
-68,680	-77,901	0,062	0,015
-67,665	3,086	0,074	-0,038
-66,651	460,596	-0,034	-0,054
-65,636	358,456	-0,086	0,124
-64,622	800,000	-0,054	-0,122
-63,607	-200,000	0,007	-0,095
-62,592	202,639	-0,008	-0,009
-61,578	-200,000	-0,048	-0,154
-60,563	212,101	0,057	0,065
-59,549	276,133	-0,085	-0,109
-58,534	-11,258	-1,991	-0,937
-57,519	800,000	-0,384	-0,802
-56,505	-200,000	-1,313	-4,803
-55,490	131,534	0,756	0,697
-54,476	800,000	5,411	11,930
-53,461	-200,000	17,837	288,698
-52,446	800,000	729,126	2227,528
-51,432	535,231	1644,834	2808,379
-50,417	109,473	1634,874	1404,047
-49,403	75,203	1286,773	971,941
-48,388	31,675	1027,122	632,229
-47,373	20,111	988,827	570,572
-46,359	18,273	976,763	557,571
-45,344	15,285	972,732	545,481
-44,330	15,533	971,366	545,504
-43,315	14,996	969,427	542,641
-42,300	14,957	968,301	541,862
-41,286	14,992	967,292	541,391
-40,271	14,966	966,339	540,752
-39,257	14,974	965,304	540,178
-38,242	14,941	964,521	539,610
-37,227	14,983	963,703	539,267
-36,213	15,049	962,609	538,846
-35,198	14,919	962,009	538,068
-34,184	15,086	960,999	538,022
-33,169	14,971	960,182	537,174
-32,154	15,001	959,293	536,750
-31,140	14,928	958,438	536,017
-30,125	14,975	957,763	535,769
-29,111	14,972	956,953	535,283
-28,096	15,045	956,131	535,038
-27,082	14,988	955,572	534,521
-26,067	14,964	954,757	533,966
-25,052	14,937	954,152	533,522
-24,038	14,952	953,364	533,108
-23,023	14,979	952,688	532,794
-22,009	15,024	951,996	532,529
-20,994	14,971	951,453	532,038
-19,979	15,014	950,854	531,818
-18,965	15,032	950,019	531,386
-17,950	15,040	949,408	531,051
-16,936	14,999	948,741	530,524
-15,921	14,913	948,300	529,984
-14,906	14,880	947,484	529,399
-13,892	14,876	946,755	528,961
-12,877	14,909	946,008	528,625
-11,863	14,871	945,659	528,288
-10,848	14,842	945,105	527,866
-9,833	14,954	944,580	527,908
-8,819	14,949	943,958	527,524
-7,804	14,925	943,241	527,025
-6,790	14,853	942,749	526,504
-5,775	14,947	942,199	526,471
-4,760	14,900	941,565	525,949
-3,746	14,909	940,876	525,569
-2,731	14,717	940,364	524,655
-1,717	14,736	939,565	524,251
-0,702	14,698	938,908	523,744
0,313	14,571	938,267	523,775
1,327	17,722	936,169	532,471
2,342	26,654	792,525	474,376
3,356	23,351	457,715	268,912
4,371	-3,550	313,983	155,928
5,386	-7,583	295,781	142,803
6,400	-9,472	289,662	137,966
7,415	-9,904	287,313	136,411
8,429	-10,153	285,666	135,373
9,444	-10,235	284,865	134,901
10,459	-10,065	284,206	134,743
11,473	-10,169	283,529	134,309
12,488	-10,297	283,145	133,991
13,502	-10,307	282,590	133,707
14,517	-10,248	282,077	133,509
15,531	-10,290	281,640	133,250
16,546	-10,267	281,343	133,119
17,561	-10,407	280,862	132,746
18,575	-10,219	280,538	132,761
19,590	-10,279	280,051	132,462
20,604	-10,267	279,948	132,413
21,619	-10,273	279,455	132,162
22,634	-10,199	279,063	132,035
23,648	-10,308	278,847	131,817
24,663	-10,331	278,728	131,727
25,677	-10,351	278,532	131,604
26,692	-10,260	278,021	131,438
27,707	-10,102	277,502	131,329
28,721	-10,219	277,443	131,179
29,736	-10,505	277,143	130,756
30,750	-10,421	276,968	130,741
31,765	-10,164	276,677	130,834
32,780	-10,336	276,569	130,609
33,794	-10,452	276,201	130,314
34,809	-10,204	275,852	130,371
35,823	-10,145	275,706	130,347
36,838	-10,300	275,451	130,069
37,853	-10,294	275,065	129,881
38,867	-10,364	275,009	129,777
39,882	-10,387	274,742	129,617
40,896	-10,393	274,513	129,493
41,911	-10,383	274,108	129,299
42,926	-10,321	273,943	129,268
43,940	-10,380	273,695	129,084
44,955	-10,456	273,575	128,945
45,969	-10,383	273,314	128,878
46,984	-10,595	273,050	128,546
47,999	-10,881	272,843	128,170
49,013	-11,011	272,538	127,895
50,028	-10,969	272,229	127,777
51,042	-11,014	271,914	127,576
52,057	-11,196	271,712	127,302
53,071	-11,121	271,565	127,291
54,086	-11,087	271,467	127,265
55,101	-10,754	271,116	127,397
56,115	-10,794	271,137	127,358
57,130	-10,313	270,909	127,683
58,144	-10,071	270,635	127,766
59,159	-10,203	270,549	127,592
60,174	-10,074	270,199	127,534
61,188	-10,086	270,141	127,485
62,203	-10,232	269,799	127,178
63,217	-10,277	269,648	127,054
64,232	-10,181	269,310	126,971
65,247	-10,218	269,027	126,793
66,261	-10,309	268,858	126,619
67,276	-10,366	268,672	126,468
68,290	-10,439	268,369	126,247
69,305	-10,538	268,007	125,976
70,320	-10,620	267,999	125,885
71,334	-10,326	267,750	126,025
72,349	-10,169	267,630	126,100
73,363	-10,316	267,538	125,912
74,378	-10,161	267,172	125,870
75,393	-10,073	266,965	125,840
76,407	-10,213	266,738	125,596
77,422	-10,207	266,596	125,522
78,436	-10,330	266,391	125,304
79,451	-10,177	265,990	125,242
80,466	-10,334	265,857	125,027
81,480	-10,418	265,606	124,821
82,495	-10,451	265,409	124,688
83,509	-10,416	265,207	124,614
84,524	-10,309	265,034	124,618
85,539	-10,564	264,664	124,203
86,553	-10,501	264,516	124,179
87,568	-10,542	264,351	124,054
88,582	-10,472	264,057	123,968
89,597	-10,347	263,965	124,025
90,611	-10,145	263,836	124,135
91,626	-10,225	263,724	123,999
92,641	-10,325	263,481	123,784
93,655	-10,153	263,253	123,820
94,670	-10,356	262,955	123,488
95,684	-10,431	263,006	123,434
96,699	-10,413	262,748	123,318
97,714	-10,250	262,371	123,275
98,728	-10,464	262,206	122,996
99,743	-10,510	261,879	122,790
100,757	-10,539	261,710	122,675
101,772	-10,392	261,612	122,748
102,787	-10,356	261,241	122,595
103,801	-10,411	261,277	122,552
104,816	-10,251	261,116	122,607
105,830	-10,173	260,940	122,583
106,845	-10,210	260,617	122,388
107,860	-10,169	260,445	122,332
108,874	-10,135	260,361	122,312
109,889	-10,125	260,127	122,200
110,903	-10,252	259,755	121,902
111,918	-10,328	259,740	121,818
112,933	-10,243	259,497	121,767
113,947	-10,093	259,263	121,779
114,962	-10,405	259,281	121,502
115,976	-10,093	258,911	121,591
116,991	-10,278	258,758	121,346
118,006	-10,175	258,596	121,350
119,020	-10,188	258,520	121,292
120,035	-10,157	258,292	121,202
121,049	-10,123	258,102	121,132
122,064	-10,149	257,860	120,985
123,079	-10,103	257,537	120,863
124,093	-10,350	257,463	120,601
125,108	-10,354	257,241	120,483
126,122	-10,500	257,040	120,251
127,137	-10,611	256,638	119,956
128,151	-10,700	256,631	119,865
129,166	-10,473	256,359	119,924
130,181	-10,470	256,175	119,830
131,195	-10,368	255,891	119,775
132,210	-10,402	255,799	119,692
133,224	-10,289	255,621	119,695
134,239	-10,228	255,471	119,667
135,254	-10,369	255,325	119,466
136,268	-10,361	255,121	119,367
137,283	-10,597	254,856	119,029
138,297	-10,532	254,616	118,962
139,312	-10,611	254,432	118,798
140,327	-10,377	254,405	118,976
141,341	-10,067	254,295	119,180
142,356	-10,057	254,132	119,101
143,370	-10,095	253,965	118,980
144,385	-10,042	253,780	118,928
145,400	-10,054	253,483	118,768
146,414	-10,030	253,460	118,768
147,429	-10,196	253,234	118,509
148,443	-10,033	253,003	118,529
149,458	-10,119	252,858	118,378
150,473	-10,102	252,631	118,275
151,487	-10,092	252,549	118,235
152,502	-10,135	252,240	118,043
153,516	-10,129	252,005	117,927
154,531	-10,150	251,916	117,858
155,546	-10,119	251,663	117,755
156,560	-10,048	251,532	117,744
157,575	-10,045	251,224	117,591
158,589	-9,963	251,051	117,569
159,604	-10,060	250,921	117,416
160,619	-10,072	250,810	117,344
161,633	-10,058	250,605	117,249
162,648	-10,015	250,370	117,165
163,662	-10,048	250,265	117,077
164,677	-10,157	250,185	116,938
165,692	-9,886	249,968	117,054
166,706	-10,161	249,849	116,756
167,721	-10,052	249,643	116,741
168,735	-9,959	249,482	116,734
169,750	-9,918	249,320	116,682
170,764	-9,865	249,120	116,623
171,779	-9,851	249,014	116,574
172,794	-9,760	248,793	116,537
173,808	-10,065	248,629	116,194
174,823	-10,510	248,356	115,684
175,837	-10,797	248,128	115,327
176,852	-10,252	248,159	115,787
177,867	-9,972	248,064	115,966
178,881	-9,766	247,798	116,003
179,896	-9,947	247,744	115,817
180,910	-9,967	247,451	115,653
181,925	-9,863	247,186	115,605
182,940	-9,817	246,953	115,524
183,954	-10,037	246,994	115,351
184,969	-9,818	246,773	115,418
185,983	-9,841	246,505	115,264
186,998	-9,844	246,448	115,225
188,013	-9,956	246,330	115,066
189,027	-9,855	246,094	115,029
190,042	-9,797	245,787	114,924
191,056	-9,824	245,571	114,790
192,071	-9,946	245,570	114,678
193,086	-9,979	245,374	114,550
194,100	-9,994	245,174	114,433
195,115	-9,951	245,019	114,387
196,129	-9,829	244,746	114,349
197,144	-9,936	244,601	114,183
198,159	-9,944	244,453	114,098
199,173	-9,870	244,265	114,060
200,188	-9,950	243,931	113,829
201,202	-10,177	243,904	113,620
202,217	-10,563	243,577	113,141
203,232	-10,555	243,395	113,053
204,246	-10,236	243,348	113,282
205,261	-9,850	243,228	113,532
206,275	-10,378	242,992	112,980
207,290	-6,451	244,647	116,966
208,304	1,229	246,894	124,379
209,319	4,450	247,739	127,455
210,334	4,653	247,804	127,645
211,348	5,193	247,662	128,005
212,363	5,196	247,471	127,898
213,377	5,225	247,643	128,000
214,392	5,202	247,326	127,806
215,407	5,024	247,136	127,549
216,421	5,469	246,689	127,673
217,436	5,475	246,844	127,747
218,450	5,429	246,829	127,689
219,465	5,354	246,381	127,385
220,480	4,964	246,263	126,993
221,494	4,929	246,095	126,867
222,509	4,935	245,943	126,782
223,523	5,069	245,668	126,738
224,538	4,754	245,456	126,360
225,553	4,834	245,277	126,322
226,567	4,956	245,199	126,370
227,582	4,944	245,160	126,329
228,596	4,695	244,953	126,008
229,611	4,779	244,615	125,891
230,626	4,415	244,581	125,566
231,640	4,530	244,320	125,515
232,655	4,683	244,166	125,549
233,669	4,550	244,062	125,375
234,684	4,376	243,844	125,111
235,699	4,656	243,909	125,361
236,713	5,038	243,568	125,483
237,728	4,674	243,374	125,078
238,742	4,744	243,221	125,045
239,757	4,330	243,047	124,610
240,772	4,392	242,779	124,512
241,786	4,632	242,799	124,704
242,801	4,734	242,553	124,649
243,815	4,405	242,441	124,316
244,830	4,702	242,314	124,478
245,844	4,713	242,204	124,420
246,859	4,527	242,027	124,168
247,874	4,556	241,860	124,094
248,888	4,714	241,724	124,140
249,903	4,796	241,524	124,092
250,917	4,647	241,452	123,925
251,932	4,947	241,292	124,072
252,947	5,065	241,149	124,082
253,961	4,657	240,923	123,628
254,976	4,713	240,787	123,592
255,990	4,814	240,689	123,611
257,005	4,556	240,391	123,242
258,020	4,508	240,279	123,135
259,034	4,642	240,078	123,128
260,049	4,748	240,004	123,163
261,063	4,529	239,763	122,854
262,078	4,519	239,537	122,720
263,093	4,651	239,607	122,850
264,107	4,973	239,372	122,974
265,122	4,662	239,179	122,617
266,136	4,759	239,230	122,709
267,151	4,958	238,960	122,717
268,166	4,451	238,787	122,217
269,180	4,224	238,680	121,971
270,195	4,842	238,809	122,515
271,209	5,251	238,534	122,686
272,224	4,886	238,111	122,170
273,239	4,404	237,921	121,682
274,253	4,191	237,865	121,474
275,268	4,700	237,731	121,796
276,282	4,641	237,589	121,666
277,297	4,365	237,341	121,311
278,312	4,598	237,104	121,362
279,326	4,731	237,038	121,422
280,341	4,529	236,993	121,230
281,355	4,646	236,822	121,223
282,370	4,607	236,705	121,121
283,384	4,698	236,437	121,045
284,399	4,499	236,262	120,788
285,414	4,335	236,147	120,591
286,428	4,515	236,048	120,671
287,443	4,581	235,777	120,573
288,457	4,668	235,922	120,704
289,472	4,549	235,791	120,533
290,487	4,886	235,331	120,550
291,501	4,675	235,132	120,273
292,516	4,308	235,038	119,928
293,530	4,188	234,844	119,726
294,545	4,639	234,926	120,107
295,560	4,612	234,596	119,907
296,574	4,481	234,480	119,735
297,589	4,415	234,350	119,608
298,603	4,844	234,175	119,840
299,618	4,799	234,061	119,736
300,633	4,625	233,962	119,540
301,647	4,823	233,983	119,693
302,662	5,199	233,847	119,903
303,676	5,036	233,626	119,653
304,691	4,811	233,477	119,393
305,706	4,970	233,492	119,513
306,720	5,068	233,277	119,467
307,735	4,842	233,072	119,178
308,749	4,896	232,788	119,063
309,764	4,351	232,559	118,517
310,779	4,277	232,183	118,258
311,793	4,162	232,071	118,102
312,808	4,120	231,959	118,003
313,822	4,270	232,007	118,131
314,837	4,573	231,852	118,274
315,852	4,555	231,763	118,205
316,866	4,970	231,620	118,438
317,881	4,967	231,525	118,376
318,895	4,855	231,526	118,281
319,910	5,146	231,287	118,371
320,925	4,782	230,975	117,923
321,939	4,332	230,732	117,446
322,954	4,627	230,711	117,649
323,968	4,351	230,658	117,401
324,983	4,487	230,508	117,418
325,997	4,808	230,481	117,638
327,012	4,788	230,193	117,465
328,027	4,511	230,079	117,186
329,041	5,224	229,977	117,665
330,056	5,245	230,017	117,691
331,070	5,632	229,729	117,825
332,085	5,246	229,430	117,370
333,100	4,866	229,367	117,040
334,114	4,692	229,237	116,832
335,129	4,858	229,269	116,963
336,143	5,384	229,020	117,222
337,158	5,093	228,780	116,869
338,173	4,824	228,591	116,560
339,187	4,747	228,460	116,425
340,202	4,826	228,243	116,364
341,216	4,793	228,055	116,233
342,231	4,596	227,772	115,930
343,246	4,647	227,758	115,952
344,260	4,796	227,597	115,970
345,275	4,949	227,725	116,140
346,289	5,018	227,480	116,056
347,304	4,951	227,465	115,989
348,319	4,958	227,211	115,854
349,333	4,775	227,102	115,651
350,348	4,673	226,942	115,483
351,362	4,773	226,696	115,422
352,377	4,592	226,510	115,182
353,392	4,503	226,292	114,995
354,406	4,349	226,306	114,876
355,421	195,393	1317,430	1392,427
356,435	156,647	1450,347	1392,406
