DTS Sentinel unit serial number:	SN410029Multiplexer serial number:	ORYXHardware model number:	OX2-SRSoftware version number:	ORYX F/W v4,00 Oryx Data Collector v3.7.2.0data status	okinstallation	B5 Nyhavnadifferential loss correction	single-endedforward channel	channel 2reverse channel	N/Adate	2023/12/13time	18:37:13forward acquisition time	300,00reverse acquisition time	0,00gamma	499,1914k internal	0,3160k external	0,3160temperature offset calibration	1,0000default loss term (dB/km)	0,3820temperature slope calibration	1,0000multiplexer offset coefficient	1,0000multiplexer slope coefficient	1,0000fibre end	0,00T internal ref (°C)	12,58T ext. ref 1 (°C)	-4,61T ext. ref 2 (°C)	-4,67length (m)	temperature (°C)	Stokes	anti-Stokes-744,400	-200,000	0,202	-0,000
-743,385	-72,716	-0,173	0,047
-742,371	800,000	-0,050	0,150
-741,356	-45,652	-0,336	0,122
-740,342	8,293	0,178	0,098
-739,327	-0,835	-0,367	-0,191
-738,312	-78,354	0,075	0,019
-737,298	-122,209	-0,348	-0,041
-736,283	4,055	0,114	0,061
-735,269	-78,822	-0,290	0,072
-734,254	-14,073	0,137	0,065
-733,239	-41,498	-0,536	-0,202
-732,225	-57,185	0,391	0,126
-731,210	473,288	0,072	-0,119
-730,196	-100,421	-0,141	0,026
-729,181	-111,428	0,046	-0,007
-728,167	-200,000	-0,008	-0,029
-727,152	800,000	0,039	-0,102
-726,137	800,000	-0,055	-0,157
-725,123	800,000	0,015	-0,042
-724,108	49,164	-0,068	-0,047
-723,094	-185,089	-0,230	-0,003
-722,079	-200,000	-0,036	-0,120
-721,064	23,654	-0,097	-0,059
-720,050	-200,000	-0,009	0,039
-719,035	-112,542	-0,154	-0,022
-718,021	3,705	-0,117	0,063
-717,006	-36,846	-0,174	-0,069
-715,991	-98,497	-0,069	-0,013
-714,977	-6,073	-0,139	-0,070
-713,962	-133,868	-0,179	-0,016
-712,948	711,589	0,012	-0,024
-711,933	-45,276	-0,051	-0,018
-710,918	273,830	0,039	0,051
-709,904	330,080	-0,103	-0,146
-708,889	-196,315	-0,151	-0,001
-707,875	-35,812	-0,050	0,020
-706,860	-153,709	-0,094	0,005
-705,845	-51,484	-0,101	-0,035
-704,831	-200,000	0,005	0,106
-703,816	255,795	0,095	0,120
-702,802	-34,413	-0,102	-0,041
-701,787	800,000	0,040	-0,084
-700,772	-200,000	0,022	-0,083
-699,758	800,000	0,077	-0,167
-698,743	-200,000	-0,016	-0,053
-697,729	-200,000	-0,034	0,131
-696,714	204,920	-0,039	-0,044
-695,699	-182,867	-0,123	-0,002
-694,685	-10,374	-0,064	-0,031
-693,670	-200,000	-0,029	0,116
-692,656	-200,000	0,011	0,111
-691,641	191,986	-0,009	0,010
-690,627	-23,127	0,038	-0,017
-689,612	-169,340	-0,156	0,004
-688,597	-112,147	0,210	0,031
-687,583	-49,530	-0,092	0,032
-686,568	340,188	-0,074	-0,106
-685,554	800,000	0,046	-0,108
-684,539	-199,317	0,053	-0,000
-683,524	800,000	-0,055	0,113
-682,510	403,099	-0,068	0,106
-681,495	14,191	-0,101	0,058
-680,481	-107,234	0,068	0,011
-679,466	-49,225	-0,115	-0,040
-678,451	353,774	0,086	0,126
-677,437	-200,000	-0,008	0,179
-676,422	384,699	0,021	0,032
-675,408	256,215	-0,052	0,066
-674,393	-81,156	-0,078	-0,019
-673,378	-200,000	-0,000	-0,058
-672,364	-69,407	-0,038	0,011
-671,349	800,000	-0,017	0,043
-670,335	-126,868	0,044	-0,005
-669,320	105,911	0,030	-0,026
-668,305	305,230	0,052	0,071
-667,291	625,478	0,014	-0,025
-666,276	-6,205	-0,225	-0,113
-665,262	556,048	0,080	-0,142
-664,247	800,000	0,087	-0,209
-663,232	312,983	0,010	-0,013
-662,218	-71,092	0,111	-0,030
-661,203	62,942	-0,071	0,052
-660,189	-138,509	-0,065	-0,005
-659,174	294,095	-0,031	-0,042
-658,159	-23,605	-0,118	-0,052
-657,145	210,940	-0,026	-0,030
-656,130	800,000	-0,013	-0,034
-655,116	-76,151	-0,026	-0,007
-654,101	-200,000	0,023	0,078
-653,086	-200,000	0,016	-0,053
-652,072	165,046	-0,047	-0,049
-651,057	256,718	-0,044	-0,055
-650,043	-200,000	-0,005	-0,057
-649,028	-87,766	-0,110	0,024
-648,014	138,028	0,041	0,039
-646,999	-200,000	-0,001	-0,075
-645,984	92,439	0,054	0,045
-644,970	-2,978	-0,038	-0,020
-643,955	800,000	0,020	-0,043
-642,941	-21,572	-0,184	-0,082
-641,926	-200,000	-0,006	-0,108
-640,911	-117,276	-0,142	-0,019
-639,897	53,702	-0,051	-0,036
-638,882	35,596	0,060	-0,038
-637,868	-200,000	-0,061	-0,200
-636,853	-65,775	-0,062	0,018
-635,838	800,000	-0,030	-0,070
-634,824	27,766	-0,018	-0,011
-633,809	174,601	0,061	0,064
-632,795	800,000	-0,020	0,042
-631,780	38,581	-0,154	-0,101
-630,765	-177,117	0,089	-0,002
-629,751	800,000	-0,011	0,032
-628,736	174,250	-0,111	0,117
-627,722	800,000	-0,036	-0,101
-626,707	412,483	-0,043	-0,066
-625,692	-8,935	-0,007	0,003
-624,678	45,007	0,052	-0,035
-623,663	-200,000	-0,015	0,110
-622,649	-200,000	-0,052	0,170
-621,634	-200,000	0,024	-0,083
-620,619	-200,000	0,010	-0,035
-619,605	-200,000	-0,011	0,080
-618,590	800,000	-0,009	-0,023
-617,576	282,416	-0,045	0,059
-616,561	640,649	-0,054	-0,101
-615,546	320,301	0,029	-0,041
-614,532	-200,000	-0,005	-0,169
-613,517	94,677	-0,054	-0,045
-612,503	12,791	-0,051	-0,029
-611,488	31,364	0,084	0,053
-610,474	343,665	-0,034	0,050
-609,459	-200,000	-0,006	-0,125
-608,444	-200,000	0,002	-0,080
-607,430	800,000	0,011	-0,022
-606,415	-200,000	-0,016	-0,057
-605,401	298,023	-0,065	-0,088
-604,386	-200,000	0,009	0,034
-603,371	346,330	0,100	0,144
-602,357	-200,000	0,002	0,129
-601,342	104,681	-0,068	-0,059
-600,328	518,145	-0,035	0,061
-599,313	88,386	-0,026	-0,021
-598,298	800,000	0,040	-0,108
-597,284	548,131	0,008	-0,013
-596,269	231,301	-0,024	-0,029
-595,255	61,979	0,020	-0,015
-594,240	-200,000	-0,003	-0,074
-593,225	61,390	0,017	-0,013
-592,211	-55,863	0,091	-0,030
-591,196	-168,253	-0,155	-0,004
-590,182	196,912	0,056	-0,063
-589,167	-62,601	0,109	-0,033
-588,152	-102,875	-0,027	-0,005
-587,138	611,668	0,037	-0,069
-586,123	-200,000	-0,005	-0,104
-585,109	-105,087	0,065	-0,011
-584,094	800,000	-0,049	-0,105
-583,079	-13,108	0,077	0,037
-582,065	53,957	-0,082	0,058
-581,050	-200,000	-0,028	0,133
-580,036	521,241	0,012	-0,020
-579,021	-200,000	-0,018	0,092
-578,006	-19,952	-0,065	-0,029
-576,992	16,798	0,036	0,021
-575,977	17,786	0,116	0,068
-574,963	-4,418	-0,026	-0,013
-573,948	-132,334	0,061	-0,006
-572,934	201,503	-0,069	-0,078
-571,919	314,453	-0,092	-0,127
-570,904	703,001	0,089	-0,173
-569,890	605,101	-0,069	-0,125
-568,875	166,640	0,052	-0,054
-567,861	193,810	0,094	0,104
-566,846	-200,000	0,005	-0,025
-565,831	-24,834	-0,077	0,033
-564,817	132,127	0,022	-0,020
-563,802	-200,000	-0,007	-0,050
-562,788	-148,000	-0,062	0,004
-561,773	-64,229	0,120	-0,035
-560,758	210,409	0,036	-0,042
-559,744	-18,227	0,056	0,025
-558,729	-200,000	-0,009	-0,041
-557,715	-1,311	0,064	-0,033
-556,700	-86,974	-0,049	-0,011
-555,685	581,051	-0,018	-0,033
-554,671	115,769	0,032	-0,029
-553,656	800,000	0,051	-0,113
-552,642	-68,543	0,125	-0,035
-551,627	800,000	-0,066	0,189
-550,612	150,750	0,047	-0,047
-549,598	-200,000	-0,011	-0,043
-548,583	17,415	-0,085	-0,049
-547,569	425,276	0,030	-0,047
-546,554	800,000	0,051	0,108
-545,539	216,099	-0,029	0,034
-544,525	4,077	-0,042	0,022
-543,510	-144,030	-0,094	-0,006
-542,496	-200,000	-0,014	-0,068
-541,481	-113,695	-0,081	0,011
-540,466	408,842	0,072	0,112
-539,452	13,228	0,069	0,039
-538,437	800,000	0,028	0,071
-537,423	129,776	-0,092	0,086
-536,408	-109,784	0,124	-0,019
-535,393	262,666	-0,040	0,051
-534,379	-200,000	0,016	-0,114
-533,364	-42,017	0,041	-0,015
-532,350	263,869	-0,055	0,070
-531,335	-200,000	-0,004	0,102
-530,321	800,000	0,044	-0,106
-529,306	800,000	-0,024	0,064
-528,291	-21,288	0,045	0,020
-527,277	168,173	-0,052	0,054
-526,262	-200,000	-0,023	-0,097
-525,248	-82,490	-0,103	0,024
-524,233	56,108	0,036	0,026
-523,218	271,253	0,083	-0,107
-522,204	151,106	-0,089	-0,088
-521,189	303,345	-0,034	-0,046
-520,175	33,260	0,112	-0,071
-519,160	17,544	0,036	0,021
-518,145	448,228	-0,042	-0,068
-517,131	107,734	0,108	-0,094
-516,116	9,742	0,069	-0,038
-515,102	-93,313	-0,067	0,013
-514,087	46,468	-0,088	0,059
-513,072	800,000	-0,022	-0,050
-512,058	-62,115	-0,114	0,035
-511,043	-124,501	0,083	-0,009
-510,029	-39,637	-0,099	-0,037
-509,014	41,648	0,131	-0,086
-507,999	-200,000	0,059	0,200
-506,985	11,525	-0,059	-0,033
-505,970	-103,993	0,008	-0,001
-504,956	800,000	0,045	-0,125
-503,941	461,491	-0,027	-0,044
-502,926	604,515	0,113	0,205
-501,912	175,916	-0,037	0,039
-500,897	80,634	0,043	0,034
-499,883	121,998	0,102	-0,093
-498,868	88,131	-0,121	0,098
-497,853	-200,000	-0,008	0,034
-496,839	800,000	0,031	0,090
-495,824	-200,000	-0,004	-0,035
-494,810	-200,000	-0,007	-0,106
-493,795	419,179	0,070	0,109
-492,781	-200,000	0,021	-0,166
-491,766	-200,000	0,009	-0,146
-490,751	206,935	0,079	-0,090
-489,737	-200,000	-0,016	0,115
-488,722	-200,000	-0,046	0,171
-487,708	800,000	-0,043	0,098
-486,693	800,000	0,016	0,045
-485,678	-200,000	-0,021	0,082
-484,664	-64,537	0,136	0,040
-483,649	-200,000	-0,005	0,021
-482,635	-87,228	-0,239	-0,053
-481,620	25,911	0,104	-0,063
-480,605	-92,249	0,064	-0,013
-479,591	-200,000	0,015	-0,153
-478,576	800,000	-0,066	0,144
-477,562	276,384	-0,001	0,002
-476,547	133,169	-0,125	-0,118
-475,532	-200,000	0,016	-0,059
-474,518	800,000	0,026	-0,073
-473,503	-105,365	-0,049	-0,008
-472,489	195,424	-0,093	0,103
-471,474	800,000	-0,059	0,131
-470,459	800,000	-0,012	0,037
-469,445	-200,000	0,018	0,074
-468,430	-93,721	-0,039	0,008
-467,416	-200,000	0,006	0,028
-466,401	21,176	0,022	0,013
-465,386	-200,000	0,016	0,177
-464,372	-139,708	0,138	0,011
-463,357	-200,000	0,016	-0,071
-462,343	-26,274	-0,055	0,023
-461,328	136,930	0,073	-0,070
-460,313	227,099	0,095	0,113
-459,299	10,076	0,062	0,034
-458,284	71,043	0,126	0,095
-457,270	800,000	-0,018	0,052
-456,255	587,651	-0,045	-0,081
-455,241	-8,333	-0,075	0,037
-454,226	155,399	0,071	0,071
-453,211	800,000	0,046	0,118
-452,197	-15,941	0,018	-0,008
-451,182	-102,190	0,110	0,019
-450,168	-200,000	0,011	0,103
-449,153	-33,748	0,078	-0,031
-448,138	800,000	-0,029	-0,078
-447,124	244,194	-0,008	0,010
-446,109	128,604	-0,082	0,076
-445,095	-48,103	0,175	0,061
-444,080	225,985	0,079	0,094
-443,065	-200,000	0,012	0,145
-442,051	800,000	0,048	-0,124
-441,036	25,294	0,014	-0,009
-440,022	-187,222	-0,037	0,000
-439,007	-200,000	-0,007	-0,040
-437,992	198,463	-0,005	-0,006
-436,978	-74,750	0,118	-0,031
-435,963	-33,174	0,066	-0,026
-434,949	144,308	-0,076	-0,074
-433,934	362,664	-0,082	-0,120
-432,919	-200,000	-0,009	-0,091
-431,905	800,000	-0,096	0,202
-430,890	-200,000	-0,000	-0,040
-429,876	800,000	-0,047	0,101
-428,861	800,000	0,034	-0,097
-427,846	800,000	-0,042	-0,095
-426,832	-200,000	0,014	-0,149
-425,817	-40,490	-0,066	-0,025
-424,803	193,319	-0,074	-0,081
-423,788	-11,283	-0,090	-0,043
-422,773	128,671	0,078	0,072
-421,759	52,819	0,008	-0,005
-420,744	-200,000	0,018	0,132
-419,730	-128,679	0,013	0,001
-418,715	-152,786	-0,195	-0,010
-417,701	-200,000	0,026	-0,181
-416,686	-104,176	0,039	0,006
-415,671	212,332	-0,059	-0,068
-414,657	-200,000	-0,026	-0,138
-413,642	800,000	0,054	-0,147
-412,628	169,947	-0,032	-0,034
-411,613	2,997	0,072	0,038
-410,598	109,540	-0,071	0,062
-409,584	800,000	-0,036	0,083
-408,569	132,032	-0,093	0,087
-407,555	114,547	0,079	0,070
-406,540	-85,362	0,247	0,056
-405,525	5,746	-0,121	0,065
-404,511	8,240	-0,110	-0,060
-403,496	-200,000	-0,015	-0,086
-402,482	800,000	0,046	0,134
-401,467	-73,685	0,112	0,030
-400,452	-200,000	0,019	0,141
-399,438	49,127	0,065	0,045
-398,423	559,665	-0,006	0,011
-397,409	-115,017	-0,110	0,015
-396,394	-11,362	0,055	-0,026
-395,379	-68,654	0,061	-0,017
-394,365	-52,914	0,093	0,031
-393,350	-200,000	-0,018	0,080
-392,336	-200,000	0,018	0,152
-391,321	-137,553	-0,073	0,006
-390,306	-155,350	0,010	0,000
-389,292	-200,000	0,004	0,027
-388,277	-200,000	0,012	-0,118
-387,263	-200,000	-0,022	0,081
-386,248	750,178	0,079	0,156
-385,233	219,209	0,067	0,078
-384,219	76,770	-0,089	-0,069
-383,204	-180,272	-0,017	0,000
-382,190	241,840	-0,051	-0,063
-381,175	646,922	0,059	-0,110
-380,160	-200,000	-0,004	-0,080
-379,146	-200,000	-0,047	0,177
-378,131	23,023	0,024	0,014
-377,117	-59,118	-0,084	-0,026
-376,102	-45,930	0,063	-0,022
-375,088	200,587	-0,051	0,057
-374,073	800,000	-0,041	0,091
-373,058	144,438	-0,047	-0,046
-372,044	-0,442	0,069	0,036
-371,029	-115,621	0,096	-0,013
-370,015	-125,322	-0,246	0,027
-369,000	292,865	-0,020	0,026
-367,985	33,250	-0,103	-0,065
-366,971	796,582	0,060	-0,120
-365,956	-63,198	0,046	-0,014
-364,942	46,317	0,083	0,056
-363,927	-38,193	-0,108	0,041
-362,912	-148,675	-0,066	-0,004
-361,898	200,995	-0,038	-0,042
-360,883	-26,009	-0,168	-0,071
-359,869	16,361	0,045	0,026
-358,854	-76,267	0,092	0,023
-357,839	-3,764	0,180	-0,090
-356,825	800,000	-0,050	0,132
-355,810	-200,000	-0,012	-0,127
-354,796	-89,870	0,087	0,018
-353,781	11,427	-0,100	0,055
-352,766	52,042	-0,047	-0,032
-351,752	-6,615	0,119	0,058
-350,737	-200,000	0,016	-0,098
-349,723	-141,188	0,199	0,014
-348,708	-118,395	-0,069	0,009
-347,693	-55,166	0,099	0,032
-346,679	-108,168	-0,102	0,016
-345,664	-200,000	0,014	0,092
-344,650	-156,400	0,128	-0,006
-343,635	186,045	0,126	0,136
-342,620	-200,000	-0,014	-0,070
-341,606	-200,000	0,028	0,092
-340,591	186,868	-0,124	0,134
-339,577	19,756	-0,050	-0,029
-338,562	112,897	-0,083	-0,073
-337,548	40,454	-0,053	0,034
-336,533	279,919	0,131	-0,170
-335,518	800,000	-0,021	0,058
-334,504	464,356	-0,048	0,078
-333,489	396,611	-0,052	0,079
-332,475	509,243	-0,064	0,109
-331,460	800,000	0,046	-0,130
-330,445	-200,000	-0,009	-0,059
-329,431	-200,000	-0,019	0,077
-328,416	-117,998	0,102	0,013
-327,402	87,100	0,103	0,083
-326,387	800,000	0,037	0,114
-325,372	30,721	-0,047	0,029
-324,358	-64,730	0,038	-0,011
-323,343	211,979	0,123	-0,141
-322,329	344,111	0,099	0,142
-321,314	-200,000	0,021	0,084
-320,299	660,837	0,065	0,121
-319,285	-84,803	-0,060	-0,013
-318,270	272,987	-0,022	-0,028
-317,256	-200,000	0,013	-0,138
-316,241	800,000	-0,053	-0,109
-315,226	-55,848	0,079	0,026
-314,212	-200,000	0,018	0,166
-313,197	-111,756	0,039	-0,006
-312,183	79,357	0,079	0,061
-311,168	-200,000	0,016	-0,071
-310,153	800,000	0,024	-0,075
-309,139	20,473	-0,089	-0,052
-308,124	800,000	0,045	-0,113
-307,110	800,000	0,050	0,124
-306,095	-200,000	0,024	-0,121
-305,080	-159,155	-0,146	0,006
-304,066	800,000	0,050	-0,133
-303,051	-35,844	-0,084	0,033
-302,037	544,917	-0,024	0,042
-301,022	-101,307	0,010	-0,002
-300,008	196,009	0,012	0,013
-298,993	301,534	0,076	0,101
-297,978	-6,290	0,081	0,040
-296,964	-200,000	-0,013	0,074
-295,949	107,089	0,067	-0,058
-294,935	-52,582	-0,043	-0,014
-293,920	-12,732	-0,085	0,040
-292,905	0,148	-0,030	-0,016
-291,891	-115,984	0,119	0,016
-290,876	715,504	-0,016	-0,031
-289,862	792,277	0,056	0,113
-288,847	-200,000	-0,031	-0,233
-287,832	523,677	0,032	-0,055
-286,818	-140,541	-0,030	-0,002
-285,803	800,000	0,014	-0,030
-284,789	729,406	0,040	0,077
-283,774	346,801	-0,063	0,090
-282,759	-19,840	0,072	-0,032
-281,745	-4,122	-0,045	-0,023
-280,730	-104,013	-0,096	-0,016
-279,716	-49,271	-0,121	-0,042
-278,701	33,950	0,076	-0,048
-277,686	800,000	0,025	0,054
-276,672	61,703	-0,106	-0,076
-275,657	508,266	0,043	0,073
-274,643	77,519	-0,057	-0,044
-273,628	7,367	-0,048	0,026
-272,613	-49,559	0,048	0,016
-271,599	-46,810	0,165	0,058
-270,584	4,875	-0,115	-0,061
-269,570	-200,000	0,002	0,182
-268,555	299,737	-0,026	0,035
-267,540	-19,312	0,051	-0,023
-266,526	-9,515	-0,090	0,043
-265,511	64,682	0,067	-0,049
-264,497	-200,000	0,017	0,137
-263,482	287,121	0,054	-0,070
-262,467	-34,613	0,072	0,028
-261,453	-110,760	-0,177	0,026
-260,438	-66,921	-0,018	0,005
-259,424	310,078	-0,023	-0,032
-258,409	93,322	-0,029	0,023
-257,395	228,604	0,108	-0,128
-256,380	466,584	-0,050	-0,081
-255,365	239,148	0,024	-0,028
-254,351	-40,670	-0,123	0,046
-253,336	32,575	-0,042	0,026
-252,322	-144,134	-0,065	0,004
-251,307	-72,016	0,098	-0,026
-250,292	-200,000	0,034	0,136
-249,278	-92,129	0,066	0,013
-248,263	-104,393	0,124	-0,021
-247,249	44,916	-0,089	-0,059
-246,234	84,823	-0,103	0,081
-245,219	-200,000	-0,005	-0,036
-244,205	-200,000	0,001	-0,115
-243,190	65,757	-0,063	-0,046
-242,176	-200,000	0,023	0,075
-241,161	800,000	0,027	0,082
-240,146	-176,965	0,080	0,001
-239,132	-21,018	-0,058	0,026
-238,117	-200,000	-0,017	0,054
-237,103	114,340	0,056	-0,049
-236,088	5,655	-0,032	-0,017
-235,073	21,312	0,101	0,059
-234,059	320,643	0,033	-0,045
-233,044	788,921	-0,058	-0,116
-232,030	-25,744	-0,063	0,027
-231,015	-200,000	-0,005	0,042
-230,000	800,000	-0,034	-0,105
-228,986	-200,000	0,007	-0,053
-227,971	-91,061	-0,114	0,023
-226,957	-200,000	0,004	0,170
-225,942	-96,734	-0,033	0,006
-224,927	-91,353	-0,097	0,020
-223,913	-83,725	-0,054	-0,012
-222,898	-65,519	-0,066	0,019
-221,884	-200,000	-0,039	0,207
-220,869	800,000	-0,021	-0,043
-219,855	707,752	-0,051	-0,097
-218,840	800,000	0,028	0,086
-217,825	-200,000	-0,014	0,093
-216,811	294,628	0,092	-0,122
-215,796	800,000	0,057	0,163
-214,782	800,000	-0,007	0,017
-213,767	-200,000	-0,015	-0,082
-212,752	107,225	0,166	0,142
-211,738	-200,000	-0,017	0,061
-210,723	-68,345	-0,111	0,031
-209,709	-15,013	0,050	-0,023
-208,694	800,000	0,060	-0,162
-207,679	800,000	-0,031	-0,088
-206,665	-44,101	0,123	0,044
-205,650	28,904	-0,037	-0,023
-204,636	-104,876	0,118	-0,019
-203,621	-177,752	0,064	0,001
-202,606	-200,000	-0,009	0,075
-201,592	800,000	0,057	-0,125
-200,577	107,663	-0,023	0,019
-199,563	295,633	-0,064	-0,085
-198,548	-200,000	-0,018	-0,065
-197,533	-117,393	-0,021	0,003
-196,519	-93,517	-0,089	0,018
-195,504	207,886	-0,024	-0,027
-194,490	-23,488	-0,083	-0,036
-193,475	-200,000	0,003	-0,029
-192,460	-43,891	-0,046	-0,017
-191,446	-200,000	-0,042	0,141
-190,431	270,131	0,090	0,114
-189,417	-200,000	0,019	0,085
-188,402	112,083	0,090	0,079
-187,387	183,753	-0,063	0,068
-186,373	-30,278	-0,014	0,006
-185,358	-73,503	-0,109	-0,028
-184,344	573,834	-0,040	0,070
-183,329	800,000	-0,024	0,069
-182,315	800,000	0,028	-0,090
-181,300	-14,744	0,064	0,029
-180,285	261,760	-0,075	-0,094
-179,271	-200,000	-0,028	-0,132
-178,256	-22,619	-0,043	-0,019
-177,242	-12,429	0,154	-0,072
-176,227	733,749	0,061	0,117
-175,212	567,594	0,045	0,079
-174,198	216,504	-0,069	-0,079
-173,183	369,086	0,077	-0,113
-172,169	106,076	0,126	-0,108
-171,154	-77,448	-0,047	-0,012
-170,139	9,507	0,053	0,029
-169,125	-105,015	0,083	0,014
-168,110	-122,257	0,079	0,009
-167,096	366,634	0,011	0,016
-166,081	294,119	0,054	-0,071
-165,066	116,603	-0,145	-0,128
-164,052	-109,683	0,097	0,015
-163,037	-43,432	-0,012	-0,005
-162,023	-200,000	-0,026	-0,097
-161,008	212,152	-0,033	0,037
-159,993	-150,506	-0,219	0,012
-158,979	-72,825	-0,121	-0,032
-157,964	-200,000	0,018	-0,088
-156,950	484,864	-0,055	0,091
-155,935	-200,000	0,043	0,185
-154,920	768,681	0,043	0,084
-153,906	-200,000	-0,003	-0,024
-152,891	45,607	-0,047	-0,032
-151,877	152,572	-0,054	-0,054
-150,862	20,446	-0,025	0,014
-149,847	171,627	-0,039	0,040
-148,833	800,000	-0,049	-0,121
-147,818	-17,695	0,058	0,026
-146,804	-107,130	0,076	0,012
-145,789	800,000	-0,029	-0,061
-144,775	-165,726	-0,092	-0,003
-143,760	246,569	-0,128	-0,156
-142,745	628,405	-0,046	-0,083
-141,731	408,773	0,047	-0,071
-140,716	-200,000	-0,007	-0,098
-139,702	800,000	-0,033	-0,079
-138,687	170,214	-0,030	0,031
-137,672	-200,000	-0,031	-0,102
-136,658	-143,921	-0,050	0,003
-135,643	-200,000	-0,009	0,064
-134,629	-108,810	-0,072	0,011
-133,614	16,112	-0,032	0,018
-132,599	-200,000	-0,031	0,151
-131,585	-128,690	0,074	0,007
-130,570	-95,832	-0,169	0,032
-129,556	-22,840	-0,113	-0,049
-128,541	31,979	0,058	0,036
-127,526	-200,000	-0,004	0,128
-126,512	-87,831	-0,071	-0,015
-125,497	800,000	0,035	0,073
-124,483	702,354	0,029	-0,055
-123,468	183,428	0,043	0,045
-122,453	-176,642	-0,151	0,003
-121,439	-200,000	0,067	-0,221
-120,424	47,154	0,020	0,013
-119,410	-200,000	-0,003	0,035
-118,395	62,495	-0,091	-0,065
-117,380	-34,573	-0,127	0,050
-116,366	-71,457	-0,106	0,028
-115,351	-200,000	-0,022	-0,148
-114,337	420,461	-0,057	-0,088
-113,322	-65,068	-0,122	-0,035
-112,307	9,386	0,068	-0,037
-111,293	-130,494	0,061	0,006
-110,278	688,539	0,061	-0,114
-109,264	-200,000	-0,017	-0,055
-108,249	-187,095	0,043	-0,000
-107,234	-132,136	-0,124	0,011
-106,220	81,092	-0,016	0,012
-105,205	-200,000	-0,028	-0,168
-104,191	-200,000	0,032	-0,120
-103,176	556,007	-0,079	-0,137
-102,162	206,487	-0,015	-0,016
-101,147	-200,000	-0,009	0,186
-100,132	-147,502	-0,199	-0,012
-99,118	-200,000	-0,012	-0,141
-98,103	-200,000	0,015	-0,068
-97,089	-200,000	0,003	-0,073
-96,074	236,040	0,087	0,103
-95,059	-100,517	-0,199	-0,035
-94,045	22,433	-0,011	0,006
-93,030	800,000	-0,019	0,060
-92,016	-36,924	0,132	0,051
-91,001	800,000	-0,031	0,090
-89,986	-53,347	0,076	0,025
-88,972	474,329	0,032	-0,052
-87,957	34,011	-0,100	-0,062
-86,943	98,492	-0,026	0,022
-85,928	800,000	0,054	-0,125
-84,913	147,382	-0,005	0,005
-83,899	-57,577	0,079	-0,025
-82,884	110,622	-0,046	-0,040
-81,870	154,537	-0,084	0,083
-80,855	800,000	0,024	0,053
-79,840	107,209	-0,120	0,102
-78,826	32,042	-0,047	-0,029
-77,811	-22,731	0,064	0,028
-76,797	88,650	0,108	-0,086
-75,782	800,000	-0,013	0,034
-74,767	800,000	0,004	-0,013
-73,753	-103,434	0,054	-0,009
-72,738	-200,000	0,003	0,066
-71,724	-153,765	-0,067	0,003
-70,709	-200,000	-0,004	-0,016
-69,694	280,429	-0,080	0,103
-68,680	800,000	0,031	-0,072
-67,665	800,000	-0,030	-0,064
-66,651	-200,000	-0,046	0,158
-65,636	216,926	0,041	-0,047
-64,622	335,099	0,077	-0,107
-63,607	800,000	0,009	-0,019
-62,592	800,000	0,018	0,046
-61,578	149,517	0,133	-0,130
-60,563	-66,349	-0,127	-0,036
-59,549	179,021	-0,035	-0,037
-58,534	43,164	-2,302	-1,504
-57,519	-200,000	-0,052	-0,669
-56,505	-200,000	-1,395	-5,229
-55,490	185,637	0,850	0,906
-54,476	800,000	5,416	12,102
-53,461	-200,000	19,593	325,461
-52,446	800,000	751,718	2322,410
-51,432	539,757	1663,796	2850,145
-50,417	114,289	1641,625	1432,697
-49,403	81,309	1289,398	998,130
-48,388	30,948	1029,550	631,161
-47,373	19,719	992,507	571,316
-46,359	16,387	980,391	553,356
-45,344	13,049	977,039	540,462
-44,330	13,462	975,291	540,832
-43,315	12,677	973,133	537,040
-42,300	12,651	972,100	536,363
-41,286	12,632	971,082	535,719
-40,271	12,563	970,224	534,998
-39,257	12,613	969,275	534,618
-38,242	12,607	968,551	534,175
-37,227	12,597	967,658	533,630
-36,213	12,586	966,731	533,061
-35,198	12,546	965,840	532,418
-34,184	12,620	965,013	532,182
-33,169	12,632	963,990	531,636
-32,154	12,617	963,122	531,089
-31,140	12,616	962,359	530,643
-30,125	12,614	961,591	530,192
-29,111	12,598	960,706	529,631
-28,096	12,561	960,160	529,190
-27,082	12,633	959,281	528,918
-26,067	12,599	958,667	528,447
-25,052	12,627	957,837	528,059
-24,038	12,604	957,198	527,613
-23,023	12,599	956,578	527,234
-22,009	12,619	955,913	526,910
-20,994	12,636	955,323	526,620
-19,979	12,650	954,644	526,269
-18,965	12,648	954,142	525,964
-17,950	12,579	953,625	525,438
-16,936	12,556	952,823	524,899
-15,921	12,492	952,192	524,325
-14,906	12,550	951,306	524,003
-13,892	12,522	950,693	523,558
-12,877	12,539	949,936	523,174
-11,863	12,472	949,586	522,743
-10,848	12,503	949,073	522,542
-9,833	12,642	948,353	522,568
-8,819	12,564	947,782	521,984
-7,804	12,540	947,024	521,468
-6,790	12,502	946,575	521,078
-5,775	12,519	945,996	520,793
-4,760	12,532	945,421	520,498
-3,746	12,494	944,939	520,093
-2,731	12,364	944,060	519,173
-1,717	12,326	943,317	518,623
-0,702	12,359	942,715	518,378
0,313	12,158	941,948	518,099
1,327	15,627	939,517	527,691
2,342	24,633	792,475	468,950
3,356	20,234	457,664	264,080
4,371	-7,594	316,752	152,909
5,386	-11,529	298,657	140,142
6,400	-13,494	292,512	135,279
7,415	-13,776	290,341	133,982
8,429	-13,972	288,504	132,929
9,444	-13,924	287,729	132,607
10,459	-13,709	286,977	132,460
11,473	-14,011	286,515	131,939
12,488	-13,954	286,001	131,746
13,502	-14,007	285,594	131,495
14,517	-13,685	285,161	131,599
15,531	-13,407	284,668	131,630
16,546	-13,153	284,252	131,673
17,561	-13,362	283,995	131,338
18,575	-13,340	283,858	131,286
19,590	-13,339	283,486	131,102
20,604	-13,121	282,954	131,056
21,619	-13,229	282,536	130,745
22,634	-13,297	282,369	130,591
23,648	-13,192	282,023	130,521
24,663	-13,123	281,640	130,399
25,677	-13,341	281,636	130,175
26,692	-13,128	281,118	130,129
27,707	-13,097	280,802	130,001
28,721	-13,160	280,492	129,785
29,736	-13,151	280,275	129,682
30,750	-13,229	280,030	129,483
31,765	-13,185	279,680	129,351
32,780	-13,178	279,577	129,299
33,794	-13,074	279,186	129,205
34,809	-13,318	279,102	128,923
35,823	-13,137	278,795	128,941
36,838	-13,091	278,443	128,810
37,853	-13,166	278,085	128,562
38,867	-13,299	278,050	128,409
39,882	-13,284	277,830	128,310
40,896	-13,072	277,525	128,359
41,911	-13,166	277,190	128,103
42,926	-13,161	276,992	128,005
43,940	-13,277	276,820	127,804
44,955	-13,186	276,452	127,709
45,969	-13,287	276,318	127,540
46,984	-13,257	276,182	127,495
47,999	-13,340	276,079	127,358
49,013	-13,310	275,616	127,161
50,028	-13,151	275,430	127,212
51,042	-13,378	275,220	126,891
52,057	-13,371	274,974	126,773
53,071	-13,261	274,693	126,735
54,086	-13,302	274,451	126,575
55,101	-13,320	274,271	126,463
56,115	-13,217	273,979	126,414
57,130	-13,247	273,864	126,321
58,144	-13,426	273,599	126,021
59,159	-13,398	273,261	125,880
60,174	-13,301	273,002	125,839
61,188	-13,327	272,776	125,700
62,203	-13,216	272,526	125,677
63,217	-13,101	272,384	125,707
64,232	-13,341	272,375	125,469
65,247	-13,244	271,858	125,309
66,261	-13,256	271,625	125,179
67,276	-13,176	271,580	125,221
68,290	-13,139	271,265	125,099
69,305	-13,303	271,046	124,835
70,320	-13,225	270,843	124,803
71,334	-13,040	270,378	124,748
72,349	-13,335	270,365	124,459
73,363	-13,098	270,133	124,559
74,378	-13,069	269,849	124,444
75,393	-13,199	269,643	124,219
76,407	-13,307	269,541	124,061
77,422	-13,024	269,313	124,204
78,436	-13,233	268,922	123,822
79,451	-13,143	268,744	123,812
80,466	-13,304	268,408	123,499
81,480	-13,121	268,296	123,603
82,495	-13,261	268,103	123,376
83,509	-13,317	268,033	123,281
84,524	-13,163	267,754	123,282
85,539	-13,203	267,476	123,107
86,553	-13,106	267,305	123,105
87,568	-13,440	267,141	122,715
88,582	-13,240	266,954	122,800
89,597	-13,189	266,674	122,706
90,611	-13,276	266,463	122,520
91,626	-13,418	266,396	122,349
92,641	-13,309	266,151	122,324
93,655	-13,235	265,850	122,242
94,670	-13,150	265,724	122,250
95,684	-13,209	265,314	121,997
96,699	-13,216	265,189	121,923
97,714	-13,189	265,014	121,855
98,728	-13,436	264,868	121,555
99,743	-13,483	264,790	121,466
100,757	-13,168	264,306	121,516
101,772	-13,241	264,333	121,452
102,787	-13,171	263,910	121,310
103,801	-13,179	263,628	121,163
104,816	-13,140	263,389	121,077
105,830	-13,310	263,424	120,929
106,845	-13,209	263,096	120,858
107,860	-13,483	262,920	120,523
108,874	-13,304	262,772	120,604
109,889	-13,351	262,644	120,492
110,903	-13,478	262,187	120,159
111,918	-13,399	262,150	120,202
112,933	-13,394	261,885	120,074
113,947	-13,267	261,903	120,184
114,962	-13,295	261,497	119,962
115,976	-13,291	261,304	119,866
116,991	-13,361	261,206	119,749
118,006	-13,367	261,198	119,729
119,020	-13,300	260,797	119,594
120,035	-13,262	260,809	119,623
121,049	-13,224	260,473	119,491
122,064	-13,426	260,298	119,222
123,079	-13,269	260,035	119,229
124,093	-13,291	259,936	119,154
125,108	-13,086	259,677	119,205
126,122	-13,163	259,494	119,043
127,137	-13,248	259,242	118,841
128,151	-13,259	259,164	118,786
129,166	-13,303	258,897	118,614
130,181	-13,342	258,669	118,465
131,195	-13,380	258,420	118,307
132,210	-13,204	258,190	118,345
133,224	-13,466	258,083	118,057
134,239	-13,497	257,806	117,892
135,254	-13,386	257,579	117,875
136,268	-13,395	257,432	117,789
137,283	-13,460	257,426	117,719
138,297	-13,173	257,065	117,793
139,312	-13,209	256,873	117,663
140,327	-13,423	256,792	117,430
141,341	-13,387	256,409	117,276
142,356	-13,391	256,247	117,188
143,370	-13,366	256,237	117,194
144,385	-13,161	255,960	117,234
145,400	-13,249	255,763	117,058
146,414	-13,101	255,508	117,058
147,429	-13,064	255,255	116,964
148,443	-13,290	255,230	116,747
149,458	-13,433	254,915	116,470
150,473	-13,375	254,880	116,493
151,487	-13,406	254,576	116,317
152,502	-13,380	254,476	116,283
153,516	-13,295	254,440	116,329
154,531	-13,121	253,953	116,246
155,546	-13,077	253,805	116,205
156,560	-13,134	253,523	116,017
157,575	-13,489	253,534	115,708
158,589	-13,469	253,256	115,588
159,604	-13,387	253,147	115,598
160,619	-13,102	252,926	115,729
161,633	-13,102	252,746	115,638
162,648	-13,117	252,661	115,576
163,662	-13,180	252,385	115,384
164,677	-13,259	252,434	115,329
165,692	-13,235	252,016	115,149
166,706	-13,170	251,931	115,155
167,721	-13,166	251,791	115,084
168,735	-13,266	251,732	114,962
169,750	-13,320	251,406	114,757
170,764	-13,136	251,185	114,802
171,779	-13,376	251,133	114,565
172,794	-13,225	250,866	114,560
173,808	-13,114	250,666	114,552
174,823	-13,431	250,492	114,195
175,837	-13,267	250,396	114,280
176,852	-13,367	250,121	114,060
177,867	-13,448	250,016	113,933
178,881	-13,331	249,843	113,943
179,896	-13,137	249,617	113,993
180,910	-13,255	249,505	113,832
181,925	-13,383	249,354	113,645
182,940	-13,162	249,004	113,661
183,954	-13,150	248,961	113,642
184,969	-13,139	248,755	113,547
185,983	-13,030	248,669	113,589
186,998	-13,181	248,480	113,366
188,013	-13,184	248,210	113,230
189,027	-13,315	247,949	112,991
190,042	-13,340	247,928	112,951
191,056	-13,385	247,687	112,794
192,071	-13,435	247,445	112,631
193,086	-13,578	247,256	112,416
194,100	-13,362	247,061	112,497
195,115	-13,280	247,011	112,533
196,129	-13,294	246,724	112,381
197,144	-13,378	246,448	112,175
198,159	-13,423	246,379	112,096
199,173	-13,412	246,217	112,021
200,188	-13,635	245,956	111,708
201,202	-13,627	245,760	111,616
202,217	-13,437	245,610	111,695
203,232	-13,368	245,373	111,634
204,246	-13,733	245,051	111,177
205,261	-14,737	244,549	110,113
206,275	-14,557	244,711	110,324
207,290	-10,138	246,124	114,609
208,304	-3,083	248,297	121,487
209,319	0,806	249,669	125,395
210,334	1,806	249,883	126,326
211,348	2,560	249,863	126,933
212,363	2,788	249,940	127,151
213,377	3,164	249,951	127,458
214,392	3,608	249,655	127,665
215,407	3,571	249,634	127,613
216,421	3,600	249,520	127,567
217,436	3,575	249,354	127,450
218,450	3,508	249,157	127,282
219,465	3,627	248,952	127,266
220,480	3,345	248,716	126,900
221,494	3,234	248,447	126,660
222,509	2,801	248,231	126,179
223,523	2,550	248,025	125,856
224,538	2,587	247,721	125,721
225,553	2,347	247,421	125,360
226,567	2,276	247,352	125,255
227,582	2,158	247,309	125,125
228,596	2,166	247,103	125,016
229,611	2,264	246,859	124,962
230,626	2,250	246,619	124,818
231,640	2,120	246,622	124,702
232,655	2,059	246,439	124,548
233,669	2,422	246,069	124,647
234,684	2,250	246,159	124,540
235,699	2,400	245,904	124,524
236,713	2,342	245,892	124,459
237,728	2,607	245,696	124,565
238,742	2,192	245,470	124,101
239,757	2,366	245,284	124,137
240,772	2,443	244,986	124,038
241,786	2,061	244,927	123,686
242,801	2,255	244,750	123,744
243,815	2,127	244,538	123,521
244,830	2,360	244,491	123,676
245,844	2,254	244,314	123,489
246,859	2,421	244,053	123,482
247,874	2,340	243,920	123,337
248,888	2,469	243,922	123,432
249,903	2,397	243,703	123,253
250,917	2,373	243,627	123,184
251,932	2,565	243,427	123,227
252,947	2,613	243,256	123,168
253,961	2,284	243,057	122,790
254,976	2,495	242,936	122,889
255,990	2,353	242,838	122,714
257,005	2,572	242,611	122,764
258,020	2,431	242,471	122,569
259,034	2,163	242,383	122,298
260,049	2,286	242,170	122,279
261,063	2,209	242,108	122,174
262,078	2,311	241,907	122,144
263,093	2,446	241,692	122,133
264,107	2,431	241,561	122,044
265,122	2,266	241,359	121,799
266,136	2,510	241,236	121,921
267,151	2,420	241,006	121,722
268,166	2,349	240,736	121,518
269,180	2,163	240,750	121,366
270,195	2,148	240,555	121,244
271,209	2,443	240,389	121,386
272,224	2,612	240,121	121,374
273,239	2,347	240,077	121,130
274,253	2,462	239,816	121,079
275,268	2,245	239,709	120,842
276,282	2,460	239,429	120,861
277,297	2,282	239,325	120,655
278,312	2,256	239,313	120,618
279,326	2,316	239,185	120,590
280,341	2,254	239,045	120,460
281,355	2,280	238,866	120,379
282,370	2,447	238,702	120,418
283,384	2,397	238,571	120,302
284,399	2,606	238,288	120,313
285,414	2,295	238,284	120,055
286,428	2,424	238,156	120,082
287,443	2,439	238,011	120,010
288,457	2,263	237,822	119,765
289,472	2,298	237,657	119,699
290,487	2,324	237,457	119,608
291,501	2,328	237,226	119,485
292,516	2,297	237,197	119,434
293,530	2,377	236,936	119,355
294,545	2,513	236,818	119,392
295,560	2,469	236,666	119,270
296,574	2,401	236,548	119,147
297,589	2,394	236,403	119,058
298,603	2,279	236,423	118,967
299,618	2,273	236,055	118,766
300,633	2,289	236,045	118,764
301,647	2,413	235,990	118,822
302,662	2,657	235,725	118,868
303,676	2,575	235,533	118,697
304,691	2,532	235,467	118,619
305,706	2,436	235,161	118,380
306,720	2,592	234,906	118,362
307,735	2,493	234,884	118,264
308,749	2,445	234,844	118,196
309,764	2,156	234,626	117,852
310,779	2,164	234,495	117,781
311,793	2,211	234,328	117,723
312,808	2,497	234,091	117,815
313,822	2,547	233,921	117,758
314,837	2,559	233,833	117,712
315,852	2,514	233,846	117,673
316,866	2,457	233,607	117,499
317,881	2,604	233,387	117,491
318,895	2,463	233,284	117,320
319,910	2,340	233,087	117,116
320,925	2,427	232,977	117,117
321,939	2,576	232,799	117,131
322,954	2,645	232,593	117,071
323,968	2,403	232,446	116,801
324,983	2,350	232,374	116,713
325,997	2,565	232,278	116,820
327,012	2,531	232,049	116,668
328,027	2,407	231,936	116,506
329,041	2,612	231,770	116,568
330,056	2,520	231,676	116,440
331,070	2,523	231,477	116,333
332,085	2,483	231,287	116,196
333,100	2,482	231,089	116,085
334,114	2,350	231,056	115,958
335,129	2,505	230,908	115,992
336,143	2,315	230,834	115,799
337,158	2,629	230,552	115,887
338,173	2,676	230,453	115,862
339,187	2,492	230,358	115,665
340,202	2,528	230,136	115,570
341,216	2,390	230,023	115,398
342,231	2,375	229,975	115,352
343,246	2,478	229,855	115,359
344,260	2,464	229,561	115,191
345,275	2,566	229,512	115,234
346,289	2,460	229,330	115,052
347,304	2,356	229,205	114,900
348,319	2,417	229,008	114,837
349,333	2,565	228,735	114,802
350,348	2,413	228,560	114,589
351,362	2,368	228,613	114,571
352,377	2,547	228,300	114,539
353,392	2,319	228,129	114,272
354,406	2,308	228,058	114,218
355,421	195,136	1315,160	1389,024
356,435	156,500	1447,543	1388,969
