DTS Sentinel unit serial number:	SN410029Multiplexer serial number:	ORYXHardware model number:	OX2-SRSoftware version number:	ORYX F/W v4,00 Oryx Data Collector v3.7.2.0data status	okinstallation	B5 Nyhavnadifferential loss correction	single-endedforward channel	channel 2reverse channel	N/Adate	2023/12/12time	18:02:13forward acquisition time	300,00reverse acquisition time	0,00gamma	499,1914k internal	0,3157k external	0,3157temperature offset calibration	1,0000default loss term (dB/km)	0,3820temperature slope calibration	1,0000multiplexer offset coefficient	1,0000multiplexer slope coefficient	1,0000fibre end	0,00T internal ref (°C)	15,65T ext. ref 1 (°C)	-0,77T ext. ref 2 (°C)	-1,08length (m)	temperature (°C)	Stokes	anti-Stokes-744,400	446,921	0,044	-0,072
-743,385	-83,551	-0,269	0,063
-742,371	-111,342	0,248	0,037
-741,356	-104,290	-0,248	-0,042
-740,342	-200,000	0,008	0,112
-739,327	-97,211	-0,290	0,055
-738,312	-67,780	0,102	-0,029
-737,298	-108,253	-0,341	0,054
-736,283	-200,000	-0,009	-0,030
-735,269	-118,063	-0,170	0,022
-734,254	-41,478	0,147	0,056
-733,239	-59,120	-0,507	-0,160
-732,225	2,474	0,201	0,107
-731,210	152,788	-0,070	0,071
-730,196	-123,445	-0,019	0,002
-729,181	-44,084	0,046	0,017
-728,167	139,286	0,070	-0,068
-727,152	28,300	-0,127	-0,079
-726,137	503,952	-0,066	0,113
-725,123	-88,933	-0,049	0,011
-724,108	159,376	-0,068	0,070
-723,094	-200,000	0,006	-0,147
-722,079	149,998	-0,078	-0,078
-721,064	-68,966	0,138	-0,039
-720,050	-200,000	-0,001	0,121
-719,035	-112,932	0,075	0,011
-718,021	-80,871	-0,190	-0,046
-717,006	-200,000	-0,002	-0,015
-715,991	626,400	-0,081	-0,152
-714,977	-200,000	-0,005	0,059
-713,962	800,000	-0,053	-0,120
-712,948	-98,408	-0,060	-0,011
-711,933	79,471	0,111	0,087
-710,918	-57,838	0,098	0,032
-709,904	-72,862	-0,179	-0,048
-708,889	-200,000	0,019	-0,063
-707,875	-134,354	-0,160	-0,014
-706,860	-64,550	-0,047	-0,014
-705,845	-200,000	-0,005	0,069
-704,831	-200,000	-0,013	0,075
-703,816	20,401	0,046	0,027
-702,802	-8,621	-0,094	-0,046
-701,787	-200,000	0,019	-0,080
-700,772	145,762	-0,070	-0,069
-699,758	-101,880	0,065	-0,012
-698,743	-182,857	0,140	0,002
-697,729	-84,937	-0,043	-0,010
-696,714	262,078	-0,050	0,064
-695,699	-200,000	-0,022	-0,086
-694,685	-115,838	-0,168	-0,023
-693,670	462,465	0,065	-0,107
-692,656	-200,000	0,000	-0,020
-691,641	77,084	0,127	0,099
-690,627	-25,317	0,067	0,029
-689,612	-51,297	-0,153	-0,052
-688,597	29,814	-0,137	-0,086
-687,583	800,000	-0,072	-0,189
-686,568	-200,000	-0,017	-0,082
-685,554	229,072	-0,065	-0,078
-684,539	-119,507	-0,105	-0,013
-683,524	200,104	0,055	0,062
-682,510	147,014	-0,024	-0,024
-681,495	-200,000	0,024	-0,079
-680,481	-15,507	-0,150	0,070
-679,466	96,562	-0,093	-0,078
-678,451	19,147	-0,137	0,081
-677,437	-200,000	-0,009	-0,078
-676,422	-9,960	-0,068	-0,033
-675,408	-200,000	0,002	0,086
-674,393	139,465	-0,107	-0,104
-673,378	-200,000	0,007	-0,057
-672,364	800,000	-0,032	-0,099
-671,349	800,000	0,032	-0,103
-670,335	800,000	-0,035	0,108
-669,320	-200,000	0,003	0,016
-668,305	11,756	0,078	0,044
-667,291	-200,000	0,007	0,154
-666,276	-57,287	0,128	0,041
-665,262	14,770	-0,055	0,031
-664,247	-200,000	0,048	-0,155
-663,232	32,886	-0,023	-0,015
-662,218	24,981	0,038	-0,023
-661,203	6,451	-0,078	0,043
-660,189	-200,000	-0,003	0,192
-659,174	174,714	-0,035	-0,037
-658,159	547,054	-0,052	-0,093
-657,145	-101,057	-0,074	-0,013
-656,130	65,243	0,124	0,092
-655,116	356,822	0,012	-0,017
-654,101	-200,000	-0,020	0,128
-653,086	-74,753	0,068	-0,018
-652,072	239,843	0,058	0,072
-651,057	35,568	-0,045	0,029
-650,043	-200,000	-0,004	-0,113
-649,028	-200,000	0,004	-0,065
-648,014	412,678	-0,054	-0,084
-646,999	-95,790	0,032	0,006
-645,984	4,927	0,060	-0,032
-644,970	-32,420	-0,115	-0,047
-643,955	-84,212	-0,146	-0,034
-642,941	-200,000	0,005	0,025
-641,926	-200,000	-0,014	0,126
-640,911	65,140	0,076	0,056
-639,897	107,788	-0,054	-0,048
-638,882	-75,881	0,106	-0,027
-637,868	-200,000	0,007	-0,103
-636,853	26,595	-0,065	-0,040
-635,838	800,000	0,038	0,080
-634,824	-15,848	-0,170	-0,079
-633,809	256,949	0,042	0,053
-632,795	-200,000	-0,007	-0,038
-631,780	800,000	-0,021	0,046
-630,765	110,040	0,026	-0,023
-629,751	-200,000	-0,039	-0,153
-628,736	250,624	-0,118	-0,147
-627,722	-160,709	-0,066	-0,003
-626,707	306,728	-0,043	-0,059
-625,692	-200,000	-0,000	-0,097
-624,678	-17,364	0,092	0,043
-623,663	-200,000	-0,001	0,134
-622,649	800,000	-0,037	0,078
-621,634	-16,261	-0,081	0,038
-620,619	-200,000	0,034	-0,138
-619,605	800,000	-0,046	-0,113
-618,590	62,571	-0,085	-0,062
-617,576	800,000	-0,041	0,100
-616,561	413,045	-0,054	0,084
-615,546	411,828	0,027	0,043
-614,532	-200,000	0,004	-0,047
-613,517	-102,172	-0,153	0,027
-612,503	-200,000	0,013	-0,060
-611,488	208,732	-0,127	-0,146
-610,474	-200,000	-0,014	0,068
-609,459	-200,000	0,013	-0,048
-608,444	-200,000	0,004	0,035
-607,430	321,260	-0,016	-0,023
-606,415	-200,000	-0,031	-0,177
-605,401	51,619	0,110	-0,077
-604,386	-122,098	-0,083	0,010
-603,371	176,739	0,058	0,062
-602,357	-200,000	0,042	0,161
-601,342	281,515	0,010	0,014
-600,328	-123,244	-0,119	0,014
-599,313	39,762	0,118	-0,077
-598,298	454,264	0,093	-0,151
-597,284	-59,008	0,123	-0,039
-596,269	80,845	-0,046	0,036
-595,255	-105,856	-0,150	-0,025
-594,240	-12,122	-0,058	0,028
-593,225	15,322	0,011	-0,006
-592,211	605,798	-0,014	-0,026
-591,196	-81,344	-0,060	-0,014
-590,182	120,221	-0,145	0,132
-589,167	-200,000	-0,001	-0,047
-588,152	-200,000	-0,004	0,066
-587,138	450,394	0,091	-0,147
-586,123	-200,000	0,017	-0,095
-585,109	-17,221	-0,150	-0,069
-584,094	-200,000	-0,015	-0,052
-583,079	8,155	0,022	0,012
-582,065	121,004	0,015	0,013
-581,050	399,450	-0,042	0,064
-580,036	-18,600	0,070	0,032
-579,021	224,446	-0,061	-0,073
-578,006	-200,000	-0,011	-0,047
-576,992	545,211	-0,048	0,084
-575,977	362,840	0,039	-0,058
-574,963	-126,765	0,111	-0,012
-573,948	800,000	-0,039	0,081
-572,934	800,000	-0,051	-0,111
-571,919	148,745	-0,081	-0,080
-570,904	278,642	-0,141	-0,185
-569,890	800,000	0,046	-0,137
-568,875	132,323	-0,104	0,098
-567,861	-81,739	0,149	0,035
-566,846	454,355	0,085	-0,138
-565,831	-150,026	0,134	-0,008
-564,817	-60,858	0,134	0,041
-563,802	182,029	-0,077	-0,083
-562,788	-9,813	-0,075	0,037
-561,773	-200,000	-0,019	-0,089
-560,758	119,470	-0,025	0,023
-559,744	-200,000	0,009	-0,057
-558,729	-200,000	-0,011	0,041
-557,715	-168,044	0,008	0,000
-556,700	-171,737	-0,024	-0,001
-555,685	-18,842	-0,100	-0,045
-554,671	-159,114	-0,034	0,001
-553,656	-200,000	0,010	-0,107
-552,642	87,534	0,052	0,042
-551,627	-102,374	-0,150	0,026
-550,612	243,276	-0,089	0,109
-549,598	-124,495	0,153	0,017
-548,583	513,229	0,027	-0,047
-547,569	-200,000	-0,009	0,083
-546,554	-126,568	0,122	-0,013
-545,539	800,000	0,017	0,049
-544,525	127,840	0,031	-0,029
-543,510	-108,576	0,065	0,010
-542,496	-200,000	0,003	-0,013
-541,481	6,972	-0,040	0,022
-540,466	-83,346	0,091	-0,021
-539,452	109,442	0,037	0,032
-538,437	-200,000	-0,000	0,077
-537,423	800,000	-0,028	0,060
-536,408	100,654	-0,091	0,077
-535,393	800,000	0,042	0,092
-534,379	-2,628	-0,132	0,068
-533,364	147,472	-0,135	-0,133
-532,350	166,210	0,078	-0,081
-531,335	-71,582	0,052	-0,014
-530,321	89,315	0,142	-0,115
-529,306	-200,000	-0,041	-0,155
-528,291	-38,162	-0,023	0,009
-527,277	6,728	-0,164	-0,089
-526,262	-11,721	0,152	-0,073
-525,248	800,000	0,015	-0,034
-524,233	706,054	0,062	0,121
-523,218	-200,000	0,010	0,060
-522,204	800,000	0,037	0,100
-521,189	-165,625	-0,020	-0,001
-520,175	31,899	0,097	-0,061
-519,160	-190,963	-0,056	-0,000
-518,145	63,574	0,020	-0,015
-517,131	-29,133	0,047	0,020
-516,116	471,880	-0,057	0,094
-515,102	-148,798	0,187	0,011
-514,087	136,263	0,023	0,022
-513,072	-200,000	-0,005	0,024
-512,058	-200,000	0,025	-0,082
-511,043	800,000	0,013	-0,035
-510,029	-200,000	0,010	0,081
-509,014	-26,961	0,030	-0,013
-507,999	-200,000	0,005	0,245
-506,985	-200,000	0,000	0,079
-505,970	244,636	-0,066	0,081
-504,956	-67,412	-0,013	0,004
-503,941	-119,828	0,050	0,006
-502,926	-200,000	0,017	0,105
-501,912	-112,758	-0,027	-0,004
-500,897	169,304	0,026	-0,028
-499,883	333,765	-0,057	-0,081
-498,868	-100,835	-0,112	-0,020
-497,853	-7,085	0,117	-0,058
-496,839	-33,205	0,068	0,027
-495,824	800,000	-0,029	0,076
-494,810	-200,000	0,006	0,147
-493,795	-60,221	-0,038	-0,012
-492,781	-200,000	-0,013	0,041
-491,766	-27,956	-0,083	0,035
-490,751	165,789	-0,039	0,041
-489,737	-72,605	0,087	0,023
-488,722	-132,224	0,043	0,004
-487,708	125,817	0,048	0,045
-486,693	-200,000	0,010	0,202
-485,678	-200,000	0,000	0,159
-484,664	182,228	-0,024	0,026
-483,649	263,972	-0,047	-0,060
-482,635	-63,317	0,178	-0,053
-481,620	-31,366	0,037	-0,015
-480,605	800,000	-0,054	0,121
-479,591	-200,000	0,026	0,087
-478,576	106,854	-0,102	0,089
-477,562	800,000	-0,014	0,037
-476,547	279,701	-0,060	-0,078
-475,532	-60,388	-0,166	-0,051
-474,518	165,331	-0,109	0,112
-473,503	-131,719	0,152	-0,014
-472,489	-200,000	0,008	-0,068
-471,474	-129,820	-0,054	-0,005
-470,459	276,492	-0,018	-0,023
-469,445	-200,000	-0,003	0,024
-468,430	65,607	-0,045	-0,033
-467,416	-179,362	0,095	0,001
-466,401	103,637	0,019	-0,016
-465,386	583,843	-0,087	0,156
-464,372	-71,824	0,074	0,020
-463,357	-112,480	0,123	0,018
-462,343	160,943	0,011	0,011
-461,328	-95,090	-0,099	-0,019
-460,313	-103,009	-0,067	0,011
-459,299	-28,673	0,132	0,055
-458,284	800,000	-0,038	-0,119
-457,270	-200,000	-0,004	-0,044
-456,255	-200,000	-0,018	-0,131
-455,241	245,901	-0,090	-0,110
-454,226	509,723	-0,082	0,139
-453,211	-200,000	-0,015	0,088
-452,197	632,969	0,061	0,114
-451,182	800,000	0,031	-0,083
-450,168	92,933	0,174	0,143
-449,153	-57,470	0,041	0,013
-448,138	-200,000	-0,010	-0,054
-447,124	-141,862	0,071	-0,005
-446,109	-73,755	0,180	-0,047
-445,095	800,000	0,040	0,083
-444,080	242,796	0,026	0,032
-443,065	-54,832	0,119	-0,039
-442,051	-200,000	0,000	0,072
-441,036	-46,953	-0,056	-0,020
-440,022	284,941	0,037	0,048
-439,007	-200,000	0,010	0,078
-437,992	95,662	-0,101	-0,084
-436,978	24,452	0,076	0,046
-435,963	-127,862	0,052	-0,005
-434,949	231,995	-0,026	0,032
-433,934	56,060	-0,071	-0,050
-432,919	78,353	-0,082	0,064
-431,905	231,807	-0,055	-0,066
-430,890	-2,466	0,056	0,028
-429,876	-200,000	0,026	0,127
-428,861	-70,945	0,153	0,042
-427,846	205,310	-0,036	-0,040
-426,832	370,519	-0,079	-0,117
-425,817	-41,416	0,109	-0,041
-424,803	800,000	-0,046	-0,111
-423,788	-200,000	-0,056	0,214
-422,773	800,000	-0,055	0,169
-421,759	800,000	-0,044	0,127
-420,744	427,273	-0,076	0,120
-419,730	131,014	-0,096	-0,090
-418,715	55,396	-0,021	-0,015
-417,701	-34,843	0,074	0,029
-416,686	-27,208	-0,114	0,048
-415,671	15,478	0,144	-0,082
-414,657	51,455	0,102	-0,070
-413,642	800,000	0,032	0,100
-412,628	729,343	-0,060	-0,117
-411,613	19,719	0,052	-0,030
-410,598	3,649	0,055	-0,029
-409,584	89,978	0,069	0,056
-408,569	-200,000	-0,024	0,140
-407,555	-200,000	0,017	0,131
-406,540	35,507	-0,016	0,010
-405,525	-200,000	0,006	-0,058
-404,511	129,420	0,045	-0,042
-403,496	-81,820	0,127	0,030
-402,482	430,630	0,018	-0,028
-401,467	304,895	0,039	-0,052
-400,452	0,978	0,065	0,034
-399,438	-66,715	-0,103	-0,029
-398,423	-200,000	-0,025	-0,100
-397,409	-23,982	0,084	-0,036
-396,394	327,024	-0,137	-0,191
-395,379	16,969	0,042	-0,024
-394,365	119,780	0,079	0,071
-393,350	-139,706	0,051	-0,004
-392,336	-200,000	0,004	0,131
-391,321	128,255	-0,087	0,081
-390,306	-200,000	-0,013	-0,042
-389,292	-76,419	0,017	0,004
-388,277	107,599	0,115	0,099
-387,263	-2,398	-0,072	-0,037
-386,248	-200,000	0,006	-0,071
-385,233	74,732	-0,087	-0,066
-384,219	2,849	0,058	-0,030
-383,204	697,617	-0,094	-0,181
-382,190	-98,273	0,053	-0,010
-381,175	800,000	-0,033	0,077
-380,160	-33,755	0,205	-0,082
-379,146	90,086	-0,056	-0,046
-378,131	-200,000	0,059	-0,222
-377,117	111,504	-0,081	0,071
-376,102	99,119	-0,120	0,101
-375,088	170,077	-0,143	-0,149
-374,073	-200,000	-0,019	-0,221
-373,058	-29,378	0,075	-0,031
-372,044	42,689	-0,043	-0,029
-371,029	-80,028	-0,115	0,028
-370,015	-200,000	0,011	-0,073
-369,000	-171,097	-0,058	-0,001
-367,985	800,000	-0,046	-0,095
-366,971	800,000	0,017	0,037
-365,956	800,000	0,032	0,090
-364,942	64,661	-0,106	0,078
-363,927	214,895	0,024	-0,027
-362,912	319,933	0,041	-0,056
-361,898	-51,057	0,034	-0,011
-360,883	800,000	0,070	-0,143
-359,869	-78,644	-0,077	0,019
-358,854	-133,501	0,168	0,015
-357,839	253,282	-0,074	0,092
-356,825	-31,747	0,155	-0,063
-355,810	309,826	-0,085	-0,115
-354,796	94,446	-0,059	-0,049
-353,781	-175,642	-0,153	-0,003
-352,766	48,658	0,080	-0,054
-351,752	69,348	-0,074	-0,055
-350,737	-200,000	0,018	-0,079
-349,723	94,184	0,038	-0,031
-348,708	389,907	-0,047	0,070
-347,693	381,487	-0,073	-0,108
-346,679	800,000	-0,022	0,071
-345,664	-200,000	-0,024	-0,103
-344,650	-58,076	0,042	0,013
-343,635	-200,000	0,032	-0,102
-342,620	-200,000	-0,033	-0,170
-341,606	31,796	-0,075	-0,047
-340,591	-200,000	0,018	0,097
-339,577	-89,827	-0,081	0,017
-338,562	-117,480	-0,055	0,007
-337,548	-200,000	-0,023	-0,123
-336,533	-66,004	0,133	-0,038
-335,518	-94,028	-0,036	-0,007
-334,504	381,701	-0,036	0,054
-333,489	-200,000	0,011	-0,049
-332,475	-141,999	-0,064	0,005
-331,460	800,000	-0,031	-0,097
-330,445	-200,000	0,008	0,045
-329,431	-73,165	0,134	-0,035
-328,416	-50,210	0,042	0,014
-327,402	800,000	-0,008	0,017
-326,387	800,000	-0,010	0,026
-325,372	-200,000	-0,002	-0,083
-324,358	36,700	0,048	0,030
-323,343	79,320	0,028	-0,022
-322,329	-58,741	0,027	0,008
-321,314	11,129	0,061	0,034
-320,299	-200,000	-0,035	0,181
-319,285	-145,978	-0,141	0,009
-318,270	800,000	-0,043	0,106
-317,256	800,000	0,074	0,195
-316,241	104,376	-0,055	-0,047
-315,226	-18,167	0,063	-0,029
-314,212	-168,040	0,272	-0,008
-313,197	-95,252	0,076	0,015
-312,183	114,309	0,093	-0,082
-311,168	-200,000	0,042	-0,153
-310,153	119,515	-0,124	-0,111
-309,139	400,947	-0,019	0,028
-308,124	384,702	0,007	0,011
-307,110	-25,452	-0,046	-0,019
-306,095	-129,704	0,045	-0,004
-305,080	-200,000	-0,003	0,076
-304,066	166,912	0,077	0,079
-303,051	-56,828	-0,085	0,027
-302,037	-200,000	0,005	-0,147
-301,022	70,089	0,069	-0,052
-300,008	800,000	0,069	0,145
-298,993	320,480	-0,067	0,093
-297,978	190,604	0,047	-0,052
-296,964	-157,407	-0,030	0,001
-295,949	-102,984	-0,131	0,022
-294,935	43,807	0,090	0,059
-293,920	-200,000	-0,007	0,072
-292,905	39,006	0,008	0,005
-291,891	-130,752	0,095	-0,009
-290,876	128,727	-0,077	0,072
-289,862	451,234	-0,031	-0,050
-288,847	-116,942	-0,047	0,006
-287,832	-200,000	0,039	0,194
-286,818	207,776	0,140	-0,159
-285,803	-200,000	-0,023	-0,088
-284,789	140,830	0,081	0,078
-283,774	782,360	0,033	0,066
-282,759	-200,000	-0,017	-0,073
-281,745	464,325	-0,039	0,063
-280,730	25,352	-0,092	0,055
-279,716	50,480	-0,126	-0,086
-278,701	-79,080	-0,034	0,008
-277,686	268,054	0,092	0,116
-276,672	13,440	-0,067	-0,038
-275,657	212,299	0,021	-0,024
-274,643	69,310	0,044	0,033
-273,628	-86,116	-0,159	-0,035
-272,613	-153,548	0,108	-0,005
-271,599	-25,317	-0,263	0,112
-270,584	33,874	0,068	0,043
-269,570	19,065	0,174	0,101
-268,555	53,240	0,016	-0,011
-267,540	90,006	-0,036	-0,029
-266,526	130,996	-0,032	-0,030
-265,511	-101,192	0,089	-0,016
-264,497	-163,237	0,083	-0,003
-263,482	-66,446	0,048	-0,014
-262,467	-200,000	-0,008	0,047
-261,453	-200,000	-0,002	-0,034
-260,438	-147,929	-0,097	-0,006
-259,424	-72,934	-0,076	-0,020
-258,409	17,415	0,047	-0,027
-257,395	84,011	0,047	-0,037
-256,380	800,000	-0,014	-0,042
-255,365	-102,165	0,122	0,021
-254,351	-14,531	-0,078	0,036
-253,336	800,000	0,026	0,056
-252,322	-200,000	0,007	-0,123
-251,307	800,000	0,013	-0,040
-250,292	-200,000	-0,016	0,141
-249,278	772,821	0,072	0,142
-248,263	-200,000	-0,013	0,071
-247,249	-200,000	0,004	-0,087
-246,234	-23,208	0,103	-0,045
-245,219	800,000	-0,032	0,088
-244,205	427,318	0,015	0,023
-243,190	-131,627	0,108	-0,010
-242,176	-200,000	0,019	0,124
-241,161	-200,000	0,005	-0,087
-240,146	-62,128	-0,130	0,039
-239,132	800,000	-0,030	-0,070
-238,117	800,000	0,026	-0,063
-237,103	75,154	-0,084	-0,064
-236,088	53,803	-0,057	0,039
-235,073	800,000	0,062	0,138
-234,059	762,668	0,031	0,061
-233,044	78,404	-0,089	-0,069
-232,030	-138,604	0,073	0,006
-231,015	-8,800	0,090	-0,043
-230,000	-2,347	0,052	-0,026
-228,986	61,206	0,057	0,041
-227,971	-192,406	0,086	-0,001
-226,957	151,733	0,144	-0,142
-225,942	-176,982	0,068	-0,001
-224,927	-113,720	0,150	-0,021
-223,913	173,618	0,028	0,029
-222,898	181,337	0,015	0,016
-221,884	-103,301	-0,183	-0,031
-220,869	239,505	0,102	0,123
-219,855	158,230	0,047	0,047
-218,840	-70,486	0,082	0,022
-217,825	800,000	-0,045	0,104
-216,811	-66,769	0,011	0,003
-215,796	-200,000	0,004	0,156
-214,782	14,185	0,114	0,064
-213,767	-200,000	-0,004	0,028
-212,752	311,738	-0,017	-0,024
-211,738	-63,289	0,153	-0,045
-210,723	800,000	0,033	0,079
-209,709	409,819	-0,049	0,075
-208,694	84,999	-0,126	-0,099
-207,679	10,897	0,044	-0,024
-206,665	800,000	-0,036	0,082
-205,650	800,000	-0,054	0,135
-204,636	-200,000	0,019	-0,076
-203,621	800,000	-0,049	0,114
-202,606	-148,299	-0,117	0,007
-201,592	-139,665	-0,123	-0,009
-200,577	800,000	0,021	-0,055
-199,563	-37,524	-0,047	-0,018
-198,548	378,772	-0,028	0,041
-197,533	-71,580	0,113	-0,030
-196,519	36,079	-0,064	0,040
-195,504	35,771	-0,082	-0,052
-194,490	-200,000	-0,024	-0,100
-193,475	-116,841	-0,065	0,009
-192,460	800,000	-0,049	-0,112
-191,446	14,770	0,150	0,084
-190,431	34,985	0,050	0,031
-189,417	-70,616	0,061	0,017
-188,402	-16,014	-0,087	-0,040
-187,387	-9,197	0,121	-0,058
-186,373	-200,000	-0,002	0,058
-185,358	-200,000	0,001	-0,036
-184,344	800,000	-0,015	-0,030
-183,329	-63,516	-0,031	-0,009
-182,315	193,962	0,119	-0,130
-181,300	800,000	0,042	-0,095
-180,285	222,604	-0,041	-0,048
-179,271	42,087	-0,092	-0,060
-178,256	-200,000	-0,032	-0,120
-177,242	800,000	-0,017	0,042
-176,227	-200,000	-0,048	0,194
-175,212	287,697	0,007	0,009
-174,198	-168,056	-0,074	-0,002
-173,183	800,000	0,042	0,123
-172,169	41,211	-0,133	0,087
-171,154	-80,009	-0,029	-0,007
-170,139	-48,792	-0,029	0,010
-169,125	-76,178	-0,080	-0,020
-168,110	-139,517	0,045	-0,003
-167,096	-26,732	-0,064	0,027
-166,081	-200,000	-0,006	0,088
-165,066	-125,403	-0,058	0,006
-164,052	-200,000	0,003	-0,058
-163,037	-200,000	0,025	-0,088
-162,023	276,556	-0,049	-0,063
-161,008	-12,890	0,048	0,023
-159,993	113,963	0,145	0,127
-158,979	61,015	0,052	0,037
-157,964	-145,125	-0,204	-0,013
-156,950	-200,000	0,002	0,033
-155,935	-34,707	-0,016	0,006
-154,920	214,240	-0,083	0,095
-153,906	546,097	0,019	-0,032
-152,891	9,275	0,108	0,059
-151,877	-2,617	0,023	0,012
-150,862	-53,837	-0,060	0,020
-149,847	320,526	-0,037	-0,051
-148,833	438,828	0,025	0,039
-147,818	-200,000	-0,023	-0,134
-146,804	-200,000	-0,042	0,140
-145,789	-147,369	0,070	-0,004
-144,775	-200,000	0,031	-0,121
-143,760	-113,299	-0,148	-0,021
-142,745	800,000	0,049	-0,155
-141,731	-200,000	0,003	-0,014
-140,716	448,607	0,059	0,094
-139,702	177,824	0,059	0,062
-138,687	-93,307	0,124	0,024
-137,672	-200,000	-0,034	-0,132
-136,658	268,398	-0,084	-0,107
-135,643	37,792	0,047	-0,030
-134,629	-200,000	0,025	0,093
-133,614	-200,000	0,028	0,099
-132,599	-23,850	-0,044	0,019
-131,585	-200,000	0,011	0,056
-130,570	130,394	-0,120	-0,111
-129,556	-111,336	0,086	0,012
-128,541	310,481	-0,004	-0,005
-127,526	-131,701	0,043	-0,004
-126,512	-24,883	0,031	-0,013
-125,497	-80,815	0,089	0,021
-124,483	-200,000	0,000	-0,034
-123,468	474,031	0,010	0,016
-122,453	-200,000	0,030	-0,195
-121,439	800,000	-0,039	-0,083
-120,424	-155,723	0,104	0,005
-119,410	-200,000	0,022	0,076
-118,395	-90,514	-0,074	0,015
-117,380	735,603	0,008	-0,015
-116,366	402,100	0,035	-0,053
-115,351	4,863	-0,099	0,052
-114,337	800,000	-0,083	-0,168
-113,322	-85,062	-0,044	-0,010
-112,307	-48,339	-0,023	-0,008
-111,293	57,816	-0,161	0,113
-110,278	671,854	-0,053	0,099
-109,264	-95,696	-0,133	-0,025
-108,249	-30,661	-0,037	-0,015
-107,234	800,000	-0,027	0,084
-106,220	45,364	0,047	-0,031
-105,205	-200,000	0,003	0,081
-104,191	-200,000	-0,009	-0,045
-103,176	-113,941	0,098	-0,013
-102,162	76,709	-0,043	0,033
-101,147	-200,000	-0,004	0,047
-100,132	417,556	-0,037	-0,056
-99,118	800,000	-0,043	0,090
-98,103	11,446	0,054	-0,030
-97,089	607,200	0,067	0,121
-96,074	-29,535	0,088	-0,036
-95,059	89,378	-0,098	-0,078
-94,045	-200,000	0,012	-0,075
-93,030	800,000	0,056	-0,133
-92,016	106,860	-0,103	-0,087
-91,001	-200,000	-0,010	0,144
-89,986	800,000	0,038	-0,087
-88,972	-200,000	0,036	0,129
-87,957	142,012	0,074	0,070
-86,943	619,957	-0,105	-0,191
-85,928	183,404	-0,065	0,069
-84,913	-179,772	0,049	-0,001
-83,899	-200,000	-0,000	-0,073
-82,884	-200,000	0,003	-0,066
-81,870	-25,314	0,186	-0,079
-80,855	-64,248	0,051	0,015
-79,840	546,450	-0,095	-0,164
-78,826	-200,000	0,035	-0,164
-77,811	-13,535	-0,082	-0,038
-76,797	52,792	-0,090	-0,062
-75,782	-200,000	-0,008	0,049
-74,767	-87,931	0,139	0,030
-73,753	182,292	-0,040	0,043
-72,738	40,136	-0,144	0,093
-71,724	800,000	-0,072	-0,149
-70,709	-200,000	-0,008	0,102
-69,694	5,742	-0,130	-0,069
-68,680	680,338	-0,019	-0,035
-67,665	-200,000	-0,009	0,057
-66,651	-200,000	0,002	-0,175
-65,636	-32,672	-0,099	0,039
-64,622	58,421	-0,080	-0,056
-63,607	-24,106	-0,102	0,044
-62,592	-81,555	-0,018	-0,004
-61,578	97,899	-0,044	0,037
-60,563	-62,014	0,121	0,036
-59,549	-200,000	-0,019	-0,109
-58,534	-26,109	-2,075	-0,872
-57,519	800,000	-0,334	-0,950
-56,505	-200,000	-1,308	-4,912
-55,490	100,565	0,703	0,586
-54,476	800,000	5,367	12,062
-53,461	-200,000	17,416	284,650
-52,446	800,000	725,068	2223,605
-51,432	540,003	1640,770	2814,342
-50,417	110,910	1631,869	1409,691
-49,403	75,355	1286,001	972,911
-48,388	32,428	1027,848	635,852
-47,373	20,193	989,878	572,004
-46,359	18,684	978,040	560,192
-45,344	15,987	974,060	549,060
-44,330	16,130	972,561	548,660
-43,315	15,674	970,864	546,190
-42,300	15,615	969,694	545,318
-41,286	15,666	968,555	544,822
-40,271	15,675	967,540	544,257
-39,257	15,658	966,918	543,832
-38,242	15,663	965,809	543,204
-37,227	15,735	965,116	543,027
-36,213	15,651	964,309	542,278
-35,198	15,689	963,409	541,872
-34,184	15,664	962,718	541,383
-33,169	15,631	961,510	540,574
-32,154	15,735	960,649	540,406
-31,140	15,654	959,898	539,699
-30,125	15,718	959,091	539,430
-29,111	15,677	958,269	538,814
-28,096	15,717	957,656	538,578
-27,082	15,660	957,082	538,050
-26,067	15,676	956,124	537,540
-25,052	15,680	955,457	537,159
-24,038	15,678	954,782	536,752
-23,023	15,645	954,189	536,291
-22,009	15,731	953,413	536,108
-20,994	15,742	952,685	535,714
-19,979	15,685	952,154	535,210
-18,965	15,733	951,590	535,026
-17,950	15,694	951,008	534,552
-16,936	15,650	950,321	534,004
-15,921	15,622	949,722	533,559
-14,906	15,598	949,060	533,088
-13,892	15,563	948,231	532,491
-12,877	15,584	947,682	532,227
-11,863	15,500	947,084	531,604
-10,848	15,516	946,638	531,381
-9,833	15,669	945,978	531,476
-8,819	15,610	945,400	530,944
-7,804	15,639	944,782	530,669
-6,790	15,598	944,138	530,157
-5,775	15,589	943,811	529,923
-4,760	15,648	943,069	529,670
-3,746	15,606	942,218	529,040
-2,731	15,497	941,779	528,426
-1,717	15,442	941,120	527,862
-0,702	15,420	940,412	527,374
0,313	15,245	939,587	527,155
1,327	18,458	937,513	536,071
2,342	27,206	794,616	477,548
3,356	23,859	459,159	270,801
4,371	-3,079	313,956	156,571
5,386	-7,299	295,866	143,270
6,400	-9,262	289,795	138,371
7,415	-9,702	287,275	136,723
8,429	-9,622	285,636	136,009
9,444	-9,813	285,035	135,525
10,459	-9,649	284,206	135,279
11,473	-9,979	283,799	134,752
12,488	-9,844	283,208	134,590
13,502	-9,879	282,770	134,336
14,517	-9,806	282,394	134,216
15,531	-9,828	281,764	133,883
16,546	-9,687	281,424	133,845
17,561	-10,009	281,129	133,384
18,575	-9,636	280,687	133,520
19,590	-9,920	280,460	133,128
20,604	-9,766	280,136	133,110
21,619	-9,942	279,611	132,680
22,634	-9,799	279,216	132,617
23,648	-9,888	279,105	132,468
24,663	-9,849	278,800	132,349
25,677	-9,898	278,647	132,218
26,692	-9,794	278,369	132,173
27,707	-9,748	278,059	132,058
28,721	-9,656	277,692	131,959
29,736	-9,644	277,548	131,889
30,750	-9,801	277,189	131,559
31,765	-9,823	276,925	131,401
32,780	-9,562	276,726	131,542
33,794	-9,862	276,601	131,187
34,809	-9,823	276,337	131,087
35,823	-9,890	276,098	130,899
36,838	-9,802	275,739	130,799
37,853	-9,821	275,443	130,629
38,867	-9,853	275,321	130,530
39,882	-9,881	275,147	130,410
40,896	-9,858	274,699	130,207
41,911	-9,834	274,674	130,206
42,926	-9,912	274,388	129,986
43,940	-10,044	274,002	129,668
44,955	-9,887	273,774	129,696
45,969	-9,886	273,492	129,551
46,984	-10,219	273,444	129,206
47,999	-10,366	273,158	128,923
49,013	-10,399	272,717	128,672
50,028	-10,331	272,356	128,554
51,042	-10,528	272,199	128,285
52,057	-10,513	272,011	128,199
53,071	-10,536	271,761	128,049
54,086	-10,322	271,567	128,144
55,101	-10,352	271,483	128,065
56,115	-9,941	271,285	128,341
57,130	-9,711	271,194	128,499
58,144	-9,719	271,039	128,406
59,159	-9,757	270,762	128,229
60,174	-9,787	270,431	128,033
61,188	-9,753	270,347	128,013
62,203	-9,808	270,220	127,891
63,217	-9,751	269,915	127,787
64,232	-9,706	269,736	127,733
65,247	-9,683	269,587	127,672
66,261	-9,831	269,211	127,346
67,276	-9,882	268,669	127,033
68,290	-10,006	268,785	126,962
69,305	-10,203	268,434	126,605
70,320	-10,151	268,261	126,559
71,334	-9,953	268,055	126,632
72,349	-9,551	267,775	126,854
73,363	-9,769	267,623	126,573
74,378	-9,644	267,507	126,621
75,393	-9,634	267,271	126,506
76,407	-9,778	267,099	126,282
77,422	-9,599	266,752	126,270
78,436	-9,780	266,679	126,060
79,451	-9,586	266,343	126,065
80,466	-9,716	266,077	125,811
81,480	-9,932	265,914	125,527
82,495	-10,011	265,779	125,381
83,509	-9,769	265,564	125,487
84,524	-9,863	265,285	125,259
85,539	-9,801	264,809	125,079
86,553	-10,023	264,855	124,889
87,568	-9,824	264,660	124,966
88,582	-9,860	264,425	124,811
89,597	-9,876	264,446	124,795
90,611	-9,765	264,138	124,738
91,626	-9,689	263,848	124,658
92,641	-9,810	263,654	124,447
93,655	-9,667	263,511	124,497
94,670	-9,786	263,246	124,255
95,684	-9,815	263,284	124,235
96,699	-9,792	262,895	124,061
97,714	-9,742	262,678	123,993
98,728	-10,029	262,644	123,709
99,743	-10,011	262,331	123,566
100,757	-10,088	262,056	123,358
101,772	-9,797	261,877	123,521
102,787	-9,775	261,634	123,415
103,801	-10,069	261,520	123,090
104,816	-9,666	261,389	123,374
105,830	-9,669	261,098	123,223
106,845	-9,865	260,966	122,977
107,860	-9,658	260,703	123,025
108,874	-9,827	260,690	122,858
109,889	-9,670	260,257	122,782
110,903	-9,854	260,053	122,513
111,918	-9,971	260,012	122,379
112,933	-9,864	259,832	122,377
113,947	-9,732	259,638	122,391
114,962	-9,807	259,484	122,241
115,976	-9,600	259,027	122,197
116,991	-9,693	259,080	122,129
118,006	-9,809	258,905	121,935
119,020	-9,753	258,786	121,917
120,035	-9,703	258,510	121,819
121,049	-9,834	258,431	121,656
122,064	-9,651	258,222	121,707
123,079	-9,660	257,899	121,537
124,093	-9,832	257,802	121,330
125,108	-9,884	257,399	121,085
126,122	-10,251	257,295	120,705
127,137	-10,187	257,091	120,653
128,151	-10,217	256,854	120,505
129,166	-9,920	256,627	120,647
130,181	-10,150	256,513	120,382
131,195	-10,019	256,173	120,326
132,210	-9,926	256,165	120,392
133,224	-10,014	256,101	120,275
134,239	-9,826	255,938	120,351
135,254	-9,775	255,644	120,246
136,268	-9,870	255,394	120,036
137,283	-9,854	255,093	119,897
138,297	-10,241	254,961	119,490
139,312	-10,115	254,873	119,547
140,327	-10,003	254,669	119,537
141,341	-9,721	254,621	119,747
142,356	-9,764	254,392	119,591
143,370	-9,685	254,205	119,561
144,385	-9,620	254,063	119,539
145,400	-9,458	253,887	119,585
146,414	-9,625	253,711	119,348
147,429	-9,593	253,408	119,222
148,443	-9,590	253,135	119,086
149,458	-9,617	253,061	119,017
150,473	-9,516	252,896	119,015
151,487	-9,621	252,577	118,765
152,502	-9,682	252,577	118,702
153,516	-9,643	252,336	118,611
154,531	-9,466	252,142	118,661
155,546	-9,669	252,038	118,428
156,560	-9,638	251,872	118,366
157,575	-9,659	251,635	118,226
158,589	-9,556	251,420	118,202
159,604	-9,663	251,370	118,078
160,619	-9,580	251,079	118,001
161,633	-9,762	251,046	117,821
162,648	-9,469	250,775	117,931
163,662	-9,466	250,737	117,904
164,677	-9,526	250,416	117,693
165,692	-9,675	250,390	117,544
166,706	-9,566	250,159	117,517
167,721	-9,600	250,057	117,430
168,735	-9,655	249,805	117,255
169,750	-9,474	249,728	117,360
170,764	-9,508	249,440	117,186
171,779	-9,384	249,217	117,175
172,794	-9,416	249,390	117,219
173,808	-9,414	248,869	116,965
174,823	-9,844	248,634	116,485
175,837	-9,884	248,348	116,306
176,852	-9,880	248,379	116,314
177,867	-9,687	248,379	116,465
178,881	-9,718	248,212	116,351
179,896	-9,646	248,027	116,313
180,910	-9,480	247,720	116,297
181,925	-9,686	247,629	116,073
182,940	-9,679	247,480	115,999
183,954	-9,445	247,178	116,042
184,969	-9,429	247,170	116,041
185,983	-9,392	246,982	115,973
186,998	-9,517	246,711	115,731
188,013	-9,642	246,519	115,527
189,027	-9,569	246,433	115,537
190,042	-9,375	246,279	115,615
191,056	-9,468	246,110	115,449
192,071	-9,646	246,021	115,250
193,086	-9,479	245,698	115,226
194,100	-9,459	245,514	115,146
195,115	-9,531	245,445	115,044
196,129	-9,568	245,231	114,903
197,144	-9,562	244,932	114,757
198,159	-9,646	244,732	114,584
199,173	-9,618	244,669	114,567
200,188	-9,754	244,539	114,384
201,202	-9,813	244,243	114,187
202,217	-9,921	244,050	113,998
203,232	-10,199	243,777	113,632
204,246	-9,649	243,633	114,006
205,261	-9,421	243,495	114,118
206,275	-10,062	242,982	113,343
207,290	-7,242	244,485	116,353
208,304	0,015	246,825	123,462
209,319	4,010	247,899	127,298
210,334	4,623	247,743	127,712
211,348	4,787	247,755	127,843
212,363	4,761	247,693	127,778
213,377	4,755	247,477	127,651
214,392	4,478	247,348	127,344
215,407	4,541	247,153	127,284
216,421	4,574	246,945	127,193
217,436	4,632	246,806	127,157
218,450	4,717	246,761	127,193
219,465	4,532	246,387	126,837
220,480	4,318	246,406	126,659
221,494	4,288	246,143	126,489
222,509	4,314	245,886	126,366
223,523	4,454	245,587	126,316
224,538	4,012	245,424	125,859
225,553	4,023	245,492	125,893
226,567	4,250	245,152	125,892
227,582	4,298	245,029	125,857
228,596	4,403	244,870	125,850
229,611	4,096	244,590	125,444
230,626	3,743	244,587	125,144
231,640	4,065	244,355	125,276
232,655	4,024	244,291	125,198
233,669	4,003	244,023	125,033
234,684	3,912	243,802	124,835
235,699	4,180	243,816	125,049
236,713	4,441	243,680	125,180
237,728	3,960	243,482	124,677
238,742	3,825	243,276	124,451
239,757	3,860	242,965	124,309
240,772	3,782	242,828	124,164
241,786	4,038	242,728	124,309
242,801	4,036	242,511	124,185
243,815	3,957	242,454	124,081
244,830	4,333	242,340	124,315
245,844	4,114	242,137	124,024
246,859	4,006	242,008	123,859
247,874	3,959	241,787	123,698
248,888	4,064	241,517	123,633
249,903	4,102	241,566	123,677
250,917	4,206	241,359	123,644
251,932	4,478	241,437	123,891
252,947	4,314	241,143	123,598
253,961	4,275	240,689	123,322
254,976	4,262	240,823	123,370
255,990	4,367	240,659	123,359
257,005	4,143	240,398	123,035
258,020	4,050	240,143	122,819
259,034	4,045	240,135	122,800
260,049	4,003	240,018	122,696
261,063	3,820	239,767	122,412
262,078	3,918	239,668	122,428
263,093	4,149	239,487	122,508
264,107	4,265	239,376	122,532
265,122	4,133	239,142	122,297
266,136	4,099	239,049	122,211
267,151	4,293	238,984	122,322
268,166	3,930	238,649	121,851
269,180	4,038	238,542	121,871
270,195	4,576	238,538	122,284
271,209	4,650	238,493	122,309
272,224	4,136	238,099	121,690
273,239	3,699	238,014	121,291
274,253	3,984	237,733	121,362
275,268	4,101	237,657	121,404
276,282	4,006	237,638	121,309
277,297	3,899	237,332	121,058
278,312	3,941	237,258	121,042
279,326	3,924	237,123	120,949
280,341	3,924	236,992	120,871
281,355	4,242	236,664	120,943
282,370	4,199	236,723	120,928
283,384	4,153	236,513	120,774
284,399	3,854	236,359	120,451
285,414	3,953	236,087	120,378
286,428	3,799	236,095	120,251
287,443	4,081	235,960	120,392
288,457	4,193	235,743	120,359
289,472	4,034	235,628	120,165
290,487	4,313	235,459	120,285
291,501	3,942	235,222	119,865
292,516	3,651	235,069	119,550
293,530	3,689	234,869	119,466
294,545	3,864	234,918	119,618
295,560	4,063	234,748	119,675
296,574	3,728	234,464	119,259
297,589	3,896	234,338	119,315
298,603	4,043	234,329	119,413
299,618	4,259	234,192	119,500
300,633	4,175	234,024	119,339
301,647	4,261	233,870	119,316
302,662	4,633	233,712	119,513
303,676	4,363	233,670	119,272
304,691	4,628	233,367	119,311
305,706	4,327	233,431	119,101
306,720	4,449	233,080	119,005
307,735	4,299	233,033	118,854
308,749	4,254	232,663	118,621
309,764	4,108	232,540	118,436
310,779	3,898	232,223	118,102
311,793	3,864	232,073	117,990
312,808	3,834	232,003	117,920
313,822	3,978	231,827	117,931
314,837	3,753	231,804	117,736
315,852	3,774	231,525	117,600
316,866	3,832	231,529	117,636
317,881	4,042	231,339	117,689
318,895	4,337	231,274	117,871
319,910	4,612	231,272	118,069
320,925	4,400	230,984	117,750
321,939	3,875	230,835	117,264
322,954	4,067	230,837	117,401
323,968	3,888	230,431	117,047
324,983	3,910	230,273	116,974
325,997	4,495	230,289	117,416
327,012	4,256	230,212	117,184
328,027	4,237	229,952	117,028
329,041	4,462	229,917	117,170
330,056	4,916	229,979	117,535
331,070	4,979	229,673	117,416
332,085	4,686	229,465	117,078
333,100	4,249	229,217	116,610
334,114	4,086	229,148	116,442
335,129	4,448	229,025	116,642
336,143	4,667	228,886	116,726
337,158	4,377	228,847	116,477
338,173	4,360	228,468	116,261
339,187	4,091	228,386	116,007
340,202	4,254	228,310	116,080
341,216	4,386	228,121	116,073
342,231	4,368	227,909	115,941
343,246	4,128	227,801	115,696
344,260	4,321	227,741	115,800
345,275	4,604	227,577	115,918
346,289	4,555	227,511	115,838
347,304	4,409	227,360	115,641
348,319	4,556	227,238	115,679
349,333	4,392	226,946	115,397
350,348	4,129	226,737	115,084
351,362	4,417	226,639	115,239
352,377	3,938	226,565	114,834
353,392	4,008	226,214	114,698
354,406	3,958	226,092	114,588
355,421	196,590	1322,078	1402,499
356,435	157,623	1455,613	1402,502
