DTS Sentinel unit serial number:	SN410029Multiplexer serial number:	ORYXHardware model number:	OX2-SRSoftware version number:	ORYX F/W v4,00 Oryx Data Collector v3.7.2.0data status	okinstallation	B5 Nyhavnadifferential loss correction	single-endedforward channel	channel 2reverse channel	N/Adate	2023/12/12time	15:47:13forward acquisition time	300,00reverse acquisition time	0,00gamma	499,1914k internal	0,3156k external	0,3156temperature offset calibration	1,0000default loss term (dB/km)	0,3820temperature slope calibration	1,0000multiplexer offset coefficient	1,0000multiplexer slope coefficient	1,0000fibre end	0,00T internal ref (°C)	15,93T ext. ref 1 (°C)	-0,48T ext. ref 2 (°C)	-0,75length (m)	temperature (°C)	Stokes	anti-Stokes-744,400	334,263	0,035	-0,050
-743,385	-154,102	-0,284	-0,014
-742,371	-137,471	0,164	0,013
-741,356	-105,193	-0,207	0,035
-740,342	618,878	-0,013	0,025
-739,327	22,076	-0,134	0,080
-738,312	133,340	0,078	-0,074
-737,298	-158,193	-0,278	-0,012
-736,283	462,591	0,027	-0,044
-735,269	-111,916	-0,156	0,023
-734,254	-130,498	0,116	0,011
-733,239	-9,316	-0,390	-0,191
-732,225	-155,311	0,122	0,006
-731,210	-76,846	-0,175	-0,045
-730,196	275,937	0,040	-0,053
-729,181	-200,000	0,015	0,049
-728,167	800,000	0,027	-0,071
-727,152	10,317	-0,103	0,057
-726,137	-200,000	0,039	-0,132
-725,123	-200,000	-0,029	-0,140
-724,108	590,829	-0,048	-0,087
-723,094	424,380	-0,053	-0,085
-722,079	800,000	-0,045	-0,112
-721,064	-200,000	-0,030	-0,162
-720,050	-200,000	0,025	-0,081
-719,035	721,603	-0,021	0,042
-718,021	-91,654	-0,097	0,020
-717,006	800,000	0,039	-0,122
-715,991	159,833	0,074	-0,076
-714,977	800,000	0,052	-0,146
-713,962	800,000	-0,030	-0,085
-712,948	-131,359	0,092	0,009
-711,933	-200,000	-0,007	0,071
-710,918	-200,000	-0,009	0,133
-709,904	-200,000	-0,023	-0,084
-708,889	-18,299	-0,240	-0,110
-707,875	35,469	0,057	0,037
-706,860	-66,271	-0,154	-0,045
-705,845	-200,000	0,013	0,123
-704,831	-200,000	0,003	0,110
-703,816	43,455	0,178	0,120
-702,802	659,690	0,019	0,037
-701,787	-132,945	0,048	0,004
-700,772	-121,832	-0,179	0,021
-699,758	800,000	0,027	-0,076
-698,743	-200,000	0,005	0,040
-697,729	-42,982	-0,151	0,056
-696,714	-200,000	0,014	0,067
-695,699	-200,000	-0,007	-0,146
-694,685	198,684	0,068	-0,077
-693,670	-121,289	-0,044	0,005
-692,656	759,638	0,121	-0,243
-691,641	42,498	0,085	0,057
-690,627	-200,000	0,030	0,119
-689,612	-112,227	-0,084	-0,012
-688,597	94,906	-0,109	-0,091
-687,583	-200,000	-0,010	-0,077
-686,568	-200,000	0,000	0,094
-685,554	371,152	0,062	-0,093
-684,539	-64,108	0,052	-0,016
-683,524	78,504	-0,052	-0,041
-682,510	-200,000	-0,008	-0,073
-681,495	469,947	0,054	-0,090
-680,481	506,503	-0,086	-0,148
-679,466	-178,753	-0,020	0,000
-678,451	-67,264	0,009	0,003
-677,437	26,728	0,154	-0,094
-676,422	582,669	0,080	-0,145
-675,408	30,518	-0,027	-0,017
-674,393	3,176	-0,101	-0,054
-673,378	-200,000	-0,001	-0,069
-672,364	800,000	0,040	-0,087
-671,349	693,322	-0,018	-0,034
-670,335	57,742	0,062	-0,045
-669,320	800,000	-0,072	0,220
-668,305	-28,827	-0,006	-0,002
-667,291	132,411	0,088	-0,084
-666,276	116,202	-0,049	0,044
-665,262	800,000	0,016	0,041
-664,247	800,000	0,033	-0,069
-663,232	-200,000	0,029	-0,120
-662,218	-200,000	0,015	-0,150
-661,203	693,008	-0,024	-0,047
-660,189	335,343	0,055	-0,078
-659,174	-13,700	-0,070	0,033
-658,159	-200,000	0,026	-0,112
-657,145	-30,091	-0,080	-0,033
-656,130	20,238	-0,109	-0,064
-655,116	800,000	0,053	-0,107
-654,101	651,152	-0,031	-0,059
-653,086	30,466	-0,044	-0,028
-652,072	-200,000	0,005	-0,055
-651,057	-59,559	0,068	0,021
-650,043	10,776	0,093	0,052
-649,028	132,839	0,075	0,071
-648,014	-19,800	-0,086	0,039
-646,999	525,198	-0,045	0,078
-645,984	-176,410	-0,076	-0,001
-644,970	-106,510	0,070	-0,011
-643,955	-200,000	0,004	-0,064
-642,941	-200,000	0,002	0,083
-641,926	-51,018	-0,074	-0,025
-640,911	-200,000	-0,000	-0,061
-639,897	-131,397	0,105	0,010
-638,882	800,000	0,048	0,116
-637,868	-59,419	0,036	0,011
-636,853	800,000	0,036	0,112
-635,838	21,529	-0,152	0,090
-634,824	-24,181	-0,164	0,072
-633,809	-30,190	-0,033	-0,014
-632,795	134,606	0,052	0,049
-631,780	69,608	0,091	0,069
-630,765	63,376	-0,099	-0,073
-629,751	-56,625	-0,123	0,040
-628,736	462,254	-0,042	-0,069
-627,722	416,084	-0,022	-0,034
-626,707	134,878	0,038	-0,036
-625,692	-200,000	0,026	-0,092
-624,678	235,612	0,032	-0,039
-623,663	-200,000	0,004	-0,055
-622,649	-200,000	-0,001	-0,025
-621,634	320,498	0,075	-0,105
-620,619	110,811	-0,107	0,094
-619,605	-26,577	0,104	0,045
-618,590	129,268	-0,125	-0,117
-617,576	169,957	0,025	0,027
-616,561	35,831	0,032	0,020
-615,546	445,470	-0,009	0,014
-614,532	-36,639	-0,056	-0,022
-613,517	210,999	-0,010	0,011
-612,503	-200,000	-0,008	-0,052
-611,488	680,070	0,040	0,078
-610,474	301,421	-0,031	-0,041
-609,459	800,000	0,029	0,084
-608,444	-200,000	-0,033	-0,135
-607,430	47,995	-0,040	0,027
-606,415	93,818	0,025	0,021
-605,401	-200,000	-0,008	-0,106
-604,386	27,242	0,095	0,058
-603,371	-49,691	0,142	0,049
-602,357	-72,511	-0,110	0,029
-601,342	111,559	0,028	-0,025
-600,328	800,000	0,041	0,097
-599,313	10,074	-0,033	-0,018
-598,298	-200,000	-0,003	-0,103
-597,284	68,173	0,091	0,068
-596,269	-41,221	0,239	0,090
-595,255	-200,000	-0,004	0,126
-594,240	117,187	-0,076	0,069
-593,225	24,770	-0,185	-0,112
-592,211	-119,394	-0,207	-0,026
-591,196	393,757	0,100	-0,152
-590,182	8,067	0,030	0,016
-589,167	800,000	0,051	0,136
-588,152	800,000	-0,043	0,110
-587,138	516,639	0,056	-0,096
-586,123	-36,622	-0,047	-0,019
-585,109	3,208	-0,094	-0,050
-584,094	-22,014	-0,048	-0,021
-583,079	800,000	-0,046	-0,110
-582,065	-117,726	-0,147	-0,019
-581,050	761,068	0,002	-0,005
-580,036	-110,253	0,074	0,011
-579,021	800,000	0,028	-0,075
-578,006	101,583	-0,102	-0,087
-576,992	-200,000	0,006	0,051
-575,977	435,650	0,092	-0,148
-574,963	100,871	-0,096	0,082
-573,948	-200,000	0,019	0,073
-572,934	11,639	-0,064	-0,036
-571,919	-1,338	-0,092	-0,047
-570,904	-99,095	0,131	-0,024
-569,890	21,643	-0,075	0,044
-568,875	-36,374	0,077	0,030
-567,861	-200,000	0,016	-0,057
-566,846	-63,905	0,079	0,024
-565,831	-75,356	-0,083	0,021
-564,817	-200,000	-0,007	-0,157
-563,802	-200,000	0,055	-0,238
-562,788	-200,000	-0,048	-0,184
-561,773	128,815	-0,083	0,077
-560,758	-133,485	0,150	-0,014
-559,744	-31,924	0,121	0,049
-558,729	-104,676	0,078	-0,013
-557,715	355,774	-0,039	0,058
-556,700	800,000	-0,023	0,051
-555,685	-200,000	0,002	-0,041
-554,671	-166,807	-0,095	-0,003
-553,656	521,615	-0,043	0,075
-552,642	-4,043	-0,216	0,109
-551,627	-48,365	-0,044	0,015
-550,612	192,743	0,046	-0,051
-549,598	98,975	-0,025	-0,021
-548,583	11,381	-0,069	-0,038
-547,569	298,621	0,060	-0,081
-546,554	253,283	0,082	-0,103
-545,539	5,991	0,021	0,011
-544,525	273,377	0,036	0,046
-543,510	800,000	0,020	0,060
-542,496	287,887	-0,060	-0,080
-541,481	45,335	-0,053	0,036
-540,466	800,000	0,024	-0,057
-539,452	481,376	-0,005	-0,008
-538,437	72,050	-0,040	0,030
-537,423	9,829	0,011	-0,006
-536,408	-200,000	0,017	0,087
-535,393	-86,757	-0,139	-0,031
-534,379	-141,622	-0,083	-0,006
-533,364	69,003	0,058	-0,044
-532,350	356,026	0,072	0,106
-531,335	800,000	-0,007	0,016
-530,321	231,070	0,099	0,118
-529,306	-11,116	-0,182	-0,088
-528,291	-80,076	-0,152	0,037
-527,277	-109,456	-0,156	-0,024
-526,262	800,000	-0,011	0,024
-525,248	-196,621	0,091	-0,000
-524,233	-9,028	0,103	0,050
-523,218	-200,000	-0,003	-0,076
-522,204	779,725	-0,049	-0,098
-521,189	-200,000	-0,008	-0,099
-520,175	-186,209	-0,126	-0,001
-519,160	197,258	-0,052	0,058
-518,145	800,000	0,013	-0,030
-517,131	-67,638	-0,065	0,019
-516,116	150,829	-0,058	0,058
-515,102	-36,059	-0,032	0,013
-514,087	-67,603	0,071	-0,020
-513,072	-200,000	-0,006	-0,036
-512,058	-103,454	0,065	0,011
-511,043	-200,000	-0,000	0,025
-510,029	-200,000	0,001	-0,057
-509,014	-200,000	0,008	0,053
-507,999	800,000	-0,052	0,117
-506,985	-123,475	0,031	-0,004
-505,970	-45,105	-0,098	0,036
-504,956	317,639	0,044	-0,061
-503,941	-2,090	-0,079	0,040
-502,926	-140,289	0,089	-0,007
-501,912	800,000	-0,017	0,037
-500,897	133,082	-0,098	0,092
-499,883	-200,000	0,004	0,050
-498,868	-126,156	-0,114	0,012
-497,853	562,181	-0,055	-0,098
-496,839	210,792	0,034	-0,039
-495,824	143,610	-0,143	0,139
-494,810	-200,000	0,015	0,097
-493,795	658,225	0,045	0,085
-492,781	0,795	-0,112	-0,059
-491,766	800,000	0,023	-0,054
-490,751	65,629	0,150	-0,111
-489,737	-8,887	0,017	-0,008
-488,722	144,594	0,114	0,112
-487,708	312,396	0,027	0,038
-486,693	-93,862	-0,115	-0,023
-485,678	22,498	-0,078	0,047
-484,664	-200,000	-0,027	-0,090
-483,649	-79,034	0,027	-0,007
-482,635	241,896	-0,129	-0,157
-481,620	39,269	0,019	0,012
-480,605	492,781	0,039	-0,065
-479,591	-23,105	0,065	0,029
-478,576	-200,000	0,011	-0,055
-477,562	478,247	0,049	-0,081
-476,547	336,249	-0,096	-0,137
-475,532	699,189	0,008	0,015
-474,518	150,583	0,101	0,101
-473,503	-20,877	0,150	-0,067
-472,489	718,167	-0,021	-0,041
-471,474	-200,000	0,014	-0,166
-470,459	-56,990	0,058	0,019
-469,445	-95,886	0,098	-0,019
-468,430	80,476	-0,119	0,094
-467,416	800,000	-0,031	-0,081
-466,401	-58,723	0,068	0,021
-465,386	536,701	-0,050	-0,086
-464,372	-200,000	-0,020	0,102
-463,357	-87,205	-0,094	-0,021
-462,343	157,508	-0,076	-0,076
-461,328	217,915	-0,054	-0,063
-460,313	-200,000	0,007	0,060
-459,299	128,830	0,042	0,039
-458,284	-98,413	0,037	0,007
-457,270	-111,397	0,230	0,034
-456,255	-200,000	-0,016	-0,116
-455,241	477,403	-0,029	0,049
-454,226	360,957	-0,031	0,045
-453,211	292,659	0,044	-0,059
-452,197	452,364	0,026	0,042
-451,182	-136,691	0,199	0,017
-450,168	113,812	-0,018	0,016
-449,153	-200,000	-0,022	0,094
-448,138	-200,000	-0,027	-0,111
-447,124	-92,715	-0,060	-0,012
-446,109	259,963	-0,095	-0,120
-445,095	-85,097	0,060	0,014
-444,080	-200,000	0,002	-0,036
-443,065	320,521	0,090	-0,125
-442,051	-102,534	-0,150	0,026
-441,036	80,949	-0,057	0,045
-440,022	800,000	-0,050	-0,156
-439,007	800,000	-0,038	-0,093
-437,992	-200,000	-0,039	0,156
-436,978	111,413	0,065	0,057
-435,963	-43,479	0,145	0,053
-434,949	800,000	-0,051	0,117
-433,934	-200,000	0,019	-0,146
-432,919	48,845	-0,082	-0,056
-431,905	603,829	-0,048	0,088
-430,890	-200,000	0,052	0,184
-429,876	445,359	0,069	0,111
-428,861	686,079	0,058	0,110
-427,846	43,291	-0,046	-0,030
-426,832	-107,223	-0,065	0,010
-425,817	95,553	0,122	-0,101
-424,803	-117,005	-0,118	-0,016
-423,788	161,656	-0,055	0,056
-422,773	-49,901	0,067	-0,023
-421,759	-200,000	0,002	0,200
-420,744	-25,015	-0,051	-0,022
-419,730	-200,000	0,025	-0,089
-418,715	-77,846	0,104	-0,026
-417,701	177,877	0,023	0,025
-416,686	-132,006	-0,107	-0,010
-415,671	-19,128	0,040	0,018
-414,657	714,495	0,029	-0,056
-413,642	540,675	-0,048	-0,083
-412,628	84,292	-0,076	-0,061
-411,613	275,882	0,105	-0,135
-410,598	88,205	0,041	0,033
-409,584	-45,826	0,029	0,010
-408,569	800,000	-0,030	0,063
-407,555	-200,000	0,043	0,212
-406,540	8,220	-0,092	0,050
-405,525	745,233	-0,028	-0,055
-404,511	194,717	-0,013	-0,015
-403,496	16,700	-0,123	-0,071
-402,482	-131,496	0,097	0,009
-401,467	119,625	-0,080	0,072
-400,452	-200,000	-0,009	0,123
-399,438	800,000	0,038	0,109
-398,423	735,189	0,024	0,047
-397,409	604,528	0,079	0,144
-396,394	-36,280	-0,021	-0,008
-395,379	48,056	0,105	-0,072
-394,365	-200,000	0,016	0,143
-393,350	-60,474	0,067	0,021
-392,336	800,000	0,083	-0,193
-391,321	-78,279	-0,098	0,024
-390,306	105,956	-0,039	-0,034
-389,292	729,276	0,035	-0,069
-388,277	-200,000	-0,006	0,169
-387,263	30,630	-0,147	0,091
-386,248	-117,240	0,064	0,008
-385,233	-200,000	0,005	-0,134
-384,219	75,015	-0,098	-0,075
-383,204	263,474	0,086	0,109
-382,190	213,670	-0,051	0,059
-381,175	-56,898	-0,035	0,011
-380,160	-200,000	0,028	0,156
-379,146	-47,508	0,125	0,044
-378,131	392,599	-0,045	0,069
-377,117	-22,721	-0,088	-0,039
-376,102	332,453	-0,092	-0,130
-375,088	237,230	-0,035	0,042
-374,073	-200,000	0,016	0,076
-373,058	354,110	0,040	0,058
-372,044	173,778	-0,039	-0,041
-371,029	229,973	0,014	0,017
-370,015	67,480	0,107	0,079
-369,000	-98,811	0,087	0,016
-367,985	-87,649	-0,130	-0,028
-366,971	-200,000	-0,055	-0,192
-365,956	-200,000	-0,006	0,029
-364,942	8,921	0,078	-0,043
-363,927	800,000	0,051	0,160
-362,912	-200,000	-0,010	-0,067
-361,898	48,249	-0,067	-0,045
-360,883	-122,575	0,184	0,021
-359,869	-12,851	0,066	-0,031
-358,854	-56,097	0,032	-0,010
-357,839	367,670	0,088	0,129
-356,825	51,600	-0,061	0,042
-355,810	60,360	-0,111	0,079
-354,796	-200,000	0,007	0,044
-353,781	800,000	-0,027	-0,073
-352,766	-155,743	-0,066	-0,003
-351,752	221,131	-0,085	0,100
-350,737	198,127	0,088	0,098
-349,723	117,157	0,060	0,054
-348,708	-84,605	-0,041	0,009
-347,693	-200,000	0,029	-0,103
-346,679	800,000	-0,052	0,141
-345,664	147,139	0,063	-0,061
-344,650	-200,000	-0,005	-0,043
-343,635	-181,240	-0,093	-0,001
-342,620	-114,186	0,146	-0,020
-341,606	-200,000	-0,011	0,140
-340,591	-156,379	-0,058	-0,003
-339,577	-200,000	0,015	-0,124
-338,562	128,945	-0,077	-0,071
-337,548	800,000	0,052	-0,118
-336,533	232,831	-0,015	-0,018
-335,518	156,072	0,051	0,051
-334,504	49,582	0,044	-0,030
-333,489	-159,391	0,043	0,002
-332,475	800,000	-0,039	0,083
-331,460	652,797	0,021	-0,040
-330,445	208,397	-0,069	0,079
-329,431	-90,785	0,082	0,017
-328,416	4,926	0,105	0,056
-327,402	-200,000	-0,021	-0,084
-326,387	-200,000	0,025	-0,124
-325,372	-109,366	-0,191	-0,029
-324,358	-15,757	0,020	-0,009
-323,343	-40,572	-0,017	0,006
-322,329	-128,948	0,017	-0,002
-321,314	89,944	0,078	-0,063
-320,299	339,297	-0,035	-0,050
-319,285	122,393	-0,166	-0,151
-318,270	164,722	0,145	-0,149
-317,256	282,462	-0,018	0,024
-316,241	800,000	0,029	-0,085
-315,226	-200,000	0,013	0,050
-314,212	-115,244	0,041	-0,006
-313,197	-200,000	-0,024	0,271
-312,183	83,863	0,103	0,081
-311,168	30,950	0,094	-0,058
-310,153	199,015	0,099	-0,110
-309,139	27,545	-0,141	-0,086
-308,124	-96,499	-0,067	0,013
-307,110	-81,412	0,053	0,013
-306,095	800,000	0,017	0,044
-305,080	25,743	-0,057	0,035
-304,066	-81,570	-0,087	0,021
-303,051	238,830	0,171	-0,206
-302,037	800,000	0,060	-0,130
-301,022	-115,112	-0,103	-0,014
-300,008	-72,025	0,158	0,042
-298,993	800,000	0,003	0,009
-297,978	800,000	0,045	0,090
-296,964	464,296	-0,057	0,093
-295,949	240,074	-0,027	0,033
-294,935	-200,000	-0,024	-0,222
-293,920	453,219	-0,058	-0,094
-292,905	-200,000	0,016	-0,060
-291,891	800,000	0,023	0,051
-290,876	391,870	-0,060	-0,091
-289,862	-47,683	0,053	-0,018
-288,847	171,831	-0,073	-0,076
-287,832	-200,000	0,033	-0,146
-286,818	407,338	-0,055	-0,084
-285,803	-69,396	0,113	-0,031
-284,789	800,000	0,059	0,154
-283,774	-200,000	0,011	0,038
-282,759	547,106	-0,044	-0,077
-281,745	65,721	0,088	-0,064
-280,730	27,378	-0,121	-0,074
-279,716	-81,477	0,091	0,021
-278,701	-61,275	0,024	-0,007
-277,686	-200,000	0,044	0,174
-276,672	-200,000	0,016	0,088
-275,657	-200,000	-0,011	-0,111
-274,643	-188,838	0,140	-0,001
-273,628	-170,117	-0,073	-0,002
-272,613	4,773	-0,115	0,061
-271,599	-13,922	0,040	-0,019
-270,584	-200,000	-0,012	0,137
-269,570	-115,566	-0,061	0,008
-268,555	317,622	-0,123	0,169
-267,540	-9,346	-0,073	-0,035
-266,526	-200,000	-0,021	0,099
-265,511	800,000	0,056	-0,115
-264,497	-200,000	0,000	0,063
-263,482	-200,000	0,010	0,080
-262,467	136,555	-0,092	-0,087
-261,453	53,828	0,024	-0,017
-260,438	-104,597	-0,030	-0,005
-259,424	800,000	-0,046	0,140
-258,409	-15,327	-0,082	0,038
-257,395	-7,487	0,074	0,036
-256,380	244,835	0,042	-0,052
-255,365	715,164	-0,065	-0,125
-254,351	28,719	0,117	0,071
-253,336	-200,000	0,001	0,089
-252,322	299,733	-0,045	0,060
-251,307	-84,612	0,067	-0,015
-250,292	-200,000	0,002	-0,024
-249,278	-200,000	-0,005	-0,036
-248,263	-100,045	0,100	0,018
-247,249	211,653	-0,041	0,047
-246,234	-99,784	-0,087	-0,016
-245,219	208,429	0,118	-0,134
-244,205	176,420	-0,102	-0,107
-243,190	89,334	-0,040	0,032
-242,176	-200,000	0,010	0,065
-241,161	-200,000	0,000	0,019
-240,146	718,075	-0,006	0,012
-239,132	317,324	-0,035	-0,048
-238,117	-200,000	-0,004	-0,104
-237,103	-200,000	-0,020	0,102
-236,088	-125,827	-0,205	-0,022
-235,073	92,572	-0,057	0,047
-234,059	-200,000	0,020	0,120
-233,044	-200,000	-0,017	-0,109
-232,030	-32,971	-0,084	-0,033
-231,015	-200,000	0,005	-0,116
-230,000	-18,249	0,050	0,023
-228,986	710,771	0,066	0,127
-227,971	-200,000	0,099	0,000
-226,957	-49,327	0,132	-0,045
-225,942	74,494	-0,093	-0,071
-224,927	40,949	0,027	-0,018
-223,913	484,755	0,049	0,082
-222,898	26,628	-0,061	0,037
-221,884	79,698	0,100	-0,078
-220,869	-144,522	-0,085	0,006
-219,855	45,736	0,120	0,080
-218,840	455,689	-0,054	0,087
-217,825	-131,782	0,062	0,006
-216,811	655,517	-0,029	0,053
-215,796	800,000	0,004	-0,009
-214,782	800,000	-0,029	-0,072
-213,767	-16,519	0,250	0,114
-212,752	-200,000	-0,016	0,144
-211,738	9,525	0,108	0,059
-210,723	121,327	0,036	0,032
-209,709	800,000	-0,047	-0,132
-208,694	-143,609	-0,193	-0,013
-207,679	-140,141	0,068	-0,005
-206,665	-200,000	0,024	0,119
-205,650	-137,587	0,136	-0,011
-204,636	800,000	0,036	0,107
-203,621	800,000	-0,056	0,170
-202,606	-200,000	0,012	-0,084
-201,592	91,158	-0,178	-0,144
-200,577	-200,000	0,023	-0,097
-199,563	800,000	0,055	-0,122
-198,548	182,443	0,077	-0,082
-197,533	-58,803	0,098	0,031
-196,519	-200,000	0,046	0,162
-195,504	-200,000	0,018	-0,164
-194,490	800,000	0,026	-0,063
-193,475	-200,000	0,005	0,049
-192,460	48,622	0,042	-0,028
-191,446	357,140	0,053	-0,076
-190,431	-200,000	0,034	0,142
-189,417	161,349	-0,066	-0,067
-188,402	94,617	0,099	-0,081
-187,387	-200,000	-0,003	0,054
-186,373	-105,517	-0,083	0,013
-185,358	800,000	0,035	-0,100
-184,344	587,199	0,070	0,125
-183,329	800,000	-0,047	-0,123
-182,315	800,000	0,057	0,128
-181,300	666,818	0,009	0,016
-180,285	-96,061	0,027	0,005
-179,271	-15,660	0,052	0,024
-178,256	-86,099	-0,071	-0,016
-177,242	22,796	0,045	-0,027
-176,227	13,725	-0,076	0,043
-175,212	800,000	0,097	0,205
-174,198	589,463	0,060	-0,108
-173,183	-200,000	0,000	-0,033
-172,169	800,000	0,009	-0,018
-171,154	149,672	0,019	-0,019
-170,139	-100,731	0,013	-0,002
-169,125	800,000	0,035	-0,085
-168,110	594,005	0,056	0,100
-167,096	800,000	0,042	0,123
-166,081	-200,000	0,005	0,068
-165,066	354,981	-0,068	-0,097
-164,052	710,124	-0,061	-0,116
-163,037	-16,837	-0,098	-0,045
-162,023	-35,225	0,088	-0,035
-161,008	-171,621	0,121	-0,003
-159,993	800,000	-0,056	0,158
-158,979	416,267	-0,041	-0,063
-157,964	521,117	-0,023	-0,040
-156,950	-200,000	-0,015	0,059
-155,935	-4,169	0,115	-0,057
-154,920	-20,723	0,058	0,026
-153,906	800,000	0,004	-0,009
-152,891	16,210	0,046	-0,026
-151,877	800,000	-0,019	-0,040
-150,862	-72,007	0,039	-0,010
-149,847	617,624	-0,053	-0,095
-148,833	-160,110	-0,009	-0,000
-147,818	277,870	0,029	0,038
-146,804	-81,129	-0,032	0,008
-145,789	490,379	-0,050	0,083
-144,775	-27,066	-0,097	-0,041
-143,760	75,161	-0,007	-0,005
-142,745	49,066	-0,088	0,059
-141,731	-84,879	-0,014	0,003
-140,716	295,319	0,047	-0,062
-139,702	800,000	0,070	0,159
-138,687	347,701	-0,068	-0,097
-137,672	144,952	-0,038	0,036
-136,658	-200,000	-0,017	0,064
-135,643	-145,453	0,149	0,009
-134,629	-173,787	-0,088	-0,002
-133,614	12,903	0,077	-0,043
-132,599	-86,365	0,121	0,027
-131,585	-200,000	-0,009	-0,104
-130,570	-200,000	-0,026	-0,100
-129,556	-200,000	0,004	-0,022
-128,541	-20,013	-0,137	-0,060
-127,526	-85,505	0,060	-0,013
-126,512	-133,855	0,029	-0,003
-125,497	-200,000	0,030	-0,169
-124,483	173,376	0,050	-0,052
-123,468	-94,655	0,073	0,014
-122,453	66,506	0,076	0,056
-121,439	-200,000	-0,010	-0,104
-120,424	-200,000	-0,014	0,264
-119,410	76,534	0,032	-0,025
-118,395	800,000	-0,037	-0,080
-117,380	179,502	-0,048	-0,051
-116,366	-68,762	0,088	-0,024
-115,351	440,741	-0,029	0,045
-114,337	-74,657	-0,087	-0,022
-113,322	293,664	0,096	-0,126
-112,307	-98,615	0,055	0,010
-111,293	-55,236	0,074	0,024
-110,278	516,865	0,020	0,034
-109,264	419,305	-0,059	0,091
-108,249	429,974	-0,045	0,070
-107,234	542,291	0,007	-0,011
-106,220	20,237	0,063	-0,036
-105,205	138,651	0,028	0,027
-104,191	42,129	-0,067	0,044
-103,176	-200,000	0,038	-0,154
-102,162	245,804	0,140	0,170
-101,147	-31,472	-0,102	-0,041
-100,132	800,000	0,017	-0,044
-99,118	-200,000	-0,050	-0,239
-98,103	51,813	0,048	0,033
-97,089	-200,000	0,000	-0,011
-96,074	-200,000	0,006	0,094
-95,059	-1,076	0,029	-0,014
-94,045	-27,668	-0,118	-0,049
-93,030	-129,288	0,118	-0,012
-92,016	94,177	0,109	-0,089
-91,001	203,099	-0,107	0,119
-89,986	303,504	-0,057	-0,076
-88,972	-200,000	0,005	0,101
-87,957	503,736	0,056	0,093
-86,943	-200,000	0,000	0,037
-85,928	800,000	-0,044	-0,100
-84,913	-200,000	0,004	-0,034
-83,899	54,241	-0,086	0,060
-82,884	32,902	0,091	0,056
-81,870	-200,000	-0,002	-0,025
-80,855	-200,000	0,001	-0,011
-79,840	-47,307	-0,008	-0,003
-78,826	800,000	0,039	-0,090
-77,811	-200,000	-0,005	-0,026
-76,797	77,399	-0,094	-0,072
-75,782	-200,000	-0,003	0,019
-74,767	45,163	-0,028	0,018
-73,753	-200,000	0,004	0,044
-72,738	9,507	-0,044	-0,024
-71,724	195,815	0,111	-0,122
-70,709	143,886	-0,064	-0,061
-69,694	-33,544	0,007	0,003
-68,680	-21,670	-0,063	0,027
-67,665	-60,136	0,038	0,012
-66,651	331,084	-0,085	0,118
-65,636	-96,891	-0,063	-0,012
-64,622	73,690	0,053	0,040
-63,607	248,866	-0,072	-0,087
-62,592	-80,670	0,067	-0,016
-61,578	-56,741	0,182	-0,057
-60,563	-75,037	0,014	-0,004
-59,549	112,991	-0,068	-0,059
-58,534	0,992	-1,877	-0,963
-57,519	800,000	-0,409	-1,072
-56,505	-200,000	-1,157	-4,800
-55,490	18,045	0,822	0,469
-54,476	800,000	5,272	12,065
-53,461	-200,000	17,219	284,934
-52,446	800,000	722,694	2231,170
-51,432	545,105	1638,634	2821,818
-50,417	112,307	1630,959	1415,738
-49,403	76,344	1286,704	977,524
-48,388	32,899	1029,116	638,321
-47,373	20,281	990,949	572,991
-46,359	18,786	979,250	561,291
-45,344	16,316	974,928	550,699
-44,330	16,433	973,603	550,313
-43,315	15,994	971,957	547,922
-42,300	15,939	970,864	547,107
-41,286	15,958	969,708	546,494
-40,271	15,932	968,789	545,872
-39,257	15,974	967,860	545,460
-38,242	15,962	966,843	544,827
-37,227	15,951	966,246	544,433
-36,213	15,940	965,340	543,866
-35,198	15,966	964,353	543,372
-34,184	15,977	963,757	543,051
-33,169	15,909	962,657	542,190
-32,154	15,949	961,703	541,760
-31,140	15,937	960,901	541,248
-30,125	16,000	960,113	540,986
-29,111	15,944	959,529	540,455
-28,096	16,027	958,610	540,185
-27,082	15,993	958,035	539,730
-26,067	15,966	957,420	539,274
-25,052	15,935	956,390	538,572
-24,038	15,952	955,746	538,242
-23,023	15,947	955,114	537,849
-22,009	15,992	954,525	537,642
-20,994	15,974	953,816	537,163
-19,979	15,955	953,436	536,866
-18,965	15,980	952,681	536,500
-17,950	16,084	952,039	536,451
-16,936	15,923	951,496	535,609
-15,921	15,962	950,566	535,187
-14,906	15,828	950,068	534,459
-13,892	15,817	949,402	534,026
-12,877	15,878	948,639	533,771
-11,863	15,799	948,252	533,280
-10,848	15,837	947,688	533,063
-9,833	15,927	947,276	533,097
-8,819	15,983	946,300	532,704
-7,804	15,874	945,699	532,000
-6,790	15,794	945,227	531,457
-5,775	15,874	944,463	531,261
-4,760	15,847	943,940	530,860
-3,746	15,839	943,370	530,493
-2,731	15,776	942,669	529,879
-1,717	15,767	942,025	529,468
-0,702	15,700	941,373	528,866
0,313	15,512	940,771	528,731
1,327	18,561	938,678	537,130
2,342	27,265	796,228	478,734
3,356	23,954	460,331	271,673
4,371	-2,946	314,672	157,091
5,386	-6,990	296,429	143,875
6,400	-8,885	290,234	138,974
7,415	-9,421	287,930	137,330
8,429	-9,595	286,473	136,451
9,444	-9,578	285,509	135,997
10,459	-9,461	285,064	135,887
11,473	-9,559	284,291	135,411
12,488	-9,484	283,820	135,247
13,502	-9,620	283,349	134,879
14,517	-9,342	282,663	134,810
15,531	-9,399	282,539	134,684
16,546	-9,307	281,936	134,472
17,561	-9,458	281,631	134,170
18,575	-9,410	281,310	134,051
19,590	-9,547	281,072	133,795
20,604	-9,356	280,686	133,782
21,619	-9,512	280,189	133,383
22,634	-9,323	279,950	133,439
23,648	-9,451	279,556	133,117
24,663	-9,256	279,246	133,143
25,677	-9,632	279,181	132,742
26,692	-9,593	278,849	132,610
27,707	-9,466	278,645	132,622
28,721	-9,368	278,255	132,517
29,736	-9,458	277,989	132,294
30,750	-9,406	277,858	132,269
31,765	-9,408	277,534	132,100
32,780	-9,461	277,337	131,944
33,794	-9,411	276,959	131,800
34,809	-9,406	276,689	131,665
35,823	-9,619	276,594	131,407
36,838	-9,672	276,466	131,284
37,853	-9,529	276,120	131,243
38,867	-9,708	275,881	130,949
39,882	-9,480	275,599	131,019
40,896	-9,494	275,336	130,868
41,911	-9,633	275,149	130,637
42,926	-9,475	274,824	130,619
43,940	-9,600	274,495	130,334
44,955	-9,675	274,406	130,210
45,969	-9,604	274,048	130,095
46,984	-9,580	273,777	129,977
47,999	-9,898	273,611	129,590
49,013	-10,170	273,401	129,226
50,028	-10,248	273,024	128,963
51,042	-10,186	272,802	128,905
52,057	-10,296	272,510	128,653
53,071	-10,196	272,352	128,660
54,086	-10,107	272,235	128,675
55,101	-9,992	272,096	128,705
56,115	-9,887	271,890	128,693
57,130	-9,455	271,773	129,026
58,144	-9,306	271,540	129,042
59,159	-9,315	271,217	128,869
60,174	-9,384	271,098	128,738
61,188	-9,397	270,874	128,607
62,203	-9,339	270,638	128,538
63,217	-9,429	270,348	128,305
64,232	-9,362	270,234	128,301
65,247	-9,399	270,013	128,151
66,261	-9,439	269,781	127,993
67,276	-9,429	269,336	127,779
68,290	-9,647	269,165	127,487
69,305	-9,825	268,845	127,161
70,320	-9,718	268,695	127,176
71,334	-9,448	268,571	127,354
72,349	-9,582	268,442	127,159
73,363	-9,507	268,176	127,090
74,378	-9,284	267,954	127,177
75,393	-9,497	267,962	126,975
76,407	-9,429	267,590	126,849
77,422	-9,285	267,432	126,894
78,436	-9,280	267,011	126,687
79,451	-9,303	266,957	126,630
80,466	-9,423	266,525	126,304
81,480	-9,580	266,526	126,151
82,495	-9,543	266,266	126,051
83,509	-9,426	266,152	126,091
84,524	-9,516	265,857	125,859
85,539	-9,792	265,573	125,464
86,553	-9,584	265,237	125,481
87,568	-9,553	265,108	125,437
88,582	-9,584	265,058	125,375
89,597	-9,516	264,640	125,227
90,611	-9,563	264,533	125,123
91,626	-9,551	264,570	125,140
92,641	-9,295	264,173	125,171
93,655	-9,418	263,989	124,962
94,670	-9,655	263,877	124,685
95,684	-9,581	263,663	124,640
96,699	-9,317	263,439	124,759
97,714	-9,459	263,267	124,539
98,728	-9,470	262,847	124,319
99,743	-9,681	262,799	124,098
100,757	-9,830	262,569	123,845
101,772	-9,523	262,395	124,025
102,787	-9,599	262,191	123,850
103,801	-9,423	262,000	123,906
104,816	-9,536	261,967	123,778
105,830	-9,240	261,570	123,842
106,845	-9,427	261,498	123,632
107,860	-9,308	261,230	123,600
108,874	-9,662	261,020	123,176
109,889	-9,577	261,030	123,245
110,903	-9,582	260,636	123,043
111,918	-9,352	260,457	123,151
112,933	-9,530	260,416	122,963
113,947	-9,572	260,171	122,799
114,962	-9,552	260,105	122,775
115,976	-9,550	259,782	122,613
116,991	-9,339	259,500	122,654
118,006	-9,471	259,317	122,441
119,020	-9,526	259,291	122,370
120,035	-9,442	259,179	122,380
121,049	-9,454	258,946	122,249
122,064	-9,205	258,568	122,277
123,079	-9,513	258,600	122,012
124,093	-9,419	258,146	121,869
125,108	-9,583	257,835	121,568
126,122	-9,826	257,677	121,270
127,137	-9,848	257,537	121,174
128,151	-9,705	257,333	121,192
129,166	-9,777	257,240	121,075
130,181	-9,665	256,883	120,993
131,195	-9,778	256,715	120,806
132,210	-9,487	256,477	120,936
133,224	-9,374	256,457	121,013
134,239	-9,383	256,344	120,941
135,254	-9,386	256,210	120,864
136,268	-9,545	255,843	120,544
137,283	-9,820	255,647	120,202
138,297	-9,817	255,390	120,073
139,312	-9,861	255,245	119,956
140,327	-9,545	255,124	120,161
141,341	-9,339	255,110	120,322
142,356	-9,221	254,862	120,296
143,370	-9,267	254,600	120,122
144,385	-9,268	254,549	120,087
145,400	-9,158	254,253	120,031
146,414	-9,200	254,060	119,893
147,429	-9,240	253,936	119,789
148,443	-9,267	253,710	119,649
149,458	-9,288	253,558	119,549
150,473	-9,121	253,425	119,618
151,487	-9,362	253,364	119,372
152,502	-9,073	252,959	119,418
153,516	-9,255	252,974	119,259
154,531	-9,171	252,699	119,190
155,546	-9,256	252,494	119,010
156,560	-9,341	252,300	118,836
157,575	-9,269	251,890	118,693
158,589	-9,150	251,958	118,816
159,604	-9,105	251,730	118,736
160,619	-9,219	251,530	118,534
161,633	-9,313	251,379	118,373
162,648	-9,287	251,248	118,323
163,662	-9,407	251,347	118,257
164,677	-9,185	251,028	118,284
165,692	-9,235	250,768	118,109
166,706	-9,240	250,698	118,062
167,721	-9,028	250,379	118,080
168,735	-9,331	250,380	117,813
169,750	-9,333	250,299	117,763
170,764	-9,228	250,233	117,810
171,779	-9,132	249,754	117,656
172,794	-9,007	249,759	117,752
173,808	-9,128	249,334	117,440
174,823	-9,590	249,183	116,970
175,837	-9,794	248,886	116,649
176,852	-9,501	248,798	116,843
177,867	-9,170	248,773	117,099
178,881	-9,229	248,664	116,987
179,896	-9,186	248,431	116,903
180,910	-9,233	248,211	116,750
181,925	-9,218	248,189	116,741
182,940	-9,186	247,910	116,627
183,954	-9,199	247,677	116,496
184,969	-9,097	247,527	116,500
185,983	-9,158	247,452	116,404
186,998	-9,161	247,185	116,265
188,013	-9,103	247,164	116,293
189,027	-9,179	246,952	116,120
190,042	-9,213	246,764	115,993
191,056	-9,292	246,606	115,842
192,071	-9,244	246,403	115,777
193,086	-9,243	246,214	115,678
194,100	-9,090	245,945	115,668
195,115	-9,134	245,951	115,625
196,129	-9,130	245,694	115,496
197,144	-9,233	245,619	115,366
198,159	-9,207	245,358	115,255
199,173	-9,163	245,163	115,189
200,188	-9,276	244,978	114,998
201,202	-9,685	244,814	114,575
202,217	-9,801	244,380	114,266
203,232	-9,745	244,116	114,179
204,246	-9,420	244,185	114,467
205,261	-9,020	244,033	114,714
206,275	-10,005	243,553	113,671
207,290	-6,925	244,913	116,832
208,304	0,289	247,205	123,894
209,319	3,712	248,075	127,158
210,334	4,219	248,036	127,546
211,348	4,191	248,077	127,532
212,363	4,574	247,903	127,749
213,377	4,552	247,848	127,690
214,392	4,438	247,602	127,458
215,407	4,353	247,381	127,263
216,421	4,436	247,273	127,264
217,436	4,633	247,058	127,304
218,450	4,611	247,017	127,254
219,465	4,330	246,742	126,870
220,480	4,132	246,608	126,627
221,494	4,210	246,346	126,545
222,509	4,105	246,236	126,391
223,523	4,311	245,903	126,378
224,538	3,770	245,853	125,897
225,553	3,981	245,667	125,963
226,567	4,028	245,494	125,902
227,582	3,926	245,347	125,733
228,596	4,268	245,125	125,886
229,611	3,785	244,970	125,401
230,626	3,659	244,777	125,189
231,640	3,881	244,658	125,298
232,655	3,872	244,567	125,233
233,669	3,876	244,178	125,026
234,684	3,668	244,064	124,787
235,699	4,033	244,171	125,127
236,713	4,223	244,050	125,209
237,728	4,203	243,659	124,981
238,742	3,975	243,434	124,669
239,757	3,647	243,383	124,366
240,772	3,771	243,196	124,360
241,786	3,934	243,077	124,420
242,801	3,805	242,944	124,236
243,815	3,704	242,704	124,021
244,830	3,962	242,654	124,192
245,844	4,054	242,435	124,144
246,859	3,985	242,255	123,985
247,874	3,920	242,011	123,797
248,888	3,909	242,060	123,802
249,903	3,973	241,929	123,775
250,917	4,154	241,742	123,814
251,932	4,107	241,866	123,829
252,947	4,227	241,475	123,714
253,961	3,783	241,154	123,182
254,976	4,095	240,997	123,341
255,990	4,391	241,001	123,569
257,005	3,963	240,711	123,067
258,020	3,692	240,546	122,755
259,034	3,742	240,274	122,646
260,049	4,142	240,249	122,941
261,063	3,760	240,088	122,543
262,078	4,012	239,807	122,590
263,093	4,072	239,901	122,674
264,107	3,907	239,679	122,419
265,122	3,811	239,450	122,214
266,136	3,908	239,410	122,261
267,151	4,132	239,310	122,376
268,166	3,969	238,960	122,057
269,180	3,443	238,968	121,633
270,195	4,447	238,795	122,330
271,209	4,754	238,827	122,578
272,224	4,042	238,376	121,773
273,239	3,604	238,064	121,256
274,253	3,663	238,100	121,310
275,268	3,888	237,963	121,407
276,282	3,961	237,947	121,447
277,297	3,712	237,678	121,102
278,312	3,865	237,457	121,099
279,326	3,975	237,417	121,154
280,341	4,325	237,225	121,321
281,355	3,958	237,068	120,941
282,370	4,116	236,958	120,999
283,384	4,142	236,725	120,890
284,399	3,870	236,555	120,578
285,414	3,681	236,465	120,373
286,428	3,823	236,268	120,374
287,443	3,863	236,170	120,344
288,457	4,042	236,025	120,399
289,472	4,167	235,951	120,449
290,487	3,946	235,715	120,145
291,501	3,747	235,549	119,894
292,516	3,591	235,358	119,665
293,530	3,680	235,177	119,631
294,545	3,911	235,197	119,811
295,560	4,071	234,894	119,770
296,574	3,594	234,767	119,324
297,589	3,838	234,569	119,402
298,603	4,109	234,667	119,652
299,618	4,263	234,412	119,631
300,633	4,192	234,292	119,505
301,647	4,233	234,209	119,483
302,662	4,520	234,078	119,627
303,676	4,201	233,943	119,301
304,691	4,154	233,763	119,162
305,706	4,279	233,634	119,183
306,720	4,472	233,361	119,182
307,735	4,235	233,223	118,917
308,749	4,051	233,006	118,655
309,764	3,948	232,888	118,505
310,779	3,927	232,652	118,358
311,793	3,700	232,487	118,089
312,808	3,778	232,302	118,044
313,822	3,752	232,198	117,961
314,837	3,678	231,946	117,765
315,852	3,688	231,847	117,713
316,866	3,904	231,917	117,903
317,881	3,977	231,771	117,874
318,895	3,764	231,540	117,583
319,910	4,055	231,372	117,710
320,925	4,178	231,377	117,796
321,939	4,065	231,058	117,537
322,954	4,105	231,129	117,593
323,968	4,158	230,748	117,429
324,983	3,585	230,712	116,963
325,997	3,921	230,508	117,106
327,012	4,284	230,354	117,293
328,027	3,999	230,401	117,090
329,041	4,338	230,261	117,266
330,056	5,036	230,179	117,744
331,070	4,861	230,012	117,515
332,085	4,374	229,657	116,955
333,100	4,228	229,611	116,810
334,114	3,912	229,406	116,456
335,129	4,151	229,373	116,610
336,143	4,479	229,301	116,811
337,158	4,483	229,149	116,726
338,173	4,117	228,772	116,247
339,187	3,994	228,694	116,104
340,202	4,239	228,476	116,168
341,216	4,136	228,318	116,000
342,231	4,310	228,158	116,039
343,246	3,925	228,089	115,704
344,260	4,114	227,998	115,790
345,275	4,514	227,794	115,977
346,289	4,489	227,599	115,848
347,304	4,571	227,623	115,911
348,319	4,537	227,443	115,784
349,333	4,256	227,159	115,419
350,348	3,908	227,125	115,130
351,362	4,223	226,939	115,262
352,377	4,200	226,837	115,183
353,392	3,843	226,599	114,784
354,406	3,896	226,398	114,712
355,421	195,602	1321,649	1399,089
356,435	156,805	1455,092	1399,094
