DTS Sentinel unit serial number:	SN410029Multiplexer serial number:	ORYXHardware model number:	OX2-SRSoftware version number:	ORYX F/W v4,00 Oryx Data Collector v3.7.2.0data status	okinstallation	B5 Nyhavnadifferential loss correction	single-endedforward channel	channel 2reverse channel	N/Adate	2023/12/12time	05:17:13forward acquisition time	300,00reverse acquisition time	0,00gamma	499,1914k internal	0,3157k external	0,3157temperature offset calibration	1,0000default loss term (dB/km)	0,3820temperature slope calibration	1,0000multiplexer offset coefficient	1,0000multiplexer slope coefficient	1,0000fibre end	0,00T internal ref (°C)	15,38T ext. ref 1 (°C)	-1,04T ext. ref 2 (°C)	-1,34length (m)	temperature (°C)	Stokes	anti-Stokes-744,400	134,242	0,094	0,090
-743,385	-163,698	-0,301	0,010
-742,371	11,512	0,187	0,106
-741,356	-87,512	-0,422	0,093
-740,342	800,000	0,045	0,135
-739,327	-92,351	-0,269	0,055
-738,312	411,502	0,054	-0,084
-737,298	-58,284	-0,389	-0,124
-736,283	-200,000	0,002	-0,017
-735,269	-136,778	-0,196	-0,016
-734,254	-200,000	0,023	0,180
-733,239	-109,331	-0,482	-0,075
-732,225	-109,538	0,223	-0,034
-731,210	493,385	-0,039	0,067
-730,196	-200,000	0,014	-0,184
-729,181	-46,304	-0,055	-0,020
-728,167	-200,000	0,004	-0,086
-727,152	-82,719	0,099	-0,023
-726,137	192,476	-0,112	-0,125
-725,123	800,000	-0,048	-0,102
-724,108	19,749	-0,147	-0,087
-723,094	156,436	0,069	-0,070
-722,079	517,827	-0,033	0,057
-721,064	-102,652	-0,057	-0,010
-720,050	-200,000	-0,016	0,075
-719,035	-200,000	0,028	-0,144
-718,021	-143,338	-0,101	0,007
-717,006	-80,086	-0,141	-0,034
-715,991	800,000	0,047	-0,143
-714,977	-73,195	-0,065	-0,018
-713,962	-151,799	-0,020	-0,001
-712,948	63,361	0,048	0,036
-711,933	77,361	-0,098	-0,077
-710,918	458,434	0,085	-0,140
-709,904	54,550	-0,131	-0,093
-708,889	42,247	-0,152	-0,101
-707,875	-45,070	-0,302	-0,110
-706,860	-36,093	0,057	-0,023
-705,845	-32,828	0,105	-0,043
-704,831	-56,949	0,112	0,036
-703,816	-30,571	-0,105	-0,044
-702,802	90,846	-0,072	-0,060
-701,787	-112,923	-0,124	0,018
-700,772	117,067	-0,024	-0,022
-699,758	186,777	0,029	0,031
-698,743	-16,753	-0,090	0,042
-697,729	-96,500	0,078	0,015
-696,714	265,666	-0,056	0,072
-695,699	27,647	-0,120	0,074
-694,685	-200,000	-0,024	-0,137
-693,670	12,104	-0,116	-0,066
-692,656	107,075	0,049	-0,043
-691,641	-190,026	-0,109	0,001
-690,627	665,041	-0,046	-0,088
-689,612	-200,000	0,033	0,132
-688,597	-138,894	-0,048	-0,004
-687,583	326,492	0,090	0,127
-686,568	-120,850	-0,110	-0,014
-685,554	241,406	0,076	-0,094
-684,539	643,435	0,051	0,096
-683,524	81,571	0,063	0,050
-682,510	-141,007	-0,189	0,014
-681,495	126,691	-0,052	-0,049
-680,481	800,000	-0,032	-0,083
-679,466	-21,304	-0,076	-0,034
-678,451	364,769	-0,051	-0,076
-677,437	-35,137	0,117	0,047
-676,422	43,783	0,026	0,018
-675,408	-161,039	0,029	0,001
-674,393	800,000	-0,034	0,110
-673,378	90,089	-0,057	-0,047
-672,364	-20,233	-0,104	-0,047
-671,349	57,415	-0,154	-0,111
-670,335	800,000	0,049	0,120
-669,320	-29,278	0,097	0,041
-668,305	-200,000	0,003	0,065
-667,291	153,615	0,053	-0,053
-666,276	69,325	-0,048	0,036
-665,262	63,765	-0,076	-0,056
-664,247	-80,957	-0,080	-0,019
-663,232	97,062	-0,106	0,089
-662,218	432,877	0,067	-0,107
-661,203	139,415	0,037	-0,036
-660,189	-8,686	-0,094	-0,046
-659,174	-133,413	-0,058	-0,005
-658,159	123,241	0,087	-0,080
-657,145	-29,415	-0,063	-0,026
-656,130	-117,102	0,038	-0,005
-655,116	800,000	0,038	0,103
-654,101	-74,825	-0,207	0,054
-653,086	800,000	0,054	-0,111
-652,072	-127,696	-0,060	-0,006
-651,057	-200,000	-0,008	-0,119
-650,043	-200,000	0,003	-0,133
-649,028	208,865	0,092	-0,106
-648,014	102,523	-0,025	-0,021
-646,999	97,093	-0,044	0,037
-645,984	-200,000	-0,021	0,086
-644,970	11,989	-0,050	-0,028
-643,955	211,897	-0,042	-0,049
-642,941	17,849	-0,065	-0,038
-641,926	559,237	0,083	0,148
-640,911	37,568	0,022	0,014
-639,897	-200,000	0,004	-0,089
-638,882	-200,000	0,023	0,100
-637,868	800,000	0,031	0,072
-636,853	800,000	-0,045	-0,127
-635,838	-149,304	-0,165	-0,010
-634,824	526,370	-0,058	-0,101
-633,809	-89,571	0,028	0,006
-632,795	740,016	0,035	-0,070
-631,780	-200,000	0,013	-0,065
-630,765	-200,000	-0,010	0,043
-629,751	-62,780	-0,104	0,032
-628,736	431,209	-0,032	0,051
-627,722	387,425	-0,062	-0,095
-626,707	800,000	-0,024	0,061
-625,692	-200,000	0,031	0,104
-624,678	800,000	0,013	0,029
-623,663	-86,887	-0,078	-0,017
-622,649	-90,160	-0,036	0,008
-621,634	-70,922	-0,120	-0,033
-620,619	-8,460	-0,119	0,058
-619,605	-87,105	0,163	0,036
-618,590	-200,000	-0,003	-0,011
-617,576	-161,911	-0,041	0,001
-616,561	173,993	0,025	0,026
-615,546	-18,270	0,075	0,034
-614,532	800,000	0,008	0,018
-613,517	-200,000	-0,008	-0,030
-612,503	-158,793	-0,068	-0,003
-611,488	-82,131	0,071	-0,017
-610,474	-56,496	-0,203	-0,066
-609,459	458,909	-0,063	-0,103
-608,444	-200,000	-0,024	-0,108
-607,430	-200,000	-0,019	-0,151
-606,415	-52,934	0,105	-0,035
-605,401	-200,000	-0,017	0,087
-604,386	302,764	-0,041	0,056
-603,371	-200,000	-0,017	0,080
-602,357	46,551	-0,137	0,093
-601,342	800,000	-0,024	0,077
-600,328	732,701	0,056	0,111
-599,313	136,502	-0,106	-0,101
-598,298	800,000	0,039	0,081
-597,284	524,518	0,042	-0,073
-596,269	163,996	-0,088	0,091
-595,255	-200,000	0,044	0,164
-594,240	21,575	-0,160	-0,095
-593,225	12,806	-0,115	-0,065
-592,211	113,081	-0,025	0,022
-591,196	-68,592	0,037	-0,010
-590,182	8,413	0,011	-0,006
-589,167	-101,442	-0,054	0,009
-588,152	138,719	0,029	0,028
-587,138	800,000	-0,020	0,052
-586,123	163,093	0,121	0,124
-585,109	10,941	-0,072	0,040
-584,094	199,420	0,080	0,090
-583,079	-6,321	0,032	0,016
-582,065	-97,136	0,202	0,038
-581,050	718,074	0,105	0,206
-580,036	800,000	-0,030	-0,066
-579,021	-112,749	-0,098	0,014
-578,006	-18,107	-0,139	-0,063
-576,992	-81,617	0,066	-0,016
-575,977	68,679	0,133	-0,100
-574,963	48,007	0,085	-0,058
-573,948	147,363	-0,055	0,055
-572,934	800,000	0,017	0,053
-571,919	-104,296	-0,136	0,023
-570,904	800,000	-0,027	-0,084
-569,890	-200,000	0,025	-0,093
-568,875	-200,000	0,013	0,052
-567,861	-3,368	0,046	0,023
-566,846	800,000	-0,043	-0,136
-565,831	314,750	0,025	0,035
-564,817	107,254	-0,114	0,099
-563,802	-119,856	-0,042	-0,005
-562,788	309,343	0,042	0,058
-561,773	-110,156	-0,040	0,006
-560,758	127,062	0,116	0,108
-559,744	83,914	0,046	-0,036
-558,729	135,326	-0,048	-0,045
-557,715	-35,713	0,182	-0,072
-556,700	-48,599	-0,144	0,050
-555,685	53,416	0,088	-0,062
-554,671	-118,318	-0,105	0,013
-553,656	-200,000	-0,001	-0,054
-552,642	-200,000	0,000	-0,037
-551,627	75,970	-0,057	-0,044
-550,612	-34,820	-0,169	-0,067
-549,598	800,000	0,028	-0,072
-548,583	121,476	-0,050	-0,046
-547,569	224,474	0,026	0,031
-546,554	-200,000	0,055	0,207
-545,539	711,959	0,035	0,067
-544,525	-200,000	0,009	0,065
-543,510	-65,414	-0,057	-0,017
-542,496	-200,000	-0,008	0,121
-541,481	-200,000	-0,004	-0,080
-540,466	-200,000	0,024	-0,134
-539,452	-7,957	0,039	0,019
-538,437	660,145	0,079	0,149
-537,423	-88,542	0,035	0,008
-536,408	-11,693	0,037	-0,018
-535,393	-72,768	-0,081	0,022
-534,379	800,000	0,058	-0,143
-533,364	-80,006	0,241	-0,059
-532,350	-53,487	0,031	-0,010
-531,335	4,938	-0,074	-0,040
-530,321	-62,764	0,048	0,014
-529,306	-200,000	0,005	0,034
-528,291	221,996	-0,056	-0,066
-527,277	173,305	-0,039	-0,041
-526,262	-43,982	0,085	0,031
-525,248	737,253	-0,059	0,117
-524,233	106,065	0,077	0,067
-523,218	-200,000	0,017	-0,136
-522,204	-79,021	-0,045	0,011
-521,189	-79,655	0,104	0,025
-520,175	-118,916	-0,125	0,016
-519,160	4,826	0,036	0,019
-518,145	422,891	0,049	0,077
-517,131	-200,000	0,015	0,059
-516,116	-200,000	0,051	0,200
-515,102	-10,331	-0,179	0,087
-514,087	183,613	-0,077	-0,083
-513,072	-200,000	0,025	-0,123
-512,058	800,000	0,057	-0,150
-511,043	189,280	0,059	-0,065
-510,029	-200,000	0,019	-0,080
-509,014	245,252	0,102	0,125
-507,999	280,543	0,021	0,027
-506,985	256,220	0,065	-0,081
-505,970	-60,310	-0,072	-0,022
-504,956	-64,996	-0,185	-0,054
-503,941	-200,000	0,005	0,144
-502,926	114,898	0,055	0,049
-501,912	-149,260	0,133	0,008
-500,897	-88,053	-0,060	0,013
-499,883	800,000	0,028	0,069
-498,868	8,692	-0,105	-0,058
-497,853	20,811	0,114	-0,067
-496,839	800,000	0,027	-0,082
-495,824	-96,760	0,090	0,017
-494,810	60,554	0,067	0,048
-493,795	-91,079	0,074	-0,015
-492,781	-200,000	0,001	0,122
-491,766	-37,797	-0,067	0,026
-490,751	800,000	-0,048	-0,150
-489,737	800,000	0,058	-0,122
-488,722	800,000	-0,015	0,045
-487,708	155,278	0,125	0,125
-486,693	800,000	-0,034	0,103
-485,678	-200,000	0,046	0,152
-484,664	-200,000	-0,028	-0,100
-483,649	-200,000	0,009	-0,031
-482,635	800,000	0,028	0,074
-481,620	-200,000	-0,023	0,145
-480,605	320,429	0,075	0,104
-479,591	-200,000	-0,005	0,077
-478,576	-200,000	0,025	0,083
-477,562	-200,000	-0,007	0,049
-476,547	-147,167	-0,099	-0,006
-475,532	-94,228	-0,058	0,012
-474,518	800,000	-0,009	-0,021
-473,503	-50,907	0,113	-0,038
-472,489	272,979	-0,007	0,009
-471,474	466,849	0,058	-0,095
-470,459	800,000	-0,027	-0,080
-469,445	800,000	0,030	0,078
-468,430	255,857	0,046	-0,058
-467,416	595,284	-0,019	0,034
-466,401	532,470	-0,056	0,097
-465,386	-42,217	-0,107	0,040
-464,372	145,148	0,046	0,045
-463,357	103,948	0,078	0,067
-462,343	800,000	0,008	-0,021
-461,328	-138,910	0,108	0,008
-460,313	92,393	0,047	-0,038
-459,299	-200,000	0,024	0,086
-458,284	188,130	-0,056	0,061
-457,270	-91,903	0,138	0,028
-456,255	34,927	0,111	0,071
-455,241	-200,000	-0,010	-0,160
-454,226	-86,952	0,041	-0,009
-453,211	-110,868	0,061	0,009
-452,197	-200,000	-0,037	0,226
-451,182	113,893	0,061	-0,054
-450,168	223,034	-0,101	-0,119
-449,153	-138,848	-0,079	0,006
-448,138	197,550	-0,076	-0,084
-447,124	-200,000	-0,007	-0,065
-446,109	-61,700	0,072	-0,022
-445,095	111,534	0,071	0,063
-444,080	139,742	0,104	0,100
-443,065	800,000	-0,040	-0,091
-442,051	-101,336	0,152	0,027
-441,036	-134,318	-0,176	-0,016
-440,022	47,970	0,147	-0,100
-439,007	38,062	-0,044	-0,028
-437,992	-200,000	-0,010	0,031
-436,978	62,115	0,122	0,089
-435,963	73,276	-0,106	0,081
-434,949	800,000	-0,048	-0,135
-433,934	202,926	-0,041	-0,046
-432,919	-80,062	-0,020	0,005
-431,905	-200,000	0,007	-0,070
-430,890	-3,176	-0,049	0,025
-429,876	-128,311	0,095	0,010
-428,861	114,826	0,063	-0,056
-427,846	-200,000	-0,011	0,092
-426,832	-46,571	-0,142	-0,050
-425,817	236,224	-0,046	-0,055
-424,803	114,491	-0,022	-0,020
-423,788	800,000	-0,018	-0,057
-422,773	-89,450	0,087	-0,018
-421,759	-133,046	0,046	-0,004
-420,744	-171,661	0,078	0,002
-419,730	-149,220	-0,100	0,006
-418,715	48,258	-0,144	-0,098
-417,701	-46,955	0,076	0,027
-416,686	20,295	0,080	-0,047
-415,671	-55,185	-0,059	-0,019
-414,657	-150,930	-0,034	0,002
-413,642	262,059	0,044	-0,056
-412,628	82,594	0,019	-0,015
-411,613	-200,000	0,017	-0,069
-410,598	137,091	0,049	0,047
-409,584	-6,600	0,115	0,057
-408,569	800,000	-0,026	0,080
-407,555	29,831	-0,040	-0,025
-406,540	800,000	0,040	-0,100
-405,525	92,814	0,085	-0,070
-404,511	-153,458	-0,159	0,008
-403,496	-59,666	0,096	-0,030
-402,482	800,000	-0,014	-0,029
-401,467	-35,772	0,032	-0,013
-400,452	142,809	0,026	0,025
-399,438	-80,957	-0,098	-0,023
-398,423	-48,776	-0,078	-0,027
-397,409	421,750	-0,065	-0,102
-396,394	14,846	-0,072	0,041
-395,379	143,051	0,128	0,124
-394,365	-200,000	-0,017	0,061
-393,350	-111,407	0,135	-0,020
-392,336	187,369	-0,060	-0,065
-391,321	-200,000	0,023	0,082
-390,306	641,779	-0,026	0,048
-389,292	45,370	-0,095	0,064
-388,277	800,000	0,018	0,055
-387,263	-200,000	-0,033	0,205
-386,248	-29,346	-0,029	-0,012
-385,233	-60,080	0,205	-0,063
-384,219	130,333	-0,062	0,058
-383,204	603,117	-0,023	-0,041
-382,190	-109,533	-0,151	0,023
-381,175	-153,559	0,088	0,004
-380,160	-94,665	0,038	0,007
-379,146	-200,000	-0,015	0,059
-378,131	225,327	0,023	-0,027
-377,117	346,998	-0,060	0,086
-376,102	71,764	-0,095	-0,071
-375,088	-165,605	0,122	-0,004
-374,073	23,855	0,117	-0,070
-373,058	318,372	0,097	-0,134
-372,044	800,000	-0,009	-0,021
-371,029	-106,408	-0,059	0,010
-370,015	414,744	0,043	0,067
-369,000	293,901	0,004	0,005
-367,985	-200,000	-0,001	-0,083
-366,971	-136,284	0,068	-0,006
-365,956	746,861	0,041	0,081
-364,942	-77,001	0,173	0,044
-363,927	482,408	0,056	0,093
-362,912	-45,680	-0,057	0,021
-361,898	495,346	0,103	-0,172
-360,883	-111,189	-0,104	0,015
-359,869	18,519	0,129	0,075
-358,854	-200,000	-0,005	0,031
-357,839	412,315	0,108	0,167
-356,825	-70,171	-0,083	0,023
-355,810	116,674	-0,080	-0,072
-354,796	-200,000	-0,004	-0,040
-353,781	284,906	-0,037	0,048
-352,766	-200,000	0,033	-0,107
-351,752	-75,135	-0,088	-0,023
-350,737	-200,000	-0,001	0,088
-349,723	-2,076	-0,045	-0,023
-348,708	187,398	0,013	-0,014
-347,693	-156,247	-0,036	-0,002
-346,679	108,492	-0,083	0,072
-345,664	474,722	0,017	0,028
-344,650	97,500	0,065	-0,054
-343,635	800,000	-0,033	0,077
-342,620	-163,630	0,135	-0,005
-341,606	-200,000	-0,006	-0,079
-340,591	-41,490	-0,085	0,032
-339,577	320,088	-0,072	0,099
-338,562	-80,488	-0,116	-0,028
-337,548	-145,327	-0,199	-0,013
-336,533	-200,000	-0,008	0,029
-335,518	-34,135	-0,047	-0,019
-334,504	17,672	0,093	0,053
-333,489	-84,152	0,089	0,020
-332,475	-200,000	-0,048	0,242
-331,460	28,526	-0,049	-0,030
-330,445	-200,000	0,009	-0,049
-329,431	-200,000	-0,003	-0,076
-328,416	247,413	-0,058	-0,071
-327,402	800,000	0,012	-0,031
-326,387	228,259	0,006	0,007
-325,372	-200,000	0,014	0,094
-324,358	504,336	-0,041	-0,070
-323,343	235,504	0,033	0,040
-322,329	800,000	-0,019	0,049
-321,314	193,964	0,006	-0,006
-320,299	-91,723	0,060	0,012
-319,285	96,540	0,072	0,059
-318,270	8,414	-0,137	-0,074
-317,256	-200,000	-0,004	-0,017
-316,241	518,159	-0,079	-0,135
-315,226	-110,190	-0,096	0,014
-314,212	800,000	-0,030	-0,069
-313,197	800,000	0,038	-0,086
-312,183	800,000	-0,032	0,087
-311,168	604,820	-0,044	0,079
-310,153	221,789	-0,099	-0,116
-309,139	510,403	-0,038	-0,064
-308,124	210,881	0,087	0,099
-307,110	-200,000	-0,022	-0,088
-306,095	527,540	-0,033	-0,057
-305,080	800,000	0,038	0,104
-304,066	36,711	0,073	0,047
-303,051	8,302	-0,101	0,055
-302,037	6,790	-0,058	-0,031
-301,022	-112,760	0,116	0,017
-300,008	-200,000	0,006	-0,040
-298,993	404,210	-0,039	0,059
-297,978	-200,000	-0,016	-0,146
-296,964	-200,000	0,010	0,140
-295,949	-200,000	0,019	-0,121
-294,935	-200,000	0,003	-0,100
-293,920	-45,642	-0,152	-0,054
-292,905	800,000	-0,037	0,102
-291,891	-200,000	-0,021	0,083
-290,876	11,769	0,085	0,047
-289,862	60,735	-0,039	-0,028
-288,847	-70,911	-0,063	-0,017
-287,832	683,475	-0,073	-0,138
-286,818	800,000	0,009	-0,028
-285,803	160,340	-0,041	0,042
-284,789	800,000	0,046	-0,136
-283,774	-200,000	0,024	0,133
-282,759	-200,000	-0,016	0,060
-281,745	62,567	0,103	-0,074
-280,730	279,448	0,033	-0,043
-279,716	-143,020	0,117	0,008
-278,701	-200,000	0,002	0,158
-277,686	-121,476	0,184	0,022
-276,672	-200,000	0,041	-0,145
-275,657	-200,000	0,004	0,017
-274,643	633,728	0,071	-0,130
-273,628	107,522	0,010	-0,009
-272,613	-116,158	0,063	0,008
-271,599	-200,000	-0,007	-0,111
-270,584	774,511	0,047	0,094
-269,570	-135,113	-0,059	0,005
-268,555	800,000	0,044	0,113
-267,540	299,676	-0,024	-0,032
-266,526	-38,350	-0,040	0,015
-265,511	800,000	-0,029	-0,068
-264,497	800,000	0,029	-0,071
-263,482	62,514	0,053	-0,038
-262,467	138,225	0,038	0,036
-261,453	-200,000	0,001	-0,003
-260,438	377,238	-0,152	-0,225
-259,424	-200,000	0,005	-0,088
-258,409	-200,000	-0,033	-0,128
-257,395	-200,000	0,006	0,032
-256,380	2,042	0,064	-0,033
-255,365	68,451	0,150	0,111
-254,351	759,186	0,017	0,033
-253,336	-126,342	-0,141	-0,015
-252,322	172,718	0,016	-0,017
-251,307	320,724	0,065	0,090
-250,292	-200,000	-0,014	-0,049
-249,278	800,000	-0,031	-0,091
-248,263	189,832	0,086	0,094
-247,249	800,000	-0,034	0,072
-246,234	142,758	-0,017	-0,016
-245,219	520,813	-0,044	-0,074
-244,205	205,102	0,024	0,026
-243,190	169,483	-0,042	-0,043
-242,176	-38,210	-0,024	-0,009
-241,161	-200,000	0,029	-0,115
-240,146	3,855	-0,057	-0,030
-239,132	22,029	-0,164	-0,097
-238,117	87,219	-0,095	-0,076
-237,103	800,000	-0,058	-0,123
-236,088	23,656	-0,107	-0,063
-235,073	-49,325	-0,044	-0,015
-234,059	46,023	0,028	0,019
-233,044	14,148	0,076	0,043
-232,030	-177,996	-0,128	0,002
-231,015	-100,870	-0,051	-0,009
-230,000	14,452	0,109	0,061
-228,986	607,200	-0,074	0,133
-227,971	24,495	-0,101	0,060
-226,957	29,015	0,107	0,065
-225,942	-200,000	0,005	-0,074
-224,927	84,689	-0,035	0,028
-223,913	-200,000	-0,038	-0,178
-222,898	-86,559	0,086	0,019
-221,884	122,402	0,063	-0,057
-220,869	-146,821	-0,091	-0,006
-219,855	-200,000	0,002	0,046
-218,840	-164,363	0,143	-0,005
-217,825	800,000	-0,006	0,017
-216,811	7,465	-0,043	0,023
-215,796	-9,604	0,093	-0,044
-214,782	-200,000	0,011	-0,086
-213,767	-200,000	0,008	-0,086
-212,752	427,337	0,065	-0,101
-211,738	-165,588	-0,081	-0,002
-210,723	-86,447	0,041	0,009
-209,709	800,000	0,010	0,026
-208,694	-153,258	-0,207	-0,010
-207,679	81,958	-0,058	-0,045
-206,665	310,947	0,078	0,106
-205,650	131,292	-0,027	-0,025
-204,636	95,279	0,105	0,087
-203,621	91,605	0,058	0,047
-202,606	800,000	-0,028	-0,064
-201,592	-200,000	0,010	-0,122
-200,577	104,070	0,105	-0,089
-199,563	-200,000	0,008	-0,160
-198,548	174,126	0,034	-0,035
-197,533	25,785	0,049	0,029
-196,519	-66,332	-0,062	-0,018
-195,504	157,336	0,121	-0,121
-194,490	361,192	-0,059	-0,085
-193,475	141,977	-0,046	0,044
-192,460	800,000	-0,037	-0,081
-191,446	11,133	0,118	-0,065
-190,431	800,000	0,049	0,154
-189,417	311,288	-0,076	0,103
-188,402	632,348	-0,022	0,041
-187,387	425,852	-0,040	-0,062
-186,373	153,501	-0,027	0,026
-185,358	67,339	-0,069	0,051
-184,344	113,648	-0,067	0,059
-183,329	67,078	0,017	-0,013
-182,315	582,501	-0,048	0,085
-181,300	294,403	0,024	0,031
-180,285	-200,000	-0,060	-0,238
-179,271	124,182	0,096	-0,087
-178,256	210,240	-0,091	0,104
-177,242	162,139	0,019	0,020
-176,227	314,114	0,070	0,095
-175,212	-185,895	-0,105	-0,001
-174,198	800,000	-0,046	-0,104
-173,183	28,151	0,130	-0,079
-172,169	245,187	-0,093	0,113
-171,154	177,575	-0,016	0,017
-170,139	61,346	-0,126	0,090
-169,125	-200,000	-0,003	0,077
-168,110	-42,527	0,219	0,080
-167,096	137,263	0,103	0,097
-166,081	-17,949	0,055	0,025
-165,066	800,000	-0,034	-0,068
-164,052	23,233	-0,088	0,052
-163,037	-136,410	-0,047	0,004
-162,023	800,000	0,019	0,056
-161,008	-38,933	0,052	-0,020
-159,993	800,000	0,030	0,079
-158,979	-200,000	0,020	-0,211
-157,964	221,954	0,027	0,031
-156,950	-200,000	-0,006	0,199
-155,935	401,988	-0,039	0,059
-154,920	-200,000	0,023	-0,111
-153,906	-104,225	0,031	0,005
-152,891	293,172	0,041	-0,054
-151,877	119,010	0,054	-0,048
-150,862	547,572	-0,074	0,128
-149,847	52,143	-0,078	-0,053
-148,833	800,000	-0,023	-0,062
-147,818	-200,000	0,106	-0,000
-146,804	-200,000	0,006	0,109
-145,789	-200,000	-0,010	-0,075
-144,775	126,640	-0,037	-0,034
-143,760	-148,724	-0,184	0,011
-142,745	508,694	0,049	-0,082
-141,731	800,000	-0,048	-0,128
-140,716	327,266	0,135	0,187
-139,702	-200,000	0,044	0,165
-138,687	268,211	0,102	0,129
-137,672	-21,897	-0,158	0,069
-136,658	-200,000	-0,026	0,124
-135,643	-200,000	0,025	-0,112
-134,629	189,123	0,076	-0,082
-133,614	381,501	-0,043	-0,064
-132,599	68,105	0,096	-0,070
-131,585	800,000	-0,055	0,117
-130,570	800,000	-0,025	0,066
-129,556	306,205	-0,064	0,086
-128,541	-160,631	-0,074	0,003
-127,526	-200,000	0,036	-0,144
-126,512	-122,884	-0,054	0,006
-125,497	-27,013	-0,147	0,061
-124,483	-200,000	0,023	-0,081
-123,468	138,736	0,084	-0,079
-122,453	800,000	0,031	-0,083
-121,439	-200,000	0,019	0,087
-120,424	-136,481	0,042	-0,003
-119,410	712,787	0,040	-0,076
-118,395	310,833	0,094	0,128
-117,380	56,515	-0,032	0,022
-116,366	229,795	-0,039	0,046
-115,351	-77,248	-0,074	-0,018
-114,337	259,038	0,031	-0,039
-113,322	-116,408	-0,114	-0,015
-112,307	-94,804	0,124	0,024
-111,293	707,619	-0,044	0,083
-110,278	-154,659	0,078	0,004
-109,264	148,192	-0,037	0,036
-108,249	554,727	-0,017	-0,029
-107,234	531,793	-0,047	0,080
-106,220	800,000	-0,045	-0,109
-105,205	800,000	-0,085	0,202
-104,191	53,619	-0,024	-0,017
-103,176	-99,907	0,048	-0,009
-102,162	-200,000	0,006	-0,039
-101,147	143,927	0,043	0,041
-100,132	159,722	0,057	0,057
-99,118	-200,000	-0,005	-0,053
-98,103	-200,000	0,019	-0,078
-97,089	-200,000	-0,002	0,050
-96,074	-43,883	0,121	0,044
-95,059	-200,000	0,031	0,117
-94,045	462,160	-0,040	0,064
-93,030	78,261	-0,042	-0,032
-92,016	-28,878	-0,124	0,051
-91,001	619,069	-0,010	0,019
-89,986	239,007	-0,029	0,035
-88,972	-107,155	-0,043	-0,007
-87,957	-200,000	0,008	0,106
-86,943	-200,000	-0,022	-0,176
-85,928	134,284	-0,033	-0,031
-84,913	138,972	0,069	-0,065
-83,899	223,907	0,022	0,026
-82,884	2,291	0,108	0,056
-81,870	221,640	0,052	0,060
-80,855	-200,000	-0,021	0,274
-79,840	-165,722	0,149	-0,005
-78,826	-153,896	0,112	-0,005
-77,811	193,784	-0,056	-0,061
-76,797	-139,701	-0,102	0,008
-75,782	62,069	0,109	0,078
-74,767	230,308	0,066	-0,078
-73,753	196,015	0,039	0,043
-72,738	-17,177	-0,051	0,023
-71,724	81,053	-0,080	0,062
-70,709	-200,000	-0,012	-0,055
-69,694	-84,112	-0,079	-0,018
-68,680	-200,000	-0,006	0,056
-67,665	-200,000	0,022	0,075
-66,651	153,881	0,123	0,121
-65,636	37,677	0,063	-0,040
-64,622	-200,000	-0,004	-0,063
-63,607	477,443	-0,069	-0,112
-62,592	49,125	-0,076	0,051
-61,578	-119,362	0,093	-0,011
-60,563	131,015	-0,047	-0,043
-59,549	-200,000	-0,012	0,157
-58,534	-2,243	-1,878	-0,943
-57,519	800,000	-0,310	-0,861
-56,505	-200,000	-1,265	-5,018
-55,490	0,129	0,820	0,418
-54,476	800,000	5,319	12,240
-53,461	-200,000	17,598	283,681
-52,446	800,000	727,604	2214,794
-51,432	534,263	1643,873	2806,990
-50,417	109,998	1633,935	1406,919
-49,403	75,483	1286,420	973,604
-48,388	32,030	1027,688	634,312
-47,373	20,160	989,932	571,847
-46,359	18,520	977,527	559,282
-45,344	15,681	973,578	547,707
-44,330	15,841	972,156	547,409
-43,315	15,408	970,487	545,032
-42,300	15,346	969,349	544,168
-41,286	15,391	968,201	543,651
-40,271	15,388	967,145	543,025
-39,257	15,448	966,119	542,624
-38,242	15,386	965,470	542,037
-37,227	15,432	964,373	541,549
-36,213	15,387	963,732	541,021
-35,198	15,418	962,778	540,564
-34,184	15,457	961,972	540,218
-33,169	15,383	961,048	539,436
-32,154	15,463	960,115	539,149
-31,140	15,447	959,300	538,621
-30,125	15,475	958,572	538,280
-29,111	15,426	957,877	537,710
-28,096	15,450	957,108	537,335
-27,082	15,454	956,584	537,031
-26,067	15,440	955,465	536,337
-25,052	15,439	954,975	536,039
-24,038	15,344	954,236	535,297
-23,023	15,386	953,616	535,063
-22,009	15,453	953,015	534,918
-20,994	15,356	952,483	534,289
-19,979	15,412	951,711	534,013
-18,965	15,441	951,054	533,715
-17,950	15,422	950,455	533,297
-16,936	15,346	949,955	532,755
-15,921	15,392	949,076	532,387
-14,906	15,311	948,407	531,731
-13,892	15,318	947,783	531,381
-12,877	15,243	947,271	530,836
-11,863	15,265	946,432	530,414
-10,848	15,335	945,873	530,304
-9,833	15,382	945,556	530,255
-8,819	15,313	944,983	529,693
-7,804	15,344	944,069	529,258
-6,790	15,221	943,858	528,728
-5,775	15,329	943,121	528,637
-4,760	15,348	942,528	528,344
-3,746	15,306	941,672	527,709
-2,731	15,210	941,123	527,077
-1,717	15,197	940,501	526,666
-0,702	15,107	939,829	525,985
0,313	15,012	939,207	526,130
1,327	18,170	936,902	534,742
2,342	26,868	794,346	476,426
3,356	23,502	459,611	270,482
4,371	-3,426	315,406	156,898
5,386	-7,331	297,259	143,892
6,400	-9,406	290,999	138,784
7,415	-9,850	288,732	137,251
8,429	-9,909	287,194	136,450
9,444	-9,906	286,247	135,991
10,459	-9,845	285,681	135,770
11,473	-10,080	285,176	135,288
12,488	-9,826	284,631	135,265
13,502	-9,959	284,096	134,870
14,517	-9,908	283,599	134,671
15,531	-9,965	283,273	134,449
16,546	-9,872	282,901	134,351
17,561	-10,015	282,494	134,007
18,575	-9,663	282,009	134,104
19,590	-9,921	281,654	133,675
20,604	-9,916	281,306	133,502
21,619	-9,972	280,994	133,290
22,634	-9,966	280,549	133,071
23,648	-9,923	280,350	133,006
24,663	-10,074	280,193	132,776
25,677	-9,853	279,839	132,807
26,692	-10,011	279,744	132,599
27,707	-10,093	279,419	132,355
28,721	-9,951	279,094	132,325
29,736	-9,952	278,740	132,145
30,750	-9,810	278,324	132,070
31,765	-10,092	278,332	131,794
32,780	-9,852	277,979	131,843
33,794	-9,856	277,798	131,742
34,809	-9,908	277,547	131,562
35,823	-9,897	277,254	131,422
36,838	-10,048	276,986	131,140
37,853	-10,011	276,881	131,114
38,867	-9,980	276,643	131,019
39,882	-9,919	276,298	130,902
40,896	-9,997	276,025	130,686
41,911	-10,030	275,778	130,527
42,926	-10,064	275,664	130,429
43,940	-9,964	275,335	130,356
44,955	-10,146	275,274	130,144
45,969	-10,217	274,893	129,886
46,984	-10,217	274,480	129,680
47,999	-10,373	274,329	129,451
49,013	-10,458	273,941	129,177
50,028	-10,447	273,822	129,120
51,042	-10,576	273,491	128,831
52,057	-10,704	273,273	128,598
53,071	-10,401	272,965	128,723
54,086	-10,605	272,880	128,482
55,101	-10,466	272,706	128,518
56,115	-10,213	272,584	128,684
57,130	-10,154	272,412	128,646
58,144	-9,685	272,197	128,968
59,159	-9,774	272,098	128,828
60,174	-9,894	271,795	128,561
61,188	-9,756	271,593	128,582
62,203	-9,871	271,342	128,345
63,217	-9,841	271,090	128,243
64,232	-9,789	270,950	128,213
65,247	-9,650	270,720	128,220
66,261	-9,794	270,359	127,906
67,276	-10,031	270,210	127,606
68,290	-10,196	269,975	127,331
69,305	-10,466	269,875	127,025
70,320	-10,143	269,463	127,116
71,334	-10,036	269,470	127,207
72,349	-9,836	269,233	127,267
73,363	-9,856	268,970	127,113
74,378	-9,889	268,870	127,023
75,393	-9,797	268,494	126,919
76,407	-9,794	268,292	126,814
77,422	-9,797	268,035	126,679
78,436	-9,722	267,795	126,623
79,451	-9,845	267,604	126,409
80,466	-9,955	267,258	126,134
81,480	-9,923	267,086	126,071
82,495	-10,109	266,936	125,820
83,509	-9,973	266,838	125,886
84,524	-10,011	266,531	125,696
85,539	-10,263	266,392	125,391
86,553	-10,117	265,996	125,325
87,568	-10,019	265,820	125,319
88,582	-9,986	265,713	125,287
89,597	-10,160	265,458	125,000
90,611	-10,027	265,330	125,048
91,626	-9,787	265,174	125,179
92,641	-9,847	265,012	125,038
93,655	-9,826	264,669	124,883
94,670	-9,852	264,506	124,772
95,684	-9,990	264,158	124,473
96,699	-10,059	264,240	124,438
97,714	-10,109	264,083	124,309
98,728	-10,067	263,723	124,166
99,743	-10,024	263,365	124,024
100,757	-10,129	263,250	123,865
101,772	-10,228	263,153	123,720
102,787	-10,114	262,925	123,704
103,801	-10,067	262,756	123,656
104,816	-10,067	262,670	123,604
105,830	-9,845	262,385	123,656
106,845	-9,856	262,169	123,534
107,860	-9,823	261,829	123,392
108,874	-9,831	261,820	123,370
109,889	-10,051	261,425	122,978
110,903	-9,881	261,382	123,097
111,918	-9,917	261,147	122,943
112,933	-10,051	260,927	122,711
113,947	-9,979	260,807	122,706
114,962	-9,882	260,614	122,691
115,976	-9,890	260,499	122,619
116,991	-9,946	260,343	122,485
118,006	-9,877	260,006	122,376
119,020	-9,975	259,994	122,273
120,035	-9,946	259,802	122,197
121,049	-9,726	259,515	122,245
122,064	-9,824	259,414	122,101
123,079	-9,902	259,122	121,884
124,093	-9,799	258,933	121,874
125,108	-10,048	258,659	121,516
126,122	-10,214	258,385	121,231
127,137	-10,392	258,145	120,952
128,151	-10,141	258,010	121,098
129,166	-10,091	257,892	121,075
130,181	-9,977	257,572	121,014
131,195	-9,989	257,518	120,967
132,210	-9,873	257,280	120,945
133,224	-9,828	257,161	120,918
134,239	-9,866	257,091	120,841
135,254	-9,709	256,822	120,840
136,268	-10,044	256,661	120,462
137,283	-10,197	256,417	120,205
138,297	-10,193	256,059	120,030
139,312	-10,337	256,001	119,867
140,327	-9,920	255,782	120,115
141,341	-9,794	255,679	120,164
142,356	-9,649	255,274	120,088
143,370	-9,712	255,233	120,004
144,385	-9,794	255,316	119,962
145,400	-9,586	255,022	119,992
146,414	-9,548	254,732	119,878
147,429	-9,758	254,706	119,674
148,443	-9,675	254,453	119,616
149,458	-9,688	254,146	119,450
150,473	-9,806	253,980	119,260
151,487	-9,753	253,815	119,217
152,502	-9,746	253,665	119,142
153,516	-9,814	253,503	118,997
154,531	-9,603	253,273	119,059
155,546	-9,687	253,236	118,959
156,560	-9,740	252,902	118,746
157,575	-10,017	252,815	118,458
158,589	-9,686	252,611	118,634
159,604	-9,870	252,366	118,352
160,619	-9,592	252,187	118,494
161,633	-9,765	252,144	118,317
162,648	-9,751	251,720	118,119
163,662	-9,560	251,666	118,245
164,677	-9,587	251,616	118,189
165,692	-9,628	251,324	118,006
166,706	-9,797	251,226	117,806
167,721	-9,651	251,000	117,813
168,735	-9,616	250,834	117,754
169,750	-9,749	250,666	117,552
170,764	-9,709	250,610	117,550
171,779	-9,602	250,479	117,568
172,794	-9,632	250,281	117,439
173,808	-9,633	249,987	117,290
174,823	-9,985	249,683	116,841
175,837	-10,177	249,609	116,634
176,852	-9,924	249,518	116,794
177,867	-9,422	249,408	117,153
178,881	-9,522	249,334	117,025
179,896	-9,609	249,122	116,842
180,910	-9,467	248,829	116,813
181,925	-9,468	248,612	116,700
182,940	-9,543	248,472	116,561
183,954	-9,668	248,361	116,394
184,969	-9,767	248,284	116,265
185,983	-9,783	248,198	116,201
186,998	-9,750	247,892	116,074
188,013	-9,750	247,634	115,943
189,027	-9,514	247,553	116,091
190,042	-9,742	247,505	115,869
191,056	-9,658	247,184	115,778
192,071	-9,896	247,089	115,525
193,086	-9,735	246,791	115,510
194,100	-9,726	246,652	115,441
195,115	-9,592	246,456	115,451
196,129	-9,497	246,272	115,433
197,144	-9,549	246,021	115,262
198,159	-9,605	245,909	115,153
199,173	-9,662	245,807	115,047
200,188	-9,884	245,556	114,736
201,202	-9,951	245,338	114,569
202,217	-10,134	244,975	114,238
203,232	-10,079	244,767	114,177
204,246	-9,722	244,788	114,470
205,261	-9,406	244,633	114,648
206,275	-10,618	244,371	113,518
207,290	-7,756	245,546	116,417
208,304	-0,713	247,731	123,294
209,319	3,291	248,741	127,115
210,334	3,499	248,860	127,337
211,348	3,919	248,594	127,538
212,363	4,032	248,635	127,642
213,377	4,273	248,392	127,705
214,392	4,116	248,161	127,445
215,407	3,944	247,943	127,180
216,421	4,013	247,784	127,144
217,436	4,129	247,872	127,274
218,450	4,287	247,590	127,248
219,465	3,894	247,334	126,781
220,480	3,806	247,081	126,567
221,494	3,649	246,967	126,369
222,509	3,742	246,905	126,402
223,523	3,616	246,642	126,152
224,538	3,258	246,388	125,717
225,553	3,445	246,248	125,788
226,567	3,531	246,086	125,765
227,582	3,762	246,096	125,948
228,596	3,735	245,887	125,807
229,611	3,657	245,545	125,557
230,626	3,284	245,394	125,164
231,640	3,389	245,293	125,187
232,655	3,460	245,128	125,150
233,669	3,388	244,962	124,995
234,684	3,286	244,912	124,875
235,699	3,870	244,673	125,218
236,713	3,702	244,743	125,106
237,728	3,539	244,382	124,778
238,742	3,505	244,107	124,599
239,757	3,330	243,991	124,386
240,772	3,563	243,856	124,495
241,786	3,757	243,775	124,600
242,801	3,358	243,442	124,095
243,815	3,445	243,369	124,118
244,830	3,573	243,256	124,152
245,844	3,645	242,950	124,043
246,859	3,452	242,926	123,864
247,874	3,326	242,779	123,676
248,888	3,514	242,614	123,733
249,903	3,660	242,384	123,722
250,917	3,521	242,357	123,585
251,932	3,780	242,268	123,738
252,947	3,712	241,954	123,512
253,961	3,482	241,738	123,206
254,976	3,591	241,780	123,304
255,990	3,719	241,684	123,347
257,005	3,368	241,265	122,840
258,020	3,098	241,241	122,600
259,034	3,410	240,909	122,671
260,049	3,592	240,830	122,765
261,063	3,273	240,747	122,457
262,078	3,471	240,497	122,477
263,093	3,721	240,459	122,646
264,107	3,747	240,352	122,601
265,122	3,567	240,128	122,333
266,136	3,633	239,973	122,296
267,151	3,883	239,801	122,396
268,166	3,735	239,534	122,131
269,180	3,279	239,479	121,730
270,195	3,927	239,550	122,270
271,209	4,118	239,317	122,292
272,224	3,619	239,058	121,752
273,239	3,389	238,819	121,438
274,253	3,503	238,650	121,432
275,268	3,666	238,656	121,553
276,282	3,754	238,406	121,484
277,297	3,302	238,358	121,092
278,312	3,536	238,090	121,129
279,326	3,483	237,927	120,994
280,341	3,666	237,781	121,053
281,355	3,647	237,661	120,966
282,370	3,750	237,661	121,037
283,384	3,640	237,385	120,799
284,399	3,536	237,144	120,584
285,414	3,403	236,991	120,391
286,428	3,405	236,845	120,307
287,443	3,384	236,776	120,244
288,457	3,637	236,592	120,339
289,472	3,842	236,440	120,411
290,487	3,719	236,218	120,192
291,501	3,405	236,181	119,916
292,516	3,189	235,861	119,575
293,530	3,218	235,744	119,527
294,545	3,557	235,755	119,786
295,560	3,353	235,627	119,552
296,574	3,335	235,341	119,382
297,589	3,431	235,196	119,373
298,603	3,701	235,264	119,607
299,618	3,687	235,029	119,466
300,633	3,514	234,912	119,261
301,647	3,621	234,986	119,371
302,662	3,868	234,725	119,420
303,676	4,032	234,528	119,436
304,691	3,745	234,521	119,199
305,706	3,925	234,211	119,170
306,720	3,917	234,127	119,111
307,735	3,760	233,917	118,872
308,749	3,488	233,637	118,509
309,764	3,342	233,483	118,307
310,779	3,534	233,141	118,271
311,793	3,163	232,951	117,879
312,808	3,372	232,980	118,044
313,822	3,379	232,720	117,907
314,837	3,403	232,613	117,862
315,852	3,418	232,459	117,784
316,866	3,556	232,416	117,858
317,881	3,706	232,327	117,917
318,895	3,842	232,222	117,958
319,910	4,156	232,044	118,098
320,925	3,716	231,904	117,678
321,939	3,519	231,597	117,362
322,954	3,649	231,563	117,433
323,968	3,318	231,279	117,026
324,983	3,245	231,201	116,920
325,997	3,844	231,155	117,344
327,012	4,141	230,974	117,469
328,027	3,556	230,845	116,946
329,041	3,988	230,906	117,296
330,056	4,293	230,664	117,395
331,070	3,993	230,423	117,033
332,085	4,085	230,313	117,037
333,100	3,967	230,235	116,898
334,114	3,927	230,132	116,805
335,129	4,014	229,919	116,752
336,143	3,793	229,606	116,415
337,158	3,908	229,530	116,453
338,173	4,057	229,496	116,538
339,187	3,924	229,268	116,312
340,202	3,948	229,139	116,253
341,216	4,079	228,853	116,198
342,231	3,588	228,811	115,795
343,246	3,698	228,748	115,836
344,260	3,811	228,616	115,844
345,275	4,024	228,583	115,978
346,289	3,924	228,313	115,755
347,304	4,096	228,206	115,820
348,319	4,023	228,133	115,717
349,333	3,985	227,785	115,502
350,348	3,638	227,603	115,140
351,362	3,688	227,376	115,052
352,377	3,542	227,283	114,885
353,392	3,434	227,121	114,712
354,406	3,434	227,075	114,679
355,421	194,948	1322,067	1397,073
356,435	156,270	1455,475	1397,064
