DTS Sentinel unit serial number:	SN410029Multiplexer serial number:	ORYXHardware model number:	OX2-SRSoftware version number:	ORYX F/W v4,00 Oryx Data Collector v3.7.2.0data status	okinstallation	B5 Nyhavnadifferential loss correction	single-endedforward channel	channel 2reverse channel	N/Adate	2023/12/14time	02:32:13forward acquisition time	300,00reverse acquisition time	0,00gamma	499,1914k internal	0,3155k external	0,3155temperature offset calibration	1,0000default loss term (dB/km)	0,3820temperature slope calibration	1,0000multiplexer offset coefficient	1,0000multiplexer slope coefficient	1,0000fibre end	0,00T internal ref (°C)	8,50T ext. ref 1 (°C)	-7,82T ext. ref 2 (°C)	-7,87length (m)	temperature (°C)	Stokes	anti-Stokes-744,400	-54,045	0,143	0,048
-743,385	-45,087	-0,296	-0,108
-742,371	96,992	0,175	0,148
-741,356	-124,135	-0,414	0,047
-740,342	800,000	0,036	0,079
-739,327	-195,358	-0,315	-0,002
-738,312	-126,343	0,096	-0,010
-737,298	-122,365	-0,321	-0,038
-736,283	59,623	0,087	0,063
-735,269	-117,773	-0,473	-0,062
-734,254	44,389	0,161	0,109
-733,239	80,934	-0,492	-0,391
-732,225	-111,434	0,225	0,034
-731,210	800,000	0,051	0,126
-730,196	-128,804	-0,149	0,015
-729,181	520,709	0,017	0,029
-728,167	800,000	0,006	-0,013
-727,152	63,744	0,045	0,033
-726,137	800,000	-0,069	-0,147
-725,123	-16,976	0,063	-0,029
-724,108	-200,000	-0,056	-0,218
-723,094	542,267	0,098	-0,173
-722,079	28,141	-0,107	-0,066
-721,064	-200,000	0,020	0,083
-720,050	381,815	-0,079	-0,121
-719,035	214,517	0,072	0,084
-718,021	173,185	-0,123	-0,131
-717,006	267,598	-0,040	0,052
-715,991	800,000	-0,053	-0,158
-714,977	-135,378	-0,099	0,009
-713,962	-36,153	-0,030	-0,012
-712,948	800,000	0,008	-0,022
-711,933	254,816	-0,060	-0,076
-710,918	-183,267	0,158	0,002
-709,904	344,871	-0,079	-0,115
-708,889	59,840	0,029	-0,021
-707,875	800,000	-0,020	-0,042
-706,860	-200,000	0,029	0,160
-705,845	-200,000	-0,018	0,060
-704,831	800,000	0,016	-0,033
-703,816	-94,282	0,037	-0,007
-702,802	611,356	0,022	-0,040
-701,787	800,000	0,037	-0,093
-700,772	418,367	-0,112	-0,177
-699,758	31,430	-0,051	-0,032
-698,743	-142,201	0,092	0,007
-697,729	-200,000	-0,039	0,136
-696,714	111,869	-0,084	0,075
-695,699	-52,787	-0,159	0,054
-694,685	800,000	-0,033	0,069
-693,670	7,908	0,033	-0,018
-692,656	800,000	0,061	-0,166
-691,641	-200,000	-0,010	0,069
-690,627	800,000	-0,027	0,084
-689,612	-3,110	-0,088	-0,045
-688,597	5,776	-0,040	-0,022
-687,583	2,867	-0,109	0,058
-686,568	281,930	-0,039	-0,052
-685,554	-64,734	0,007	-0,002
-684,539	-57,246	0,094	-0,030
-683,524	-88,639	0,122	0,027
-682,510	442,095	0,028	0,046
-681,495	202,964	-0,174	-0,198
-680,481	-65,328	-0,166	-0,049
-679,466	232,740	0,014	-0,017
-678,451	-122,051	-0,130	-0,015
-677,437	336,259	-0,020	-0,029
-676,422	287,904	0,062	0,083
-675,408	-129,405	0,105	0,011
-674,393	-200,000	0,014	0,128
-673,378	94,921	-0,043	-0,036
-672,364	-145,146	-0,144	0,009
-671,349	-172,632	0,098	-0,002
-670,335	-103,593	0,074	-0,013
-669,320	140,251	0,086	0,083
-668,305	55,083	0,077	0,054
-667,291	530,421	-0,070	0,122
-666,276	-74,132	0,088	-0,023
-665,262	-19,822	-0,111	-0,050
-664,247	-44,360	0,077	0,028
-663,232	249,520	-0,018	-0,023
-662,218	800,000	0,028	0,069
-661,203	-74,101	-0,103	0,027
-660,189	800,000	0,033	0,098
-659,174	482,026	-0,068	0,114
-658,159	-200,000	0,000	-0,002
-657,145	-128,512	-0,083	-0,009
-656,130	58,208	-0,041	-0,029
-655,116	-81,576	0,075	0,018
-654,101	-156,693	0,127	0,006
-653,086	800,000	-0,041	-0,096
-652,072	337,217	-0,096	-0,138
-651,057	-200,000	-0,010	-0,097
-650,043	253,979	-0,075	0,095
-649,028	-95,477	-0,089	0,017
-648,014	209,517	0,053	-0,061
-646,999	-66,218	0,208	0,061
-645,984	-87,464	-0,112	0,025
-644,970	753,405	-0,046	-0,092
-643,955	70,858	-0,014	0,011
-642,941	-200,000	0,011	-0,159
-641,926	284,758	0,048	-0,063
-640,911	-32,311	0,063	0,026
-639,897	-84,277	-0,028	-0,006
-638,882	-12,328	0,036	-0,017
-637,868	137,572	-0,050	0,048
-636,853	114,193	0,039	0,035
-635,838	-76,231	-0,174	0,045
-634,824	175,743	0,073	-0,078
-633,809	-144,197	-0,065	0,004
-632,795	-99,824	0,081	0,015
-631,780	-200,000	0,015	0,053
-630,765	111,934	-0,033	0,029
-629,751	417,134	-0,036	-0,056
-628,736	-200,000	0,015	-0,073
-627,722	-200,000	-0,018	-0,113
-626,707	-200,000	0,003	-0,172
-625,692	-46,865	0,043	-0,015
-624,678	2,237	0,057	-0,030
-623,663	-108,256	-0,060	0,009
-622,649	-63,353	0,016	-0,005
-621,634	280,314	0,011	-0,014
-620,619	800,000	-0,042	-0,091
-619,605	-121,702	0,036	-0,004
-618,590	585,384	0,025	-0,045
-617,576	800,000	0,015	-0,035
-616,561	667,176	0,025	0,047
-615,546	-130,945	0,139	-0,013
-614,532	800,000	-0,046	-0,097
-613,517	-112,314	0,108	-0,016
-612,503	796,158	0,036	-0,074
-611,488	101,826	0,075	-0,064
-610,474	-200,000	0,024	0,265
-609,459	-200,000	0,032	0,196
-608,444	-200,000	0,005	-0,083
-607,430	1,451	0,061	0,032
-606,415	36,064	0,032	-0,020
-605,401	800,000	0,027	-0,076
-604,386	785,397	-0,045	-0,091
-603,371	52,306	-0,112	-0,079
-602,357	-100,977	-0,047	-0,008
-601,342	800,000	-0,060	-0,145
-600,328	-79,381	-0,034	-0,008
-599,313	-200,000	-0,005	-0,111
-598,298	800,000	-0,020	0,044
-597,284	-200,000	-0,008	-0,144
-596,269	800,000	0,042	-0,124
-595,255	-91,458	-0,053	-0,011
-594,240	-200,000	-0,000	0,039
-593,225	-68,917	-0,017	-0,005
-592,211	-200,000	0,005	-0,152
-591,196	304,329	-0,057	0,077
-590,182	800,000	0,031	0,071
-589,167	56,799	0,076	0,054
-588,152	213,251	-0,059	-0,069
-587,138	163,163	-0,061	0,063
-586,123	-33,466	-0,133	-0,054
-585,109	-200,000	0,004	-0,126
-584,094	190,129	-0,042	-0,046
-583,079	-200,000	-0,006	0,023
-582,065	-170,978	-0,077	0,002
-581,050	800,000	0,053	0,125
-580,036	574,762	-0,065	-0,116
-579,021	539,803	0,053	-0,092
-578,006	800,000	-0,030	0,079
-576,992	-102,750	0,028	0,005
-575,977	-164,967	-0,126	0,004
-574,963	800,000	-0,061	-0,149
-573,948	88,950	-0,046	-0,038
-572,934	-200,000	0,018	-0,068
-571,919	-69,635	0,054	0,015
-570,904	207,142	-0,071	-0,081
-569,890	-102,129	-0,028	-0,005
-568,875	-99,421	0,074	0,014
-567,861	800,000	-0,041	-0,085
-566,846	118,777	0,135	-0,123
-565,831	42,162	0,110	-0,073
-564,817	711,683	0,044	-0,086
-563,802	800,000	-0,057	-0,158
-562,788	-200,000	-0,029	-0,117
-561,773	-26,257	-0,012	-0,005
-560,758	-200,000	-0,007	-0,024
-559,744	800,000	-0,016	0,042
-558,729	122,679	-0,040	-0,037
-557,715	-200,000	0,007	-0,027
-556,700	-11,090	-0,194	-0,093
-555,685	-200,000	-0,006	-0,103
-554,671	-109,787	0,089	-0,014
-553,656	-87,817	0,023	-0,005
-552,642	800,000	-0,015	-0,044
-551,627	-200,000	-0,038	-0,163
-550,612	37,173	-0,028	-0,018
-549,598	-15,089	-0,127	0,059
-548,583	-200,000	0,001	-0,043
-547,569	-200,000	0,008	0,112
-546,554	-73,397	-0,088	-0,023
-545,539	-83,786	0,137	0,032
-544,525	-200,000	-0,010	-0,072
-543,510	-200,000	-0,003	-0,103
-542,496	-102,852	-0,044	0,008
-541,481	800,000	-0,026	0,066
-540,466	-200,000	-0,016	0,108
-539,452	111,196	0,072	0,064
-538,437	109,983	0,075	0,066
-537,423	252,515	0,070	0,087
-536,408	-26,653	-0,115	0,049
-535,393	514,166	0,093	0,159
-534,379	-27,710	-0,050	-0,021
-533,364	57,075	-0,053	-0,038
-532,350	16,710	0,077	0,044
-531,335	-91,211	-0,111	0,023
-530,321	-90,206	0,061	0,013
-529,306	-33,160	-0,095	0,038
-528,291	529,742	-0,024	-0,042
-527,277	359,742	-0,020	0,030
-526,262	800,000	0,049	0,110
-525,248	800,000	0,026	-0,077
-524,233	-121,928	-0,010	-0,001
-523,218	216,106	-0,073	0,085
-522,204	-74,702	0,019	0,005
-521,189	649,428	-0,055	-0,103
-520,175	-11,256	-0,032	0,015
-519,160	-131,267	-0,199	-0,019
-518,145	-68,976	0,097	0,027
-517,131	800,000	-0,002	-0,006
-516,116	314,531	-0,022	0,030
-515,102	-125,035	0,034	0,004
-514,087	299,290	0,015	-0,020
-513,072	-200,000	0,010	-0,051
-512,058	42,048	0,150	0,099
-511,043	-200,000	-0,017	-0,086
-510,029	-200,000	-0,019	-0,079
-509,014	-138,006	-0,018	-0,001
-507,999	-67,788	-0,101	0,029
-506,985	185,902	-0,104	-0,113
-505,970	-73,122	0,068	-0,018
-504,956	95,636	-0,036	-0,030
-503,941	-200,000	0,020	0,092
-502,926	-114,276	0,162	0,023
-501,912	461,830	0,023	-0,038
-500,897	486,911	0,068	-0,114
-499,883	800,000	0,065	-0,166
-498,868	-200,000	-0,005	-0,112
-497,853	195,991	0,096	0,107
-496,839	800,000	0,043	-0,118
-495,824	-200,000	-0,056	0,206
-494,810	46,125	0,064	-0,043
-493,795	-200,000	0,028	0,146
-492,781	-111,234	-0,050	-0,007
-491,766	202,752	-0,064	-0,073
-490,751	800,000	0,046	0,112
-489,737	-30,116	0,083	-0,034
-488,722	425,413	-0,038	0,059
-487,708	-50,057	0,083	0,029
-486,693	349,178	-0,054	0,079
-485,678	800,000	-0,035	-0,078
-484,664	226,753	-0,063	-0,075
-483,649	-75,602	-0,032	-0,008
-482,635	-154,971	-0,104	0,005
-481,620	-170,621	0,076	-0,002
-480,605	800,000	0,061	0,130
-479,591	-200,000	0,030	0,155
-478,576	41,367	-0,145	0,095
-477,562	119,587	-0,041	0,037
-476,547	-200,000	0,000	-0,076
-475,532	123,565	0,047	-0,043
-474,518	481,345	-0,073	0,121
-473,503	-9,210	0,037	0,018
-472,489	-102,399	0,210	-0,036
-471,474	83,678	-0,137	-0,109
-470,459	-81,197	0,051	-0,012
-469,445	-200,000	-0,007	-0,083
-468,430	-133,524	-0,010	-0,001
-467,416	-200,000	0,025	0,090
-466,401	90,403	-0,087	0,071
-465,386	651,277	-0,024	0,045
-464,372	-200,000	0,010	-0,066
-463,357	-93,940	0,126	0,025
-462,343	800,000	-0,040	-0,088
-461,328	800,000	0,042	0,106
-460,313	254,889	0,056	0,070
-459,299	-20,429	0,112	-0,050
-458,284	599,498	0,045	0,081
-457,270	800,000	-0,029	0,080
-456,255	-102,046	-0,095	-0,016
-455,241	-25,989	0,061	0,026
-454,226	-114,919	-0,067	-0,009
-453,211	-37,317	0,044	-0,017
-452,197	-200,000	-0,029	0,096
-451,182	-200,000	-0,035	0,120
-450,168	-179,700	-0,137	-0,002
-449,153	18,519	-0,114	0,067
-448,138	31,510	-0,078	-0,049
-447,124	177,765	-0,033	0,035
-446,109	-77,816	-0,057	0,014
-445,095	-200,000	0,014	-0,155
-444,080	-132,777	0,016	0,001
-443,065	-39,068	-0,106	-0,041
-442,051	23,872	0,062	0,037
-441,036	39,173	-0,096	0,062
-440,022	154,978	-0,061	-0,061
-439,007	6,044	0,039	0,021
-437,992	-62,267	0,139	0,042
-436,978	800,000	-0,057	0,128
-435,963	79,990	-0,056	-0,044
-434,949	115,229	0,095	-0,085
-433,934	769,296	0,076	-0,152
-432,919	-200,000	0,022	0,169
-431,905	168,931	-0,042	0,044
-430,890	30,556	0,045	-0,028
-429,876	32,037	-0,115	0,072
-428,861	-173,280	-0,102	0,002
-427,846	47,576	0,011	0,007
-426,832	-82,225	-0,063	-0,015
-425,817	575,206	-0,014	0,025
-424,803	-200,000	-0,004	0,080
-423,788	800,000	0,066	-0,141
-422,773	265,995	-0,036	-0,046
-421,759	37,418	0,118	0,076
-420,744	5,038	-0,087	0,047
-419,730	50,136	-0,132	0,091
-418,715	-110,899	0,046	-0,007
-417,701	141,912	0,025	-0,024
-416,686	-200,000	0,030	0,155
-415,671	28,767	0,035	0,021
-414,657	-12,604	-0,126	0,060
-413,642	257,358	-0,118	-0,148
-412,628	-69,008	-0,119	-0,033
-411,613	-200,000	0,001	-0,022
-410,598	151,532	-0,079	-0,078
-409,584	10,982	-0,115	0,064
-408,569	-200,000	0,002	-0,082
-407,555	-82,198	0,071	-0,017
-406,540	-200,000	0,016	-0,086
-405,525	471,585	-0,013	-0,021
-404,511	495,357	-0,036	-0,060
-403,496	-101,776	-0,083	-0,014
-402,482	-131,662	0,093	0,009
-401,467	800,000	-0,017	0,042
-400,452	-200,000	0,006	0,083
-399,438	539,603	0,037	0,064
-398,423	119,070	-0,111	-0,100
-397,409	272,819	-0,055	0,070
-396,394	265,213	-0,035	-0,044
-395,379	-34,872	-0,081	-0,032
-394,365	-115,883	0,207	0,028
-393,350	-200,000	-0,006	0,043
-392,336	-200,000	-0,010	-0,048
-391,321	628,823	0,073	-0,135
-390,306	147,987	0,047	0,046
-389,292	-98,362	-0,092	-0,017
-388,277	-156,561	0,060	0,003
-387,263	-200,000	0,009	0,127
-386,248	69,821	-0,031	0,023
-385,233	386,591	0,070	0,106
-384,219	800,000	0,014	-0,031
-383,204	-59,800	-0,070	-0,022
-382,190	141,190	-0,036	-0,034
-381,175	-74,412	-0,144	-0,038
-380,160	-200,000	-0,006	0,189
-379,146	187,015	0,048	0,052
-378,131	-74,307	-0,020	-0,005
-377,117	266,724	-0,064	-0,081
-376,102	800,000	-0,040	-0,081
-375,088	84,260	-0,024	-0,019
-374,073	-148,300	0,179	-0,011
-373,058	364,479	0,047	-0,069
-372,044	-115,215	0,111	-0,015
-371,029	57,351	0,160	-0,113
-370,015	-129,732	-0,072	-0,007
-369,000	343,303	-0,066	0,094
-367,985	800,000	-0,034	0,094
-366,971	800,000	-0,050	0,101
-365,956	529,940	0,108	0,186
-364,942	773,429	0,016	-0,032
-363,927	-91,129	-0,088	0,018
-362,912	263,269	-0,070	-0,088
-361,898	35,415	-0,169	-0,108
-360,883	800,000	-0,029	-0,085
-359,869	100,904	-0,098	-0,083
-358,854	800,000	0,038	0,103
-357,839	-200,000	0,021	0,096
-356,825	328,252	0,037	0,051
-355,810	25,503	0,112	0,068
-354,796	532,792	-0,041	-0,071
-353,781	349,808	0,112	-0,161
-352,766	26,187	0,098	-0,059
-351,752	-21,046	0,069	0,031
-350,737	-67,862	-0,056	-0,016
-349,723	537,179	-0,002	-0,004
-348,708	-66,356	-0,030	-0,008
-347,693	685,361	0,026	0,050
-346,679	76,090	0,044	0,034
-345,664	73,939	-0,061	-0,046
-344,650	82,188	0,102	-0,081
-343,635	-154,042	0,179	-0,009
-342,620	180,175	-0,027	0,029
-341,606	68,802	0,062	-0,046
-340,591	-55,110	0,116	0,038
-339,577	-99,530	-0,148	-0,027
-338,562	-95,175	0,033	0,006
-337,548	63,380	0,056	0,041
-336,533	-101,268	0,080	-0,014
-335,518	346,625	-0,029	0,041
-334,504	-88,781	0,031	0,007
-333,489	82,686	-0,055	-0,044
-332,475	119,861	-0,062	0,056
-331,460	75,880	0,105	-0,081
-330,445	-200,000	-0,001	-0,020
-329,431	-200,000	0,003	0,046
-328,416	111,624	0,138	-0,121
-327,402	-133,652	-0,080	0,007
-326,387	295,414	-0,044	0,059
-325,372	-35,810	-0,086	-0,034
-324,358	-200,000	-0,019	-0,071
-323,343	-200,000	-0,007	0,037
-322,329	3,532	0,078	-0,041
-321,314	190,858	0,034	0,037
-320,299	-200,000	0,000	0,162
-319,285	-141,483	-0,074	-0,005
-318,270	-100,677	-0,042	0,007
-317,256	203,662	0,149	-0,168
-316,241	-156,069	0,071	-0,003
-315,226	-200,000	-0,016	-0,104
-314,212	-110,453	0,129	-0,019
-313,197	800,000	0,019	0,052
-312,183	-63,570	0,057	-0,017
-311,168	103,864	-0,130	0,111
-310,153	0,681	-0,090	0,047
-309,139	247,718	-0,030	-0,037
-308,124	-137,032	-0,036	-0,003
-307,110	611,809	0,013	0,024
-306,095	-200,000	-0,002	0,057
-305,080	-106,962	0,109	0,017
-304,066	-78,362	0,071	-0,018
-303,051	-200,000	0,017	-0,071
-302,037	-21,548	0,104	-0,046
-301,022	152,380	-0,027	0,027
-300,008	-200,000	0,015	0,091
-298,993	-200,000	0,020	0,108
-297,978	800,000	-0,066	0,149
-296,964	-19,290	-0,114	0,051
-295,949	-69,725	0,083	-0,023
-294,935	96,533	-0,060	0,050
-293,920	-200,000	-0,003	-0,011
-292,905	-200,000	-0,001	0,045
-291,891	154,331	0,071	-0,071
-290,876	139,583	-0,025	-0,024
-289,862	551,828	-0,071	0,124
-288,847	-134,583	0,044	-0,004
-287,832	274,892	0,022	0,028
-286,818	101,354	0,115	0,097
-285,803	-183,507	0,066	0,001
-284,789	72,988	0,136	0,103
-283,774	-200,000	0,001	0,019
-282,759	-42,926	0,046	-0,017
-281,745	255,176	-0,063	-0,078
-280,730	190,484	-0,036	0,039
-279,716	656,705	-0,076	0,142
-278,701	177,716	0,042	0,044
-277,686	-143,363	0,092	0,006
-276,672	96,011	0,102	-0,084
-275,657	150,755	-0,075	-0,074
-274,643	266,942	-0,097	-0,123
-273,628	306,176	-0,043	0,058
-272,613	-107,929	-0,092	0,014
-271,599	352,764	0,057	0,082
-270,584	230,823	-0,040	0,048
-269,570	-200,000	-0,009	0,103
-268,555	111,043	0,027	0,023
-267,540	-52,939	0,171	0,057
-266,526	190,724	-0,116	-0,126
-265,511	70,472	0,115	0,086
-264,497	87,618	0,136	0,109
-263,482	61,756	-0,076	-0,055
-262,467	-200,000	0,012	0,125
-261,453	28,122	-0,051	0,031
-260,438	-34,190	-0,104	-0,041
-259,424	-200,000	0,000	0,044
-258,409	380,139	0,071	-0,106
-257,395	800,000	0,026	0,064
-256,380	305,723	-0,102	0,138
-255,365	-200,000	-0,012	0,049
-254,351	-200,000	-0,000	-0,032
-253,336	-34,058	-0,119	0,047
-252,322	-35,373	-0,083	-0,032
-251,307	41,213	-0,093	0,061
-250,292	66,485	-0,026	-0,019
-249,278	-122,172	-0,012	-0,001
-248,263	-200,000	-0,016	0,059
-247,249	111,185	0,192	-0,167
-246,234	632,160	-0,029	-0,053
-245,219	-200,000	-0,023	-0,100
-244,205	626,613	-0,044	-0,082
-243,190	-109,477	0,028	-0,004
-242,176	-80,907	-0,129	-0,031
-241,161	148,690	0,034	-0,033
-240,146	-143,539	-0,020	0,001
-239,132	-30,507	-0,136	0,055
-238,117	-68,900	-0,032	0,009
-237,103	88,522	-0,023	0,018
-236,088	56,787	0,017	0,012
-235,073	800,000	0,043	0,124
-234,059	12,587	-0,013	0,008
-233,044	402,222	0,034	0,052
-232,030	-133,563	-0,102	-0,009
-231,015	48,787	0,006	0,004
-230,000	-120,067	0,018	0,002
-228,986	167,022	-0,023	0,023
-227,971	-79,914	0,059	0,014
-226,957	-65,009	-0,082	-0,024
-225,942	-200,000	0,005	0,033
-224,927	-200,000	-0,001	-0,010
-223,913	-121,942	0,062	-0,007
-222,898	390,185	0,114	0,171
-221,884	472,761	0,014	0,023
-220,869	693,787	0,046	-0,087
-219,855	30,588	0,053	0,033
-218,840	-200,000	0,006	0,069
-217,825	800,000	-0,055	-0,117
-216,811	3,870	0,101	-0,053
-215,796	108,922	0,064	0,055
-214,782	-200,000	-0,036	-0,152
-213,767	483,397	0,018	0,030
-212,752	-200,000	-0,002	-0,114
-211,738	206,923	0,065	0,073
-210,723	-200,000	-0,057	0,204
-209,709	-200,000	-0,006	-0,099
-208,694	-135,742	-0,050	0,004
-207,679	-133,074	0,047	-0,004
-206,665	-45,388	0,102	-0,036
-205,650	-200,000	-0,007	-0,041
-204,636	79,892	-0,089	-0,069
-203,621	-22,766	0,102	-0,044
-202,606	-73,681	-0,117	-0,031
-201,592	91,598	0,067	0,055
-200,577	-37,851	-0,066	0,025
-199,563	34,966	0,041	0,026
-198,548	198,558	0,053	0,058
-197,533	592,400	0,088	0,158
-196,519	101,813	-0,060	0,051
-195,504	-120,077	0,035	-0,004
-194,490	-111,521	0,011	0,002
-193,475	-200,000	-0,013	-0,101
-192,460	262,519	0,054	-0,068
-191,446	45,391	0,077	0,051
-190,431	1,314	0,071	0,037
-189,417	8,921	0,017	0,009
-188,402	81,965	-0,055	-0,043
-187,387	488,481	-0,075	-0,123
-186,373	25,943	-0,068	0,041
-185,358	-200,000	0,001	-0,070
-184,344	800,000	0,032	0,090
-183,329	87,213	0,011	-0,009
-182,315	800,000	-0,022	0,057
-181,300	127,934	-0,082	-0,075
-180,285	-129,067	0,106	0,011
-179,271	-200,000	-0,016	0,055
-178,256	698,245	0,043	0,082
-177,242	-200,000	-0,012	0,177
-176,227	-200,000	0,019	0,162
-175,212	380,011	-0,049	0,072
-174,198	75,468	-0,090	0,068
-173,183	-103,034	-0,114	-0,019
-172,169	462,000	0,047	-0,075
-171,154	117,611	0,072	-0,064
-170,139	-57,856	0,179	-0,056
-169,125	239,092	-0,034	0,041
-168,110	-115,079	0,157	-0,021
-167,096	-200,000	0,001	0,019
-166,081	-57,649	0,075	0,024
-165,066	-85,507	-0,213	-0,047
-164,052	800,000	0,095	0,269
-163,037	532,659	-0,038	-0,065
-162,023	-38,809	-0,065	-0,024
-161,008	-35,155	-0,077	-0,030
-159,993	172,462	0,039	0,041
-158,979	-120,118	0,117	-0,014
-157,964	370,782	0,065	-0,095
-156,950	-83,713	-0,153	-0,035
-155,935	30,920	0,008	0,005
-154,920	8,511	0,088	0,047
-153,906	667,957	-0,026	0,049
-152,891	-22,067	0,190	0,083
-151,877	800,000	-0,033	-0,102
-150,862	-10,296	-0,131	0,062
-149,847	-200,000	0,026	-0,138
-148,833	176,940	0,055	-0,057
-147,818	542,687	0,046	0,080
-146,804	800,000	-0,021	-0,061
-145,789	696,819	-0,039	-0,073
-144,775	800,000	0,040	0,096
-143,760	-129,691	-0,091	0,009
-142,745	75,174	0,060	-0,046
-141,731	-70,137	-0,036	-0,010
-140,716	-91,008	0,065	0,013
-139,702	162,801	0,053	0,053
-138,687	-200,000	0,011	0,147
-137,672	-44,490	-0,135	0,048
-136,658	118,476	-0,020	0,018
-135,643	278,204	-0,032	-0,041
-134,629	-200,000	0,012	-0,050
-133,614	284,430	0,021	0,028
-132,599	-200,000	0,032	0,133
-131,585	-118,172	0,028	-0,004
-130,570	-11,001	-0,102	-0,049
-129,556	-28,168	-0,085	-0,035
-128,541	-200,000	0,004	0,048
-127,526	-54,385	0,121	0,039
-126,512	-200,000	-0,009	-0,077
-125,497	80,592	0,046	-0,035
-124,483	106,210	0,028	-0,024
-123,468	-54,762	-0,091	-0,029
-122,453	183,460	0,037	0,039
-121,439	-74,206	0,125	-0,032
-120,424	-120,845	0,118	0,014
-119,410	138,822	-0,037	0,035
-118,395	67,867	0,016	0,012
-117,380	-8,565	0,112	0,054
-116,366	-200,000	-0,004	-0,015
-115,351	-60,864	-0,109	0,033
-114,337	249,476	-0,058	0,071
-113,322	608,397	0,028	-0,050
-112,307	80,954	-0,099	0,077
-111,293	-78,561	-0,062	0,015
-110,278	-41,161	0,091	-0,034
-109,264	-174,518	-0,099	-0,002
-108,249	252,971	-0,041	0,050
-107,234	-200,000	-0,012	0,074
-106,220	8,924	0,045	-0,025
-105,205	-115,483	-0,102	0,014
-104,191	-200,000	0,008	0,165
-103,176	178,615	0,080	0,085
-102,162	76,399	0,096	0,073
-101,147	129,080	-0,113	0,104
-100,132	636,839	-0,047	-0,086
-99,118	295,668	-0,073	-0,096
-98,103	-200,000	0,022	0,146
-97,089	-97,098	0,105	-0,019
-96,074	-200,000	-0,023	0,156
-95,059	38,771	-0,104	0,067
-94,045	261,616	0,078	0,098
-93,030	-200,000	0,023	-0,126
-92,016	800,000	-0,023	-0,066
-91,001	-142,370	0,103	0,007
-89,986	800,000	0,046	0,136
-88,972	-200,000	-0,010	0,047
-87,957	31,765	0,116	0,072
-86,943	65,157	-0,087	-0,063
-85,928	800,000	-0,021	-0,049
-84,913	-200,000	0,024	0,120
-83,899	-22,711	-0,042	0,018
-82,884	-39,473	0,175	0,065
-81,870	-110,755	-0,054	-0,008
-80,855	800,000	-0,011	-0,031
-79,840	284,080	-0,055	0,071
-78,826	-200,000	-0,012	0,055
-77,811	800,000	-0,029	-0,083
-76,797	701,588	-0,080	-0,153
-75,782	-200,000	0,000	-0,130
-74,767	800,000	0,045	0,133
-73,753	610,596	-0,053	-0,096
-72,738	-161,698	0,158	-0,006
-71,724	-88,297	-0,062	0,013
-70,709	-200,000	-0,006	-0,140
-69,694	31,503	-0,101	-0,062
-68,680	97,024	0,057	0,047
-67,665	218,436	0,037	0,043
-66,651	800,000	0,023	-0,068
-65,636	2,411	0,061	0,031
-64,622	-200,000	0,027	0,140
-63,607	-79,313	-0,082	-0,020
-62,592	67,827	0,162	-0,119
-61,578	-17,586	-0,073	0,033
-60,563	-158,772	0,100	-0,004
-59,549	-123,221	0,060	-0,007
-58,534	86,501	-2,607	-2,064
-57,519	351,476	0,281	-0,400
-56,505	-200,000	-1,655	-5,499
-55,490	437,554	1,165	1,831
-54,476	800,000	5,347	11,355
-53,461	-200,000	22,025	347,688
-52,446	800,000	760,915	2315,842
-51,432	520,231	1650,442	2789,763
-50,417	102,690	1614,652	1356,609
-49,403	71,812	1270,682	947,897
-48,388	24,884	1020,504	606,130
-47,373	19,263	987,106	567,694
-46,359	13,247	974,305	540,573
-45,344	9,131	971,112	525,260
-44,330	9,635	968,935	525,716
-43,315	8,629	967,116	521,412
-42,300	8,557	965,984	520,544
-41,286	8,568	964,970	520,012
-40,271	8,547	964,047	519,426
-39,257	8,560	962,978	518,872
-38,242	8,562	962,145	518,409
-37,227	8,540	961,643	518,046
-36,213	8,488	960,738	517,369
-35,198	8,530	959,586	516,866
-34,184	8,557	958,981	516,608
-33,169	8,492	958,088	515,894
-32,154	8,572	957,241	515,678
-31,140	8,561	956,449	515,195
-30,125	8,592	955,390	514,704
-29,111	8,562	954,757	514,245
-28,096	8,593	953,910	513,869
-27,082	8,513	953,323	513,274
-26,067	8,493	952,674	512,841
-25,052	8,522	951,882	512,488
-24,038	8,480	951,169	511,946
-23,023	8,494	950,650	511,693
-22,009	8,550	949,775	511,382
-20,994	8,535	949,432	511,127
-19,979	8,528	948,877	510,786
-18,965	8,624	947,938	510,570
-17,950	8,493	947,582	509,935
-16,936	8,479	946,817	509,461
-15,921	8,500	945,942	509,035
-14,906	8,408	945,418	508,438
-13,892	8,378	944,776	507,977
-12,877	8,372	944,085	507,567
-11,863	8,351	943,405	507,115
-10,848	8,433	942,809	507,036
-9,833	8,514	942,421	507,066
-8,819	8,455	941,914	506,584
-7,804	8,428	941,095	506,037
-6,790	8,418	940,474	505,650
-5,775	8,466	940,122	505,596
-4,760	8,448	939,436	505,147
-3,746	8,404	938,688	504,585
-2,731	8,378	937,885	504,054
-1,717	8,283	937,311	503,423
-0,702	8,306	936,765	503,182
0,313	8,158	935,858	502,987
1,327	11,504	933,961	512,500
2,342	20,091	782,161	451,777
3,356	15,218	448,606	251,746
4,371	-11,270	312,328	147,105
5,386	-15,093	294,712	134,931
6,400	-17,201	288,575	130,022
7,415	-17,123	285,995	128,924
8,429	-17,964	284,404	127,374
9,444	-17,772	283,211	127,015
10,459	-17,628	282,738	126,932
11,473	-17,782	282,087	126,479
12,488	-17,730	281,603	126,301
13,502	-17,875	281,114	125,930
14,517	-17,544	280,641	126,026
15,531	-17,579	280,255	125,808
16,546	-17,632	280,098	125,675
17,561	-17,464	279,336	125,483
18,575	-17,464	279,123	125,376
19,590	-17,495	278,750	125,168
20,604	-17,420	278,484	125,109
21,619	-17,440	278,098	124,906
22,634	-17,528	277,971	124,754
23,648	-17,440	277,560	124,641
24,663	-17,596	277,385	124,404
25,677	-17,421	276,915	124,348
26,692	-17,537	276,674	124,118
27,707	-17,452	276,428	124,078
28,721	-17,590	276,257	123,859
29,736	-17,548	275,835	123,699
30,750	-17,258	275,556	123,836
31,765	-17,538	275,546	123,556
32,780	-17,412	275,199	123,508
33,794	-17,453	274,880	123,316
34,809	-17,376	274,541	123,225
35,823	-17,444	274,210	123,001
36,838	-17,385	274,163	123,025
37,853	-17,351	273,709	122,842
38,867	-17,420	273,684	122,755
39,882	-17,308	273,310	122,681
40,896	-17,366	273,093	122,519
41,911	-17,328	272,749	122,389
42,926	-17,423	272,672	122,255
43,940	-17,383	272,285	122,107
44,955	-17,397	272,244	122,065
45,969	-17,408	271,937	121,906
46,984	-17,463	271,811	121,787
47,999	-17,309	271,596	121,824
49,013	-17,277	271,248	121,687
50,028	-17,236	271,088	121,642
51,042	-17,347	271,040	121,507
52,057	-17,174	270,595	121,457
53,071	-17,291	270,490	121,291
54,086	-17,285	270,155	121,135
55,101	-17,358	269,950	120,965
56,115	-17,223	269,649	120,944
57,130	-17,362	269,398	120,692
58,144	-17,381	269,061	120,513
59,159	-17,343	268,842	120,439
60,174	-17,439	268,717	120,284
61,188	-17,525	268,534	120,113
62,203	-17,359	268,263	120,133
63,217	-17,523	268,019	119,862
64,232	-17,331	267,787	119,924
65,247	-17,388	267,608	119,781
66,261	-17,440	267,466	119,659
67,276	-17,287	267,071	119,612
68,290	-17,378	266,822	119,406
69,305	-17,519	266,866	119,287
70,320	-17,320	266,462	119,277
71,334	-17,405	266,232	119,085
72,349	-17,374	266,078	119,034
73,363	-17,472	265,733	118,781
74,378	-17,280	265,442	118,814
75,393	-17,523	265,450	118,587
76,407	-17,440	265,189	118,534
77,422	-17,302	264,857	118,501
78,436	-17,397	264,663	118,318
79,451	-17,281	264,446	118,315
80,466	-17,421	264,207	118,071
81,480	-17,431	264,160	118,030
82,495	-17,534	264,004	117,857
83,509	-17,326	263,649	117,875
84,524	-17,357	263,524	117,781
85,539	-17,349	263,300	117,678
86,553	-17,350	263,065	117,561
87,568	-17,453	262,748	117,317
88,582	-17,358	262,492	117,277
89,597	-17,311	262,319	117,232
90,611	-17,333	262,119	117,112
91,626	-17,454	262,004	116,942
92,641	-17,318	261,717	116,925
93,655	-17,510	261,593	116,688
94,670	-17,179	261,358	116,867
95,684	-17,379	261,130	116,577
96,699	-17,357	261,027	116,540
97,714	-17,408	260,748	116,360
98,728	-17,246	260,595	116,425
99,743	-17,313	260,312	116,229
100,757	-17,402	260,109	116,049
101,772	-17,290	259,753	115,979
102,787	-17,377	259,737	115,885
103,801	-17,136	259,373	115,925
104,816	-17,314	259,347	115,745
105,830	-17,113	258,958	115,739
106,845	-17,408	258,850	115,420
107,860	-17,230	258,632	115,469
108,874	-17,261	258,406	115,331
109,889	-17,458	258,417	115,152
110,903	-17,349	258,092	115,092
111,918	-17,406	257,942	114,965
112,933	-17,354	257,836	114,954
113,947	-17,201	257,410	114,888
114,962	-17,363	257,225	114,653
115,976	-17,363	257,024	114,553
116,991	-17,480	256,965	114,415
118,006	-17,424	256,766	114,364
119,020	-17,295	256,493	114,345
120,035	-17,409	256,411	114,199
121,049	-17,452	256,234	114,073
122,064	-17,332	256,031	114,077
123,079	-17,402	255,663	113,841
124,093	-17,270	255,652	113,941
125,108	-17,329	255,406	113,770
126,122	-17,350	255,163	113,634
127,137	-17,218	255,081	113,701
128,151	-17,135	254,826	113,650
129,166	-17,321	254,663	113,406
130,181	-17,185	254,359	113,378
131,195	-17,101	254,254	113,393
132,210	-17,448	253,932	112,940
133,224	-17,286	253,684	112,960
134,239	-17,318	253,525	112,851
135,254	-17,427	253,289	112,642
136,268	-17,309	253,247	112,715
137,283	-17,313	252,917	112,555
138,297	-17,350	252,774	112,449
139,312	-17,443	252,654	112,306
140,327	-17,344	252,478	112,303
141,341	-17,161	252,118	112,289
142,356	-17,389	252,024	112,042
143,370	-17,312	251,698	111,953
144,385	-17,272	251,602	111,935
145,400	-17,139	251,423	111,958
146,414	-17,300	251,245	111,731
147,429	-17,466	251,025	111,483
148,443	-17,292	250,749	111,498
149,458	-17,232	250,718	111,526
150,473	-17,412	250,462	111,249
151,487	-17,177	250,210	111,326
152,502	-17,388	250,127	111,100
153,516	-17,268	249,875	111,081
154,531	-17,249	249,757	111,034
155,546	-17,294	249,666	110,946
156,560	-17,380	249,397	110,744
157,575	-17,120	248,948	110,753
158,589	-17,267	248,886	110,592
159,604	-17,282	248,790	110,527
160,619	-17,169	248,533	110,498
161,633	-17,238	248,273	110,315
162,648	-17,112	248,211	110,383
163,662	-17,398	247,999	110,039
164,677	-17,185	248,038	110,225
165,692	-17,140	247,719	110,111
166,706	-17,300	247,533	109,885
167,721	-17,419	247,500	109,761
168,735	-17,322	247,327	109,756
169,750	-17,204	247,019	109,708
170,764	-17,362	246,926	109,524
171,779	-17,329	246,839	109,503
172,794	-17,165	246,650	109,547
173,808	-17,328	246,518	109,342
174,823	-17,225	246,178	109,268
175,837	-17,229	246,202	109,265
176,852	-17,366	245,927	109,020
177,867	-17,174	245,717	109,076
178,881	-17,232	245,595	108,964
179,896	-17,146	245,379	108,930
180,910	-17,230	245,136	108,743
181,925	-17,189	244,983	108,699
182,940	-17,258	244,702	108,508
183,954	-17,242	244,663	108,494
184,969	-17,236	244,539	108,435
185,983	-17,198	244,316	108,357
186,998	-17,228	244,257	108,296
188,013	-17,233	243,988	108,164
189,027	-17,446	243,823	107,905
190,042	-17,428	243,551	107,790
191,056	-17,429	243,427	107,725
192,071	-17,406	243,301	107,678
193,086	-17,242	242,998	107,669
194,100	-17,238	242,775	107,564
195,115	-17,292	242,697	107,476
196,129	-17,181	242,451	107,448
197,144	-17,514	242,339	107,117
198,159	-17,478	242,049	107,008
199,173	-17,300	241,830	107,047
200,188	-17,406	241,808	106,942
201,202	-17,319	241,635	106,927
202,217	-17,237	241,517	106,931
203,232	-17,165	241,219	106,848
204,246	-17,324	240,999	106,612
205,261	-17,756	240,841	106,182
206,275	-16,323	241,060	107,434
207,290	-11,513	242,889	112,177
208,304	-4,931	244,969	118,550
209,319	-2,236	245,788	121,158
210,334	-1,131	245,841	122,085
211,348	-0,388	246,197	122,862
212,363	0,611	246,021	123,587
213,377	0,864	245,992	123,769
214,392	0,872	246,087	123,812
215,407	1,187	245,975	124,004
216,421	1,626	245,783	124,258
217,436	1,554	245,642	124,116
218,450	1,495	245,484	123,976
219,465	1,478	245,363	123,891
220,480	1,691	245,130	123,936
221,494	1,430	245,081	123,687
222,509	1,143	244,616	123,206
223,523	0,785	244,428	122,808
224,538	0,698	244,257	122,640
225,553	0,658	244,041	122,488
226,567	0,726	243,840	122,432
227,582	0,657	243,797	122,343
228,596	0,558	243,664	122,185
229,611	0,642	243,394	122,107
230,626	0,829	243,203	122,152
231,640	0,646	243,016	121,898
232,655	0,532	242,919	121,747
233,669	0,532	242,741	121,646
234,684	0,632	242,564	121,628
235,699	0,692	242,524	121,645
236,713	0,849	242,446	121,723
237,728	0,837	242,122	121,539
238,742	0,526	242,007	121,220
239,757	0,617	241,943	121,250
240,772	0,712	241,652	121,171
241,786	0,524	241,586	120,975
242,801	0,590	241,457	120,952
243,815	0,712	241,237	120,930
244,830	0,797	241,047	120,892
245,844	0,576	240,971	120,665
246,859	0,646	240,843	120,647
247,874	0,752	240,409	120,504
248,888	0,877	240,350	120,564
249,903	0,669	240,194	120,308
250,917	0,884	240,092	120,418
251,932	0,990	240,018	120,455
252,947	0,659	239,906	120,124
253,961	0,690	239,682	120,025
254,976	0,995	239,393	120,113
255,990	0,785	239,320	119,899
257,005	0,606	239,241	119,706
258,020	0,631	239,027	119,608
259,034	0,926	238,871	119,754
260,049	0,732	238,761	119,534
261,063	0,685	238,630	119,420
262,078	0,499	238,469	119,182
263,093	0,747	238,154	119,210
264,107	0,709	238,022	119,103
265,122	0,677	237,958	119,036
266,136	0,860	237,828	119,104
267,151	0,798	237,707	118,984
268,166	0,675	237,494	118,769
269,180	0,618	237,243	118,589
270,195	0,513	237,185	118,466
271,209	0,875	237,071	118,684
272,224	0,500	236,911	118,298
273,239	0,599	236,809	118,314
274,253	0,651	236,640	118,260
275,268	0,745	236,398	118,203
276,282	0,550	236,254	117,967
277,297	0,704	235,994	117,947
278,312	0,798	235,936	117,982
279,326	0,784	235,840	117,912
280,341	0,714	235,604	117,728
281,355	0,647	235,461	117,595
282,370	0,840	235,235	117,623
283,384	0,882	235,203	117,628
284,399	0,754	235,079	117,455
285,414	0,660	234,925	117,295
286,428	0,844	234,769	117,351
287,443	0,804	234,613	117,230
288,457	0,581	234,566	117,023
289,472	0,864	234,294	117,097
290,487	0,750	234,175	116,938
291,501	0,763	233,972	116,837
292,516	0,797	233,775	116,755
293,530	0,858	233,739	116,773
294,545	1,093	233,453	116,802
295,560	0,814	233,382	116,541
296,574	0,673	233,271	116,365
297,589	0,930	233,001	116,419
298,603	0,941	232,999	116,416
299,618	0,629	232,894	116,111
300,633	0,723	232,900	116,178
301,647	1,007	232,534	116,203
302,662	1,076	232,388	116,173
303,676	0,838	232,320	115,946
304,691	0,839	232,265	115,909
305,706	1,085	231,933	115,922
306,720	1,066	231,694	115,778
307,735	0,950	231,764	115,713
308,749	1,085	231,574	115,711
309,764	1,187	231,224	115,604
310,779	0,977	231,141	115,392
311,793	0,862	231,067	115,256
312,808	0,977	230,829	115,215
313,822	0,871	230,809	115,114
314,837	0,857	230,646	115,012
315,852	1,043	230,464	115,052
316,866	1,270	230,318	115,143
317,881	0,943	230,201	114,825
318,895	0,831	230,182	114,719
319,910	1,133	229,778	114,738
320,925	1,126	229,703	114,685
321,939	0,757	229,637	114,361
322,954	1,005	229,489	114,465
323,968	0,982	229,298	114,342
324,983	1,140	229,165	114,386
325,997	1,219	229,011	114,359
327,012	0,925	228,844	114,042
328,027	0,932	228,639	113,935
329,041	0,962	228,572	113,915
330,056	1,186	228,362	113,969
331,070	1,045	228,311	113,827
332,085	1,121	228,095	113,766
333,100	0,905	227,909	113,501
334,114	0,914	227,881	113,483
335,129	0,928	227,691	113,389
336,143	0,971	227,571	113,352
337,158	1,168	227,380	113,395
338,173	1,116	227,051	113,181
339,187	1,355	226,986	113,319
340,202	1,064	226,951	113,072
341,216	1,043	226,793	112,968
342,231	1,030	226,680	112,892
343,246	1,018	226,499	112,782
344,260	1,349	226,380	112,961
345,275	1,157	226,437	112,836
346,289	1,377	226,068	112,806
347,304	1,172	225,967	112,592
348,319	1,137	225,693	112,420
349,333	1,211	225,722	112,480
350,348	1,139	225,545	112,328
351,362	1,037	225,435	112,187
352,377	0,994	225,442	112,148
353,392	1,033	225,215	112,054
354,406	1,289	224,919	112,087
355,421	191,924	1312,446	1378,414
356,435	153,708	1444,816	1378,282
