DTS Sentinel unit serial number:	SN410029Multiplexer serial number:	ORYXHardware model number:	OX2-SRSoftware version number:	ORYX F/W v4,00 Oryx Data Collector v3.7.2.0data status	okinstallation	B5 Nyhavnadifferential loss correction	single-endedforward channel	channel 2reverse channel	N/Adate	2023/12/14time	10:02:13forward acquisition time	300,00reverse acquisition time	0,00gamma	499,1914k internal	0,3161k external	0,3161temperature offset calibration	1,0000default loss term (dB/km)	0,3820temperature slope calibration	1,0000multiplexer offset coefficient	1,0000multiplexer slope coefficient	1,0000fibre end	0,00T internal ref (°C)	6,88T ext. ref 1 (°C)	-9,28T ext. ref 2 (°C)	-9,31length (m)	temperature (°C)	Stokes	anti-Stokes-744,400	-130,953	0,217	0,021
-743,385	-109,330	-0,450	-0,069
-742,371	-22,739	0,291	0,129
-741,356	56,690	-0,251	-0,180
-740,342	387,333	0,088	0,134
-739,327	-82,902	-0,422	-0,100
-738,312	273,169	0,111	0,145
-737,298	41,574	-0,210	-0,140
-736,283	-50,854	0,224	0,077
-735,269	-87,401	-0,394	-0,087
-734,254	63,527	0,129	0,095
-733,239	1,669	-0,569	-0,301
-732,225	-54,988	0,227	0,075
-731,210	-18,381	0,097	0,044
-730,196	146,688	-0,065	0,064
-729,181	-47,636	-0,022	-0,008
-728,167	800,000	-0,057	-0,131
-727,152	-77,102	-0,079	-0,020
-726,137	673,812	-0,030	-0,057
-725,123	-86,717	-0,117	-0,026
-724,108	540,971	-0,027	-0,048
-723,094	73,579	-0,084	-0,064
-722,079	-142,831	-0,169	0,012
-721,064	78,306	0,119	0,093
-720,050	65,107	-0,067	0,050
-719,035	144,308	-0,044	0,043
-718,021	-200,000	-0,015	-0,073
-717,006	-200,000	-0,030	-0,144
-715,991	66,876	-0,130	-0,097
-714,977	-200,000	0,026	-0,141
-713,962	297,750	-0,062	0,084
-712,948	-26,919	-0,102	-0,044
-711,933	-200,000	0,001	0,026
-710,918	70,579	-0,081	0,062
-709,904	143,872	-0,041	0,040
-708,889	-200,000	0,023	0,098
-707,875	118,654	0,038	0,034
-706,860	800,000	0,038	-0,087
-705,845	-125,058	-0,073	0,008
-704,831	58,071	0,033	0,024
-703,816	-125,754	-0,103	0,011
-702,802	154,812	-0,057	0,057
-701,787	42,955	0,039	-0,026
-700,772	-37,847	-0,036	0,014
-699,758	411,066	-0,081	-0,127
-698,743	-200,000	-0,003	-0,017
-697,729	-37,368	0,070	-0,027
-696,714	-78,742	0,075	0,019
-695,699	-200,000	-0,024	0,124
-694,685	-200,000	-0,026	-0,155
-693,670	-149,801	-0,058	0,003
-692,656	616,312	0,071	0,132
-691,641	-200,000	0,018	0,096
-690,627	244,517	-0,034	-0,042
-689,612	624,978	-0,054	-0,101
-688,597	412,026	0,042	-0,066
-687,583	-62,877	-0,152	-0,046
-686,568	-50,541	-0,106	0,037
-685,554	197,524	-0,083	0,093
-684,539	-31,493	-0,100	0,041
-683,524	-200,000	0,021	0,096
-682,510	-64,496	-0,068	0,020
-681,495	202,525	-0,096	-0,109
-680,481	27,319	-0,116	-0,071
-679,466	6,306	-0,171	-0,093
-678,451	297,887	-0,043	0,059
-677,437	11,008	-0,086	0,048
-676,422	22,868	0,126	-0,076
-675,408	11,706	0,097	-0,054
-674,393	574,893	-0,042	-0,075
-673,378	-200,000	-0,008	-0,072
-672,364	800,000	-0,100	-0,210
-671,349	274,083	0,114	0,149
-670,335	800,000	-0,014	0,038
-669,320	800,000	0,024	-0,058
-668,305	-66,941	0,052	-0,015
-667,291	-139,770	-0,131	0,010
-666,276	800,000	-0,045	-0,122
-665,262	94,447	-0,053	-0,044
-664,247	115,070	-0,049	-0,044
-663,232	-200,000	0,015	0,101
-662,218	-200,000	0,004	-0,086
-661,203	-151,340	-0,174	-0,009
-660,189	-200,000	0,015	-0,080
-659,174	281,434	-0,078	-0,103
-658,159	-200,000	-0,008	0,033
-657,145	18,498	-0,132	-0,077
-656,130	157,192	0,081	-0,083
-655,116	-52,406	-0,028	-0,009
-654,101	338,715	-0,038	-0,055
-653,086	800,000	-0,010	-0,023
-652,072	176,579	-0,036	-0,038
-651,057	376,174	0,069	-0,103
-650,043	-200,000	0,004	-0,061
-649,028	526,619	-0,045	-0,078
-648,014	-123,065	0,095	-0,011
-646,999	-200,000	-0,005	0,119
-645,984	800,000	-0,083	0,176
-644,970	1,629	-0,077	-0,040
-643,955	-200,000	0,014	-0,064
-642,941	196,653	0,031	0,034
-641,926	111,146	0,071	-0,063
-640,911	164,043	-0,136	0,141
-639,897	-88,010	-0,172	0,038
-638,882	800,000	0,050	0,106
-637,868	-32,160	-0,084	-0,034
-636,853	243,804	-0,067	0,082
-635,838	14,812	-0,112	-0,064
-634,824	-91,540	0,011	-0,002
-633,809	-200,000	0,002	0,125
-632,795	-36,011	0,072	0,028
-631,780	178,386	0,101	0,108
-630,765	65,456	0,050	0,037
-629,751	71,759	0,124	-0,094
-628,736	-148,500	-0,094	0,006
-627,722	-14,013	0,070	0,033
-626,707	-200,000	0,002	0,015
-625,692	-0,697	0,083	0,043
-624,678	-115,748	-0,096	-0,013
-623,663	-200,000	0,011	0,092
-622,649	23,953	-0,116	-0,070
-621,634	-200,000	0,014	-0,047
-620,619	20,071	-0,018	0,011
-619,605	79,114	0,029	0,023
-618,590	151,132	0,057	0,057
-617,576	-120,566	0,155	-0,019
-616,561	1,178	0,071	0,037
-615,546	97,432	0,071	-0,060
-614,532	-200,000	0,009	-0,054
-613,517	-117,109	-0,157	-0,021
-612,503	800,000	-0,028	0,076
-611,488	-200,000	0,008	-0,050
-610,474	411,014	-0,028	0,044
-609,459	-104,224	-0,041	0,007
-608,444	-123,540	-0,101	0,012
-607,430	40,041	-0,133	-0,087
-606,415	62,789	-0,046	-0,034
-605,401	241,611	-0,037	0,045
-604,386	290,189	0,038	0,051
-603,371	-200,000	0,010	0,138
-602,357	-93,691	-0,026	0,005
-601,342	74,305	-0,055	-0,042
-600,328	-200,000	-0,028	-0,090
-599,313	466,198	-0,046	-0,076
-598,298	-118,226	0,139	0,018
-597,284	-104,120	0,160	-0,027
-596,269	-200,000	0,013	-0,075
-595,255	-200,000	-0,012	0,049
-594,240	431,060	-0,015	0,024
-593,225	262,143	-0,018	-0,023
-592,211	-111,986	-0,118	0,017
-591,196	800,000	0,033	-0,073
-590,182	800,000	-0,047	0,105
-589,167	108,733	-0,036	-0,031
-588,152	414,548	-0,046	-0,072
-587,138	-55,514	0,071	-0,023
-586,123	-200,000	-0,016	-0,149
-585,109	-34,273	-0,080	-0,032
-584,094	-146,810	-0,067	-0,004
-583,079	-122,176	0,033	0,004
-582,065	800,000	0,045	0,098
-581,050	-48,068	0,076	-0,027
-580,036	-101,231	-0,157	0,028
-579,021	-114,439	-0,067	0,009
-578,006	-61,304	-0,059	-0,018
-576,992	-200,000	-0,031	-0,116
-575,977	-146,063	0,138	0,009
-574,963	82,614	0,022	0,018
-573,948	302,444	-0,061	0,082
-572,934	3,435	0,104	-0,055
-571,919	-39,534	-0,143	0,055
-570,904	-129,564	0,073	0,007
-569,890	-121,206	-0,103	-0,012
-568,875	-199,152	0,075	0,000
-567,861	339,805	0,092	0,132
-566,846	-152,918	0,048	0,002
-565,831	-200,000	0,006	-0,057
-564,817	-200,000	-0,002	-0,023
-563,802	800,000	-0,059	-0,133
-562,788	290,399	0,028	0,037
-561,773	-162,632	0,176	0,006
-560,758	-118,611	-0,071	-0,009
-559,744	-188,516	-0,126	0,001
-558,729	-17,619	-0,057	-0,026
-557,715	183,846	0,027	-0,030
-556,700	-200,000	-0,007	0,063
-555,685	-106,057	-0,075	0,012
-554,671	66,119	-0,103	-0,076
-553,656	-107,414	0,078	0,012
-552,642	772,730	0,041	0,081
-551,627	-100,845	0,008	-0,001
-550,612	800,000	-0,060	-0,126
-549,598	16,254	-0,052	-0,030
-548,583	476,489	-0,126	0,209
-547,569	-133,165	0,141	0,013
-546,554	238,992	-0,070	0,085
-545,539	-181,891	-0,059	0,001
-544,525	324,388	0,037	0,052
-543,510	88,153	0,126	-0,102
-542,496	352,602	0,024	-0,035
-541,481	-200,000	-0,018	-0,069
-540,466	800,000	-0,018	0,043
-539,452	-200,000	0,004	0,125
-538,437	305,501	-0,058	0,078
-537,423	800,000	-0,018	-0,037
-536,408	328,721	-0,032	-0,045
-535,393	378,443	-0,058	0,087
-534,379	800,000	-0,052	0,106
-533,364	-200,000	-0,026	-0,135
-532,350	-200,000	-0,011	-0,044
-531,335	478,851	0,028	-0,046
-530,321	13,503	0,129	0,073
-529,306	-200,000	0,019	-0,087
-528,291	-70,864	0,135	0,037
-527,277	99,997	-0,058	0,049
-526,262	60,616	-0,061	0,044
-525,248	191,875	-0,090	-0,099
-524,233	800,000	-0,049	0,114
-523,218	800,000	0,023	0,055
-522,204	800,000	-0,053	-0,116
-521,189	800,000	-0,051	-0,120
-520,175	-200,000	0,015	0,092
-519,160	225,315	-0,045	0,053
-518,145	-200,000	0,008	-0,110
-517,131	65,195	-0,080	0,059
-516,116	106,046	0,086	0,074
-515,102	477,079	0,042	0,070
-514,087	347,757	0,037	0,054
-513,072	403,935	0,016	0,024
-512,058	512,868	-0,012	0,020
-511,043	-200,000	0,023	0,077
-510,029	-160,940	-0,027	-0,001
-509,014	384,962	-0,090	0,135
-507,999	409,054	0,008	-0,013
-506,985	-200,000	0,033	-0,137
-505,970	-78,341	-0,039	-0,010
-504,956	105,946	0,047	-0,041
-503,941	-60,388	-0,128	-0,039
-502,926	-200,000	-0,009	-0,049
-501,912	3,297	-0,054	0,029
-500,897	-109,094	-0,094	0,015
-499,883	58,900	0,084	-0,060
-498,868	-200,000	-0,012	-0,145
-497,853	800,000	0,060	0,138
-496,839	-200,000	0,012	0,045
-495,824	268,791	0,107	0,137
-494,810	71,328	0,053	0,040
-493,795	800,000	-0,037	-0,109
-492,781	167,654	-0,092	-0,096
-491,766	-92,729	-0,064	-0,013
-490,751	800,000	-0,073	-0,156
-489,737	239,986	0,081	-0,098
-488,722	197,096	0,050	0,056
-487,708	52,106	0,126	0,088
-486,693	800,000	-0,042	0,131
-485,678	36,351	0,061	-0,039
-484,664	70,220	-0,143	0,107
-483,649	800,000	-0,028	-0,080
-482,635	244,595	0,006	0,007
-481,620	-94,736	0,030	-0,006
-480,605	-200,000	-0,020	0,115
-479,591	103,280	0,049	-0,042
-478,576	445,310	0,039	-0,063
-477,562	-37,502	-0,041	-0,016
-476,547	497,528	-0,026	-0,044
-475,532	375,647	-0,011	0,016
-474,518	172,395	0,050	-0,053
-473,503	143,983	0,077	0,075
-472,489	-200,000	-0,018	-0,136
-471,474	-200,000	-0,005	0,019
-470,459	496,118	-0,070	0,117
-469,445	-75,230	0,134	0,035
-468,430	714,317	0,026	-0,051
-467,416	-200,000	-0,024	0,104
-466,401	-148,051	0,131	0,008
-465,386	-200,000	-0,014	0,093
-464,372	58,054	0,046	0,032
-463,357	189,533	-0,073	-0,080
-462,343	-200,000	0,012	-0,165
-461,328	-200,000	-0,015	-0,101
-460,313	67,015	-0,103	-0,076
-459,299	800,000	0,019	0,045
-458,284	-200,000	-0,000	0,177
-457,270	-200,000	-0,007	-0,032
-456,255	135,063	-0,099	0,094
-455,241	-200,000	0,009	0,084
-454,226	309,776	-0,098	0,134
-453,211	254,042	0,062	-0,077
-452,197	43,416	0,136	0,090
-451,182	145,217	0,137	0,133
-450,168	-125,457	0,074	0,008
-449,153	-200,000	0,003	-0,019
-448,138	567,741	0,040	-0,071
-447,124	-48,869	-0,021	0,007
-446,109	-47,833	0,061	0,022
-445,095	-129,164	-0,086	0,009
-444,080	56,273	-0,147	0,104
-443,065	14,771	0,036	0,020
-442,051	800,000	-0,016	-0,043
-441,036	-91,037	-0,178	-0,037
-440,022	-10,606	0,051	0,024
-439,007	274,098	0,070	0,091
-437,992	-7,426	0,101	0,049
-436,978	-4,008	0,018	0,009
-435,963	-200,000	-0,008	0,076
-434,949	366,701	0,045	0,066
-433,934	270,207	0,081	-0,104
-432,919	72,588	0,051	-0,039
-431,905	21,568	0,026	-0,015
-430,890	-93,765	0,054	0,011
-429,876	800,000	0,039	0,093
-428,861	-200,000	-0,019	-0,115
-427,846	-200,000	-0,005	0,095
-426,832	246,236	-0,069	0,085
-425,817	800,000	0,021	-0,048
-424,803	597,850	0,068	0,123
-423,788	20,423	0,117	-0,069
-422,773	-200,000	0,010	-0,112
-421,759	-67,905	-0,061	0,017
-420,744	-168,334	-0,064	-0,002
-419,730	82,517	-0,083	0,065
-418,715	-11,295	0,066	0,032
-417,701	-131,904	0,044	0,004
-416,686	-200,000	-0,008	0,102
-415,671	-99,983	0,133	-0,024
-414,657	-58,333	0,106	-0,033
-413,642	253,109	-0,044	0,055
-412,628	128,958	-0,061	0,057
-411,613	-200,000	-0,022	-0,074
-410,598	-200,000	-0,022	0,075
-409,584	507,429	0,012	0,019
-408,569	241,371	0,035	-0,043
-407,555	800,000	0,049	0,144
-406,540	20,911	0,105	0,062
-405,525	-200,000	0,004	-0,078
-404,511	-200,000	-0,013	0,072
-403,496	-200,000	-0,010	0,201
-402,482	-90,489	-0,082	-0,017
-401,467	-200,000	-0,045	0,160
-400,452	278,088	0,014	0,019
-399,438	-74,492	-0,035	0,009
-398,423	74,443	-0,067	-0,051
-397,409	-170,199	0,118	0,003
-396,394	800,000	-0,035	-0,076
-395,379	-200,000	-0,020	-0,131
-394,365	800,000	0,040	0,088
-393,350	179,258	-0,069	-0,074
-392,336	-200,000	0,014	-0,085
-391,321	-33,457	-0,117	-0,047
-390,306	39,853	0,063	-0,041
-389,292	800,000	0,050	-0,142
-388,277	-125,095	-0,220	-0,024
-387,263	363,608	0,055	-0,080
-386,248	-93,482	0,131	-0,026
-385,233	800,000	-0,034	0,084
-384,219	-27,017	-0,087	-0,037
-383,204	800,000	0,011	0,024
-382,190	679,041	-0,074	-0,141
-381,175	620,717	-0,038	0,069
-380,160	5,771	0,055	0,029
-379,146	-158,189	0,053	0,002
-378,131	3,910	-0,118	0,063
-377,117	-118,741	-0,118	-0,015
-376,102	-82,172	0,051	-0,012
-375,088	-15,094	-0,064	0,030
-374,073	186,850	0,048	-0,052
-373,058	75,944	0,109	0,084
-372,044	-49,437	-0,174	-0,060
-371,029	-112,051	0,126	0,018
-370,015	266,693	-0,109	0,139
-369,000	171,762	-0,067	0,070
-367,985	-106,220	-0,134	-0,022
-366,971	800,000	0,031	-0,072
-365,956	-200,000	-0,008	0,124
-364,942	-29,655	0,145	0,060
-363,927	-200,000	-0,011	0,087
-362,912	-200,000	-0,026	0,125
-361,898	302,724	0,059	0,080
-360,883	129,456	0,145	-0,135
-359,869	-200,000	0,010	-0,073
-358,854	-47,097	-0,057	-0,020
-357,839	800,000	-0,035	0,110
-356,825	-57,151	0,193	0,061
-355,810	51,862	-0,096	-0,066
-354,796	-12,590	0,105	-0,049
-353,781	12,254	-0,062	-0,034
-352,766	37,514	0,103	-0,066
-351,752	55,709	-0,079	-0,056
-350,737	113,507	0,111	0,098
-349,723	-27,706	0,184	-0,077
-348,708	58,235	-0,036	-0,025
-347,693	10,933	-0,039	-0,022
-346,679	178,073	-0,042	-0,045
-345,664	-200,000	-0,012	-0,076
-344,650	244,428	-0,031	-0,038
-343,635	-104,344	0,125	-0,021
-342,620	75,483	-0,107	0,081
-341,606	28,041	0,072	0,044
-340,591	180,914	0,064	-0,068
-339,577	-200,000	0,019	-0,118
-338,562	800,000	-0,011	-0,026
-337,548	-188,799	-0,083	0,001
-336,533	800,000	0,043	-0,107
-335,518	-200,000	0,010	0,061
-334,504	-38,597	0,163	-0,062
-333,489	-200,000	0,012	-0,054
-332,475	3,223	-0,147	-0,077
-331,460	30,507	-0,027	0,017
-330,445	-200,000	-0,046	0,281
-329,431	-136,560	0,093	0,008
-328,416	33,980	0,144	0,090
-327,402	-200,000	0,015	-0,079
-326,387	-199,766	-0,102	0,000
-325,372	149,116	-0,149	-0,146
-324,358	36,539	0,091	0,058
-323,343	-141,239	0,100	0,007
-322,329	-152,976	-0,049	-0,002
-321,314	800,000	0,011	0,027
-320,299	7,651	0,012	0,007
-319,285	-4,877	0,089	0,044
-318,270	-5,624	-0,115	0,057
-317,256	13,454	-0,068	0,038
-316,241	-200,000	-0,010	0,073
-315,226	800,000	0,030	0,090
-314,212	169,574	0,082	-0,085
-313,197	-200,000	-0,012	0,103
-312,183	12,112	0,093	-0,052
-311,168	-151,353	-0,068	0,004
-310,153	800,000	-0,058	-0,170
-309,139	306,573	0,020	-0,027
-308,124	-100,536	0,035	0,006
-307,110	335,655	0,077	0,109
-306,095	800,000	-0,029	0,086
-305,080	-200,000	-0,007	0,201
-304,066	24,004	0,064	-0,038
-303,051	-200,000	0,001	0,079
-302,037	-102,255	0,070	0,012
-301,022	329,839	0,058	0,081
-300,008	294,163	-0,056	0,075
-298,993	392,087	0,023	-0,035
-297,978	276,898	0,084	0,108
-296,964	3,463	0,053	-0,028
-295,949	-68,633	-0,230	-0,064
-294,935	-200,000	-0,001	-0,036
-293,920	800,000	-0,043	0,095
-292,905	-200,000	-0,020	-0,126
-291,891	70,547	0,047	-0,035
-290,876	800,000	0,058	0,144
-289,862	476,839	-0,054	0,089
-288,847	-200,000	-0,008	0,031
-287,832	-200,000	0,001	-0,035
-286,818	-200,000	-0,027	-0,102
-285,803	418,753	0,054	-0,084
-284,789	-114,608	-0,099	-0,014
-283,774	-199,786	0,072	0,000
-282,759	-200,000	0,017	0,076
-281,745	-49,449	0,114	-0,039
-280,730	800,000	0,031	0,092
-279,716	-200,000	0,007	0,035
-278,701	-152,256	0,135	-0,007
-277,686	-80,374	0,073	-0,018
-276,672	-8,677	0,119	0,057
-275,657	-127,009	0,091	0,010
-274,643	-200,000	-0,023	-0,085
-273,628	130,608	-0,058	-0,054
-272,613	-200,000	-0,002	0,025
-271,599	74,439	0,104	0,079
-270,584	25,032	-0,075	-0,045
-269,570	-200,000	0,003	0,087
-268,555	-46,099	0,053	-0,019
-267,540	75,642	-0,133	-0,102
-266,526	70,200	0,087	-0,065
-265,511	536,318	0,021	0,036
-264,497	264,675	0,026	-0,032
-263,482	565,828	0,039	-0,069
-262,467	325,401	0,014	-0,020
-261,453	176,484	-0,122	-0,128
-260,438	111,959	-0,146	-0,127
-259,424	800,000	-0,008	-0,018
-258,409	800,000	0,042	-0,085
-257,395	127,612	0,070	-0,064
-256,380	-107,566	-0,080	0,012
-255,365	-200,000	-0,008	0,123
-254,351	143,587	0,055	-0,053
-253,336	67,221	-0,019	-0,014
-252,322	-200,000	0,028	0,107
-251,307	-200,000	-0,033	-0,126
-250,292	-200,000	-0,007	0,026
-249,278	-200,000	0,008	-0,032
-248,263	-113,651	0,077	0,011
-247,249	-140,804	0,081	0,006
-246,234	800,000	-0,050	-0,156
-245,219	800,000	0,041	-0,103
-244,205	-200,000	-0,005	-0,077
-243,190	-42,167	0,072	0,026
-242,176	-64,029	0,111	0,033
-241,161	76,081	0,052	0,039
-240,146	79,093	0,048	0,037
-239,132	-200,000	0,003	-0,039
-238,117	-141,763	-0,066	-0,005
-237,103	-41,511	-0,055	-0,020
-236,088	-120,092	-0,028	-0,003
-235,073	273,542	-0,035	0,045
-234,059	-46,214	0,080	0,028
-233,044	-74,910	-0,023	0,006
-232,030	323,941	0,051	-0,070
-231,015	800,000	-0,058	-0,136
-230,000	159,916	-0,044	-0,045
-228,986	174,174	0,064	-0,067
-227,971	386,877	-0,052	0,077
-226,957	-134,177	0,146	0,013
-225,942	-92,403	0,041	-0,008
-224,927	562,686	-0,095	-0,166
-223,913	-200,000	-0,021	-0,157
-222,898	65,197	-0,048	-0,035
-221,884	-200,000	-0,018	-0,100
-220,869	800,000	-0,017	0,039
-219,855	800,000	-0,074	0,202
-218,840	160,380	-0,057	0,058
-217,825	-200,000	0,029	-0,101
-216,811	38,083	0,158	-0,101
-215,796	-14,382	-0,110	-0,051
-214,782	111,317	-0,021	-0,018
-213,767	-149,192	0,124	-0,007
-212,752	23,604	0,038	-0,022
-211,738	-200,000	0,003	0,081
-210,723	23,892	-0,049	-0,029
-209,709	99,125	-0,134	-0,111
-208,694	221,626	-0,053	0,061
-207,679	-120,369	-0,103	-0,012
-206,665	510,045	0,072	0,120
-205,650	81,032	0,070	0,055
-204,636	-200,000	-0,015	-0,161
-203,621	-42,117	-0,057	-0,021
-202,606	-200,000	-0,004	-0,024
-201,592	-200,000	-0,010	-0,067
-200,577	800,000	0,025	-0,060
-199,563	654,346	-0,073	-0,135
-198,548	-20,558	0,127	0,056
-197,533	429,967	-0,069	0,108
-196,519	-89,584	-0,111	-0,023
-195,504	-125,653	0,152	0,016
-194,490	-53,413	-0,146	-0,048
-193,475	362,425	-0,029	-0,042
-192,460	70,067	-0,036	-0,027
-191,446	104,203	0,063	0,053
-190,431	800,000	0,014	-0,044
-189,417	-200,000	0,007	0,042
-188,402	-60,896	-0,016	0,005
-187,387	-200,000	0,000	-0,058
-186,373	456,117	-0,047	-0,075
-185,358	800,000	-0,042	-0,094
-184,344	11,885	-0,053	0,029
-183,329	800,000	-0,005	0,013
-182,315	-95,149	0,113	0,022
-181,300	-200,000	-0,006	-0,104
-180,285	-200,000	-0,028	-0,207
-179,271	-153,027	-0,084	0,004
-178,256	30,854	0,103	0,064
-177,242	-164,411	0,065	-0,002
-176,227	-200,000	-0,005	0,130
-175,212	426,252	-0,067	0,105
-174,198	-63,888	0,102	0,030
-173,183	-21,436	-0,133	-0,058
-172,169	-56,956	-0,180	-0,057
-171,154	-78,832	-0,128	-0,031
-170,139	-200,000	0,006	-0,039
-169,125	-88,631	0,190	-0,040
-168,110	-5,010	0,067	-0,033
-167,096	-200,000	-0,008	-0,075
-166,081	-159,892	-0,147	-0,006
-165,066	316,073	-0,035	-0,047
-164,052	-200,000	-0,027	-0,092
-163,037	-127,154	-0,164	-0,017
-162,023	-200,000	0,033	0,195
-161,008	307,351	0,079	-0,106
-159,993	-23,115	0,162	-0,070
-158,979	-75,453	-0,120	-0,030
-157,964	-200,000	-0,009	-0,065
-156,950	-200,000	-0,002	-0,011
-155,935	-200,000	-0,000	-0,087
-154,920	-200,000	0,031	0,175
-153,906	-200,000	0,002	0,069
-152,891	-200,000	0,020	-0,075
-151,877	684,800	0,036	0,068
-150,862	800,000	-0,019	0,052
-149,847	323,841	-0,088	-0,122
-148,833	-130,676	0,098	0,009
-147,818	-200,000	0,000	0,031
-146,804	-13,508	0,040	0,018
-145,789	800,000	0,022	0,065
-144,775	-200,000	-0,003	-0,040
-143,760	-200,000	0,001	-0,090
-142,745	69,842	0,047	-0,035
-141,731	452,614	-0,011	-0,018
-140,716	800,000	0,031	-0,089
-139,702	-200,000	0,022	-0,110
-138,687	433,919	0,032	-0,050
-137,672	-56,548	-0,120	-0,038
-136,658	-131,296	0,042	0,004
-135,643	-163,932	-0,159	0,005
-134,629	342,302	0,054	-0,076
-133,614	250,379	0,069	0,084
-132,599	-200,000	0,007	0,056
-131,585	-92,568	0,087	0,017
-130,570	-200,000	0,018	-0,141
-129,556	43,118	0,065	0,042
-128,541	-135,591	-0,122	-0,010
-127,526	-35,571	0,111	0,043
-126,512	-134,289	0,082	-0,007
-125,497	-200,000	-0,029	0,136
-124,483	1,625	0,155	0,080
-123,468	-10,949	-0,061	0,029
-122,453	186,861	0,051	-0,055
-121,439	-200,000	0,019	-0,125
-120,424	-56,557	0,059	-0,019
-119,410	800,000	-0,028	0,070
-118,395	-200,000	-0,004	0,061
-117,380	43,090	0,081	-0,053
-116,366	-200,000	-0,021	0,096
-115,351	-23,186	-0,014	-0,006
-114,337	-200,000	0,002	-0,078
-113,322	-97,842	0,032	0,006
-112,307	109,468	-0,001	0,001
-111,293	16,819	-0,119	-0,068
-110,278	-43,998	0,044	-0,016
-109,264	412,791	-0,107	-0,164
-108,249	800,000	0,063	-0,135
-107,234	-165,171	-0,022	0,001
-106,220	61,280	-0,069	-0,049
-105,205	-200,000	-0,007	0,087
-104,191	342,688	-0,101	0,142
-103,176	-200,000	0,015	0,128
-102,162	5,708	-0,098	0,052
-101,147	-49,926	-0,107	-0,036
-100,132	222,408	-0,074	0,085
-99,118	800,000	-0,019	-0,040
-98,103	255,641	-0,051	0,063
-97,089	-200,000	-0,012	0,064
-96,074	-60,011	-0,070	0,021
-95,059	-200,000	-0,171	-0,000
-94,045	-200,000	-0,018	0,108
-93,030	40,756	-0,252	-0,163
-92,016	800,000	-0,071	-0,152
-91,001	297,930	0,017	0,022
-89,986	800,000	0,029	0,067
-88,972	-46,113	0,032	-0,011
-87,957	800,000	-0,026	0,075
-86,943	38,057	-0,088	0,056
-85,928	-200,000	0,006	0,040
-84,913	-200,000	-0,007	-0,058
-83,899	-51,845	-0,115	0,038
-82,884	81,963	0,036	0,028
-81,870	-200,000	0,012	-0,089
-80,855	-141,329	0,084	-0,006
-79,840	-103,063	0,031	-0,005
-78,826	-200,000	0,018	-0,140
-77,811	800,000	-0,022	-0,050
-76,797	117,461	-0,059	0,052
-75,782	-200,000	0,017	-0,065
-74,767	-200,000	-0,015	-0,058
-73,753	-200,000	-0,014	0,124
-72,738	90,989	-0,107	0,086
-71,724	-200,000	-0,062	-0,262
-70,709	800,000	-0,024	0,054
-69,694	-200,000	0,008	0,078
-68,680	-0,279	0,085	0,043
-67,665	-200,000	0,025	-0,082
-66,651	-136,404	0,068	-0,006
-65,636	-200,000	-0,038	0,163
-64,622	-200,000	-0,021	0,116
-63,607	-200,000	-0,006	-0,066
-62,592	78,425	-0,122	0,093
-61,578	529,995	0,025	-0,042
-60,563	370,819	0,030	0,043
-59,549	109,973	-0,054	0,047
-58,534	93,312	-2,834	-2,298
-57,519	-76,254	0,604	-0,151
-56,505	-200,000	-1,711	-5,675
-55,490	601,947	1,261	2,257
-54,476	800,000	5,086	11,254
-53,461	-200,000	23,207	349,169
-52,446	800,000	766,263	2264,982
-51,432	496,370	1642,766	2717,934
-50,417	92,666	1597,734	1291,940
-49,403	60,208	1252,489	886,729
-48,388	20,907	1004,863	582,356
-47,373	18,335	972,836	555,392
-46,359	11,687	959,674	526,388
-45,344	7,552	956,622	511,320
-44,330	7,909	954,411	511,272
-43,315	6,963	952,396	507,123
-42,300	6,904	951,470	506,419
-41,286	6,897	950,370	505,790
-40,271	6,903	949,420	505,283
-39,257	6,941	948,474	504,882
-38,242	6,910	947,507	504,249
-37,227	6,943	946,707	503,908
-36,213	6,840	946,259	503,320
-35,198	6,877	945,292	502,903
-34,184	6,925	944,448	502,589
-33,169	6,844	943,589	501,854
-32,154	6,942	942,782	501,717
-31,140	6,936	941,829	501,170
-30,125	6,971	941,106	500,876
-29,111	6,877	940,500	500,237
-28,096	6,911	939,846	499,976
-27,082	6,899	939,104	499,524
-26,067	6,943	938,173	499,149
-25,052	6,933	937,422	498,697
-24,038	6,864	937,062	498,268
-23,023	6,900	935,975	497,783
-22,009	6,904	935,532	497,540
-20,994	6,920	934,932	497,252
-19,979	6,876	934,496	496,863
-18,965	6,893	933,713	496,480
-17,950	6,896	933,137	496,162
-16,936	6,874	932,394	495,677
-15,921	6,843	931,826	495,260
-14,906	6,835	931,012	494,780
-13,892	6,888	930,377	494,590
-12,877	6,809	929,899	494,070
-11,863	6,800	929,224	493,661
-10,848	6,783	928,721	493,321
-9,833	6,912	928,298	493,483
-8,819	6,886	927,742	493,086
-7,804	6,744	927,138	492,299
-6,790	6,826	926,244	492,064
-5,775	6,861	925,825	491,932
-4,760	6,854	925,326	491,624
-3,746	6,883	924,578	491,297
-2,731	6,682	923,924	490,303
-1,717	6,652	923,388	489,905
-0,702	6,633	922,838	489,533
0,313	6,485	921,987	489,361
1,327	9,911	919,283	498,536
2,342	18,381	768,198	438,464
3,356	13,172	441,883	244,456
4,371	-12,440	309,815	144,402
5,386	-16,000	292,635	132,815
6,400	-18,019	286,582	128,074
7,415	-18,316	283,875	126,563
8,429	-19,031	282,116	125,076
9,444	-19,339	281,318	124,415
10,459	-19,150	280,641	124,286
11,473	-19,212	280,023	123,942
12,488	-19,187	279,634	123,782
13,502	-19,123	279,102	123,597
14,517	-18,884	278,584	123,585
15,531	-19,070	278,183	123,219
16,546	-18,926	277,830	123,188
17,561	-18,944	277,257	122,906
18,575	-18,991	277,114	122,788
19,590	-19,260	276,898	122,425
20,604	-18,882	276,248	122,485
21,619	-18,999	276,086	122,291
22,634	-18,820	275,583	122,226
23,648	-18,959	275,342	121,978
24,663	-19,075	275,159	121,777
25,677	-19,013	274,917	121,716
26,692	-19,008	274,827	121,671
27,707	-18,894	274,255	121,514
28,721	-19,014	274,011	121,283
29,736	-19,109	273,795	121,087
30,750	-19,099	273,508	120,959
31,765	-18,955	273,182	120,938
32,780	-19,048	273,145	120,824
33,794	-18,975	272,697	120,683
34,809	-18,855	272,508	120,701
35,823	-18,977	272,167	120,425
36,838	-18,902	272,045	120,431
37,853	-18,860	271,694	120,303
38,867	-18,915	271,459	120,137
39,882	-18,910	271,201	120,018
40,896	-19,074	271,104	119,811
41,911	-18,850	270,694	119,827
42,926	-18,888	270,700	119,784
43,940	-18,953	270,298	119,535
44,955	-18,959	270,171	119,463
45,969	-18,960	269,867	119,317
46,984	-18,798	269,693	119,378
47,999	-18,713	269,573	119,393
49,013	-18,839	269,294	119,143
50,028	-18,655	269,045	119,191
51,042	-18,676	268,690	119,004
52,057	-18,729	268,533	118,876
53,071	-18,772	268,422	118,776
54,086	-18,865	268,196	118,581
55,101	-18,881	267,962	118,452
56,115	-18,905	267,672	118,291
57,130	-18,914	267,398	118,151
58,144	-18,985	267,112	117,950
59,159	-19,008	266,800	117,781
60,174	-18,974	266,681	117,748
61,188	-18,722	266,444	117,862
62,203	-18,933	266,248	117,573
63,217	-18,967	266,084	117,460
64,232	-19,007	265,799	117,287
65,247	-19,095	265,557	117,090
66,261	-18,897	265,187	117,095
67,276	-18,888	265,014	117,017
68,290	-18,826	264,942	117,030
69,305	-18,838	264,649	116,880
70,320	-18,859	264,282	116,689
71,334	-18,779	264,152	116,693
72,349	-18,878	263,714	116,399
73,363	-18,993	263,751	116,302
74,378	-18,913	263,399	116,209
75,393	-18,760	263,108	116,207
76,407	-18,671	262,997	116,227
77,422	-18,678	262,800	116,124
78,436	-18,969	262,583	115,757
79,451	-18,781	262,219	115,754
80,466	-18,831	262,078	115,637
81,480	-18,817	261,766	115,501
82,495	-18,802	261,640	115,449
83,509	-18,898	261,548	115,313
84,524	-18,617	261,094	115,352
85,539	-18,913	261,124	115,092
86,553	-18,712	260,848	115,138
87,568	-18,815	260,661	114,955
88,582	-18,820	260,341	114,798
89,597	-18,811	260,312	114,784
90,611	-18,991	260,009	114,481
91,626	-18,733	259,881	114,642
92,641	-18,817	259,582	114,426
93,655	-18,692	259,415	114,453
94,670	-19,005	259,141	114,045
95,684	-18,836	258,945	114,098
96,699	-19,003	258,968	113,950
97,714	-18,745	258,550	113,983
98,728	-18,852	258,445	113,832
99,743	-18,779	258,249	113,800
100,757	-18,716	257,845	113,667
101,772	-18,824	257,805	113,545
102,787	-18,919	257,580	113,352
103,801	-18,791	257,455	113,399
104,816	-18,767	257,219	113,306
105,830	-18,810	256,938	113,135
106,845	-18,790	256,647	113,014
107,860	-18,706	256,439	112,986
108,874	-18,764	256,216	112,827
109,889	-18,626	255,996	112,840
110,903	-18,935	256,017	112,570
111,918	-18,554	255,652	112,731
112,933	-18,696	255,455	112,511
113,947	-18,674	255,340	112,468
114,962	-18,935	255,124	112,138
115,976	-18,757	254,887	112,177
116,991	-18,669	254,627	112,129
118,006	-18,736	254,644	112,069
119,020	-18,792	254,389	111,898
120,035	-18,612	254,147	111,937
121,049	-18,705	254,041	111,800
122,064	-18,854	253,930	111,613
123,079	-18,761	253,615	111,545
124,093	-18,769	253,530	111,490
125,108	-18,713	253,302	111,428
126,122	-18,703	253,071	111,325
127,137	-18,741	252,853	111,187
128,151	-18,772	252,777	111,117
129,166	-18,771	252,494	110,983
130,181	-18,544	252,251	111,061
131,195	-18,602	251,961	110,874
132,210	-18,582	251,701	110,767
133,224	-18,786	251,559	110,521
134,239	-18,704	251,401	110,510
135,254	-18,791	251,155	110,319
136,268	-18,772	251,159	110,327
137,283	-18,652	250,816	110,269
138,297	-18,535	250,461	110,202
139,312	-18,649	250,229	109,993
140,327	-18,558	249,920	109,925
141,341	-18,710	250,009	109,826
142,356	-18,681	249,901	109,792
143,370	-18,783	249,445	109,497
144,385	-18,709	249,364	109,514
145,400	-18,773	249,128	109,346
146,414	-18,870	249,020	109,207
147,429	-18,653	248,647	109,216
148,443	-18,706	248,564	109,126
149,458	-18,498	248,406	109,222
150,473	-18,765	248,321	108,950
151,487	-18,797	248,063	108,801
152,502	-18,850	247,829	108,644
153,516	-18,886	247,655	108,528
154,531	-18,663	247,441	108,611
155,546	-18,773	247,316	108,454
156,560	-18,858	247,178	108,313
157,575	-18,813	246,968	108,248
158,589	-18,751	246,752	108,196
159,604	-18,648	246,442	108,136
160,619	-18,819	246,408	107,969
161,633	-18,759	246,060	107,857
162,648	-18,716	246,024	107,867
163,662	-18,723	245,810	107,758
164,677	-18,676	245,748	107,760
165,692	-18,777	245,647	107,623
166,706	-18,592	245,432	107,672
167,721	-18,735	245,104	107,400
168,735	-18,753	245,035	107,346
169,750	-18,562	244,806	107,394
170,764	-18,710	244,742	107,233
171,779	-18,816	244,693	107,115
172,794	-18,722	244,404	107,057
173,808	-18,726	244,247	106,975
174,823	-18,561	244,147	107,058
175,837	-18,744	243,870	106,776
176,852	-18,619	243,720	106,803
177,867	-18,493	243,559	106,828
178,881	-18,609	243,371	106,640
179,896	-18,707	243,237	106,492
180,910	-18,654	242,891	106,373
181,925	-18,679	242,792	106,300
182,940	-18,735	242,709	106,209
183,954	-18,596	242,435	106,193
184,969	-18,655	242,386	106,114
185,983	-18,627	242,044	105,978
186,998	-18,970	242,041	105,687
188,013	-18,959	241,886	105,618
189,027	-18,618	241,588	105,757
190,042	-18,614	241,308	105,628
191,056	-18,544	241,194	105,626
192,071	-18,829	240,991	105,296
193,086	-18,787	240,856	105,261
194,100	-18,676	240,666	105,259
195,115	-18,601	240,408	105,197
196,129	-18,800	240,270	104,967
197,144	-18,773	240,191	104,945
198,159	-18,648	239,872	104,897
199,173	-18,767	239,799	104,760
200,188	-18,678	239,565	104,720
201,202	-18,784	239,482	104,589
202,217	-18,490	239,303	104,739
203,232	-18,259	239,045	104,802
204,246	-18,714	238,896	104,361
205,261	-18,564	238,720	104,396
206,275	-16,756	239,364	106,125
207,290	-11,992	241,128	110,763
208,304	-5,460	242,997	116,940
209,319	-2,548	243,852	119,720
210,334	-1,441	244,013	120,692
211,348	-0,449	244,195	121,581
212,363	0,092	244,089	121,959
213,377	0,045	244,101	121,915
214,392	0,455	243,986	122,181
215,407	0,720	243,974	122,380
216,421	0,873	243,797	122,405
217,436	0,724	243,836	122,292
218,450	1,017	243,436	122,318
219,465	1,233	243,278	122,404
220,480	1,032	243,370	122,276
221,494	1,018	242,882	122,009
222,509	0,604	242,821	121,632
223,523	0,525	242,609	121,451
224,538	0,507	242,328	121,285
225,553	0,101	242,299	120,931
226,567	0,251	241,909	120,846
227,582	0,409	241,838	120,928
228,596	0,449	241,841	120,951
229,611	0,479	241,581	120,834
230,626	0,433	241,420	120,706
231,640	0,425	241,191	120,574
232,655	0,345	241,124	120,465
233,669	0,255	240,865	120,253
234,684	0,510	240,727	120,379
235,699	0,275	240,592	120,111
236,713	0,199	240,384	119,937
237,728	0,380	240,249	120,003
238,742	0,251	240,111	119,820
239,757	0,276	240,002	119,775
240,772	0,237	239,779	119,622
241,786	0,584	239,659	119,828
242,801	0,194	239,560	119,457
243,815	0,453	239,461	119,604
244,830	0,285	239,324	119,391
245,844	0,359	239,004	119,279
246,859	0,359	238,861	119,197
247,874	0,397	238,724	119,149
248,888	0,342	238,570	119,017
249,903	0,372	238,458	118,974
250,917	0,343	238,395	118,909
251,932	0,459	238,147	118,867
252,947	0,410	238,053	118,770
253,961	0,428	237,769	118,633
254,976	0,446	237,651	118,578
255,990	0,509	237,501	118,542
257,005	0,569	237,373	118,515
258,020	0,407	237,313	118,347
259,034	0,557	236,974	118,285
260,049	0,374	236,957	118,122
261,063	0,357	236,718	117,978
262,078	0,526	236,602	118,044
263,093	0,461	236,403	117,883
264,107	0,697	236,174	117,943
265,122	0,554	236,070	117,768
266,136	0,320	235,941	117,510
267,151	0,184	235,864	117,355
268,166	0,403	235,647	117,408
269,180	0,403	235,472	117,310
270,195	0,488	235,297	117,278
271,209	0,490	234,943	117,094
272,224	0,364	235,067	117,046
273,239	0,493	234,837	117,022
274,253	0,491	234,735	116,959
275,268	0,354	234,633	116,791
276,282	0,326	234,472	116,679
277,297	0,279	234,151	116,472
278,312	0,355	234,119	116,504
279,326	0,654	233,961	116,648
280,341	0,596	233,865	116,545
281,355	0,516	233,798	116,439
282,370	0,423	233,727	116,321
283,384	0,381	233,416	116,124
284,399	0,494	233,249	116,117
285,414	0,387	233,056	115,929
286,428	0,439	232,982	115,921
287,443	0,362	232,924	115,823
288,457	0,371	232,694	115,705
289,472	0,301	232,485	115,537
290,487	0,417	232,474	115,610
291,501	0,564	232,182	115,568
292,516	0,493	232,075	115,450
293,530	0,632	231,801	115,410
294,545	0,575	231,805	115,358
295,560	0,538	231,537	115,186
296,574	0,484	231,494	115,113
297,589	0,689	231,330	115,178
298,603	0,749	231,071	115,085
299,618	0,404	231,090	114,820
300,633	0,595	231,074	114,948
301,647	0,520	230,733	114,711
302,662	0,512	230,623	114,639
303,676	0,597	230,592	114,679
304,691	0,552	230,358	114,518
305,706	0,727	230,117	114,522
306,720	0,803	229,989	114,506
307,735	1,019	229,741	114,536
308,749	0,695	229,809	114,314
309,764	0,692	229,570	114,182
310,779	0,872	229,520	114,284
311,793	0,580	229,314	113,949
312,808	0,825	229,226	114,081
313,822	0,593	229,028	113,797
314,837	0,503	229,002	113,705
315,852	0,732	228,836	113,786
316,866	0,732	228,675	113,696
317,881	0,851	228,456	113,667
318,895	1,052	228,158	113,660
319,910	0,753	228,123	113,407
320,925	0,827	227,989	113,386
321,939	0,761	227,848	113,256
322,954	0,614	227,758	113,091
323,968	0,716	227,647	113,102
324,983	0,849	227,386	113,063
325,997	0,784	227,206	112,914
327,012	0,632	227,069	112,722
328,027	0,827	226,835	112,742
329,041	0,556	226,824	112,523
330,056	0,825	226,686	112,646
331,070	1,049	226,536	112,729
332,085	0,957	226,291	112,528
333,100	0,781	226,192	112,337
334,114	0,766	226,078	112,260
335,129	0,700	225,976	112,150
336,143	0,738	225,803	112,083
337,158	0,818	225,758	112,110
338,173	0,882	225,614	112,075
339,187	0,989	225,275	111,977
340,202	0,936	225,390	111,984
341,216	0,861	225,174	111,812
342,231	0,741	224,987	111,619
343,246	0,884	224,802	111,624
344,260	0,888	224,645	111,539
345,275	1,009	224,594	111,594
346,289	1,040	224,372	111,496
347,304	0,763	224,349	111,270
348,319	0,792	224,063	111,139
349,333	0,673	224,031	111,026
350,348	0,786	223,758	110,964
351,362	0,754	223,732	110,918
352,377	0,801	223,548	110,851
353,392	0,984	223,498	110,951
354,406	1,037	223,333	110,898
355,421	191,729	1310,499	1373,120
356,435	153,501	1442,787	1372,936
