DTS Sentinel unit serial number:	SN410029Multiplexer serial number:	ORYXHardware model number:	OX2-SRSoftware version number:	ORYX F/W v4,00 Oryx Data Collector v3.7.2.0data status	okinstallation	B5 Nyhavnadifferential loss correction	single-endedforward channel	channel 2reverse channel	N/Adate	2023/12/14time	14:57:13forward acquisition time	300,00reverse acquisition time	0,00gamma	499,1914k internal	0,3156k external	0,3156temperature offset calibration	1,0000default loss term (dB/km)	0,3820temperature slope calibration	1,0000multiplexer offset coefficient	1,0000multiplexer slope coefficient	1,0000fibre end	0,00T internal ref (°C)	7,94T ext. ref 1 (°C)	-8,16T ext. ref 2 (°C)	-8,21length (m)	temperature (°C)	Stokes	anti-Stokes-744,400	-200,000	0,051	0,177
-743,385	-58,997	-0,519	-0,164
-742,371	-59,044	0,074	-0,023
-741,356	-43,828	-0,350	-0,129
-740,342	-126,867	0,089	-0,010
-739,327	-53,331	-0,519	-0,174
-738,312	548,540	0,069	0,122
-737,298	-91,333	-0,442	-0,092
-736,283	24,951	0,177	0,108
-735,269	-34,884	-0,306	-0,123
-734,254	-51,688	-0,029	0,010
-733,239	-37,310	-0,641	-0,251
-732,225	70,115	0,227	0,173
-731,210	19,587	0,115	0,068
-730,196	-147,713	-0,027	-0,002
-729,181	187,680	0,042	-0,047
-728,167	449,973	0,037	0,060
-727,152	678,875	-0,032	-0,061
-726,137	-11,938	-0,081	0,039
-725,123	-200,000	-0,067	0,226
-724,108	-130,531	-0,144	-0,014
-723,094	351,141	-0,032	-0,046
-722,079	-133,871	-0,076	0,007
-721,064	-62,698	-0,179	-0,054
-720,050	132,318	0,020	-0,019
-719,035	-34,979	-0,071	0,029
-718,021	5,079	-0,065	0,035
-717,006	-46,612	-0,141	-0,051
-715,991	130,794	-0,053	-0,050
-714,977	29,623	-0,083	-0,052
-713,962	602,218	0,068	0,125
-712,948	83,110	-0,076	0,061
-711,933	417,447	-0,035	-0,056
-710,918	-109,593	-0,168	0,026
-709,904	162,535	-0,030	0,031
-708,889	410,169	-0,038	-0,060
-707,875	2,375	-0,042	-0,022
-706,860	-106,247	-0,046	-0,007
-705,845	-40,012	-0,073	-0,028
-704,831	-74,300	0,038	-0,010
-703,816	-163,606	-0,110	0,004
-702,802	-13,022	-0,010	0,005
-701,787	74,160	-0,080	0,061
-700,772	70,374	0,132	-0,101
-699,758	67,142	-0,086	-0,065
-698,743	177,010	-0,100	-0,107
-697,729	-96,103	0,102	0,020
-696,714	-114,478	0,087	0,012
-695,699	41,704	-0,122	-0,082
-694,685	-22,234	-0,137	-0,061
-693,670	-58,406	-0,120	-0,038
-692,656	-157,210	-0,048	-0,002
-691,641	800,000	0,053	0,126
-690,627	-105,959	0,016	-0,003
-689,612	-72,489	-0,073	0,020
-688,597	108,382	-0,068	-0,059
-687,583	37,269	0,101	-0,065
-686,568	248,442	0,059	-0,073
-685,554	512,574	0,072	-0,124
-684,539	20,659	0,081	0,048
-683,524	-200,000	-0,016	0,060
-682,510	800,000	0,032	-0,088
-681,495	-139,855	0,114	-0,009
-680,481	40,291	-0,050	0,033
-679,466	66,538	-0,046	-0,034
-678,451	-200,000	-0,020	-0,096
-677,437	-117,726	0,060	0,008
-676,422	-100,098	0,144	0,026
-675,408	-128,760	-0,135	-0,014
-674,393	300,598	-0,062	0,084
-673,378	22,149	-0,154	0,093
-672,364	-182,921	0,115	0,001
-671,349	-157,794	-0,144	-0,006
-670,335	352,510	0,015	-0,022
-669,320	14,645	0,125	0,072
-668,305	-49,756	0,049	0,017
-667,291	800,000	-0,023	0,051
-666,276	200,780	0,024	0,027
-665,262	21,620	-0,060	-0,036
-664,247	-1,732	-0,044	-0,023
-663,232	800,000	0,055	-0,127
-662,218	-200,000	-0,011	-0,086
-661,203	-103,179	0,025	0,004
-660,189	206,460	-0,009	-0,011
-659,174	-99,179	-0,049	-0,009
-658,159	227,566	-0,041	-0,050
-657,145	-200,000	0,025	0,087
-656,130	-200,000	0,032	0,109
-655,116	-200,000	-0,031	0,208
-654,101	-200,000	0,007	0,028
-653,086	147,408	0,088	0,087
-652,072	800,000	-0,031	-0,086
-651,057	76,476	0,020	-0,016
-650,043	-64,055	-0,035	0,011
-649,028	63,658	-0,042	0,031
-648,014	-200,000	-0,002	0,022
-646,999	250,494	0,034	-0,042
-645,984	71,566	0,118	-0,090
-644,970	12,785	-0,053	-0,030
-643,955	-82,449	-0,071	-0,017
-642,941	-53,285	-0,100	-0,034
-641,926	-200,000	0,018	-0,079
-640,911	11,739	0,102	0,057
-639,897	93,470	-0,145	0,121
-638,882	-92,586	-0,126	0,026
-637,868	144,065	-0,043	0,042
-636,853	555,530	-0,024	0,043
-635,838	486,097	-0,056	0,094
-634,824	800,000	0,030	-0,081
-633,809	3,298	0,074	-0,040
-632,795	192,772	0,132	-0,147
-631,780	-188,615	-0,044	0,000
-630,765	-10,231	0,046	0,022
-629,751	2,420	-0,122	-0,064
-628,736	-148,277	-0,115	-0,007
-627,722	236,957	0,037	-0,045
-626,707	-58,999	0,029	-0,009
-625,692	-200,000	0,015	0,173
-624,678	-124,596	0,014	0,002
-623,663	-85,319	0,057	0,013
-622,649	-32,132	-0,068	0,028
-621,634	-200,000	0,029	-0,161
-620,619	-200,000	-0,001	0,088
-619,605	-23,919	-0,109	-0,048
-618,590	28,211	-0,082	-0,051
-617,576	50,227	0,071	-0,049
-616,561	100,361	0,071	0,061
-615,546	-200,000	-0,004	0,025
-614,532	-129,293	-0,008	-0,001
-613,517	97,611	-0,093	0,079
-612,503	-200,000	-0,012	0,074
-611,488	101,850	-0,044	-0,038
-610,474	33,834	-0,054	0,035
-609,459	-200,000	-0,013	0,046
-608,444	-200,000	0,017	0,115
-607,430	-200,000	0,002	-0,056
-606,415	-2,645	0,027	0,014
-605,401	213,545	-0,054	0,063
-604,386	96,076	0,085	0,071
-603,371	-148,192	-0,074	0,004
-602,357	-200,000	-0,008	0,130
-601,342	80,341	-0,046	-0,036
-600,328	-200,000	-0,046	-0,205
-599,313	367,279	-0,063	0,094
-598,298	-98,957	0,103	-0,019
-597,284	77,378	0,044	-0,034
-596,269	-200,000	-0,028	0,111
-595,255	-200,000	0,018	-0,068
-594,240	-77,818	-0,075	-0,019
-593,225	472,496	-0,042	-0,069
-592,211	60,014	-0,119	-0,086
-591,196	-200,000	0,037	0,137
-590,182	-200,000	-0,017	0,105
-589,167	577,868	0,101	0,181
-588,152	-200,000	0,009	0,095
-587,138	-200,000	-0,025	-0,090
-586,123	-200,000	-0,014	-0,158
-585,109	800,000	0,014	0,035
-584,094	157,906	-0,065	-0,066
-583,079	199,153	0,108	0,121
-582,065	-194,693	-0,149	0,001
-581,050	-200,000	0,011	-0,051
-580,036	-200,000	0,002	-0,076
-579,021	-3,980	-0,077	-0,039
-578,006	52,005	-0,054	-0,037
-576,992	800,000	0,024	-0,055
-575,977	-200,000	0,002	-0,058
-574,963	-79,168	0,074	0,018
-573,948	219,856	0,030	0,035
-572,934	361,386	0,092	0,136
-571,919	7,887	0,066	-0,036
-570,904	682,815	0,017	-0,032
-569,890	800,000	-0,046	-0,100
-568,875	-200,000	0,005	-0,122
-567,861	-155,662	0,092	-0,004
-566,846	148,686	-0,078	0,077
-565,831	733,799	0,029	-0,057
-564,817	-50,215	0,108	-0,037
-563,802	178,146	-0,056	0,060
-562,788	-62,126	0,069	-0,021
-561,773	42,571	-0,090	0,060
-560,758	9,326	0,141	0,078
-559,744	467,193	0,012	0,020
-558,729	46,258	0,053	0,036
-557,715	-153,329	-0,068	0,003
-556,700	-66,919	-0,148	0,043
-555,685	129,456	0,032	0,030
-554,671	-17,882	-0,064	0,029
-553,656	-172,406	0,139	-0,003
-552,642	103,381	0,077	0,066
-551,627	-85,112	0,152	0,035
-550,612	75,718	-0,076	-0,058
-549,598	800,000	0,052	0,137
-548,583	-200,000	-0,034	-0,149
-547,569	-27,727	-0,230	0,097
-546,554	45,195	-0,047	-0,031
-545,539	-102,625	0,031	-0,005
-544,525	174,506	-0,100	0,106
-543,510	-200,000	-0,007	0,030
-542,496	-149,885	-0,047	0,003
-541,481	-151,800	0,085	0,005
-540,466	-94,286	0,070	-0,014
-539,452	-42,044	0,060	-0,022
-538,437	45,030	0,007	-0,005
-537,423	-200,000	-0,008	0,140
-536,408	-25,217	0,028	0,012
-535,393	-200,000	-0,009	-0,078
-534,379	253,090	0,065	-0,081
-533,364	631,557	0,127	-0,237
-532,350	-100,253	-0,071	0,013
-531,335	-171,462	0,126	0,003
-530,321	-200,000	0,024	0,097
-529,306	25,965	0,046	-0,028
-528,291	553,983	0,087	-0,153
-527,277	-113,464	-0,167	-0,024
-526,262	39,071	0,072	-0,047
-525,248	3,877	-0,111	-0,059
-524,233	38,488	-0,021	0,013
-523,218	232,446	-0,073	0,088
-522,204	48,432	0,049	0,033
-521,189	-89,358	-0,088	0,019
-520,175	-200,000	-0,010	-0,077
-519,160	377,775	-0,101	-0,151
-518,145	-138,073	0,110	0,009
-517,131	-200,000	0,031	0,132
-516,116	800,000	0,039	0,122
-515,102	299,087	-0,024	-0,033
-514,087	170,673	0,045	-0,047
-513,072	146,815	-0,071	-0,069
-512,058	-200,000	0,035	-0,130
-511,043	-40,002	0,078	0,030
-510,029	186,535	0,065	0,071
-509,014	234,978	-0,087	-0,105
-507,999	732,660	0,028	0,055
-506,985	-77,027	0,053	0,013
-505,970	306,694	-0,041	-0,056
-504,956	-133,630	-0,056	0,005
-503,941	800,000	-0,075	-0,166
-502,926	-110,808	0,098	0,015
-501,912	-110,586	-0,164	0,024
-500,897	800,000	0,021	-0,055
-499,883	68,381	-0,104	0,077
-498,868	800,000	0,036	-0,108
-497,853	-200,000	0,011	-0,115
-496,839	731,652	-0,098	0,191
-495,824	-9,734	-0,031	-0,015
-494,810	-41,907	0,061	-0,023
-493,795	-122,907	0,097	-0,011
-492,781	-61,359	-0,092	-0,028
-491,766	175,701	-0,005	-0,005
-490,751	158,960	-0,037	0,038
-489,737	800,000	0,047	-0,146
-488,722	-200,000	0,000	-0,144
-487,708	-200,000	0,024	0,161
-486,693	480,841	-0,051	0,085
-485,678	-200,000	0,016	-0,077
-484,664	129,337	0,191	-0,179
-483,649	233,540	0,098	-0,117
-482,635	449,425	-0,059	-0,095
-481,620	800,000	0,020	-0,046
-480,605	-200,000	0,004	0,174
-479,591	246,138	0,041	-0,051
-478,576	64,348	0,109	0,080
-477,562	437,061	-0,070	-0,112
-476,547	-200,000	0,006	-0,108
-475,532	68,354	0,092	-0,069
-474,518	800,000	-0,024	-0,068
-473,503	6,088	0,108	0,058
-472,489	-200,000	0,016	0,054
-471,474	-120,908	-0,143	0,017
-470,459	109,340	0,150	-0,131
-469,445	800,000	-0,084	-0,187
-468,430	-19,116	-0,043	-0,019
-467,416	132,878	0,089	0,084
-466,401	149,917	0,107	0,106
-465,386	-200,000	0,026	0,137
-464,372	800,000	-0,026	0,076
-463,357	61,453	-0,052	0,038
-462,343	-200,000	-0,018	-0,144
-461,328	-11,958	-0,189	-0,090
-460,313	4,992	0,081	-0,043
-459,299	-200,000	0,003	0,087
-458,284	-200,000	0,005	0,063
-457,270	-200,000	0,046	-0,174
-456,255	406,136	0,016	0,025
-455,241	-71,378	-0,085	0,023
-454,226	-19,840	-0,093	-0,042
-453,211	-200,000	0,006	0,021
-452,197	553,863	-0,056	-0,099
-451,182	323,944	-0,066	-0,092
-450,168	-200,000	0,000	-0,091
-449,153	49,354	-0,115	-0,079
-448,138	-200,000	0,010	0,115
-447,124	800,000	-0,057	0,181
-446,109	-200,000	-0,030	-0,175
-445,095	104,060	-0,131	-0,112
-444,080	19,956	-0,122	0,072
-443,065	-178,400	0,108	0,002
-442,051	-31,700	0,140	0,057
-441,036	26,522	-0,078	-0,047
-440,022	105,351	0,026	-0,022
-439,007	-200,000	0,021	0,102
-437,992	102,034	-0,033	-0,028
-436,978	-200,000	-0,013	0,064
-435,963	-47,482	-0,117	-0,041
-434,949	-34,236	0,096	-0,038
-433,934	274,818	-0,069	-0,090
-432,919	117,925	0,073	0,065
-431,905	-107,047	-0,146	-0,023
-430,890	-32,814	0,126	-0,051
-429,876	326,789	0,031	0,043
-428,861	8,532	0,104	0,057
-427,846	-14,338	-0,069	0,032
-426,832	309,492	0,076	-0,104
-425,817	-200,000	-0,014	-0,056
-424,803	800,000	0,025	-0,054
-423,788	-74,016	-0,083	0,022
-422,773	-38,653	0,197	0,076
-421,759	40,025	-0,092	0,060
-420,744	-200,000	0,008	0,083
-419,730	509,614	-0,040	-0,068
-418,715	95,260	-0,021	-0,017
-417,701	406,736	-0,056	0,086
-416,686	-90,882	0,127	-0,026
-415,671	444,181	0,084	0,135
-414,657	71,971	0,088	-0,066
-413,642	-120,712	0,081	-0,010
-412,628	-200,000	0,013	-0,061
-411,613	52,312	-0,056	0,039
-410,598	-200,000	0,007	0,073
-409,584	-74,031	0,059	0,015
-408,569	-140,999	-0,100	-0,007
-407,555	747,945	-0,067	0,132
-406,540	-200,000	0,006	-0,060
-405,525	-84,839	0,127	0,029
-404,511	-41,364	-0,057	0,021
-403,496	-31,847	0,130	0,053
-402,482	800,000	-0,075	0,159
-401,467	-200,000	-0,004	0,020
-400,452	800,000	-0,034	-0,083
-399,438	-70,662	0,082	0,022
-398,423	-28,825	0,079	-0,033
-397,409	-62,784	-0,020	-0,006
-396,394	-200,000	0,007	-0,064
-395,379	800,000	0,024	0,069
-394,365	-10,037	-0,066	0,032
-393,350	-137,498	0,149	0,012
-392,336	203,067	0,028	0,031
-391,321	-31,040	0,083	-0,034
-390,306	800,000	-0,043	-0,133
-389,292	245,872	-0,021	-0,026
-388,277	-200,000	-0,005	0,096
-387,263	-200,000	-0,014	0,065
-386,248	56,729	-0,112	-0,079
-385,233	800,000	-0,007	-0,017
-384,219	-200,000	-0,012	-0,061
-383,204	290,195	0,011	-0,014
-382,190	119,405	0,081	-0,073
-381,175	-200,000	0,005	-0,118
-380,160	800,000	-0,011	0,026
-379,146	69,015	0,084	0,063
-378,131	78,169	0,035	0,027
-377,117	-147,684	0,083	-0,005
-376,102	-153,311	-0,040	-0,002
-375,088	178,379	-0,152	-0,161
-374,073	-200,000	0,006	-0,067
-373,058	-104,096	0,076	0,013
-372,044	-200,000	0,020	0,138
-371,029	30,115	-0,085	0,052
-370,015	245,416	-0,054	-0,067
-369,000	-200,000	-0,024	-0,157
-367,985	-56,855	-0,088	-0,028
-366,971	-200,000	0,047	-0,192
-365,956	-200,000	-0,002	-0,047
-364,942	23,897	0,127	0,076
-363,927	-139,314	-0,089	0,007
-362,912	-84,769	-0,136	0,031
-361,898	266,420	-0,048	0,061
-360,883	95,607	-0,041	-0,034
-359,869	40,344	0,028	0,018
-358,854	-200,000	-0,005	-0,126
-357,839	243,333	-0,041	-0,050
-356,825	-75,717	0,115	0,029
-355,810	800,000	-0,115	0,266
-354,796	-79,997	-0,027	-0,007
-353,781	4,910	-0,031	0,016
-352,766	680,640	0,038	0,071
-351,752	-44,790	0,119	0,043
-350,737	-200,000	0,014	0,094
-349,723	-157,906	-0,029	-0,001
-348,708	106,744	-0,044	0,038
-347,693	-177,678	-0,053	-0,001
-346,679	-80,797	0,186	0,045
-345,664	800,000	-0,028	-0,077
-344,650	-114,313	0,178	-0,025
-343,635	-120,482	0,115	-0,014
-342,620	-200,000	-0,004	0,116
-341,606	118,038	-0,050	-0,045
-340,591	180,306	0,033	0,035
-339,577	279,962	0,069	-0,089
-338,562	-200,000	-0,027	-0,115
-337,548	263,679	0,019	0,024
-336,533	-200,000	-0,005	0,021
-335,518	-153,644	-0,100	-0,005
-334,504	259,311	-0,056	0,070
-333,489	-54,261	0,065	-0,021
-332,475	800,000	-0,040	-0,082
-331,460	-68,509	-0,041	0,012
-330,445	-68,837	0,173	0,048
-329,431	404,597	-0,039	0,060
-328,416	-30,379	0,157	0,064
-327,402	695,754	0,052	0,099
-326,387	195,145	0,069	0,076
-325,372	-100,043	-0,267	-0,048
-324,358	-159,769	-0,056	-0,002
-323,343	-200,000	0,005	0,020
-322,329	-200,000	0,005	0,085
-321,314	-26,995	-0,099	0,042
-320,299	-200,000	0,019	-0,120
-319,285	-200,000	-0,016	0,060
-318,270	-3,852	-0,065	0,033
-317,256	177,844	-0,093	-0,099
-316,241	-56,532	0,139	-0,044
-315,226	41,739	0,023	-0,015
-314,212	-99,185	0,096	0,017
-313,197	440,179	0,039	0,063
-312,183	465,118	-0,034	0,056
-311,168	-76,864	-0,077	-0,019
-310,153	-200,000	-0,002	-0,046
-309,139	47,668	-0,049	-0,033
-308,124	-52,622	-0,092	0,031
-307,110	279,366	0,119	0,154
-306,095	360,754	0,083	0,121
-305,080	119,266	-0,050	-0,044
-304,066	-74,751	-0,145	-0,037
-303,051	-200,000	0,009	-0,031
-302,037	31,535	0,053	-0,033
-301,022	493,761	-0,112	-0,187
-300,008	800,000	-0,050	0,139
-298,993	12,519	0,063	0,035
-297,978	140,652	-0,100	-0,096
-296,964	-132,702	-0,023	-0,002
-295,949	151,543	-0,044	-0,044
-294,935	234,548	-0,030	0,036
-293,920	-29,405	-0,032	0,013
-292,905	-179,063	-0,070	-0,001
-291,891	69,035	0,112	0,083
-290,876	494,271	-0,015	0,025
-289,862	-44,009	-0,117	0,042
-288,847	800,000	-0,050	-0,106
-287,832	800,000	-0,038	0,090
-286,818	-200,000	-0,007	-0,082
-285,803	-66,145	0,155	0,045
-284,789	10,617	0,161	0,089
-283,774	-200,000	0,011	0,043
-282,759	-200,000	-0,007	0,136
-281,745	44,079	-0,044	0,029
-280,730	159,032	0,085	-0,085
-279,716	-172,297	-0,075	0,002
-278,701	-200,000	-0,012	0,070
-277,686	150,063	0,079	-0,078
-276,672	395,456	0,038	0,058
-275,657	-99,334	0,058	-0,011
-274,643	-200,000	-0,014	-0,077
-273,628	-116,556	-0,020	0,003
-272,613	-90,025	-0,079	-0,017
-271,599	-118,452	0,160	0,020
-270,584	156,353	0,091	-0,091
-269,570	-144,931	0,109	0,007
-268,555	171,745	-0,008	0,008
-267,540	24,314	-0,180	-0,108
-266,526	-141,792	-0,200	-0,014
-265,511	-164,430	-0,041	-0,001
-264,497	-14,081	0,174	-0,081
-263,482	-200,000	-0,030	0,169
-262,467	-77,244	0,037	-0,009
-261,453	-121,836	0,010	-0,001
-260,438	-200,000	0,007	-0,237
-259,424	89,550	-0,164	-0,133
-258,409	579,672	-0,052	-0,092
-257,395	-78,487	-0,175	0,043
-256,380	50,010	0,206	0,140
-255,365	96,448	0,102	-0,084
-254,351	131,987	-0,076	-0,071
-253,336	-18,875	0,008	0,003
-252,322	-101,713	-0,042	-0,007
-251,307	-200,000	0,001	0,047
-250,292	662,387	0,033	-0,062
-249,278	-200,000	0,001	-0,047
-248,263	-200,000	0,003	-0,136
-247,249	-43,735	-0,100	0,036
-246,234	-43,982	0,118	0,043
-245,219	-122,741	-0,095	-0,011
-244,205	518,776	-0,057	-0,097
-243,190	800,000	-0,016	-0,046
-242,176	306,535	0,046	0,063
-241,161	-43,176	0,088	-0,032
-240,146	-158,361	0,135	0,006
-239,132	94,547	-0,025	-0,021
-238,117	493,545	0,066	-0,109
-237,103	491,427	0,005	-0,007
-236,088	180,964	0,157	0,167
-235,073	-12,877	-0,010	-0,005
-234,059	51,452	0,071	0,049
-233,044	-2,390	-0,045	-0,023
-232,030	14,762	-0,178	0,100
-231,015	-38,284	0,019	0,007
-230,000	-141,202	0,029	0,002
-228,986	115,586	-0,128	0,113
-227,971	-200,000	0,006	-0,131
-226,957	645,330	0,024	0,045
-225,942	-200,000	0,006	0,159
-224,927	37,962	-0,014	-0,009
-223,913	51,883	-0,072	0,050
-222,898	-94,679	0,085	0,016
-221,884	-200,000	0,037	-0,165
-220,869	-200,000	0,003	-0,016
-219,855	-200,000	-0,026	0,106
-218,840	-200,000	0,006	0,099
-217,825	800,000	-0,037	0,084
-216,811	261,549	-0,054	0,068
-215,796	-200,000	0,008	0,061
-214,782	92,638	-0,035	0,029
-213,767	-200,000	0,012	0,145
-212,752	800,000	-0,034	0,079
-211,738	112,907	-0,058	0,051
-210,723	-200,000	0,042	-0,000
-209,709	776,349	0,038	0,075
-208,694	800,000	0,044	-0,119
-207,679	-87,365	0,034	-0,007
-206,665	525,714	-0,006	-0,010
-205,650	-33,591	0,053	0,021
-204,636	198,074	0,035	0,039
-203,621	-108,107	0,103	-0,016
-202,606	-200,000	0,026	0,094
-201,592	-105,594	-0,050	0,008
-200,577	-38,461	-0,050	-0,019
-199,563	-200,000	0,007	-0,050
-198,548	-200,000	-0,028	-0,101
-197,533	690,200	0,047	0,089
-196,519	-200,000	0,022	0,082
-195,504	-200,000	-0,001	0,131
-194,490	-126,254	-0,176	-0,019
-193,475	-132,477	-0,248	-0,023
-192,460	-20,873	-0,062	0,027
-191,446	-200,000	0,013	0,066
-190,431	95,580	0,032	0,026
-189,417	-6,958	0,029	0,014
-188,402	-200,000	0,003	-0,186
-187,387	-175,616	0,100	0,002
-186,373	31,449	-0,060	0,037
-185,358	-200,000	-0,013	0,054
-184,344	-200,000	0,005	0,044
-183,329	-49,813	0,098	0,034
-182,315	-65,745	0,113	-0,032
-181,300	-10,272	0,045	0,021
-180,285	-11,748	-0,032	-0,015
-179,271	796,540	-0,032	-0,064
-178,256	-123,285	0,086	-0,010
-177,242	-88,001	0,059	0,013
-176,227	23,578	0,202	-0,120
-175,212	-74,732	0,074	0,019
-174,198	-152,538	-0,048	0,002
-173,183	-200,000	0,007	-0,095
-172,169	-200,000	0,002	-0,299
-171,154	-140,862	-0,092	-0,007
-170,139	-89,411	0,128	-0,027
-169,125	82,314	0,148	0,116
-168,110	-200,000	0,016	0,207
-167,096	-200,000	0,022	0,071
-166,081	35,283	-0,063	0,040
-165,066	-153,602	-0,174	0,008
-164,052	96,725	-0,128	-0,105
-163,037	74,216	0,055	0,042
-162,023	-200,000	0,027	-0,120
-161,008	-39,271	0,130	-0,049
-159,993	-93,466	-0,047	0,009
-158,979	-27,580	-0,133	0,056
-157,964	-34,561	0,080	0,031
-156,950	33,383	-0,072	0,045
-155,935	-149,791	0,162	0,009
-154,920	116,571	-0,078	0,069
-153,906	360,567	-0,102	0,148
-152,891	-200,000	-0,025	0,081
-151,877	89,714	0,075	0,060
-150,862	68,457	0,094	0,069
-149,847	800,000	-0,040	0,083
-148,833	-196,057	-0,184	-0,001
-147,818	-185,995	0,180	-0,002
-146,804	800,000	-0,013	0,029
-145,789	206,251	0,077	0,087
-144,775	234,636	-0,095	0,114
-143,760	31,046	0,082	-0,051
-142,745	46,502	-0,057	-0,038
-141,731	220,914	0,086	-0,099
-140,716	447,304	0,120	0,190
-139,702	-16,806	-0,217	0,098
-138,687	279,280	0,073	0,094
-137,672	-122,233	-0,109	0,013
-136,658	-200,000	0,001	-0,106
-135,643	-200,000	-0,005	0,062
-134,629	-200,000	0,004	-0,015
-133,614	-69,382	-0,047	-0,013
-132,599	272,865	0,021	0,027
-131,585	-200,000	-0,032	0,136
-130,570	-62,695	0,089	-0,026
-129,556	134,613	-0,145	0,135
-128,541	-200,000	0,011	-0,072
-127,526	-168,834	-0,131	-0,003
-126,512	-60,472	0,054	-0,017
-125,497	546,238	0,062	0,106
-124,483	-52,622	0,118	-0,039
-123,468	800,000	-0,026	0,075
-122,453	772,475	0,028	0,055
-121,439	739,228	0,040	0,077
-120,424	-200,000	-0,005	0,072
-119,410	-159,062	-0,017	-0,001
-118,395	103,769	-0,037	-0,031
-117,380	800,000	-0,020	0,049
-116,366	-123,552	0,112	0,013
-115,351	-200,000	0,001	0,078
-114,337	275,518	0,091	0,116
-113,322	-36,565	0,096	0,037
-112,307	-25,456	-0,102	-0,043
-111,293	-200,000	-0,009	0,222
-110,278	227,213	0,063	0,074
-109,264	-32,120	0,060	0,024
-108,249	-119,663	-0,125	-0,015
-107,234	800,000	-0,015	-0,040
-106,220	-80,063	0,041	-0,010
-105,205	-83,190	-0,060	0,014
-104,191	-127,234	-0,042	0,004
-103,176	97,478	0,038	-0,031
-102,162	-164,139	-0,081	-0,003
-101,147	41,162	0,091	0,059
-100,132	-134,727	-0,125	0,011
-99,118	800,000	-0,050	0,128
-98,103	334,882	0,052	0,073
-97,089	-200,000	0,009	0,077
-96,074	755,048	0,025	-0,048
-95,059	-79,293	0,120	-0,029
-94,045	-200,000	-0,008	0,050
-93,030	800,000	0,015	-0,032
-92,016	307,071	-0,055	0,074
-91,001	-94,922	-0,081	-0,016
-89,986	-168,745	0,192	-0,005
-88,972	-200,000	0,018	0,095
-87,957	252,234	-0,072	0,088
-86,943	55,769	-0,049	0,034
-85,928	507,000	-0,063	-0,105
-84,913	76,052	0,040	0,031
-83,899	-200,000	0,005	-0,100
-82,884	800,000	0,095	0,199
-81,870	75,760	-0,119	0,090
-80,855	33,138	0,163	-0,101
-79,840	-200,000	0,007	-0,047
-78,826	-38,668	-0,150	-0,057
-77,811	6,953	0,050	-0,027
-76,797	307,486	0,080	0,108
-75,782	800,000	0,025	0,059
-74,767	-63,211	-0,071	0,021
-73,753	-200,000	-0,005	-0,033
-72,738	-124,110	-0,062	-0,007
-71,724	-155,835	0,050	0,002
-70,709	800,000	-0,063	-0,160
-69,694	146,939	-0,132	0,128
-68,680	562,022	0,060	0,105
-67,665	164,938	-0,079	-0,080
-66,651	800,000	-0,016	-0,033
-65,636	7,043	-0,107	-0,057
-64,622	-200,000	0,054	0,173
-63,607	-49,122	0,064	-0,022
-62,592	-200,000	-0,006	0,025
-61,578	23,440	-0,096	0,057
-60,563	600,967	0,041	0,073
-59,549	130,251	-0,096	0,088
-58,534	72,676	-2,684	-2,009
-57,519	28,269	0,529	-0,320
-56,505	-200,000	-1,633	-5,475
-55,490	542,016	1,217	2,091
-54,476	800,000	5,190	11,174
-53,461	-200,000	22,189	347,757
-52,446	800,000	760,225	2294,790
-51,432	513,213	1645,491	2764,341
-50,417	97,317	1608,891	1325,266
-49,403	65,222	1265,774	917,506
-48,388	22,985	1017,537	597,589
-47,373	19,317	985,017	566,368
-46,359	12,825	971,735	537,476
-45,344	8,620	968,535	521,907
-44,330	9,032	966,390	522,082
-43,315	8,034	964,839	517,961
-42,300	7,978	963,577	517,078
-41,286	8,043	962,671	516,785
-40,271	7,978	961,543	515,948
-39,257	7,962	960,762	515,456
-38,242	7,983	959,854	515,016
-37,227	7,968	959,063	514,521
-36,213	7,948	958,099	513,919
-35,198	7,967	957,444	513,611
-34,184	8,037	956,412	513,263
-33,169	7,934	955,571	512,457
-32,154	7,983	954,914	512,243
-31,140	8,048	953,805	511,838
-30,125	8,038	953,164	511,440
-29,111	7,989	952,371	510,838
-28,096	8,016	951,739	510,566
-27,082	7,988	951,085	510,105
-26,067	7,939	950,367	509,541
-25,052	7,937	949,516	509,059
-24,038	7,955	948,648	508,630
-23,023	7,928	948,011	508,180
-22,009	7,963	947,684	508,099
-20,994	8,024	946,911	507,860
-19,979	7,921	946,435	507,256
-18,965	7,980	945,495	506,918
-17,950	8,013	944,910	506,692
-16,936	7,937	944,392	506,149
-15,921	7,934	943,582	505,687
-14,906	7,908	942,769	505,148
-13,892	7,838	942,523	504,774
-12,877	7,874	941,726	504,439
-11,863	7,854	941,187	504,066
-10,848	7,831	940,706	503,718
-9,833	7,918	940,293	503,753
-8,819	7,905	939,524	503,278
-7,804	7,879	938,872	502,827
-6,790	7,833	938,397	502,407
-5,775	7,883	937,742	502,195
-4,760	7,916	937,034	501,901
-3,746	7,859	936,428	501,375
-2,731	7,662	936,015	500,511
-1,717	7,718	935,255	500,262
-0,702	7,810	934,269	500,005
0,313	7,496	933,891	499,565
1,327	10,863	931,611	508,920
2,342	19,348	779,937	448,310
3,356	14,357	447,893	249,913
4,371	-11,569	312,181	146,638
5,386	-15,429	294,717	134,521
6,400	-17,349	288,529	129,785
7,415	-17,624	286,116	128,418
8,429	-18,320	284,229	126,881
9,444	-18,287	283,132	126,411
10,459	-18,097	282,511	126,307
11,473	-18,405	282,035	125,785
12,488	-18,202	281,652	125,799
13,502	-18,195	281,029	125,516
14,517	-18,339	280,794	125,262
15,531	-18,427	280,140	124,874
16,546	-18,272	279,919	124,913
17,561	-18,089	279,395	124,844
18,575	-18,169	279,174	124,657
19,590	-18,070	278,682	124,521
20,604	-18,149	278,399	124,308
21,619	-18,195	278,143	124,139
22,634	-17,990	277,679	124,116
23,648	-17,990	277,367	123,965
24,663	-17,999	276,961	123,764
25,677	-18,010	276,638	123,599
26,692	-18,077	276,597	123,506
27,707	-18,175	276,250	123,246
28,721	-18,096	276,066	123,229
29,736	-17,967	275,670	123,163
30,750	-18,024	275,471	123,009
31,765	-18,139	275,214	122,775
32,780	-18,096	275,076	122,743
33,794	-18,074	274,659	122,566
34,809	-18,150	274,544	122,433
35,823	-18,192	274,340	122,292
36,838	-18,125	274,068	122,222
37,853	-17,918	273,631	122,211
38,867	-18,209	273,630	121,926
39,882	-18,067	273,173	121,844
40,896	-17,920	272,862	121,832
41,911	-17,966	272,655	121,686
42,926	-18,127	272,571	121,488
43,940	-18,100	272,313	121,387
44,955	-18,020	271,987	121,306
45,969	-18,192	271,840	121,069
46,984	-17,981	271,655	121,172
47,999	-17,739	271,391	121,268
49,013	-18,007	271,186	120,917
50,028	-17,898	270,882	120,871
51,042	-17,914	270,761	120,792
52,057	-17,960	270,472	120,610
53,071	-17,740	270,241	120,699
54,086	-17,845	270,054	120,508
55,101	-17,806	269,808	120,423
56,115	-17,927	269,475	120,152
57,130	-17,902	269,333	120,102
58,144	-17,944	269,029	119,917
59,159	-18,108	268,826	119,665
60,174	-18,116	268,483	119,494
61,188	-18,017	268,234	119,463
62,203	-18,112	268,145	119,326
63,217	-18,197	268,065	119,202
64,232	-18,121	267,648	119,076
65,247	-18,221	267,435	118,879
66,261	-17,953	267,081	118,955
67,276	-17,975	266,954	118,868
68,290	-18,038	266,816	118,739
69,305	-17,842	266,546	118,786
70,320	-17,933	266,292	118,580
71,334	-18,074	266,066	118,340
72,349	-17,939	265,843	118,353
73,363	-18,009	265,670	118,202
74,378	-18,218	265,423	117,893
75,393	-18,084	265,164	117,888
76,407	-18,147	265,101	117,793
77,422	-18,032	264,748	117,729
78,436	-18,035	264,394	117,559
79,451	-18,080	264,245	117,441
80,466	-18,042	264,070	117,387
81,480	-17,996	263,771	117,285
82,495	-17,908	263,596	117,276
83,509	-17,848	263,419	117,240
84,524	-18,002	263,284	117,032
85,539	-17,977	262,888	116,868
86,553	-17,932	262,812	116,864
87,568	-18,048	262,504	116,613
88,582	-17,843	262,432	116,754
89,597	-18,034	262,181	116,461
90,611	-17,894	261,931	116,465
91,626	-17,793	261,737	116,458
92,641	-18,067	261,495	116,096
93,655	-17,990	261,386	116,106
94,670	-17,999	261,124	115,971
95,684	-18,040	260,947	115,845
96,699	-18,166	260,776	115,648
97,714	-18,045	260,547	115,643
98,728	-17,945	260,369	115,642
99,743	-18,043	260,262	115,498
100,757	-17,818	260,042	115,589
101,772	-18,103	259,791	115,215
102,787	-18,028	259,512	115,147
103,801	-18,089	259,333	115,004
104,816	-18,018	259,063	114,937
105,830	-17,844	258,795	114,960
106,845	-17,837	258,804	114,960
107,860	-17,908	258,592	114,793
108,874	-17,856	258,265	114,684
109,889	-17,986	258,041	114,460
110,903	-17,845	257,709	114,426
111,918	-17,991	257,698	114,283
112,933	-18,034	257,481	114,139
113,947	-17,726	257,151	114,252
114,962	-17,777	256,900	114,085
115,976	-17,881	256,760	113,922
116,991	-18,004	256,694	113,775
118,006	-17,852	256,493	113,809
119,020	-17,919	256,222	113,620
120,035	-17,961	256,102	113,520
121,049	-18,084	256,043	113,377
122,064	-17,952	255,675	113,318
123,079	-17,920	255,588	113,297
124,093	-17,907	255,355	113,196
125,108	-17,913	255,134	113,082
126,122	-17,961	255,019	112,979
127,137	-17,825	254,746	112,966
128,151	-17,829	254,549	112,865
129,166	-17,910	254,351	112,697
130,181	-17,723	254,205	112,785
131,195	-17,906	254,005	112,528
132,210	-17,931	253,656	112,341
133,224	-17,952	253,473	112,232
134,239	-17,912	253,302	112,181
135,254	-18,116	253,227	111,963
136,268	-17,851	252,921	112,045
137,283	-17,687	252,700	112,077
138,297	-17,906	252,553	111,815
139,312	-18,144	252,494	111,575
140,327	-17,781	252,103	111,702
141,341	-18,046	252,045	111,440
142,356	-17,882	251,760	111,444
143,370	-17,867	251,512	111,337
144,385	-17,849	251,408	111,296
145,400	-18,119	251,241	110,982
146,414	-18,028	251,034	110,959
147,429	-18,032	250,712	110,803
148,443	-17,920	250,581	110,830
149,458	-17,858	250,475	110,827
150,473	-17,763	250,185	110,769
151,487	-17,862	250,188	110,676
152,502	-17,911	249,908	110,501
153,516	-17,949	249,620	110,331
154,531	-17,942	249,434	110,245
155,546	-18,087	249,293	110,051
156,560	-17,853	249,111	110,158
157,575	-17,826	248,904	110,080
158,589	-17,901	248,744	109,936
159,604	-17,842	248,497	109,867
160,619	-17,853	248,325	109,772
161,633	-18,055	248,084	109,485
162,648	-17,904	248,225	109,665
163,662	-17,976	248,050	109,517
164,677	-17,921	247,820	109,452
165,692	-18,005	247,632	109,289
166,706	-17,810	247,358	109,321
167,721	-17,802	247,228	109,261
168,735	-17,762	246,933	109,154
169,750	-18,020	246,799	108,870
170,764	-17,890	246,802	108,970
171,779	-18,029	246,581	108,746
172,794	-17,884	246,370	108,765
173,808	-17,948	246,249	108,649
174,823	-17,740	246,182	108,782
175,837	-17,814	245,865	108,571
176,852	-17,980	245,774	108,383
177,867	-17,948	245,627	108,335
178,881	-17,793	245,371	108,341
179,896	-17,743	245,069	108,240
180,910	-17,856	244,915	108,069
181,925	-17,934	244,902	107,989
182,940	-17,771	244,655	108,005
183,954	-17,716	244,426	107,940
184,969	-17,615	244,234	107,928
185,983	-17,962	244,207	107,621
186,998	-17,865	243,937	107,572
188,013	-17,903	243,801	107,472
189,027	-17,917	243,668	107,392
190,042	-17,948	243,338	107,212
191,056	-17,904	243,433	107,280
192,071	-17,994	242,998	107,004
193,086	-18,065	242,887	106,887
194,100	-17,860	242,705	106,966
195,115	-17,822	242,437	106,869
196,129	-17,883	242,256	106,730
197,144	-17,837	242,239	106,750
198,159	-17,824	241,781	106,550
199,173	-17,663	241,839	106,698
200,188	-17,912	241,623	106,390
201,202	-17,918	241,417	106,284
202,217	-17,938	241,297	106,206
203,232	-17,721	241,096	106,284
204,246	-17,816	240,762	106,051
205,261	-17,800	240,756	106,051
206,275	-16,445	241,301	107,385
207,290	-11,391	242,954	112,247
208,304	-5,589	244,849	117,888
209,319	-3,008	245,236	120,187
210,334	-2,607	245,361	120,567
211,348	-1,653	245,513	121,416
212,363	-1,151	245,574	121,848
213,377	-0,702	245,683	122,261
214,392	0,086	245,641	122,877
215,407	0,526	245,671	123,242
216,421	0,458	245,679	123,179
217,436	0,411	245,409	122,994
218,450	0,422	245,181	122,878
219,465	0,678	245,001	122,986
220,480	0,490	245,028	122,835
221,494	0,519	244,780	122,723
222,509	0,341	244,513	122,433
223,523	0,013	244,259	122,027
224,538	0,232	244,061	122,096
225,553	0,163	243,983	121,990
226,567	-0,191	243,857	121,628
227,582	0,190	243,631	121,815
228,596	-0,084	243,464	121,497
229,611	0,144	243,285	121,583
230,626	-0,048	243,109	121,328
231,640	0,023	242,870	121,255
232,655	-0,034	242,911	121,218
233,669	0,072	242,558	121,118
234,684	0,125	242,428	121,085
235,699	-0,040	242,227	120,840
236,713	0,003	242,094	120,798
237,728	0,025	241,993	120,754
238,742	-0,019	241,821	120,622
239,757	0,089	241,592	120,584
240,772	0,004	241,426	120,422
241,786	0,027	241,384	120,409
242,801	-0,043	241,291	120,296
243,815	-0,042	240,972	120,126
244,830	-0,013	240,858	120,082
245,844	0,125	240,655	120,081
246,859	0,078	240,548	119,979
247,874	0,048	240,502	119,921
248,888	0,077	240,121	119,744
249,903	0,124	240,203	119,812
250,917	0,276	239,851	119,747
251,932	0,242	239,915	119,741
252,947	0,277	239,601	119,602
253,961	-0,028	239,525	119,310
254,976	-0,111	239,380	119,161
255,990	0,162	239,148	119,252
257,005	0,192	238,948	119,166
258,020	0,081	238,868	119,026
259,034	0,085	238,718	118,945
260,049	0,168	238,543	118,913
261,063	0,182	238,319	118,801
262,078	0,236	238,222	118,785
263,093	0,095	238,066	118,585
264,107	0,194	237,826	118,534
265,122	-0,055	237,669	118,247
266,136	0,133	237,693	118,398
267,151	0,125	237,495	118,282
268,166	0,053	237,329	118,132
269,180	0,189	237,075	118,103
270,195	0,204	236,805	117,969
271,209	0,223	236,640	117,892
272,224	0,108	236,766	117,853
273,239	0,075	236,376	117,623
274,253	0,077	236,293	117,573
275,268	-0,053	236,137	117,382
276,282	0,137	236,030	117,468
277,297	-0,024	235,858	117,246
278,312	-0,010	235,752	117,193
279,326	0,143	235,601	117,228
280,341	0,320	235,403	117,257
281,355	0,305	235,363	117,215
282,370	0,230	235,276	117,103
283,384	0,042	234,987	116,801
284,399	0,183	234,854	116,835
285,414	0,368	234,799	116,942
286,428	0,284	234,560	116,747
287,443	0,046	234,418	116,480
288,457	0,174	234,242	116,482
289,472	0,169	234,067	116,381
290,487	-0,002	233,950	116,179
291,501	0,111	233,774	116,169
292,516	0,129	233,784	116,178
293,530	0,172	233,560	116,090
294,545	0,155	233,354	115,963
295,560	0,268	233,229	115,978
296,574	0,305	233,165	115,965
297,589	0,188	232,962	115,764
298,603	0,221	232,842	115,719
299,618	0,360	232,752	115,771
300,633	0,275	232,489	115,564
301,647	0,324	232,390	115,543
302,662	0,471	232,278	115,590
303,676	0,461	232,065	115,466
304,691	0,419	231,910	115,346
305,706	0,347	231,695	115,174
306,720	0,392	231,633	115,167
307,735	0,443	231,373	115,067
308,749	0,540	231,334	115,112
309,764	0,489	231,211	115,001
310,779	0,617	230,963	114,965
311,793	0,513	230,878	114,833
312,808	0,236	230,690	114,517
313,822	0,371	230,558	114,545
314,837	0,490	230,353	114,524
315,852	0,212	230,270	114,260
316,866	0,545	230,121	114,430
317,881	0,434	229,946	114,248
318,895	0,458	229,764	114,166
319,910	0,372	229,589	114,003
320,925	0,600	229,512	114,129
321,939	0,447	229,442	113,967
322,954	0,406	229,350	113,880
323,968	0,476	229,356	113,926
324,983	0,283	229,101	113,643
325,997	0,532	228,893	113,718
327,012	0,607	228,502	113,571
328,027	0,299	228,508	113,330
329,041	0,487	228,434	113,426
330,056	0,542	228,263	113,372
331,070	0,608	228,183	113,373
332,085	0,491	227,948	113,157
333,100	0,396	227,884	113,043
334,114	0,401	227,664	112,929
335,129	0,512	227,537	112,939
336,143	0,491	227,399	112,845
337,158	0,524	227,347	112,833
338,173	0,557	227,145	112,748
339,187	0,687	227,017	112,771
340,202	0,588	226,996	112,677
341,216	0,578	226,698	112,511
342,231	0,676	226,480	112,467
343,246	0,593	226,447	112,378
344,260	0,615	226,320	112,322
345,275	0,720	226,182	112,321
346,289	0,704	225,955	112,187
347,304	0,722	225,820	112,123
348,319	0,716	225,652	112,026
349,333	0,665	225,636	111,969
350,348	0,695	225,377	111,853
351,362	0,639	225,325	111,776
352,377	0,734	225,211	111,780
353,392	0,637	224,944	111,565
354,406	0,566	224,885	111,473
355,421	192,683	1310,440	1377,979
356,435	154,353	1442,546	1377,808
