DTS Sentinel unit serial number:	SN410029Multiplexer serial number:	ORYXHardware model number:	OX2-SRSoftware version number:	ORYX F/W v4,00 Oryx Data Collector v3.7.2.0data status	okinstallation	B5 Nyhavnadifferential loss correction	single-endedforward channel	channel 2reverse channel	N/Adate	2023/12/12time	19:47:13forward acquisition time	300,00reverse acquisition time	0,00gamma	499,1914k internal	0,3157k external	0,3157temperature offset calibration	1,0000default loss term (dB/km)	0,3820temperature slope calibration	1,0000multiplexer offset coefficient	1,0000multiplexer slope coefficient	1,0000fibre end	0,00T internal ref (°C)	15,43T ext. ref 1 (°C)	-1,24T ext. ref 2 (°C)	-1,55length (m)	temperature (°C)	Stokes	anti-Stokes-744,400	21,742	0,210	0,126
-743,385	-150,716	-0,275	-0,015
-742,371	62,996	0,098	0,072
-741,356	-72,222	-0,362	0,098
-740,342	-25,846	0,252	-0,109
-739,327	77,263	-0,132	-0,103
-738,312	-129,280	-0,068	0,007
-737,298	-105,912	-0,331	0,054
-736,283	155,026	0,094	-0,095
-735,269	-110,857	-0,277	-0,042
-734,254	-200,000	0,031	0,113
-733,239	-3,587	-0,572	-0,292
-732,225	-80,498	0,186	0,045
-731,210	7,838	-0,040	-0,022
-730,196	40,877	-0,039	-0,026
-729,181	-50,972	-0,012	-0,004
-728,167	-59,344	-0,147	-0,046
-727,152	-200,000	-0,003	0,056
-726,137	-200,000	-0,006	-0,022
-725,123	-200,000	-0,002	-0,105
-724,108	165,250	-0,054	-0,057
-723,094	-200,000	-0,035	-0,211
-722,079	-67,815	-0,085	0,024
-721,064	516,417	-0,046	-0,080
-720,050	-72,592	0,124	-0,034
-719,035	-72,464	-0,036	-0,010
-718,021	-200,000	0,017	-0,112
-717,006	194,515	-0,043	0,048
-715,991	-17,763	0,097	-0,045
-714,977	123,476	-0,037	-0,034
-713,962	-200,000	-0,032	-0,139
-712,948	87,009	-0,037	0,030
-711,933	169,524	-0,070	0,074
-710,918	-200,000	0,015	-0,122
-709,904	-157,187	-0,125	-0,005
-708,889	142,065	0,072	-0,070
-707,875	-23,031	-0,050	-0,022
-706,860	800,000	0,033	-0,093
-705,845	-61,235	-0,131	0,040
-704,831	-18,728	-0,109	0,050
-703,816	-200,000	0,010	-0,133
-702,802	-35,476	-0,159	-0,063
-701,787	-200,000	0,011	-0,150
-700,772	-40,272	-0,083	-0,032
-699,758	342,068	-0,016	0,023
-698,743	-200,000	0,024	0,118
-697,729	218,678	-0,054	-0,064
-696,714	96,188	0,093	-0,078
-695,699	603,059	-0,044	0,080
-694,685	704,615	-0,029	-0,057
-693,670	-53,568	0,061	-0,020
-692,656	129,012	0,101	0,095
-691,641	800,000	0,019	-0,052
-690,627	-200,000	0,004	0,072
-689,612	-93,636	-0,034	-0,007
-688,597	-200,000	-0,011	0,088
-687,583	588,556	-0,087	-0,158
-686,568	-73,473	0,079	-0,021
-685,554	-90,844	-0,129	0,027
-684,539	-200,000	-0,034	0,112
-683,524	107,644	-0,054	0,048
-682,510	38,027	-0,068	-0,045
-681,495	-54,044	-0,088	-0,029
-680,481	299,477	-0,091	-0,124
-679,466	-50,332	0,068	-0,023
-678,451	-200,000	-0,015	-0,067
-677,437	-84,486	-0,032	0,007
-676,422	48,046	-0,073	0,050
-675,408	800,000	0,012	0,029
-674,393	81,026	-0,041	-0,033
-673,378	639,507	-0,068	-0,129
-672,364	-88,165	0,114	0,025
-671,349	436,472	0,074	-0,119
-670,335	-148,737	-0,109	-0,006
-669,320	-74,356	-0,094	0,025
-668,305	233,026	0,110	0,133
-667,291	-158,793	-0,198	-0,008
-666,276	-200,000	-0,023	-0,079
-665,262	-200,000	-0,004	-0,065
-664,247	75,598	-0,136	-0,105
-663,232	326,954	0,134	-0,189
-662,218	800,000	0,024	0,074
-661,203	-107,948	0,111	0,018
-660,189	71,645	0,083	-0,063
-659,174	734,775	-0,018	-0,035
-658,159	-200,000	0,017	-0,069
-657,145	469,569	0,040	-0,067
-656,130	365,504	0,066	0,098
-655,116	-0,440	0,056	0,029
-654,101	-200,000	0,003	-0,052
-653,086	-67,639	-0,168	0,048
-652,072	178,028	-0,062	0,067
-651,057	40,593	-0,055	0,036
-650,043	344,017	-0,046	0,066
-649,028	-107,406	-0,062	0,010
-648,014	-200,000	0,009	-0,039
-646,999	-2,737	-0,067	-0,034
-645,984	-200,000	0,005	-0,108
-644,970	117,416	-0,092	-0,083
-643,955	-162,454	-0,110	-0,004
-642,941	-82,737	-0,067	-0,016
-641,926	-39,427	0,069	0,026
-640,911	228,916	0,061	-0,074
-639,897	298,687	-0,041	0,056
-638,882	-144,234	-0,072	-0,005
-637,868	-121,543	-0,187	-0,022
-636,853	-200,000	0,018	-0,130
-635,838	-200,000	-0,001	-0,057
-634,824	153,077	0,033	-0,033
-633,809	261,997	-0,053	0,068
-632,795	-200,000	0,014	-0,154
-631,780	-200,000	-0,009	0,159
-630,765	-45,602	-0,111	-0,040
-629,751	-60,122	-0,066	0,020
-628,736	12,269	0,094	-0,053
-627,722	-7,629	-0,041	0,020
-626,707	231,670	0,063	-0,076
-625,692	-77,808	-0,084	0,021
-624,678	709,050	0,058	0,114
-623,663	517,075	-0,029	-0,049
-622,649	180,181	-0,023	0,025
-621,634	800,000	0,026	0,073
-620,619	800,000	-0,044	-0,091
-619,605	800,000	-0,058	-0,171
-618,590	143,815	0,146	0,143
-617,576	-186,743	-0,057	-0,001
-616,561	22,900	0,079	0,048
-615,546	716,751	0,032	-0,062
-614,532	-42,381	-0,081	0,030
-613,517	-55,382	0,045	0,015
-612,503	-200,000	0,005	-0,019
-611,488	-191,864	0,057	0,000
-610,474	-91,916	0,206	-0,043
-609,459	-200,000	0,004	-0,147
-608,444	58,110	-0,077	0,055
-607,430	-200,000	0,004	0,189
-606,415	406,946	0,018	0,027
-605,401	-200,000	-0,009	0,056
-604,386	-200,000	-0,014	-0,087
-603,371	800,000	-0,013	0,039
-602,357	172,318	-0,014	0,015
-601,342	800,000	-0,023	-0,063
-600,328	-150,712	-0,169	-0,009
-599,313	29,184	0,070	0,044
-598,298	800,000	-0,015	0,041
-597,284	-200,000	0,009	-0,091
-596,269	-200,000	0,032	0,181
-595,255	-160,028	0,046	0,002
-594,240	800,000	-0,028	-0,058
-593,225	333,963	0,045	-0,064
-592,211	-134,459	-0,095	0,008
-591,196	490,291	0,031	-0,053
-590,182	459,628	0,022	0,036
-589,167	-200,000	0,011	-0,043
-588,152	614,392	0,040	0,073
-587,138	0,131	0,116	0,060
-586,123	63,275	-0,153	-0,112
-585,109	54,972	-0,087	-0,062
-584,094	-200,000	-0,015	0,077
-583,079	328,854	-0,026	0,036
-582,065	-97,964	0,063	0,012
-581,050	40,941	-0,066	-0,043
-580,036	-101,144	0,154	-0,027
-579,021	680,937	-0,046	-0,089
-578,006	198,263	-0,050	-0,056
-576,992	-78,761	0,166	0,041
-575,977	-156,703	-0,090	0,004
-574,963	152,833	0,060	0,060
-573,948	-200,000	-0,003	-0,101
-572,934	11,281	0,117	-0,065
-571,919	-23,714	-0,103	0,045
-570,904	20,097	0,046	0,027
-569,890	106,790	-0,047	0,041
-568,875	96,156	-0,055	0,046
-567,861	392,494	0,070	0,107
-566,846	-200,000	-0,007	-0,048
-565,831	147,935	-0,059	0,058
-564,817	533,999	-0,065	0,113
-563,802	611,043	-0,031	-0,057
-562,788	183,623	-0,021	0,023
-561,773	-200,000	0,001	0,033
-560,758	95,375	-0,077	0,065
-559,744	800,000	0,031	-0,084
-558,729	-167,788	-0,005	-0,000
-557,715	-200,000	0,033	-0,126
-556,700	-5,655	0,129	-0,064
-555,685	359,509	0,035	0,051
-554,671	-200,000	0,007	0,068
-553,656	-105,076	-0,051	0,008
-552,642	-200,000	-0,013	0,169
-551,627	683,056	0,042	0,081
-550,612	724,176	-0,030	-0,059
-549,598	-200,000	-0,021	-0,114
-548,583	-200,000	0,008	-0,169
-547,569	800,000	0,010	0,029
-546,554	-200,000	0,003	0,023
-545,539	168,337	0,050	0,052
-544,525	-98,326	-0,045	0,008
-543,510	-200,000	0,001	-0,076
-542,496	-200,000	-0,003	0,019
-541,481	41,190	-0,026	0,017
-540,466	201,624	0,023	0,026
-539,452	-200,000	-0,027	0,157
-538,437	484,216	0,028	0,046
-537,423	-57,423	-0,177	0,057
-536,408	-200,000	0,008	0,051
-535,393	800,000	-0,065	-0,139
-534,379	-200,000	-0,033	-0,148
-533,364	-59,565	-0,154	-0,048
-532,350	68,819	-0,018	-0,013
-531,335	-49,228	-0,081	-0,028
-530,321	403,045	-0,064	-0,099
-529,306	95,195	0,052	0,043
-528,291	65,146	-0,066	-0,049
-527,277	-34,049	-0,062	0,025
-526,262	-200,000	-0,008	0,047
-525,248	-75,872	-0,108	0,028
-524,233	-60,591	-0,024	0,007
-523,218	217,573	-0,077	0,090
-522,204	67,971	-0,073	-0,055
-521,189	-200,000	-0,023	-0,156
-520,175	-151,929	-0,110	-0,006
-519,160	507,993	-0,033	-0,056
-518,145	-200,000	0,002	-0,035
-517,131	-63,986	0,015	0,005
-516,116	-144,260	0,058	-0,004
-515,102	89,085	0,105	-0,085
-514,087	-200,000	0,204	-0,000
-513,072	409,511	0,105	-0,163
-512,058	-31,796	-0,076	0,031
-511,043	17,864	-0,104	-0,060
-510,029	22,379	0,167	0,099
-509,014	800,000	0,078	0,159
-507,999	800,000	-0,027	0,076
-506,985	-86,860	-0,177	-0,039
-505,970	800,000	-0,043	-0,096
-504,956	-200,000	0,031	-0,120
-503,941	322,904	-0,061	-0,084
-502,926	-200,000	-0,005	0,176
-501,912	800,000	-0,023	-0,054
-500,897	800,000	0,010	-0,032
-499,883	-95,933	0,034	0,007
-498,868	800,000	-0,035	-0,074
-497,853	35,634	-0,064	-0,041
-496,839	-200,000	0,014	0,071
-495,824	-62,513	0,208	0,063
-494,810	123,384	-0,022	0,021
-493,795	-200,000	0,022	0,109
-492,781	-100,025	-0,028	0,005
-491,766	-1,942	-0,043	-0,022
-490,751	253,249	0,082	0,102
-489,737	630,707	0,069	-0,129
-488,722	794,864	0,053	0,106
-487,708	-200,000	0,002	0,060
-486,693	415,260	-0,058	-0,090
-485,678	-200,000	-0,035	-0,149
-484,664	-34,712	0,051	-0,020
-483,649	-39,577	-0,076	-0,029
-482,635	800,000	0,040	-0,117
-481,620	-30,103	0,081	-0,033
-480,605	274,476	0,069	-0,090
-479,591	61,937	0,066	-0,048
-478,576	25,969	0,060	-0,036
-477,562	109,188	-0,100	-0,087
-476,547	-51,658	-0,055	-0,019
-475,532	800,000	-0,039	-0,103
-474,518	-117,637	0,023	0,003
-473,503	10,291	0,091	0,051
-472,489	-34,464	0,025	0,010
-471,474	800,000	-0,065	0,165
-470,459	55,461	-0,056	-0,039
-469,445	800,000	-0,104	-0,258
-468,430	33,713	0,055	-0,035
-467,416	-140,146	0,123	-0,009
-466,401	425,593	0,072	0,114
-465,386	153,557	0,074	-0,074
-464,372	-200,000	0,006	-0,146
-463,357	-45,151	-0,203	0,073
-462,343	495,897	0,064	-0,107
-461,328	734,065	0,024	0,047
-460,313	800,000	-0,041	-0,111
-459,299	-100,075	0,076	-0,014
-458,284	523,644	0,065	-0,112
-457,270	-5,452	-0,171	-0,085
-456,255	93,974	0,136	-0,112
-455,241	800,000	-0,014	-0,031
-454,226	-200,000	-0,003	-0,144
-453,211	-200,000	-0,028	-0,106
-452,197	-129,014	0,037	0,004
-451,182	-7,166	0,069	0,034
-450,168	245,277	-0,045	-0,056
-449,153	-75,186	0,029	0,007
-448,138	-200,000	0,014	-0,065
-447,124	729,635	-0,013	0,025
-446,109	463,580	0,021	0,034
-445,095	39,380	0,036	0,023
-444,080	58,193	-0,145	0,104
-443,065	433,660	-0,041	-0,065
-442,051	250,534	0,056	-0,070
-441,036	790,751	-0,021	-0,043
-440,022	9,257	-0,048	0,026
-439,007	-17,667	-0,123	-0,056
-437,992	157,603	0,123	0,124
-436,978	-200,000	0,014	-0,053
-435,963	-200,000	0,023	0,166
-434,949	-66,553	-0,130	0,037
-433,934	321,443	0,094	-0,131
-432,919	-200,000	-0,003	0,022
-431,905	-200,000	0,011	0,085
-430,890	153,550	0,058	0,058
-429,876	184,121	-0,087	-0,094
-428,861	359,604	-0,017	0,024
-427,846	-93,815	-0,084	0,017
-426,832	147,405	-0,024	-0,023
-425,817	-164,877	-0,169	0,005
-424,803	5,175	-0,046	0,025
-423,788	56,051	0,098	0,069
-422,773	290,340	0,025	-0,033
-421,759	-171,936	0,048	0,001
-420,744	800,000	0,067	-0,189
-419,730	800,000	-0,033	-0,072
-418,715	-49,728	0,107	0,037
-417,701	58,837	-0,119	-0,085
-416,686	161,339	-0,001	0,001
-415,671	-25,593	0,076	0,033
-414,657	-64,367	0,115	-0,034
-413,642	-137,399	-0,063	0,005
-412,628	293,358	0,063	-0,084
-411,613	55,341	-0,103	0,072
-410,598	-181,610	0,058	-0,001
-409,584	36,885	-0,023	0,015
-408,569	21,220	0,098	0,058
-407,555	-200,000	0,032	0,132
-406,540	-40,398	0,060	0,023
-405,525	-61,844	0,116	0,035
-404,511	-18,302	-0,103	0,046
-403,496	-47,979	0,043	-0,015
-402,482	53,281	-0,018	0,013
-401,467	5,760	-0,020	-0,011
-400,452	65,926	0,071	0,052
-399,438	499,919	-0,053	0,090
-398,423	800,000	0,009	0,020
-397,409	-200,000	-0,011	-0,075
-396,394	-22,364	-0,038	-0,017
-395,379	117,613	0,030	-0,027
-394,365	21,814	-0,048	-0,028
-393,350	800,000	0,081	0,171
-392,336	-200,000	-0,034	-0,185
-391,321	-200,000	-0,005	0,019
-390,306	-14,873	0,069	0,032
-389,292	716,686	0,019	-0,037
-388,277	288,859	-0,048	-0,064
-387,263	79,376	0,073	-0,057
-386,248	47,831	0,064	-0,043
-385,233	20,483	-0,075	-0,044
-384,219	-56,606	-0,026	-0,008
-383,204	-152,804	-0,079	0,004
-382,190	597,229	0,080	0,145
-381,175	-200,000	0,027	0,110
-380,160	-200,000	0,010	-0,076
-379,146	-200,000	0,007	0,083
-378,131	86,334	0,085	0,068
-377,117	-200,000	0,037	0,144
-376,102	55,219	0,016	0,011
-375,088	-200,000	-0,002	-0,165
-374,073	800,000	-0,014	0,035
-373,058	800,000	0,007	-0,022
-372,044	-98,839	0,079	0,015
-371,029	-67,541	0,094	-0,027
-370,015	-150,131	-0,106	0,006
-369,000	-102,177	-0,062	-0,011
-367,985	-200,000	-0,015	0,085
-366,971	-88,136	0,090	0,019
-365,956	-28,476	-0,160	0,067
-364,942	-90,160	0,109	-0,023
-363,927	-200,000	-0,023	0,139
-362,912	583,961	0,009	-0,016
-361,898	-200,000	-0,010	0,068
-360,883	-200,000	0,004	-0,085
-359,869	-29,320	0,090	-0,037
-358,854	-154,018	0,111	-0,005
-357,839	800,000	0,015	-0,034
-356,825	-101,465	0,020	-0,004
-355,810	186,127	-0,039	0,042
-354,796	-200,000	0,003	0,146
-353,781	-200,000	0,015	-0,060
-352,766	-43,386	-0,061	0,022
-351,752	-79,578	0,104	-0,025
-350,737	469,159	0,005	-0,008
-349,723	-158,186	-0,092	-0,004
-348,708	718,242	-0,036	-0,069
-347,693	-102,458	-0,028	-0,005
-346,679	-36,033	-0,081	0,031
-345,664	-200,000	0,020	-0,089
-344,650	-200,000	0,003	0,030
-343,635	-49,596	-0,023	0,008
-342,620	43,108	0,139	-0,092
-341,606	237,756	-0,004	-0,004
-340,591	-200,000	0,003	-0,084
-339,577	-200,000	-0,029	0,109
-338,562	-115,776	-0,089	-0,012
-337,548	83,623	0,066	0,052
-336,533	-117,774	-0,024	0,003
-335,518	127,693	0,099	-0,091
-334,504	-148,511	-0,134	0,008
-333,489	-200,000	-0,030	-0,097
-332,475	-21,246	-0,122	-0,054
-331,460	-200,000	0,010	-0,037
-330,445	800,000	-0,040	0,120
-329,431	-27,657	-0,058	-0,024
-328,416	110,532	0,107	0,094
-327,402	500,160	-0,063	0,105
-326,387	594,052	-0,024	0,042
-325,372	125,860	-0,035	0,032
-324,358	12,510	-0,122	-0,068
-323,343	138,324	-0,063	-0,060
-322,329	-200,000	-0,000	0,030
-321,314	-200,000	0,008	0,049
-320,299	616,394	0,066	-0,121
-319,285	-97,359	-0,111	0,021
-318,270	-57,311	-0,046	0,015
-317,256	161,655	-0,111	0,113
-316,241	97,678	0,099	-0,082
-315,226	-200,000	0,006	0,039
-314,212	17,820	0,118	0,068
-313,197	-200,000	-0,027	0,089
-312,183	-200,000	0,011	0,133
-311,168	564,076	-0,101	0,179
-310,153	-137,524	-0,140	-0,011
-309,139	338,644	-0,089	-0,125
-308,124	-21,822	0,155	-0,068
-307,110	-109,797	-0,053	0,008
-306,095	800,000	0,065	0,138
-305,080	300,785	0,022	0,029
-304,066	336,071	-0,033	0,047
-303,051	258,628	-0,104	0,130
-302,037	88,431	-0,028	-0,023
-301,022	150,121	-0,048	-0,047
-300,008	41,107	-0,052	0,034
-298,993	-200,000	0,004	0,043
-297,978	800,000	-0,009	0,028
-296,964	377,152	-0,011	0,016
-295,949	-200,000	0,022	-0,098
-294,935	18,773	-0,089	-0,052
-293,920	9,616	0,021	-0,011
-292,905	-200,000	0,019	0,122
-291,891	-200,000	0,006	0,071
-290,876	223,284	-0,015	-0,018
-289,862	-7,622	-0,078	-0,038
-288,847	-140,812	-0,017	0,001
-287,832	-200,000	0,004	0,198
-286,818	73,486	-0,060	-0,046
-285,803	-176,479	-0,102	0,002
-284,789	-200,000	0,010	-0,061
-283,774	-200,000	0,006	0,067
-282,759	800,000	-0,009	0,020
-281,745	-200,000	-0,004	0,036
-280,730	-200,000	-0,010	0,105
-279,716	-71,900	0,194	-0,052
-278,701	-200,000	0,034	0,110
-277,686	17,924	0,053	-0,031
-276,672	-200,000	0,007	0,159
-275,657	-200,000	-0,001	0,016
-274,643	-29,132	0,085	0,035
-273,628	-172,481	0,090	-0,002
-272,613	-72,402	0,060	0,016
-271,599	181,880	0,125	0,134
-270,584	206,407	0,076	0,085
-269,570	-200,000	-0,009	-0,041
-268,555	-166,585	-0,054	0,002
-267,540	407,704	0,087	-0,134
-266,526	180,757	0,087	-0,093
-265,511	-160,705	-0,051	-0,002
-264,497	-200,000	0,027	0,105
-263,482	-200,000	0,001	0,016
-262,467	118,781	-0,046	0,041
-261,453	26,337	-0,018	0,011
-260,438	320,191	0,073	0,101
-259,424	-141,346	-0,042	0,003
-258,409	88,038	0,145	-0,116
-257,395	43,545	-0,030	-0,020
-256,380	-168,412	0,118	0,003
-255,365	-200,000	0,043	0,200
-254,351	76,045	-0,118	-0,090
-253,336	800,000	0,011	-0,029
-252,322	266,938	-0,039	-0,050
-251,307	-98,858	-0,113	0,021
-250,292	-83,500	0,040	-0,009
-249,278	-200,000	-0,021	0,158
-248,263	21,500	0,170	0,100
-247,249	-166,593	0,074	0,002
-246,234	-63,891	-0,067	-0,020
-245,219	348,900	-0,068	-0,097
-244,205	-200,000	0,015	-0,103
-243,190	-123,039	0,114	-0,013
-242,176	468,640	-0,071	-0,115
-241,161	99,387	0,107	-0,089
-240,146	-200,000	-0,026	0,091
-239,132	79,561	-0,127	-0,099
-238,117	191,146	-0,084	0,091
-237,103	-200,000	0,019	-0,130
-236,088	800,000	0,035	-0,081
-235,073	-200,000	-0,015	-0,048
-234,059	48,599	-0,089	-0,061
-233,044	31,319	0,035	0,022
-232,030	-200,000	-0,027	-0,142
-231,015	-200,000	-0,013	-0,078
-230,000	-136,752	0,078	-0,006
-228,986	-61,972	-0,058	-0,017
-227,971	800,000	0,060	-0,141
-226,957	800,000	0,050	-0,118
-225,942	-200,000	0,019	0,188
-224,927	250,965	0,072	0,089
-223,913	6,796	0,048	-0,026
-222,898	137,967	0,034	-0,032
-221,884	-146,874	0,075	-0,005
-220,869	-110,535	0,150	0,022
-219,855	800,000	-0,024	-0,053
-218,840	-112,255	0,077	-0,011
-217,825	800,000	0,056	0,120
-216,811	-13,103	-0,111	0,052
-215,796	-200,000	0,005	0,022
-214,782	800,000	-0,025	0,064
-213,767	-135,585	0,058	-0,005
-212,752	-128,156	0,147	-0,015
-211,738	74,414	0,029	0,022
-210,723	-200,000	-0,025	0,118
-209,709	-92,132	-0,027	0,005
-208,694	-36,117	-0,064	0,025
-207,679	648,008	-0,068	0,125
-206,665	-19,737	0,103	0,046
-205,650	-200,000	0,027	-0,111
-204,636	52,007	0,087	0,059
-203,621	188,387	0,008	-0,008
-202,606	-33,246	-0,098	-0,039
-201,592	-200,000	0,030	-0,125
-200,577	800,000	0,032	-0,075
-199,563	-129,833	0,071	0,007
-198,548	427,132	-0,048	0,075
-197,533	-72,700	0,155	0,041
-196,519	-200,000	-0,005	0,073
-195,504	-200,000	0,012	0,145
-194,490	37,435	0,023	0,015
-193,475	800,000	0,035	-0,073
-192,460	112,248	-0,019	0,017
-191,446	-46,844	-0,028	0,010
-190,431	800,000	0,032	-0,078
-189,417	-200,000	-0,003	0,113
-188,402	133,086	-0,030	0,028
-187,387	-68,707	-0,021	-0,006
-186,373	228,098	0,035	0,041
-185,358	-200,000	-0,011	0,068
-184,344	-200,000	0,011	0,134
-183,329	-143,356	0,196	-0,013
-182,315	-200,000	-0,048	0,195
-181,300	-200,000	-0,023	0,131
-180,285	147,187	0,103	-0,100
-179,271	-200,000	-0,009	-0,176
-178,256	284,728	-0,068	0,089
-177,242	-200,000	-0,056	0,180
-176,227	97,109	0,164	0,136
-175,212	-51,667	-0,129	0,043
-174,198	274,260	-0,076	-0,097
-173,183	-200,000	-0,010	-0,038
-172,169	543,833	-0,062	-0,107
-171,154	800,000	-0,051	-0,118
-170,139	-200,000	-0,001	0,065
-169,125	96,708	0,057	-0,047
-168,110	800,000	0,032	0,100
-167,096	-200,000	-0,011	-0,055
-166,081	-200,000	-0,004	0,038
-165,066	-54,422	-0,023	0,008
-164,052	-23,734	-0,112	0,048
-163,037	34,682	0,136	0,086
-162,023	50,923	-0,030	-0,021
-161,008	-200,000	-0,013	-0,051
-159,993	28,825	-0,055	-0,034
-158,979	-156,993	0,106	0,005
-157,964	-200,000	-0,018	-0,082
-156,950	170,841	-0,087	0,090
-155,935	-200,000	0,012	-0,065
-154,920	15,505	0,072	-0,041
-153,906	342,051	-0,065	0,091
-152,891	-97,730	-0,065	-0,012
-151,877	309,213	0,070	-0,094
-150,862	108,650	-0,127	-0,109
-149,847	-200,000	-0,001	-0,021
-148,833	800,000	-0,021	-0,055
-147,818	93,493	0,021	-0,017
-146,804	17,972	-0,036	-0,021
-145,789	405,806	-0,044	-0,068
-144,775	-200,000	-0,020	-0,175
-143,760	343,431	-0,067	0,095
-142,745	77,776	-0,077	-0,059
-141,731	-98,259	0,064	0,012
-140,716	7,723	-0,017	0,009
-139,702	-32,482	0,077	-0,031
-138,687	74,429	-0,100	-0,076
-137,672	485,298	-0,037	0,061
-136,658	-44,759	-0,070	0,025
-135,643	-200,000	0,009	-0,181
-134,629	337,829	0,076	0,107
-133,614	659,497	-0,050	-0,094
-132,599	-200,000	-0,032	-0,120
-131,585	-87,660	0,176	0,038
-130,570	-200,000	0,051	-0,181
-129,556	-200,000	0,021	-0,096
-128,541	22,316	-0,050	-0,029
-127,526	770,145	-0,010	-0,019
-126,512	-200,000	-0,020	-0,083
-125,497	171,546	0,085	0,088
-124,483	-19,880	0,121	-0,053
-123,468	319,016	-0,132	-0,181
-122,453	-200,000	-0,023	-0,105
-121,439	-200,000	-0,013	-0,138
-120,424	214,451	0,055	-0,063
-119,410	-51,239	0,071	0,024
-118,395	50,776	-0,055	0,038
-117,380	-200,000	-0,011	0,038
-116,366	-191,372	0,025	0,000
-115,351	217,600	-0,025	0,029
-114,337	-131,005	-0,106	0,010
-113,322	38,238	0,108	0,069
-112,307	-24,643	-0,075	-0,032
-111,293	125,102	0,204	0,185
-110,278	455,969	0,011	0,018
-109,264	-90,366	-0,085	-0,018
-108,249	99,101	0,096	0,080
-107,234	-58,774	-0,112	-0,035
-106,220	164,095	-0,064	0,065
-105,205	101,660	0,109	0,091
-104,191	160,228	-0,027	-0,027
-103,176	-200,000	0,017	-0,067
-102,162	-66,176	0,082	-0,023
-101,147	-200,000	0,007	-0,026
-100,132	-88,614	-0,181	0,038
-99,118	762,181	0,088	0,172
-98,103	507,726	-0,020	-0,034
-97,089	800,000	0,031	0,084
-96,074	2,067	0,036	0,019
-95,059	-200,000	0,005	-0,145
-94,045	800,000	-0,019	0,054
-93,030	-200,000	-0,013	-0,101
-92,016	-200,000	0,001	-0,085
-91,001	79,558	-0,057	0,044
-89,986	-154,843	0,197	-0,009
-88,972	67,098	0,053	0,039
-87,957	18,843	-0,196	0,112
-86,943	-53,098	0,064	-0,021
-85,928	40,264	-0,022	-0,014
-84,913	-117,273	-0,096	-0,012
-83,899	117,723	-0,125	-0,110
-82,884	257,475	-0,022	-0,028
-81,870	99,265	-0,074	-0,061
-80,855	184,536	0,065	0,070
-79,840	-200,000	0,018	-0,154
-78,826	800,000	0,026	-0,070
-77,811	147,551	-0,084	0,082
-76,797	-113,066	-0,068	-0,009
-75,782	-56,173	0,193	-0,061
-74,767	800,000	0,043	-0,126
-73,753	800,000	-0,014	-0,035
-72,738	-76,771	0,102	0,026
-71,724	105,484	-0,170	-0,145
-70,709	-200,000	-0,012	-0,040
-69,694	242,026	-0,033	-0,040
-68,680	-92,044	0,102	0,021
-67,665	-200,000	0,000	0,146
-66,651	-200,000	0,003	0,114
-65,636	-22,641	0,075	-0,032
-64,622	730,716	-0,047	0,091
-63,607	-67,287	0,052	0,015
-62,592	-200,000	0,036	-0,133
-61,578	-118,880	0,176	0,022
-60,563	404,540	0,067	-0,102
-59,549	89,479	-0,064	0,051
-58,534	-0,093	-1,942	-0,989
-57,519	800,000	-0,292	-0,889
-56,505	-200,000	-1,298	-5,027
-55,490	14,579	0,840	0,470
-54,476	800,000	5,238	12,029
-53,461	-200,000	17,561	284,108
-52,446	800,000	727,333	2216,415
-51,432	535,177	1642,823	2807,249
-50,417	109,970	1632,778	1405,831
-49,403	74,988	1285,710	971,118
-48,388	32,043	1027,421	634,209
-47,373	20,169	989,395	571,585
-46,359	18,476	977,521	559,149
-45,344	15,778	973,518	548,008
-44,330	15,965	971,897	547,685
-43,315	15,532	970,022	545,194
-42,300	15,467	969,093	544,439
-41,286	15,448	968,047	543,768
-40,271	15,461	966,844	543,112
-39,257	15,472	966,050	542,682
-38,242	15,416	965,263	542,036
-37,227	15,489	964,452	541,794
-36,213	15,421	963,902	541,244
-35,198	15,427	962,618	540,519
-34,184	15,482	962,085	540,378
-33,169	15,394	961,179	539,564
-32,154	15,539	960,177	539,448
-31,140	15,488	959,178	538,701
-30,125	15,500	958,329	538,241
-29,111	15,453	957,641	537,681
-28,096	15,459	957,032	537,338
-27,082	15,497	956,446	537,111
-26,067	15,469	955,613	536,532
-25,052	15,446	954,767	535,960
-24,038	15,452	954,185	535,632
-23,023	15,425	953,629	535,212
-22,009	15,429	952,954	534,825
-20,994	15,455	952,121	534,420
-19,979	15,510	951,579	534,269
-18,965	15,490	950,936	533,823
-17,950	15,495	950,432	533,536
-16,936	15,420	949,811	532,925
-15,921	15,444	949,006	532,529
-14,906	15,354	948,488	531,930
-13,892	15,392	947,788	531,637
-12,877	15,335	947,086	531,043
-11,863	15,293	946,410	530,507
-10,848	15,351	945,737	530,295
-9,833	15,432	945,474	530,384
-8,819	15,436	944,713	529,949
-7,804	15,371	944,165	529,414
-6,790	15,371	943,776	529,175
-5,775	15,401	943,040	528,836
-4,760	15,388	942,456	528,445
-3,746	15,305	941,954	527,881
-2,731	15,247	940,977	527,130
-1,717	15,138	940,459	526,472
-0,702	15,159	939,784	526,140
0,313	14,960	939,154	525,953
1,327	18,187	937,085	534,916
2,342	27,225	794,010	477,183
3,356	23,696	459,197	270,544
4,371	-3,369	315,053	156,789
5,386	-7,619	296,776	143,371
6,400	-9,555	290,601	138,450
7,415	-10,083	288,275	136,809
8,429	-10,104	286,726	136,040
9,444	-10,261	285,908	135,487
10,459	-10,069	285,412	135,427
11,473	-10,025	284,743	135,141
12,488	-10,125	284,310	134,826
13,502	-10,105	283,656	134,523
14,517	-10,164	283,440	134,352
15,531	-9,916	282,939	134,343
16,546	-10,091	282,673	134,034
17,561	-9,947	282,056	133,869
18,575	-9,951	281,877	133,768
19,590	-9,998	281,307	133,440
20,604	-10,000	281,124	133,340
21,619	-9,988	280,771	133,173
22,634	-9,982	280,515	133,045
23,648	-10,012	280,118	132,816
24,663	-10,103	279,842	132,587
25,677	-10,179	279,682	132,425
26,692	-10,039	279,391	132,410
27,707	-10,044	279,057	132,234
28,721	-10,068	278,751	132,055
29,736	-10,115	278,505	131,882
30,750	-10,177	278,296	131,712
31,765	-10,147	278,106	131,640
32,780	-10,015	277,795	131,606
33,794	-9,988	277,534	131,496
34,809	-10,066	277,314	131,306
35,823	-10,046	277,087	131,205
36,838	-10,126	276,573	130,875
37,853	-10,104	276,577	130,886
38,867	-10,206	276,312	130,653
39,882	-9,973	275,948	130,689
40,896	-10,246	275,800	130,350
41,911	-10,231	275,642	130,278
42,926	-10,204	275,423	130,187
43,940	-10,133	275,104	130,093
44,955	-10,224	274,756	129,831
45,969	-10,071	274,554	129,867
46,984	-10,355	274,359	129,497
47,999	-10,412	273,938	129,234
49,013	-10,616	273,757	128,946
50,028	-10,779	273,610	128,714
51,042	-10,876	273,330	128,480
52,057	-10,787	272,931	128,364
53,071	-10,900	272,962	128,262
54,086	-10,795	272,686	128,218
55,101	-10,507	272,511	128,392
56,115	-10,461	272,436	128,388
57,130	-10,077	272,174	128,609
58,144	-9,993	271,995	128,591
59,159	-9,914	271,777	128,550
60,174	-10,016	271,603	128,362
61,188	-9,956	271,387	128,304
62,203	-9,993	271,161	128,151
63,217	-9,930	270,965	128,105
64,232	-9,823	270,459	127,953
65,247	-9,907	270,334	127,805
66,261	-9,939	270,210	127,706
67,276	-10,189	269,888	127,312
68,290	-10,388	269,745	127,050
69,305	-10,345	269,292	126,866
70,320	-10,256	269,093	126,842
71,334	-10,063	269,103	127,012
72,349	-9,869	268,885	127,076
73,363	-9,949	268,590	126,852
74,378	-10,043	268,359	126,646
75,393	-9,950	268,338	126,709
76,407	-9,983	268,003	126,510
77,422	-9,975	267,703	126,364
78,436	-10,102	267,525	126,153
79,451	-9,947	267,267	126,161
80,466	-10,037	267,145	126,010
81,480	-10,251	266,919	125,698
82,495	-10,126	266,676	125,686
83,509	-10,137	266,492	125,578
84,524	-10,101	266,275	125,497
85,539	-10,293	265,970	125,168
86,553	-10,214	265,767	125,134
87,568	-10,376	265,556	124,877
88,582	-10,131	265,468	125,045
89,597	-10,044	265,144	124,959
90,611	-10,093	265,057	124,864
91,626	-10,165	264,970	124,746
92,641	-10,075	264,775	124,725
93,655	-10,070	264,546	124,610
94,670	-10,310	264,294	124,265
95,684	-10,036	263,993	124,358
96,699	-10,149	263,852	124,180
97,714	-10,048	263,540	124,112
98,728	-10,075	263,370	123,997
99,743	-10,198	263,236	123,813
100,757	-10,279	262,981	123,609
101,772	-10,157	262,934	123,685
102,787	-10,226	262,642	123,475
103,801	-10,073	262,454	123,512
104,816	-10,095	262,288	123,403
105,830	-10,105	262,191	123,337
106,845	-9,872	261,924	123,408
107,860	-9,990	261,726	123,199
108,874	-10,166	261,437	122,896
109,889	-10,035	261,239	122,908
110,903	-10,123	261,116	122,762
111,918	-9,953	260,740	122,724
112,933	-10,056	260,599	122,556
113,947	-9,812	260,436	122,683
114,962	-10,018	260,409	122,478
115,976	-9,944	260,173	122,421
116,991	-10,079	259,892	122,160
118,006	-10,178	259,829	122,031
119,020	-10,007	259,771	122,144
120,035	-10,051	259,506	121,970
121,049	-10,129	259,323	121,804
122,064	-10,096	259,065	121,702
123,079	-10,101	258,850	121,584
124,093	-9,914	258,657	121,647
125,108	-9,976	258,337	121,432
126,122	-10,341	258,262	121,066
127,137	-10,516	258,037	120,797
128,151	-10,452	257,843	120,751
129,166	-10,141	257,673	120,932
130,181	-10,273	257,411	120,684
131,195	-10,355	257,205	120,505
132,210	-10,108	257,100	120,659
133,224	-10,117	256,921	120,557
134,239	-10,115	256,682	120,436
135,254	-9,918	256,456	120,491
136,268	-10,096	256,356	120,278
137,283	-10,310	256,132	119,976
138,297	-10,352	255,921	119,831
139,312	-10,348	255,589	119,668
140,327	-10,289	255,508	119,670
141,341	-9,905	255,309	119,898
142,356	-9,932	255,203	119,815
143,370	-9,905	255,054	119,757
144,385	-9,736	254,805	119,776
145,400	-9,768	254,741	119,707
146,414	-9,988	254,665	119,471
147,429	-9,918	254,462	119,425
148,443	-10,093	254,252	119,166
149,458	-9,889	253,848	119,141
150,473	-9,916	253,862	119,113
151,487	-10,003	253,674	118,940
152,502	-9,919	253,385	118,867
153,516	-9,920	253,225	118,780
154,531	-9,894	253,032	118,701
155,546	-9,958	252,904	118,575
156,560	-9,833	252,605	118,531
157,575	-10,085	252,423	118,221
158,589	-9,979	252,379	118,279
159,604	-9,700	252,117	118,384
160,619	-9,974	251,925	118,050
161,633	-9,829	251,882	118,142
162,648	-9,954	251,692	117,937
163,662	-9,879	251,546	117,921
164,677	-9,947	251,446	117,807
165,692	-9,959	251,225	117,683
166,706	-9,941	250,999	117,581
167,721	-9,817	250,807	117,586
168,735	-9,706	250,555	117,551
169,750	-9,804	250,625	117,490
170,764	-9,835	250,256	117,281
171,779	-9,752	250,157	117,294
172,794	-9,798	249,937	117,142
173,808	-10,048	249,949	116,926
174,823	-10,110	249,411	116,612
175,837	-10,446	249,310	116,272
176,852	-10,229	249,311	116,444
177,867	-9,933	249,148	116,606
178,881	-9,716	248,900	116,662
179,896	-9,841	248,963	116,576
180,910	-9,930	248,718	116,377
181,925	-9,815	248,521	116,370
182,940	-9,781	248,387	116,326
183,954	-9,815	248,200	116,199
184,969	-9,865	248,071	116,087
185,983	-9,763	247,797	116,034
186,998	-9,893	247,700	115,869
188,013	-9,773	247,476	115,853
189,027	-9,850	247,265	115,681
190,042	-9,703	247,070	115,701
191,056	-9,684	246,801	115,581
192,071	-9,877	246,790	115,404
193,086	-9,830	246,630	115,359
194,100	-9,779	246,323	115,247
195,115	-9,685	246,135	115,227
196,129	-9,938	246,099	114,991
197,144	-9,901	245,697	114,822
198,159	-10,040	245,720	114,709
199,173	-9,711	245,442	114,840
200,188	-9,887	245,308	114,622
201,202	-10,395	245,171	114,128
202,217	-10,152	244,630	114,067
203,232	-10,290	244,486	113,876
204,246	-9,832	244,363	114,184
205,261	-9,660	244,429	114,347
206,275	-11,042	243,727	112,875
207,290	-7,652	245,207	116,345
208,304	0,284	247,608	124,063
209,319	3,969	248,805	127,714
210,334	4,287	248,964	128,049
211,348	4,453	248,747	128,063
212,363	4,840	248,661	128,329
213,377	4,973	248,517	128,353
214,392	4,821	248,278	128,092
215,407	4,763	248,114	127,949
216,421	4,713	248,023	127,849
217,436	4,942	247,697	127,859
218,450	4,989	247,663	127,869
219,465	4,659	247,586	127,545
220,480	4,437	247,234	127,170
221,494	4,476	246,992	127,066
222,509	4,415	246,977	126,997
223,523	4,331	246,621	126,733
224,538	4,152	246,360	126,441
225,553	4,118	246,317	126,380
226,567	4,416	246,129	126,516
227,582	4,390	245,989	126,412
228,596	4,605	245,832	126,495
229,611	4,122	245,609	125,974
230,626	4,037	245,415	125,795
231,640	4,175	245,230	125,801
232,655	4,175	245,261	125,805
233,669	4,157	244,895	125,592
234,684	3,952	244,796	125,363
235,699	4,309	244,842	125,666
236,713	4,668	244,538	125,791
237,728	4,177	244,350	125,284
238,742	4,024	244,174	125,058
239,757	4,027	244,008	124,964
240,772	4,148	243,797	124,944
241,786	4,060	243,819	124,872
242,801	4,313	243,486	124,895
243,815	3,871	243,559	124,564
244,830	4,157	243,408	124,707
245,844	4,344	243,256	124,769
246,859	4,088	243,027	124,434
247,874	4,029	242,763	124,240
248,888	4,227	242,606	124,308
249,903	4,297	242,657	124,380
250,917	4,245	242,452	124,222
251,932	4,379	242,275	124,228
252,947	4,361	242,135	124,130
253,961	4,335	241,783	123,918
254,976	4,339	241,819	123,928
255,990	4,213	241,572	123,689
257,005	4,231	241,214	123,510
258,020	4,025	241,186	123,320
259,034	4,097	241,023	123,283
260,049	4,222	240,969	123,344
261,063	4,063	240,695	123,066
262,078	4,015	240,562	122,948
263,093	4,165	240,384	122,967
264,107	4,243	240,311	122,980
265,122	4,168	240,137	122,821
266,136	4,365	240,192	122,995
267,151	4,554	240,013	123,043
268,166	4,253	239,402	122,480
269,180	3,767	239,453	122,108
270,195	4,602	239,597	122,835
271,209	4,821	239,369	122,880
272,224	4,236	239,018	122,226
273,239	3,794	238,788	121,747
274,253	3,964	238,671	121,811
275,268	4,429	238,638	122,151
276,282	4,446	238,403	122,034
277,297	3,936	238,340	121,588
278,312	4,043	238,199	121,589
279,326	4,076	238,201	121,605
280,341	4,292	237,801	121,560
281,355	3,994	237,682	121,254
282,370	4,181	237,544	121,320
283,384	4,411	237,303	121,368
284,399	3,944	237,306	120,991
285,414	3,951	237,014	120,836
286,428	4,010	236,887	120,807
287,443	4,025	236,825	120,777
288,457	4,439	236,680	121,016
289,472	4,234	236,554	120,781
290,487	4,009	236,383	120,506
291,501	4,074	236,128	120,417
292,516	3,976	235,944	120,236
293,530	3,963	235,757	120,120
294,545	4,394	235,716	120,424
295,560	4,237	235,665	120,264
296,574	4,008	235,253	119,866
297,589	3,998	235,350	119,897
298,603	4,511	235,156	120,186
299,618	4,589	235,045	120,179
300,633	4,460	234,856	119,972
301,647	4,343	234,814	119,849
302,662	4,600	234,772	120,016
303,676	4,406	234,536	119,734
304,691	4,510	234,376	119,723
305,706	4,609	234,391	119,797
306,720	4,649	234,066	119,651
307,735	4,453	233,843	119,375
308,749	4,340	233,731	119,220
309,764	4,209	233,473	118,976
310,779	3,922	233,259	118,635
311,793	3,971	233,140	118,601
312,808	3,820	232,988	118,397
313,822	3,845	232,711	118,265
314,837	3,690	232,607	118,082
315,852	3,721	232,368	117,974
316,866	3,912	232,303	118,077
317,881	4,274	232,318	118,353
318,895	4,760	232,293	118,702
319,910	4,761	232,246	118,668
320,925	4,381	231,874	118,177
321,939	3,755	231,706	117,602
322,954	4,096	231,492	117,743
323,968	3,877	231,392	117,514
324,983	4,244	231,350	117,763
325,997	4,443	231,350	117,904
327,012	4,617	231,060	117,879
328,027	4,112	230,919	117,412
329,041	4,739	230,889	117,864
330,056	4,878	230,793	117,910
331,070	4,753	230,781	117,798
332,085	4,616	230,403	117,491
333,100	4,236	230,270	117,124
334,114	4,250	230,075	117,024
335,129	4,730	229,857	117,267
336,143	4,817	229,862	117,326
337,158	4,644	229,664	117,083
338,173	4,300	229,485	116,720
339,187	4,351	229,232	116,620
340,202	4,505	229,114	116,666
341,216	4,339	229,069	116,508
342,231	4,292	228,828	116,339
343,246	4,264	228,672	116,228
344,260	4,412	228,664	116,325
345,275	4,609	228,488	116,373
346,289	4,422	228,510	116,234
347,304	4,462	228,535	116,266
348,319	4,731	227,984	116,177
349,333	4,607	227,867	116,014
350,348	4,389	227,601	115,705
351,362	4,424	227,483	115,661
352,377	4,257	227,332	115,448
353,392	3,994	227,209	115,180
354,406	4,003	227,037	115,089
355,421	195,490	1321,307	1398,039
356,435	156,733	1454,614	1398,030
