DTS Sentinel unit serial number:	SN410029Multiplexer serial number:	ORYXHardware model number:	OX2-SRSoftware version number:	ORYX F/W v4,00 Oryx Data Collector v3.7.2.0data status	okinstallation	B5 Nyhavnadifferential loss correction	single-endedforward channel	channel 2reverse channel	N/Adate	2023/12/11time	18:37:13forward acquisition time	300,00reverse acquisition time	0,00gamma	499,1914k internal	0,3161k external	0,3161temperature offset calibration	1,0000default loss term (dB/km)	0,3820temperature slope calibration	1,0000multiplexer offset coefficient	1,0000multiplexer slope coefficient	1,0000fibre end	0,00T internal ref (°C)	15,26T ext. ref 1 (°C)	-0,36T ext. ref 2 (°C)	-0,60length (m)	temperature (°C)	Stokes	anti-Stokes-744,400	151,400	0,062	-0,063
-743,385	-106,748	-0,297	0,048
-742,371	-107,291	0,190	0,030
-741,356	-41,654	-0,242	-0,091
-740,342	-6,823	0,145	0,072
-739,327	-56,506	-0,186	0,060
-738,312	72,707	0,070	0,054
-737,298	-149,559	-0,315	-0,018
-736,283	-50,897	0,094	0,032
-735,269	-47,445	-0,168	0,060
-734,254	3,619	0,109	0,058
-733,239	-131,464	-0,441	-0,042
-732,225	-95,639	0,119	-0,023
-731,210	-200,000	-0,012	0,092
-730,196	-200,000	0,023	0,084
-729,181	-134,034	-0,027	-0,002
-728,167	11,381	-0,089	-0,050
-727,152	96,082	0,002	-0,001
-726,137	-114,753	-0,118	-0,016
-725,123	-200,000	0,002	-0,132
-724,108	23,263	-0,070	0,042
-723,094	75,513	-0,086	-0,066
-722,079	244,389	0,080	-0,099
-721,064	-71,502	-0,022	0,006
-720,050	-70,194	-0,128	0,035
-719,035	116,010	0,036	0,032
-718,021	-12,777	-0,059	0,028
-717,006	800,000	-0,033	-0,074
-715,991	132,347	-0,108	-0,103
-714,977	800,000	-0,015	-0,032
-713,962	-15,504	-0,169	-0,079
-712,948	32,669	-0,065	0,041
-711,933	67,367	0,108	-0,081
-710,918	-140,905	-0,054	-0,004
-709,904	91,373	-0,078	-0,064
-708,889	54,054	-0,025	-0,018
-707,875	-200,000	-0,017	-0,090
-706,860	303,400	0,049	-0,067
-705,845	-200,000	-0,027	0,100
-704,831	-200,000	0,016	-0,133
-703,816	-29,368	0,151	-0,063
-702,802	245,728	-0,054	0,066
-701,787	-12,103	-0,118	-0,057
-700,772	-200,000	-0,001	-0,009
-699,758	171,539	-0,086	0,091
-698,743	-200,000	0,022	0,082
-697,729	-16,940	-0,234	0,108
-696,714	360,983	-0,022	0,033
-695,699	99,196	0,076	0,064
-694,685	-200,000	-0,043	-0,204
-693,670	105,884	0,036	-0,032
-692,656	83,611	0,124	0,099
-691,641	800,000	0,051	-0,152
-690,627	10,179	0,130	-0,072
-689,612	516,909	-0,014	-0,024
-688,597	800,000	-0,009	0,021
-687,583	-50,111	-0,110	-0,038
-686,568	449,569	-0,076	-0,124
-685,554	-200,000	0,036	-0,180
-684,539	-124,652	0,120	0,013
-683,524	-69,050	-0,057	-0,016
-682,510	-122,261	-0,165	-0,020
-681,495	-81,785	-0,082	-0,020
-680,481	800,000	-0,006	-0,015
-679,466	471,203	-0,058	-0,096
-678,451	-200,000	-0,036	0,163
-677,437	-67,624	-0,053	0,015
-676,422	68,733	-0,061	0,046
-675,408	-79,165	-0,134	0,033
-674,393	-200,000	0,006	-0,125
-673,378	505,649	-0,062	-0,105
-672,364	800,000	0,030	-0,092
-671,349	800,000	-0,013	-0,029
-670,335	-131,010	0,194	-0,019
-669,320	29,002	0,057	-0,035
-668,305	10,758	-0,089	-0,050
-667,291	608,998	-0,037	0,069
-666,276	74,084	-0,092	-0,071
-665,262	217,353	0,053	0,062
-664,247	-92,948	-0,078	-0,016
-663,232	-200,000	-0,013	0,067
-662,218	-200,000	-0,040	0,206
-661,203	-31,841	-0,126	0,052
-660,189	-200,000	-0,010	0,054
-659,174	-200,000	-0,013	-0,062
-658,159	-88,770	-0,146	0,032
-657,145	600,222	-0,099	-0,181
-656,130	-200,000	0,028	-0,130
-655,116	-93,616	0,112	-0,023
-654,101	-6,927	0,087	0,043
-653,086	-104,163	0,097	-0,016
-652,072	-132,484	-0,121	-0,011
-651,057	-137,288	0,082	-0,007
-650,043	735,565	0,024	0,047
-649,028	684,251	0,036	-0,068
-648,014	350,439	0,059	0,086
-646,999	131,360	-0,082	0,077
-645,984	-84,354	0,108	0,025
-644,970	-200,000	-0,015	-0,086
-643,955	-12,314	-0,127	-0,061
-642,941	418,549	0,066	-0,104
-641,926	800,000	0,019	0,040
-640,911	58,262	0,075	0,054
-639,897	-94,362	0,049	0,010
-638,882	162,450	-0,080	0,082
-637,868	-52,567	-0,112	0,038
-636,853	-9,727	-0,063	0,031
-635,838	-200,000	0,004	0,208
-634,824	800,000	0,022	0,046
-633,809	-142,736	-0,115	-0,008
-632,795	-124,031	0,108	-0,012
-631,780	-58,003	-0,066	-0,021
-630,765	-42,751	0,068	-0,025
-629,751	474,771	-0,073	-0,122
-628,736	24,852	-0,093	0,056
-627,722	-97,016	0,132	0,025
-626,707	1,625	0,157	0,083
-625,692	21,819	0,072	0,043
-624,678	238,621	-0,029	0,036
-623,663	800,000	0,007	0,021
-622,649	181,575	0,024	-0,026
-621,634	-200,000	-0,027	-0,147
-620,619	-58,568	0,108	0,034
-619,605	-113,009	0,045	-0,006
-618,590	133,829	0,133	0,126
-617,576	-200,000	0,050	0,169
-616,561	800,000	0,014	-0,045
-615,546	391,866	-0,026	-0,039
-614,532	26,313	-0,084	-0,051
-613,517	-71,368	-0,057	-0,016
-612,503	-200,000	-0,017	-0,116
-611,488	289,646	-0,060	-0,079
-610,474	800,000	0,013	-0,039
-609,459	113,511	-0,091	0,081
-608,444	800,000	-0,041	-0,130
-607,430	-80,883	0,055	-0,013
-606,415	317,279	-0,007	-0,009
-605,401	-200,000	0,014	-0,070
-604,386	646,084	0,014	-0,025
-603,371	35,399	-0,096	-0,062
-602,357	800,000	-0,034	-0,073
-601,342	800,000	-0,015	0,030
-600,328	435,402	0,021	-0,034
-599,313	798,323	0,069	-0,140
-598,298	-200,000	-0,001	-0,050
-597,284	-200,000	0,019	-0,085
-596,269	70,354	-0,070	0,053
-595,255	-200,000	-0,003	0,033
-594,240	771,351	0,086	-0,173
-593,225	143,718	-0,015	-0,014
-592,211	-11,012	0,002	0,001
-591,196	-62,356	-0,129	-0,039
-590,182	237,024	0,067	0,081
-589,167	-140,282	-0,090	-0,007
-588,152	800,000	-0,037	0,117
-587,138	800,000	0,009	-0,030
-586,123	6,924	-0,039	0,021
-585,109	435,561	-0,036	-0,058
-584,094	-117,056	-0,077	0,010
-583,079	-200,000	0,015	-0,065
-582,065	-200,000	0,015	0,051
-581,050	-200,000	0,033	0,180
-580,036	-83,492	-0,078	-0,018
-579,021	188,604	-0,078	-0,086
-578,006	111,899	0,169	-0,149
-576,992	-172,487	-0,067	-0,002
-575,977	64,779	-0,064	0,047
-574,963	-200,000	0,019	-0,072
-573,948	157,851	0,063	0,064
-572,934	-90,616	-0,062	0,013
-571,919	-140,844	0,094	0,007
-570,904	-200,000	0,008	-0,077
-569,890	-36,959	0,006	0,002
-568,875	-172,247	0,117	0,003
-567,861	122,767	-0,086	-0,079
-566,846	-161,082	0,074	0,003
-565,831	400,471	-0,058	-0,089
-564,817	-200,000	0,007	-0,038
-563,802	17,553	0,075	-0,043
-562,788	142,019	-0,172	-0,167
-561,773	570,074	0,032	0,057
-560,758	-0,668	0,066	-0,034
-559,744	-200,000	-0,007	0,115
-558,729	34,044	0,032	0,020
-557,715	346,219	-0,040	0,058
-556,700	-147,757	-0,080	0,005
-555,685	33,654	0,065	0,041
-554,671	82,368	-0,135	-0,107
-553,656	-22,953	0,094	-0,041
-552,642	-7,312	-0,040	0,020
-551,627	612,029	0,053	0,098
-550,612	-178,457	0,038	0,001
-549,598	333,532	-0,072	-0,102
-548,583	-46,342	-0,116	-0,041
-547,569	-200,000	-0,002	0,029
-546,554	-38,581	-0,081	0,031
-545,539	26,740	0,069	-0,042
-544,525	-200,000	0,005	0,062
-543,510	450,183	-0,042	0,067
-542,496	-79,210	-0,080	-0,020
-541,481	564,406	0,030	-0,053
-540,466	24,692	-0,059	0,036
-539,452	800,000	0,036	0,107
-538,437	-200,000	0,017	-0,066
-537,423	575,412	-0,067	0,119
-536,408	103,550	-0,064	0,055
-535,393	368,435	0,059	0,087
-534,379	74,484	-0,038	0,029
-533,364	67,827	0,045	0,034
-532,350	66,965	-0,043	0,032
-531,335	-200,000	0,016	0,093
-530,321	54,068	0,082	0,058
-529,306	10,016	-0,046	-0,026
-528,291	800,000	-0,020	-0,063
-527,277	22,933	-0,095	-0,056
-526,262	743,933	0,010	0,020
-525,248	800,000	-0,040	-0,081
-524,233	800,000	0,038	0,095
-523,218	26,273	0,073	0,044
-522,204	617,417	0,041	-0,076
-521,189	334,620	-0,117	-0,165
-520,175	62,807	-0,040	-0,029
-519,160	81,425	0,090	0,071
-518,145	-200,000	-0,001	0,161
-517,131	126,141	0,027	-0,025
-516,116	-200,000	0,002	0,025
-515,102	-200,000	0,020	0,094
-514,087	499,567	-0,041	-0,068
-513,072	-34,514	-0,087	-0,035
-512,058	686,658	0,067	-0,128
-511,043	-200,000	-0,017	-0,077
-510,029	-200,000	0,011	-0,085
-509,014	-105,241	0,154	-0,025
-507,999	26,972	-0,122	0,074
-506,985	206,843	-0,056	0,064
-505,970	389,088	0,025	-0,037
-504,956	147,581	-0,040	0,039
-503,941	761,731	0,072	0,143
-502,926	-200,000	0,026	-0,092
-501,912	109,438	0,062	0,054
-500,897	-63,180	-0,040	-0,012
-499,883	-55,475	-0,047	0,015
-498,868	-200,000	0,027	-0,102
-497,853	-200,000	0,020	-0,119
-496,839	-104,758	-0,048	-0,008
-495,824	-6,298	-0,037	0,018
-494,810	-87,304	0,075	-0,017
-493,795	-31,693	0,038	0,015
-492,781	509,153	-0,005	0,009
-491,766	-200,000	-0,022	0,118
-490,751	565,554	-0,030	-0,052
-489,737	-17,041	0,018	0,008
-488,722	800,000	0,074	0,211
-487,708	413,277	-0,058	-0,090
-486,693	20,528	0,113	-0,067
-485,678	61,380	0,055	-0,040
-484,664	274,081	0,017	-0,022
-483,649	206,351	-0,090	-0,102
-482,635	386,210	0,071	-0,106
-481,620	497,086	0,092	-0,154
-480,605	-140,524	-0,136	0,010
-479,591	-200,000	0,005	-0,102
-478,576	86,733	-0,080	-0,064
-477,562	-46,301	-0,140	-0,050
-476,547	581,796	0,015	-0,027
-475,532	800,000	0,055	0,142
-474,518	-133,289	0,065	-0,006
-473,503	-200,000	0,012	0,126
-472,489	220,461	0,043	0,051
-471,474	-200,000	-0,026	0,093
-470,459	-200,000	-0,001	0,053
-469,445	666,369	0,003	-0,006
-468,430	-20,938	-0,057	0,025
-467,416	-101,969	-0,166	-0,029
-466,401	800,000	-0,023	0,048
-465,386	108,720	-0,031	-0,027
-464,372	-29,581	-0,035	0,014
-463,357	157,995	-0,089	-0,090
-462,343	162,645	0,012	0,012
-461,328	-94,308	0,107	0,021
-460,313	-200,000	-0,033	-0,129
-459,299	-200,000	0,022	0,188
-458,284	800,000	-0,019	-0,050
-457,270	-32,036	-0,014	0,005
-456,255	-200,000	0,007	-0,049
-455,241	-75,536	-0,061	-0,016
-454,226	-200,000	0,019	-0,101
-453,211	-100,587	-0,061	0,011
-452,197	225,428	-0,046	-0,054
-451,182	46,362	0,128	0,087
-450,168	800,000	0,063	0,136
-449,153	-81,261	-0,063	0,015
-448,138	91,199	-0,049	-0,040
-447,124	-40,187	0,001	-0,001
-446,109	62,246	0,080	0,058
-445,095	-38,216	0,117	0,045
-444,080	-88,962	0,069	-0,015
-443,065	-51,015	-0,114	0,039
-442,051	-200,000	0,007	-0,061
-441,036	-79,805	-0,027	0,007
-440,022	-32,146	0,042	-0,017
-439,007	58,642	0,071	0,051
-437,992	-21,431	0,067	0,030
-436,978	189,335	0,122	-0,133
-435,963	800,000	0,002	-0,006
-434,949	98,019	-0,057	0,047
-433,934	57,998	-0,033	0,024
-432,919	184,372	-0,041	-0,044
-431,905	374,535	0,040	-0,060
-430,890	-90,707	0,092	-0,019
-429,876	7,655	-0,045	-0,024
-428,861	-169,388	-0,087	-0,002
-427,846	800,000	0,033	-0,071
-426,832	-200,000	0,029	-0,140
-425,817	82,502	0,034	0,027
-424,803	800,000	-0,054	-0,123
-423,788	465,043	-0,048	-0,078
-422,773	-153,529	-0,063	0,003
-421,759	-80,885	0,072	-0,017
-420,744	-200,000	-0,004	0,040
-419,730	126,734	-0,048	-0,044
-418,715	800,000	-0,030	0,079
-417,701	-82,102	-0,026	0,006
-416,686	-200,000	0,003	-0,026
-415,671	-200,000	0,022	0,087
-414,657	800,000	-0,070	0,147
-413,642	-57,621	0,057	-0,018
-412,628	187,036	0,017	0,018
-411,613	-200,000	-0,031	-0,107
-410,598	42,864	0,047	-0,031
-409,584	111,345	0,080	0,070
-408,569	-142,582	0,065	-0,005
-407,555	-73,073	0,062	-0,016
-406,540	-91,099	0,040	0,008
-405,525	-88,644	-0,147	0,032
-404,511	232,033	-0,089	-0,106
-403,496	18,727	-0,078	0,046
-402,482	800,000	0,074	0,153
-401,467	800,000	-0,060	0,181
-400,452	-77,189	-0,046	0,012
-399,438	-42,808	-0,095	-0,035
-398,423	93,920	0,089	-0,073
-397,409	800,000	0,007	-0,022
-396,394	-200,000	0,036	-0,129
-395,379	-200,000	-0,011	0,098
-394,365	-200,000	-0,001	-0,099
-393,350	800,000	0,063	-0,146
-392,336	258,148	0,010	0,012
-391,321	350,697	-0,069	-0,099
-390,306	-200,000	-0,004	0,074
-389,292	143,015	0,119	-0,115
-388,277	-71,491	0,086	-0,023
-387,263	120,379	-0,028	0,025
-386,248	142,324	0,075	0,073
-385,233	-135,234	0,183	0,016
-384,219	56,341	-0,137	-0,097
-383,204	800,000	-0,016	-0,034
-382,190	71,070	0,090	-0,068
-381,175	8,992	0,050	-0,027
-380,160	-200,000	0,020	0,090
-379,146	-200,000	0,002	0,041
-378,131	637,660	-0,023	0,043
-377,117	-103,914	-0,101	-0,017
-376,102	-45,959	0,074	0,026
-375,088	800,000	-0,050	0,140
-374,073	511,668	-0,052	0,088
-373,058	320,651	0,106	-0,147
-372,044	22,460	0,093	0,055
-371,029	-200,000	0,009	0,216
-370,015	158,472	0,108	0,109
-369,000	140,166	0,074	-0,071
-367,985	-106,760	-0,047	-0,007
-366,971	112,204	-0,109	-0,095
-365,956	-102,612	0,225	0,039
-364,942	-97,900	0,093	-0,017
-363,927	800,000	-0,019	0,038
-362,912	472,127	-0,027	0,044
-361,898	-200,000	0,011	-0,138
-360,883	32,007	-0,104	-0,065
-359,869	111,616	0,017	0,015
-358,854	-200,000	-0,019	-0,198
-357,839	-128,202	0,101	-0,010
-356,825	800,000	0,068	0,176
-355,810	19,464	-0,038	-0,022
-354,796	350,578	-0,085	-0,123
-353,781	35,289	0,045	0,028
-352,766	-200,000	-0,008	-0,041
-351,752	800,000	0,040	0,085
-350,737	-28,306	-0,104	0,043
-349,723	-200,000	-0,015	0,068
-348,708	-200,000	0,012	0,066
-347,693	185,189	0,018	0,020
-346,679	-88,733	-0,056	-0,012
-345,664	516,062	-0,020	-0,035
-344,650	430,417	-0,069	-0,109
-343,635	-200,000	0,039	-0,140
-342,620	3,765	0,041	-0,022
-341,606	800,000	0,039	-0,086
-340,591	534,711	0,020	0,035
-339,577	90,384	-0,115	-0,094
-338,562	-200,000	-0,054	-0,212
-337,548	-115,037	-0,167	-0,023
-336,533	-8,498	0,073	0,035
-335,518	-69,730	0,151	0,042
-334,504	104,998	0,054	0,046
-333,489	217,690	0,036	0,041
-332,475	-200,000	0,010	-0,174
-331,460	114,588	0,077	-0,068
-330,445	-158,515	0,049	0,002
-329,431	-200,000	0,013	-0,052
-328,416	-82,450	0,095	0,022
-327,402	-200,000	-0,016	0,138
-326,387	212,191	0,054	0,062
-325,372	-200,000	-0,016	-0,129
-324,358	800,000	0,031	-0,091
-323,343	800,000	0,053	-0,121
-322,329	-124,555	0,097	0,011
-321,314	-200,000	-0,005	-0,070
-320,299	-30,829	0,095	-0,039
-319,285	-112,781	0,121	0,017
-318,270	-28,607	0,055	-0,023
-317,256	-92,092	-0,102	-0,021
-316,241	-51,450	0,046	0,015
-315,226	121,740	0,046	-0,042
-314,212	392,878	-0,038	-0,058
-313,197	105,120	0,165	0,141
-312,183	-200,000	-0,044	0,181
-311,168	-200,000	-0,005	-0,099
-310,153	-71,072	-0,097	0,026
-309,139	-29,921	-0,131	0,054
-308,124	-103,847	0,065	0,011
-307,110	800,000	0,069	0,172
-306,095	478,692	0,021	-0,035
-305,080	39,660	0,098	0,064
-304,066	122,329	-0,103	-0,093
-303,051	-122,257	-0,081	0,009
-302,037	-59,523	0,064	-0,020
-301,022	206,604	-0,076	0,085
-300,008	-200,000	0,005	0,036
-298,993	-83,639	-0,062	0,014
-297,978	-7,023	-0,028	-0,014
-296,964	87,893	-0,070	-0,056
-295,949	499,745	-0,036	-0,061
-294,935	-166,845	-0,108	-0,003
-293,920	-102,004	-0,097	0,017
-292,905	142,663	0,064	-0,061
-291,891	-50,320	-0,050	0,017
-290,876	-200,000	-0,010	0,117
-289,862	-13,005	-0,152	0,071
-288,847	-200,000	0,016	-0,082
-287,832	241,266	0,043	-0,052
-286,818	-200,000	0,011	-0,064
-285,803	97,179	0,084	-0,070
-284,789	700,448	0,044	0,084
-283,774	48,907	-0,066	0,045
-282,759	800,000	-0,024	-0,073
-281,745	728,504	0,010	0,020
-280,730	1,511	0,066	0,034
-279,716	800,000	-0,063	0,139
-278,701	171,465	0,064	0,067
-277,686	800,000	0,051	0,151
-276,672	-76,537	-0,103	0,026
-275,657	-87,102	-0,105	0,023
-274,643	-122,024	-0,157	0,018
-273,628	-93,117	-0,117	-0,023
-272,613	-200,000	-0,000	-0,023
-271,599	800,000	0,088	0,214
-270,584	-87,417	-0,029	0,006
-269,570	800,000	0,086	0,196
-268,555	-95,826	-0,171	-0,033
-267,540	73,134	-0,050	0,038
-266,526	-158,071	0,126	0,005
-265,511	58,846	-0,096	0,068
-264,497	154,643	0,111	-0,111
-263,482	-85,890	-0,115	-0,026
-262,467	371,435	0,053	0,078
-261,453	20,848	-0,123	-0,072
-260,438	338,569	0,016	-0,023
-259,424	-200,000	-0,002	-0,142
-258,409	228,616	-0,066	0,078
-257,395	-95,556	0,075	-0,014
-256,380	457,075	0,051	0,082
-255,365	173,208	0,039	0,041
-254,351	-35,058	-0,038	-0,015
-253,336	89,681	-0,077	0,062
-252,322	-200,000	0,006	0,086
-251,307	449,933	0,032	0,051
-250,292	-61,103	0,152	0,046
-249,278	-14,150	0,034	-0,016
-248,263	31,610	-0,173	0,107
-247,249	53,095	-0,054	-0,037
-246,234	-200,000	0,000	-0,031
-245,219	-200,000	-0,044	0,165
-244,205	-200,000	-0,013	-0,089
-243,190	181,038	0,107	-0,114
-242,176	26,254	-0,024	0,014
-241,161	264,218	0,034	0,043
-240,146	192,240	0,092	0,100
-239,132	-70,417	-0,023	0,006
-238,117	212,822	0,023	-0,027
-237,103	800,000	0,038	-0,096
-236,088	98,776	-0,117	-0,098
-235,073	3,258	-0,162	-0,085
-234,059	534,067	-0,029	0,051
-233,044	-43,327	-0,023	0,009
-232,030	800,000	-0,052	-0,124
-231,015	-111,065	-0,058	-0,009
-230,000	-200,000	-0,032	-0,119
-228,986	800,000	-0,042	0,123
-227,971	-34,970	0,058	-0,023
-226,957	145,097	0,027	0,026
-225,942	796,395	-0,041	-0,083
-224,927	-74,450	-0,071	0,018
-223,913	422,673	-0,016	0,025
-222,898	295,630	-0,130	-0,172
-221,884	-23,441	0,146	-0,063
-220,869	-200,000	-0,094	-0,000
-219,855	-37,855	0,079	-0,030
-218,840	-64,436	0,066	-0,019
-217,825	-200,000	0,018	-0,073
-216,811	-200,000	0,026	0,194
-215,796	622,298	0,056	-0,102
-214,782	-200,000	0,006	-0,045
-213,767	385,461	0,035	-0,052
-212,752	92,256	0,056	-0,045
-211,738	750,219	0,057	0,111
-210,723	-136,558	-0,162	0,013
-209,709	800,000	0,060	-0,157
-208,694	44,793	-0,139	-0,092
-207,679	-58,605	0,045	-0,014
-206,665	17,194	0,048	0,028
-205,650	34,737	-0,053	-0,034
-204,636	800,000	0,047	0,135
-203,621	190,417	-0,018	-0,019
-202,606	721,127	-0,045	-0,087
-201,592	386,393	-0,033	-0,049
-200,577	-200,000	-0,018	0,093
-199,563	352,162	0,048	0,069
-198,548	-200,000	-0,019	0,145
-197,533	-50,556	0,044	-0,015
-196,519	769,851	0,030	0,059
-195,504	82,838	-0,092	-0,072
-194,490	48,975	-0,095	-0,064
-193,475	-39,687	-0,063	0,024
-192,460	-200,000	0,009	-0,073
-191,446	-200,000	-0,024	0,142
-190,431	425,993	0,042	0,066
-189,417	-200,000	0,020	0,110
-188,402	73,333	0,067	0,050
-187,387	800,000	0,036	0,088
-186,373	-200,000	-0,017	-0,089
-185,358	152,234	0,119	-0,117
-184,344	800,000	-0,022	-0,062
-183,329	800,000	0,062	0,153
-182,315	800,000	0,031	0,093
-181,300	473,501	0,008	-0,012
-180,285	-200,000	-0,005	-0,053
-179,271	-200,000	-0,045	0,214
-178,256	-200,000	0,009	-0,126
-177,242	-200,000	-0,017	-0,071
-176,227	-94,989	0,102	-0,020
-175,212	190,345	-0,099	0,107
-174,198	-165,138	-0,094	-0,003
-173,183	167,152	0,048	-0,049
-172,169	21,563	-0,060	0,035
-171,154	800,000	0,079	0,166
-170,139	-156,517	0,132	0,006
-169,125	76,715	0,112	-0,086
-168,110	-200,000	0,005	0,130
-167,096	800,000	0,032	-0,066
-166,081	-200,000	-0,016	-0,053
-165,066	141,587	-0,086	0,082
-164,052	512,471	0,016	-0,027
-163,037	298,083	-0,033	-0,044
-162,023	112,713	-0,067	0,059
-161,008	-200,000	0,028	0,188
-159,993	-200,000	0,018	0,199
-158,979	-110,193	0,023	-0,003
-157,964	31,130	-0,076	-0,047
-156,950	144,210	0,085	0,082
-155,935	-7,169	0,171	0,083
-154,920	-70,444	-0,024	-0,006
-153,906	-200,000	0,011	0,048
-152,891	-58,087	0,029	0,009
-151,877	5,628	-0,035	0,019
-150,862	-52,324	-0,052	0,017
-149,847	658,148	-0,009	-0,016
-148,833	-102,152	-0,076	-0,013
-147,818	248,222	-0,041	-0,050
-146,804	800,000	0,016	0,034
-145,789	-19,349	0,095	0,042
-144,775	800,000	-0,037	0,090
-143,760	86,249	-0,061	0,049
-142,745	-36,141	0,070	-0,027
-141,731	-70,343	0,064	0,017
-140,716	-11,649	0,109	0,051
-139,702	800,000	-0,086	0,181
-138,687	132,682	0,033	0,030
-137,672	800,000	0,064	0,136
-136,658	-35,817	-0,066	-0,026
-135,643	668,924	-0,101	0,188
-134,629	282,586	0,035	0,045
-133,614	27,301	-0,189	0,114
-132,599	-21,942	0,115	0,050
-131,585	-143,385	0,020	0,001
-130,570	-19,461	-0,061	-0,027
-129,556	401,565	-0,061	-0,093
-128,541	-200,000	-0,003	0,074
-127,526	-200,000	0,005	0,099
-126,512	-200,000	-0,008	0,048
-125,497	800,000	0,041	0,092
-124,483	218,307	0,062	0,072
-123,468	103,738	-0,079	0,067
-122,453	-200,000	0,018	0,059
-121,439	458,886	-0,069	-0,111
-120,424	244,523	0,008	-0,010
-119,410	-200,000	0,006	-0,108
-118,395	800,000	0,033	-0,070
-117,380	800,000	0,022	-0,046
-116,366	597,974	-0,026	0,047
-115,351	59,143	-0,117	-0,083
-114,337	213,205	0,021	0,024
-113,322	-129,378	-0,097	0,010
-112,307	800,000	0,038	-0,088
-111,293	202,306	-0,021	0,024
-110,278	362,447	0,081	-0,118
-109,264	542,262	0,014	0,024
-108,249	-200,000	0,004	0,053
-107,234	451,307	-0,043	0,069
-106,220	-200,000	0,012	0,113
-105,205	493,130	-0,071	0,117
-104,191	-200,000	-0,023	0,092
-103,176	-200,000	0,004	0,042
-102,162	65,302	0,039	-0,028
-101,147	539,496	-0,024	0,042
-100,132	-200,000	0,004	-0,157
-99,118	460,330	0,032	0,051
-98,103	129,860	0,058	0,054
-97,089	-18,960	0,084	-0,037
-96,074	303,055	0,082	-0,110
-95,059	46,113	-0,038	-0,025
-94,045	116,955	0,053	-0,046
-93,030	-49,945	0,077	-0,026
-92,016	-200,000	-0,018	0,093
-91,001	800,000	0,018	0,049
-89,986	800,000	0,019	-0,043
-88,972	-106,154	0,072	0,012
-87,957	800,000	-0,016	-0,041
-86,943	357,562	-0,025	-0,035
-85,928	-123,969	0,038	-0,004
-84,913	131,195	0,078	0,072
-83,899	46,627	-0,004	0,003
-82,884	-33,588	0,206	-0,081
-81,870	-13,359	-0,051	-0,024
-80,855	-200,000	-0,042	0,135
-79,840	-200,000	0,003	0,079
-78,826	-58,689	-0,161	-0,050
-77,811	561,394	0,041	-0,071
-76,797	-74,726	-0,109	0,028
-75,782	-200,000	0,017	-0,139
-74,767	-56,744	0,029	-0,009
-73,753	7,238	-0,119	-0,063
-72,738	-200,000	-0,022	-0,108
-71,724	-192,097	0,115	-0,001
-70,709	-200,000	0,010	-0,065
-69,694	800,000	-0,056	0,112
-68,680	800,000	-0,053	0,111
-67,665	375,010	-0,042	0,062
-66,651	-186,952	-0,031	0,000
-65,636	-93,229	-0,072	0,014
-64,622	-186,000	-0,013	-0,000
-63,607	75,191	-0,002	0,001
-62,592	-4,267	-0,125	0,062
-61,578	336,821	-0,044	0,062
-60,563	587,566	-0,065	0,115
-59,549	-200,000	-0,002	-0,009
-58,534	5,064	-1,917	-1,009
-57,519	-200,000	-0,219	-0,877
-56,505	-200,000	-1,308	-4,974
-55,490	-37,009	0,865	0,331
-54,476	800,000	5,280	12,146
-53,461	-200,000	17,552	282,350
-52,446	800,000	726,919	2208,463
-51,432	531,778	1643,023	2797,205
-50,417	109,697	1633,914	1403,963
-49,403	74,944	1286,352	970,360
-48,388	31,929	1027,156	632,964
-47,373	20,054	989,107	570,411
-46,359	18,371	976,907	557,841
-45,344	15,633	972,692	546,467
-44,330	15,778	971,614	546,314
-43,315	15,310	969,576	543,621
-42,300	15,281	968,563	542,937
-41,286	15,232	967,696	542,271
-40,271	15,216	966,615	541,590
-39,257	15,266	965,693	541,217
-38,242	15,352	964,608	540,864
-37,227	15,295	963,880	540,250
-36,213	15,293	963,077	539,771
-35,198	15,296	962,222	539,281
-34,184	15,324	961,370	538,873
-33,169	15,277	960,492	538,210
-32,154	15,328	959,483	537,785
-31,140	15,259	958,767	537,142
-30,125	15,264	958,176	536,803
-29,111	15,297	957,108	536,292
-28,096	15,347	956,303	535,980
-27,082	15,330	955,857	535,655
-26,067	15,294	955,132	535,110
-25,052	15,236	954,373	534,479
-24,038	15,206	953,816	534,050
-23,023	15,299	952,919	533,824
-22,009	15,349	952,279	533,604
-20,994	15,273	951,660	532,991
-19,979	15,330	951,027	532,799
-18,965	15,297	950,532	532,396
-17,950	15,309	949,790	531,996
-16,936	15,257	949,219	531,491
-15,921	15,266	948,286	530,974
-14,906	15,189	947,788	530,429
-13,892	15,189	946,986	529,961
-12,877	15,149	946,503	529,542
-11,863	15,173	945,842	529,227
-10,848	15,199	945,265	528,965
-9,833	15,279	944,699	528,882
-8,819	15,245	944,180	528,462
-7,804	15,203	943,818	528,105
-6,790	15,203	943,037	527,647
-5,775	15,207	942,466	527,318
-4,760	15,217	941,938	527,034
-3,746	15,253	941,141	526,680
-2,731	15,135	940,393	525,869
-1,717	15,023	939,715	525,116
-0,702	15,052	939,168	524,880
0,313	14,820	938,581	524,614
1,327	18,145	936,447	533,833
2,342	27,375	793,876	476,973
3,356	24,275	458,476	270,707
4,371	-2,936	313,860	156,487
5,386	-6,900	295,812	143,474
6,400	-8,843	289,908	138,673
7,415	-9,325	287,285	136,934
8,429	-9,598	285,626	135,864
9,444	-9,725	285,001	135,430
10,459	-9,556	284,257	135,230
11,473	-9,763	283,646	134,726
12,488	-9,584	282,972	134,567
13,502	-9,530	282,522	134,393
14,517	-9,665	282,150	134,074
15,531	-9,990	281,642	133,509
16,546	-9,779	281,242	133,510
17,561	-9,702	280,930	133,424
18,575	-9,932	280,465	132,970
19,590	-9,963	280,159	132,783
20,604	-9,840	279,885	132,760
21,619	-10,079	279,426	132,302
22,634	-9,942	279,121	132,276
23,648	-10,062	278,901	132,046
24,663	-10,060	278,719	131,950
25,677	-9,883	278,429	131,970
26,692	-9,899	278,164	131,816
27,707	-9,884	277,766	131,630
28,721	-9,870	277,483	131,498
29,736	-9,944	277,178	131,272
30,750	-9,964	276,819	131,071
31,765	-9,846	276,604	131,068
32,780	-9,833	276,438	130,991
33,794	-10,028	276,219	130,692
34,809	-10,002	275,877	130,542
35,823	-9,982	275,821	130,523
36,838	-9,977	275,460	130,346
37,853	-10,097	275,209	130,102
38,867	-10,050	274,911	129,994
39,882	-10,124	274,656	129,792
40,896	-9,994	274,501	129,829
41,911	-10,154	274,242	129,545
42,926	-9,972	273,806	129,498
43,940	-9,971	273,716	129,445
44,955	-9,843	273,329	129,369
45,969	-9,865	273,216	129,284
46,984	-10,018	272,983	129,020
47,999	-10,194	272,703	128,712
49,013	-10,509	272,480	128,303
50,028	-10,442	272,089	128,170
51,042	-10,529	272,019	128,045
52,057	-10,575	271,666	127,824
53,071	-10,628	271,604	127,735
54,086	-10,561	271,505	127,740
55,101	-10,352	271,217	127,785
56,115	-10,261	271,131	127,817
57,130	-9,892	271,097	128,131
58,144	-9,832	270,681	127,978
59,159	-9,692	270,371	127,949
60,174	-9,837	270,243	127,743
61,188	-9,827	270,104	127,676
62,203	-9,807	269,722	127,502
63,217	-9,874	269,516	127,331
64,232	-9,900	269,367	127,225
65,247	-9,772	269,169	127,239
66,261	-9,863	268,789	126,964
67,276	-9,938	268,600	126,795
68,290	-10,102	268,300	126,493
69,305	-9,956	268,018	126,482
70,320	-10,111	267,855	126,252
71,334	-9,871	267,659	126,366
72,349	-9,734	267,439	126,376
73,363	-9,772	267,416	126,320
74,378	-9,853	267,126	126,098
75,393	-9,802	266,825	125,991
76,407	-9,759	266,659	125,940
77,422	-9,891	266,457	125,714
78,436	-9,766	266,309	125,746
79,451	-9,696	265,955	125,631
80,466	-9,895	265,747	125,342
81,480	-9,863	265,450	125,219
82,495	-10,028	265,250	124,965
83,509	-9,925	265,072	124,963
84,524	-10,140	265,015	124,731
85,539	-9,996	264,531	124,622
86,553	-10,084	264,476	124,506
87,568	-9,899	264,172	124,518
88,582	-10,086	264,169	124,337
89,597	-9,861	263,906	124,404
90,611	-9,757	263,817	124,444
91,626	-9,718	263,514	124,325
92,641	-10,075	263,381	123,932
93,655	-9,976	263,134	123,894
94,670	-9,945	262,930	123,814
95,684	-9,937	262,731	123,716
96,699	-9,965	262,551	123,595
97,714	-9,859	262,288	123,555
98,728	-10,103	262,096	123,236
99,743	-10,139	261,894	123,098
100,757	-10,182	261,603	122,912
101,772	-10,123	261,559	122,933
102,787	-10,042	261,306	122,875
103,801	-9,941	261,147	122,879
104,816	-9,838	261,040	122,908
105,830	-9,849	260,765	122,759
106,845	-9,794	260,580	122,709
107,860	-9,742	260,489	122,701
108,874	-9,856	260,229	122,467
109,889	-9,794	260,022	122,413
110,903	-9,725	259,799	122,359
111,918	-9,873	259,605	122,125
112,933	-9,984	259,467	121,952
113,947	-9,802	259,163	121,959
114,962	-9,729	259,038	121,953
115,976	-10,037	259,047	121,676
116,991	-10,015	258,760	121,549
118,006	-9,986	258,602	121,490
119,020	-9,838	258,403	121,516
120,035	-9,787	258,035	121,376
121,049	-9,986	258,114	121,229
122,064	-9,729	257,806	121,297
123,079	-9,822	257,636	121,125
124,093	-9,831	257,422	121,006
125,108	-10,104	257,103	120,607
126,122	-10,140	256,813	120,430
127,137	-10,194	256,707	120,322
128,151	-10,201	256,552	120,233
129,166	-9,949	256,302	120,324
130,181	-10,021	256,071	120,141
131,195	-10,225	255,992	119,917
132,210	-9,817	255,693	120,120
133,224	-9,686	255,697	120,224
134,239	-9,825	255,483	119,993
135,254	-9,901	255,397	119,876
136,268	-9,777	254,972	119,772
137,283	-10,078	254,694	119,372
138,297	-10,242	254,607	119,179
139,312	-10,278	254,296	118,992
140,327	-9,738	254,207	119,404
141,341	-9,718	254,271	119,440
142,356	-9,672	254,040	119,361
143,370	-9,572	253,755	119,302
144,385	-9,637	253,694	119,207
145,400	-9,625	253,535	119,132
146,414	-9,533	253,242	119,062
147,429	-9,611	253,015	118,878
148,443	-9,650	252,887	118,774
149,458	-9,738	252,752	118,625
150,473	-9,671	252,501	118,554
151,487	-9,899	252,412	118,308
152,502	-9,658	252,176	118,391
153,516	-9,753	252,027	118,230
154,531	-9,661	251,763	118,174
155,546	-9,817	251,559	117,935
156,560	-9,707	251,346	117,918
157,575	-9,768	251,126	117,752
158,589	-9,804	251,149	117,723
159,604	-9,560	250,821	117,764
160,619	-9,540	250,553	117,645
161,633	-9,608	250,371	117,491
162,648	-9,552	250,540	117,608
163,662	-9,677	250,202	117,333
164,677	-9,602	250,172	117,372
165,692	-9,490	249,805	117,283
166,706	-9,431	249,778	117,310
167,721	-9,659	249,620	117,034
168,735	-9,592	249,401	116,977
169,750	-9,630	249,333	116,902
170,764	-9,544	249,053	116,833
171,779	-9,613	249,049	116,763
172,794	-9,502	248,811	116,734
173,808	-9,604	248,614	116,545
174,823	-10,079	248,402	116,038
175,837	-10,304	248,134	115,715
176,852	-9,777	248,115	116,136
177,867	-9,614	247,946	116,183
178,881	-9,739	247,893	116,043
179,896	-9,595	247,603	116,017
180,910	-9,446	247,410	116,040
181,925	-9,537	247,271	115,889
182,940	-9,399	247,120	115,923
183,954	-9,622	246,962	115,653
184,969	-9,547	246,699	115,582
185,983	-9,496	246,672	115,601
186,998	-9,390	246,526	115,610
188,013	-9,494	246,253	115,386
189,027	-9,438	246,102	115,352
190,042	-9,553	246,048	115,221
191,056	-9,497	245,726	115,106
192,071	-9,466	245,606	115,065
193,086	-9,412	245,322	114,966
194,100	-9,489	245,161	114,817
195,115	-9,309	244,972	114,866
196,129	-9,159	244,806	114,902
197,144	-9,469	244,588	114,535
198,159	-9,429	244,414	114,475
199,173	-9,434	244,283	114,400
200,188	-9,549	244,271	114,289
201,202	-9,674	243,918	114,012
202,217	-10,119	243,640	113,508
203,232	-9,978	243,301	113,455
204,246	-9,434	243,341	113,908
205,261	-8,894	243,461	114,395
206,275	-9,738	243,095	113,524
207,290	-7,580	243,827	115,623
208,304	-2,454	245,582	120,664
209,319	0,800	246,254	123,662
210,334	1,284	246,242	124,043
211,348	1,472	245,997	124,064
212,363	1,541	246,139	124,181
213,377	1,708	246,023	124,248
214,392	1,749	245,937	124,227
215,407	1,622	245,717	124,001
216,421	1,721	245,562	123,993
217,436	1,940	245,355	124,057
218,450	2,065	245,276	124,107
219,465	1,769	245,098	123,765
220,480	1,617	244,796	123,477
221,494	2,020	244,647	123,719
222,509	1,835	244,669	123,569
223,523	1,744	244,343	123,319
224,538	1,513	244,107	123,001
225,553	1,503	243,842	122,849
226,567	1,794	243,990	123,149
227,582	1,906	243,803	123,134
228,596	1,836	243,597	122,962
229,611	1,663	243,443	122,733
230,626	1,523	243,215	122,494
231,640	1,835	243,019	122,637
232,655	1,915	243,047	122,705
233,669	1,680	242,788	122,373
234,684	1,433	242,607	122,072
235,699	1,991	242,574	122,495
236,713	1,917	242,524	122,399
237,728	1,586	242,295	122,005
238,742	1,395	242,075	121,730
239,757	1,576	241,711	121,681
240,772	1,645	241,697	121,719
241,786	1,650	241,448	121,586
242,801	1,386	241,282	121,280
243,815	1,342	241,098	121,142
244,830	1,552	240,950	121,225
245,844	1,832	240,872	121,399
246,859	1,721	240,684	121,205
247,874	1,791	240,544	121,179
248,888	1,537	240,539	120,963
249,903	1,754	240,407	121,060
250,917	1,867	240,287	121,079
251,932	2,232	240,044	121,237
252,947	1,776	239,860	120,769
253,961	1,565	239,716	120,518
254,976	1,868	239,521	120,650
255,990	1,911	239,292	120,559
257,005	1,547	239,191	120,207
258,020	1,312	238,994	119,911
259,034	1,463	238,998	120,022
260,049	1,755	238,682	120,084
261,063	1,478	238,471	119,748
262,078	1,720	238,170	119,777
263,093	1,495	238,313	119,660
264,107	1,780	238,162	119,799
265,122	1,667	237,867	119,551
266,136	1,774	237,798	119,590
267,151	1,883	237,614	119,573
268,166	1,712	237,392	119,316
269,180	1,457	237,334	119,076
270,195	1,953	237,311	119,444
271,209	2,342	237,147	119,657
272,224	1,742	236,879	119,039
273,239	1,392	236,601	118,614
274,253	1,596	236,631	118,779
275,268	1,845	236,403	118,849
276,282	1,717	236,241	118,657
277,297	1,536	236,092	118,430
278,312	1,629	235,974	118,433
279,326	1,881	235,756	118,510
280,341	1,920	235,621	118,462
281,355	1,861	235,402	118,295
282,370	2,104	235,389	118,468
283,384	1,831	235,273	118,186
284,399	1,849	234,857	117,981
285,414	1,460	234,976	117,727
286,428	1,798	234,721	117,851
287,443	1,841	234,598	117,812
288,457	2,103	234,516	117,964
289,472	2,028	234,444	117,859
290,487	1,641	234,146	117,399
291,501	1,554	233,835	117,165
292,516	1,352	233,737	116,949
293,530	1,083	233,712	116,718
294,545	1,666	233,574	117,090
295,560	1,712	233,372	117,014
296,574	1,479	233,157	116,716
297,589	1,471	233,048	116,644
298,603	1,750	233,137	116,894
299,618	1,799	232,975	116,840
300,633	1,887	232,759	116,789
301,647	2,004	232,639	116,809
302,662	2,382	232,581	117,060
303,676	2,238	232,482	116,889
304,691	2,104	232,237	116,653
305,706	1,887	232,205	116,459
306,720	2,214	231,951	116,572
307,735	1,786	231,735	116,125
308,749	1,780	231,606	116,046
309,764	1,649	231,385	115,824
310,779	1,647	231,134	115,687
311,793	1,555	230,950	115,514
312,808	1,529	230,875	115,446
313,822	1,469	230,642	115,274
314,837	1,658	230,322	115,248
315,852	1,448	230,273	115,053
316,866	1,808	230,267	115,314
317,881	1,967	230,142	115,361
318,895	2,258	230,149	115,576
319,910	2,297	229,965	115,503
320,925	1,962	229,831	115,172
321,939	1,695	229,755	114,920
322,954	2,245	229,494	115,196
323,968	2,001	229,407	114,957
324,983	2,061	229,144	114,861
325,997	2,139	229,137	114,906
327,012	1,876	228,876	114,566
328,027	1,688	228,661	114,306
329,041	2,006	228,496	114,453
330,056	2,100	228,571	114,552
331,070	2,472	228,497	114,785
332,085	2,612	228,267	114,765
333,100	2,318	228,203	114,501
334,114	1,963	228,019	114,131
335,129	2,232	227,814	114,220
336,143	2,121	227,580	114,010
337,158	2,245	227,381	113,993
338,173	2,196	227,333	113,922
339,187	2,159	227,244	113,840
340,202	2,119	227,034	113,695
341,216	2,348	226,878	113,777
342,231	1,911	226,877	113,440
343,246	2,135	226,557	113,437
344,260	2,264	226,506	113,498
345,275	2,466	226,328	113,549
346,289	2,151	226,330	113,305
347,304	2,447	226,182	113,441
348,319	2,449	225,971	113,327
349,333	1,989	225,799	112,888
350,348	2,017	225,515	112,757
351,362	2,149	225,442	112,809
352,377	2,081	225,297	112,676
353,392	1,669	225,120	112,271
354,406	1,975	225,037	112,447
355,421	196,216	1319,329	1396,712
356,435	157,285	1452,657	1396,696
