DTS Sentinel unit serial number:	SN410029Multiplexer serial number:	ORYXHardware model number:	OX2-SRSoftware version number:	ORYX F/W v4,00 Oryx Data Collector v3.7.2.0data status	okinstallation	B5 Nyhavnadifferential loss correction	single-endedforward channel	channel 2reverse channel	N/Adate	2023/12/12time	18:32:13forward acquisition time	300,00reverse acquisition time	0,00gamma	499,1914k internal	0,3157k external	0,3157temperature offset calibration	1,0000default loss term (dB/km)	0,3820temperature slope calibration	1,0000multiplexer offset coefficient	1,0000multiplexer slope coefficient	1,0000fibre end	0,00T internal ref (°C)	15,60T ext. ref 1 (°C)	-0,92T ext. ref 2 (°C)	-1,23length (m)	temperature (°C)	Stokes	anti-Stokes-744,400	106,127	0,093	-0,081
-743,385	-131,546	-0,261	-0,025
-742,371	68,741	0,107	-0,081
-741,356	-126,106	-0,299	-0,033
-740,342	800,000	-0,030	0,074
-739,327	-101,072	-0,155	-0,028
-738,312	170,370	0,086	-0,091
-737,298	25,022	-0,095	-0,058
-736,283	-151,830	0,047	0,003
-735,269	22,181	-0,220	0,132
-734,254	-19,717	0,067	-0,030
-733,239	18,190	-0,433	-0,254
-732,225	-38,634	0,143	0,055
-731,210	35,636	-0,185	0,119
-730,196	363,866	0,093	-0,139
-729,181	570,100	-0,021	-0,038
-728,167	-142,160	-0,138	-0,010
-727,152	-52,294	0,056	-0,019
-726,137	125,864	-0,078	-0,072
-725,123	-152,137	-0,089	-0,005
-724,108	12,723	-0,098	-0,055
-723,094	-200,000	0,015	-0,121
-722,079	506,858	0,031	-0,053
-721,064	-141,090	0,041	-0,003
-720,050	-48,451	-0,024	-0,009
-719,035	-83,373	0,058	-0,014
-718,021	9,889	0,082	0,046
-717,006	800,000	-0,035	-0,091
-715,991	800,000	-0,062	-0,160
-714,977	296,672	-0,054	-0,073
-713,962	800,000	-0,049	-0,145
-712,948	140,001	-0,027	-0,026
-711,933	1,593	-0,038	0,020
-710,918	-36,042	0,084	-0,033
-709,904	97,583	-0,087	-0,074
-708,889	-200,000	-0,001	-0,210
-707,875	-131,191	0,038	0,004
-706,860	215,186	-0,063	0,073
-705,845	40,704	-0,047	0,031
-704,831	-105,149	0,132	0,022
-703,816	-126,053	0,070	0,008
-702,802	256,032	0,004	-0,005
-701,787	-200,000	0,149	0,000
-700,772	-200,000	0,038	-0,147
-699,758	327,091	-0,072	0,102
-698,743	341,216	0,061	0,088
-697,729	800,000	-0,018	0,054
-696,714	149,638	-0,070	0,070
-695,699	-130,353	-0,117	0,012
-694,685	65,345	-0,060	-0,045
-693,670	308,358	-0,103	-0,142
-692,656	11,010	0,046	-0,026
-691,641	800,000	-0,017	-0,039
-690,627	-200,000	0,010	0,110
-689,612	256,669	0,077	-0,097
-688,597	167,397	-0,044	0,046
-687,583	98,077	-0,035	0,030
-686,568	117,985	-0,037	-0,034
-685,554	144,642	-0,030	-0,029
-684,539	-25,255	-0,087	0,038
-683,524	800,000	0,017	0,042
-682,510	800,000	0,069	0,153
-681,495	549,660	-0,044	-0,078
-680,481	-135,776	0,068	-0,006
-679,466	105,858	0,099	-0,086
-678,451	-156,923	-0,034	0,001
-677,437	800,000	0,059	0,131
-676,422	800,000	0,064	-0,152
-675,408	260,417	-0,107	0,136
-674,393	394,578	-0,101	0,155
-673,378	204,373	-0,046	-0,053
-672,364	-14,515	-0,075	-0,035
-671,349	800,000	-0,057	-0,128
-670,335	33,625	-0,060	0,038
-669,320	-160,189	-0,064	0,003
-668,305	-200,000	-0,035	-0,117
-667,291	117,581	0,089	-0,081
-666,276	-159,962	-0,085	-0,003
-665,262	319,140	-0,122	-0,171
-664,247	-200,000	0,023	0,123
-663,232	-200,000	0,014	0,087
-662,218	567,686	0,034	0,061
-661,203	-200,000	-0,004	0,111
-660,189	-89,784	0,113	0,024
-659,174	215,519	-0,027	0,031
-658,159	-200,000	0,025	-0,106
-657,145	212,663	0,055	0,063
-656,130	-110,866	0,045	0,007
-655,116	195,511	0,089	0,099
-654,101	-2,274	0,089	0,046
-653,086	-10,476	-0,107	-0,052
-652,072	-98,788	0,056	0,010
-651,057	-117,171	-0,103	0,014
-650,043	93,430	-0,133	0,111
-649,028	61,172	-0,069	0,051
-648,014	-200,000	0,003	0,044
-646,999	-22,829	0,097	0,043
-645,984	-200,000	-0,004	0,098
-644,970	-5,782	-0,052	-0,026
-643,955	215,144	-0,131	-0,153
-642,941	-146,609	0,117	-0,007
-641,926	-200,000	0,017	-0,149
-640,911	128,707	-0,145	-0,136
-639,897	-55,847	0,072	-0,023
-638,882	19,461	-0,077	-0,046
-637,868	-200,000	0,008	-0,058
-636,853	-200,000	-0,027	-0,125
-635,838	162,583	-0,051	0,053
-634,824	-50,337	-0,053	-0,018
-633,809	6,553	0,131	0,071
-632,795	420,790	0,069	0,109
-631,780	473,896	0,045	-0,075
-630,765	202,269	-0,058	0,065
-629,751	54,003	0,051	-0,036
-628,736	112,522	0,087	0,077
-627,722	20,017	-0,162	-0,095
-626,707	562,027	-0,010	0,018
-625,692	342,565	-0,083	0,119
-624,678	162,499	0,044	0,045
-623,663	-107,827	-0,082	-0,013
-622,649	334,624	-0,031	-0,045
-621,634	66,406	-0,054	-0,040
-620,619	546,732	0,018	-0,032
-619,605	95,355	-0,048	0,040
-618,590	-31,507	-0,019	0,008
-617,576	615,343	-0,016	-0,029
-616,561	516,947	-0,062	-0,106
-615,546	298,380	0,057	-0,078
-614,532	-200,000	-0,044	-0,200
-613,517	114,755	-0,030	-0,027
-612,503	-200,000	-0,010	0,061
-611,488	135,530	-0,104	0,099
-610,474	67,683	0,055	0,041
-609,459	-200,000	-0,021	0,075
-608,444	-200,000	0,023	0,085
-607,430	559,325	0,037	-0,065
-606,415	109,452	0,056	0,049
-605,401	-200,000	-0,018	-0,162
-604,386	52,632	-0,018	0,013
-603,371	7,811	0,057	-0,031
-602,357	-200,000	-0,008	-0,048
-601,342	800,000	-0,056	-0,140
-600,328	174,735	-0,030	-0,032
-599,313	-200,000	-0,011	-0,041
-598,298	-107,391	-0,094	0,015
-597,284	-128,944	-0,055	-0,006
-596,269	-200,000	-0,003	-0,042
-595,255	138,303	-0,081	0,078
-594,240	-52,273	-0,106	0,036
-593,225	-200,000	-0,019	-0,163
-592,211	148,902	-0,100	-0,099
-591,196	3,903	0,095	0,051
-590,182	-200,000	-0,007	-0,041
-589,167	531,591	0,088	0,153
-588,152	75,309	0,028	0,022
-587,138	123,513	0,079	-0,072
-586,123	-5,220	0,137	0,069
-585,109	-150,004	-0,012	-0,001
-584,094	35,148	0,126	-0,081
-583,079	800,000	-0,020	0,060
-582,065	-41,108	-0,089	0,033
-581,050	125,807	-0,067	0,062
-580,036	1,708	0,074	-0,039
-579,021	214,691	-0,076	-0,089
-578,006	70,304	-0,079	-0,060
-576,992	135,849	-0,083	-0,079
-575,977	-200,000	0,009	-0,107
-574,963	259,604	0,062	-0,079
-573,948	-200,000	-0,012	-0,098
-572,934	-200,000	-0,036	0,140
-571,919	-41,659	-0,160	0,060
-570,904	-158,105	-0,034	-0,001
-569,890	-200,000	0,002	-0,095
-568,875	-97,145	-0,018	-0,003
-567,861	785,521	0,062	-0,126
-566,846	92,548	0,116	-0,096
-565,831	800,000	-0,038	0,093
-564,817	126,159	0,072	0,067
-563,802	108,445	-0,055	0,048
-562,788	-53,396	-0,098	0,033
-561,773	-48,999	0,058	-0,020
-560,758	-70,495	-0,054	0,015
-559,744	483,038	-0,035	0,058
-558,729	95,214	0,122	0,102
-557,715	800,000	0,039	-0,082
-556,700	458,329	0,081	-0,132
-555,685	85,999	-0,071	-0,057
-554,671	800,000	0,005	-0,014
-553,656	69,950	-0,035	0,026
-552,642	293,610	0,036	0,048
-551,627	-18,850	-0,035	-0,016
-550,612	-70,223	-0,171	-0,047
-549,598	-200,000	0,030	-0,215
-548,583	-43,609	-0,106	-0,039
-547,569	-20,122	-0,150	-0,067
-546,554	-171,866	-0,064	0,001
-545,539	-34,626	0,052	0,021
-544,525	-200,000	0,030	0,146
-543,510	-57,175	-0,038	-0,012
-542,496	-57,622	-0,307	0,098
-541,481	14,939	0,090	0,051
-540,466	800,000	0,029	0,058
-539,452	-200,000	-0,015	0,103
-538,437	612,429	-0,044	-0,081
-537,423	393,787	-0,051	0,077
-536,408	419,289	-0,078	0,123
-535,393	155,560	-0,065	0,065
-534,379	-118,952	0,045	0,006
-533,364	-200,000	-0,015	-0,081
-532,350	72,433	-0,039	-0,030
-531,335	-200,000	-0,010	-0,043
-530,321	136,016	0,069	0,066
-529,306	-80,050	-0,036	0,009
-528,291	18,273	0,056	-0,033
-527,277	800,000	0,009	-0,020
-526,262	-1,180	-0,041	0,021
-525,248	152,190	-0,078	0,078
-524,233	331,053	-0,007	0,010
-523,218	-200,000	-0,044	0,178
-522,204	218,030	0,097	0,113
-521,189	500,851	-0,088	-0,149
-520,175	-13,165	0,086	-0,041
-519,160	800,000	-0,040	-0,112
-518,145	95,465	0,157	0,131
-517,131	5,193	0,086	-0,046
-516,116	-31,044	0,079	-0,033
-515,102	-51,923	-0,134	0,045
-514,087	-200,000	0,028	-0,180
-513,072	-200,000	0,010	0,074
-512,058	800,000	0,047	0,103
-511,043	-200,000	0,030	-0,164
-510,029	23,877	-0,071	-0,043
-509,014	-1,538	0,076	-0,039
-507,999	-101,697	-0,082	0,014
-506,985	104,508	0,005	0,004
-505,970	-81,841	-0,083	0,020
-504,956	-200,000	-0,035	0,156
-503,941	312,765	0,031	0,043
-502,926	113,067	0,011	-0,010
-501,912	-200,000	-0,017	0,082
-500,897	292,965	0,112	0,150
-499,883	800,000	-0,062	0,158
-498,868	501,956	0,027	-0,045
-497,853	79,485	-0,069	0,054
-496,839	450,869	0,024	0,039
-495,824	313,399	0,017	0,024
-494,810	-60,730	0,137	0,042
-493,795	44,218	0,094	0,063
-492,781	-142,350	-0,148	0,010
-491,766	-146,698	-0,055	0,003
-490,751	10,340	-0,037	0,020
-489,737	-200,000	-0,008	-0,036
-488,722	-200,000	-0,022	-0,128
-487,708	-54,073	0,129	0,043
-486,693	-139,868	-0,101	0,008
-485,678	-108,241	0,037	0,006
-484,664	-200,000	0,004	-0,107
-483,649	226,466	-0,053	-0,062
-482,635	-131,780	-0,013	0,001
-481,620	340,944	0,077	0,110
-480,605	201,799	0,062	-0,069
-479,591	800,000	0,054	0,154
-478,576	-88,133	-0,088	-0,019
-477,562	-145,399	-0,041	0,003
-476,547	227,579	-0,031	-0,037
-475,532	-136,216	-0,049	0,004
-474,518	439,985	0,083	0,133
-473,503	-4,479	-0,033	0,017
-472,489	-200,000	0,024	0,083
-471,474	800,000	-0,021	0,064
-470,459	154,893	0,073	0,073
-469,445	149,479	-0,087	-0,086
-468,430	800,000	-0,048	-0,107
-467,416	0,492	0,068	0,035
-466,401	776,965	0,021	-0,041
-465,386	-5,601	-0,069	-0,034
-464,372	218,835	0,004	-0,005
-463,357	9,251	0,096	0,053
-462,343	103,945	-0,009	-0,008
-461,328	20,265	0,042	-0,024
-460,313	-20,032	-0,163	0,073
-459,299	44,441	0,171	0,114
-458,284	182,066	-0,133	0,143
-457,270	-86,466	0,056	-0,013
-456,255	-123,977	-0,091	-0,010
-455,241	800,000	0,028	-0,079
-454,226	-4,087	0,045	-0,023
-453,211	-26,517	-0,022	-0,009
-452,197	800,000	-0,062	0,132
-451,182	-94,598	0,141	-0,028
-450,168	-200,000	0,001	-0,052
-449,153	156,623	-0,114	-0,115
-448,138	281,500	-0,081	-0,106
-447,124	91,098	0,093	-0,076
-446,109	-134,676	0,037	0,003
-445,095	-82,214	-0,103	0,024
-444,080	95,975	-0,066	0,055
-443,065	343,959	0,028	0,040
-442,051	184,831	-0,021	0,023
-441,036	800,000	-0,032	-0,064
-440,022	800,000	-0,032	-0,072
-439,007	10,309	0,132	-0,073
-437,992	-19,229	-0,109	-0,049
-436,978	800,000	-0,019	0,046
-435,963	800,000	0,050	0,102
-434,949	-112,679	0,066	0,009
-433,934	16,245	0,055	0,032
-432,919	800,000	-0,052	-0,126
-431,905	287,242	-0,115	0,152
-430,890	-127,994	0,088	-0,009
-429,876	-200,000	-0,011	0,093
-428,861	-19,448	-0,022	-0,010
-427,846	-200,000	-0,006	-0,025
-426,832	-161,189	-0,087	-0,003
-425,817	100,431	-0,091	-0,077
-424,803	703,683	0,038	0,073
-423,788	-51,488	-0,096	0,033
-422,773	11,723	0,083	0,047
-421,759	-200,000	-0,008	-0,030
-420,744	-76,953	0,051	-0,013
-419,730	800,000	-0,031	-0,097
-418,715	195,475	0,067	0,074
-417,701	48,771	-0,125	-0,085
-416,686	761,671	-0,024	0,047
-415,671	271,803	0,079	-0,101
-414,657	-88,308	-0,012	-0,002
-413,642	-100,557	0,058	-0,010
-412,628	713,522	-0,032	0,062
-411,613	105,436	-0,086	0,074
-410,598	-200,000	-0,026	0,158
-409,584	141,598	0,145	0,140
-408,569	465,498	0,029	0,048
-407,555	-160,701	0,114	0,004
-406,540	-123,352	-0,202	-0,023
-405,525	-200,000	-0,004	0,036
-404,511	800,000	0,016	0,040
-403,496	800,000	-0,042	-0,097
-402,482	-38,962	0,098	0,037
-401,467	800,000	-0,040	0,101
-400,452	109,958	-0,046	-0,040
-399,438	124,736	0,073	0,067
-398,423	96,869	-0,080	-0,067
-397,409	800,000	0,037	-0,116
-396,394	-200,000	0,008	-0,039
-395,379	-200,000	-0,000	-0,061
-394,365	-200,000	0,001	0,043
-393,350	217,331	-0,111	-0,129
-392,336	-154,321	0,133	-0,006
-391,321	800,000	-0,038	0,107
-390,306	800,000	0,042	-0,091
-389,292	235,413	-0,046	-0,056
-388,277	-122,265	0,144	-0,017
-387,263	1,269	0,191	0,100
-386,248	-133,440	0,132	-0,012
-385,233	56,539	-0,073	0,052
-384,219	146,929	0,015	0,015
-383,204	-200,000	0,009	-0,119
-382,190	226,535	0,071	-0,084
-381,175	-200,000	0,008	0,148
-380,160	346,440	0,074	0,106
-379,146	-200,000	0,004	-0,032
-378,131	-54,354	-0,030	0,010
-377,117	800,000	-0,002	-0,005
-376,102	800,000	0,017	0,035
-375,088	-39,485	-0,058	0,022
-374,073	800,000	-0,042	-0,091
-373,058	61,663	0,046	0,033
-372,044	390,391	0,053	0,080
-371,029	47,708	-0,041	-0,028
-370,015	-200,000	-0,004	0,106
-369,000	44,953	0,055	-0,036
-367,985	75,584	-0,095	0,073
-366,971	230,413	-0,040	0,047
-365,956	191,149	-0,042	0,046
-364,942	340,868	0,066	0,094
-363,927	-200,000	0,026	-0,097
-362,912	800,000	0,020	0,047
-361,898	800,000	0,026	-0,054
-360,883	800,000	-0,011	-0,034
-359,869	800,000	-0,022	-0,050
-358,854	-129,589	0,111	-0,011
-357,839	26,593	0,134	0,081
-356,825	475,879	0,035	-0,057
-355,810	-174,402	-0,079	0,002
-354,796	-195,891	0,133	0,001
-353,781	183,227	-0,042	-0,045
-352,766	261,640	0,065	0,082
-351,752	499,935	0,067	0,113
-350,737	244,827	-0,038	-0,046
-349,723	-200,000	0,010	-0,118
-348,708	-106,333	0,073	0,012
-347,693	-23,495	0,118	0,051
-346,679	-200,000	-0,006	0,042
-345,664	332,491	-0,112	0,158
-344,650	-68,418	0,134	-0,038
-343,635	-90,789	0,076	0,016
-342,620	-200,000	-0,005	0,046
-341,606	-200,000	-0,020	0,064
-340,591	26,853	0,010	-0,006
-339,577	-141,776	0,106	-0,008
-338,562	-134,588	0,126	0,011
-337,548	800,000	-0,038	-0,099
-336,533	31,161	0,127	-0,079
-335,518	-200,000	0,033	0,116
-334,504	-200,000	0,012	0,102
-333,489	-200,000	0,035	0,211
-332,475	-147,563	0,045	-0,003
-331,460	-200,000	-0,008	-0,028
-330,445	-200,000	0,008	0,082
-329,431	560,085	0,020	0,036
-328,416	361,429	-0,047	0,068
-327,402	-35,160	0,062	0,025
-326,387	-137,477	0,090	0,007
-325,372	800,000	0,064	-0,144
-324,358	-63,013	-0,188	-0,056
-323,343	-9,801	-0,131	0,063
-322,329	-200,000	0,002	0,025
-321,314	269,118	0,051	-0,065
-320,299	-17,638	-0,049	0,022
-319,285	167,266	0,101	0,104
-318,270	138,081	-0,133	0,127
-317,256	-200,000	-0,050	-0,160
-316,241	106,973	0,083	0,071
-315,226	800,000	0,033	0,101
-314,212	-69,206	-0,040	-0,011
-313,197	-98,808	-0,043	-0,008
-312,183	-5,347	-0,025	-0,012
-311,168	-200,000	0,042	-0,140
-310,153	-8,570	0,106	-0,051
-309,139	-200,000	-0,020	0,067
-308,124	-37,442	0,083	0,032
-307,110	800,000	-0,027	-0,078
-306,095	167,647	0,018	-0,018
-305,080	800,000	-0,029	-0,059
-304,066	-76,850	0,145	0,036
-303,051	-78,600	-0,152	-0,037
-302,037	-70,849	-0,063	-0,017
-301,022	-200,000	-0,000	0,029
-300,008	-12,209	0,056	0,026
-298,993	-200,000	-0,021	0,098
-297,978	-58,979	0,115	-0,036
-296,964	-49,072	-0,085	-0,029
-295,949	-22,020	0,075	-0,033
-294,935	183,866	-0,193	-0,207
-293,920	800,000	0,014	0,042
-292,905	800,000	-0,013	0,037
-291,891	94,014	-0,057	0,047
-290,876	-118,981	-0,022	-0,003
-289,862	116,914	0,032	0,028
-288,847	-111,310	-0,078	-0,011
-287,832	310,956	0,018	-0,024
-286,818	800,000	-0,050	0,130
-285,803	-200,000	0,009	0,041
-284,789	800,000	-0,085	0,179
-283,774	281,611	0,079	0,103
-282,759	526,786	-0,031	-0,054
-281,745	85,983	-0,103	0,082
-280,730	122,797	0,066	0,060
-279,716	143,945	-0,039	0,037
-278,701	538,953	-0,034	0,060
-277,686	237,806	-0,014	-0,016
-276,672	800,000	0,023	0,057
-275,657	-200,000	0,015	0,080
-274,643	333,612	-0,054	-0,076
-273,628	271,616	-0,057	-0,073
-272,613	800,000	0,049	0,126
-271,599	-200,000	0,020	0,094
-270,584	27,419	0,097	0,059
-269,570	-125,382	-0,085	0,009
-268,555	-48,037	0,078	0,027
-267,540	27,474	0,041	-0,025
-266,526	800,000	-0,032	-0,088
-265,511	-13,965	-0,152	-0,071
-264,497	40,791	0,116	-0,076
-263,482	152,967	-0,039	-0,039
-262,467	-200,000	0,004	0,085
-261,453	-122,797	0,057	-0,007
-260,438	397,596	-0,062	-0,095
-259,424	-200,000	0,001	-0,035
-258,409	-200,000	0,010	-0,117
-257,395	78,264	0,079	-0,061
-256,380	-125,841	-0,056	0,006
-255,365	-200,000	-0,003	0,037
-254,351	16,282	-0,041	-0,024
-253,336	-200,000	-0,018	0,086
-252,322	-53,677	-0,109	0,036
-251,307	-200,000	0,032	-0,121
-250,292	800,000	0,046	-0,107
-249,278	128,633	0,078	0,072
-248,263	-171,131	-0,082	-0,002
-247,249	-83,171	0,055	-0,013
-246,234	-200,000	-0,008	-0,032
-245,219	168,152	-0,066	-0,068
-244,205	181,728	-0,082	-0,088
-243,190	800,000	0,031	-0,069
-242,176	-46,528	0,106	-0,037
-241,161	7,380	0,187	-0,101
-240,146	150,344	0,035	-0,034
-239,132	-200,000	0,018	-0,070
-238,117	800,000	-0,041	-0,087
-237,103	800,000	-0,058	-0,143
-236,088	800,000	0,029	-0,062
-235,073	149,871	0,031	0,030
-234,059	800,000	-0,035	0,078
-233,044	-200,000	-0,004	-0,074
-232,030	-155,925	-0,084	-0,004
-231,015	502,702	0,065	0,110
-230,000	494,886	-0,020	-0,033
-228,986	-68,709	-0,097	0,027
-227,971	-200,000	-0,010	0,034
-226,957	215,074	0,051	-0,058
-225,942	-80,811	-0,047	-0,011
-224,927	0,927	-0,063	0,033
-223,913	-200,000	0,007	-0,095
-222,898	-93,943	-0,120	0,024
-221,884	484,101	-0,060	-0,099
-220,869	-64,736	0,125	-0,036
-219,855	31,060	-0,061	0,038
-218,840	-90,528	-0,075	0,016
-217,825	-141,507	0,045	-0,003
-216,811	68,228	-0,016	-0,012
-215,796	-137,111	0,081	-0,007
-214,782	96,881	-0,072	0,059
-213,767	-200,000	-0,007	-0,133
-212,752	400,848	0,019	0,029
-211,738	-200,000	0,040	0,145
-210,723	-129,259	-0,140	-0,014
-209,709	180,641	-0,035	0,037
-208,694	89,117	0,097	-0,078
-207,679	-200,000	-0,007	0,028
-206,665	-160,096	0,079	0,003
-205,650	31,499	0,056	-0,035
-204,636	-200,000	0,003	0,145
-203,621	-33,914	0,060	-0,024
-202,606	-200,000	-0,019	-0,240
-201,592	800,000	0,039	-0,117
-200,577	136,451	-0,095	-0,089
-199,563	638,032	0,065	-0,120
-198,548	800,000	0,021	0,058
-197,533	-7,603	0,140	0,068
-196,519	-200,000	-0,011	-0,117
-195,504	43,998	-0,132	-0,087
-194,490	-84,200	-0,108	-0,024
-193,475	716,206	0,085	-0,163
-192,460	-200,000	0,001	-0,039
-191,446	-85,514	-0,101	-0,022
-190,431	87,273	0,110	0,087
-189,417	333,942	0,029	0,041
-188,402	235,831	0,040	0,047
-187,387	-83,752	-0,052	0,012
-186,373	-200,000	-0,018	-0,094
-185,358	-158,607	0,101	-0,004
-184,344	33,379	0,112	0,070
-183,329	29,052	-0,052	0,032
-182,315	363,666	0,044	-0,065
-181,300	-158,930	0,075	0,003
-180,285	-200,000	0,006	-0,075
-179,271	323,605	-0,076	-0,106
-178,256	-130,139	-0,044	-0,004
-177,242	16,820	0,012	-0,007
-176,227	121,667	-0,081	0,073
-175,212	128,443	-0,034	0,031
-174,198	65,829	0,061	-0,045
-173,183	-200,000	0,021	-0,090
-172,169	800,000	0,025	0,056
-171,154	314,107	0,077	-0,105
-170,139	-200,000	-0,002	0,054
-169,125	-146,433	-0,127	0,008
-168,110	-200,000	0,055	0,312
-167,096	800,000	0,027	0,056
-166,081	73,091	-0,031	-0,024
-165,066	225,396	0,042	-0,049
-164,052	252,991	0,046	0,057
-163,037	-200,000	-0,002	0,057
-162,023	-45,902	0,115	0,041
-161,008	-13,852	0,039	-0,018
-159,993	-64,594	0,125	-0,036
-158,979	-200,000	-0,018	-0,084
-157,964	-200,000	-0,030	-0,190
-156,950	525,320	-0,037	0,062
-155,935	-72,449	0,083	0,022
-154,920	159,836	-0,064	0,064
-153,906	45,440	0,178	0,118
-152,891	121,987	0,096	0,086
-151,877	97,676	-0,015	-0,013
-150,862	145,787	0,134	-0,130
-149,847	-133,093	-0,115	0,010
-148,833	33,209	0,064	-0,040
-147,818	42,996	0,046	-0,030
-146,804	-200,000	0,003	-0,069
-145,789	-3,838	0,012	0,006
-144,775	224,836	-0,023	-0,026
-143,760	800,000	0,026	-0,055
-142,745	-200,000	0,004	-0,060
-141,731	781,009	0,031	-0,062
-140,716	55,906	-0,030	-0,021
-139,702	-96,500	0,089	0,017
-138,687	-200,000	-0,002	0,079
-137,672	800,000	0,049	0,120
-136,658	-200,000	-0,063	-0,224
-135,643	68,803	0,096	-0,071
-134,629	-30,140	-0,119	0,049
-133,614	-186,694	0,111	0,001
-132,599	-131,705	-0,128	-0,012
-131,585	-200,000	-0,004	0,104
-130,570	-200,000	0,005	0,029
-129,556	-200,000	0,017	0,077
-128,541	-134,213	-0,125	-0,011
-127,526	-151,036	0,053	0,003
-126,512	458,575	0,046	0,074
-125,497	-200,000	0,011	0,087
-124,483	-200,000	0,008	0,063
-123,468	800,000	0,003	-0,010
-122,453	-92,971	-0,040	0,008
-121,439	586,851	0,024	0,044
-120,424	54,828	-0,111	-0,077
-119,410	495,894	0,005	-0,009
-118,395	-31,903	0,134	-0,054
-117,380	293,134	-0,047	0,062
-116,366	-110,716	0,160	0,024
-115,351	-92,148	0,108	-0,022
-114,337	184,284	-0,046	0,050
-113,322	777,987	-0,074	0,146
-112,307	-11,420	0,136	0,064
-111,293	18,679	0,089	-0,051
-110,278	-24,656	0,036	-0,015
-109,264	287,191	-0,067	-0,087
-108,249	-132,910	-0,101	0,009
-107,234	-135,086	0,104	0,009
-106,220	-106,528	0,143	0,023
-105,205	-55,871	0,074	0,024
-104,191	-85,086	0,052	0,012
-103,176	10,274	0,103	-0,056
-102,162	-142,919	-0,069	-0,005
-101,147	-67,747	-0,083	-0,023
-100,132	80,838	-0,074	-0,058
-99,118	-78,864	-0,109	0,027
-98,103	800,000	-0,041	0,100
-97,089	656,136	0,069	0,128
-96,074	-92,274	-0,101	-0,020
-95,059	-200,000	-0,012	0,071
-94,045	-200,000	0,015	-0,116
-93,030	800,000	0,016	0,041
-92,016	-109,378	0,068	0,010
-91,001	-200,000	-0,002	-0,014
-89,986	442,049	0,075	0,118
-88,972	-85,247	-0,064	0,014
-87,957	152,227	-0,043	0,042
-86,943	-200,000	-0,016	-0,082
-85,928	-63,220	-0,123	0,036
-84,913	142,001	0,078	0,074
-83,899	800,000	0,083	0,190
-82,884	288,465	0,068	0,089
-81,870	-67,769	0,044	0,012
-80,855	-5,645	0,163	0,080
-79,840	-69,899	-0,031	0,008
-78,826	-21,765	0,069	0,030
-77,811	-96,105	-0,035	-0,007
-76,797	-60,335	0,074	-0,022
-75,782	-200,000	-0,000	0,106
-74,767	-161,813	0,027	-0,001
-73,753	-200,000	-0,003	0,081
-72,738	48,254	0,131	-0,088
-71,724	-100,003	-0,054	-0,010
-70,709	-200,000	0,019	0,070
-69,694	118,721	0,092	-0,081
-68,680	800,000	0,049	0,100
-67,665	-107,924	0,034	-0,005
-66,651	-104,267	-0,015	0,002
-65,636	441,796	-0,029	-0,046
-64,622	-102,836	-0,099	-0,017
-63,607	-200,000	-0,010	0,082
-62,592	394,713	0,045	0,067
-61,578	746,752	-0,054	-0,104
-60,563	-200,000	-0,005	-0,057
-59,549	-200,000	0,018	0,093
-58,534	-21,776	-1,963	-0,854
-57,519	-200,000	-0,160	-0,964
-56,505	-200,000	-1,199	-4,875
-55,490	-10,392	0,852	0,404
-54,476	800,000	5,289	12,008
-53,461	-200,000	17,591	284,611
-52,446	800,000	725,431	2221,851
-51,432	538,584	1641,379	2812,457
-50,417	110,642	1632,263	1408,799
-49,403	75,150	1285,936	972,075
-48,388	32,217	1028,170	635,353
-47,373	20,196	989,841	572,012
-46,359	18,680	977,866	560,096
-45,344	15,944	974,005	548,904
-44,330	16,145	972,463	548,671
-43,315	15,694	970,627	546,141
-42,300	15,639	969,466	545,287
-41,286	15,614	968,473	544,626
-40,271	15,633	967,364	544,042
-39,257	15,604	966,634	543,516
-38,242	15,650	965,766	543,154
-37,227	15,672	964,875	542,705
-36,213	15,652	964,194	542,235
-35,198	15,628	963,131	541,538
-34,184	15,732	962,476	541,484
-33,169	15,614	961,581	540,577
-32,154	15,667	960,551	540,149
-31,140	15,617	959,730	539,504
-30,125	15,630	959,288	539,276
-29,111	15,633	958,274	538,693
-28,096	15,621	957,615	538,263
-27,082	15,631	956,737	537,782
-26,067	15,650	955,957	537,382
-25,052	15,580	955,412	536,828
-24,038	15,618	954,688	536,525
-23,023	15,628	953,977	536,135
-22,009	15,630	953,428	535,810
-20,994	15,658	952,748	535,496
-19,979	15,651	952,042	535,058
-18,965	15,604	951,641	534,660
-17,950	15,660	950,852	534,375
-16,936	15,577	950,211	533,727
-15,921	15,542	949,597	533,250
-14,906	15,512	948,964	532,778
-13,892	15,489	948,281	532,301
-12,877	15,492	947,553	531,879
-11,863	15,480	946,874	531,438
-10,848	15,512	946,327	531,212
-9,833	15,656	945,866	531,392
-8,819	15,562	945,402	530,809
-7,804	15,543	944,692	530,331
-6,790	15,588	944,085	530,112
-5,775	15,569	943,554	529,731
-4,760	15,516	942,960	529,208
-3,746	15,500	942,374	528,809
-2,731	15,407	941,463	527,981
-1,717	15,413	941,040	527,743
-0,702	15,351	940,494	527,218
0,313	15,135	939,724	526,901
1,327	18,280	937,256	535,382
2,342	27,056	794,731	477,237
3,356	23,703	459,156	270,569
4,371	-3,310	314,421	156,560
5,386	-7,264	295,885	143,320
6,400	-9,305	289,808	138,340
7,415	-9,893	287,618	136,704
8,429	-9,972	286,102	135,893
9,444	-10,033	285,259	135,421
10,459	-10,023	284,542	135,079
11,473	-10,146	283,937	134,660
12,488	-9,676	283,391	134,844
13,502	-9,909	282,976	134,409
14,517	-9,866	282,474	134,200
15,531	-9,950	282,069	133,914
16,546	-9,705	281,691	133,960
17,561	-9,884	281,488	133,679
18,575	-9,845	280,991	133,468
19,590	-9,725	280,466	133,322
20,604	-9,593	280,336	133,375
21,619	-9,919	279,882	132,836
22,634	-9,598	279,486	132,942
23,648	-9,737	279,275	132,698
24,663	-9,849	279,181	132,534
25,677	-9,879	278,725	132,277
26,692	-9,820	278,598	132,262
27,707	-9,654	278,198	132,217
28,721	-9,826	277,962	131,930
29,736	-9,870	277,616	131,712
30,750	-9,746	277,447	131,738
31,765	-9,775	277,172	131,568
32,780	-9,797	276,959	131,435
33,794	-9,834	276,733	131,280
34,809	-10,066	276,430	130,906
35,823	-9,998	276,250	130,873
36,838	-9,902	275,926	130,799
37,853	-9,873	275,667	130,692
38,867	-9,797	275,551	130,696
39,882	-9,788	275,185	130,519
40,896	-9,793	275,017	130,424
41,911	-9,832	274,719	130,234
42,926	-9,742	274,429	130,169
43,940	-9,984	274,297	129,869
44,955	-9,923	273,995	129,771
45,969	-9,829	273,784	129,747
46,984	-9,938	273,551	129,524
47,999	-10,136	273,172	129,148
49,013	-10,361	272,956	128,825
50,028	-10,413	272,741	128,663
51,042	-10,468	272,362	128,422
52,057	-10,670	272,204	128,149
53,071	-10,561	272,184	128,229
54,086	-10,370	271,855	128,240
55,101	-10,273	271,575	128,186
56,115	-10,125	271,634	128,340
57,130	-9,864	271,449	128,482
58,144	-9,678	271,065	128,461
59,159	-9,780	270,946	128,299
60,174	-9,776	270,835	128,239
61,188	-9,761	270,504	128,084
62,203	-9,892	270,329	127,869
63,217	-9,831	270,024	127,770
64,232	-9,726	269,854	127,774
65,247	-9,654	269,459	127,642
66,261	-9,948	269,388	127,327
67,276	-9,987	269,077	127,133
68,290	-10,185	268,920	126,866
69,305	-10,136	268,655	126,775
70,320	-10,221	268,292	126,514
71,334	-9,765	268,127	126,842
72,349	-9,812	268,134	126,791
73,363	-9,691	267,750	126,708
74,378	-9,579	267,434	126,649
75,393	-9,700	267,345	126,485
76,407	-9,833	267,275	126,321
77,422	-9,702	266,979	126,288
78,436	-9,719	266,777	126,166
79,451	-9,750	266,474	125,983
80,466	-9,958	266,378	125,738
81,480	-9,863	266,118	125,691
82,495	-9,886	265,715	125,467
83,509	-9,828	265,599	125,454
84,524	-10,007	265,451	125,212
85,539	-9,916	265,170	125,150
86,553	-10,047	265,026	124,953
87,568	-9,871	264,731	124,961
88,582	-10,043	264,602	124,734
89,597	-9,844	264,468	124,839
90,611	-9,952	264,369	124,684
91,626	-9,682	264,131	124,803
92,641	-9,924	263,908	124,469
93,655	-9,835	263,653	124,417
94,670	-9,843	263,447	124,302
95,684	-9,738	263,254	124,294
96,699	-9,898	263,045	124,042
97,714	-9,905	262,806	123,911
98,728	-9,937	262,651	123,798
99,743	-9,860	262,404	123,740
100,757	-10,228	262,324	123,363
101,772	-10,004	261,983	123,391
102,787	-9,788	261,694	123,436
103,801	-9,858	261,657	123,345
104,816	-9,891	261,497	123,229
105,830	-9,598	261,443	123,453
106,845	-9,777	261,073	123,109
107,860	-9,723	261,004	123,113
108,874	-9,727	260,789	122,997
109,889	-9,824	260,535	122,780
110,903	-9,711	260,137	122,682
111,918	-10,057	260,196	122,394
112,933	-9,653	259,898	122,598
113,947	-9,714	259,661	122,422
114,962	-9,797	259,499	122,262
115,976	-9,797	259,481	122,243
116,991	-9,637	259,135	122,209
118,006	-9,789	258,967	121,985
119,020	-9,910	258,779	121,780
120,035	-9,867	258,805	121,819
121,049	-9,883	258,574	121,685
122,064	-9,998	258,415	121,499
123,079	-9,781	258,039	121,501
124,093	-9,777	257,817	121,389
125,108	-10,096	257,628	121,010
126,122	-10,179	257,464	120,850
127,137	-10,058	257,097	120,773
128,151	-10,015	256,945	120,728
129,166	-10,123	256,865	120,585
130,181	-10,036	256,606	120,530
131,195	-9,937	256,426	120,520
132,210	-9,697	256,305	120,660
133,224	-9,767	256,118	120,501
134,239	-9,668	255,942	120,493
135,254	-9,885	255,815	120,235
136,268	-9,785	255,580	120,200
137,283	-10,263	255,307	119,648
138,297	-10,201	255,056	119,573
139,312	-10,273	254,828	119,393
140,327	-9,780	254,831	119,809
141,341	-9,662	254,624	119,803
142,356	-9,780	254,576	119,668
143,370	-9,794	254,478	119,599
144,385	-9,586	254,191	119,632
145,400	-9,681	253,965	119,434
146,414	-9,520	253,858	119,511
147,429	-9,501	253,507	119,352
148,443	-9,620	253,478	119,225
149,458	-9,524	253,291	119,209
150,473	-9,722	253,185	118,978
151,487	-9,727	252,818	118,791
152,502	-9,583	252,747	118,870
153,516	-9,555	252,495	118,765
154,531	-9,572	252,283	118,641
155,546	-9,713	252,169	118,456
156,560	-9,646	251,946	118,398
157,575	-9,846	251,796	118,147
158,589	-9,697	251,634	118,187
159,604	-9,686	251,416	118,083
160,619	-9,695	251,290	118,006
161,633	-9,611	251,165	118,008
162,648	-9,577	250,999	117,948
163,662	-9,489	250,687	117,865
164,677	-9,644	250,662	117,713
165,692	-9,533	250,402	117,674
166,706	-9,594	250,414	117,617
167,721	-9,611	250,151	117,469
168,735	-9,440	249,984	117,524
169,750	-9,364	249,651	117,421
170,764	-9,586	249,744	117,267
171,779	-9,466	249,472	117,230
172,794	-9,559	249,276	117,049
173,808	-9,628	249,032	116,866
174,823	-9,843	248,803	116,568
175,837	-10,229	248,623	116,149
176,852	-9,593	248,447	116,590
177,867	-9,569	248,394	116,574
178,881	-9,509	248,236	116,541
179,896	-9,470	248,104	116,501
180,910	-9,641	247,975	116,287
181,925	-9,622	247,722	116,173
182,940	-9,569	247,600	116,150
183,954	-9,532	247,482	116,115
184,969	-9,568	247,366	116,020
185,983	-9,546	247,122	115,915
186,998	-9,588	246,820	115,727
188,013	-9,460	246,782	115,806
189,027	-9,660	246,596	115,541
190,042	-9,586	246,375	115,489
191,056	-9,580	246,216	115,410
192,071	-9,527	246,030	115,356
193,086	-9,449	245,715	115,262
194,100	-9,373	245,565	115,245
195,115	-9,286	245,439	115,247
196,129	-9,394	245,195	115,033
197,144	-9,572	245,229	114,892
198,159	-9,470	244,843	114,784
199,173	-9,531	244,849	114,727
200,188	-9,747	244,526	114,388
201,202	-9,786	244,223	114,204
202,217	-10,090	244,084	113,879
203,232	-10,066	243,847	113,778
204,246	-9,765	243,861	114,021
205,261	-9,446	243,689	114,192
206,275	-10,822	243,216	112,835
207,290	-7,421	244,546	116,238
208,304	-0,134	246,879	123,370
209,319	3,957	247,939	127,278
210,334	4,458	248,008	127,717
211,348	4,625	247,920	127,798
212,363	4,865	247,721	127,882
213,377	4,818	247,681	127,811
214,392	4,701	247,463	127,591
215,407	4,730	247,163	127,449
216,421	4,582	247,097	127,282
217,436	4,769	247,124	127,438
218,450	4,919	246,887	127,428
219,465	4,468	246,533	126,863
220,480	4,603	246,336	126,862
221,494	4,382	246,307	126,654
222,509	4,347	245,976	126,444
223,523	4,191	245,977	126,305
224,538	4,031	245,623	125,981
225,553	4,187	245,462	126,015
226,567	4,241	245,427	126,030
227,582	4,263	245,267	125,955
228,596	4,576	245,017	126,070
229,611	4,067	244,884	125,576
230,626	3,984	244,710	125,408
231,640	4,125	244,415	125,360
232,655	4,267	244,440	125,477
233,669	3,867	244,225	125,030
234,684	4,007	243,958	124,996
235,699	4,345	244,014	125,289
236,713	4,594	243,901	125,421
237,728	4,350	243,535	125,024
238,742	4,022	243,383	124,669
239,757	3,990	243,147	124,511
240,772	4,026	243,013	124,461
241,786	4,089	242,991	124,489
242,801	4,111	242,715	124,354
243,815	4,038	242,622	124,237
244,830	4,165	242,465	124,248
245,844	4,482	242,318	124,417
246,859	4,111	242,218	124,056
247,874	4,180	241,989	123,983
248,888	4,335	241,726	123,962
249,903	3,963	241,783	123,681
250,917	4,229	241,761	123,872
251,932	4,596	241,401	123,971
252,947	4,337	241,301	123,701
253,961	4,148	240,992	123,380
254,976	4,349	240,870	123,467
255,990	4,605	240,837	123,645
257,005	4,206	240,605	123,196
258,020	4,053	240,349	122,931
259,034	3,892	240,409	122,823
260,049	4,215	240,099	122,911
261,063	4,072	239,911	122,689
262,078	4,199	239,730	122,687
263,093	4,138	239,802	122,664
264,107	4,405	239,547	122,736
265,122	4,025	239,452	122,374
266,136	4,196	239,330	122,436
267,151	4,616	239,058	122,620
268,166	4,181	238,876	122,171
269,180	3,987	238,827	121,980
270,195	4,540	238,735	122,361
271,209	4,848	238,745	122,599
272,224	4,380	238,294	121,987
273,239	3,807	238,159	121,454
274,253	3,806	237,908	121,315
275,268	4,288	237,774	121,615
276,282	4,501	237,741	121,755
277,297	3,887	237,464	121,119
278,312	3,977	237,307	121,099
279,326	4,158	237,250	121,201
280,341	4,192	237,002	121,091
281,355	4,384	236,872	121,165
282,370	4,176	236,856	120,982
283,384	4,191	236,645	120,875
284,399	4,151	236,355	120,685
285,414	4,102	236,153	120,533
286,428	4,018	236,156	120,458
287,443	3,993	236,154	120,426
288,457	4,211	235,917	120,466
289,472	4,446	235,761	120,559
290,487	4,166	235,473	120,182
291,501	3,958	235,359	119,951
292,516	4,007	235,190	119,892
293,530	3,886	235,007	119,694
294,545	4,134	235,025	119,886
295,560	4,170	234,875	119,827
296,574	3,926	234,619	119,496
297,589	3,914	234,582	119,457
298,603	4,417	234,456	119,773
299,618	4,373	234,232	119,613
300,633	4,144	234,220	119,419
301,647	4,367	234,084	119,511
302,662	4,627	233,903	119,610
303,676	4,716	233,662	119,544
304,691	4,687	233,481	119,419
305,706	4,374	233,689	119,273
306,720	4,657	233,200	119,231
307,735	4,261	233,206	118,918
308,749	4,366	232,911	118,838
309,764	3,983	232,821	118,486
310,779	4,034	232,537	118,370
311,793	3,876	232,402	118,170
312,808	3,719	232,237	117,955
313,822	3,878	232,084	117,989
314,837	3,722	232,006	117,819
315,852	3,728	231,818	117,717
316,866	3,938	231,668	117,791
317,881	3,752	231,637	117,622
318,895	4,297	231,671	118,047
319,910	4,898	231,476	118,397
320,925	4,374	231,190	117,840
321,939	3,918	230,948	117,358
322,954	4,159	230,802	117,456
323,968	3,903	230,635	117,166
324,983	4,241	230,481	117,335
325,997	4,738	230,462	117,693
327,012	4,546	230,304	117,456
328,027	4,330	230,280	117,269
329,041	4,543	230,105	117,331
330,056	4,942	230,125	117,634
331,070	4,665	230,022	117,360
332,085	4,569	229,645	117,085
333,100	4,254	229,417	116,720
334,114	4,220	229,265	116,607
335,129	4,501	229,169	116,760
336,143	4,704	229,181	116,909
337,158	4,551	229,025	116,703
338,173	4,323	228,688	116,349
339,187	4,261	228,618	116,257
340,202	4,465	228,359	116,268
341,216	4,282	228,212	116,045
342,231	4,294	228,060	115,966
343,246	4,263	228,072	115,939
344,260	4,259	227,824	115,799
345,275	4,482	227,884	115,987
346,289	4,458	227,632	115,830
347,304	4,781	227,481	115,985
348,319	4,592	227,289	115,735
349,333	4,402	227,186	115,531
350,348	4,073	226,967	115,163
351,362	4,418	226,808	115,330
352,377	4,228	226,611	115,077
353,392	4,026	226,366	114,792
354,406	4,182	226,254	114,841
355,421	196,340	1320,678	1400,267
356,435	157,424	1454,014	1400,260
