DTS Sentinel unit serial number:	SN410029Multiplexer serial number:	ORYXHardware model number:	OX2-SRSoftware version number:	ORYX F/W v4,00 Oryx Data Collector v3.7.2.0data status	okinstallation	B5 Nyhavnadifferential loss correction	single-endedforward channel	channel 2reverse channel	N/Adate	2023/12/14time	05:12:13forward acquisition time	300,00reverse acquisition time	0,00gamma	499,1914k internal	0,3156k external	0,3156temperature offset calibration	1,0000default loss term (dB/km)	0,3820temperature slope calibration	1,0000multiplexer offset coefficient	1,0000multiplexer slope coefficient	1,0000fibre end	0,00T internal ref (°C)	7,82T ext. ref 1 (°C)	-8,74T ext. ref 2 (°C)	-8,82length (m)	temperature (°C)	Stokes	anti-Stokes-744,400	-98,192	0,134	-0,025
-743,385	-21,375	-0,283	-0,127
-742,371	-9,386	0,129	-0,063
-741,356	-174,078	-0,459	0,010
-740,342	83,824	0,053	0,043
-739,327	22,807	-0,373	-0,225
-738,312	-55,617	0,221	0,073
-737,298	-44,518	-0,420	-0,154
-736,283	-136,317	0,100	-0,009
-735,269	-150,509	-0,375	-0,021
-734,254	-113,373	0,191	-0,027
-733,239	-30,537	-0,535	-0,223
-732,225	800,000	0,119	0,253
-731,210	635,991	-0,081	0,153
-730,196	66,944	-0,081	-0,061
-729,181	163,633	0,053	-0,055
-728,167	-156,257	-0,112	0,005
-727,152	-200,000	-0,014	0,066
-726,137	-31,194	-0,180	-0,074
-725,123	-13,047	-0,151	-0,072
-724,108	168,120	0,175	-0,184
-723,094	159,326	-0,083	-0,085
-722,079	421,978	-0,027	-0,043
-721,064	105,085	-0,111	-0,096
-720,050	-70,748	-0,090	0,025
-719,035	-76,826	0,133	-0,034
-718,021	175,246	-0,150	-0,160
-717,006	-200,000	-0,002	-0,206
-715,991	-200,000	-0,026	-0,146
-714,977	800,000	-0,040	-0,095
-713,962	134,085	-0,025	-0,024
-712,948	-58,819	-0,071	-0,022
-711,933	-200,000	-0,006	0,115
-710,918	21,711	0,042	-0,025
-709,904	170,900	0,069	-0,072
-708,889	237,007	-0,058	-0,071
-707,875	800,000	-0,036	-0,099
-706,860	-200,000	0,006	-0,065
-705,845	-200,000	0,007	-0,074
-704,831	191,747	-0,044	-0,049
-703,816	-27,589	-0,056	0,024
-702,802	-158,254	0,056	0,002
-701,787	111,237	0,031	-0,027
-700,772	186,618	0,053	0,058
-699,758	800,000	0,051	-0,147
-698,743	-127,405	-0,087	-0,009
-697,729	-148,175	0,101	-0,006
-696,714	153,981	0,107	0,108
-695,699	800,000	-0,046	0,100
-694,685	5,694	-0,064	0,035
-693,670	39,948	-0,050	-0,033
-692,656	800,000	-0,061	0,186
-691,641	169,368	0,079	-0,083
-690,627	800,000	-0,029	0,075
-689,612	143,254	-0,116	-0,114
-688,597	800,000	0,049	0,119
-687,583	800,000	-0,071	-0,147
-686,568	-101,338	-0,174	0,031
-685,554	73,889	-0,072	0,056
-684,539	-42,989	0,119	0,044
-683,524	800,000	0,052	-0,113
-682,510	59,889	0,044	0,032
-681,495	-54,755	0,092	-0,030
-680,481	-82,286	-0,076	0,018
-679,466	182,612	-0,123	-0,134
-678,451	-200,000	0,010	-0,130
-677,437	-153,173	0,071	0,004
-676,422	-200,000	0,016	0,119
-675,408	295,503	-0,067	-0,090
-674,393	103,283	-0,146	0,126
-673,378	-136,739	-0,095	0,008
-672,364	300,084	-0,060	-0,082
-671,349	-200,000	0,003	-0,016
-670,335	-120,539	-0,053	-0,007
-669,320	192,455	0,092	-0,102
-668,305	-200,000	0,011	0,053
-667,291	367,599	-0,060	-0,089
-666,276	290,422	-0,060	0,080
-665,262	-124,466	0,067	-0,008
-664,247	-68,180	-0,063	0,018
-663,232	78,594	0,053	-0,042
-662,218	-26,339	-0,042	-0,018
-661,203	388,044	0,087	-0,132
-660,189	371,211	-0,031	-0,047
-659,174	55,899	-0,030	0,022
-658,159	-52,687	-0,095	-0,032
-657,145	-200,000	0,010	0,089
-656,130	-91,890	0,063	0,013
-655,116	-23,103	0,064	0,028
-654,101	-200,000	-0,024	0,111
-653,086	-56,639	0,075	-0,024
-652,072	800,000	-0,054	-0,170
-651,057	-200,000	-0,023	-0,093
-650,043	-132,357	0,096	-0,009
-649,028	-126,396	0,089	-0,010
-648,014	11,842	0,061	-0,034
-646,999	255,119	-0,053	0,067
-645,984	-44,133	-0,024	0,009
-644,970	-121,606	0,066	0,008
-643,955	-13,788	-0,038	0,018
-642,941	-164,430	-0,145	0,005
-641,926	-200,000	0,028	0,096
-640,911	-114,585	-0,070	0,010
-639,897	-133,860	0,023	0,002
-638,882	-200,000	0,013	0,159
-637,868	-125,251	-0,183	-0,020
-636,853	-81,519	-0,134	0,032
-635,838	-200,000	0,024	-0,157
-634,824	165,860	0,071	0,074
-633,809	-32,892	-0,116	0,047
-632,795	458,408	0,120	0,197
-631,780	800,000	-0,054	-0,117
-630,765	-200,000	0,008	-0,191
-629,751	800,000	-0,085	-0,221
-628,736	-200,000	0,025	-0,131
-627,722	-30,238	0,083	0,034
-626,707	26,569	-0,092	0,057
-625,692	703,669	-0,018	-0,035
-624,678	-200,000	-0,019	-0,088
-623,663	800,000	-0,023	-0,058
-622,649	800,000	-0,033	-0,082
-621,634	138,576	0,036	0,035
-620,619	56,118	0,032	-0,023
-619,605	-200,000	0,004	0,114
-618,590	800,000	-0,020	-0,049
-617,576	-200,000	0,024	0,173
-616,561	487,195	-0,107	0,179
-615,546	-142,208	0,021	0,001
-614,532	-53,611	0,121	-0,040
-613,517	800,000	-0,052	-0,155
-612,503	754,253	-0,067	0,133
-611,488	87,633	0,064	0,052
-610,474	245,517	-0,068	-0,084
-609,459	100,112	0,083	0,071
-608,444	-98,252	-0,046	-0,009
-607,430	-1,526	0,106	-0,055
-606,415	-115,913	-0,071	-0,010
-605,401	-0,512	-0,120	0,062
-604,386	83,965	0,039	-0,032
-603,371	618,259	-0,095	0,175
-602,357	83,196	-0,037	-0,029
-601,342	-27,186	0,110	0,047
-600,328	164,185	-0,071	-0,073
-599,313	-200,000	0,000	-0,036
-598,298	614,385	0,055	0,101
-597,284	201,174	0,083	-0,094
-596,269	35,468	-0,052	-0,034
-595,255	-65,183	-0,076	-0,022
-594,240	-200,000	-0,021	-0,085
-593,225	-102,257	-0,088	-0,015
-592,211	-20,490	-0,174	-0,078
-591,196	13,849	0,164	0,093
-590,182	426,158	0,085	0,135
-589,167	-66,743	0,096	-0,028
-588,152	-200,000	0,015	-0,097
-587,138	-149,595	0,085	0,005
-586,123	-129,186	-0,105	0,011
-585,109	204,247	-0,030	0,034
-584,094	371,574	0,073	-0,109
-583,079	-200,000	-0,010	-0,042
-582,065	88,119	0,072	0,059
-581,050	-89,024	0,089	0,019
-580,036	-89,500	-0,011	0,002
-579,021	-146,952	-0,124	-0,008
-578,006	7,551	-0,076	0,041
-576,992	-200,000	-0,009	0,116
-575,977	60,795	0,142	-0,103
-574,963	-200,000	-0,000	-0,020
-573,948	-143,570	0,137	0,009
-572,934	100,327	-0,039	-0,033
-571,919	-23,672	0,017	-0,008
-570,904	142,892	-0,123	-0,119
-569,890	-157,712	0,084	0,004
-568,875	-200,000	0,009	0,097
-567,861	800,000	0,015	0,036
-566,846	-200,000	0,003	-0,147
-565,831	303,968	0,040	-0,054
-564,817	-200,000	-0,017	-0,073
-563,802	395,531	-0,078	-0,120
-562,788	-115,404	-0,014	-0,002
-561,773	-200,000	-0,007	-0,074
-560,758	340,651	0,045	-0,065
-559,744	-92,835	0,118	-0,024
-558,729	52,830	-0,111	0,077
-557,715	-145,896	-0,198	0,013
-556,700	-31,366	-0,107	-0,044
-555,685	-200,000	-0,046	-0,166
-554,671	635,798	0,035	0,064
-553,656	130,291	0,072	0,068
-552,642	8,521	-0,179	-0,098
-551,627	-47,400	0,017	0,006
-550,612	430,853	-0,023	-0,037
-549,598	-200,000	0,002	0,040
-548,583	-91,884	0,184	0,038
-547,569	68,900	0,082	0,062
-546,554	175,409	-0,032	0,034
-545,539	-125,410	0,189	-0,021
-544,525	-200,000	0,009	0,030
-543,510	-182,926	0,091	-0,001
-542,496	-200,000	0,004	-0,091
-541,481	148,194	0,027	-0,027
-540,466	-185,187	0,076	0,001
-539,452	-168,769	-0,067	-0,002
-538,437	-53,252	0,081	-0,027
-537,423	800,000	-0,040	0,091
-536,408	257,248	-0,105	-0,133
-535,393	95,368	-0,080	-0,067
-534,379	-94,895	-0,043	0,008
-533,364	7,930	0,025	0,014
-532,350	204,696	0,134	0,152
-531,335	73,640	0,036	-0,028
-530,321	310,719	0,132	0,182
-529,306	-73,102	-0,107	-0,028
-528,291	-200,000	-0,007	-0,103
-527,277	356,636	0,054	0,080
-526,262	-200,000	-0,015	0,087
-525,248	-53,711	-0,108	-0,036
-524,233	-200,000	0,003	0,175
-523,218	187,297	0,074	0,080
-522,204	205,952	-0,077	0,087
-521,189	-121,392	-0,163	0,020
-520,175	-200,000	0,015	-0,067
-519,160	-36,601	-0,061	-0,024
-518,145	566,440	0,023	0,040
-517,131	-200,000	-0,005	0,022
-516,116	-200,000	0,000	0,024
-515,102	588,156	-0,036	-0,065
-514,087	353,255	0,033	-0,048
-513,072	-88,429	-0,146	-0,032
-512,058	182,867	-0,035	-0,038
-511,043	-69,120	-0,068	0,019
-510,029	201,915	0,056	0,063
-509,014	28,221	-0,050	0,031
-507,999	723,688	0,037	-0,073
-506,985	-157,552	-0,219	0,009
-505,970	800,000	-0,032	-0,080
-504,956	-200,000	0,006	0,096
-503,941	496,650	0,093	-0,157
-502,926	101,878	-0,159	0,135
-501,912	29,373	0,074	0,046
-500,897	800,000	-0,069	0,158
-499,883	-60,878	-0,079	-0,024
-498,868	178,360	-0,045	-0,048
-497,853	-200,000	0,030	-0,186
-496,839	85,376	-0,092	0,074
-495,824	800,000	-0,041	0,118
-494,810	698,379	0,086	0,165
-493,795	364,756	0,069	0,102
-492,781	256,671	0,017	0,022
-491,766	-61,551	-0,057	-0,018
-490,751	-200,000	-0,006	-0,081
-489,737	305,871	0,079	-0,107
-488,722	271,523	0,085	0,109
-487,708	800,000	0,008	0,019
-486,693	13,082	0,098	-0,055
-485,678	137,513	-0,077	0,074
-484,664	-200,000	-0,001	-0,066
-483,649	23,781	-0,045	-0,027
-482,635	800,000	0,049	-0,131
-481,620	800,000	0,018	-0,043
-480,605	17,572	0,071	-0,041
-479,591	32,578	0,142	-0,090
-478,576	531,732	0,026	0,045
-477,562	800,000	0,024	-0,070
-476,547	-33,851	-0,092	0,037
-475,532	488,143	-0,036	0,060
-474,518	-200,000	0,012	-0,109
-473,503	-96,101	0,112	0,022
-472,489	-200,000	-0,024	-0,099
-471,474	144,269	0,023	-0,023
-470,459	-11,814	-0,040	-0,019
-469,445	455,261	-0,056	-0,091
-468,430	163,335	-0,038	-0,039
-467,416	-200,000	-0,008	0,053
-466,401	555,011	-0,058	0,102
-465,386	800,000	-0,059	0,137
-464,372	800,000	0,029	-0,063
-463,357	-200,000	0,026	0,148
-462,343	-33,459	-0,050	-0,020
-461,328	-200,000	0,013	-0,087
-460,313	-200,000	0,006	-0,129
-459,299	29,510	-0,100	0,062
-458,284	216,745	-0,058	-0,068
-457,270	251,788	-0,045	-0,056
-456,255	113,789	0,057	-0,051
-455,241	-18,172	0,037	0,017
-454,226	-112,220	-0,015	-0,002
-453,211	154,944	-0,051	0,051
-452,197	52,010	0,054	0,038
-451,182	-112,618	-0,041	-0,006
-450,168	191,192	0,022	-0,024
-449,153	124,476	0,060	0,055
-448,138	-70,606	-0,115	-0,032
-447,124	156,479	-0,074	-0,075
-446,109	-200,000	0,020	-0,077
-445,095	-200,000	-0,003	0,064
-444,080	-200,000	-0,015	0,078
-443,065	800,000	-0,039	-0,080
-442,051	-107,412	0,165	-0,026
-441,036	-200,000	-0,007	-0,078
-440,022	191,025	-0,012	0,013
-439,007	-200,000	0,010	-0,036
-437,992	-110,433	-0,044	0,007
-436,978	-200,000	0,000	0,083
-435,963	-200,000	-0,016	0,110
-434,949	-63,515	0,013	0,004
-433,934	49,879	-0,096	-0,066
-432,919	125,983	-0,100	-0,092
-431,905	65,304	0,190	0,140
-430,890	125,021	-0,038	0,035
-429,876	-200,000	0,018	0,157
-428,861	-200,000	-0,052	0,172
-427,846	-154,607	0,038	-0,002
-426,832	372,970	0,081	-0,120
-425,817	-6,233	0,040	-0,020
-424,803	800,000	-0,052	-0,157
-423,788	445,598	0,040	-0,065
-422,773	-25,360	-0,026	-0,011
-421,759	77,697	0,043	-0,033
-420,744	62,375	0,091	-0,066
-419,730	486,054	0,025	-0,042
-418,715	-200,000	0,015	0,049
-417,701	15,808	-0,024	-0,013
-416,686	-200,000	0,006	-0,029
-415,671	-200,000	0,002	0,096
-414,657	457,045	0,094	0,152
-413,642	-68,109	-0,065	0,018
-412,628	159,751	0,047	-0,048
-411,613	23,152	-0,123	-0,073
-410,598	4,477	0,036	0,019
-409,584	59,952	0,092	0,066
-408,569	-59,486	0,088	0,027
-407,555	-45,875	0,154	0,055
-406,540	-113,247	0,040	0,006
-405,525	-200,000	0,000	0,060
-404,511	-200,000	0,029	-0,138
-403,496	-200,000	-0,001	-0,102
-402,482	-14,889	0,073	0,034
-401,467	-7,658	0,111	0,054
-400,452	-200,000	-0,004	0,092
-399,438	800,000	-0,017	0,054
-398,423	-124,306	-0,036	-0,004
-397,409	-200,000	-0,009	-0,054
-396,394	232,698	0,047	0,056
-395,379	1,253	0,144	-0,075
-394,365	37,238	0,034	0,022
-393,350	438,797	0,075	0,120
-392,336	348,126	0,078	0,113
-391,321	48,519	0,057	-0,039
-390,306	-146,819	-0,077	0,005
-389,292	593,812	-0,103	0,186
-388,277	-44,647	0,083	0,030
-387,263	-74,768	0,056	0,015
-386,248	-200,000	-0,043	0,247
-385,233	800,000	-0,007	0,024
-384,219	800,000	-0,036	0,078
-383,204	174,135	-0,117	0,123
-382,190	-77,641	-0,110	-0,027
-381,175	614,911	0,059	-0,108
-380,160	-200,000	0,089	0,000
-379,146	264,108	-0,075	0,096
-378,131	800,000	0,054	-0,137
-377,117	14,413	0,016	0,009
-376,102	235,974	0,070	-0,084
-375,088	-200,000	0,002	-0,120
-374,073	-200,000	0,007	-0,052
-373,058	800,000	-0,016	0,051
-372,044	6,570	0,089	0,048
-371,029	-200,000	0,010	0,041
-370,015	54,332	-0,076	0,053
-369,000	64,711	-0,075	-0,055
-367,985	296,014	-0,099	-0,132
-366,971	-200,000	-0,007	-0,022
-365,956	241,248	0,133	-0,161
-364,942	-200,000	-0,000	0,044
-363,927	-200,000	0,005	0,043
-362,912	-200,000	-0,023	0,241
-361,898	-200,000	0,013	0,067
-360,883	800,000	-0,035	-0,102
-359,869	-143,913	0,051	0,003
-358,854	128,287	0,008	0,007
-357,839	-200,000	0,008	-0,196
-356,825	-79,511	-0,097	0,024
-355,810	-200,000	0,013	-0,066
-354,796	97,489	-0,091	-0,076
-353,781	-200,000	-0,015	-0,097
-352,766	-116,140	-0,086	0,011
-351,752	419,811	-0,036	0,055
-350,737	2,692	0,039	0,020
-349,723	-200,000	0,006	0,116
-348,708	800,000	0,034	0,095
-347,693	-200,000	-0,006	0,186
-346,679	800,000	-0,046	-0,122
-345,664	-99,987	-0,027	-0,005
-344,650	178,507	0,060	-0,063
-343,635	-68,600	0,191	-0,053
-342,620	794,373	0,004	-0,008
-341,606	-38,274	0,054	0,021
-340,591	186,406	0,109	0,118
-339,577	331,321	-0,115	-0,161
-338,562	59,137	-0,033	0,024
-337,548	-114,922	-0,074	0,010
-336,533	-29,123	0,135	-0,056
-335,518	173,387	-0,061	-0,064
-334,504	171,196	-0,128	0,134
-333,489	56,409	-0,084	-0,060
-332,475	-200,000	0,001	-0,028
-331,460	800,000	0,057	-0,129
-330,445	-200,000	-0,003	-0,182
-329,431	144,564	0,109	-0,106
-328,416	-26,902	0,188	-0,079
-327,402	800,000	0,034	0,076
-326,387	-37,354	-0,054	-0,021
-325,372	-36,257	0,085	-0,033
-324,358	80,159	-0,153	-0,119
-323,343	402,950	0,039	0,060
-322,329	-200,000	-0,028	0,133
-321,314	43,118	0,038	0,025
-320,299	-128,345	-0,066	-0,007
-319,285	317,528	-0,052	-0,072
-318,270	11,731	-0,039	-0,022
-317,256	-8,343	-0,140	-0,068
-316,241	139,296	0,100	-0,096
-315,226	800,000	0,017	0,053
-314,212	800,000	0,120	0,243
-313,197	-54,076	-0,201	0,066
-312,183	75,368	0,086	0,065
-311,168	32,307	0,093	-0,058
-310,153	-11,086	-0,087	-0,042
-309,139	286,705	0,041	-0,053
-308,124	131,861	0,082	0,076
-307,110	-200,000	0,014	0,129
-306,095	-91,066	0,155	-0,032
-305,080	800,000	0,013	-0,035
-304,066	-200,000	-0,013	0,077
-303,051	313,176	0,058	-0,079
-302,037	-200,000	-0,047	-0,174
-301,022	9,942	0,055	-0,030
-300,008	-119,799	0,083	0,010
-298,993	-200,000	0,003	0,039
-297,978	-162,249	0,024	-0,001
-296,964	-200,000	-0,012	0,087
-295,949	-79,995	-0,092	0,022
-294,935	9,582	0,038	-0,021
-293,920	-200,000	0,018	0,098
-292,905	-200,000	0,018	0,086
-291,891	-2,142	0,120	0,061
-290,876	238,290	-0,009	-0,011
-289,862	800,000	0,019	0,040
-288,847	-44,377	-0,046	-0,017
-287,832	103,999	0,055	-0,047
-286,818	-23,275	-0,049	0,021
-285,803	522,272	-0,055	-0,094
-284,789	-200,000	-0,013	0,052
-283,774	59,899	-0,106	0,075
-282,759	3,788	0,098	0,052
-281,745	8,443	0,065	0,035
-280,730	-71,634	-0,147	0,039
-279,716	446,772	-0,029	0,047
-278,701	-200,000	0,038	-0,169
-277,686	-200,000	-0,031	0,120
-276,672	-200,000	0,011	0,279
-275,657	-91,114	0,060	0,012
-274,643	103,154	-0,057	0,049
-273,628	255,320	0,134	-0,166
-272,613	709,886	-0,042	-0,080
-271,599	26,434	0,082	-0,050
-270,584	-108,075	0,071	-0,011
-269,570	800,000	0,019	0,049
-268,555	182,063	-0,041	-0,044
-267,540	-84,016	0,098	-0,022
-266,526	468,899	0,048	0,078
-265,511	-200,000	0,006	-0,020
-264,497	60,085	-0,060	-0,043
-263,482	-33,775	-0,074	-0,030
-262,467	-32,850	0,037	-0,015
-261,453	800,000	-0,057	-0,121
-260,438	29,269	-0,010	-0,006
-259,424	-98,164	0,065	-0,012
-258,409	228,639	-0,029	0,034
-257,395	-200,000	0,015	-0,154
-256,380	800,000	0,027	0,064
-255,365	-41,783	-0,147	0,054
-254,351	219,087	-0,057	0,067
-253,336	-72,963	0,123	-0,032
-252,322	-200,000	-0,008	-0,049
-251,307	-111,706	-0,130	0,019
-250,292	141,024	0,004	-0,004
-249,278	-200,000	0,012	0,080
-248,263	800,000	0,035	-0,105
-247,249	800,000	-0,027	-0,081
-246,234	87,068	-0,113	-0,091
-245,219	-51,244	-0,048	0,016
-244,205	406,615	0,055	-0,085
-243,190	-40,366	0,033	-0,012
-242,176	92,060	-0,089	-0,073
-241,161	-24,291	0,150	-0,064
-240,146	602,621	0,016	0,030
-239,132	154,976	0,052	0,052
-238,117	-200,000	0,007	-0,057
-237,103	69,051	0,057	-0,043
-236,088	-200,000	0,030	0,100
-235,073	800,000	0,041	0,097
-234,059	-153,956	0,162	0,008
-233,044	-40,832	-0,105	-0,039
-232,030	203,796	0,019	-0,022
-231,015	-59,006	-0,021	0,007
-230,000	364,375	-0,052	-0,075
-228,986	-55,245	-0,038	-0,012
-227,971	-111,666	-0,151	0,022
-226,957	-72,207	0,025	-0,007
-225,942	-0,588	0,048	0,024
-224,927	-200,000	0,005	-0,029
-223,913	-200,000	-0,014	-0,104
-222,898	-200,000	-0,007	-0,060
-221,884	-153,341	-0,054	0,003
-220,869	589,353	-0,059	-0,105
-219,855	228,875	-0,096	-0,114
-218,840	-45,414	0,047	0,017
-217,825	-200,000	-0,001	0,130
-216,811	-9,699	-0,082	-0,039
-215,796	-200,000	0,022	-0,105
-214,782	11,264	-0,111	0,061
-213,767	-82,408	-0,139	0,032
-212,752	438,937	0,068	-0,108
-211,738	453,679	0,049	0,079
-210,723	-200,000	-0,025	0,110
-209,709	172,335	-0,080	0,083
-208,694	-200,000	0,005	-0,116
-207,679	-98,793	-0,124	0,023
-206,665	77,539	-0,048	-0,037
-205,650	662,149	-0,041	-0,077
-204,636	73,674	0,076	-0,057
-203,621	-200,000	0,018	0,066
-202,606	-200,000	0,017	0,126
-201,592	-200,000	-0,004	-0,121
-200,577	-143,144	0,055	-0,004
-199,563	-200,000	0,026	-0,082
-198,548	64,541	-0,069	0,050
-197,533	-200,000	-0,012	0,071
-196,519	261,908	0,092	0,115
-195,504	168,598	-0,084	-0,086
-194,490	-125,388	-0,108	-0,012
-193,475	-41,073	0,038	-0,014
-192,460	-132,845	-0,161	0,015
-191,446	740,092	0,075	0,146
-190,431	-101,172	0,163	-0,029
-189,417	27,829	-0,045	0,027
-188,402	-200,000	-0,015	-0,102
-187,387	-9,493	0,075	0,036
-186,373	31,448	-0,108	-0,067
-185,358	-129,712	-0,060	-0,006
-184,344	-128,889	0,205	0,021
-183,329	-200,000	0,015	-0,115
-182,315	410,833	-0,034	0,053
-181,300	-66,032	0,006	0,002
-180,285	-200,000	0,001	-0,008
-179,271	-146,009	0,111	0,007
-178,256	800,000	0,029	0,079
-177,242	130,569	0,068	0,063
-176,227	297,797	-0,041	0,054
-175,212	359,837	-0,027	0,039
-174,198	477,398	0,037	0,061
-173,183	-200,000	-0,011	-0,051
-172,169	470,192	0,069	-0,113
-171,154	502,692	-0,060	-0,101
-170,139	-164,341	-0,106	-0,003
-169,125	800,000	0,076	0,156
-168,110	57,012	0,122	0,085
-167,096	-65,891	0,091	-0,026
-166,081	-200,000	-0,015	-0,066
-165,066	800,000	-0,023	-0,066
-164,052	800,000	-0,026	-0,069
-163,037	-200,000	0,009	0,158
-162,023	132,093	-0,091	0,084
-161,008	-78,834	-0,194	0,047
-159,993	-186,912	0,041	-0,000
-158,979	-200,000	-0,028	0,227
-157,964	800,000	0,033	-0,082
-156,950	-200,000	-0,021	0,158
-155,935	177,627	0,040	-0,042
-154,920	121,954	0,071	0,064
-153,906	-69,802	0,068	0,018
-152,891	17,941	-0,099	-0,057
-151,877	-68,938	-0,195	-0,054
-150,862	800,000	0,018	-0,051
-149,847	800,000	-0,044	-0,124
-148,833	-200,000	0,011	0,069
-147,818	-200,000	0,000	-0,075
-146,804	50,436	-0,053	0,036
-145,789	-200,000	-0,025	-0,122
-144,775	655,615	-0,034	-0,063
-143,760	-41,335	-0,092	-0,034
-142,745	-80,887	-0,107	0,025
-141,731	106,362	0,111	-0,095
-140,716	-134,997	0,058	-0,005
-139,702	-200,000	0,002	-0,016
-138,687	-114,346	0,115	-0,016
-137,672	380,644	-0,055	0,082
-136,658	-200,000	0,005	0,048
-135,643	-58,127	0,013	-0,004
-134,629	170,825	0,031	-0,032
-133,614	-69,405	0,089	-0,024
-132,599	-55,808	0,155	-0,049
-131,585	-200,000	-0,037	0,169
-130,570	-146,669	-0,109	0,007
-129,556	-124,382	0,009	-0,001
-128,541	-200,000	-0,009	-0,087
-127,526	62,390	0,066	0,047
-126,512	66,924	-0,056	0,041
-125,497	-81,920	-0,034	-0,008
-124,483	-60,133	0,151	-0,046
-123,468	-200,000	0,001	-0,194
-122,453	-112,276	0,020	0,003
-121,439	-48,692	-0,230	-0,079
-120,424	-15,284	-0,071	0,033
-119,410	-200,000	0,001	-0,068
-118,395	151,209	-0,154	0,151
-117,380	35,151	-0,035	-0,022
-116,366	-200,000	-0,025	-0,084
-115,351	-200,000	-0,003	-0,064
-114,337	-27,313	-0,070	-0,029
-113,322	42,833	-0,007	-0,005
-112,307	79,591	0,055	0,042
-111,293	-155,890	-0,141	-0,006
-110,278	152,143	0,018	0,018
-109,264	477,531	-0,082	-0,134
-108,249	800,000	0,049	-0,118
-107,234	-103,714	0,233	0,039
-106,220	-200,000	-0,005	-0,089
-105,205	53,291	-0,125	0,086
-104,191	63,948	0,105	0,076
-103,176	-37,358	0,164	0,063
-102,162	-96,205	-0,092	-0,017
-101,147	800,000	-0,060	-0,145
-100,132	-200,000	0,015	-0,055
-99,118	93,332	-0,128	-0,104
-98,103	-69,571	-0,014	0,004
-97,089	93,712	-0,063	0,052
-96,074	-200,000	0,017	0,071
-95,059	-200,000	-0,008	-0,044
-94,045	-55,894	-0,112	-0,036
-93,030	54,013	-0,063	0,043
-92,016	-162,945	-0,107	0,004
-91,001	182,741	-0,061	0,065
-89,986	-200,000	-0,003	-0,078
-88,972	-200,000	-0,003	0,094
-87,957	-184,490	0,093	0,001
-86,943	-200,000	0,018	-0,147
-85,928	-200,000	0,005	-0,030
-84,913	14,613	-0,106	0,059
-83,899	-76,576	0,093	0,023
-82,884	-105,458	0,128	-0,021
-81,870	536,293	0,111	-0,190
-80,855	439,921	0,048	-0,076
-79,840	-9,607	-0,114	0,054
-78,826	800,000	0,061	-0,134
-77,811	-200,000	0,003	-0,100
-76,797	324,951	0,026	-0,036
-75,782	800,000	-0,018	0,046
-74,767	-138,078	0,094	0,007
-73,753	-200,000	0,016	0,104
-72,738	233,204	-0,018	-0,022
-71,724	-181,777	-0,047	0,001
-70,709	-116,394	-0,034	0,004
-69,694	759,946	0,092	-0,181
-68,680	95,940	-0,046	0,038
-67,665	-200,000	0,017	-0,165
-66,651	-200,000	-0,023	-0,083
-65,636	-119,162	-0,104	0,013
-64,622	245,888	0,056	-0,068
-63,607	-130,116	-0,159	-0,015
-62,592	-40,874	0,023	0,008
-61,578	-128,861	-0,150	-0,015
-60,563	-133,460	-0,137	-0,012
-59,549	106,621	-0,127	0,108
-58,534	92,382	-2,617	-2,117
-57,519	22,863	0,297	-0,174
-56,505	-200,000	-1,676	-5,555
-55,490	498,342	1,161	1,927
-54,476	800,000	5,199	11,313
-53,461	-200,000	22,358	348,203
-52,446	800,000	760,455	2292,177
-51,432	512,105	1644,202	2759,744
-50,417	96,567	1606,436	1319,653
-49,403	64,349	1263,751	912,565
-48,388	22,804	1016,124	596,156
-47,373	19,441	983,632	565,988
-46,359	12,843	970,510	536,862
-45,344	8,468	967,408	520,811
-44,330	8,919	965,341	521,152
-43,315	7,937	963,788	517,087
-42,300	7,866	962,618	516,206
-41,286	7,897	961,490	515,681
-40,271	7,833	960,512	514,929
-39,257	7,864	959,608	514,523
-38,242	7,854	958,848	514,065
-37,227	7,791	958,099	513,437
-36,213	7,825	957,355	513,129
-35,198	7,790	956,366	512,466
-34,184	7,869	955,490	512,232
-33,169	7,803	954,578	511,507
-32,154	7,846	953,818	511,219
-31,140	7,910	952,659	510,785
-30,125	7,961	951,990	510,571
-29,111	7,932	951,081	509,969
-28,096	7,903	950,669	509,634
-27,082	7,905	949,973	509,247
-26,067	7,870	949,443	508,831
-25,052	7,835	948,484	508,186
-24,038	7,866	947,689	507,837
-23,023	7,759	946,998	507,103
-22,009	7,878	946,409	507,150
-20,994	7,873	945,807	506,792
-19,979	7,819	945,225	506,287
-18,965	7,827	944,529	505,919
-17,950	7,822	944,115	505,661
-16,936	7,744	943,467	505,044
-15,921	7,803	942,650	504,777
-14,906	7,702	942,055	504,115
-13,892	7,755	941,285	503,853
-12,877	7,667	940,914	503,354
-11,863	7,731	939,993	503,043
-10,848	7,814	939,508	503,027
-9,833	7,839	939,112	502,877
-8,819	7,800	938,541	502,427
-7,804	7,728	937,986	501,880
-6,790	7,768	937,160	501,546
-5,775	7,822	936,769	501,487
-4,760	7,793	936,079	501,008
-3,746	7,742	935,605	500,570
-2,731	7,653	934,662	499,766
-1,717	7,568	934,231	499,246
-0,702	7,565	933,473	498,813
0,313	7,448	932,754	498,811
1,327	10,879	930,492	508,367
2,342	19,526	778,559	447,990
3,356	14,576	446,448	249,439
4,371	-12,050	311,424	145,771
5,386	-15,778	293,979	133,835
6,400	-17,878	287,877	128,971
7,415	-17,986	285,496	127,786
8,429	-18,533	283,438	126,322
9,444	-18,619	282,552	125,833
10,459	-18,514	282,008	125,681
11,473	-18,405	281,365	125,488
12,488	-18,503	280,813	125,136
13,502	-18,481	280,420	124,971
14,517	-18,329	280,050	124,941
15,531	-18,402	279,657	124,685
16,546	-18,317	279,015	124,469
17,561	-18,361	278,736	124,291
18,575	-18,315	278,553	124,243
19,590	-18,226	278,000	124,070
20,604	-18,295	277,822	123,913
21,619	-18,347	277,377	123,654
22,634	-18,393	277,038	123,449
23,648	-18,271	276,766	123,432
24,663	-18,281	276,566	123,323
25,677	-18,265	276,084	123,112
26,692	-18,246	275,935	123,052
27,707	-18,220	275,643	122,936
28,721	-18,220	275,420	122,825
29,736	-18,334	275,113	122,569
30,750	-18,109	274,819	122,639
31,765	-18,346	274,694	122,350
32,780	-18,272	274,366	122,263
33,794	-18,384	274,196	122,070
34,809	-18,058	273,911	122,238
35,823	-18,235	273,661	121,950
36,838	-18,242	273,253	121,751
37,853	-18,371	273,151	121,574
38,867	-18,305	272,849	121,491
39,882	-18,329	272,694	121,388
40,896	-18,127	272,356	121,415
41,911	-18,107	272,267	121,383
42,926	-18,021	271,918	121,297
43,940	-18,261	271,690	120,962
44,955	-18,176	271,348	120,878
45,969	-18,191	271,373	120,864
46,984	-18,309	271,228	120,679
47,999	-18,098	270,975	120,751
49,013	-18,002	270,699	120,706
50,028	-18,082	270,559	120,559
51,042	-17,929	270,034	120,456
52,057	-17,966	269,910	120,355
53,071	-18,059	269,801	120,210
54,086	-18,199	269,724	120,036
55,101	-18,035	269,453	120,056
56,115	-18,119	269,097	119,809
57,130	-18,312	269,029	119,591
58,144	-18,261	268,491	119,388
59,159	-18,218	268,219	119,296
60,174	-18,362	268,040	119,074
61,188	-18,372	267,790	118,943
62,203	-18,112	267,729	119,143
63,217	-18,144	267,382	118,949
64,232	-18,330	267,170	118,674
65,247	-18,357	266,901	118,519
66,261	-18,151	266,709	118,611
67,276	-18,230	266,536	118,451
68,290	-18,138	266,329	118,433
69,305	-18,086	266,053	118,347
70,320	-18,083	265,621	118,147
71,334	-18,119	265,635	118,110
72,349	-18,138	265,245	117,909
73,363	-18,324	265,081	117,657
74,378	-18,325	264,960	117,592
75,393	-18,287	264,744	117,520
76,407	-18,104	264,410	117,526
77,422	-18,054	264,130	117,436
78,436	-18,066	263,947	117,334
79,451	-18,227	263,854	117,137
80,466	-18,318	263,468	116,874
81,480	-18,179	263,268	116,899
82,495	-18,180	263,109	116,817
83,509	-18,132	263,010	116,806
84,524	-18,059	262,688	116,717
85,539	-17,998	262,447	116,655
86,553	-18,070	262,274	116,503
87,568	-18,113	262,034	116,348
88,582	-17,908	261,977	116,495
89,597	-17,989	261,559	116,226
90,611	-18,117	261,441	116,050
91,626	-18,243	261,318	115,873
92,641	-18,163	261,176	115,870
93,655	-18,142	260,942	115,775
94,670	-18,037	260,648	115,728
95,684	-18,267	260,441	115,421
96,699	-18,225	260,278	115,377
97,714	-18,175	260,077	115,321
98,728	-18,010	259,792	115,330
99,743	-18,096	259,631	115,172
100,757	-18,094	259,493	115,103
101,772	-18,095	259,284	114,999
102,787	-18,173	259,146	114,858
103,801	-18,143	258,769	114,708
104,816	-18,064	258,575	114,681
105,830	-18,311	258,516	114,427
106,845	-18,274	258,358	114,380
107,860	-18,147	257,965	114,307
108,874	-18,342	257,842	114,072
109,889	-18,168	257,536	114,078
110,903	-18,203	257,412	113,982
111,918	-18,029	257,117	113,993
112,933	-18,012	256,875	113,891
113,947	-18,146	256,670	113,673
114,962	-18,176	256,580	113,597
115,976	-18,221	256,350	113,446
116,991	-18,182	256,218	113,411
118,006	-18,143	255,838	113,267
119,020	-18,203	255,719	113,152
120,035	-18,077	255,651	113,221
121,049	-18,051	255,434	113,138
122,064	-18,065	255,290	113,051
123,079	-18,096	254,952	112,865
124,093	-18,058	254,837	112,837
125,108	-18,224	254,697	112,621
126,122	-17,887	254,517	112,823
127,137	-17,952	254,305	112,663
128,151	-18,125	253,996	112,366
129,166	-18,007	253,957	112,441
130,181	-17,990	253,647	112,308
131,195	-18,005	253,369	112,162
132,210	-17,931	253,192	112,138
133,224	-18,179	252,825	111,752
134,239	-18,242	252,914	111,727
135,254	-18,096	252,531	111,673
136,268	-18,056	252,413	111,646
137,283	-18,005	252,252	111,608
138,297	-17,927	251,999	111,553
139,312	-17,925	251,863	111,484
140,327	-18,008	251,580	111,278
141,341	-18,092	251,374	111,106
142,356	-18,032	251,216	111,077
143,370	-18,097	250,964	110,900
144,385	-17,937	250,754	110,934
145,400	-18,031	250,645	110,796
146,414	-18,203	250,351	110,510
147,429	-18,117	250,331	110,564
148,443	-18,272	250,232	110,379
149,458	-18,014	249,746	110,374
150,473	-18,029	249,547	110,263
151,487	-18,232	249,594	110,103
152,502	-18,089	249,332	110,098
153,516	-18,017	249,145	110,066
154,531	-18,078	248,938	109,913
155,546	-18,083	248,750	109,816
156,560	-18,040	248,763	109,849
157,575	-18,086	248,378	109,629
158,589	-17,910	248,226	109,701
159,604	-18,168	247,984	109,367
160,619	-18,092	247,876	109,374
161,633	-17,928	247,643	109,399
162,648	-18,075	247,545	109,223
163,662	-18,172	247,329	109,036
164,677	-17,970	247,232	109,153
165,692	-18,049	247,027	108,987
166,706	-18,175	246,903	108,817
167,721	-17,928	246,565	108,865
168,735	-18,077	246,567	108,731
169,750	-18,146	246,410	108,595
170,764	-17,987	246,155	108,605
171,779	-18,096	245,968	108,422
172,794	-17,810	245,853	108,600
173,808	-17,927	245,671	108,412
174,823	-17,869	245,491	108,371
175,837	-17,670	245,217	108,405
176,852	-17,992	245,151	108,100
177,867	-17,904	245,012	108,102
178,881	-17,954	244,797	107,956
179,896	-17,890	244,638	107,930
180,910	-17,870	244,442	107,850
181,925	-18,004	244,140	107,596
182,940	-18,288	244,137	107,351
183,954	-18,129	243,918	107,376
184,969	-18,147	243,784	107,293
185,983	-17,980	243,460	107,278
186,998	-18,078	243,386	107,156
188,013	-17,792	243,183	107,292
189,027	-18,044	243,046	107,015
190,042	-18,074	242,847	106,893
191,056	-17,992	242,694	106,883
192,071	-18,066	242,598	106,771
193,086	-18,094	242,377	106,641
194,100	-17,920	242,093	106,649
195,115	-17,931	241,867	106,530
196,129	-18,302	241,735	106,160
197,144	-18,128	241,438	106,162
198,159	-17,981	241,347	106,233
199,173	-17,972	241,191	106,162
200,188	-18,243	241,056	105,873
201,202	-18,020	240,855	105,956
202,217	-18,032	240,779	105,903
203,232	-17,764	240,478	105,979
204,246	-18,173	240,269	105,546
205,261	-18,291	240,113	105,373
206,275	-16,488	240,506	106,998
207,290	-12,130	242,132	111,267
208,304	-5,839	244,172	117,359
209,319	-2,382	245,261	120,716
210,334	-1,005	245,266	121,838
211,348	-0,410	245,517	122,442
212,363	0,153	245,584	122,926
213,377	0,492	245,383	123,093
214,392	0,395	245,510	123,067
215,407	0,939	245,329	123,411
216,421	1,182	245,192	123,531
217,436	1,172	245,049	123,439
218,450	1,204	244,775	123,316
219,465	1,391	244,795	123,468
220,480	1,268	244,483	123,200
221,494	1,269	244,543	123,219
222,509	0,875	244,198	122,713
223,523	0,518	243,872	122,247
224,538	0,510	243,733	122,160
225,553	0,538	243,649	122,131
226,567	0,485	243,303	121,903
227,582	0,591	243,151	121,902
228,596	0,621	243,104	121,892
229,611	0,480	243,099	121,764
230,626	0,486	242,829	121,623
231,640	0,523	242,650	121,552
232,655	0,443	242,413	121,358
233,669	0,419	242,225	121,234
234,684	0,301	242,089	121,059
235,699	0,580	242,018	121,238
236,713	0,475	241,774	121,021
237,728	0,381	241,684	120,889
238,742	0,670	241,338	120,938
239,757	0,444	241,362	120,757
240,772	0,583	241,228	120,791
241,786	0,469	240,990	120,570
242,801	0,406	240,750	120,388
243,815	0,500	240,680	120,417
244,830	0,386	240,545	120,248
245,844	0,535	240,356	120,262
246,859	0,430	240,191	120,084
247,874	0,557	240,028	120,094
248,888	0,420	239,906	119,913
249,903	0,739	239,658	120,033
250,917	0,498	239,708	119,855
251,932	0,640	239,496	119,851
252,947	0,660	239,306	119,762
253,961	0,620	239,144	119,638
254,976	0,549	238,899	119,448
255,990	0,670	238,824	119,497
257,005	0,441	238,655	119,219
258,020	0,507	238,552	119,210
259,034	0,592	238,489	119,235
260,049	0,588	238,237	119,095
261,063	0,545	238,131	118,998
262,078	0,504	237,821	118,799
263,093	0,524	237,683	118,736
264,107	0,436	237,604	118,617
265,122	0,417	237,336	118,457
266,136	0,633	237,184	118,541
267,151	0,598	237,142	118,482
268,166	0,431	236,910	118,223
269,180	0,518	236,775	118,214
270,195	0,517	236,636	118,133
271,209	0,519	236,469	118,041
272,224	0,439	236,264	117,866
273,239	0,615	236,148	117,936
274,253	0,676	236,083	117,940
275,268	0,639	235,954	117,836
276,282	0,616	235,615	117,638
277,297	0,524	235,605	117,551
278,312	0,368	235,499	117,365
279,326	0,430	235,294	117,302
280,341	0,526	235,082	117,260
281,355	0,722	234,943	117,333
282,370	0,489	234,991	117,165
283,384	0,698	234,612	117,128
284,399	0,672	234,544	117,064
285,414	0,340	234,597	116,821
286,428	0,459	234,270	116,740
287,443	0,513	234,193	116,734
288,457	0,888	234,000	116,919
289,472	0,623	233,725	116,565
290,487	0,482	233,661	116,413
291,501	0,542	233,539	116,388
292,516	0,651	233,353	116,370
293,530	0,578	233,292	116,272
294,545	0,595	233,059	116,160
295,560	0,609	232,885	116,073
296,574	0,603	232,844	116,037
297,589	0,676	232,598	115,961
298,603	0,644	232,467	115,861
299,618	0,843	232,273	115,907
300,633	0,818	232,186	115,834
301,647	0,601	232,092	115,609
302,662	0,927	231,978	115,793
303,676	0,845	231,771	115,617
304,691	0,976	231,506	115,575
305,706	0,696	231,378	115,286
306,720	0,500	231,526	115,198
307,735	0,737	231,252	115,234
308,749	0,879	231,018	115,215
309,764	0,705	230,862	114,994
310,779	0,958	230,700	115,097
311,793	0,616	230,512	114,732
312,808	0,720	230,433	114,762
313,822	0,836	230,340	114,794
314,837	0,988	230,100	114,779
315,852	0,741	229,967	114,515
316,866	0,868	229,851	114,544
317,881	0,869	229,567	114,392
318,895	0,804	229,598	114,348
319,910	0,821	229,302	114,203
320,925	0,832	229,277	114,189
321,939	0,886	229,092	114,128
322,954	0,815	228,916	113,976
323,968	1,001	228,849	114,074
324,983	0,874	228,629	113,858
325,997	0,689	228,533	113,660
327,012	0,956	228,357	113,764
328,027	0,696	228,362	113,560
329,041	0,855	228,062	113,521
330,056	0,883	227,986	113,494
331,070	1,026	227,816	113,507
332,085	0,880	227,614	113,286
333,100	1,020	227,417	113,283
334,114	0,857	227,253	113,069
335,129	0,935	227,091	113,037
336,143	0,819	226,999	112,894
337,158	0,955	226,857	112,915
338,173	0,888	226,813	112,833
339,187	0,900	226,745	112,798
340,202	1,018	226,389	112,699
341,216	1,097	226,343	112,725
342,231	1,010	226,221	112,589
343,246	1,241	226,034	112,659
344,260	1,085	225,912	112,471
345,275	1,097	225,799	112,414
346,289	0,952	225,603	112,198
347,304	1,207	225,351	112,253
348,319	1,386	225,246	112,324
349,333	1,039	225,160	112,013
350,348	0,994	225,022	111,901
351,362	0,806	224,888	111,685
352,377	0,911	224,792	111,705
353,392	1,111	224,604	111,750
354,406	1,088	224,439	111,641
355,421	190,740	1311,703	1373,149
356,435	152,700	1444,023	1373,002
