DTS Sentinel unit serial number:	SN410029Multiplexer serial number:	ORYXHardware model number:	OX2-SRSoftware version number:	ORYX F/W v4,00 Oryx Data Collector v3.7.2.0data status	okinstallation	B5 Nyhavnadifferential loss correction	single-endedforward channel	channel 2reverse channel	N/Adate	2023/12/11time	15:17:13forward acquisition time	300,00reverse acquisition time	0,00gamma	499,1914k internal	0,3166k external	0,3166temperature offset calibration	1,0000default loss term (dB/km)	0,3820temperature slope calibration	1,0000multiplexer offset coefficient	1,0000multiplexer slope coefficient	1,0000fibre end	0,00T internal ref (°C)	13,23T ext. ref 1 (°C)	-1,97T ext. ref 2 (°C)	-2,01length (m)	temperature (°C)	Stokes	anti-Stokes-744,400	121,434	0,058	-0,053
-743,385	-119,374	-0,261	0,033
-742,371	-146,823	0,085	0,005
-741,356	-164,376	-0,290	0,010
-740,342	0,741	0,180	0,094
-739,327	-110,086	-0,323	-0,049
-738,312	5,957	0,240	-0,130
-737,298	-72,370	-0,375	-0,101
-736,283	-71,819	0,124	0,034
-735,269	-143,731	-0,314	-0,022
-734,254	-90,772	0,032	-0,007
-733,239	-82,682	-0,492	-0,116
-732,225	-39,659	0,179	0,069
-731,210	800,000	-0,068	0,166
-730,196	109,965	0,039	-0,034
-729,181	31,077	-0,051	-0,032
-728,167	35,995	-0,039	-0,025
-727,152	-137,579	-0,026	0,002
-726,137	318,918	0,038	-0,053
-725,123	218,465	0,088	-0,103
-724,108	297,013	-0,155	-0,209
-723,094	22,440	-0,015	-0,009
-722,079	212,488	-0,158	-0,184
-721,064	697,630	-0,040	-0,078
-720,050	-200,000	0,006	-0,206
-719,035	131,171	-0,125	-0,118
-718,021	-85,167	-0,069	-0,016
-717,006	-88,561	-0,144	0,031
-715,991	-200,000	-0,005	-0,064
-714,977	-140,770	0,107	-0,008
-713,962	-159,051	-0,139	-0,006
-712,948	521,566	-0,030	-0,052
-711,933	244,631	-0,045	0,055
-710,918	800,000	-0,024	-0,074
-709,904	153,115	0,013	0,013
-708,889	617,948	0,025	-0,046
-707,875	800,000	0,013	-0,033
-706,860	346,451	-0,057	0,083
-705,845	282,030	-0,029	0,039
-704,831	273,932	-0,058	0,076
-703,816	778,316	-0,073	-0,148
-702,802	55,483	-0,005	0,004
-701,787	800,000	0,015	0,036
-700,772	-75,026	-0,073	0,019
-699,758	57,272	-0,027	-0,019
-698,743	-108,517	-0,040	0,006
-697,729	800,000	0,055	0,147
-696,714	163,444	0,121	0,125
-695,699	-77,967	-0,107	0,027
-694,685	36,004	-0,031	-0,020
-693,670	104,374	0,082	-0,071
-692,656	62,499	0,068	-0,050
-691,641	-200,000	0,005	-0,108
-690,627	-89,884	0,087	-0,018
-689,612	-19,522	0,038	-0,017
-688,597	325,153	0,078	-0,110
-687,583	-200,000	0,009	-0,143
-686,568	-54,475	-0,104	-0,034
-685,554	-4,766	-0,096	0,049
-684,539	-57,851	-0,161	0,051
-683,524	-200,000	-0,006	0,032
-682,510	-43,674	0,109	-0,040
-681,495	130,726	0,017	0,016
-680,481	523,239	-0,026	-0,045
-679,466	102,836	-0,075	0,065
-678,451	274,389	-0,064	-0,084
-677,437	-64,254	-0,084	-0,025
-676,422	-200,000	0,022	-0,083
-675,408	-23,311	-0,130	0,057
-674,393	228,757	-0,012	0,015
-673,378	-145,105	-0,139	0,009
-672,364	-200,000	-0,007	0,069
-671,349	-200,000	-0,021	-0,074
-670,335	-127,096	0,092	0,010
-669,320	191,974	-0,057	0,063
-668,305	-200,000	-0,019	-0,112
-667,291	800,000	0,024	0,071
-666,276	144,177	-0,106	-0,104
-665,262	305,266	-0,017	-0,023
-664,247	-200,000	-0,002	-0,048
-663,232	176,382	-0,041	0,044
-662,218	-115,825	0,151	-0,020
-661,203	800,000	-0,026	0,059
-660,189	83,957	-0,057	-0,046
-659,174	800,000	-0,033	0,078
-658,159	-200,000	0,005	-0,153
-657,145	800,000	-0,040	0,105
-656,130	800,000	-0,022	0,055
-655,116	232,386	-0,048	-0,057
-654,101	-200,000	-0,008	0,031
-653,086	220,601	-0,096	0,114
-652,072	291,670	0,046	0,062
-651,057	71,529	0,054	0,041
-650,043	800,000	0,029	-0,076
-649,028	537,558	-0,056	-0,097
-648,014	791,244	-0,062	-0,126
-646,999	175,903	0,009	0,010
-645,984	-180,345	0,092	0,001
-644,970	-37,360	-0,027	-0,011
-643,955	800,000	0,045	-0,107
-642,941	45,706	-0,171	-0,116
-641,926	91,938	0,070	-0,058
-640,911	-134,337	0,067	0,006
-639,897	-60,915	-0,159	0,049
-638,882	675,804	0,085	0,162
-637,868	131,279	0,066	0,062
-636,853	800,000	0,055	-0,129
-635,838	34,965	-0,159	-0,101
-634,824	-200,000	0,043	-0,164
-633,809	-200,000	0,019	0,077
-632,795	-175,127	0,068	-0,001
-631,780	-42,238	-0,071	0,027
-630,765	-43,093	-0,102	0,038
-629,751	-126,092	0,110	0,012
-628,736	-200,000	0,019	0,113
-627,722	800,000	-0,075	-0,200
-626,707	30,634	0,067	0,042
-625,692	-80,714	0,128	-0,031
-624,678	338,579	-0,031	0,044
-623,663	-165,667	-0,112	-0,003
-622,649	101,000	-0,079	-0,067
-621,634	800,000	-0,035	-0,090
-620,619	462,759	0,055	-0,090
-619,605	276,074	0,094	-0,122
-618,590	-90,781	0,090	0,019
-617,576	-200,000	0,023	-0,139
-616,561	-81,112	-0,128	-0,031
-615,546	-200,000	0,020	-0,099
-614,532	77,127	-0,072	0,056
-613,517	82,306	-0,093	-0,074
-612,503	-141,816	0,122	0,009
-611,488	167,919	0,096	0,100
-610,474	-13,749	0,050	-0,024
-609,459	6,434	-0,139	-0,075
-608,444	800,000	0,028	-0,063
-607,430	800,000	-0,030	-0,083
-606,415	-200,000	0,011	-0,072
-605,401	336,359	-0,075	-0,107
-604,386	800,000	-0,036	-0,075
-603,371	-200,000	-0,004	0,090
-602,357	240,793	-0,066	-0,081
-601,342	206,257	-0,013	0,014
-600,328	-27,077	-0,076	-0,032
-599,313	-200,000	-0,005	-0,035
-598,298	353,552	0,056	-0,082
-597,284	315,149	0,050	0,069
-596,269	36,637	0,208	0,134
-595,255	128,837	-0,114	0,107
-594,240	525,603	0,011	-0,019
-593,225	-47,128	-0,161	0,057
-592,211	-200,000	-0,033	-0,120
-591,196	-9,859	0,029	0,014
-590,182	306,597	0,049	0,067
-589,167	209,209	0,100	0,115
-588,152	-123,399	0,096	0,011
-587,138	-50,156	0,102	-0,035
-586,123	136,687	-0,085	-0,081
-585,109	422,909	-0,037	-0,059
-584,094	-200,000	0,004	-0,108
-583,079	-131,301	-0,064	0,006
-582,065	800,000	0,032	0,094
-581,050	800,000	-0,078	0,200
-580,036	-200,000	-0,012	0,074
-579,021	42,709	-0,054	-0,036
-578,006	-77,544	-0,082	-0,021
-576,992	-200,000	0,038	-0,226
-575,977	83,131	0,051	0,041
-574,963	368,746	-0,022	0,033
-573,948	-200,000	0,016	0,144
-572,934	800,000	-0,021	0,054
-571,919	-200,000	-0,010	-0,038
-570,904	-10,361	-0,203	-0,098
-569,890	342,739	0,057	0,081
-568,875	-33,954	0,045	-0,018
-567,861	-44,054	0,010	-0,004
-566,846	800,000	0,048	0,102
-565,831	800,000	-0,091	-0,185
-564,817	-93,696	0,010	0,002
-563,802	123,960	-0,121	-0,111
-562,788	116,900	0,081	-0,072
-561,773	-125,877	0,128	-0,014
-560,758	124,571	0,066	0,061
-559,744	283,857	-0,112	0,148
-558,729	-176,192	-0,134	-0,003
-557,715	193,683	-0,160	-0,177
-556,700	-200,000	-0,006	0,064
-555,685	-78,866	0,072	-0,018
-554,671	-81,032	-0,094	0,022
-553,656	-171,219	0,079	-0,002
-552,642	69,791	-0,095	0,072
-551,627	-125,013	-0,042	-0,005
-550,612	-102,365	-0,107	-0,019
-549,598	-155,859	-0,056	-0,003
-548,583	-128,790	-0,182	0,018
-547,569	800,000	0,026	-0,065
-546,554	15,427	0,146	-0,083
-545,539	-143,323	0,087	-0,006
-544,525	-164,667	-0,135	-0,004
-543,510	647,209	0,042	-0,079
-542,496	81,763	0,032	-0,026
-541,481	-52,573	-0,052	-0,018
-540,466	147,351	0,031	0,031
-539,452	-200,000	0,009	-0,030
-538,437	305,764	0,082	0,112
-537,423	800,000	-0,015	0,048
-536,408	111,640	0,034	-0,030
-535,393	-85,144	-0,101	-0,023
-534,379	202,698	-0,053	-0,060
-533,364	-109,869	-0,064	0,010
-532,350	165,828	0,078	-0,080
-531,335	454,189	-0,048	0,078
-530,321	800,000	-0,055	-0,154
-529,306	12,627	-0,045	0,026
-528,291	-200,000	0,000	0,048
-527,277	187,834	0,022	0,024
-526,262	137,619	0,082	-0,079
-525,248	237,904	0,053	0,064
-524,233	-200,000	0,044	0,150
-523,218	-200,000	-0,010	0,074
-522,204	-2,819	0,006	-0,003
-521,189	800,000	-0,048	-0,144
-520,175	-200,000	0,031	-0,126
-519,160	-168,010	-0,091	-0,003
-518,145	535,479	0,028	0,049
-517,131	146,299	0,068	0,067
-516,116	-200,000	0,001	0,077
-515,102	-158,301	0,092	0,004
-514,087	-120,037	0,092	-0,011
-513,072	-51,771	-0,079	0,027
-512,058	-71,762	0,051	0,014
-511,043	636,287	-0,075	-0,140
-510,029	-94,960	-0,041	-0,008
-509,014	800,000	-0,053	0,111
-507,999	-200,000	-0,006	0,038
-506,985	-59,824	-0,037	-0,012
-505,970	-200,000	-0,002	-0,057
-504,956	84,049	0,045	-0,036
-503,941	315,861	-0,048	0,066
-502,926	-161,004	0,096	0,004
-501,912	-106,218	0,153	0,025
-500,897	-200,000	0,013	-0,114
-499,883	-200,000	0,023	-0,133
-498,868	-62,333	-0,071	-0,021
-497,853	-6,519	0,021	-0,010
-496,839	434,491	0,095	0,150
-495,824	-46,685	0,063	0,022
-494,810	-146,060	0,081	-0,005
-493,795	800,000	0,041	0,092
-492,781	197,102	-0,073	-0,081
-491,766	327,069	-0,069	-0,096
-490,751	-56,907	-0,055	0,018
-489,737	-24,979	-0,113	0,048
-488,722	800,000	0,004	0,010
-487,708	-45,834	-0,010	-0,003
-486,693	248,965	0,046	-0,057
-485,678	-85,192	0,116	0,026
-484,664	26,419	-0,037	-0,022
-483,649	76,969	0,129	0,100
-482,635	82,264	-0,050	-0,040
-481,620	171,283	0,037	-0,039
-480,605	-75,673	0,103	0,026
-479,591	-94,106	-0,122	0,024
-478,576	-200,000	0,014	0,048
-477,562	-115,487	-0,074	0,010
-476,547	-39,210	-0,157	-0,060
-475,532	88,952	-0,049	-0,039
-474,518	-38,922	-0,014	0,005
-473,503	-109,944	0,123	-0,018
-472,489	-100,778	0,145	-0,026
-471,474	128,192	-0,070	-0,065
-470,459	96,960	0,026	0,021
-469,445	-200,000	0,010	-0,096
-468,430	800,000	0,041	0,119
-467,416	-200,000	-0,033	-0,118
-466,401	1,974	-0,073	0,038
-465,386	-200,000	0,013	-0,043
-464,372	42,116	0,018	-0,012
-463,357	280,764	-0,080	-0,105
-462,343	116,081	-0,022	0,019
-461,328	575,016	0,017	-0,030
-460,313	182,621	-0,040	0,043
-459,299	-120,526	-0,128	-0,016
-458,284	-200,000	-0,001	0,038
-457,270	-200,000	-0,035	0,146
-456,255	176,444	-0,087	0,091
-455,241	622,853	-0,042	-0,078
-454,226	-200,000	0,004	0,110
-453,211	-126,777	0,130	-0,014
-452,197	-110,669	0,075	-0,011
-451,182	-106,139	-0,029	0,005
-450,168	65,177	0,156	-0,115
-449,153	14,244	-0,022	0,013
-448,138	800,000	0,026	-0,058
-447,124	-6,809	0,089	0,044
-446,109	800,000	0,027	-0,086
-445,095	800,000	-0,057	0,158
-444,080	-118,721	0,091	-0,012
-443,065	800,000	-0,064	-0,132
-442,051	-109,147	0,079	-0,012
-441,036	-100,300	-0,127	0,023
-440,022	-68,032	0,034	-0,010
-439,007	348,285	0,071	0,103
-437,992	367,316	-0,063	-0,093
-436,978	-200,000	0,014	0,053
-435,963	-23,496	0,077	-0,033
-434,949	-200,000	-0,013	-0,089
-433,934	-200,000	0,014	-0,067
-432,919	-200,000	-0,047	-0,216
-431,905	800,000	0,028	-0,066
-430,890	164,390	0,048	0,049
-429,876	-161,076	0,189	0,007
-428,861	141,900	0,120	0,116
-427,846	608,752	-0,020	-0,036
-426,832	331,562	0,027	-0,038
-425,817	88,685	0,058	0,047
-424,803	-200,000	0,008	-0,148
-423,788	415,064	-0,038	0,060
-422,773	800,000	-0,037	0,116
-421,759	-123,712	0,176	0,020
-420,744	-135,641	0,037	-0,003
-419,730	-64,818	-0,056	-0,016
-418,715	-22,716	0,022	0,010
-417,701	-200,000	0,012	0,047
-416,686	800,000	-0,034	-0,106
-415,671	37,381	-0,067	0,043
-414,657	123,769	0,040	0,037
-413,642	-62,836	0,105	0,031
-412,628	45,314	-0,169	-0,113
-411,613	800,000	-0,036	-0,113
-410,598	-152,362	-0,170	0,009
-409,584	-43,789	0,144	0,052
-408,569	89,028	0,048	0,039
-407,555	15,698	0,126	0,072
-406,540	-200,000	-0,005	0,050
-405,525	117,040	0,074	0,066
-404,511	800,000	-0,020	-0,046
-403,496	71,916	0,036	0,027
-402,482	-200,000	0,000	0,116
-401,467	259,441	-0,054	0,068
-400,452	-200,000	-0,016	0,148
-399,438	-61,109	-0,162	-0,049
-398,423	-181,245	0,041	-0,001
-397,409	-200,000	0,001	-0,058
-396,394	218,301	-0,130	-0,151
-395,379	-200,000	0,001	0,014
-394,365	-45,339	0,172	0,061
-393,350	160,359	-0,080	0,081
-392,336	800,000	-0,019	-0,053
-391,321	-200,000	-0,006	0,079
-390,306	-0,708	-0,031	-0,016
-389,292	-53,493	-0,069	-0,023
-388,277	-200,000	0,016	-0,073
-387,263	30,321	0,093	-0,058
-386,248	-59,240	0,081	-0,025
-385,233	156,782	-0,059	-0,059
-384,219	-125,059	0,151	-0,017
-383,204	-96,021	-0,057	-0,011
-382,190	-200,000	-0,001	-0,052
-381,175	-200,000	-0,011	-0,084
-380,160	-104,509	0,054	0,009
-379,146	-200,000	0,043	0,140
-378,131	4,592	-0,086	-0,045
-377,117	-65,913	-0,070	0,020
-376,102	800,000	-0,059	-0,121
-375,088	800,000	-0,011	-0,036
-374,073	-65,700	0,110	0,032
-373,058	800,000	0,045	0,110
-372,044	70,988	0,134	0,101
-371,029	-187,378	0,200	-0,002
-370,015	-172,454	0,040	-0,001
-369,000	-1,773	-0,081	0,041
-367,985	17,889	-0,113	-0,065
-366,971	800,000	-0,077	-0,177
-365,956	484,990	-0,043	-0,071
-364,942	800,000	0,023	0,051
-363,927	187,281	0,042	0,046
-362,912	150,465	-0,054	0,053
-361,898	560,649	-0,037	0,066
-360,883	599,896	-0,024	0,043
-359,869	-200,000	-0,004	-0,038
-358,854	414,985	-0,104	0,161
-357,839	-54,952	0,023	0,007
-356,825	-200,000	-0,003	-0,052
-355,810	-99,916	0,187	0,034
-354,796	384,081	-0,067	0,100
-353,781	10,133	0,114	-0,062
-352,766	800,000	-0,012	-0,024
-351,752	-200,000	-0,002	-0,058
-350,737	800,000	-0,055	-0,119
-349,723	-42,125	0,094	-0,034
-348,708	34,459	0,043	-0,027
-347,693	-200,000	-0,003	0,041
-346,679	-200,000	-0,011	0,097
-345,664	461,299	-0,049	0,079
-344,650	195,947	0,059	-0,065
-343,635	-84,546	0,128	-0,029
-342,620	-200,000	-0,009	0,054
-341,606	213,531	-0,022	0,026
-340,591	464,341	0,039	-0,063
-339,577	-16,282	-0,066	0,030
-338,562	800,000	-0,036	-0,076
-337,548	81,219	-0,023	-0,018
-336,533	520,264	0,090	0,153
-335,518	118,640	0,031	-0,028
-334,504	-200,000	-0,052	0,000
-333,489	306,370	0,080	0,108
-332,475	534,093	0,021	0,035
-331,460	-95,697	-0,112	0,021
-330,445	53,461	0,159	0,110
-329,431	800,000	0,016	0,043
-328,416	-113,431	0,088	-0,012
-327,402	800,000	0,035	0,087
-326,387	-89,087	-0,153	0,033
-325,372	60,889	-0,028	0,020
-324,358	-50,530	-0,123	0,042
-323,343	217,146	-0,056	0,064
-322,329	-29,612	0,089	-0,037
-321,314	800,000	-0,029	0,086
-320,299	331,986	-0,065	0,091
-319,285	97,380	0,057	0,047
-318,270	-134,932	-0,123	0,011
-317,256	-84,730	0,085	0,019
-316,241	-75,304	0,078	-0,020
-315,226	71,225	0,079	0,059
-314,212	-200,000	-0,007	-0,051
-313,197	-200,000	-0,015	0,129
-312,183	-200,000	0,011	-0,084
-311,168	120,588	-0,081	-0,073
-310,153	-200,000	-0,023	-0,151
-309,139	-200,000	0,026	0,093
-308,124	-63,270	-0,113	0,034
-307,110	800,000	-0,021	0,046
-306,095	-26,395	-0,045	0,019
-305,080	-61,415	-0,043	0,013
-304,066	800,000	0,029	-0,078
-303,051	-37,599	-0,140	-0,054
-302,037	345,346	-0,076	0,109
-301,022	282,164	0,091	-0,119
-300,008	-200,000	-0,022	-0,078
-298,993	-177,498	-0,221	-0,004
-297,978	-200,000	0,017	0,067
-296,964	-38,618	0,045	0,017
-295,949	-143,800	-0,067	-0,004
-294,935	-104,322	0,128	-0,021
-293,920	-52,638	-0,020	0,007
-292,905	45,994	0,063	-0,042
-291,891	800,000	0,017	0,038
-290,876	699,500	-0,018	0,034
-289,862	28,037	0,024	0,014
-288,847	800,000	0,024	0,053
-287,832	-200,000	-0,025	-0,083
-286,818	-200,000	-0,007	-0,157
-285,803	-65,469	0,020	0,006
-284,789	614,238	0,072	-0,131
-283,774	800,000	-0,021	-0,066
-282,759	-200,000	-0,012	0,085
-281,745	497,490	0,052	0,088
-280,730	-200,000	-0,030	-0,127
-279,716	360,653	-0,090	0,131
-278,701	-162,119	0,062	-0,002
-277,686	46,036	-0,049	0,033
-276,672	-31,351	-0,018	-0,007
-275,657	87,405	-0,050	0,040
-274,643	-200,000	0,003	-0,073
-273,628	398,506	0,040	-0,061
-272,613	-200,000	0,000	-0,076
-271,599	-4,014	0,113	-0,057
-270,584	-200,000	0,028	0,105
-269,570	-200,000	-0,002	-0,133
-268,555	800,000	0,041	-0,092
-267,540	-113,385	-0,118	0,017
-266,526	800,000	-0,068	-0,174
-265,511	15,782	0,069	0,039
-264,497	-200,000	0,009	-0,081
-263,482	263,125	-0,083	0,104
-262,467	800,000	-0,040	0,116
-261,453	-9,871	0,097	0,047
-260,438	-67,625	0,048	0,014
-259,424	375,997	0,040	0,059
-258,409	238,334	-0,086	0,103
-257,395	163,376	-0,094	0,095
-256,380	0,840	0,103	0,053
-255,365	-200,000	0,020	0,068
-254,351	-200,000	0,011	-0,109
-253,336	-200,000	0,003	-0,032
-252,322	271,996	0,094	-0,120
-251,307	800,000	0,028	0,061
-250,292	205,115	-0,072	0,080
-249,278	800,000	-0,048	0,151
-248,263	162,097	-0,070	0,071
-247,249	483,209	-0,098	0,161
-246,234	53,627	-0,152	-0,105
-245,219	25,637	-0,035	-0,021
-244,205	-45,107	-0,056	-0,020
-243,190	-65,231	0,040	0,011
-242,176	-183,481	0,131	0,002
-241,161	-200,000	-0,018	-0,121
-240,146	-200,000	-0,003	0,052
-239,132	342,249	-0,031	-0,043
-238,117	149,893	-0,113	-0,111
-237,103	800,000	0,043	-0,096
-236,088	-200,000	-0,007	0,069
-235,073	167,329	0,025	0,025
-234,059	-200,000	0,004	-0,051
-233,044	-111,569	-0,058	0,008
-232,030	-200,000	0,038	0,146
-231,015	295,523	0,066	-0,088
-230,000	-115,252	-0,118	0,016
-228,986	568,156	-0,079	0,139
-227,971	-75,101	-0,059	-0,015
-226,957	86,745	0,100	0,080
-225,942	-200,000	-0,038	0,160
-224,927	112,750	-0,079	-0,069
-223,913	180,079	-0,045	-0,048
-222,898	34,056	0,126	0,079
-221,884	398,527	0,006	0,009
-220,869	-200,000	-0,007	0,103
-219,855	262,158	0,095	0,119
-218,840	800,000	0,036	0,074
-217,825	-200,000	-0,015	0,082
-216,811	800,000	0,090	0,186
-215,796	-105,660	0,093	-0,015
-214,782	110,404	-0,091	-0,079
-213,767	90,180	0,070	0,056
-212,752	-120,157	0,138	0,017
-211,738	265,610	0,051	-0,064
-210,723	-122,715	-0,049	0,006
-209,709	-77,942	0,042	-0,010
-208,694	-4,181	-0,107	-0,053
-207,679	346,847	-0,086	-0,122
-206,665	-5,088	0,148	0,073
-205,650	-200,000	-0,016	0,105
-204,636	-8,000	-0,081	0,039
-203,621	281,608	0,071	0,092
-202,606	118,371	-0,017	0,015
-201,592	61,919	0,103	-0,074
-200,577	33,934	-0,034	0,021
-199,563	19,996	-0,069	0,040
-198,548	29,915	0,126	0,077
-197,533	579,649	0,014	-0,025
-196,519	-200,000	0,010	-0,139
-195,504	-200,000	0,028	0,128
-194,490	-200,000	0,038	-0,126
-193,475	172,481	-0,106	-0,110
-192,460	-19,185	0,061	-0,027
-191,446	114,311	0,033	-0,029
-190,431	87,149	-0,101	0,080
-189,417	800,000	-0,027	0,070
-188,402	176,145	-0,083	-0,087
-187,387	96,214	0,076	-0,063
-186,373	111,929	-0,170	-0,148
-185,358	788,109	0,047	0,093
-184,344	-165,583	0,065	0,002
-183,329	257,954	0,049	0,061
-182,315	-58,487	0,046	0,014
-181,300	136,611	-0,074	0,070
-180,285	-155,097	-0,081	-0,004
-179,271	345,114	0,042	0,059
-178,256	800,000	-0,056	-0,121
-177,242	74,056	0,072	0,054
-176,227	711,547	-0,053	0,102
-175,212	11,111	0,060	-0,033
-174,198	90,364	0,035	-0,028
-173,183	-113,782	-0,110	-0,015
-172,169	783,933	-0,047	-0,094
-171,154	800,000	-0,037	-0,092
-170,139	-31,170	-0,016	-0,006
-169,125	222,770	0,084	0,098
-168,110	-49,120	0,073	0,025
-167,096	-200,000	-0,080	0,273
-166,081	-15,499	-0,130	-0,060
-165,066	800,000	-0,033	-0,072
-164,052	-200,000	-0,001	0,025
-163,037	165,590	-0,034	0,034
-162,023	6,872	0,146	-0,078
-161,008	330,708	-0,038	0,053
-159,993	-200,000	-0,016	0,072
-158,979	144,669	0,129	0,124
-157,964	-57,558	0,111	-0,035
-156,950	-200,000	0,020	0,157
-155,935	299,971	0,036	-0,048
-154,920	-16,050	0,127	0,058
-153,906	-32,468	-0,059	-0,023
-152,891	800,000	-0,019	0,054
-151,877	800,000	-0,024	0,060
-150,862	-96,089	-0,090	-0,017
-149,847	-43,797	0,110	-0,040
-148,833	-66,407	0,032	0,009
-147,818	139,300	-0,015	0,015
-146,804	-200,000	0,014	0,076
-145,789	800,000	0,014	-0,033
-144,775	800,000	-0,084	0,204
-143,760	167,216	0,015	-0,015
-142,745	533,315	-0,039	0,067
-141,731	429,664	0,068	-0,106
-140,716	134,912	0,055	-0,052
-139,702	-200,000	-0,002	0,028
-138,687	-76,877	0,087	-0,022
-137,672	1,617	0,067	0,034
-136,658	-200,000	0,002	-0,040
-135,643	4,626	-0,046	-0,024
-134,629	-87,474	0,032	-0,007
-133,614	-200,000	0,020	-0,150
-132,599	-101,565	-0,142	-0,025
-131,585	-200,000	0,006	0,034
-130,570	-47,562	0,074	0,026
-129,556	68,603	-0,041	0,030
-128,541	-2,949	-0,100	-0,050
-127,526	463,497	-0,038	0,061
-126,512	76,502	-0,042	0,032
-125,497	1,802	-0,123	-0,064
-124,483	252,835	-0,120	0,147
-123,468	-44,134	-0,144	0,052
-122,453	0,096	0,174	-0,089
-121,439	570,856	-0,064	0,112
-120,424	-175,204	-0,041	-0,001
-119,410	-200,000	0,013	-0,040
-118,395	146,968	-0,107	-0,103
-117,380	-186,722	-0,060	0,001
-116,366	-10,862	-0,084	0,039
-115,351	-101,109	0,095	-0,016
-114,337	-200,000	0,001	-0,072
-113,322	301,934	-0,026	0,034
-112,307	-8,949	0,038	-0,018
-111,293	210,273	0,074	0,084
-110,278	370,131	0,053	0,077
-109,264	-80,730	-0,065	0,015
-108,249	179,649	-0,070	0,073
-107,234	194,524	-0,049	-0,053
-106,220	636,095	0,025	0,046
-105,205	487,843	-0,067	-0,109
-104,191	-32,609	-0,018	-0,007
-103,176	-59,270	0,064	-0,020
-102,162	107,069	0,090	-0,077
-101,147	800,000	-0,031	-0,083
-100,132	30,376	0,098	-0,060
-99,118	800,000	0,016	0,046
-98,103	129,066	0,046	0,042
-97,089	800,000	0,052	-0,136
-96,074	95,928	0,046	0,038
-95,059	259,498	-0,123	-0,152
-94,045	110,274	-0,041	0,035
-93,030	75,030	0,082	-0,062
-92,016	800,000	0,039	-0,098
-91,001	135,339	0,093	0,087
-89,986	-200,000	0,003	0,016
-88,972	175,160	-0,042	0,043
-87,957	800,000	0,017	-0,038
-86,943	129,191	-0,035	-0,032
-85,928	-200,000	-0,007	-0,067
-84,913	-154,529	-0,150	0,007
-83,899	-122,806	-0,157	-0,018
-82,884	-200,000	0,016	0,070
-81,870	-13,736	0,149	0,069
-80,855	-200,000	-0,014	-0,073
-79,840	77,094	-0,089	0,067
-78,826	90,861	0,087	0,070
-77,811	26,721	-0,101	-0,061
-76,797	800,000	0,024	0,067
-75,782	188,534	0,034	-0,036
-74,767	-8,999	0,105	0,050
-73,753	-125,300	-0,012	0,001
-72,738	92,798	0,082	0,067
-71,724	106,161	0,014	-0,012
-70,709	334,935	-0,042	-0,058
-69,694	378,107	-0,046	-0,068
-68,680	84,841	0,080	0,063
-67,665	409,681	0,077	0,116
-66,651	764,819	-0,035	-0,069
-65,636	59,257	0,070	0,049
-64,622	800,000	0,038	-0,099
-63,607	45,811	0,054	-0,035
-62,592	-77,302	-0,092	-0,023
-61,578	-200,000	0,014	-0,061
-60,563	-166,397	0,134	0,004
-59,549	66,423	-0,023	-0,017
-58,534	27,228	-2,190	-1,313
-57,519	-200,000	-0,141	-0,771
-56,505	-200,000	-1,309	-5,055
-55,490	110,094	0,819	0,704
-54,476	800,000	5,409	12,373
-53,461	-200,000	18,875	321,728
-52,446	800,000	742,841	2330,917
-51,432	553,790	1656,429	2862,039
-50,417	111,637	1639,300	1415,443
-49,403	75,695	1289,527	974,085
-48,388	30,124	1030,273	627,650
-47,373	19,691	993,073	570,509
-46,359	16,918	980,977	554,427
-45,344	13,625	977,323	541,533
-44,330	13,953	975,548	541,603
-43,315	13,290	973,795	538,438
-42,300	13,272	972,598	537,696
-41,286	13,310	971,553	537,219
-40,271	13,275	970,824	536,682
-39,257	13,269	969,933	536,148
-38,242	13,254	968,901	535,506
-37,227	13,289	968,083	535,149
-36,213	13,245	967,255	534,525
-35,198	13,256	966,342	534,035
-34,184	13,279	965,537	533,646
-33,169	13,267	964,432	532,975
-32,154	13,305	963,733	532,691
-31,140	13,289	962,711	532,053
-30,125	13,291	962,134	531,717
-29,111	13,216	961,315	531,003
-28,096	13,281	960,667	530,833
-27,082	13,274	959,938	530,387
-26,067	13,272	959,260	529,986
-25,052	13,242	958,475	529,433
-24,038	13,296	957,718	529,167
-23,023	13,255	957,113	528,681
-22,009	13,256	956,508	528,329
-20,994	13,322	955,750	528,100
-19,979	13,314	955,198	527,749
-18,965	13,260	954,681	527,269
-17,950	13,237	954,200	526,909
-16,936	13,178	953,541	526,335
-15,921	13,236	952,720	526,046
-14,906	13,137	951,920	525,269
-13,892	13,207	951,095	525,016
-12,877	13,132	950,749	524,565
-11,863	13,130	949,974	524,108
-10,848	13,146	949,599	523,931
-9,833	13,241	949,011	523,890
-8,819	13,228	948,195	523,378
-7,804	13,185	947,594	522,889
-6,790	13,150	947,161	522,515
-5,775	13,183	946,604	522,292
-4,760	13,201	945,963	521,975
-3,746	13,225	945,253	521,641
-2,731	13,047	944,768	520,786
-1,717	12,992	944,030	520,183
-0,702	13,054	943,307	519,963
0,313	12,821	942,742	519,696
1,327	16,321	940,281	529,351
2,342	25,689	794,402	472,024
3,356	21,904	459,007	266,931
4,371	-5,378	316,777	155,036
5,386	-9,235	298,696	142,245
6,400	-11,109	292,618	137,466
7,415	-11,277	290,226	136,164
8,429	-11,584	288,588	135,080
9,444	-11,633	287,633	134,573
10,459	-11,630	286,870	134,207
11,473	-11,763	286,471	133,878
12,488	-11,662	285,852	133,676
13,502	-11,878	285,406	133,245
14,517	-11,561	284,840	133,277
15,531	-11,528	284,416	133,098
16,546	-11,521	284,220	133,002
17,561	-11,529	283,729	132,752
18,575	-11,510	283,497	132,651
19,590	-11,396	282,834	132,438
20,604	-11,348	282,840	132,476
21,619	-11,513	282,329	132,066
22,634	-11,628	282,030	131,804
23,648	-11,706	281,860	131,637
24,663	-11,489	281,383	131,611
25,677	-11,563	281,232	131,458
26,692	-11,595	281,051	131,331
27,707	-11,479	280,780	131,303
28,721	-11,483	280,444	131,131
29,736	-11,548	280,107	130,900
30,750	-11,473	279,831	130,830
31,765	-11,593	279,680	130,634
32,780	-11,639	279,423	130,459
33,794	-11,594	279,073	130,326
34,809	-11,694	278,801	130,092
35,823	-11,605	278,585	130,064
36,838	-11,751	278,354	129,806
37,853	-11,559	278,069	129,844
38,867	-11,533	277,722	129,695
39,882	-11,591	277,602	129,573
40,896	-11,491	277,223	129,479
41,911	-11,619	277,127	129,301
42,926	-11,640	276,887	129,158
43,940	-11,829	276,618	128,843
44,955	-11,436	276,169	128,992
45,969	-11,545	276,137	128,863
46,984	-11,800	276,097	128,593
47,999	-11,865	275,684	128,329
49,013	-11,642	275,563	128,470
50,028	-11,720	275,247	128,238
51,042	-11,817	274,972	128,007
52,057	-11,966	274,835	127,793
53,071	-11,711	274,430	127,831
54,086	-11,578	274,179	127,827
55,101	-11,638	274,146	127,745
56,115	-11,813	273,760	127,390
57,130	-11,701	273,863	127,531
58,144	-11,620	273,440	127,398
59,159	-11,573	273,188	127,313
60,174	-11,537	272,831	127,168
61,188	-11,483	272,791	127,189
62,203	-11,431	272,470	127,076
63,217	-11,486	272,310	126,939
64,232	-11,587	272,012	126,695
65,247	-11,649	271,802	126,529
66,261	-11,582	271,685	126,525
67,276	-11,702	271,458	126,297
68,290	-11,733	271,183	126,130
69,305	-11,699	270,974	126,053
70,320	-11,563	270,707	126,042
71,334	-11,580	270,529	125,933
72,349	-11,644	270,222	125,720
73,363	-11,554	270,072	125,721
74,378	-11,607	269,806	125,538
75,393	-11,606	269,593	125,428
76,407	-11,653	269,273	125,225
77,422	-11,720	269,266	125,150
78,436	-11,582	268,921	125,103
79,451	-11,550	268,708	125,023
80,466	-11,631	268,576	124,876
81,480	-11,795	268,388	124,629
82,495	-11,775	268,223	124,559
83,509	-11,505	267,848	124,619
84,524	-11,629	267,669	124,412
85,539	-11,618	267,449	124,309
86,553	-11,719	267,333	124,152
87,568	-11,518	267,054	124,194
88,582	-11,686	266,888	123,953
89,597	-11,548	266,673	123,967
90,611	-11,650	266,426	123,749
91,626	-11,568	266,322	123,764
92,641	-11,634	266,136	123,607
93,655	-11,515	265,758	123,527
94,670	-11,611	265,609	123,361
95,684	-11,689	265,517	123,236
96,699	-11,714	265,285	123,095
97,714	-11,626	265,077	123,068
98,728	-11,536	264,731	122,976
99,743	-11,802	264,755	122,738
100,757	-11,514	264,247	122,749
101,772	-11,395	264,123	122,787
102,787	-11,648	263,962	122,475
103,801	-11,628	263,886	122,447
104,816	-11,601	263,681	122,364
105,830	-11,572	263,361	122,232
106,845	-11,564	263,188	122,148
107,860	-11,691	263,093	121,979
108,874	-11,635	262,806	121,885
109,889	-11,607	262,584	121,796
110,903	-11,595	262,260	121,646
111,918	-11,600	262,184	121,595
112,933	-11,604	262,039	121,513
113,947	-11,535	261,862	121,482
114,962	-11,542	261,525	121,308
115,976	-11,658	261,424	121,148
116,991	-11,650	261,299	121,086
118,006	-11,785	261,268	120,943
119,020	-11,738	260,998	120,848
120,035	-11,646	260,829	120,840
121,049	-11,616	260,652	120,774
122,064	-11,617	260,487	120,685
123,079	-11,711	260,170	120,445
124,093	-11,732	260,004	120,339
125,108	-11,656	259,821	120,310
126,122	-11,596	259,594	120,247
127,137	-11,636	259,430	120,125
128,151	-11,647	259,246	120,020
129,166	-11,629	258,890	119,860
130,181	-11,639	258,825	119,810
131,195	-11,467	258,475	119,788
132,210	-11,591	258,380	119,625
133,224	-11,484	257,998	119,531
134,239	-11,390	257,708	119,468
135,254	-11,614	257,635	119,228
136,268	-11,648	257,500	119,126
137,283	-11,714	257,482	119,049
138,297	-11,702	257,097	118,871
139,312	-11,663	257,009	118,854
140,327	-11,549	256,763	118,828
141,341	-11,415	256,656	118,884
142,356	-11,639	256,578	118,643
143,370	-11,394	256,292	118,713
144,385	-11,274	256,051	118,694
145,400	-11,153	255,849	118,694
146,414	-11,526	255,814	118,346
147,429	-11,502	255,555	118,235
148,443	-11,348	255,287	118,234
149,458	-11,361	255,221	118,181
150,473	-11,516	254,963	117,918
151,487	-11,519	254,797	117,829
152,502	-11,474	254,653	117,790
153,516	-11,632	254,505	117,575
154,531	-11,643	254,357	117,487
155,546	-11,400	254,034	117,536
156,560	-11,424	253,858	117,423
157,575	-11,647	253,596	117,101
158,589	-11,643	253,448	117,025
159,604	-11,359	253,213	117,149
160,619	-11,218	253,125	117,217
161,633	-11,193	252,887	117,118
162,648	-11,485	252,789	116,814
163,662	-11,570	252,622	116,654
164,677	-11,487	252,507	116,661
165,692	-11,580	252,396	116,520
166,706	-11,398	252,239	116,592
167,721	-11,417	252,057	116,482
168,735	-11,245	251,810	116,503
169,750	-11,450	251,700	116,267
170,764	-11,512	251,492	116,109
171,779	-11,508	251,394	116,056
172,794	-11,422	251,158	116,010
173,808	-11,557	250,961	115,795
174,823	-11,559	250,777	115,698
175,837	-11,848	250,652	115,386
176,852	-11,482	250,510	115,619
177,867	-11,588	250,270	115,409
178,881	-11,428	249,948	115,385
179,896	-11,368	249,862	115,385
180,910	-11,316	249,781	115,380
181,925	-11,541	249,554	115,077
182,940	-11,497	249,385	115,025
183,954	-11,416	249,309	115,048
184,969	-11,372	249,066	114,963
185,983	-11,320	248,958	114,946
186,998	-11,152	248,740	114,975
188,013	-11,278	248,458	114,729
189,027	-11,310	248,407	114,669
190,042	-11,467	248,239	114,450
191,056	-11,310	247,926	114,427
192,071	-11,549	247,736	114,130
193,086	-11,566	247,540	114,015
194,100	-11,676	247,436	113,865
195,115	-11,440	247,307	113,993
196,129	-11,257	247,159	114,066
197,144	-11,414	246,912	113,811
198,159	-11,621	246,702	113,533
199,173	-11,576	246,521	113,477
200,188	-11,495	246,300	113,432
201,202	-11,649	246,048	113,179
202,217	-11,748	245,946	113,039
203,232	-11,659	245,707	112,994
204,246	-11,601	245,538	112,953
205,261	-11,778	245,302	112,689
206,275	-11,986	245,115	112,422
207,290	-10,454	245,689	113,938
208,304	-6,324	246,887	117,901
209,319	-3,650	247,691	120,491
210,334	-2,645	247,846	121,387
211,348	-1,851	248,028	122,124
212,363	-1,193	247,885	122,587
213,377	-0,890	247,994	122,880
214,392	-0,624	247,855	123,020
215,407	-0,489	247,862	123,125
216,421	-0,540	247,656	122,969
217,436	-0,588	247,496	122,838
218,450	-0,480	247,237	122,788
219,465	-0,592	247,114	122,624
220,480	-0,811	246,966	122,360
221,494	-0,565	246,760	122,449
222,509	-0,532	246,454	122,313
223,523	-0,629	246,421	122,206
224,538	-0,711	246,124	121,980
225,553	-0,698	246,109	121,973
226,567	-0,742	245,860	121,803
227,582	-0,669	245,755	121,799
228,596	-0,840	245,662	121,603
229,611	-0,729	245,424	121,564
230,626	-0,770	245,353	121,486
231,640	-0,820	245,135	121,325
232,655	-0,794	244,936	121,238
233,669	-0,949	244,812	121,039
234,684	-0,816	244,580	121,022
235,699	-0,884	244,538	120,935
236,713	-0,689	244,186	120,909
237,728	-0,590	243,925	120,849
238,742	-0,632	243,780	120,733
239,757	-0,601	243,707	120,711
240,772	-0,905	243,618	120,409
241,786	-0,947	243,352	120,233
242,801	-0,793	243,270	120,306
243,815	-0,657	243,142	120,342
244,830	-0,767	243,021	120,183
245,844	-0,672	242,743	120,111
246,859	-0,824	242,449	119,832
247,874	-0,794	242,578	119,910
248,888	-0,648	242,256	119,858
249,903	-0,630	242,189	119,828
250,917	-0,714	242,047	119,680
251,932	-0,764	241,930	119,571
252,947	-0,938	241,734	119,323
253,961	-0,789	241,458	119,297
254,976	-0,868	241,382	119,185
255,990	-0,823	241,173	119,107
257,005	-0,882	241,067	118,997
258,020	-0,688	240,946	119,082
259,034	-0,639	240,734	119,006
260,049	-0,771	240,605	118,826
261,063	-0,795	240,444	118,716
262,078	-0,892	240,381	118,597
263,093	-0,903	240,157	118,467
264,107	-0,699	239,893	118,490
265,122	-0,722	239,844	118,436
266,136	-0,617	239,616	118,397
267,151	-0,821	239,586	118,209
268,166	-0,637	239,288	118,197
269,180	-0,700	239,107	118,047
270,195	-0,683	239,003	117,999
271,209	-0,617	238,790	117,935
272,224	-0,666	238,747	117,866
273,239	-0,691	238,591	117,758
274,253	-0,702	238,578	117,732
275,268	-0,700	238,282	117,577
276,282	-0,598	238,061	117,538
277,297	-0,666	237,853	117,371
278,312	-0,708	237,917	117,360
279,326	-0,626	237,569	117,242
280,341	-0,823	237,488	117,036
281,355	-0,609	237,342	117,122
282,370	-0,692	237,400	117,076
283,384	-0,733	237,150	116,909
284,399	-0,703	236,920	116,809
285,414	-0,514	236,756	116,866
286,428	-0,597	236,631	116,729
287,443	-0,702	236,456	116,549
288,457	-0,308	236,244	116,744
289,472	-0,549	236,177	116,511
290,487	-0,726	236,137	116,343
291,501	-0,667	235,841	116,232
292,516	-0,495	235,791	116,331
293,530	-0,693	235,639	116,092
294,545	-0,782	235,418	115,904
295,560	-0,502	235,118	115,963
296,574	-0,439	235,123	116,005
297,589	-0,474	234,884	115,849
298,603	-0,592	234,696	115,655
299,618	-0,441	234,625	115,726
300,633	-0,599	234,522	115,542
301,647	-0,698	234,341	115,366
302,662	-0,516	234,212	115,433
303,676	-0,656	234,015	115,218
304,691	-0,495	233,936	115,293
305,706	-0,557	233,808	115,171
306,720	-0,228	233,463	115,245
307,735	-0,287	233,525	115,220
308,749	-0,391	233,448	115,092
309,764	-0,406	233,182	114,939
310,779	-0,220	232,965	114,965
311,793	-0,461	232,882	114,728
312,808	-0,349	232,632	114,681
313,822	-0,310	232,518	114,645
314,837	-0,457	232,298	114,413
315,852	-0,379	232,297	114,462
316,866	-0,079	232,107	114,588
317,881	-0,425	232,012	114,266
318,895	-0,641	231,876	114,023
319,910	-0,621	231,627	113,906
320,925	-0,561	231,619	113,937
321,939	-0,452	231,526	113,965
322,954	-0,243	231,218	113,963
323,968	-0,231	231,172	113,939
324,983	-0,229	231,035	113,863
325,997	-0,449	230,878	113,608
327,012	-0,243	230,658	113,647
328,027	-0,276	230,605	113,585
329,041	-0,220	230,405	113,519
330,056	-0,335	230,234	113,337
331,070	-0,213	230,125	113,366
332,085	-0,280	230,019	113,254
333,100	-0,141	229,844	113,262
334,114	-0,202	229,695	113,133
335,129	-0,393	229,553	112,907
336,143	-0,326	229,384	112,865
337,158	-0,116	229,142	112,895
338,173	-0,219	229,165	112,818
339,187	-0,129	228,879	112,735
340,202	0,077	228,832	112,858
341,216	-0,326	228,756	112,506
342,231	-0,015	228,468	112,589
343,246	-0,071	228,411	112,509
344,260	-0,113	228,219	112,373
345,275	0,009	228,135	112,412
346,289	0,050	228,022	112,378
347,304	-0,067	227,828	112,184
348,319	-0,130	227,714	112,071
349,333	-0,030	227,640	112,099
350,348	-0,107	227,318	111,873
351,362	-0,026	227,210	111,871
352,377	-0,417	227,193	111,559
353,392	0,141	226,938	111,841
354,406	-0,022	226,856	111,669
355,421	196,359	1318,105	1393,469
356,435	157,472	1451,018	1393,426
