DTS Sentinel unit serial number:	SN410029Multiplexer serial number:	ORYXHardware model number:	OX2-SRSoftware version number:	ORYX F/W v4,00 Oryx Data Collector v3.7.2.0data status	okinstallation	B5 Nyhavnadifferential loss correction	single-endedforward channel	channel 2reverse channel	N/Adate	2023/12/12time	09:22:13forward acquisition time	300,00reverse acquisition time	0,00gamma	499,1914k internal	0,3158k external	0,3158temperature offset calibration	1,0000default loss term (dB/km)	0,3820temperature slope calibration	1,0000multiplexer offset coefficient	1,0000multiplexer slope coefficient	1,0000fibre end	0,00T internal ref (°C)	15,02T ext. ref 1 (°C)	-1,28T ext. ref 2 (°C)	-1,57length (m)	temperature (°C)	Stokes	anti-Stokes-744,400	344,180	0,092	-0,133
-743,385	-107,612	-0,308	0,049
-742,371	-69,070	0,116	0,033
-741,356	-130,642	-0,301	-0,029
-740,342	-9,286	0,113	-0,055
-739,327	-99,148	-0,248	0,046
-738,312	-37,908	0,119	-0,046
-737,298	-68,073	-0,306	-0,087
-736,283	-7,131	0,144	0,072
-735,269	0,814	-0,225	0,118
-734,254	-140,607	0,217	-0,016
-733,239	-20,129	-0,635	-0,287
-732,225	82,326	0,130	0,104
-731,210	121,662	0,041	-0,038
-730,196	75,323	-0,041	0,032
-729,181	-200,000	0,009	-0,114
-728,167	-100,790	-0,105	-0,019
-727,152	800,000	-0,039	-0,112
-726,137	490,076	-0,040	-0,068
-725,123	-200,000	-0,028	0,143
-724,108	113,525	-0,045	-0,040
-723,094	201,833	-0,098	-0,112
-722,079	-200,000	-0,013	0,080
-721,064	-20,117	-0,053	0,024
-720,050	385,416	-0,016	-0,025
-719,035	-21,960	-0,138	-0,062
-718,021	-200,000	-0,026	-0,104
-717,006	-159,636	-0,075	0,003
-715,991	25,241	-0,119	-0,073
-714,977	548,773	-0,126	-0,224
-713,962	-200,000	0,001	-0,112
-712,948	228,046	0,035	0,042
-711,933	-200,000	0,016	0,064
-710,918	94,928	-0,020	-0,017
-709,904	-62,134	0,151	-0,046
-708,889	-200,000	-0,083	-0,000
-707,875	-12,548	-0,120	-0,058
-706,860	15,433	-0,112	-0,064
-705,845	-200,000	0,051	-0,175
-704,831	-4,583	0,026	-0,013
-703,816	328,546	0,041	0,058
-702,802	800,000	-0,026	-0,080
-701,787	248,726	-0,101	-0,126
-700,772	800,000	0,016	0,042
-699,758	800,000	0,040	-0,085
-698,743	-28,095	0,058	0,025
-697,729	54,605	0,031	-0,022
-696,714	14,335	0,100	0,057
-695,699	-200,000	-0,014	0,104
-694,685	-9,419	-0,046	-0,023
-693,670	568,992	-0,031	0,056
-692,656	-155,022	-0,100	-0,005
-691,641	800,000	0,021	-0,045
-690,627	249,248	-0,016	-0,020
-689,612	-28,914	-0,063	0,027
-688,597	-138,976	-0,114	0,009
-687,583	-7,709	0,029	0,015
-686,568	800,000	0,045	-0,101
-685,554	800,000	-0,030	-0,080
-684,539	-200,000	-0,009	-0,100
-683,524	-167,497	0,114	0,003
-682,510	153,801	0,075	0,076
-681,495	800,000	0,032	-0,099
-680,481	143,099	-0,056	-0,055
-679,466	-68,656	-0,105	0,030
-678,451	800,000	-0,035	-0,093
-677,437	-200,000	-0,008	-0,039
-676,422	-58,823	0,043	-0,014
-675,408	347,912	0,056	0,081
-674,393	314,906	0,076	0,106
-673,378	800,000	0,062	-0,150
-672,364	77,873	-0,052	0,041
-671,349	-120,380	-0,161	-0,020
-670,335	35,985	-0,054	0,035
-669,320	-200,000	-0,028	0,145
-668,305	90,027	0,057	0,047
-667,291	4,576	0,086	0,046
-666,276	22,564	-0,119	-0,071
-665,262	28,279	-0,143	-0,089
-664,247	131,471	-0,085	-0,080
-663,232	443,186	-0,076	-0,122
-662,218	-200,000	0,008	0,100
-661,203	-200,000	0,022	-0,086
-660,189	284,311	-0,098	-0,130
-659,174	1,219	-0,085	0,045
-658,159	1,126	-0,098	0,052
-657,145	-103,062	-0,056	0,010
-656,130	-200,000	0,003	0,020
-655,116	-79,650	-0,078	0,019
-654,101	81,545	0,066	-0,052
-653,086	-200,000	-0,004	-0,100
-652,072	-159,437	-0,046	-0,002
-651,057	-24,823	0,047	-0,020
-650,043	800,000	-0,023	0,061
-649,028	456,519	-0,027	0,045
-648,014	-142,688	-0,073	-0,005
-646,999	-200,000	-0,002	0,064
-645,984	-200,000	-0,004	-0,043
-644,970	694,043	0,061	0,117
-643,955	536,283	0,056	-0,097
-642,941	-56,374	-0,033	0,011
-641,926	-50,390	0,081	0,028
-640,911	539,033	0,038	-0,066
-639,897	-200,000	-0,006	0,033
-638,882	-200,000	0,020	-0,074
-637,868	140,076	0,069	0,066
-636,853	-200,000	-0,017	0,130
-635,838	-200,000	-0,006	-0,073
-634,824	48,638	-0,142	-0,097
-633,809	78,231	0,093	0,073
-632,795	-200,000	0,036	0,154
-631,780	800,000	0,034	-0,082
-630,765	-155,516	-0,043	0,002
-629,751	2,237	-0,029	0,016
-628,736	800,000	-0,050	-0,142
-627,722	800,000	0,011	-0,032
-626,707	-65,469	-0,068	-0,020
-625,692	190,264	0,077	0,085
-624,678	70,311	-0,071	0,054
-623,663	662,324	-0,012	-0,023
-622,649	-200,000	0,032	-0,193
-621,634	800,000	-0,045	-0,142
-620,619	39,990	0,176	-0,116
-619,605	244,110	-0,019	-0,024
-618,590	184,434	0,083	0,091
-617,576	-200,000	0,027	-0,134
-616,561	-200,000	-0,176	0,000
-615,546	77,108	0,015	0,012
-614,532	104,173	0,101	-0,087
-613,517	171,111	-0,059	-0,062
-612,503	-54,604	-0,119	0,039
-611,488	698,603	0,126	0,244
-610,474	359,718	-0,034	-0,050
-609,459	-200,000	0,004	-0,075
-608,444	427,978	0,038	-0,061
-607,430	800,000	-0,006	0,016
-606,415	800,000	-0,029	-0,093
-605,401	800,000	0,044	0,139
-604,386	-181,578	0,026	0,000
-603,371	25,024	0,068	-0,041
-602,357	106,360	0,042	0,036
-601,342	-165,146	-0,057	0,002
-600,328	-80,046	-0,063	0,015
-599,313	-126,403	0,155	-0,017
-598,298	-200,000	0,009	0,075
-597,284	-200,000	0,018	0,083
-596,269	800,000	-0,019	-0,051
-595,255	2,598	-0,081	-0,043
-594,240	68,939	0,057	0,043
-593,225	452,006	-0,014	-0,024
-592,211	754,124	-0,008	-0,016
-591,196	83,882	-0,068	0,054
-590,182	94,334	-0,056	-0,046
-589,167	209,573	0,083	-0,095
-588,152	-131,852	-0,102	-0,010
-587,138	-60,090	0,162	-0,050
-586,123	800,000	-0,024	0,070
-585,109	157,043	0,079	0,080
-584,094	231,258	-0,045	0,054
-583,079	7,571	0,049	0,027
-582,065	-200,000	0,006	-0,033
-581,050	5,376	0,038	-0,020
-580,036	57,236	-0,159	0,114
-579,021	222,067	-0,022	0,026
-578,006	-2,568	-0,109	-0,056
-576,992	119,936	0,067	0,061
-575,977	-28,748	-0,076	0,032
-574,963	-153,756	-0,087	0,004
-573,948	58,776	0,012	-0,008
-572,934	-200,000	0,033	0,112
-571,919	-31,694	0,029	-0,012
-570,904	-200,000	-0,017	-0,097
-569,890	649,347	0,059	-0,110
-568,875	-105,241	0,087	0,014
-567,861	-152,239	-0,034	-0,002
-566,846	-64,286	0,063	-0,019
-565,831	626,003	-0,033	0,061
-564,817	193,989	-0,026	-0,029
-563,802	-49,183	-0,077	-0,027
-562,788	-72,320	0,042	0,011
-561,773	-110,232	0,108	-0,016
-560,758	657,433	0,078	0,148
-559,744	181,344	-0,053	0,057
-558,729	190,271	0,055	-0,060
-557,715	1,098	-0,061	-0,032
-556,700	-200,000	0,013	0,070
-555,685	288,186	-0,009	0,012
-554,671	562,770	-0,031	-0,055
-553,656	256,149	-0,020	-0,025
-552,642	-48,981	0,085	0,030
-551,627	280,588	-0,062	0,081
-550,612	-112,316	-0,067	-0,010
-549,598	-200,000	0,018	-0,137
-548,583	-10,914	0,078	-0,037
-547,569	-48,460	0,036	0,013
-546,554	545,695	-0,060	0,105
-545,539	-35,333	-0,007	0,003
-544,525	-200,000	0,035	0,137
-543,510	255,942	-0,016	0,020
-542,496	800,000	-0,018	-0,047
-541,481	-119,351	-0,029	0,004
-540,466	517,659	-0,056	0,097
-539,452	-200,000	0,006	-0,063
-538,437	360,474	0,030	-0,044
-537,423	125,999	-0,039	-0,036
-536,408	-112,912	-0,090	-0,013
-535,393	536,690	0,060	-0,104
-534,379	-30,543	-0,018	0,007
-533,364	-40,628	-0,076	-0,029
-532,350	-115,814	0,104	0,014
-531,335	289,857	-0,016	0,021
-530,321	-10,024	0,062	0,030
-529,306	800,000	0,027	0,068
-528,291	64,455	-0,135	-0,100
-527,277	-8,306	0,111	-0,054
-526,262	800,000	-0,053	-0,122
-525,248	-200,000	-0,011	0,050
-524,233	-26,196	-0,057	0,024
-523,218	-132,525	-0,043	-0,004
-522,204	110,797	0,134	-0,118
-521,189	800,000	-0,008	0,020
-520,175	800,000	-0,008	0,017
-519,160	-110,424	-0,073	-0,011
-518,145	42,726	0,088	-0,058
-517,131	-1,063	-0,107	0,055
-516,116	-200,000	0,038	0,185
-515,102	520,091	0,035	-0,061
-514,087	-63,822	0,089	0,026
-513,072	-174,359	-0,217	0,004
-512,058	-200,000	-0,020	-0,114
-511,043	140,927	0,131	0,126
-510,029	207,643	0,049	0,056
-509,014	-200,000	0,020	0,076
-507,999	-143,437	-0,017	0,001
-506,985	-200,000	0,012	0,075
-505,970	173,055	-0,118	0,125
-504,956	125,413	-0,102	-0,094
-503,941	-200,000	-0,004	-0,021
-502,926	-63,938	0,036	-0,011
-501,912	-200,000	-0,006	0,000
-500,897	-200,000	-0,024	0,119
-499,883	-200,000	0,036	-0,135
-498,868	800,000	0,031	-0,074
-497,853	-200,000	0,007	-0,061
-496,839	-200,000	0,005	-0,108
-495,824	93,927	0,129	0,107
-494,810	388,187	0,066	0,099
-493,795	449,270	-0,056	-0,090
-492,781	-45,348	-0,053	0,019
-491,766	-200,000	0,011	-0,034
-490,751	260,814	-0,124	-0,156
-489,737	702,700	-0,039	-0,075
-488,722	-89,569	0,127	-0,027
-487,708	69,747	-0,040	0,030
-486,693	800,000	0,084	0,188
-485,678	-200,000	-0,015	-0,143
-484,664	-54,831	0,108	-0,035
-483,649	-106,329	0,026	0,004
-482,635	-200,000	0,002	-0,033
-481,620	-76,286	0,069	-0,018
-480,605	310,049	0,041	0,057
-479,591	328,105	0,032	0,044
-478,576	71,987	0,069	0,052
-477,562	800,000	-0,042	-0,103
-476,547	411,727	0,037	0,057
-475,532	-200,000	0,005	-0,048
-474,518	-10,471	-0,019	-0,009
-473,503	-77,425	0,105	-0,026
-472,489	-25,737	-0,110	0,047
-471,474	-200,000	-0,032	0,128
-470,459	-113,659	-0,164	0,023
-469,445	-88,015	-0,086	0,019
-468,430	42,709	0,114	0,075
-467,416	-200,000	0,011	0,064
-466,401	-46,504	-0,043	-0,015
-465,386	350,259	-0,071	0,103
-464,372	14,127	0,023	-0,013
-463,357	-159,716	-0,066	-0,003
-462,343	-200,000	-0,004	0,040
-461,328	-200,000	0,013	-0,148
-460,313	-79,160	-0,122	0,030
-459,299	-200,000	-0,019	-0,073
-458,284	155,432	0,076	0,076
-457,270	-200,000	-0,015	-0,054
-456,255	149,356	-0,070	-0,069
-455,241	800,000	0,055	-0,133
-454,226	-82,638	0,120	0,028
-453,211	-200,000	0,008	-0,028
-452,197	-2,348	0,123	0,063
-451,182	64,123	-0,083	0,061
-450,168	104,089	-0,092	-0,079
-449,153	-200,000	-0,010	0,066
-448,138	-200,000	-0,031	-0,102
-447,124	-94,742	-0,256	-0,050
-446,109	800,000	0,039	-0,081
-445,095	232,441	0,049	-0,059
-444,080	-96,146	0,087	0,017
-443,065	38,850	0,080	0,052
-442,051	-200,000	0,038	0,242
-441,036	-113,578	-0,255	-0,036
-440,022	800,000	-0,024	-0,064
-439,007	79,086	-0,054	-0,042
-437,992	-20,310	0,071	-0,032
-436,978	2,271	0,073	0,038
-435,963	200,497	-0,040	0,045
-434,949	-66,171	0,040	0,012
-433,934	-200,000	-0,009	0,042
-432,919	30,010	-0,100	-0,062
-431,905	-152,036	0,084	-0,004
-430,890	800,000	0,025	0,060
-429,876	-184,300	-0,061	-0,001
-428,861	-153,742	0,095	-0,005
-427,846	-86,255	-0,107	-0,024
-426,832	-200,000	-0,009	-0,130
-425,817	355,257	0,033	0,049
-424,803	194,884	-0,038	-0,043
-423,788	-1,486	-0,080	-0,041
-422,773	-65,984	-0,061	0,018
-421,759	727,240	0,056	-0,109
-420,744	137,212	0,022	-0,021
-419,730	-200,000	0,012	-0,109
-418,715	-129,042	-0,114	-0,011
-417,701	21,967	0,151	0,090
-416,686	76,704	-0,076	0,058
-415,671	-11,818	0,134	-0,064
-414,657	650,413	0,023	0,044
-413,642	-120,417	-0,091	-0,011
-412,628	93,533	-0,021	-0,017
-411,613	-123,391	-0,024	0,003
-410,598	297,926	-0,068	-0,091
-409,584	800,000	0,021	0,047
-408,569	-200,000	0,019	0,060
-407,555	53,230	0,072	0,050
-406,540	615,626	0,044	-0,081
-405,525	800,000	0,016	0,040
-404,511	800,000	-0,042	-0,110
-403,496	800,000	0,042	-0,090
-402,482	17,475	-0,045	-0,026
-401,467	-165,961	0,019	0,001
-400,452	86,887	0,063	0,051
-399,438	108,587	0,084	-0,073
-398,423	128,698	-0,071	-0,066
-397,409	199,273	-0,094	-0,105
-396,394	-200,000	0,001	0,041
-395,379	243,958	-0,035	-0,043
-394,365	-25,753	-0,073	0,031
-393,350	156,031	0,033	0,033
-392,336	312,700	0,059	0,081
-391,321	-200,000	-0,008	-0,039
-390,306	-138,858	0,105	-0,008
-389,292	65,679	-0,071	-0,052
-388,277	-69,879	-0,033	0,009
-387,263	-53,389	-0,007	0,002
-386,248	-200,000	0,023	0,084
-385,233	31,973	0,100	-0,062
-384,219	-35,837	-0,117	-0,046
-383,204	-200,000	0,008	-0,076
-382,190	14,215	-0,093	-0,053
-381,175	-200,000	-0,002	0,150
-380,160	-158,272	0,117	-0,005
-379,146	-98,569	0,018	0,003
-378,131	433,313	0,061	-0,096
-377,117	10,301	0,135	0,074
-376,102	-200,000	-0,030	-0,148
-375,088	482,007	-0,038	-0,062
-374,073	-145,035	-0,093	-0,006
-373,058	557,421	0,079	0,138
-372,044	286,758	0,027	-0,035
-371,029	-200,000	-0,035	0,206
-370,015	376,789	-0,048	0,072
-369,000	800,000	0,011	-0,029
-367,985	-14,584	-0,170	-0,079
-366,971	189,801	0,088	-0,096
-365,956	-200,000	-0,013	0,133
-364,942	800,000	-0,021	-0,048
-363,927	88,641	0,019	0,015
-362,912	130,541	0,088	-0,082
-361,898	287,825	-0,063	-0,083
-360,883	225,366	0,053	-0,063
-359,869	800,000	-0,023	-0,055
-358,854	800,000	0,079	-0,169
-357,839	-87,211	-0,063	0,014
-356,825	800,000	-0,019	-0,049
-355,810	-28,992	0,060	0,025
-354,796	115,012	0,036	-0,032
-353,781	57,275	-0,181	-0,128
-352,766	800,000	0,005	-0,011
-351,752	-1,212	0,030	-0,015
-350,737	273,262	0,056	-0,072
-349,723	614,863	-0,088	0,161
-348,708	8,375	0,135	0,073
-347,693	429,048	-0,042	0,067
-346,679	-119,047	0,098	-0,012
-345,664	-55,431	-0,078	-0,025
-344,650	-76,842	-0,103	-0,026
-343,635	-200,000	0,015	0,179
-342,620	772,899	-0,093	0,184
-341,606	-176,820	0,162	0,003
-340,591	-97,108	-0,160	0,030
-339,577	800,000	0,014	0,042
-338,562	-32,622	-0,038	0,015
-337,548	-74,276	-0,112	-0,029
-336,533	-126,024	0,227	-0,024
-335,518	148,504	0,077	-0,075
-334,504	-94,665	0,073	-0,014
-333,489	92,070	0,065	0,053
-332,475	-97,192	0,108	0,020
-331,460	-72,637	-0,048	-0,013
-330,445	-200,000	-0,009	-0,067
-329,431	-93,375	0,106	0,021
-328,416	800,000	0,036	0,100
-327,402	-106,440	-0,024	0,004
-326,387	-0,017	0,007	-0,003
-325,372	2,395	-0,067	0,035
-324,358	108,917	-0,111	-0,096
-323,343	425,656	0,048	-0,075
-322,329	112,149	-0,033	0,029
-321,314	454,777	-0,072	0,116
-320,299	800,000	-0,048	-0,103
-319,285	17,927	-0,110	0,064
-318,270	587,567	0,035	-0,064
-317,256	-24,902	-0,089	-0,038
-316,241	221,399	-0,038	-0,045
-315,226	800,000	0,043	0,124
-314,212	-114,453	-0,035	-0,005
-313,197	-118,687	0,093	-0,012
-312,183	48,399	0,039	-0,027
-311,168	482,732	0,088	-0,146
-310,153	394,348	-0,126	-0,192
-309,139	130,907	0,132	-0,122
-308,124	-200,000	-0,013	0,054
-307,110	-200,000	0,031	0,156
-306,095	50,154	0,112	0,076
-305,080	669,808	0,110	0,208
-304,066	-77,039	-0,158	-0,040
-303,051	-200,000	0,033	-0,122
-302,037	-200,000	0,031	-0,102
-301,022	305,167	-0,026	-0,035
-300,008	-43,136	0,128	0,047
-298,993	37,361	0,105	0,067
-297,978	800,000	-0,039	0,084
-296,964	255,791	0,022	-0,027
-295,949	282,972	0,079	-0,104
-294,935	800,000	-0,044	-0,089
-293,920	-200,000	-0,006	0,047
-292,905	800,000	0,012	-0,027
-291,891	531,819	-0,065	0,112
-290,876	11,044	0,066	0,037
-289,862	-200,000	0,008	-0,141
-288,847	-69,130	-0,088	0,024
-287,832	-148,734	-0,024	-0,001
-286,818	133,577	-0,033	0,031
-285,803	84,556	0,034	-0,027
-284,789	-200,000	0,040	0,147
-283,774	800,000	-0,010	-0,024
-282,759	-200,000	-0,005	-0,098
-281,745	-200,000	0,007	-0,179
-280,730	414,067	-0,090	0,138
-279,716	-200,000	-0,026	0,136
-278,701	-200,000	0,002	0,012
-277,686	-200,000	0,008	-0,026
-276,672	-200,000	0,004	0,075
-275,657	-200,000	-0,023	-0,141
-274,643	4,714	0,176	0,093
-273,628	517,126	-0,060	0,101
-272,613	-200,000	-0,001	-0,081
-271,599	-200,000	-0,029	0,101
-270,584	-4,718	-0,028	0,014
-269,570	800,000	-0,046	0,108
-268,555	-200,000	-0,009	0,048
-267,540	-68,022	-0,084	0,023
-266,526	132,275	0,024	0,022
-265,511	46,614	0,019	-0,013
-264,497	-40,007	0,146	0,055
-263,482	-200,000	0,001	-0,103
-262,467	-17,538	0,029	0,013
-261,453	-200,000	-0,026	-0,100
-260,438	800,000	0,040	-0,118
-259,424	-200,000	0,003	-0,101
-258,409	800,000	0,036	-0,094
-257,395	34,544	0,068	-0,043
-256,380	-153,370	0,068	-0,003
-255,365	12,849	0,079	0,044
-254,351	519,068	-0,025	-0,042
-253,336	50,326	0,081	0,055
-252,322	-40,560	-0,123	-0,046
-251,307	800,000	0,036	0,093
-250,292	270,891	0,080	0,101
-249,278	800,000	-0,049	0,132
-248,263	-94,501	0,098	-0,019
-247,249	-200,000	0,004	0,113
-246,234	-73,057	-0,090	0,024
-245,219	-21,726	-0,054	-0,024
-244,205	-60,399	-0,084	-0,026
-243,190	257,058	-0,020	0,025
-242,176	-121,592	0,071	0,008
-241,161	800,000	-0,036	0,096
-240,146	-200,000	0,000	-0,007
-239,132	-61,545	-0,127	0,038
-238,117	-152,182	-0,065	-0,003
-237,103	-84,594	0,027	-0,006
-236,088	800,000	0,032	0,071
-235,073	-126,284	-0,162	0,017
-234,059	800,000	-0,058	-0,152
-233,044	-200,000	-0,009	0,038
-232,030	-84,603	0,082	0,019
-231,015	-54,693	-0,112	-0,036
-230,000	152,379	-0,018	0,018
-228,986	393,582	0,049	-0,074
-227,971	800,000	0,013	-0,040
-226,957	111,896	0,012	0,010
-225,942	360,146	0,035	-0,051
-224,927	-99,232	-0,076	0,014
-223,913	61,267	-0,035	0,025
-222,898	237,703	0,039	-0,047
-221,884	-200,000	-0,069	-0,242
-220,869	800,000	0,024	-0,053
-219,855	-128,467	-0,171	0,017
-218,840	155,399	0,126	0,125
-217,825	11,856	-0,033	0,018
-216,811	230,815	-0,069	-0,081
-215,796	339,728	-0,049	0,070
-214,782	-150,790	0,129	0,007
-213,767	-8,196	0,076	-0,037
-212,752	-37,056	0,054	0,021
-211,738	-200,000	0,020	-0,080
-210,723	101,098	-0,107	-0,090
-209,709	161,266	0,054	-0,055
-208,694	-200,000	-0,024	-0,164
-207,679	671,608	-0,092	0,174
-206,665	481,287	-0,044	0,073
-205,650	139,928	0,060	-0,057
-204,636	-127,873	0,061	-0,006
-203,621	-200,000	0,013	-0,094
-202,606	743,454	-0,072	0,140
-201,592	-35,279	-0,196	0,077
-200,577	-7,971	0,085	0,041
-199,563	93,107	-0,112	0,091
-198,548	-200,000	0,008	-0,066
-197,533	88,436	0,040	0,032
-196,519	-19,878	0,116	-0,051
-195,504	-200,000	0,031	-0,122
-194,490	-2,727	-0,039	0,020
-193,475	65,449	-0,096	-0,070
-192,460	-113,355	0,053	0,007
-191,446	-120,153	0,055	0,007
-190,431	83,862	0,057	0,045
-189,417	-96,327	-0,094	0,018
-188,402	800,000	0,040	0,105
-187,387	594,782	-0,064	0,114
-186,373	800,000	-0,047	0,100
-185,358	47,301	-0,079	-0,053
-184,344	-86,523	0,062	0,014
-183,329	153,543	0,065	0,064
-182,315	258,532	0,043	-0,053
-181,300	-31,619	-0,236	-0,095
-180,285	82,718	-0,049	-0,039
-179,271	-200,000	-0,004	-0,020
-178,256	-200,000	-0,015	0,128
-177,242	240,182	0,092	-0,111
-176,227	116,327	0,107	0,094
-175,212	-200,000	0,010	0,101
-174,198	800,000	-0,037	-0,111
-173,183	250,441	0,015	0,018
-172,169	270,883	0,041	-0,052
-171,154	-6,708	-0,040	0,020
-170,139	800,000	0,044	0,100
-169,125	800,000	0,022	0,044
-168,110	576,142	-0,043	-0,076
-167,096	-94,132	0,018	-0,004
-166,081	20,717	-0,125	-0,073
-165,066	-200,000	0,013	0,064
-164,052	-200,000	-0,013	0,148
-163,037	-200,000	-0,020	0,148
-162,023	485,486	0,116	0,191
-161,008	13,164	0,038	0,021
-159,993	90,911	-0,030	0,024
-158,979	235,100	0,090	0,108
-157,964	-200,000	-0,002	-0,045
-156,950	-24,031	0,084	-0,036
-155,935	-70,999	-0,018	0,005
-154,920	-200,000	-0,001	0,068
-153,906	225,944	0,022	0,025
-152,891	-200,000	0,032	0,164
-151,877	-200,000	0,046	0,165
-150,862	-93,981	-0,169	0,033
-149,847	68,897	0,076	-0,056
-148,833	46,619	0,097	-0,065
-147,818	84,644	0,035	-0,028
-146,804	-48,685	-0,054	-0,019
-145,789	800,000	-0,035	0,076
-144,775	-135,957	-0,056	-0,005
-143,760	-200,000	0,017	-0,084
-142,745	417,759	0,009	0,014
-141,731	-66,587	-0,056	0,016
-140,716	514,190	0,077	0,130
-139,702	800,000	-0,055	0,130
-138,687	-69,885	0,132	-0,036
-137,672	800,000	-0,005	-0,014
-136,658	-141,990	-0,107	-0,008
-135,643	-200,000	0,011	0,084
-134,629	800,000	-0,036	0,113
-133,614	4,285	0,099	0,052
-132,599	-79,999	0,213	-0,051
-131,585	800,000	-0,027	0,058
-130,570	173,935	0,080	-0,084
-129,556	-24,423	-0,053	0,023
-128,541	-20,933	-0,106	-0,046
-127,526	-44,527	0,239	-0,085
-126,512	-200,000	0,005	-0,023
-125,497	-200,000	0,024	0,086
-124,483	-0,274	0,108	0,055
-123,468	-5,069	-0,088	-0,043
-122,453	-89,887	-0,125	-0,026
-121,439	-200,000	0,002	0,191
-120,424	182,261	-0,087	0,093
-119,410	800,000	0,008	0,021
-118,395	191,152	-0,063	0,068
-117,380	-91,376	0,111	-0,023
-116,366	147,630	-0,022	0,021
-115,351	103,792	0,065	0,055
-114,337	75,474	-0,068	-0,052
-113,322	-88,518	-0,105	0,022
-112,307	-200,000	0,024	-0,122
-111,293	-200,000	-0,014	0,095
-110,278	-138,932	-0,099	0,008
-109,264	106,397	0,135	0,115
-108,249	-200,000	0,004	-0,030
-107,234	800,000	-0,027	-0,054
-106,220	101,010	0,101	0,084
-105,205	-200,000	0,001	0,034
-104,191	-92,894	-0,112	-0,022
-103,176	541,216	-0,017	0,029
-102,162	86,859	0,055	0,044
-101,147	-200,000	-0,003	-0,022
-100,132	316,768	-0,060	0,081
-99,118	-200,000	0,003	-0,056
-98,103	-36,270	-0,090	-0,035
-97,089	246,187	0,067	0,082
-96,074	-200,000	-0,000	0,096
-95,059	612,952	-0,036	-0,064
-94,045	190,028	-0,032	0,035
-93,030	256,259	0,122	0,150
-92,016	-95,379	0,056	0,011
-91,001	-3,848	-0,053	0,026
-89,986	50,652	0,108	-0,074
-88,972	18,631	0,043	0,025
-87,957	800,000	-0,043	-0,097
-86,943	-200,000	-0,012	-0,062
-85,928	57,193	-0,106	0,074
-84,913	-200,000	0,013	-0,045
-83,899	68,843	-0,047	0,035
-82,884	437,979	-0,016	0,025
-81,870	-67,921	0,152	-0,042
-80,855	107,292	0,059	-0,050
-79,840	36,188	0,076	-0,048
-78,826	-61,723	-0,153	-0,046
-77,811	-86,346	-0,088	-0,019
-76,797	586,226	-0,038	0,068
-75,782	-200,000	0,004	-0,097
-74,767	800,000	-0,021	-0,043
-73,753	-200,000	-0,008	0,045
-72,738	800,000	0,022	0,046
-71,724	-200,000	-0,003	-0,140
-70,709	-200,000	-0,002	-0,093
-69,694	-200,000	-0,030	-0,139
-68,680	256,528	-0,120	0,148
-67,665	167,554	-0,105	0,108
-66,651	-200,000	0,001	-0,055
-65,636	-200,000	-0,000	0,083
-64,622	-200,000	-0,008	-0,172
-63,607	37,451	-0,056	0,035
-62,592	254,412	-0,056	0,069
-61,578	421,779	0,042	0,065
-60,563	60,834	0,083	0,059
-59,549	117,158	-0,091	0,080
-58,534	-1,117	-2,112	-1,069
-57,519	-200,000	-0,258	-1,058
-56,505	-200,000	-1,317	-5,170
-55,490	21,779	0,736	0,429
-54,476	800,000	5,468	12,066
-53,461	-200,000	17,724	289,284
-52,446	800,000	729,475	2232,175
-51,432	537,855	1645,357	2816,828
-50,417	109,550	1635,488	1405,909
-49,403	75,442	1287,076	973,798
-48,388	31,719	1027,394	632,981
-47,373	20,178	989,026	571,300
-46,359	18,355	976,742	558,212
-45,344	15,340	972,917	546,143
-44,330	15,592	971,365	546,072
-43,315	15,116	969,494	543,445
-42,300	15,001	968,379	542,425
-41,286	14,982	967,670	541,944
-40,271	14,992	966,518	541,310
-39,257	15,076	965,454	540,966
-38,242	15,028	964,638	540,329
-37,227	15,021	963,860	539,851
-36,213	15,030	963,060	539,409
-35,198	15,002	962,092	538,756
-34,184	15,063	961,405	538,548
-33,169	15,022	960,280	537,761
-32,154	15,106	959,334	537,482
-31,140	15,072	958,434	536,848
-30,125	15,109	957,808	536,595
-29,111	15,028	957,150	535,943
-28,096	15,114	956,436	535,799
-27,082	15,055	955,617	535,129
-26,067	15,092	954,974	534,867
-25,052	15,115	954,051	534,404
-24,038	15,043	953,449	533,813
-23,023	15,040	952,900	533,475
-22,009	15,046	952,217	533,090
-20,994	15,030	951,635	532,693
-19,979	15,085	950,909	532,441
-18,965	15,059	950,227	531,954
-17,950	15,057	949,621	531,589
-16,936	15,024	949,047	531,140
-15,921	14,960	948,303	530,501
-14,906	14,939	947,464	529,942
-13,892	15,002	946,945	529,831
-12,877	14,928	946,389	529,264
-11,863	14,931	945,576	528,799
-10,848	14,947	945,084	528,553
-9,833	15,036	944,555	528,518
-8,819	15,054	944,082	528,290
-7,804	14,933	943,550	527,588
-6,790	14,970	942,834	527,282
-5,775	14,987	942,214	526,969
-4,760	14,994	941,612	526,632
-3,746	14,935	941,033	526,102
-2,731	14,786	940,301	525,201
-1,717	14,786	939,638	524,809
-0,702	14,790	938,998	524,443
0,313	14,615	938,381	524,339
1,327	17,794	936,363	533,174
2,342	26,829	792,702	475,269
3,356	23,447	457,676	269,221
4,371	-3,688	313,758	155,776
5,386	-7,587	295,563	142,792
6,400	-9,652	289,488	137,800
7,415	-9,967	287,011	136,299
8,429	-10,225	285,503	135,319
9,444	-10,184	284,637	134,935
10,459	-10,249	284,027	134,571
11,473	-10,368	283,508	134,199
12,488	-10,251	282,921	134,022
13,502	-10,351	282,595	133,759
14,517	-10,211	282,092	133,644
15,531	-10,174	281,518	133,395
16,546	-10,193	281,152	133,192
17,561	-10,221	280,868	133,019
18,575	-10,088	280,478	132,949
19,590	-10,150	280,012	132,658
20,604	-10,163	279,678	132,475
21,619	-10,178	279,298	132,269
22,634	-10,105	278,896	132,137
23,648	-10,069	278,620	132,028
24,663	-10,166	278,501	131,868
25,677	-10,078	278,314	131,851
26,692	-10,293	277,811	131,397
27,707	-10,300	277,678	131,315
28,721	-10,319	277,403	131,156
29,736	-10,343	277,068	130,963
30,750	-10,288	276,831	130,891
31,765	-10,181	276,649	130,895
32,780	-10,352	276,448	130,626
33,794	-10,198	276,143	130,617
34,809	-10,185	275,886	130,495
35,823	-10,317	275,605	130,226
36,838	-10,430	275,481	130,050
37,853	-10,341	275,126	129,954
38,867	-10,230	274,786	129,886
39,882	-10,225	274,551	129,768
40,896	-10,260	274,372	129,639
41,911	-10,330	274,193	129,478
42,926	-10,347	273,874	129,299
43,940	-10,284	273,506	129,173
44,955	-10,314	273,320	129,046
45,969	-10,266	273,118	128,983
46,984	-10,537	273,043	128,684
47,999	-10,710	272,606	128,306
49,013	-10,790	272,446	128,145
50,028	-10,821	272,114	127,948
51,042	-10,888	271,749	127,704
52,057	-11,041	271,622	127,490
53,071	-10,817	271,358	127,562
54,086	-10,707	271,120	127,541
55,101	-10,528	271,056	127,665
56,115	-10,552	271,025	127,616
57,130	-9,929	270,702	128,027
58,144	-10,265	270,512	127,617
59,159	-10,254	270,460	127,591
60,174	-10,155	270,184	127,541
61,188	-10,078	269,918	127,475
62,203	-10,128	269,681	127,306
63,217	-10,030	269,337	127,222
64,232	-10,133	269,274	127,086
65,247	-10,113	269,021	126,974
66,261	-10,194	268,766	126,768
67,276	-10,251	268,380	126,523
68,290	-10,456	268,211	126,244
69,305	-10,347	267,929	126,200
70,320	-10,367	267,707	126,065
71,334	-10,343	267,688	126,067
72,349	-10,116	267,479	126,164
73,363	-10,118	267,152	125,997
74,378	-10,311	267,130	125,800
75,393	-10,085	266,754	125,817
76,407	-10,025	266,446	125,715
77,422	-10,060	266,300	125,603
78,436	-10,155	266,173	125,446
79,451	-10,128	265,945	125,352
80,466	-10,177	265,616	125,141
81,480	-10,158	265,363	125,028
82,495	-10,278	265,227	124,845
83,509	-10,283	265,111	124,774
84,524	-10,213	264,716	124,640
85,539	-10,314	264,509	124,440
86,553	-10,437	264,426	124,280
87,568	-10,177	264,201	124,396
88,582	-10,444	264,038	124,069
89,597	-10,213	263,703	124,108
90,611	-10,230	263,648	124,056
91,626	-9,946	263,381	124,173
92,641	-10,328	263,303	123,784
93,655	-10,199	262,952	123,723
94,670	-10,304	262,841	123,565
95,684	-10,103	262,627	123,634
96,699	-10,155	262,359	123,450
97,714	-10,318	262,227	123,231
98,728	-10,528	261,984	122,919
99,743	-10,377	261,659	122,890
100,757	-10,329	261,437	122,818
101,772	-10,248	261,317	122,822
102,787	-10,386	261,206	122,637
103,801	-10,103	261,033	122,795
104,816	-10,083	260,784	122,685
105,830	-10,173	260,653	122,532
106,845	-10,183	260,486	122,434
107,860	-10,116	260,235	122,365
108,874	-10,088	259,970	122,254
109,889	-10,124	259,883	122,170
110,903	-10,112	259,686	122,077
111,918	-10,190	259,394	121,861
112,933	-10,191	259,407	121,855
113,947	-9,998	259,080	121,860
114,962	-10,171	259,009	121,663
115,976	-10,143	258,521	121,448
116,991	-10,384	258,447	121,191
118,006	-10,138	258,331	121,342
119,020	-10,227	258,164	121,175
120,035	-10,028	258,034	121,277
121,049	-9,977	257,662	121,136
122,064	-10,132	257,651	120,984
123,079	-10,079	257,478	120,938
124,093	-10,361	257,350	120,622
125,108	-10,299	256,954	120,479
126,122	-10,580	256,669	120,090
127,137	-10,647	256,649	120,012
128,151	-10,530	256,391	119,983
129,166	-10,467	256,238	119,955
130,181	-10,392	255,988	119,892
131,195	-10,346	255,664	119,770
132,210	-10,134	255,515	119,872
133,224	-10,151	255,391	119,789
134,239	-10,194	255,326	119,710
135,254	-10,198	255,012	119,549
136,268	-10,338	254,869	119,351
137,283	-10,439	254,594	119,125
138,297	-10,618	254,422	118,879
139,312	-10,549	254,185	118,818
140,327	-10,241	253,915	118,946
141,341	-10,079	254,014	119,120
142,356	-10,382	253,827	118,762
143,370	-10,051	253,582	118,920
144,385	-9,985	253,603	118,976
145,400	-9,921	253,231	118,845
146,414	-9,995	252,931	118,631
147,429	-10,019	253,094	118,676
148,443	-10,160	252,837	118,425
149,458	-10,093	252,648	118,383
150,473	-9,723	252,296	118,523
151,487	-10,052	252,265	118,218
152,502	-10,038	251,926	118,060
153,516	-10,090	251,872	117,980
154,531	-9,894	251,682	118,047
155,546	-9,878	251,450	117,941
156,560	-9,951	251,217	117,759
157,575	-10,097	251,047	117,546
158,589	-10,141	250,895	117,426
159,604	-9,906	250,616	117,485
160,619	-10,130	250,454	117,209
161,633	-9,992	250,266	117,227
162,648	-9,997	250,158	117,162
163,662	-9,835	250,182	117,299
164,677	-9,829	249,692	117,064
165,692	-9,957	249,678	116,939
166,706	-10,145	249,640	116,752
167,721	-9,960	249,387	116,779
168,735	-9,928	249,245	116,729
169,750	-9,936	249,195	116,689
170,764	-10,000	248,944	116,507
171,779	-9,948	248,708	116,430
172,794	-9,716	248,619	116,572
173,808	-9,981	248,280	116,182
174,823	-10,490	248,097	115,659
175,837	-10,484	247,842	115,535
176,852	-10,174	247,912	115,817
177,867	-10,041	247,833	115,880
178,881	-10,019	247,586	115,773
179,896	-9,961	247,474	115,758
180,910	-10,004	247,108	115,541
181,925	-9,929	246,989	115,538
182,940	-9,941	246,843	115,449
183,954	-9,849	246,629	115,415
184,969	-9,946	246,557	115,291
185,983	-9,952	246,465	115,233
186,998	-9,897	246,311	115,196
188,013	-9,817	245,926	115,072
189,027	-9,900	245,892	114,977
190,042	-9,686	245,531	114,975
191,056	-10,013	245,462	114,662
192,071	-10,049	245,379	114,583
193,086	-9,940	245,048	114,508
194,100	-10,047	244,966	114,372
195,115	-9,892	244,836	114,428
196,129	-9,991	244,751	114,297
197,144	-10,044	244,607	114,176
198,159	-9,967	244,120	114,001
199,173	-9,807	244,053	114,092
200,188	-9,917	243,801	113,873
201,202	-10,273	243,735	113,541
202,217	-10,634	243,400	113,078
203,232	-10,691	243,205	112,931
204,246	-10,309	243,130	113,199
205,261	-9,472	242,948	113,788
206,275	-10,410	242,934	113,005
207,290	-5,916	244,506	117,418
208,304	1,062	246,586	124,171
209,319	3,401	247,209	126,405
210,334	3,923	247,133	126,785
211,348	4,073	247,158	126,910
212,363	4,314	247,104	127,070
213,377	4,278	246,915	126,932
214,392	4,351	246,599	126,818
215,407	4,135	246,534	126,596
216,421	3,924	246,600	126,445
217,436	4,429	246,381	126,736
218,450	4,572	246,118	126,707
219,465	4,257	245,796	126,272
220,480	3,887	245,712	125,915
221,494	3,871	245,476	125,769
222,509	4,116	245,368	125,903
223,523	3,950	245,219	125,679
224,538	3,354	244,857	124,996
225,553	3,638	244,790	125,183
226,567	3,787	244,567	125,179
227,582	3,821	244,497	125,160
228,596	3,811	244,303	125,041
229,611	3,647	244,078	124,781
230,626	3,534	243,771	124,521
231,640	3,771	243,713	124,674
232,655	3,786	243,705	124,670
233,669	3,786	243,451	124,529
234,684	3,617	243,095	124,199
235,699	4,142	243,123	124,627
236,713	4,063	243,206	124,594
237,728	3,703	242,784	124,077
238,742	3,461	242,673	123,813
239,757	3,721	242,352	123,848
240,772	3,733	242,266	123,803
241,786	3,610	242,199	123,659
242,801	3,544	242,083	123,535
243,815	3,478	241,864	123,359
244,830	3,783	241,693	123,506
245,844	3,727	241,639	123,422
246,859	3,735	241,322	123,256
247,874	3,688	241,013	123,049
248,888	3,790	241,071	123,150
249,903	3,893	240,980	123,175
250,917	3,898	240,752	123,051
251,932	4,067	240,637	123,117
252,947	4,020	240,464	122,980
253,961	3,614	240,293	122,557
254,976	3,831	240,217	122,680
255,990	3,782	240,258	122,651
257,005	3,711	239,775	122,337
258,020	3,637	239,649	122,203
259,034	3,745	239,483	122,194
260,049	3,777	239,453	122,193
261,063	3,756	239,192	122,033
262,078	3,581	239,019	121,794
263,093	4,031	239,073	122,168
264,107	3,861	238,879	121,924
265,122	3,664	238,648	121,638
266,136	3,655	238,514	121,552
267,151	3,898	238,311	121,630
268,166	3,659	238,110	121,327
269,180	3,418	238,112	121,127
270,195	4,142	238,074	121,669
271,209	4,076	237,874	121,504
272,224	3,838	237,534	121,132
273,239	3,645	237,236	120,817
274,253	3,657	237,167	120,781
275,268	3,762	237,100	120,819
276,282	3,760	237,097	120,805
277,297	3,477	236,737	120,388
278,312	3,590	236,734	120,465
279,326	3,846	236,478	120,524
280,341	3,633	236,384	120,299
281,355	3,878	236,310	120,442
282,370	3,835	236,154	120,319
283,384	3,772	235,820	120,088
284,399	3,733	235,507	119,887
285,414	3,641	235,509	119,806
286,428	3,434	235,480	119,619
287,443	3,822	235,258	119,798
288,457	3,792	235,143	119,706
289,472	3,885	234,961	119,675
290,487	3,810	234,737	119,492
291,501	3,496	234,577	119,155
292,516	3,447	234,433	119,034
293,530	3,478	234,243	118,951
294,545	3,877	234,286	119,272
295,560	3,624	234,197	119,020
296,574	3,489	233,885	118,746
297,589	3,698	233,809	118,858
298,603	3,857	233,770	118,951
299,618	3,954	233,607	118,932
300,633	4,095	233,467	118,959
301,647	4,107	233,423	118,936
302,662	4,295	233,355	119,036
303,676	4,222	233,045	118,811
304,691	4,104	232,804	118,586
305,706	4,399	232,664	118,732
306,720	4,098	232,688	118,502
307,735	3,863	232,462	118,195
308,749	3,986	232,181	118,136
309,764	3,540	232,131	117,758
310,779	3,588	231,792	117,612
311,793	3,444	231,541	117,364
312,808	3,476	231,567	117,391
313,822	3,396	231,337	117,203
314,837	3,407	231,295	117,180
315,852	3,579	231,054	117,178
316,866	3,781	230,949	117,269
317,881	3,986	231,021	117,452
318,895	3,943	230,779	117,285
319,910	3,915	230,765	117,247
320,925	3,675	230,352	116,844
321,939	3,381	230,121	116,493
322,954	3,839	230,194	116,867
323,968	4,071	230,080	116,975
324,983	3,752	230,037	116,701
325,997	3,935	229,730	116,673
327,012	3,868	229,492	116,491
328,027	3,452	229,253	116,044
329,041	3,922	229,336	116,432
330,056	4,766	229,270	117,027
331,070	4,598	229,315	116,912
332,085	4,189	228,832	116,347
333,100	3,984	228,711	116,120
334,114	3,815	228,595	115,923
335,129	4,032	228,497	116,027
336,143	4,498	228,363	116,299
337,158	4,546	228,279	116,282
338,173	4,181	227,983	115,847
339,187	3,895	227,787	115,522
340,202	4,244	227,696	115,728
341,216	4,201	227,531	115,602
342,231	3,930	227,348	115,295
343,246	4,011	227,279	115,311
344,260	3,740	227,222	115,068
345,275	4,027	227,070	115,195
346,289	4,205	226,928	115,247
347,304	4,078	226,921	115,137
348,319	4,083	226,694	115,016
349,333	4,176	226,439	114,946
350,348	3,787	226,331	114,591
351,362	4,002	226,211	114,680
352,377	3,882	225,907	114,426
353,392	3,831	225,720	114,284
354,406	3,802	225,660	114,221
355,421	196,475	1321,490	1401,116
356,435	157,515	1454,988	1401,100
