DTS Sentinel unit serial number:	SN410029Multiplexer serial number:	ORYXHardware model number:	OX2-SRSoftware version number:	ORYX F/W v4,00 Oryx Data Collector v3.7.2.0data status	okinstallation	B5 Nyhavnadifferential loss correction	single-endedforward channel	channel 2reverse channel	N/Adate	2023/12/12time	11:12:13forward acquisition time	300,00reverse acquisition time	0,00gamma	499,1914k internal	0,3158k external	0,3158temperature offset calibration	1,0000default loss term (dB/km)	0,3820temperature slope calibration	1,0000multiplexer offset coefficient	1,0000multiplexer slope coefficient	1,0000fibre end	0,00T internal ref (°C)	15,04T ext. ref 1 (°C)	-1,15T ext. ref 2 (°C)	-1,40length (m)	temperature (°C)	Stokes	anti-Stokes-744,400	233,305	0,030	0,036
-743,385	-115,033	-0,225	-0,031
-742,371	-173,432	0,162	-0,004
-741,356	-51,429	-0,373	0,128
-740,342	203,825	0,096	0,110
-739,327	-159,825	-0,331	-0,013
-738,312	100,947	0,075	-0,064
-737,298	-148,558	-0,399	-0,024
-736,283	-200,000	-0,021	0,223
-735,269	238,658	-0,168	0,207
-734,254	-51,543	0,066	0,023
-733,239	-30,028	-0,602	-0,251
-732,225	-49,833	0,106	-0,037
-731,210	210,982	0,088	0,102
-730,196	-200,000	0,014	-0,119
-729,181	800,000	0,035	0,078
-728,167	-200,000	-0,016	0,070
-727,152	-200,000	-0,059	-0,202
-726,137	138,109	-0,127	0,123
-725,123	-200,000	0,005	-0,097
-724,108	9,856	-0,188	-0,105
-723,094	-200,000	0,009	-0,171
-722,079	-200,000	-0,023	-0,081
-721,064	276,256	-0,036	0,047
-720,050	517,525	0,040	-0,069
-719,035	142,327	0,073	-0,072
-718,021	-200,000	-0,010	-0,035
-717,006	800,000	0,017	-0,038
-715,991	-200,000	-0,016	-0,075
-714,977	-200,000	-0,001	-0,069
-713,962	-200,000	-0,024	0,183
-712,948	-169,947	-0,043	0,001
-711,933	39,255	-0,114	0,075
-710,918	287,072	-0,079	-0,105
-709,904	-200,000	-0,003	-0,049
-708,889	42,043	-0,095	-0,064
-707,875	391,346	0,050	-0,076
-706,860	-33,746	0,107	0,043
-705,845	-39,330	0,121	0,047
-704,831	57,625	0,112	0,080
-703,816	-41,763	-0,109	-0,041
-702,802	-165,105	-0,078	0,003
-701,787	800,000	0,017	-0,045
-700,772	800,000	0,050	-0,119
-699,758	549,307	-0,045	-0,080
-698,743	104,671	-0,067	0,058
-697,729	-34,954	-0,086	0,034
-696,714	-48,926	0,043	0,015
-695,699	-200,000	-0,011	-0,058
-694,685	-200,000	0,007	-0,095
-693,670	-97,696	0,053	0,010
-692,656	135,000	0,066	-0,063
-691,641	626,653	0,035	0,065
-690,627	-116,243	0,087	0,012
-689,612	-200,000	-0,038	-0,158
-688,597	800,000	0,019	0,059
-687,583	800,000	0,012	0,026
-686,568	130,428	-0,036	0,034
-685,554	199,701	-0,061	0,069
-684,539	-77,259	0,089	0,023
-683,524	-145,509	-0,064	-0,004
-682,510	-57,559	-0,138	-0,044
-681,495	-59,164	-0,079	-0,025
-680,481	800,000	-0,064	0,134
-679,466	-177,963	0,011	-0,000
-678,451	-2,186	-0,042	0,022
-677,437	-103,992	-0,041	-0,007
-676,422	105,913	0,017	0,015
-675,408	-144,049	-0,139	0,009
-674,393	-200,000	-0,018	-0,063
-673,378	28,950	-0,083	0,052
-672,364	509,805	-0,086	-0,148
-671,349	65,047	-0,112	0,083
-670,335	94,400	-0,061	0,051
-669,320	-200,000	0,010	-0,072
-668,305	-39,352	-0,137	0,052
-667,291	176,641	-0,066	-0,071
-666,276	-153,595	-0,236	-0,012
-665,262	298,103	-0,084	-0,113
-664,247	-200,000	-0,003	0,064
-663,232	800,000	-0,037	-0,083
-662,218	-200,000	-0,002	0,065
-661,203	314,735	-0,118	0,164
-660,189	109,781	-0,124	0,110
-659,174	538,961	-0,029	-0,051
-658,159	-200,000	0,001	-0,035
-657,145	22,996	-0,076	0,046
-656,130	-200,000	-0,007	0,034
-655,116	-200,000	0,001	-0,080
-654,101	49,874	0,140	0,097
-653,086	-61,861	-0,113	0,034
-652,072	-149,655	0,061	0,003
-651,057	725,702	-0,062	-0,121
-650,043	118,700	-0,075	-0,068
-649,028	800,000	0,010	-0,023
-648,014	-100,341	0,029	0,005
-646,999	33,169	-0,148	0,094
-645,984	-110,900	-0,068	-0,010
-644,970	-44,576	-0,083	-0,030
-643,955	-91,237	-0,117	0,024
-642,941	-200,000	-0,012	-0,100
-641,926	-200,000	-0,028	-0,099
-640,911	-30,636	-0,042	-0,018
-639,897	143,295	0,031	0,031
-638,882	-200,000	-0,033	-0,127
-637,868	382,105	-0,060	0,091
-636,853	800,000	0,028	-0,073
-635,838	-200,000	0,008	-0,091
-634,824	64,428	-0,101	0,074
-633,809	-44,094	-0,062	-0,023
-632,795	800,000	0,047	-0,119
-631,780	-48,399	0,018	0,006
-630,765	26,425	0,079	0,049
-629,751	316,708	-0,056	0,078
-628,736	-200,000	-0,001	0,028
-627,722	-19,990	-0,172	-0,077
-626,707	-63,390	-0,182	-0,055
-625,692	-94,672	0,178	0,035
-624,678	-200,000	0,030	-0,106
-623,663	-176,707	0,066	0,001
-622,649	-200,000	0,018	-0,135
-621,634	800,000	-0,044	-0,115
-620,619	224,200	-0,061	-0,073
-619,605	68,221	-0,076	-0,057
-618,590	-21,847	0,076	0,034
-617,576	-121,674	-0,140	-0,017
-616,561	800,000	0,055	-0,127
-615,546	800,000	0,005	-0,013
-614,532	-200,000	0,005	-0,078
-613,517	-200,000	0,033	-0,108
-612,503	97,714	-0,078	0,066
-611,488	-51,466	0,127	0,043
-610,474	-165,704	0,034	-0,001
-609,459	-200,000	0,019	0,115
-608,444	800,000	-0,026	-0,082
-607,430	-131,826	-0,026	0,003
-606,415	-200,000	0,004	0,173
-605,401	306,860	-0,025	0,034
-604,386	146,794	0,113	0,111
-603,371	-69,784	-0,088	-0,025
-602,357	117,495	-0,061	-0,055
-601,342	14,991	0,071	-0,040
-600,328	45,006	-0,101	0,068
-599,313	-126,083	-0,078	-0,009
-598,298	-158,390	-0,009	0,000
-597,284	-162,914	0,024	-0,001
-596,269	-133,776	0,049	-0,004
-595,255	552,344	0,016	0,029
-594,240	-131,265	0,063	0,006
-593,225	75,584	-0,123	0,095
-592,211	4,975	-0,154	-0,083
-591,196	800,000	-0,026	-0,077
-590,182	-200,000	-0,011	-0,044
-589,167	576,571	-0,094	0,169
-588,152	-200,000	-0,012	0,062
-587,138	697,379	0,029	-0,056
-586,123	-103,508	-0,132	0,023
-585,109	-200,000	-0,004	-0,028
-584,094	332,853	0,059	0,083
-583,079	449,856	-0,046	0,075
-582,065	-200,000	0,019	0,072
-581,050	283,915	-0,013	-0,017
-580,036	800,000	0,027	0,069
-579,021	39,912	-0,180	0,118
-578,006	110,665	0,025	-0,022
-576,992	347,168	0,032	-0,046
-575,977	-200,000	-0,005	-0,042
-574,963	800,000	-0,037	-0,081
-573,948	-200,000	0,005	0,036
-572,934	-200,000	0,036	0,117
-571,919	-124,145	-0,142	-0,016
-570,904	-200,000	-0,028	-0,175
-569,890	-200,000	-0,014	0,126
-568,875	-24,611	-0,097	0,042
-567,861	-200,000	-0,034	0,193
-566,846	-70,427	0,101	-0,028
-565,831	192,517	-0,034	-0,038
-564,817	123,813	-0,063	0,058
-563,802	-143,437	-0,063	0,004
-562,788	-58,404	0,192	-0,061
-561,773	800,000	-0,015	-0,032
-560,758	184,253	0,036	-0,039
-559,744	-89,964	-0,090	0,019
-558,729	-22,611	0,078	0,035
-557,715	-24,973	-0,134	0,058
-556,700	81,212	0,068	-0,054
-555,685	800,000	-0,045	-0,117
-554,671	-49,455	-0,083	-0,029
-553,656	218,824	0,075	0,087
-552,642	-200,000	-0,012	0,042
-551,627	-136,520	-0,180	0,015
-550,612	117,746	-0,088	-0,079
-549,598	23,783	-0,116	0,070
-548,583	525,519	0,046	-0,080
-547,569	60,676	-0,108	-0,078
-546,554	-154,448	-0,123	-0,006
-545,539	-90,481	0,188	0,040
-544,525	14,138	-0,007	0,004
-543,510	800,000	-0,044	-0,102
-542,496	800,000	-0,025	0,078
-541,481	-96,258	-0,108	-0,021
-540,466	-8,284	0,064	0,031
-539,452	265,878	-0,063	-0,080
-538,437	-19,773	-0,063	-0,028
-537,423	800,000	-0,035	0,105
-536,408	-20,626	0,083	0,037
-535,393	541,425	0,042	-0,074
-534,379	-61,662	-0,056	0,017
-533,364	-125,495	0,062	-0,007
-532,350	-144,183	0,117	-0,008
-531,335	344,046	-0,038	-0,055
-530,321	800,000	0,032	0,085
-529,306	58,629	0,070	0,050
-528,291	500,827	0,106	-0,179
-527,277	-100,231	-0,156	0,028
-526,262	-80,666	-0,078	-0,019
-525,248	-200,000	0,027	-0,093
-524,233	-125,796	0,108	0,012
-523,218	800,000	-0,068	0,139
-522,204	-27,922	0,079	-0,033
-521,189	170,514	-0,088	-0,092
-520,175	-200,000	-0,007	-0,029
-519,160	70,107	0,080	0,061
-518,145	800,000	-0,051	0,107
-517,131	93,686	0,055	-0,045
-516,116	-200,000	-0,043	-0,139
-515,102	-200,000	0,039	-0,172
-514,087	-76,858	-0,064	0,016
-513,072	155,831	-0,037	-0,037
-512,058	0,378	0,043	-0,022
-511,043	-63,715	-0,069	0,021
-510,029	-127,812	0,068	-0,007
-509,014	174,599	0,089	0,094
-507,999	800,000	0,010	0,021
-506,985	800,000	-0,060	-0,125
-505,970	-200,000	-0,038	-0,134
-504,956	71,841	-0,055	0,042
-503,941	227,146	-0,034	0,040
-502,926	184,348	-0,062	-0,067
-501,912	-13,393	-0,042	-0,020
-500,897	533,431	-0,027	0,047
-499,883	-200,000	-0,026	0,107
-498,868	-200,000	-0,009	0,130
-497,853	-120,115	-0,172	-0,021
-496,839	455,022	0,053	-0,085
-495,824	86,554	0,098	0,079
-494,810	350,972	0,078	0,112
-493,795	-146,695	0,077	0,005
-492,781	-200,000	-0,010	0,064
-491,766	215,336	-0,063	0,073
-490,751	176,236	-0,023	0,025
-489,737	800,000	0,024	0,071
-488,722	60,520	0,097	0,070
-487,708	800,000	0,006	-0,020
-486,693	-200,000	-0,050	-0,185
-485,678	-200,000	-0,011	0,043
-484,664	525,155	0,045	-0,078
-483,649	63,328	-0,121	0,088
-482,635	-200,000	-0,027	0,088
-481,620	69,812	0,047	0,035
-480,605	800,000	-0,043	0,092
-479,591	121,925	-0,040	0,036
-478,576	70,616	-0,104	-0,078
-477,562	-200,000	0,030	-0,162
-476,547	12,338	-0,069	-0,039
-475,532	129,884	-0,025	-0,023
-474,518	96,588	-0,066	-0,055
-473,503	800,000	0,036	-0,112
-472,489	91,907	0,056	-0,046
-471,474	-20,648	-0,031	0,014
-470,459	-200,000	-0,010	0,148
-469,445	-200,000	0,038	0,141
-468,430	800,000	0,038	-0,091
-467,416	62,322	0,083	0,060
-466,401	-176,879	0,038	0,001
-465,386	191,425	0,102	0,112
-464,372	-169,902	0,092	-0,002
-463,357	-87,077	0,088	0,019
-462,343	31,406	0,108	-0,067
-461,328	130,367	-0,057	-0,053
-460,313	81,244	0,098	-0,077
-459,299	49,504	0,087	-0,060
-458,284	52,146	-0,078	0,054
-457,270	243,401	0,009	0,011
-456,255	-200,000	-0,009	-0,085
-455,241	699,054	0,037	-0,072
-454,226	-200,000	-0,002	-0,062
-453,211	337,953	-0,048	-0,068
-452,197	61,346	0,029	-0,021
-451,182	90,591	0,029	0,024
-450,168	-166,899	0,076	-0,002
-449,153	255,221	-0,081	0,101
-448,138	-200,000	0,001	0,070
-447,124	800,000	-0,011	-0,030
-446,109	90,448	0,051	-0,042
-445,095	730,375	0,067	0,132
-444,080	800,000	0,005	0,015
-443,065	800,000	0,038	-0,099
-442,051	202,833	-0,028	0,032
-441,036	-43,683	-0,093	0,034
-440,022	-121,232	0,085	0,010
-439,007	-104,262	0,116	0,019
-437,992	-200,000	0,009	-0,039
-436,978	558,444	0,068	0,121
-435,963	-130,477	0,046	0,004
-434,949	-200,000	-0,023	0,104
-433,934	719,605	-0,041	0,080
-432,919	-200,000	0,014	-0,060
-431,905	419,920	-0,127	-0,199
-430,890	90,602	-0,079	-0,064
-429,876	-200,000	-0,003	0,084
-428,861	-200,000	-0,024	0,102
-427,846	800,000	-0,046	-0,104
-426,832	-200,000	-0,001	-0,060
-425,817	43,422	0,097	-0,064
-424,803	800,000	-0,020	0,048
-423,788	-200,000	-0,004	-0,108
-422,773	-200,000	0,002	0,009
-421,759	-200,000	0,017	0,132
-420,744	800,000	-0,033	0,087
-419,730	-200,000	-0,042	-0,149
-418,715	-117,585	-0,140	-0,018
-417,701	-200,000	-0,007	0,053
-416,686	-200,000	0,015	0,093
-415,671	-85,986	0,026	0,006
-414,657	191,051	0,106	0,116
-413,642	-200,000	-0,006	0,148
-412,628	556,729	-0,067	-0,118
-411,613	247,367	-0,069	-0,085
-410,598	-23,190	0,139	-0,060
-409,584	800,000	0,022	0,051
-408,569	800,000	0,068	-0,166
-407,555	-85,430	0,179	-0,040
-406,540	-149,720	0,036	-0,002
-405,525	-93,137	-0,113	0,023
-404,511	-22,910	-0,180	0,079
-403,496	571,628	0,031	-0,055
-402,482	-63,099	-0,066	0,020
-401,467	421,480	-0,044	0,069
-400,452	-200,000	0,007	0,107
-399,438	65,765	-0,042	-0,031
-398,423	-200,000	-0,136	-0,000
-397,409	-17,833	-0,048	0,022
-396,394	366,092	0,032	-0,048
-395,379	-22,254	0,170	-0,074
-394,365	121,423	0,038	-0,034
-393,350	-200,000	0,025	-0,163
-392,336	-3,808	-0,038	0,019
-391,321	689,810	-0,056	0,107
-390,306	337,888	0,049	0,069
-389,292	-129,640	-0,046	0,005
-388,277	-79,412	-0,177	-0,043
-387,263	-126,306	0,102	-0,011
-386,248	387,014	-0,085	0,128
-385,233	800,000	0,049	0,146
-384,219	800,000	0,064	-0,160
-383,204	-53,967	-0,137	0,045
-382,190	-91,157	-0,113	-0,023
-381,175	-200,000	-0,019	0,081
-380,160	289,760	0,042	0,056
-379,146	800,000	-0,067	0,160
-378,131	11,068	-0,088	-0,049
-377,117	269,127	-0,052	-0,067
-376,102	800,000	0,030	-0,070
-375,088	-77,180	0,008	0,002
-374,073	111,712	0,073	-0,064
-373,058	362,145	0,086	-0,125
-372,044	800,000	-0,038	-0,090
-371,029	-200,000	-0,017	-0,095
-370,015	27,285	-0,049	-0,030
-369,000	338,439	0,065	-0,093
-367,985	148,197	-0,014	-0,014
-366,971	800,000	-0,015	0,037
-365,956	18,258	0,080	-0,046
-364,942	-66,251	0,065	0,019
-363,927	800,000	0,022	0,066
-362,912	-200,000	-0,018	-0,111
-361,898	-15,127	-0,076	-0,035
-360,883	52,300	0,034	-0,023
-359,869	255,060	-0,085	-0,106
-358,854	-200,000	-0,032	-0,125
-357,839	-200,000	-0,012	0,067
-356,825	-181,853	0,066	0,001
-355,810	-6,331	0,088	0,043
-354,796	409,853	0,031	0,048
-353,781	77,634	-0,045	0,034
-352,766	-131,796	0,094	0,009
-351,752	150,833	0,039	0,039
-350,737	61,969	-0,010	0,007
-349,723	7,344	0,079	-0,043
-348,708	-67,670	0,099	-0,028
-347,693	-121,338	-0,165	-0,020
-346,679	800,000	-0,010	0,023
-345,664	-166,812	0,128	-0,004
-344,650	18,008	-0,113	0,065
-343,635	10,693	0,066	-0,037
-342,620	389,993	-0,018	0,028
-341,606	-47,116	0,076	-0,027
-340,591	6,350	-0,053	-0,028
-339,577	800,000	0,059	-0,129
-338,562	-200,000	-0,093	-0,000
-337,548	366,054	0,032	0,048
-336,533	70,642	-0,051	0,038
-335,518	800,000	0,037	0,105
-334,504	-200,000	0,029	0,162
-333,489	-200,000	0,017	-0,109
-332,475	-144,180	0,040	-0,003
-331,460	800,000	0,038	-0,077
-330,445	-200,000	-0,021	0,123
-329,431	-126,123	-0,020	0,002
-328,416	-94,298	0,131	-0,026
-327,402	-164,025	-0,043	0,001
-326,387	424,260	-0,031	-0,049
-325,372	231,837	-0,025	-0,029
-324,358	-113,821	-0,079	0,011
-323,343	-200,000	-0,024	-0,115
-322,329	-140,818	0,073	-0,005
-321,314	585,148	-0,059	0,105
-320,299	-200,000	-0,020	0,162
-319,285	304,642	-0,046	-0,062
-318,270	187,845	0,035	0,038
-317,256	57,051	0,072	0,051
-316,241	-200,000	0,026	-0,089
-315,226	273,919	-0,051	-0,065
-314,212	-200,000	0,013	0,121
-313,197	-129,194	-0,006	0,001
-312,183	119,935	-0,075	-0,068
-311,168	18,572	0,057	-0,033
-310,153	22,976	0,010	-0,006
-309,139	173,786	-0,081	-0,085
-308,124	-200,000	-0,004	-0,012
-307,110	-200,000	0,024	0,126
-306,095	275,448	0,037	0,048
-305,080	-200,000	0,014	0,080
-304,066	-41,102	0,078	0,029
-303,051	-200,000	-0,028	-0,123
-302,037	-200,000	-0,014	-0,106
-301,022	571,334	-0,024	0,043
-300,008	-116,379	0,077	-0,010
-298,993	-140,094	0,089	-0,007
-297,978	96,212	0,087	-0,072
-296,964	10,538	-0,045	-0,025
-295,949	800,000	-0,044	-0,096
-294,935	16,739	-0,070	-0,040
-293,920	-7,055	-0,068	-0,034
-292,905	145,693	0,051	0,049
-291,891	-31,437	0,059	-0,024
-290,876	-95,383	0,027	-0,005
-289,862	-200,000	0,018	0,089
-288,847	-36,329	0,033	0,013
-287,832	-200,000	-0,036	-0,121
-286,818	60,192	-0,076	-0,055
-285,803	233,098	0,084	0,100
-284,789	800,000	0,040	0,094
-283,774	561,018	-0,033	-0,058
-282,759	-200,000	-0,015	0,085
-281,745	800,000	-0,033	0,068
-280,730	-82,124	-0,093	-0,022
-279,716	245,784	0,101	0,124
-278,701	-141,493	0,129	0,009
-277,686	800,000	-0,040	0,122
-276,672	800,000	-0,035	0,100
-275,657	686,763	0,031	-0,059
-274,643	-200,000	0,053	-0,175
-273,628	34,799	-0,092	-0,058
-272,613	-200,000	0,020	-0,110
-271,599	-11,509	0,140	0,067
-270,584	-139,311	0,031	0,002
-269,570	145,153	0,035	-0,034
-268,555	800,000	0,047	0,106
-267,540	605,785	0,028	-0,052
-266,526	22,521	-0,022	-0,013
-265,511	676,211	-0,042	0,080
-264,497	47,260	0,025	0,017
-263,482	-61,131	-0,078	0,024
-262,467	172,294	0,079	0,083
-261,453	-86,663	-0,109	-0,024
-260,438	25,949	0,055	-0,033
-259,424	-5,078	0,062	-0,031
-258,409	463,782	-0,031	0,051
-257,395	403,950	0,089	0,136
-256,380	-200,000	0,009	0,045
-255,365	301,478	0,067	0,090
-254,351	-200,000	0,004	0,017
-253,336	136,750	-0,052	-0,049
-252,322	-200,000	0,017	-0,174
-251,307	-200,000	0,001	-0,101
-250,292	-200,000	-0,022	0,204
-249,278	800,000	0,063	0,166
-248,263	-200,000	-0,003	-0,041
-247,249	281,278	-0,032	0,041
-246,234	280,510	-0,041	0,052
-245,219	121,495	-0,031	0,028
-244,205	122,758	-0,063	0,057
-243,190	-200,000	0,014	0,058
-242,176	126,670	0,093	-0,086
-241,161	-200,000	-0,001	0,030
-240,146	800,000	0,089	0,183
-239,132	11,531	-0,046	-0,026
-238,117	-114,609	0,066	0,009
-237,103	270,574	0,026	-0,034
-236,088	-200,000	-0,021	-0,111
-235,073	41,463	0,059	0,039
-234,059	-45,831	0,086	0,031
-233,044	-200,000	-0,091	0,000
-232,030	461,382	0,073	0,118
-231,015	-200,000	-0,004	-0,101
-230,000	602,993	-0,071	-0,127
-228,986	125,957	0,105	-0,096
-227,971	52,415	0,039	-0,027
-226,957	724,392	0,038	-0,073
-225,942	-59,690	-0,116	0,036
-224,927	316,027	0,050	-0,068
-223,913	75,832	0,102	0,078
-222,898	231,704	-0,048	-0,057
-221,884	-45,240	0,060	0,021
-220,869	800,000	-0,045	-0,092
-219,855	545,722	0,012	0,021
-218,840	226,335	-0,066	0,077
-217,825	-48,742	-0,092	-0,032
-216,811	-192,975	0,142	0,001
-215,796	800,000	0,064	-0,157
-214,782	57,286	-0,074	0,052
-213,767	150,427	0,060	0,059
-212,752	-48,951	0,081	0,028
-211,738	284,145	-0,054	0,070
-210,723	-200,000	-0,019	0,083
-209,709	693,865	0,069	0,131
-208,694	57,287	-0,048	-0,033
-207,679	122,558	-0,043	0,039
-206,665	-19,365	0,135	0,060
-205,650	-165,837	0,031	-0,001
-204,636	800,000	-0,026	0,056
-203,621	606,896	0,010	0,018
-202,606	-200,000	-0,014	0,060
-201,592	16,456	0,008	0,004
-200,577	-139,790	-0,068	-0,005
-199,563	-200,000	0,029	-0,104
-198,548	360,325	0,075	0,109
-197,533	-108,738	-0,035	0,005
-196,519	107,616	0,065	-0,056
-195,504	-26,479	-0,054	-0,023
-194,490	-50,003	0,074	0,025
-193,475	586,701	0,035	0,063
-192,460	-200,000	0,002	-0,016
-191,446	-4,157	0,061	0,030
-190,431	1,453	0,210	0,109
-189,417	134,667	0,105	0,098
-188,402	-79,456	-0,133	-0,032
-187,387	-200,000	0,019	0,107
-186,373	-200,000	0,017	0,188
-185,358	-200,000	0,030	-0,146
-184,344	-183,513	0,154	0,002
-183,329	-71,178	0,059	0,016
-182,315	295,781	0,048	-0,064
-181,300	-200,000	0,022	0,070
-180,285	415,987	0,075	-0,116
-179,271	436,126	-0,081	-0,128
-178,256	-1,682	0,068	0,034
-177,242	90,958	0,026	-0,021
-176,227	294,876	0,065	0,086
-175,212	-200,000	0,011	-0,056
-174,198	104,875	0,109	-0,092
-173,183	153,261	0,038	0,038
-172,169	20,751	-0,121	-0,070
-171,154	-200,000	-0,004	-0,080
-170,139	-186,693	-0,106	-0,001
-169,125	-142,648	-0,067	-0,005
-168,110	-200,000	-0,031	-0,102
-167,096	101,841	0,078	0,066
-166,081	-67,390	-0,012	-0,003
-165,066	-2,422	-0,037	-0,019
-164,052	602,759	0,010	0,019
-163,037	-38,575	-0,144	0,055
-162,023	-200,000	-0,019	-0,072
-161,008	-138,259	-0,049	-0,004
-159,993	-34,868	0,126	-0,049
-158,979	-200,000	0,019	-0,152
-157,964	-200,000	-0,017	0,092
-156,950	77,664	-0,081	0,062
-155,935	-200,000	-0,010	0,149
-154,920	188,471	0,062	-0,067
-153,906	158,906	0,094	0,094
-152,891	-60,320	0,124	-0,038
-151,877	90,328	-0,123	-0,099
-150,862	-200,000	-0,030	-0,142
-149,847	800,000	-0,035	-0,083
-148,833	-4,604	0,198	-0,098
-147,818	-64,176	0,054	-0,016
-146,804	800,000	-0,053	0,115
-145,789	380,337	0,043	0,064
-144,775	-200,000	0,011	0,044
-143,760	-200,000	-0,044	-0,170
-142,745	270,081	0,049	0,062
-141,731	-200,000	-0,025	0,119
-140,716	247,252	0,068	0,082
-139,702	-102,344	-0,015	0,003
-138,687	403,222	-0,049	-0,075
-137,672	-101,986	0,091	-0,016
-136,658	-93,964	-0,061	0,012
-135,643	-79,784	-0,056	0,014
-134,629	800,000	-0,024	0,060
-133,614	33,813	0,094	0,059
-132,599	48,772	0,033	-0,023
-131,585	78,520	0,029	-0,023
-130,570	-64,240	-0,113	-0,033
-129,556	354,636	0,057	0,082
-128,541	-82,466	-0,043	-0,010
-127,526	122,578	0,114	0,102
-126,512	-53,170	0,016	0,005
-125,497	402,049	-0,046	0,069
-124,483	-51,898	-0,058	-0,019
-123,468	-122,063	-0,074	0,009
-122,453	800,000	-0,051	-0,120
-121,439	-200,000	0,002	-0,088
-120,424	-200,000	-0,050	-0,177
-119,410	-84,456	0,120	0,027
-118,395	10,802	0,052	0,028
-117,380	617,460	0,018	0,032
-116,366	121,499	-0,049	0,044
-115,351	-16,314	0,076	-0,034
-114,337	41,444	-0,150	0,098
-113,322	800,000	-0,055	0,113
-112,307	16,947	0,111	-0,063
-111,293	800,000	0,041	0,088
-110,278	601,486	0,063	0,112
-109,264	-200,000	0,013	0,105
-108,249	22,092	-0,029	-0,017
-107,234	-167,489	-0,082	0,002
-106,220	-17,957	0,054	-0,024
-105,205	800,000	0,035	-0,084
-104,191	-200,000	0,013	0,047
-103,176	800,000	0,031	-0,096
-102,162	-200,000	0,011	0,059
-101,147	-200,000	0,021	-0,084
-100,132	177,168	0,041	-0,043
-99,118	-156,169	-0,120	0,005
-98,103	-23,327	0,102	-0,044
-97,089	-200,000	-0,001	0,025
-96,074	294,720	0,062	0,082
-95,059	-200,000	0,001	0,105
-94,045	-130,178	-0,110	-0,011
-93,030	-23,685	-0,057	-0,024
-92,016	70,857	-0,069	0,052
-91,001	800,000	-0,038	0,089
-89,986	-200,000	0,015	-0,087
-88,972	-181,720	0,018	0,000
-87,957	293,916	-0,056	-0,073
-86,943	427,021	0,049	0,076
-85,928	-200,000	-0,029	-0,103
-84,913	-105,606	-0,122	-0,020
-83,899	399,778	-0,050	-0,076
-82,884	-200,000	0,021	0,068
-81,870	-200,000	0,012	-0,081
-80,855	-200,000	0,003	-0,013
-79,840	1,149	0,174	0,089
-78,826	200,169	-0,063	-0,069
-77,811	-20,819	0,014	0,006
-76,797	-200,000	0,009	-0,031
-75,782	82,777	0,038	-0,029
-74,767	-200,000	0,001	0,003
-73,753	-87,900	-0,080	0,017
-72,738	800,000	0,051	-0,140
-71,724	-106,256	-0,084	-0,013
-70,709	800,000	-0,023	-0,057
-69,694	-119,051	-0,052	-0,006
-68,680	138,805	0,037	-0,035
-67,665	77,903	0,061	-0,046
-66,651	-13,805	0,214	-0,099
-65,636	174,347	0,111	-0,116
-64,622	65,601	-0,154	-0,112
-63,607	800,000	0,023	-0,065
-62,592	-31,594	-0,172	-0,069
-61,578	-200,000	-0,003	-0,016
-60,563	800,000	0,040	0,116
-59,549	111,990	-0,124	0,108
-58,534	15,615	-1,999	-1,125
-57,519	665,777	-0,464	-0,864
-56,505	-200,000	-1,342	-5,168
-55,490	16,894	0,820	0,465
-54,476	800,000	5,313	12,271
-53,461	-200,000	17,779	289,142
-52,446	800,000	729,077	2230,620
-51,432	537,795	1645,360	2816,314
-50,417	109,688	1635,887	1406,719
-49,403	75,634	1287,103	974,450
-48,388	31,797	1027,577	633,270
-47,373	20,202	989,483	571,567
-46,359	18,471	977,004	558,665
-45,344	15,393	973,085	546,333
-44,330	15,622	971,523	546,183
-43,315	15,190	969,617	543,679
-42,300	15,008	968,791	542,603
-41,286	15,036	967,725	542,075
-40,271	15,047	966,654	541,490
-39,257	15,086	965,747	541,086
-38,242	15,081	964,694	540,458
-37,227	15,045	964,088	539,982
-36,213	15,118	963,148	539,671
-35,198	14,976	962,404	538,770
-34,184	15,104	961,605	538,717
-33,169	15,022	960,670	537,905
-32,154	15,092	959,723	537,581
-31,140	15,111	958,802	537,105
-30,125	15,104	958,034	536,631
-29,111	15,118	957,046	536,100
-28,096	15,072	956,592	535,676
-27,082	15,130	955,806	535,402
-26,067	15,054	955,231	534,814
-25,052	15,115	954,164	534,391
-24,038	15,042	953,748	533,905
-23,023	15,035	953,041	533,464
-22,009	15,094	952,373	533,257
-20,994	15,104	951,735	532,913
-19,979	15,132	951,100	532,625
-18,965	15,091	950,485	532,129
-17,950	15,095	949,920	531,803
-16,936	15,062	949,269	531,313
-15,921	14,981	948,622	530,671
-14,906	15,003	947,811	530,268
-13,892	14,922	947,174	529,630
-12,877	14,997	946,606	529,531
-11,863	14,946	946,016	529,018
-10,848	14,931	945,592	528,712
-9,833	14,978	945,163	528,601
-8,819	14,927	944,439	528,014
-7,804	14,994	943,681	527,780
-6,790	14,995	943,045	527,407
-5,775	14,973	942,586	527,061
-4,760	14,997	941,823	526,688
-3,746	14,974	941,286	526,294
-2,731	14,790	940,616	525,317
-1,717	14,763	939,998	524,865
-0,702	14,804	939,199	524,528
0,313	14,628	938,755	524,515
1,327	17,960	936,483	533,691
2,342	27,024	793,323	476,090
3,356	23,908	458,178	270,184
4,371	-3,369	314,176	156,304
5,386	-7,308	295,991	143,261
6,400	-9,301	289,982	138,364
7,415	-9,686	287,522	136,800
8,429	-9,836	285,899	135,868
9,444	-10,001	284,866	135,204
10,459	-9,987	284,332	134,953
11,473	-9,931	283,817	134,750
12,488	-9,974	283,357	134,478
13,502	-10,071	282,784	134,101
14,517	-9,933	282,295	133,990
15,531	-10,071	281,772	133,597
16,546	-10,154	281,453	133,354
17,561	-10,027	280,943	133,222
18,575	-9,947	280,736	133,189
19,590	-10,064	280,278	132,847
20,604	-10,034	279,987	132,727
21,619	-10,123	279,712	132,499
22,634	-9,992	279,263	132,400
23,648	-10,021	279,107	132,286
24,663	-10,305	278,890	131,901
25,677	-10,164	278,460	131,820
26,692	-10,036	278,139	131,778
27,707	-10,127	277,912	131,573
28,721	-10,051	277,490	131,433
29,736	-10,334	277,538	131,175
30,750	-10,163	277,121	131,128
31,765	-10,096	276,955	131,102
32,780	-10,110	276,612	130,914
33,794	-10,203	276,477	130,751
34,809	-10,147	276,039	130,585
35,823	-10,159	275,893	130,493
36,838	-10,253	275,570	130,240
37,853	-10,044	275,271	130,284
38,867	-10,193	275,075	130,040
39,882	-10,205	274,902	129,934
40,896	-10,305	274,574	129,674
41,911	-10,256	274,371	129,613
42,926	-10,174	274,245	129,619
43,940	-10,150	273,821	129,429
44,955	-10,138	273,614	129,331
45,969	-10,214	273,268	129,085
46,984	-10,295	273,120	128,928
47,999	-10,573	272,885	128,547
49,013	-10,707	272,643	128,297
50,028	-10,607	272,234	128,185
51,042	-10,888	271,958	127,784
52,057	-10,886	271,895	127,745
53,071	-10,797	271,647	127,699
54,086	-10,674	271,558	127,760
55,101	-10,477	271,287	127,803
56,115	-10,442	271,186	127,777
57,130	-10,096	271,057	128,024
58,144	-10,039	270,876	127,979
59,159	-10,086	270,704	127,844
60,174	-9,794	270,354	127,936
61,188	-10,010	270,139	127,624
62,203	-9,912	269,989	127,632
63,217	-10,116	269,758	127,324
64,232	-9,901	269,380	127,331
65,247	-9,974	269,286	127,209
66,261	-10,082	268,951	126,940
67,276	-10,147	268,839	126,817
68,290	-10,266	268,528	126,550
69,305	-10,304	268,242	126,369
70,320	-10,441	268,120	126,175
71,334	-10,034	267,950	126,455
72,349	-10,208	267,755	126,193
73,363	-9,987	267,561	126,291
74,378	-9,746	267,337	126,393
75,393	-9,908	267,112	126,130
76,407	-10,123	266,958	125,850
77,422	-9,999	266,536	125,752
78,436	-9,748	266,325	125,869
79,451	-9,985	266,353	125,656
80,466	-10,111	265,911	125,323
81,480	-10,344	265,774	125,036
82,495	-10,074	265,480	125,131
83,509	-10,267	265,465	124,938
84,524	-9,969	264,957	124,956
85,539	-10,428	264,900	124,505
86,553	-10,290	264,634	124,493
87,568	-10,246	264,550	124,482
88,582	-10,255	264,284	124,337
89,597	-10,137	263,973	124,286
90,611	-10,192	264,102	124,286
91,626	-9,996	263,822	124,319
92,641	-10,001	263,421	124,114
93,655	-10,169	263,383	123,935
94,670	-10,046	263,032	123,869
95,684	-10,111	262,861	123,719
96,699	-10,221	262,718	123,543
97,714	-10,063	262,531	123,585
98,728	-10,179	262,345	123,383
99,743	-10,419	262,095	123,041
100,757	-10,304	261,741	122,965
101,772	-10,178	261,594	122,998
102,787	-10,050	261,356	122,988
103,801	-10,024	261,197	122,925
104,816	-9,995	261,185	122,934
105,830	-10,011	261,091	122,865
106,845	-9,893	260,736	122,791
107,860	-9,955	260,551	122,639
108,874	-9,969	260,325	122,509
109,889	-10,119	260,116	122,267
110,903	-9,963	259,926	122,305
111,918	-9,833	259,701	122,303
112,933	-10,077	259,589	122,024
113,947	-10,042	259,321	121,918
114,962	-10,016	259,163	121,855
115,976	-9,915	259,030	121,871
116,991	-9,915	258,818	121,760
118,006	-10,058	258,594	121,519
119,020	-9,931	258,507	121,578
120,035	-9,944	258,419	121,514
121,049	-9,867	258,117	121,429
122,064	-10,007	257,976	121,229
123,079	-9,908	257,643	121,149
124,093	-9,949	257,553	121,060
125,108	-10,018	257,174	120,811
126,122	-10,276	256,940	120,466
127,137	-10,548	256,883	120,192
128,151	-10,269	256,654	120,316
129,166	-10,291	256,513	120,220
130,181	-10,472	256,368	119,984
131,195	-10,278	256,095	120,014
132,210	-10,241	256,153	120,063
133,224	-9,848	255,737	120,197
134,239	-9,918	255,574	120,049
135,254	-10,006	255,344	119,854
136,268	-10,137	255,085	119,609
137,283	-10,356	255,043	119,390
138,297	-10,350	254,706	119,227
139,312	-10,352	254,429	119,085
140,327	-10,120	254,328	119,226
141,341	-9,983	254,309	119,325
142,356	-10,008	254,135	119,211
143,370	-9,842	253,967	119,263
144,385	-9,764	253,818	119,250
145,400	-9,852	253,616	119,069
146,414	-9,831	253,414	118,981
147,429	-9,853	253,173	118,839
148,443	-9,785	253,176	118,888
149,458	-9,833	252,876	118,696
150,473	-9,707	252,613	118,669
151,487	-9,911	252,431	118,399
152,502	-9,841	252,329	118,400
153,516	-9,749	252,199	118,407
154,531	-9,759	251,939	118,266
155,546	-9,771	251,813	118,186
156,560	-9,670	251,567	118,146
157,575	-9,827	251,259	117,857
158,589	-9,774	251,203	117,865
159,604	-9,783	250,978	117,742
160,619	-9,894	250,761	117,536
161,633	-9,933	250,574	117,405
162,648	-9,916	250,564	117,404
163,662	-9,832	250,318	117,349
164,677	-9,660	250,088	117,376
165,692	-9,746	249,974	117,239
166,706	-9,968	249,840	116,979
167,721	-9,773	249,677	117,056
168,735	-9,835	249,551	116,935
169,750	-9,800	249,448	116,906
170,764	-9,602	249,217	116,953
171,779	-9,772	249,126	116,757
172,794	-9,823	249,046	116,667
173,808	-9,673	248,641	116,592
174,823	-10,112	248,320	116,063
175,837	-10,261	248,186	115,866
176,852	-10,023	248,117	116,022
177,867	-9,779	248,082	116,200
178,881	-9,967	248,016	116,001
179,896	-9,673	247,832	116,151
180,910	-9,617	247,411	115,990
181,925	-9,655	247,317	115,904
182,940	-9,696	247,108	115,761
183,954	-9,654	247,066	115,767
184,969	-9,748	246,946	115,622
185,983	-9,719	246,703	115,521
186,998	-9,967	246,499	115,210
188,013	-9,729	246,434	115,366
189,027	-9,639	246,203	115,322
190,042	-9,795	245,970	115,074
191,056	-9,568	245,787	115,166
192,071	-9,852	245,566	114,818
193,086	-9,806	245,511	114,820
194,100	-9,677	245,328	114,830
195,115	-9,595	245,145	114,802
196,129	-9,708	245,054	114,656
197,144	-9,707	244,623	114,445
198,159	-9,683	244,639	114,462
199,173	-9,682	244,332	114,308
200,188	-9,558	244,173	114,326
201,202	-10,169	244,109	113,784
202,217	-10,217	243,689	113,539
203,232	-10,082	243,430	113,519
204,246	-9,642	243,619	113,957
205,261	-9,278	243,384	114,135
206,275	-9,802	243,104	113,565
207,290	-5,497	245,052	118,009
208,304	1,400	247,083	124,683
209,319	3,729	247,612	126,864
210,334	4,184	247,572	127,208
211,348	4,213	247,380	127,122
212,363	4,457	247,385	127,314
213,377	4,339	247,335	127,180
214,392	4,265	247,092	126,983
215,407	4,214	246,809	126,784
216,421	4,336	246,600	126,766
217,436	4,377	246,570	126,773
218,450	4,616	246,262	126,800
219,465	4,096	246,143	126,300
220,480	4,122	245,813	126,141
221,494	3,891	245,780	125,924
222,509	3,925	245,658	125,878
223,523	3,963	245,386	125,758
224,538	3,700	245,191	125,433
225,553	3,822	245,059	125,454
226,567	3,910	244,880	125,422
227,582	3,805	244,803	125,286
228,596	3,927	244,722	125,332
229,611	3,707	244,470	125,013
230,626	3,562	244,277	124,786
231,640	3,775	244,109	124,862
232,655	3,808	243,988	124,815
233,669	3,679	243,790	124,598
234,684	3,720	243,621	124,535
235,699	3,996	243,402	124,635
236,713	4,037	243,326	124,617
237,728	3,786	243,127	124,301
238,742	3,678	242,913	124,094
239,757	3,837	242,600	124,051
240,772	3,698	242,681	123,970
241,786	3,692	242,570	123,897
242,801	3,674	242,416	123,793
243,815	3,869	242,266	123,862
244,830	3,860	242,157	123,788
245,844	3,922	241,854	123,672
246,859	3,943	241,595	123,546
247,874	3,647	241,566	123,282
248,888	3,884	241,421	123,387
249,903	4,040	241,208	123,392
250,917	4,067	241,130	123,362
251,932	4,221	241,018	123,419
252,947	4,108	240,766	123,188
253,961	3,936	240,637	122,973
254,976	4,048	240,398	122,929
255,990	3,956	240,292	122,791
257,005	3,769	240,219	122,593
258,020	3,600	240,009	122,340
259,034	3,932	240,013	122,596
260,049	3,799	239,759	122,349
261,063	3,616	239,620	122,123
262,078	3,636	239,429	122,030
263,093	4,206	239,130	122,319
264,107	3,782	239,107	121,960
265,122	3,925	238,890	121,952
266,136	3,786	238,893	121,832
267,151	4,120	238,602	121,938
268,166	3,886	238,500	121,689
269,180	3,973	238,307	121,649
270,195	4,197	238,325	121,824
271,209	4,278	238,133	121,779
272,224	3,761	237,939	121,261
273,239	3,726	237,632	121,066
274,253	3,510	237,706	120,923
275,268	3,995	237,422	121,149
276,282	3,901	237,305	121,005
277,297	3,675	237,059	120,691
278,312	3,816	237,041	120,782
279,326	3,947	236,795	120,748
280,341	4,027	236,653	120,728
281,355	4,104	236,330	120,613
282,370	3,828	236,423	120,433
283,384	3,888	236,239	120,376
284,399	3,792	235,985	120,161
285,414	3,717	235,901	120,049
286,428	3,624	235,729	119,878
287,443	3,612	235,578	119,781
288,457	3,929	235,388	119,921
289,472	3,967	235,429	119,961
290,487	3,945	235,087	119,759
291,501	3,665	234,868	119,418
292,516	3,604	234,664	119,257
293,530	3,631	234,648	119,259
294,545	3,805	234,614	119,366
295,560	3,902	234,467	119,356
296,574	3,667	234,151	119,002
297,589	4,014	234,043	119,206
298,603	4,128	233,988	119,256
299,618	4,118	233,894	119,189
300,633	4,037	233,791	119,063
301,647	3,988	233,696	118,966
302,662	4,561	233,573	119,336
303,676	4,148	233,347	118,891
304,691	4,213	233,181	118,846
305,706	4,070	233,101	118,684
306,720	4,049	232,888	118,549
307,735	4,066	232,575	118,392
308,749	3,990	232,548	118,310
309,764	3,702	232,320	117,962
310,779	3,729	232,191	117,906
311,793	3,660	232,081	117,787
312,808	3,702	231,751	117,642
313,822	3,717	231,623	117,577
314,837	3,601	231,654	117,494
315,852	3,771	231,379	117,474
316,866	4,237	231,127	117,691
317,881	3,897	231,114	117,414
318,895	3,993	231,062	117,451
319,910	3,984	230,835	117,318
320,925	3,699	230,721	117,032
321,939	4,179	230,541	117,297
322,954	4,219	230,642	117,368
323,968	4,137	230,216	117,078
324,983	3,749	230,077	116,702
325,997	3,872	230,048	116,771
327,012	3,716	229,910	116,572
328,027	4,077	229,744	116,751
329,041	4,460	229,700	117,009
330,056	4,656	229,658	117,125
331,070	4,404	229,535	116,861
332,085	4,142	229,130	116,446
333,100	3,839	229,024	116,154
334,114	4,206	228,732	116,272
335,129	4,254	228,870	116,367
336,143	4,480	228,633	116,407
337,158	4,237	228,567	116,180
338,173	4,189	228,286	115,991
339,187	3,856	228,212	115,692
340,202	4,299	227,966	115,890
341,216	4,039	227,865	115,633
342,231	4,025	227,726	115,542
343,246	4,016	227,573	115,447
344,260	4,228	227,518	115,568
345,275	4,256	227,370	115,503
346,289	4,355	227,225	115,494
347,304	4,125	227,017	115,206
348,319	4,143	226,786	115,092
349,333	4,204	226,657	115,062
350,348	4,039	226,539	114,868
351,362	3,950	226,400	114,721
352,377	3,611	226,108	114,310
353,392	3,540	225,929	114,157
354,406	3,674	225,905	114,234
355,421	195,199	1322,212	1397,633
356,435	156,452	1455,769	1397,642
