DTS Sentinel unit serial number:	SN410029Multiplexer serial number:	ORYXHardware model number:	OX2-SRSoftware version number:	ORYX F/W v4,00 Oryx Data Collector v3.7.2.0data status	okinstallation	B5 Nyhavnadifferential loss correction	single-endedforward channel	channel 2reverse channel	N/Adate	2023/12/12time	13:12:13forward acquisition time	300,00reverse acquisition time	0,00gamma	499,1914k internal	0,3158k external	0,3158temperature offset calibration	1,0000default loss term (dB/km)	0,3820temperature slope calibration	1,0000multiplexer offset coefficient	1,0000multiplexer slope coefficient	1,0000fibre end	0,00T internal ref (°C)	15,54T ext. ref 1 (°C)	-0,40T ext. ref 2 (°C)	-0,65length (m)	temperature (°C)	Stokes	anti-Stokes-744,400	-20,412	-0,051	-0,023
-743,385	-72,213	-0,248	0,067
-742,371	166,226	0,067	0,070
-741,356	-128,078	-0,205	-0,021
-740,342	-61,058	0,317	0,098
-739,327	-56,691	-0,169	-0,055
-738,312	-200,000	-0,008	0,043
-737,298	46,551	-0,201	-0,137
-736,283	800,000	0,015	0,046
-735,269	14,524	-0,257	0,147
-734,254	-200,000	0,014	0,066
-733,239	-74,918	-0,551	-0,145
-732,225	-18,113	0,163	0,075
-731,210	167,892	0,099	0,104
-730,196	-200,000	0,011	-0,170
-729,181	539,135	0,044	0,078
-728,167	800,000	-0,024	-0,064
-727,152	-200,000	-0,011	-0,045
-726,137	800,000	-0,036	-0,103
-725,123	-41,978	-0,162	-0,061
-724,108	99,661	-0,258	-0,220
-723,094	-55,218	0,028	-0,009
-722,079	165,836	0,084	-0,088
-721,064	-200,000	0,037	-0,249
-720,050	-200,000	0,004	0,077
-719,035	-15,977	0,137	0,064
-718,021	157,304	0,037	0,038
-717,006	446,466	-0,083	-0,135
-715,991	-73,548	-0,155	-0,041
-714,977	79,406	-0,027	-0,021
-713,962	-200,000	-0,018	0,123
-712,948	48,894	-0,069	0,048
-711,933	286,446	0,025	0,033
-710,918	49,294	-0,101	-0,070
-709,904	71,251	-0,138	-0,105
-708,889	172,535	0,038	-0,040
-707,875	-13,387	-0,049	-0,023
-706,860	800,000	-0,053	-0,130
-705,845	-48,069	-0,077	-0,027
-704,831	-20,968	0,149	0,067
-703,816	-200,000	-0,009	-0,123
-702,802	-200,000	-0,166	0,000
-701,787	-35,025	-0,081	-0,032
-700,772	170,072	-0,095	-0,100
-699,758	800,000	0,020	0,046
-698,743	-133,913	0,154	-0,014
-697,729	11,881	0,037	0,021
-696,714	199,550	0,026	0,030
-695,699	-48,622	-0,129	-0,045
-694,685	22,431	-0,084	-0,050
-693,670	-41,648	-0,149	-0,056
-692,656	259,827	-0,044	-0,056
-691,641	185,480	0,017	0,019
-690,627	128,622	0,056	0,052
-689,612	122,892	0,111	-0,102
-688,597	-69,502	-0,114	-0,032
-687,583	-200,000	0,002	-0,098
-686,568	99,611	0,075	0,064
-685,554	-84,747	-0,148	0,034
-684,539	231,138	0,059	-0,071
-683,524	-187,130	0,123	0,001
-682,510	800,000	-0,008	-0,021
-681,495	-119,512	-0,070	0,009
-680,481	36,267	0,077	0,050
-679,466	212,847	-0,100	-0,117
-678,451	316,214	-0,004	-0,006
-677,437	-36,777	-0,115	0,045
-676,422	-97,429	0,138	0,026
-675,408	-108,272	-0,211	-0,033
-674,393	159,401	-0,028	-0,028
-673,378	90,682	0,103	-0,085
-672,364	-126,075	-0,141	-0,015
-671,349	189,549	0,027	-0,029
-670,335	110,139	-0,060	0,053
-669,320	-200,000	0,015	0,121
-668,305	800,000	-0,029	0,081
-667,291	612,955	0,051	0,095
-666,276	417,796	-0,046	0,073
-665,262	316,207	-0,054	-0,075
-664,247	599,534	0,034	-0,063
-663,232	14,037	-0,075	0,043
-662,218	-33,874	-0,128	-0,051
-661,203	-81,678	-0,038	0,009
-660,189	26,338	-0,113	-0,069
-659,174	-138,126	-0,041	-0,003
-658,159	135,189	-0,047	0,045
-657,145	-142,402	-0,082	-0,006
-656,130	-45,538	0,087	-0,031
-655,116	707,132	0,050	0,098
-654,101	-200,000	0,001	0,028
-653,086	-200,000	-0,017	-0,082
-652,072	800,000	-0,024	-0,053
-651,057	-11,414	-0,188	-0,091
-650,043	-200,000	0,025	-0,102
-649,028	-200,000	-0,005	0,030
-648,014	-96,030	0,030	-0,006
-646,999	-185,768	0,132	0,001
-645,984	186,327	0,068	-0,074
-644,970	-76,846	-0,096	-0,024
-643,955	138,595	-0,036	-0,035
-642,941	491,484	-0,049	-0,083
-641,926	5,364	-0,079	0,043
-640,911	800,000	0,123	-0,253
-639,897	800,000	0,051	-0,112
-638,882	145,256	-0,043	0,042
-637,868	50,411	-0,113	-0,078
-636,853	800,000	-0,012	-0,033
-635,838	800,000	-0,035	0,114
-634,824	-200,000	0,020	0,137
-633,809	-58,153	-0,017	-0,006
-632,795	37,940	-0,064	0,041
-631,780	800,000	0,043	0,137
-630,765	169,114	-0,032	-0,033
-629,751	335,090	-0,072	-0,103
-628,736	447,243	-0,092	-0,150
-627,722	-49,990	-0,108	0,037
-626,707	800,000	-0,030	0,080
-625,692	-28,125	-0,028	0,012
-624,678	109,533	-0,035	0,031
-623,663	-58,031	0,060	-0,019
-622,649	-200,000	-0,001	-0,045
-621,634	800,000	0,053	-0,130
-620,619	29,290	0,061	-0,038
-619,605	-200,000	-0,007	0,152
-618,590	-146,455	0,011	0,001
-617,576	800,000	0,032	0,080
-616,561	-200,000	-0,013	-0,082
-615,546	-88,255	0,154	0,033
-614,532	-106,821	-0,114	-0,018
-613,517	800,000	-0,016	0,039
-612,503	154,008	-0,006	0,006
-611,488	-200,000	0,027	0,112
-610,474	-42,715	-0,032	0,012
-609,459	254,871	0,019	0,024
-608,444	-172,698	0,039	0,001
-607,430	66,977	0,069	0,051
-606,415	-82,712	0,040	-0,009
-605,401	-200,000	-0,001	0,039
-604,386	221,086	0,065	-0,077
-603,371	-116,553	-0,094	0,013
-602,357	800,000	0,020	-0,051
-601,342	37,782	-0,026	0,017
-600,328	-130,636	0,041	-0,004
-599,313	-200,000	-0,000	-0,016
-598,298	137,545	-0,129	-0,124
-597,284	-121,095	0,135	0,016
-596,269	-79,660	-0,104	0,025
-595,255	-79,629	-0,076	0,019
-594,240	-200,000	0,008	0,077
-593,225	-200,000	-0,007	-0,037
-592,211	800,000	0,015	0,045
-591,196	341,904	-0,064	-0,091
-590,182	-200,000	0,001	-0,030
-589,167	307,877	-0,016	-0,022
-588,152	604,865	0,041	0,076
-587,138	657,100	0,032	-0,061
-586,123	157,866	0,085	-0,086
-585,109	43,507	-0,071	0,048
-584,094	-200,000	-0,022	0,076
-583,079	-73,721	-0,191	0,051
-582,065	800,000	0,021	0,060
-581,050	327,384	0,007	0,009
-580,036	-200,000	0,002	-0,187
-579,021	68,726	0,059	-0,044
-578,006	-129,891	0,080	0,008
-576,992	-83,276	-0,018	-0,004
-575,977	-200,000	-0,022	0,121
-574,963	163,844	0,096	-0,099
-573,948	-108,563	-0,061	0,010
-572,934	800,000	-0,032	-0,065
-571,919	156,085	-0,113	-0,114
-570,904	87,553	-0,075	0,061
-569,890	-200,000	0,030	-0,113
-568,875	800,000	0,009	-0,029
-567,861	-86,606	-0,161	-0,036
-566,846	-17,896	0,088	0,040
-565,831	-113,774	-0,142	0,020
-564,817	-200,000	0,003	0,121
-563,802	74,723	-0,155	-0,119
-562,788	-200,000	0,015	-0,071
-561,773	280,896	-0,030	-0,040
-560,758	245,476	-0,094	0,116
-559,744	115,226	0,080	0,072
-558,729	58,586	-0,123	-0,088
-557,715	-29,139	-0,110	-0,046
-556,700	-4,301	-0,061	-0,031
-555,685	800,000	-0,049	-0,138
-554,671	-200,000	-0,033	-0,107
-553,656	-200,000	-0,022	0,074
-552,642	195,079	0,091	0,101
-551,627	148,025	0,062	0,061
-550,612	55,567	-0,129	0,092
-549,598	-200,000	0,041	-0,158
-548,583	-200,000	0,015	-0,109
-547,569	294,237	0,065	0,087
-546,554	-128,943	-0,235	0,024
-545,539	-55,401	0,075	-0,024
-544,525	54,573	0,111	-0,078
-543,510	-34,998	-0,175	0,070
-542,496	-200,000	-0,005	-0,041
-541,481	7,063	0,062	0,033
-540,466	-53,558	0,119	0,040
-539,452	233,577	0,011	0,014
-538,437	-40,970	0,042	0,016
-537,423	43,176	0,115	-0,077
-536,408	-12,586	0,086	0,041
-535,393	153,365	0,054	0,054
-534,379	-200,000	-0,016	-0,097
-533,364	695,281	0,014	-0,028
-532,350	-200,000	0,017	-0,064
-531,335	800,000	-0,061	0,133
-530,321	300,033	-0,020	0,027
-529,306	-89,979	-0,144	0,030
-528,291	500,834	0,047	0,079
-527,277	-152,804	-0,004	-0,000
-526,262	-200,000	-0,005	-0,065
-525,248	149,775	-0,099	-0,098
-524,233	0,001	0,135	0,070
-523,218	648,860	-0,053	0,099
-522,204	-200,000	0,004	-0,172
-521,189	-91,657	-0,135	-0,028
-520,175	519,857	-0,063	-0,108
-519,160	800,000	-0,035	-0,100
-518,145	130,189	-0,013	-0,012
-517,131	2,657	-0,013	-0,007
-516,116	97,041	0,111	-0,093
-515,102	-32,363	0,089	0,036
-514,087	170,242	0,054	-0,057
-513,072	109,135	-0,063	-0,055
-512,058	44,544	-0,095	-0,063
-511,043	-117,668	0,052	-0,007
-510,029	-200,000	-0,006	0,054
-509,014	-200,000	-0,014	0,051
-507,999	-125,766	0,168	0,018
-506,985	-108,775	-0,126	-0,020
-505,970	202,546	-0,016	0,019
-504,956	-200,000	0,002	0,016
-503,941	800,000	0,015	-0,049
-502,926	758,029	-0,079	0,158
-501,912	94,701	-0,056	-0,047
-500,897	-200,000	-0,004	-0,086
-499,883	230,565	0,038	0,045
-498,868	510,617	0,045	-0,077
-497,853	119,811	0,053	-0,048
-496,839	-103,236	0,122	-0,021
-495,824	-143,166	0,046	0,003
-494,810	-200,000	0,007	0,176
-493,795	800,000	-0,047	-0,137
-492,781	-200,000	0,002	-0,048
-491,766	378,760	0,056	-0,084
-490,751	-60,349	-0,037	-0,011
-489,737	-169,308	0,095	-0,003
-488,722	800,000	-0,039	-0,127
-487,708	-200,000	-0,037	-0,132
-486,693	30,876	0,168	0,105
-485,678	83,045	-0,009	0,007
-484,664	-20,725	-0,177	-0,079
-483,649	155,411	0,018	0,018
-482,635	377,801	-0,063	0,095
-481,620	-167,053	0,116	-0,003
-480,605	800,000	-0,039	0,113
-479,591	-88,666	0,089	0,019
-478,576	382,987	0,059	-0,089
-477,562	621,267	0,041	-0,076
-476,547	-200,000	0,019	-0,097
-475,532	165,779	-0,066	-0,068
-474,518	53,597	0,087	0,060
-473,503	-150,760	0,128	0,007
-472,489	-55,399	0,036	0,012
-471,474	-42,393	0,080	0,030
-470,459	-200,000	0,001	0,010
-469,445	800,000	0,019	0,040
-468,430	18,705	-0,078	0,046
-467,416	800,000	0,066	-0,142
-466,401	-78,386	0,100	0,025
-465,386	381,854	0,038	0,056
-464,372	397,289	0,031	-0,048
-463,357	800,000	0,028	-0,060
-462,343	-143,124	0,091	0,006
-461,328	568,722	0,036	-0,063
-460,313	433,471	-0,038	0,060
-459,299	800,000	0,036	0,102
-458,284	319,877	0,097	0,135
-457,270	154,850	-0,044	-0,044
-456,255	-113,071	-0,082	-0,012
-455,241	-50,072	-0,036	0,013
-454,226	800,000	-0,049	0,112
-453,211	-118,715	0,060	-0,008
-452,197	-189,471	0,119	0,001
-451,182	800,000	-0,013	0,035
-450,168	-200,000	-0,025	-0,148
-449,153	-200,000	-0,006	-0,026
-448,138	160,880	-0,025	0,026
-447,124	-141,631	-0,077	0,006
-446,109	-75,596	0,100	0,026
-445,095	-200,000	0,013	0,107
-444,080	29,889	-0,079	0,049
-443,065	47,253	-0,041	0,028
-442,051	58,778	-0,092	-0,066
-441,036	66,411	-0,104	0,077
-440,022	53,973	-0,081	0,057
-439,007	88,157	0,089	-0,072
-437,992	-19,664	-0,059	-0,027
-436,978	154,884	-0,035	0,035
-435,963	-28,191	0,049	0,020
-434,949	44,253	-0,065	0,043
-433,934	75,174	-0,129	-0,099
-432,919	-196,667	-0,087	0,000
-431,905	-200,000	0,000	-0,173
-430,890	-161,379	-0,055	0,002
-429,876	-200,000	0,022	0,080
-428,861	296,389	-0,051	-0,069
-427,846	-200,000	0,027	0,121
-426,832	374,789	-0,067	-0,100
-425,817	-200,000	0,017	-0,179
-424,803	28,018	-0,035	0,021
-423,788	-26,761	0,145	0,061
-422,773	-200,000	0,014	-0,105
-421,759	-200,000	-0,014	0,068
-420,744	-174,039	0,146	-0,003
-419,730	-17,710	-0,020	0,009
-418,715	-200,000	0,005	-0,035
-417,701	-200,000	-0,021	0,108
-416,686	61,271	-0,067	-0,048
-415,671	800,000	-0,013	0,037
-414,657	-200,000	0,030	0,128
-413,642	158,153	-0,090	0,091
-412,628	-84,562	0,129	0,029
-411,613	60,821	0,085	-0,061
-410,598	-200,000	0,006	-0,021
-409,584	208,809	0,098	0,112
-408,569	55,096	-0,151	0,106
-407,555	22,152	0,048	-0,028
-406,540	-200,000	0,018	0,092
-405,525	-200,000	0,021	-0,072
-404,511	32,734	-0,057	-0,036
-403,496	800,000	0,034	0,101
-402,482	143,827	0,058	0,057
-401,467	105,474	0,078	0,067
-400,452	-200,000	0,005	0,017
-399,438	35,294	-0,049	0,031
-398,423	-200,000	0,061	0,200
-397,409	447,706	-0,062	-0,100
-396,394	-200,000	-0,008	-0,111
-395,379	328,332	0,054	0,075
-394,365	-144,947	0,150	0,010
-393,350	261,671	0,071	0,090
-392,336	-5,396	-0,084	-0,042
-391,321	-44,959	0,019	0,007
-390,306	800,000	-0,050	0,135
-389,292	-200,000	-0,018	-0,067
-388,277	190,582	0,043	-0,047
-387,263	15,661	0,164	0,094
-386,248	-200,000	-0,010	-0,063
-385,233	-127,038	0,046	0,005
-384,219	-118,080	0,060	-0,008
-383,204	157,958	-0,080	-0,081
-382,190	-94,726	-0,016	0,003
-381,175	235,543	0,052	0,063
-380,160	-200,000	-0,004	0,127
-379,146	800,000	0,030	0,094
-378,131	-200,000	-0,042	0,143
-377,117	-200,000	-0,007	-0,128
-376,102	800,000	0,035	-0,104
-375,088	176,589	0,035	0,037
-374,073	110,210	-0,121	-0,106
-373,058	-120,229	0,070	0,009
-372,044	-14,764	0,074	0,034
-371,029	-9,456	-0,035	-0,017
-370,015	-45,056	-0,082	-0,029
-369,000	162,110	0,021	-0,021
-367,985	-200,000	0,022	0,088
-366,971	147,451	0,052	0,051
-365,956	-128,716	0,170	0,017
-364,942	95,240	-0,043	-0,036
-363,927	-200,000	-0,002	-0,034
-362,912	97,096	-0,093	-0,077
-361,898	780,312	0,050	-0,100
-360,883	-12,259	0,079	0,037
-359,869	-200,000	-0,008	0,027
-358,854	129,501	0,097	-0,090
-357,839	-1,157	0,179	0,092
-356,825	544,255	-0,047	0,082
-355,810	86,694	0,090	0,072
-354,796	707,624	-0,028	-0,053
-353,781	-200,000	-0,022	-0,103
-352,766	118,027	0,087	0,078
-351,752	-200,000	-0,049	0,199
-350,737	-91,270	0,104	-0,021
-349,723	592,216	-0,063	-0,113
-348,708	-200,000	-0,006	0,028
-347,693	-200,000	-0,045	0,147
-346,679	-137,670	0,024	0,002
-345,664	99,624	0,005	-0,004
-344,650	800,000	0,017	0,044
-343,635	-200,000	-0,017	0,080
-342,620	2,582	0,123	0,064
-341,606	685,523	-0,029	-0,056
-340,591	-73,124	0,124	-0,033
-339,577	-200,000	0,014	-0,048
-338,562	-106,100	-0,104	-0,017
-337,548	58,701	0,121	0,086
-336,533	-41,309	-0,046	0,017
-335,518	270,082	0,122	-0,156
-334,504	-69,136	-0,131	-0,036
-333,489	800,000	0,003	0,008
-332,475	309,731	-0,098	-0,133
-331,460	11,672	-0,046	-0,026
-330,445	292,784	-0,032	0,042
-329,431	-112,020	0,006	-0,001
-328,416	87,908	0,097	0,078
-327,402	-74,967	0,007	-0,002
-326,387	-148,682	0,052	-0,003
-325,372	-60,177	-0,150	-0,046
-324,358	-149,991	-0,057	0,003
-323,343	317,135	0,064	-0,088
-322,329	-88,398	0,070	-0,015
-321,314	-48,503	0,076	-0,026
-320,299	341,809	0,033	-0,047
-319,285	-136,040	0,047	0,004
-318,270	-200,000	-0,025	-0,108
-317,256	-200,000	0,019	-0,087
-316,241	800,000	0,039	0,081
-315,226	-3,959	0,176	0,088
-314,212	177,825	-0,104	-0,110
-313,197	-25,087	-0,020	0,009
-312,183	-78,213	0,115	0,028
-311,168	72,043	-0,041	-0,031
-310,153	477,272	-0,042	0,068
-309,139	-84,973	0,056	0,013
-308,124	16,359	0,055	-0,032
-307,110	130,778	-0,112	-0,104
-306,095	-101,928	0,078	-0,013
-305,080	800,000	-0,045	-0,114
-304,066	60,879	0,020	-0,015
-303,051	-140,172	-0,077	-0,006
-302,037	201,311	-0,036	-0,040
-301,022	800,000	-0,012	-0,026
-300,008	-14,750	0,038	0,018
-298,993	62,082	0,038	0,027
-297,978	-200,000	0,011	-0,098
-296,964	51,434	0,094	0,065
-295,949	-200,000	-0,032	-0,103
-294,935	-85,473	0,094	0,021
-293,920	-200,000	-0,015	0,113
-292,905	593,977	0,084	-0,152
-291,891	123,315	-0,018	0,017
-290,876	-27,439	-0,103	0,043
-289,862	60,564	-0,029	0,021
-288,847	-64,145	-0,133	0,039
-287,832	-200,000	0,018	-0,143
-286,818	-200,000	0,032	0,104
-285,803	-34,642	0,057	-0,023
-284,789	559,170	0,061	-0,107
-283,774	-200,000	-0,002	-0,038
-282,759	-61,945	0,042	0,013
-281,745	800,000	0,013	-0,037
-280,730	-97,334	0,140	0,026
-279,716	274,976	-0,030	0,039
-278,701	-167,953	0,071	-0,002
-277,686	321,879	-0,069	0,096
-276,672	-6,442	0,056	-0,027
-275,657	-200,000	0,023	0,160
-274,643	-142,640	0,028	0,002
-273,628	-38,613	-0,127	-0,048
-272,613	25,189	-0,139	-0,083
-271,599	-200,000	0,036	0,148
-270,584	-100,589	0,036	0,006
-269,570	23,982	0,107	0,064
-268,555	98,209	-0,086	0,072
-267,540	7,461	0,058	-0,031
-266,526	8,380	-0,117	0,064
-265,511	-0,084	-0,076	-0,039
-264,497	-51,662	0,030	-0,010
-263,482	691,133	0,027	0,052
-262,467	105,415	0,029	0,025
-261,453	-13,930	0,026	-0,012
-260,438	-200,000	0,004	0,064
-259,424	536,085	-0,067	0,116
-258,409	277,372	0,129	-0,166
-257,395	800,000	-0,037	-0,077
-256,380	414,101	-0,045	0,069
-255,365	-102,022	-0,033	0,006
-254,351	-145,533	-0,254	-0,016
-253,336	-200,000	-0,006	-0,130
-252,322	-49,513	-0,087	-0,030
-251,307	39,512	-0,087	-0,056
-250,292	407,249	0,034	-0,052
-249,278	641,569	-0,015	0,027
-248,263	143,459	-0,083	0,080
-247,249	800,000	0,085	-0,199
-246,234	-200,000	-0,021	-0,137
-245,219	20,597	0,028	-0,016
-244,205	-200,000	-0,008	0,036
-243,190	-147,464	0,024	0,001
-242,176	-200,000	-0,004	0,095
-241,161	606,908	0,043	0,079
-240,146	167,533	0,007	0,007
-239,132	-101,847	-0,075	0,013
-238,117	116,797	-0,086	0,076
-237,103	18,665	-0,069	-0,040
-236,088	30,612	0,009	-0,006
-235,073	-88,249	0,035	0,007
-234,059	-200,000	-0,020	0,139
-233,044	-62,364	-0,072	0,022
-232,030	-101,172	-0,061	0,011
-231,015	210,203	0,058	-0,066
-230,000	-59,495	-0,075	0,023
-228,986	800,000	-0,026	0,080
-227,971	-85,721	0,013	0,003
-226,957	-73,235	0,052	-0,014
-225,942	50,673	-0,041	-0,028
-224,927	546,030	0,049	-0,084
-223,913	64,132	-0,093	0,067
-222,898	179,599	-0,030	0,032
-221,884	484,247	-0,046	0,076
-220,869	-49,762	-0,030	0,010
-219,855	-119,637	0,006	0,001
-218,840	196,030	0,083	-0,092
-217,825	93,465	0,062	-0,051
-216,811	-200,000	-0,017	-0,161
-215,796	800,000	0,028	0,071
-214,782	-200,000	0,024	0,084
-213,767	-39,672	0,087	0,033
-212,752	-200,000	-0,026	0,150
-211,738	-200,000	-0,026	0,132
-210,723	77,171	0,065	-0,050
-209,709	-87,306	-0,080	-0,017
-208,694	-46,348	-0,140	-0,049
-207,679	800,000	-0,012	0,029
-206,665	-131,608	0,071	-0,007
-205,650	-81,081	0,010	0,002
-204,636	82,870	-0,035	0,027
-203,621	-84,913	-0,084	0,019
-202,606	-161,391	0,126	-0,005
-201,592	-200,000	0,018	-0,202
-200,577	24,264	0,157	-0,094
-199,563	309,690	-0,028	-0,037
-198,548	422,022	0,019	0,030
-197,533	77,376	-0,095	0,073
-196,519	-7,610	-0,104	0,051
-195,504	-72,829	0,206	-0,054
-194,490	-87,213	0,176	-0,038
-193,475	-125,404	-0,053	0,006
-192,460	258,341	0,040	0,050
-191,446	-98,831	0,052	0,009
-190,431	5,865	-0,058	0,031
-189,417	-59,009	-0,201	0,062
-188,402	61,201	-0,023	0,017
-187,387	-72,551	-0,134	0,036
-186,373	-200,000	-0,026	-0,088
-185,358	81,540	-0,081	-0,063
-184,344	289,006	0,111	0,146
-183,329	-100,730	-0,066	0,012
-182,315	-128,347	-0,131	0,013
-181,300	800,000	-0,055	0,157
-180,285	117,262	-0,056	0,049
-179,271	800,000	-0,058	-0,116
-178,256	-200,000	-0,032	0,141
-177,242	69,190	0,040	-0,030
-176,227	118,851	-0,091	0,081
-175,212	188,585	0,046	0,049
-174,198	-46,845	0,216	0,076
-173,183	-22,532	-0,112	0,049
-172,169	800,000	0,018	-0,039
-171,154	-37,711	0,061	0,023
-170,139	324,700	0,043	-0,059
-169,125	-200,000	0,002	-0,016
-168,110	499,383	-0,084	-0,140
-167,096	127,515	-0,016	0,014
-166,081	-200,000	0,005	-0,031
-165,066	361,255	-0,045	-0,066
-164,052	-178,276	0,032	-0,001
-163,037	135,937	0,075	0,070
-162,023	-200,000	0,003	0,100
-161,008	-200,000	0,019	0,130
-159,993	276,465	-0,072	0,092
-158,979	-188,115	-0,094	0,001
-157,964	636,895	-0,040	-0,074
-156,950	-67,354	0,088	-0,025
-155,935	-200,000	-0,009	0,137
-154,920	-67,040	0,079	0,022
-153,906	578,919	-0,045	0,079
-152,891	206,898	0,019	0,021
-151,877	189,444	-0,041	-0,045
-150,862	394,629	-0,054	-0,081
-149,847	395,369	-0,056	-0,084
-148,833	800,000	-0,018	-0,052
-147,818	-200,000	-0,008	0,029
-146,804	-200,000	-0,057	0,187
-145,789	268,361	0,017	0,021
-144,775	-133,628	-0,055	-0,005
-143,760	-138,308	-0,058	-0,005
-142,745	-126,501	0,086	-0,009
-141,731	800,000	-0,028	0,087
-140,716	29,678	-0,106	-0,065
-139,702	800,000	0,039	0,087
-138,687	517,875	0,022	0,037
-137,672	-103,575	-0,107	-0,018
-136,658	800,000	0,017	-0,053
-135,643	-200,000	0,001	-0,055
-134,629	39,551	-0,033	-0,021
-133,614	-28,704	0,099	-0,041
-132,599	9,835	0,058	-0,031
-131,585	71,139	0,105	0,079
-130,570	-140,492	0,092	0,007
-129,556	44,201	-0,023	-0,015
-128,541	-162,530	-0,193	-0,007
-127,526	-14,854	0,126	0,058
-126,512	44,359	0,043	0,028
-125,497	-200,000	-0,005	0,031
-124,483	489,044	0,052	0,085
-123,468	-135,536	-0,046	-0,004
-122,453	24,747	-0,118	-0,070
-121,439	-64,164	-0,113	0,033
-120,424	-200,000	-0,010	0,124
-119,410	-53,248	-0,093	0,031
-118,395	241,978	0,096	0,115
-117,380	-77,649	-0,069	-0,017
-116,366	171,995	-0,081	-0,084
-115,351	-200,000	-0,019	0,066
-114,337	-28,239	-0,034	0,014
-113,322	51,859	-0,102	0,069
-112,307	-200,000	-0,001	-0,161
-111,293	-200,000	0,025	0,123
-110,278	-63,513	-0,030	-0,009
-109,264	-200,000	0,005	-0,105
-108,249	-195,643	-0,047	-0,000
-107,234	800,000	0,037	-0,075
-106,220	37,720	-0,078	-0,050
-105,205	178,457	0,133	0,139
-104,191	800,000	0,054	0,111
-103,176	57,919	-0,059	-0,041
-102,162	446,629	0,021	-0,033
-101,147	-200,000	0,030	0,112
-100,132	250,511	0,062	-0,076
-99,118	259,816	0,026	0,033
-98,103	99,966	0,042	-0,035
-97,089	110,911	0,099	-0,086
-96,074	249,250	-0,032	0,039
-95,059	131,252	0,071	-0,066
-94,045	539,896	-0,054	-0,093
-93,030	-112,809	0,064	0,009
-92,016	218,543	-0,040	-0,046
-91,001	800,000	0,051	0,135
-89,986	3,686	0,136	-0,071
-88,972	-167,764	0,093	-0,003
-87,957	337,455	-0,054	0,075
-86,943	85,040	0,103	0,081
-85,928	-4,778	0,117	0,058
-84,913	800,000	-0,050	0,135
-83,899	149,870	-0,012	-0,012
-82,884	-146,591	0,121	-0,007
-81,870	-200,000	-0,006	-0,039
-80,855	-35,838	0,082	-0,032
-79,840	448,176	-0,097	-0,155
-78,826	-106,141	-0,163	-0,026
-77,811	300,224	0,046	-0,060
-76,797	-25,110	0,045	0,019
-75,782	-77,575	-0,038	-0,009
-74,767	-200,000	0,002	-0,012
-73,753	800,000	-0,070	0,174
-72,738	-56,040	-0,143	-0,045
-71,724	-88,285	0,109	0,023
-70,709	-200,000	-0,013	-0,089
-69,694	-200,000	0,021	-0,126
-68,680	-14,560	0,154	0,071
-67,665	494,659	-0,064	0,106
-66,651	-200,000	0,007	0,047
-65,636	-46,772	0,037	0,013
-64,622	-22,643	-0,073	-0,032
-63,607	800,000	-0,035	0,071
-62,592	-200,000	0,119	0,000
-61,578	352,718	-0,042	0,059
-60,563	-59,025	0,110	0,034
-59,549	717,586	0,036	0,068
-58,534	-22,459	-2,060	-0,891
-57,519	-200,000	-0,198	-0,939
-56,505	-200,000	-1,249	-4,870
-55,490	-14,697	0,784	0,360
-54,476	800,000	5,396	11,991
-53,461	-200,000	17,371	284,021
-52,446	800,000	725,193	2218,923
-51,432	537,989	1641,192	2810,001
-50,417	110,551	1632,209	1407,880
-49,403	74,996	1285,947	971,166
-48,388	32,104	1027,928	634,622
-47,373	20,130	989,571	571,462
-46,359	18,575	977,595	559,424
-45,344	15,854	973,473	548,139
-44,330	16,030	972,081	547,911
-43,315	15,617	970,297	545,534
-42,300	15,568	969,285	544,783
-41,286	15,546	968,227	544,096
-40,271	15,591	966,943	543,500
-39,257	15,613	966,118	543,085
-38,242	15,619	965,369	542,664
-37,227	15,647	964,605	542,302
-36,213	15,565	963,815	541,571
-35,198	15,567	962,887	541,035
-34,184	15,628	962,054	540,742
-33,169	15,590	961,073	540,047
-32,154	15,615	960,114	539,569
-31,140	15,562	959,430	538,992
-30,125	15,602	958,733	538,708
-29,111	15,629	957,784	538,240
-28,096	15,578	957,343	537,806
-27,082	15,657	956,338	537,475
-26,067	15,550	955,801	536,806
-25,052	15,547	954,953	536,300
-24,038	15,570	954,194	535,925
-23,023	15,569	953,637	535,590
-22,009	15,531	953,133	535,161
-20,994	15,511	952,619	534,788
-19,979	15,591	951,781	534,554
-18,965	15,587	951,278	534,238
-17,950	15,574	950,548	533,762
-16,936	15,509	950,001	533,229
-15,921	15,466	949,397	532,732
-14,906	15,491	948,405	532,233
-13,892	15,436	947,919	531,762
-12,877	15,476	947,215	531,475
-11,863	15,437	946,585	530,976
-10,848	15,534	946,059	530,969
-9,833	15,532	945,705	530,742
-8,819	15,501	945,072	530,268
-7,804	15,453	944,428	529,733
-6,790	15,440	943,748	529,288
-5,775	15,454	943,190	528,999
-4,760	15,453	942,659	528,676
-3,746	15,470	941,959	528,318
-2,731	15,321	941,291	527,451
-1,717	15,255	940,676	526,875
-0,702	15,317	939,886	526,609
0,313	15,124	939,308	526,469
1,327	18,292	937,023	535,121
2,342	27,129	794,704	477,266
3,356	23,972	459,293	270,978
4,371	-2,784	314,388	157,059
5,386	-6,619	296,191	144,077
6,400	-8,618	290,234	139,183
7,415	-9,058	287,792	137,566
8,429	-9,383	286,330	136,536
9,444	-9,330	285,327	136,097
10,459	-9,387	284,732	135,746
11,473	-9,480	284,160	135,371
12,488	-9,416	283,637	135,172
13,502	-9,338	283,155	135,006
14,517	-9,503	282,659	134,598
15,531	-9,458	282,108	134,367
16,546	-9,476	281,696	134,141
17,561	-9,627	281,356	133,822
18,575	-9,529	281,132	133,798
19,590	-9,639	280,615	133,434
20,604	-9,592	280,486	133,406
21,619	-9,595	279,981	133,151
22,634	-9,616	279,791	133,030
23,648	-9,653	279,341	132,768
24,663	-9,533	279,064	132,739
25,677	-9,611	278,907	132,578
26,692	-9,525	278,574	132,489
27,707	-9,482	278,435	132,453
28,721	-9,540	278,120	132,236
29,736	-9,633	277,647	131,911
30,750	-9,573	277,511	131,891
31,765	-9,536	277,304	131,816
32,780	-9,667	277,184	131,624
33,794	-9,647	276,812	131,454
34,809	-9,708	276,531	131,251
35,823	-9,624	276,246	131,184
36,838	-9,635	275,931	131,012
37,853	-9,552	275,634	130,937
38,867	-9,768	275,599	130,706
39,882	-9,695	275,279	130,611
40,896	-9,752	275,346	130,578
41,911	-9,731	274,775	130,315
42,926	-9,569	274,596	130,370
43,940	-9,690	274,395	130,150
44,955	-9,701	274,123	129,999
45,969	-9,725	273,888	129,854
46,984	-9,912	273,629	129,545
47,999	-10,007	273,279	129,279
49,013	-10,077	273,018	129,078
50,028	-10,419	272,839	128,664
51,042	-10,316	272,455	128,568
52,057	-10,553	272,389	128,305
53,071	-10,291	272,084	128,393
54,086	-10,311	271,924	128,287
55,101	-10,073	271,774	128,425
56,115	-10,032	271,702	128,417
57,130	-9,422	271,498	128,874
58,144	-9,319	271,380	128,903
59,159	-9,604	271,069	128,479
60,174	-9,479	270,806	128,459
61,188	-9,543	270,706	128,341
62,203	-9,459	270,514	128,315
63,217	-9,491	270,338	128,192
64,232	-9,383	269,818	128,033
65,247	-9,351	269,744	128,016
66,261	-9,495	269,600	127,804
67,276	-9,640	269,151	127,446
68,290	-9,896	269,033	127,145
69,305	-9,910	268,818	127,019
70,320	-9,873	268,548	126,914
71,334	-9,576	268,316	127,064
72,349	-9,540	268,230	127,045
73,363	-9,505	267,957	126,936
74,378	-9,622	267,944	126,812
75,393	-9,278	267,633	126,967
76,407	-9,600	267,610	126,652
77,422	-9,573	267,188	126,465
78,436	-9,475	266,824	126,370
79,451	-9,459	266,748	126,337
80,466	-9,544	266,465	126,115
81,480	-9,672	266,202	125,864
82,495	-9,779	265,983	125,652
83,509	-9,660	265,789	125,657
84,524	-9,665	265,643	125,572
85,539	-9,939	265,405	125,201
86,553	-9,731	265,066	125,218
87,568	-9,788	265,025	125,136
88,582	-9,838	264,713	124,933
89,597	-9,565	264,583	125,105
90,611	-9,481	264,393	125,080
91,626	-9,470	264,226	125,000
92,641	-9,362	264,028	124,991
93,655	-9,551	263,890	124,746
94,670	-9,409	263,449	124,653
95,684	-9,540	263,449	124,525
96,699	-9,640	263,289	124,349
97,714	-9,612	263,042	124,246
98,728	-9,673	262,665	124,002
99,743	-9,814	262,425	123,752
100,757	-9,906	262,327	123,614
101,772	-9,808	262,226	123,642
102,787	-9,580	261,808	123,636
103,801	-9,402	261,785	123,773
104,816	-9,655	261,751	123,521
105,830	-9,429	261,482	123,584
106,845	-9,475	261,347	123,467
107,860	-9,613	261,177	123,254
108,874	-9,473	260,899	123,236
109,889	-9,469	260,681	123,125
110,903	-9,427	260,455	123,044
111,918	-9,584	260,393	122,866
112,933	-9,489	260,078	122,790
113,947	-9,387	259,909	122,789
114,962	-9,376	259,707	122,692
115,976	-9,551	259,602	122,478
116,991	-9,552	259,369	122,357
118,006	-9,555	259,162	122,244
119,020	-9,469	259,086	122,274
120,035	-9,400	258,922	122,246
121,049	-9,389	258,646	122,114
122,064	-9,365	258,450	122,032
123,079	-9,462	258,226	121,830
124,093	-9,488	258,044	121,711
125,108	-9,610	257,771	121,465
126,122	-10,073	257,704	121,018
127,137	-10,138	257,366	120,792
128,151	-9,821	257,227	120,992
129,166	-9,612	257,008	121,060
130,181	-9,801	256,778	120,777
131,195	-9,773	256,464	120,643
132,210	-9,466	256,330	120,836
133,224	-9,549	256,245	120,712
134,239	-9,452	256,168	120,750
135,254	-9,260	255,820	120,741
136,268	-9,581	255,751	120,420
137,283	-9,627	255,531	120,266
138,297	-9,928	255,117	119,800
139,312	-10,053	254,973	119,614
140,327	-9,714	255,035	119,925
141,341	-9,205	254,767	120,227
142,356	-9,376	254,857	120,111
143,370	-9,405	254,615	119,962
144,385	-9,299	254,437	119,958
145,400	-9,329	254,116	119,770
146,414	-9,339	254,005	119,699
147,429	-9,245	253,720	119,634
148,443	-9,225	253,502	119,539
149,458	-9,073	253,470	119,643
150,473	-9,225	253,414	119,476
151,487	-9,152	253,120	119,388
152,502	-9,159	252,833	119,237
153,516	-9,251	252,762	119,114
154,531	-9,178	252,505	119,045
155,546	-9,315	252,274	118,809
156,560	-9,240	252,088	118,774
157,575	-9,257	251,874	118,648
158,589	-9,364	251,773	118,499
159,604	-9,183	251,551	118,537
160,619	-9,393	251,347	118,253
161,633	-9,229	251,159	118,293
162,648	-9,132	251,074	118,324
163,662	-9,145	250,915	118,227
164,677	-9,266	250,759	118,041
165,692	-9,232	250,532	117,953
166,706	-9,166	250,529	117,997
167,721	-9,236	250,317	117,827
168,735	-9,396	250,063	117,562
169,750	-9,245	249,980	117,640
170,764	-9,246	249,793	117,541
171,779	-8,974	249,508	117,625
172,794	-9,198	249,536	117,439
173,808	-9,029	249,131	117,380
174,823	-9,633	248,804	116,708
175,837	-9,756	248,710	116,551
176,852	-9,420	248,728	116,831
177,867	-9,175	248,616	116,973
178,881	-9,256	248,505	116,843
179,896	-9,270	248,385	116,764
180,910	-9,128	248,081	116,729
181,925	-9,126	247,883	116,627
182,940	-9,205	247,755	116,491
183,954	-9,067	247,589	116,518
184,969	-9,085	247,455	116,429
185,983	-9,096	247,195	116,287
186,998	-9,209	247,133	116,154
188,013	-9,239	246,935	116,025
189,027	-9,277	246,836	115,937
190,042	-9,031	246,531	115,987
191,056	-9,034	246,361	115,894
192,071	-9,089	246,217	115,771
193,086	-9,228	246,166	115,622
194,100	-9,067	245,935	115,636
195,115	-9,227	245,766	115,414
196,129	-9,163	245,579	115,369
197,144	-9,230	245,366	115,203
198,159	-9,136	245,164	115,175
199,173	-9,188	245,034	115,062
200,188	-9,183	244,817	114,953
201,202	-9,614	244,674	114,521
202,217	-9,878	244,265	114,103
203,232	-9,926	244,072	113,962
204,246	-9,378	244,004	114,371
205,261	-8,713	244,073	114,938
206,275	-9,330	243,813	114,300
207,290	-5,767	245,141	117,846
208,304	0,866	247,096	124,266
209,319	3,634	247,970	126,988
210,334	4,065	247,915	127,305
211,348	4,239	247,814	127,385
212,363	4,506	247,758	127,566
213,377	4,704	247,611	127,642
214,392	4,630	247,228	127,372
215,407	4,244	247,213	127,035
216,421	4,483	247,048	127,136
217,436	4,425	247,060	127,083
218,450	4,711	246,801	127,173
219,465	4,541	246,452	126,843
220,480	4,238	246,393	126,552
221,494	4,208	246,298	126,467
222,509	4,206	246,023	126,313
223,523	4,272	245,836	126,260
224,538	3,862	245,639	125,812
225,553	3,923	245,358	125,707
226,567	3,960	245,305	125,699
227,582	4,262	245,253	125,907
228,596	4,186	245,136	125,774
229,611	3,824	244,788	125,289
230,626	3,758	244,637	125,147
231,640	3,717	244,456	125,010
232,655	4,016	244,408	125,218
233,669	3,720	244,202	124,861
234,684	3,653	243,915	124,648
235,699	4,267	243,906	125,131
236,713	4,336	243,786	125,114
237,728	3,926	243,565	124,657
238,742	3,569	243,453	124,300
239,757	3,878	243,186	124,402
240,772	3,694	243,034	124,164
241,786	3,810	242,897	124,177
242,801	3,804	242,673	124,047
243,815	3,844	242,454	123,956
244,830	3,989	242,541	124,107
245,844	4,068	242,349	124,060
246,859	3,944	242,129	123,837
247,874	3,835	241,974	123,659
248,888	3,815	241,807	123,547
249,903	4,059	241,769	123,712
250,917	4,162	241,559	123,676
251,932	4,274	241,495	123,723
252,947	4,486	241,164	123,712
253,961	4,064	240,959	123,258
254,976	4,077	240,882	123,218
255,990	4,110	240,724	123,152
257,005	3,657	240,644	122,738
258,020	3,645	240,407	122,597
259,034	3,966	240,228	122,750
260,049	3,946	240,267	122,744
261,063	4,042	239,889	122,616
262,078	3,798	239,755	122,343
263,093	3,762	239,671	122,260
264,107	4,097	239,574	122,467
265,122	3,929	239,422	122,244
266,136	4,175	239,257	122,344
267,151	4,180	239,153	122,284
268,166	3,937	238,821	121,911
269,180	3,591	238,660	121,544
270,195	4,350	238,660	122,134
271,209	4,717	238,507	122,335
272,224	3,991	238,309	121,649
273,239	3,686	238,046	121,263
274,253	3,630	237,929	121,148
275,268	3,968	237,732	121,304
276,282	4,178	237,571	121,376
277,297	3,790	237,443	120,994
278,312	3,956	237,177	120,978
279,326	3,870	237,291	120,959
280,341	3,936	237,274	120,991
281,355	4,137	236,823	120,908
282,370	4,179	236,835	120,936
283,384	4,183	236,504	120,760
284,399	3,835	236,438	120,442
285,414	3,764	236,355	120,334
286,428	3,923	235,886	120,209
287,443	3,986	235,872	120,240
288,457	3,882	235,928	120,177
289,472	4,172	235,768	120,311
290,487	4,161	235,475	120,142
291,501	3,673	235,355	119,690
292,516	3,524	235,123	119,445
293,530	3,509	235,149	119,436
294,545	4,006	234,882	119,676
295,560	3,992	234,804	119,615
296,574	3,859	234,522	119,357
297,589	3,836	234,461	119,298
298,603	4,336	234,339	119,613
299,618	4,304	234,231	119,522
300,633	4,102	234,155	119,316
301,647	4,072	234,022	119,215
302,662	4,370	233,945	119,396
303,676	4,185	233,727	119,130
304,691	4,207	233,521	119,032
305,706	4,171	233,369	118,916
306,720	4,376	233,266	119,011
307,735	4,304	233,128	118,875
308,749	4,115	232,923	118,614
309,764	3,871	232,627	118,265
310,779	3,649	232,523	118,031
311,793	3,581	232,441	117,926
312,808	3,527	232,273	117,789
313,822	3,595	231,999	117,691
314,837	3,655	231,736	117,594
315,852	3,686	231,731	117,604
316,866	4,049	231,619	117,815
317,881	4,221	231,590	117,922
318,895	4,063	231,294	117,639
319,910	4,056	231,107	117,529
320,925	4,030	231,087	117,488
321,939	4,138	230,911	117,471
322,954	4,094	230,948	117,445
323,968	4,139	230,580	117,282
324,983	3,772	230,412	116,907
325,997	3,644	230,405	116,796
327,012	4,008	230,265	116,991
328,027	4,162	230,251	117,090
329,041	4,269	230,241	117,156
330,056	4,677	230,136	117,402
331,070	4,874	229,900	117,421
332,085	4,551	229,595	117,009
333,100	3,934	229,368	116,417
334,114	4,179	229,178	116,495
335,129	4,217	229,227	116,538
336,143	4,480	229,220	116,723
337,158	4,355	228,961	116,486
338,173	4,276	228,790	116,329
339,187	3,976	228,737	116,066
340,202	4,245	228,309	116,041
341,216	4,187	228,305	115,985
342,231	4,169	228,150	115,882
343,246	3,959	227,943	115,609
344,260	4,067	227,859	115,637
345,275	4,341	227,748	115,776
346,289	4,333	227,676	115,723
347,304	4,580	227,442	115,779
348,319	4,589	227,300	115,703
349,333	4,174	227,145	115,303
350,348	4,040	226,913	115,076
351,362	4,232	226,910	115,207
352,377	3,897	226,722	114,851
353,392	3,871	226,413	114,665
354,406	3,929	226,448	114,715
355,421	195,706	1320,895	1398,052
356,435	156,900	1454,234	1398,061
