DTS Sentinel unit serial number:	SN410029Multiplexer serial number:	ORYXHardware model number:	OX2-SRSoftware version number:	ORYX F/W v4,00 Oryx Data Collector v3.7.2.0data status	okinstallation	B5 Nyhavnadifferential loss correction	single-endedforward channel	channel 2reverse channel	N/Adate	2023/12/13time	08:22:13forward acquisition time	300,00reverse acquisition time	0,00gamma	499,1914k internal	0,3160k external	0,3160temperature offset calibration	1,0000default loss term (dB/km)	0,3820temperature slope calibration	1,0000multiplexer offset coefficient	1,0000multiplexer slope coefficient	1,0000fibre end	0,00T internal ref (°C)	13,63T ext. ref 1 (°C)	-2,74T ext. ref 2 (°C)	-3,07length (m)	temperature (°C)	Stokes	anti-Stokes-744,400	-131,387	0,265	-0,025
-743,385	-120,951	-0,280	0,034
-742,371	-59,254	0,202	0,064
-741,356	-79,620	-0,296	0,073
-740,342	-80,752	0,174	0,042
-739,327	-124,580	-0,193	-0,022
-738,312	-105,551	0,204	-0,034
-737,298	-47,313	-0,150	-0,054
-736,283	382,423	0,082	-0,124
-735,269	-149,248	-0,391	-0,023
-734,254	-200,000	-0,002	-0,062
-733,239	-50,241	-0,517	-0,179
-732,225	-85,906	0,222	0,050
-731,210	124,770	0,028	-0,026
-730,196	-125,138	-0,101	-0,011
-729,181	301,007	-0,092	-0,126
-728,167	-7,315	0,085	0,042
-727,152	-61,387	-0,083	-0,025
-726,137	158,746	-0,036	-0,037
-725,123	22,557	0,058	0,035
-724,108	-56,393	-0,192	-0,062
-723,094	76,226	-0,177	-0,138
-722,079	-200,000	0,018	-0,179
-721,064	167,659	0,020	0,021
-720,050	-1,192	0,065	-0,034
-719,035	-12,961	-0,112	-0,053
-718,021	-11,673	0,052	-0,025
-717,006	92,467	-0,092	-0,076
-715,991	-11,254	-0,177	-0,086
-714,977	800,000	0,046	-0,111
-713,962	32,926	-0,095	0,061
-712,948	-200,000	0,006	0,076
-711,933	-200,000	0,018	-0,148
-710,918	227,171	-0,114	-0,137
-709,904	-200,000	0,001	-0,201
-708,889	271,795	-0,039	-0,051
-707,875	542,377	-0,060	-0,106
-706,860	290,837	0,070	-0,094
-705,845	800,000	-0,003	0,007
-704,831	-200,000	0,017	0,121
-703,816	-200,000	-0,022	0,076
-702,802	-118,708	0,066	0,008
-701,787	112,658	-0,087	-0,077
-700,772	-76,129	0,028	-0,007
-699,758	-69,899	0,218	0,061
-698,743	33,230	0,126	0,080
-697,729	-85,494	0,052	-0,012
-696,714	-27,199	0,111	-0,047
-695,699	575,960	0,041	-0,074
-694,685	-164,673	-0,124	0,004
-693,670	74,900	-0,088	-0,068
-692,656	-200,000	0,023	-0,100
-691,641	163,398	0,105	-0,108
-690,627	-200,000	-0,029	-0,100
-689,612	420,830	-0,092	-0,145
-688,597	-155,387	-0,119	0,006
-687,583	102,912	-0,037	0,032
-686,568	-167,241	0,073	-0,002
-685,554	154,203	0,042	-0,043
-684,539	106,049	0,045	-0,039
-683,524	-30,506	-0,156	0,065
-682,510	800,000	0,038	0,114
-681,495	7,417	-0,102	-0,056
-680,481	-57,709	-0,100	-0,032
-679,466	-11,964	-0,109	-0,052
-678,451	-7,158	0,236	-0,117
-677,437	-50,497	-0,099	-0,034
-676,422	-53,435	-0,040	-0,013
-675,408	-200,000	-0,020	0,137
-674,393	-19,964	-0,063	0,029
-673,378	-200,000	0,014	-0,104
-672,364	-92,744	-0,102	0,021
-671,349	-68,234	0,043	-0,012
-670,335	800,000	0,019	-0,041
-669,320	-30,281	0,019	0,008
-668,305	-200,000	0,008	0,093
-667,291	-151,375	0,189	0,010
-666,276	-200,000	0,012	0,050
-665,262	-200,000	-0,019	-0,116
-664,247	-200,000	0,009	-0,114
-663,232	225,594	-0,035	-0,041
-662,218	206,079	0,100	0,115
-661,203	457,664	0,029	0,048
-660,189	-134,099	0,050	0,004
-659,174	-200,000	-0,003	-0,111
-658,159	-37,099	0,093	-0,036
-657,145	517,069	-0,027	-0,047
-656,130	48,709	0,109	-0,075
-655,116	-200,000	0,029	0,150
-654,101	73,948	0,058	-0,045
-653,086	64,213	-0,082	-0,060
-652,072	91,414	-0,044	-0,036
-651,057	274,997	-0,068	0,089
-650,043	79,906	-0,163	-0,129
-649,028	-147,296	0,111	0,007
-648,014	-192,340	-0,058	-0,000
-646,999	8,619	-0,039	-0,021
-645,984	-139,165	-0,132	0,010
-644,970	556,033	-0,033	0,059
-643,955	54,632	-0,120	-0,085
-642,941	-77,633	-0,077	0,019
-641,926	-200,000	0,015	-0,063
-640,911	40,155	-0,035	0,023
-639,897	15,792	0,135	-0,077
-638,882	-200,000	0,008	-0,080
-637,868	238,907	-0,037	-0,045
-636,853	-14,885	-0,046	0,021
-635,838	385,217	-0,042	-0,063
-634,824	-200,000	0,000	-0,139
-633,809	-67,519	-0,029	-0,008
-632,795	448,492	-0,031	-0,050
-631,780	-132,469	-0,068	0,006
-630,765	361,010	0,008	-0,012
-629,751	283,827	0,022	-0,028
-628,736	195,674	-0,123	0,137
-627,722	22,995	-0,069	-0,041
-626,707	33,780	-0,071	0,045
-625,692	-200,000	-0,009	-0,069
-624,678	-22,886	-0,056	0,025
-623,663	-73,420	-0,074	0,020
-622,649	-126,547	-0,095	-0,010
-621,634	-200,000	0,017	0,101
-620,619	153,360	0,115	-0,115
-619,605	46,562	-0,173	-0,117
-618,590	-200,000	0,002	-0,065
-617,576	334,166	0,066	-0,094
-616,561	-192,729	0,104	0,001
-615,546	62,736	0,076	0,056
-614,532	313,310	0,032	-0,044
-613,517	357,913	-0,120	-0,176
-612,503	58,507	-0,031	0,022
-611,488	9,964	0,082	0,045
-610,474	-32,384	-0,107	0,044
-609,459	-146,457	-0,057	0,004
-608,444	-200,000	0,050	0,000
-607,430	31,154	-0,030	-0,019
-606,415	800,000	0,028	-0,064
-605,401	558,889	0,117	0,207
-604,386	-200,000	-0,002	0,093
-603,371	98,766	-0,092	0,077
-602,357	-121,941	-0,105	0,013
-601,342	800,000	-0,024	-0,060
-600,328	111,546	0,095	-0,084
-599,313	380,201	0,072	-0,108
-598,298	54,916	0,049	0,034
-597,284	100,607	0,064	0,055
-596,269	-200,000	0,004	-0,076
-595,255	365,092	0,027	-0,039
-594,240	268,550	-0,088	-0,113
-593,225	-129,566	-0,201	0,020
-592,211	188,287	-0,105	-0,115
-591,196	-55,851	-0,067	0,022
-590,182	-39,206	0,113	0,043
-589,167	793,501	0,089	0,179
-588,152	49,343	-0,002	-0,001
-587,138	800,000	-0,006	0,018
-586,123	149,688	0,127	-0,126
-585,109	-107,708	-0,116	-0,018
-584,094	218,090	-0,060	-0,070
-583,079	-91,006	-0,137	-0,029
-582,065	-200,000	0,015	0,078
-581,050	800,000	0,058	0,139
-580,036	381,126	-0,036	0,055
-579,021	10,663	0,045	-0,025
-578,006	-83,130	-0,118	0,028
-576,992	-200,000	0,009	0,059
-575,977	-200,000	-0,053	-0,188
-574,963	-200,000	0,006	-0,065
-573,948	800,000	-0,008	0,021
-572,934	-73,703	-0,056	-0,015
-571,919	297,594	0,079	-0,106
-570,904	568,180	0,025	-0,044
-569,890	230,973	0,004	0,005
-568,875	407,040	0,067	0,104
-567,861	-89,323	0,092	0,020
-566,846	-88,959	-0,083	0,018
-565,831	163,075	0,102	0,105
-564,817	238,928	0,063	0,076
-563,802	193,523	-0,059	0,066
-562,788	211,302	-0,057	0,066
-561,773	800,000	0,058	0,168
-560,758	-121,226	0,167	-0,020
-559,744	79,985	-0,023	0,018
-558,729	7,678	-0,050	-0,027
-557,715	772,662	-0,025	-0,050
-556,700	-200,000	-0,010	-0,054
-555,685	800,000	0,009	-0,029
-554,671	178,114	0,020	0,022
-553,656	38,769	0,007	-0,005
-552,642	-8,666	0,033	0,016
-551,627	-45,105	-0,063	0,023
-550,612	-200,000	0,005	-0,079
-549,598	-28,999	-0,105	0,044
-548,583	143,346	-0,065	-0,064
-547,569	71,099	0,079	0,060
-546,554	-124,114	0,185	0,021
-545,539	200,089	-0,087	-0,098
-544,525	800,000	-0,040	0,118
-543,510	481,654	0,062	-0,104
-542,496	-72,384	-0,060	0,016
-541,481	-200,000	-0,024	-0,093
-540,466	479,831	-0,046	0,076
-539,452	-200,000	-0,001	-0,131
-538,437	9,152	-0,092	-0,051
-537,423	414,311	0,043	0,067
-536,408	800,000	-0,050	-0,118
-535,393	800,000	-0,002	-0,004
-534,379	123,361	-0,094	0,086
-533,364	122,786	0,058	0,053
-532,350	800,000	0,048	0,099
-531,335	-200,000	-0,032	0,191
-530,321	487,056	-0,012	-0,021
-529,306	487,596	-0,037	0,062
-528,291	800,000	0,045	0,130
-527,277	31,674	-0,147	0,092
-526,262	-171,116	0,114	-0,003
-525,248	413,634	0,035	0,055
-524,233	383,383	0,058	0,088
-523,218	-15,776	0,029	0,013
-522,204	-165,746	-0,086	-0,003
-521,189	-200,000	0,001	0,133
-520,175	74,889	-0,063	-0,048
-519,160	800,000	0,045	-0,113
-518,145	-102,159	-0,098	-0,017
-517,131	32,007	0,013	0,008
-516,116	-147,922	-0,030	-0,002
-515,102	-60,059	-0,131	-0,041
-514,087	-63,928	-0,056	-0,016
-513,072	-2,266	-0,084	-0,043
-512,058	-23,817	-0,088	-0,038
-511,043	202,852	0,089	0,101
-510,029	800,000	0,013	-0,034
-509,014	372,921	-0,085	0,127
-507,999	-200,000	0,006	-0,117
-506,985	-200,000	0,011	-0,066
-505,970	-200,000	-0,011	0,127
-504,956	800,000	0,036	-0,082
-503,941	800,000	-0,044	-0,121
-502,926	681,894	-0,028	0,054
-501,912	-98,768	0,067	0,012
-500,897	-90,150	0,153	0,032
-499,883	-38,927	0,047	0,018
-498,868	64,200	0,067	-0,049
-497,853	-45,689	0,074	0,027
-496,839	800,000	0,014	0,045
-495,824	-114,829	0,201	-0,028
-494,810	-21,719	-0,094	0,042
-493,795	149,973	0,085	-0,085
-492,781	-200,000	0,013	0,089
-491,766	29,244	-0,078	-0,048
-490,751	-29,484	0,091	-0,038
-489,737	-200,000	0,011	0,050
-488,722	-200,000	-0,001	0,020
-487,708	-74,953	-0,085	0,022
-486,693	-200,000	0,027	-0,137
-485,678	800,000	0,024	-0,056
-484,664	324,588	-0,028	-0,040
-483,649	-61,712	0,090	0,027
-482,635	-33,015	-0,076	-0,031
-481,620	643,017	-0,059	0,110
-480,605	-124,665	0,153	0,017
-479,591	-48,473	0,093	0,033
-478,576	410,262	0,018	0,029
-477,562	800,000	0,066	-0,151
-476,547	800,000	-0,074	-0,163
-475,532	497,723	-0,075	0,127
-474,518	-127,947	-0,070	-0,007
-473,503	-126,022	-0,061	-0,007
-472,489	1,587	-0,039	-0,020
-471,474	-60,372	-0,104	-0,032
-470,459	-87,657	-0,058	0,013
-469,445	-135,558	0,041	-0,004
-468,430	800,000	-0,019	-0,039
-467,416	208,015	-0,109	-0,125
-466,401	258,323	0,071	0,089
-465,386	-200,000	0,006	-0,045
-464,372	800,000	0,027	-0,082
-463,357	-200,000	-0,018	-0,140
-462,343	-47,266	-0,097	-0,034
-461,328	-1,889	-0,098	-0,050
-460,313	800,000	0,032	-0,068
-459,299	-124,081	-0,120	-0,014
-458,284	95,697	0,029	0,024
-457,270	-200,000	0,004	0,044
-456,255	237,848	0,071	-0,086
-455,241	-200,000	-0,003	-0,136
-454,226	800,000	-0,026	0,081
-453,211	-200,000	-0,020	-0,064
-452,197	2,851	0,141	0,074
-451,182	-200,000	0,029	0,122
-450,168	-132,668	0,036	0,003
-449,153	-5,662	-0,103	0,051
-448,138	-200,000	-0,028	-0,091
-447,124	566,156	-0,022	-0,039
-446,109	800,000	0,041	-0,088
-445,095	221,034	0,134	-0,157
-444,080	-19,238	-0,024	-0,011
-443,065	86,461	0,127	-0,102
-442,051	182,459	0,078	0,084
-441,036	-53,482	-0,042	0,014
-440,022	153,632	-0,122	-0,122
-439,007	-200,000	-0,004	0,056
-437,992	800,000	0,020	-0,061
-436,978	-200,000	-0,009	-0,058
-435,963	-200,000	0,012	-0,084
-434,949	800,000	-0,050	0,129
-433,934	-200,000	0,020	0,127
-432,919	180,598	0,051	-0,055
-431,905	-34,978	-0,082	0,032
-430,890	-200,000	0,018	-0,096
-429,876	-122,230	0,025	-0,003
-428,861	79,277	0,074	-0,058
-427,846	800,000	0,039	0,098
-426,832	272,563	0,055	-0,071
-425,817	-135,421	-0,129	-0,011
-424,803	32,559	0,055	0,035
-423,788	-73,331	-0,038	-0,010
-422,773	93,041	0,050	-0,041
-421,759	58,055	-0,033	-0,024
-420,744	45,254	0,197	-0,132
-419,730	79,639	-0,094	-0,074
-418,715	-200,000	0,005	-0,030
-417,701	-200,000	0,005	0,062
-416,686	-15,839	-0,076	-0,035
-415,671	-200,000	0,024	0,087
-414,657	-200,000	-0,022	0,076
-413,642	800,000	-0,022	0,051
-412,628	800,000	0,010	0,029
-411,613	-87,844	-0,025	-0,005
-410,598	-93,144	0,134	0,027
-409,584	273,150	-0,072	-0,093
-408,569	-147,257	0,102	0,006
-407,555	-200,000	0,003	-0,086
-406,540	15,906	-0,052	-0,029
-405,525	112,385	0,121	0,106
-404,511	800,000	0,062	-0,135
-403,496	-200,000	-0,006	0,038
-402,482	-174,616	-0,077	0,002
-401,467	-200,000	0,017	-0,166
-400,452	-200,000	0,015	-0,142
-399,438	-200,000	0,013	-0,043
-398,423	121,270	0,047	0,042
-397,409	-73,636	-0,151	0,040
-396,394	55,467	0,068	-0,048
-395,379	23,751	0,061	-0,036
-394,365	-200,000	0,018	-0,060
-393,350	-105,386	0,099	0,016
-392,336	-200,000	0,015	0,103
-391,321	800,000	0,026	-0,069
-390,306	-40,748	-0,092	0,035
-389,292	118,667	0,132	-0,118
-388,277	-101,671	-0,040	0,007
-387,263	-106,332	0,089	0,014
-386,248	-140,124	-0,077	-0,006
-385,233	-200,000	-0,000	0,058
-384,219	-66,255	-0,094	0,027
-383,204	-25,366	-0,151	0,064
-382,190	9,741	-0,090	0,049
-381,175	-78,644	0,053	-0,013
-380,160	800,000	0,027	-0,072
-379,146	308,322	-0,072	-0,098
-378,131	-167,939	0,114	0,003
-377,117	-48,641	-0,118	-0,041
-376,102	-126,016	0,065	-0,007
-375,088	-200,000	0,030	-0,147
-374,073	22,264	-0,056	-0,033
-373,058	-200,000	0,022	0,074
-372,044	-200,000	0,004	0,037
-371,029	17,777	-0,038	0,022
-370,015	-200,000	-0,021	-0,105
-369,000	-200,000	0,006	-0,022
-367,985	-200,000	-0,030	-0,156
-366,971	-7,302	0,097	0,047
-365,956	350,336	0,111	0,160
-364,942	-78,487	0,081	0,020
-363,927	-200,000	0,021	0,068
-362,912	101,059	0,017	0,015
-361,898	532,524	0,048	0,082
-360,883	307,770	-0,035	0,048
-359,869	-200,000	0,012	0,084
-358,854	-200,000	0,008	0,082
-357,839	-65,620	0,070	-0,020
-356,825	-93,617	0,141	0,028
-355,810	7,922	-0,102	0,055
-354,796	-200,000	-0,025	-0,103
-353,781	-80,485	-0,126	-0,030
-352,766	-66,992	0,114	-0,032
-351,752	800,000	-0,077	0,202
-350,737	156,445	0,060	0,060
-349,723	800,000	-0,043	0,113
-348,708	-200,000	-0,019	0,105
-347,693	800,000	0,041	-0,126
-346,679	-77,543	0,146	-0,036
-345,664	-200,000	-0,008	-0,121
-344,650	15,162	0,056	0,032
-343,635	-200,000	0,032	0,145
-342,620	800,000	-0,051	0,122
-341,606	-93,501	-0,052	0,010
-340,591	297,461	0,013	0,017
-339,577	800,000	0,028	-0,062
-338,562	800,000	-0,034	-0,073
-337,548	-26,481	-0,128	0,054
-336,533	-162,798	0,123	-0,004
-335,518	800,000	0,057	0,132
-334,504	193,258	-0,040	0,044
-333,489	800,000	0,069	0,154
-332,475	181,754	0,010	-0,011
-331,460	-121,294	-0,094	-0,011
-330,445	50,803	-0,078	0,054
-329,431	-79,050	0,084	-0,020
-328,416	-200,000	0,035	0,161
-327,402	293,605	0,082	0,109
-326,387	89,196	-0,085	0,069
-325,372	-200,000	0,005	-0,045
-324,358	-111,365	-0,122	-0,018
-323,343	-175,336	0,113	0,002
-322,329	38,145	0,131	0,084
-321,314	-72,868	0,054	0,014
-320,299	-63,903	-0,044	0,013
-319,285	-6,076	-0,107	0,053
-318,270	-48,880	-0,134	0,046
-317,256	-200,000	0,011	-0,106
-316,241	-154,712	0,047	-0,002
-315,226	-117,417	-0,085	-0,011
-314,212	300,422	-0,030	-0,041
-313,197	285,619	0,053	0,069
-312,183	227,074	0,050	0,058
-311,168	-159,008	0,068	0,003
-310,153	687,483	0,044	0,084
-309,139	-58,552	-0,090	-0,028
-308,124	-152,214	0,045	0,002
-307,110	-35,549	0,079	0,031
-306,095	800,000	-0,051	0,132
-305,080	124,995	-0,057	0,052
-304,066	160,700	-0,067	0,068
-303,051	726,781	-0,077	-0,150
-302,037	182,232	0,062	0,066
-301,022	-172,890	0,116	-0,003
-300,008	118,861	0,080	0,071
-298,993	28,485	0,039	0,024
-297,978	213,020	0,114	-0,130
-296,964	-200,000	0,013	0,116
-295,949	21,296	-0,102	-0,060
-294,935	-125,987	0,050	-0,005
-293,920	-200,000	0,074	0,000
-292,905	-79,559	-0,163	-0,039
-291,891	-87,917	0,047	-0,010
-290,876	405,271	-0,041	-0,063
-289,862	-136,512	-0,088	0,007
-288,847	216,687	-0,088	-0,102
-287,832	-200,000	0,016	-0,164
-286,818	656,985	-0,052	0,098
-285,803	800,000	-0,034	-0,081
-284,789	-200,000	-0,012	-0,066
-283,774	-167,411	-0,060	-0,002
-282,759	-200,000	-0,020	0,095
-281,745	-127,945	-0,082	-0,008
-280,730	150,488	0,031	-0,031
-279,716	327,708	-0,061	0,085
-278,701	-94,190	0,079	0,016
-277,686	-56,519	0,050	0,016
-276,672	-50,397	0,093	-0,031
-275,657	800,000	0,004	-0,010
-274,643	-150,537	-0,075	-0,004
-273,628	231,842	-0,053	-0,062
-272,613	-115,697	0,103	0,014
-271,599	-200,000	0,048	0,169
-270,584	156,839	0,130	-0,130
-269,570	234,914	-0,085	-0,102
-268,555	-200,000	-0,004	0,030
-267,540	800,000	-0,032	0,070
-266,526	-82,130	-0,068	0,016
-265,511	-111,139	-0,029	-0,004
-264,497	-81,949	0,091	0,021
-263,482	-200,000	-0,021	0,068
-262,467	433,627	0,062	0,098
-261,453	-128,565	-0,142	-0,014
-260,438	237,701	0,082	-0,098
-259,424	-27,505	0,056	0,023
-258,409	-200,000	-0,014	0,065
-257,395	800,000	-0,037	-0,075
-256,380	-19,752	0,032	-0,014
-255,365	800,000	-0,028	0,056
-254,351	780,481	0,036	-0,071
-253,336	20,225	0,043	-0,025
-252,322	800,000	-0,029	-0,082
-251,307	800,000	-0,060	-0,137
-250,292	104,727	0,036	0,030
-249,278	-200,000	-0,021	-0,074
-248,263	800,000	0,033	0,072
-247,249	800,000	-0,066	-0,139
-246,234	-200,000	0,009	0,085
-245,219	800,000	0,023	0,060
-244,205	800,000	0,031	-0,076
-243,190	7,666	0,126	0,068
-242,176	186,860	-0,062	0,067
-241,161	-91,121	-0,081	0,017
-240,146	-200,000	0,016	-0,089
-239,132	-200,000	-0,008	0,045
-238,117	541,468	0,080	0,138
-237,103	-131,152	-0,125	-0,012
-236,088	237,227	-0,061	0,073
-235,073	-200,000	-0,000	-0,019
-234,059	800,000	-0,049	0,145
-233,044	-200,000	-0,025	0,165
-232,030	214,137	-0,045	0,052
-231,015	-200,000	0,004	-0,018
-230,000	126,284	-0,128	0,117
-228,986	-145,717	-0,061	-0,004
-227,971	522,346	-0,044	0,075
-226,957	187,371	0,047	0,051
-225,942	-44,478	-0,080	-0,029
-224,927	800,000	0,028	0,087
-223,913	-200,000	0,023	-0,140
-222,898	60,573	0,041	0,030
-221,884	800,000	0,007	-0,015
-220,869	-111,617	0,072	-0,010
-219,855	334,342	0,082	0,115
-218,840	-200,000	-0,040	0,137
-217,825	-113,316	0,132	-0,019
-216,811	56,291	-0,023	-0,016
-215,796	-200,000	-0,005	-0,085
-214,782	55,728	0,110	-0,077
-213,767	55,856	0,036	-0,025
-212,752	-85,981	0,148	0,033
-211,738	33,660	0,022	0,014
-210,723	579,351	0,042	-0,075
-209,709	44,323	-0,034	-0,023
-208,694	-51,810	-0,108	0,036
-207,679	82,539	0,098	0,077
-206,665	738,561	-0,037	-0,073
-205,650	-200,000	0,009	0,110
-204,636	-61,436	0,100	-0,030
-203,621	-188,402	-0,118	-0,001
-202,606	800,000	0,022	0,058
-201,592	-200,000	0,025	-0,115
-200,577	-55,754	-0,126	-0,040
-199,563	800,000	0,064	-0,139
-198,548	65,797	0,129	0,094
-197,533	-37,780	0,052	0,020
-196,519	317,664	-0,048	-0,066
-195,504	-30,822	-0,119	-0,048
-194,490	179,476	0,007	-0,007
-193,475	800,000	0,010	-0,024
-192,460	-56,315	-0,080	-0,025
-191,446	119,242	0,063	0,056
-190,431	13,166	0,110	0,061
-189,417	-34,333	-0,007	-0,003
-188,402	294,164	0,070	-0,092
-187,387	103,861	0,037	-0,031
-186,373	-200,000	-0,010	-0,098
-185,358	52,087	0,066	-0,045
-184,344	-200,000	0,001	-0,035
-183,329	1,278	-0,064	0,033
-182,315	83,464	0,101	0,080
-181,300	800,000	0,043	0,087
-180,285	-200,000	0,003	-0,021
-179,271	-65,939	0,111	-0,032
-178,256	551,516	-0,048	0,084
-177,242	-200,000	-0,011	0,108
-176,227	111,614	-0,163	0,141
-175,212	800,000	0,057	0,124
-174,198	800,000	-0,027	-0,071
-173,183	-61,619	-0,169	0,051
-172,169	-200,000	-0,010	-0,214
-171,154	-129,047	0,032	-0,003
-170,139	-68,266	0,066	0,018
-169,125	-200,000	0,012	-0,115
-168,110	124,560	-0,029	-0,026
-167,096	-91,924	-0,075	0,015
-166,081	-200,000	0,021	-0,096
-165,066	-16,146	0,056	0,026
-164,052	115,332	0,096	-0,085
-163,037	-17,561	-0,214	-0,097
-162,023	-18,202	-0,025	0,011
-161,008	79,902	0,137	0,106
-159,993	216,517	0,041	0,047
-158,979	244,281	0,058	-0,071
-157,964	-200,000	0,000	0,014
-156,950	-106,750	0,077	-0,012
-155,935	27,109	0,098	0,059
-154,920	127,260	-0,060	0,055
-153,906	-200,000	0,023	0,103
-152,891	62,212	0,060	0,043
-151,877	595,448	0,060	-0,107
-150,862	785,872	0,044	0,086
-149,847	-24,310	0,061	0,026
-148,833	350,973	-0,038	0,054
-147,818	105,832	-0,076	0,065
-146,804	67,190	0,089	0,065
-145,789	800,000	-0,009	0,024
-144,775	53,892	0,049	0,034
-143,760	800,000	0,021	0,061
-142,745	-200,000	-0,022	0,088
-141,731	99,199	-0,018	0,015
-140,716	800,000	-0,060	0,131
-139,702	800,000	-0,012	0,028
-138,687	-200,000	0,027	-0,087
-137,672	-200,000	0,004	-0,042
-136,658	2,792	0,054	0,028
-135,643	97,440	-0,111	-0,091
-134,629	-78,365	-0,169	-0,041
-133,614	471,632	0,086	0,139
-132,599	-17,744	0,055	0,025
-131,585	152,266	0,084	0,083
-130,570	159,274	0,084	0,084
-129,556	143,318	-0,084	0,080
-128,541	-200,000	-0,031	-0,196
-127,526	800,000	-0,009	-0,023
-126,512	27,501	0,151	-0,091
-125,497	-200,000	0,029	-0,172
-124,483	271,509	0,085	-0,108
-123,468	297,602	0,036	0,048
-122,453	201,257	-0,078	0,087
-121,439	17,880	0,146	0,083
-120,424	621,307	0,061	-0,112
-119,410	79,575	0,039	0,030
-118,395	-200,000	0,040	0,151
-117,380	-200,000	0,009	0,143
-116,366	69,061	0,111	-0,082
-115,351	731,132	-0,010	-0,019
-114,337	800,000	-0,010	0,020
-113,322	708,398	-0,059	0,112
-112,307	-200,000	0,010	0,122
-111,293	-121,080	0,052	0,006
-110,278	-200,000	-0,014	0,115
-109,264	-11,453	0,033	0,015
-108,249	10,813	-0,068	0,037
-107,234	113,098	-0,066	-0,057
-106,220	-75,561	0,045	0,011
-105,205	-83,787	0,065	0,015
-104,191	253,089	-0,083	0,101
-103,176	-200,000	0,006	0,070
-102,162	376,814	0,033	-0,048
-101,147	-19,375	0,010	0,004
-100,132	-82,099	0,149	-0,035
-99,118	55,863	-0,113	-0,079
-98,103	-79,475	-0,101	0,024
-97,089	800,000	0,087	0,210
-96,074	-51,376	0,038	0,013
-95,059	50,805	0,146	-0,099
-94,045	-200,000	-0,015	-0,087
-93,030	316,828	-0,074	-0,101
-92,016	357,549	-0,033	0,048
-91,001	327,838	0,064	0,089
-89,986	-114,696	0,053	-0,007
-88,972	75,089	-0,059	0,044
-87,957	167,985	0,043	0,044
-86,943	80,169	-0,024	0,018
-85,928	27,186	-0,103	0,062
-84,913	604,816	-0,055	-0,100
-83,899	168,188	-0,056	0,057
-82,884	-200,000	0,011	-0,221
-81,870	-71,265	0,067	0,018
-80,855	241,367	0,033	0,040
-79,840	43,940	0,040	-0,026
-78,826	-200,000	0,006	0,071
-77,811	-61,794	0,021	0,006
-76,797	26,644	0,122	0,073
-75,782	-75,852	0,034	-0,008
-74,767	165,089	-0,063	0,064
-73,753	-200,000	0,003	0,093
-72,738	-200,000	0,001	0,059
-71,724	210,967	-0,020	0,022
-70,709	205,619	0,092	-0,103
-69,694	-64,622	0,086	-0,025
-68,680	-63,734	0,180	-0,053
-67,665	-200,000	0,024	-0,092
-66,651	106,126	0,045	-0,039
-65,636	-200,000	0,012	-0,053
-64,622	800,000	0,058	0,136
-63,607	-130,281	0,052	-0,005
-62,592	-189,460	-0,070	0,001
-61,578	-200,000	0,011	0,095
-60,563	3,440	0,040	0,021
-59,549	190,305	-0,133	0,143
-58,534	42,258	-2,029	-1,320
-57,519	-200,000	-0,144	-0,555
-56,505	-200,000	-1,419	-5,081
-55,490	85,626	0,878	0,692
-54,476	800,000	5,259	12,088
-53,461	-200,000	18,713	318,302
-52,446	800,000	741,938	2334,992
-51,432	557,886	1657,476	2878,011
-50,417	110,976	1641,162	1416,662
-49,403	75,356	1291,087	975,816
-48,388	30,271	1031,625	630,207
-47,373	19,963	994,146	573,149
-46,359	17,297	982,198	557,456
-45,344	14,020	978,168	544,366
-44,330	14,337	976,506	544,461
-43,315	13,736	974,599	541,404
-42,300	13,634	973,659	540,523
-41,286	13,634	972,752	539,999
-40,271	13,659	971,781	539,522
-39,257	13,645	970,816	538,918
-38,242	13,631	970,043	538,421
-37,227	13,667	969,115	538,003
-36,213	13,629	968,156	537,326
-35,198	13,602	967,370	536,781
-34,184	13,643	966,620	536,476
-33,169	13,610	965,649	535,808
-32,154	13,696	964,566	535,466
-31,140	13,653	963,861	534,912
-30,125	13,657	963,108	534,487
-29,111	13,679	961,970	533,904
-28,096	13,694	961,571	533,710
-27,082	13,632	960,971	533,157
-26,067	13,681	960,063	532,788
-25,052	13,605	959,350	532,129
-24,038	13,640	958,853	531,943
-23,023	13,655	958,001	531,500
-22,009	13,700	957,387	531,282
-20,994	13,681	956,860	530,908
-19,979	13,646	956,230	530,424
-18,965	13,676	955,710	530,210
-17,950	13,673	954,997	529,785
-16,936	13,667	954,162	529,283
-15,921	13,560	953,695	528,657
-14,906	13,563	952,866	528,186
-13,892	13,603	952,065	527,849
-12,877	13,564	951,464	527,371
-11,863	13,553	950,881	526,992
-10,848	13,585	950,321	526,762
-9,833	13,685	949,774	526,757
-8,819	13,626	949,165	526,211
-7,804	13,610	948,590	525,821
-6,790	13,578	947,888	525,308
-5,775	13,632	947,438	525,210
-4,760	13,587	946,872	524,731
-3,746	13,550	946,147	524,191
-2,731	13,408	945,540	523,383
-1,717	13,421	944,768	522,976
-0,702	13,396	944,151	522,534
0,313	13,255	943,474	522,500
1,327	16,531	941,074	531,499
2,342	25,597	795,669	473,460
3,356	22,060	459,962	268,250
4,371	-4,978	317,138	155,950
5,386	-8,859	298,983	143,045
6,400	-10,689	292,813	138,248
7,415	-11,157	290,415	136,638
8,429	-11,503	288,646	135,453
9,444	-11,531	287,872	135,049
10,459	-11,344	287,097	134,857
11,473	-11,418	286,537	134,510
12,488	-11,316	286,037	134,363
13,502	-11,705	285,726	133,825
14,517	-11,328	285,105	133,890
15,531	-11,442	284,725	133,589
16,546	-11,251	284,186	133,510
17,561	-11,492	283,765	133,066
18,575	-11,315	283,632	133,163
19,590	-11,372	283,190	132,889
20,604	-11,397	282,921	132,726
21,619	-11,495	282,495	132,420
22,634	-11,443	282,083	132,265
23,648	-11,395	281,846	132,188
24,663	-11,494	281,585	131,959
25,677	-11,406	281,364	131,929
26,692	-11,420	281,020	131,742
27,707	-11,477	280,786	131,565
28,721	-11,401	280,554	131,518
29,736	-11,396	280,272	131,379
30,750	-11,480	279,925	131,124
31,765	-11,553	279,774	130,973
32,780	-11,475	279,409	130,863
33,794	-11,586	279,365	130,725
34,809	-11,521	279,003	130,607
35,823	-11,636	278,690	130,339
36,838	-11,460	278,420	130,368
37,853	-11,391	278,140	130,290
38,867	-11,384	277,807	130,130
39,882	-11,484	277,572	129,914
40,896	-11,481	277,455	129,850
41,911	-11,602	277,282	129,643
42,926	-11,462	277,008	129,636
43,940	-11,545	276,795	129,446
44,955	-11,506	276,476	129,323
45,969	-11,518	276,289	129,212
46,984	-11,675	275,994	128,915
47,999	-11,928	275,752	128,552
49,013	-12,044	275,434	128,284
50,028	-12,092	275,050	128,048
51,042	-12,126	274,789	127,883
52,057	-12,210	274,631	127,720
53,071	-12,118	274,547	127,756
54,086	-12,048	274,294	127,692
55,101	-11,860	274,163	127,795
56,115	-11,726	274,051	127,857
57,130	-11,482	273,783	127,948
58,144	-11,480	273,735	127,916
59,159	-11,431	273,438	127,811
60,174	-11,319	273,125	127,758
61,188	-11,325	272,857	127,615
62,203	-11,572	272,672	127,288
63,217	-11,368	272,393	127,336
64,232	-11,291	272,245	127,327
65,247	-11,330	271,997	127,164
66,261	-11,434	271,785	126,957
67,276	-11,550	271,482	126,696
68,290	-11,538	271,188	126,559
69,305	-11,713	271,036	126,315
70,320	-11,573	270,826	126,335
71,334	-11,443	270,691	126,381
72,349	-11,235	270,385	126,418
73,363	-11,419	270,308	126,202
74,378	-11,342	269,760	126,006
75,393	-11,378	269,765	125,963
76,407	-11,285	269,475	125,902
77,422	-11,411	269,271	125,680
78,436	-11,482	269,043	125,498
79,451	-11,275	268,803	125,563
80,466	-11,345	268,593	125,390
81,480	-11,422	268,423	125,229
82,495	-11,391	268,131	125,110
83,509	-11,559	268,053	124,910
84,524	-11,499	267,705	124,791
85,539	-11,644	267,473	124,540
86,553	-11,652	267,369	124,474
87,568	-11,631	267,219	124,411
88,582	-11,585	266,897	124,293
89,597	-11,581	266,624	124,157
90,611	-11,245	266,486	124,387
91,626	-11,166	266,294	124,357
92,641	-11,518	266,287	124,024
93,655	-11,376	265,871	123,948
94,670	-11,607	265,846	123,716
95,684	-11,431	265,551	123,726
96,699	-11,292	265,247	123,700
97,714	-11,452	265,138	123,493
98,728	-11,573	264,827	123,229
99,743	-11,653	264,701	123,087
100,757	-11,637	264,630	123,058
101,772	-11,461	264,250	123,028
102,787	-11,550	264,035	122,837
103,801	-11,503	263,895	122,803
104,816	-11,435	263,742	122,782
105,830	-11,528	263,704	122,669
106,845	-11,242	263,417	122,781
107,860	-11,253	263,167	122,644
108,874	-11,326	262,900	122,443
109,889	-11,322	262,640	122,314
110,903	-11,399	262,453	122,149
111,918	-11,414	262,148	121,982
112,933	-11,548	262,187	121,871
113,947	-11,325	261,977	121,960
114,962	-11,504	261,831	121,722
115,976	-11,317	261,611	121,775
116,991	-11,446	261,361	121,533
118,006	-11,304	261,089	121,522
119,020	-11,534	261,242	121,378
120,035	-11,371	261,032	121,414
121,049	-11,531	260,903	121,202
122,064	-11,226	260,634	121,335
123,079	-11,332	260,265	121,060
124,093	-11,510	260,052	120,793
125,108	-11,668	259,878	120,562
126,122	-11,499	259,525	120,536
127,137	-11,785	259,365	120,200
128,151	-11,680	259,266	120,236
129,166	-11,531	259,084	120,271
130,181	-11,457	258,761	120,175
131,195	-11,814	258,630	119,791
132,210	-11,467	258,466	120,008
133,224	-11,317	258,244	120,025
134,239	-11,085	258,088	120,145
135,254	-11,394	257,900	119,777
136,268	-11,436	257,676	119,625
137,283	-11,690	257,423	119,276
138,297	-11,777	257,243	119,106
139,312	-11,731	256,914	118,983
140,327	-11,574	257,045	119,170
141,341	-11,365	256,751	119,204
142,356	-11,403	256,708	119,141
143,370	-11,319	256,497	119,105
144,385	-11,304	256,324	119,027
145,400	-11,342	256,224	118,937
146,414	-11,233	256,083	118,956
147,429	-11,226	255,595	118,725
148,443	-11,262	255,473	118,626
149,458	-11,027	255,328	118,751
150,473	-11,015	255,075	118,633
151,487	-11,374	254,886	118,225
152,502	-11,199	254,796	118,324
153,516	-11,224	254,541	118,174
154,531	-11,116	254,397	118,188
155,546	-11,103	254,219	118,106
156,560	-11,130	254,031	117,985
157,575	-11,397	253,789	117,633
158,589	-11,373	253,589	117,552
159,604	-11,160	253,513	117,688
160,619	-11,382	253,235	117,359
161,633	-11,340	253,172	117,355
162,648	-11,226	252,946	117,336
163,662	-11,104	252,719	117,325
164,677	-11,349	252,744	117,117
165,692	-11,091	252,521	117,223
166,706	-11,088	252,146	117,041
167,721	-11,146	252,121	116,970
168,735	-11,100	251,875	116,884
169,750	-10,980	251,773	116,929
170,764	-11,020	251,828	116,910
171,779	-11,058	251,501	116,715
172,794	-11,055	251,367	116,645
173,808	-11,250	251,082	116,337
174,823	-11,509	250,705	115,933
175,837	-11,706	250,466	115,646
176,852	-11,200	250,440	116,051
177,867	-11,148	250,544	116,133
178,881	-11,173	250,261	115,971
179,896	-11,132	250,120	115,929
180,910	-11,004	249,799	115,878
181,925	-11,116	249,702	115,728
182,940	-10,971	249,414	115,706
183,954	-10,935	249,375	115,708
184,969	-10,984	249,276	115,610
185,983	-11,156	249,064	115,358
186,998	-10,963	248,853	115,411
188,013	-10,822	248,561	115,384
189,027	-11,156	248,598	115,111
190,042	-11,104	248,353	115,031
191,056	-11,066	248,134	114,951
192,071	-10,948	247,887	114,925
193,086	-11,118	247,783	114,725
194,100	-11,111	247,744	114,702
195,115	-11,077	247,507	114,610
196,129	-10,976	247,175	114,531
197,144	-11,212	247,113	114,295
198,159	-10,939	246,848	114,389
199,173	-11,041	246,656	114,206
200,188	-10,967	246,556	114,210
201,202	-11,394	246,207	113,685
202,217	-11,606	245,991	113,400
203,232	-11,761	245,740	113,146
204,246	-11,278	245,773	113,550
205,261	-10,574	245,553	114,020
206,275	-11,874	245,228	112,787
207,290	-8,036	246,866	116,714
208,304	0,505	249,504	125,089
209,319	4,314	250,578	128,802
210,334	4,820	250,671	129,261
211,348	4,768	250,625	129,182
212,363	5,036	250,408	129,283
213,377	5,320	250,398	129,503
214,392	5,058	250,221	129,182
215,407	4,845	250,022	128,890
216,421	5,032	249,810	128,925
217,436	5,359	249,608	129,080
218,450	5,315	249,533	128,994
219,465	5,197	249,176	128,700
220,480	5,115	249,025	128,542
221,494	4,871	248,796	128,211
222,509	4,798	248,694	128,087
223,523	4,780	248,573	127,998
224,538	4,497	248,202	127,562
225,553	4,312	248,009	127,299
226,567	4,658	248,092	127,615
227,582	4,554	248,021	127,482
228,596	4,663	247,735	127,413
229,611	4,414	247,396	127,022
230,626	4,485	247,118	126,927
231,640	4,511	247,066	126,910
232,655	4,500	247,091	126,903
233,669	4,579	246,620	126,714
234,684	4,243	246,493	126,362
235,699	4,771	246,563	126,820
236,713	4,966	246,421	126,894
237,728	4,592	246,139	126,432
238,742	4,337	246,058	126,171
239,757	4,378	245,644	125,981
240,772	4,423	245,571	125,969
241,786	4,610	245,437	126,041
242,801	4,413	245,167	125,731
243,815	4,557	245,061	125,783
244,830	4,584	245,012	125,769
245,844	4,645	244,881	125,739
246,859	4,618	244,656	125,591
247,874	4,404	244,419	125,284
248,888	4,426	244,509	125,337
249,903	4,708	244,283	125,438
250,917	4,548	244,117	125,212
251,932	4,692	244,026	125,272
252,947	4,826	243,833	125,269
253,961	4,561	243,601	124,925
254,976	4,339	243,520	124,693
255,990	4,533	243,400	124,777
257,005	4,325	243,081	124,435
258,020	4,285	242,924	124,311
259,034	4,418	242,864	124,376
260,049	4,543	242,747	124,406
261,063	4,471	242,423	124,171
262,078	4,569	242,215	124,132
263,093	4,515	242,233	124,087
264,107	4,656	242,112	124,127
265,122	4,453	241,899	123,843
266,136	4,595	241,817	123,905
267,151	4,694	241,817	123,973
268,166	4,432	241,364	123,520
269,180	4,264	241,312	123,348
270,195	4,679	241,359	123,693
271,209	5,176	241,231	124,014
272,224	4,486	240,791	123,226
273,239	4,237	240,696	122,968
274,253	4,128	240,472	122,756
275,268	4,471	240,318	122,939
276,282	4,607	240,109	122,929
277,297	4,231	239,961	122,544
278,312	4,314	239,774	122,503
279,326	4,538	239,852	122,710
280,341	4,699	239,629	122,713
281,355	4,567	239,479	122,520
282,370	4,634	239,350	122,497
283,384	4,517	239,221	122,326
284,399	4,345	239,000	122,067
285,414	4,189	238,675	121,767
286,428	4,225	238,640	121,767
287,443	4,459	238,458	121,847
288,457	4,538	238,382	121,860
289,472	4,578	238,302	121,840
290,487	4,699	238,087	121,814
291,501	4,389	237,852	121,439
292,516	4,217	237,587	121,158
293,530	4,126	237,608	121,086
294,545	4,440	237,422	121,227
295,560	4,540	237,253	121,209
296,574	4,144	237,129	120,824
297,589	4,473	237,011	121,011
298,603	4,771	236,929	121,192
299,618	4,654	236,859	121,053
300,633	4,581	236,663	120,886
301,647	4,715	236,395	120,843
302,662	4,773	236,688	121,027
303,676	4,903	236,271	120,904
304,691	4,673	236,163	120,659
305,706	4,809	236,050	120,697
306,720	4,927	235,751	120,625
307,735	4,983	235,619	120,590
308,749	4,618	235,443	120,206
309,764	4,472	235,180	119,947
310,779	4,308	234,909	119,671
311,793	4,021	234,782	119,372
312,808	4,085	234,621	119,330
313,822	4,129	234,462	119,273
314,837	4,350	234,315	119,358
315,852	4,059	234,086	119,006
316,866	4,124	234,114	119,060
317,881	4,789	234,104	119,558
318,895	4,960	234,162	119,709
319,910	4,881	233,857	119,481
320,925	4,547	233,545	119,054
321,939	4,159	233,424	118,683
322,954	4,339	233,362	118,779
323,968	4,393	233,193	118,724
324,983	4,558	233,069	118,777
325,997	4,900	233,016	119,003
327,012	4,738	232,783	118,749
328,027	4,667	232,688	118,635
329,041	5,078	232,576	118,883
330,056	5,362	232,502	119,051
331,070	5,215	232,403	118,878
332,085	4,777	232,170	118,413
333,100	4,782	231,794	118,214
334,114	4,711	231,690	118,097
335,129	4,863	231,641	118,177
336,143	4,867	231,556	118,126
337,158	4,902	231,351	118,038
338,173	4,729	231,167	117,802
339,187	4,384	230,948	117,417
340,202	4,623	230,905	117,567
341,216	4,731	230,698	117,532
342,231	4,501	230,582	117,289
343,246	4,450	230,447	117,171
344,260	4,708	230,352	117,308
345,275	5,077	230,202	117,501
346,289	4,932	230,092	117,324
347,304	4,946	230,012	117,284
348,319	4,795	229,871	117,086
349,333	4,803	229,545	116,916
350,348	4,511	229,459	116,641
351,362	4,618	229,295	116,629
352,377	4,504	229,076	116,420
353,392	4,183	228,973	116,116
354,406	4,475	228,854	116,265
355,421	195,579	1316,712	1392,260
356,435	156,885	1449,212	1392,213
