DTS Sentinel unit serial number:	SN410029Multiplexer serial number:	ORYXHardware model number:	OX2-SRSoftware version number:	ORYX F/W v4,00 Oryx Data Collector v3.7.2.0data status	okinstallation	B5 Nyhavnadifferential loss correction	single-endedforward channel	channel 2reverse channel	N/Adate	2023/12/11time	20:47:13forward acquisition time	300,00reverse acquisition time	0,00gamma	499,1914k internal	0,3157k external	0,3157temperature offset calibration	1,0000default loss term (dB/km)	0,3820temperature slope calibration	1,0000multiplexer offset coefficient	1,0000multiplexer slope coefficient	1,0000fibre end	0,00T internal ref (°C)	16,06T ext. ref 1 (°C)	0,20T ext. ref 2 (°C)	-0,04length (m)	temperature (°C)	Stokes	anti-Stokes-744,400	-100,729	0,121	0,022
-743,385	-71,877	-0,296	0,081
-742,371	-17,405	0,045	0,021
-741,356	125,624	-0,175	0,163
-740,342	-200,000	-0,012	0,071
-739,327	-66,674	-0,336	-0,098
-738,312	18,524	-0,055	0,033
-737,298	-65,285	-0,254	0,075
-736,283	30,335	0,077	-0,048
-735,269	-129,436	-0,246	0,025
-734,254	-147,220	0,184	-0,011
-733,239	-86,168	-0,474	-0,107
-732,225	-51,876	0,203	0,069
-731,210	-200,000	-0,001	-0,066
-730,196	-106,444	0,021	-0,003
-729,181	800,000	-0,045	0,101
-728,167	-85,286	-0,086	0,020
-727,152	52,134	0,087	-0,061
-726,137	-200,000	-0,001	-0,034
-725,123	800,000	-0,042	-0,113
-724,108	41,466	-0,097	-0,065
-723,094	-200,000	-0,041	-0,141
-722,079	-65,423	-0,078	-0,023
-721,064	146,591	0,058	-0,058
-720,050	-200,000	-0,015	-0,130
-719,035	189,190	0,107	-0,118
-718,021	-3,309	-0,067	0,034
-717,006	800,000	-0,018	-0,041
-715,991	249,858	-0,094	-0,118
-714,977	-200,000	-0,028	-0,099
-713,962	-200,000	-0,025	-0,140
-712,948	-75,770	0,057	0,015
-711,933	153,355	-0,091	-0,092
-710,918	-200,000	0,007	0,095
-709,904	-76,940	-0,255	-0,065
-708,889	80,240	0,051	-0,041
-707,875	800,000	-0,086	-0,238
-706,860	266,662	-0,087	0,113
-705,845	-200,000	0,019	0,124
-704,831	-189,050	0,059	0,001
-703,816	-200,000	0,010	-0,199
-702,802	-22,571	-0,137	-0,061
-701,787	-200,000	-0,009	-0,030
-700,772	-125,562	-0,032	0,004
-699,758	76,004	-0,058	0,045
-698,743	-122,847	-0,029	-0,003
-697,729	110,930	0,032	-0,028
-696,714	800,000	0,026	-0,072
-695,699	227,332	0,081	-0,097
-694,685	424,678	-0,065	0,103
-693,670	800,000	0,046	0,097
-692,656	15,469	-0,068	0,039
-691,641	800,000	0,037	-0,106
-690,627	-166,864	-0,158	-0,005
-689,612	-41,129	0,018	0,007
-688,597	-200,000	0,014	0,106
-687,583	800,000	0,025	-0,077
-686,568	343,357	-0,099	-0,143
-685,554	-141,580	-0,049	-0,004
-684,539	58,198	0,108	-0,078
-683,524	374,974	-0,062	0,093
-682,510	-200,000	0,018	-0,063
-681,495	27,087	-0,049	-0,030
-680,481	-19,352	-0,137	-0,062
-679,466	-130,948	-0,161	-0,016
-678,451	-68,314	-0,160	-0,045
-677,437	-200,000	-0,004	0,187
-676,422	650,940	-0,072	0,136
-675,408	-200,000	-0,014	0,061
-674,393	271,634	0,075	-0,098
-673,378	582,569	-0,034	-0,062
-672,364	176,791	0,018	-0,019
-671,349	-92,278	-0,067	0,014
-670,335	245,184	-0,088	0,109
-669,320	27,418	0,080	-0,050
-668,305	-78,479	0,117	0,029
-667,291	-32,917	-0,051	-0,021
-666,276	800,000	-0,035	0,079
-665,262	-66,363	-0,079	-0,023
-664,247	511,092	0,065	-0,111
-663,232	32,045	0,142	-0,090
-662,218	-94,955	0,112	-0,022
-661,203	-200,000	0,024	-0,130
-660,189	-39,231	-0,135	0,052
-659,174	-180,210	-0,003	0,000
-658,159	800,000	-0,027	0,070
-657,145	-86,022	-0,046	-0,010
-656,130	-138,839	-0,102	-0,008
-655,116	88,349	0,051	-0,041
-654,101	-71,696	0,152	-0,041
-653,086	219,144	0,002	-0,002
-652,072	-137,256	-0,076	-0,006
-651,057	-58,318	-0,108	0,034
-650,043	347,638	-0,037	0,053
-649,028	-200,000	-0,007	-0,023
-648,014	214,358	-0,048	-0,056
-646,999	-200,000	0,006	0,072
-645,984	63,933	0,080	0,059
-644,970	-200,000	0,018	-0,092
-643,955	377,955	-0,059	0,088
-642,941	225,819	-0,072	-0,086
-641,926	-71,063	-0,070	0,019
-640,911	448,471	0,032	0,051
-639,897	800,000	0,072	-0,193
-638,882	-36,934	-0,058	0,023
-637,868	-200,000	0,005	-0,118
-636,853	392,993	-0,031	-0,048
-635,838	303,669	-0,024	-0,033
-634,824	-200,000	-0,011	-0,265
-633,809	800,000	0,055	0,125
-632,795	-118,298	-0,062	0,008
-631,780	120,373	0,080	0,073
-630,765	-200,000	-0,007	-0,043
-629,751	140,720	-0,070	-0,068
-628,736	-170,450	-0,139	-0,003
-627,722	-128,011	0,093	-0,010
-626,707	800,000	-0,013	0,037
-625,692	-74,020	0,018	0,005
-624,678	-99,497	0,071	0,013
-623,663	-85,406	-0,140	-0,032
-622,649	378,655	0,067	-0,100
-621,634	-200,000	-0,015	-0,183
-620,619	71,155	-0,089	-0,068
-619,605	142,568	0,079	-0,077
-618,590	61,878	-0,096	0,070
-617,576	-67,771	0,027	-0,008
-616,561	800,000	0,010	0,024
-615,546	-35,753	0,062	-0,025
-614,532	589,298	-0,047	-0,086
-613,517	66,317	-0,054	-0,040
-612,503	112,242	0,049	0,043
-611,488	800,000	0,064	0,132
-610,474	125,790	0,065	0,061
-609,459	227,536	0,059	-0,071
-608,444	800,000	-0,055	-0,147
-607,430	-200,000	0,004	0,056
-606,415	-72,112	-0,106	-0,029
-605,401	-58,787	-0,178	-0,056
-604,386	19,105	0,049	0,029
-603,371	-93,840	0,037	0,007
-602,357	-200,000	0,000	0,013
-601,342	-87,257	0,062	0,014
-600,328	-200,000	-0,005	-0,209
-599,313	-166,441	0,026	-0,001
-598,298	-200,000	-0,005	-0,078
-597,284	-200,000	-0,001	0,011
-596,269	-104,700	0,093	-0,015
-595,255	-89,616	-0,116	-0,025
-594,240	-49,651	-0,063	0,022
-593,225	-200,000	0,003	-0,076
-592,211	-200,000	0,007	0,028
-591,196	-200,000	-0,010	-0,076
-590,182	11,765	-0,056	-0,032
-589,167	800,000	0,051	-0,114
-588,152	-103,597	-0,109	-0,019
-587,138	-32,700	-0,014	0,006
-586,123	349,371	0,078	-0,114
-585,109	362,576	0,097	-0,143
-584,094	800,000	-0,016	-0,038
-583,079	581,588	0,051	-0,091
-582,065	-100,469	-0,066	0,012
-581,050	800,000	0,035	0,086
-580,036	-200,000	0,022	-0,125
-579,021	-200,000	-0,003	-0,042
-578,006	-161,693	0,143	0,005
-576,992	569,249	-0,057	-0,102
-575,977	743,036	0,022	0,044
-574,963	35,153	0,047	-0,030
-573,948	-89,749	0,062	-0,013
-572,934	-78,003	-0,080	0,020
-571,919	-147,544	0,189	0,012
-570,904	419,371	0,041	0,064
-569,890	29,024	0,023	0,014
-568,875	315,439	0,027	-0,038
-567,861	140,084	-0,056	-0,054
-566,846	800,000	0,015	-0,031
-565,831	263,163	-0,083	-0,105
-564,817	-143,495	0,080	0,005
-563,802	162,668	-0,086	0,088
-562,788	-4,895	0,039	-0,020
-561,773	-200,000	-0,032	0,180
-560,758	97,609	-0,108	0,091
-559,744	800,000	-0,028	0,069
-558,729	-200,000	0,025	0,112
-557,715	-200,000	-0,042	0,161
-556,700	419,450	-0,085	-0,133
-555,685	-200,000	0,012	-0,050
-554,671	36,592	-0,049	0,032
-553,656	193,724	0,053	0,059
-552,642	-102,666	0,029	0,005
-551,627	327,142	0,046	-0,065
-550,612	-200,000	0,006	-0,096
-549,598	243,409	-0,001	0,001
-548,583	-49,422	0,189	0,066
-547,569	-200,000	-0,005	-0,076
-546,554	17,481	0,062	0,036
-545,539	800,000	0,015	-0,038
-544,525	-101,938	-0,093	-0,016
-543,510	-162,138	-0,139	-0,005
-542,496	800,000	0,018	-0,052
-541,481	254,310	0,014	-0,018
-540,466	800,000	-0,040	0,084
-539,452	11,292	0,066	-0,037
-538,437	561,845	-0,016	-0,029
-537,423	-200,000	-0,013	-0,141
-536,408	335,004	-0,030	0,043
-535,393	-200,000	0,012	-0,117
-534,379	-200,000	0,005	-0,096
-533,364	138,435	-0,078	-0,074
-532,350	-114,750	0,083	0,012
-531,335	258,012	0,044	0,056
-530,321	331,689	0,080	0,112
-529,306	450,143	-0,046	-0,075
-528,291	-200,000	-0,001	0,013
-527,277	800,000	-0,017	0,051
-526,262	-89,941	0,102	-0,022
-525,248	97,609	-0,134	-0,112
-524,233	-65,751	0,063	-0,018
-523,218	-200,000	-0,001	0,068
-522,204	443,607	0,029	0,047
-521,189	800,000	-0,038	-0,101
-520,175	230,293	-0,044	-0,052
-519,160	-23,406	0,085	-0,037
-518,145	63,279	0,004	-0,003
-517,131	800,000	0,009	0,021
-516,116	48,500	0,041	0,028
-515,102	-200,000	0,006	0,034
-514,087	29,001	-0,081	-0,050
-513,072	-200,000	-0,007	-0,121
-512,058	-200,000	-0,007	-0,051
-511,043	800,000	0,063	0,163
-510,029	800,000	0,054	0,122
-509,014	-146,558	-0,099	0,006
-507,999	40,721	-0,148	0,098
-506,985	627,424	-0,018	-0,034
-505,970	800,000	-0,037	-0,093
-504,956	-200,000	0,002	-0,035
-503,941	177,654	-0,050	0,053
-502,926	-200,000	-0,013	0,069
-501,912	800,000	0,033	0,073
-500,897	518,145	0,058	-0,099
-499,883	-20,939	-0,072	0,032
-498,868	-139,272	-0,193	0,015
-497,853	-62,005	-0,058	0,017
-496,839	-27,205	0,104	0,044
-495,824	154,113	0,056	0,056
-494,810	-200,000	0,025	0,131
-493,795	800,000	-0,047	-0,097
-492,781	-200,000	0,006	0,035
-491,766	-200,000	0,001	0,022
-490,751	128,645	-0,107	-0,099
-489,737	-147,846	-0,179	-0,011
-488,722	318,370	-0,030	-0,042
-487,708	173,253	0,069	0,073
-486,693	511,949	0,082	0,140
-485,678	-114,385	-0,158	0,022
-484,664	800,000	0,033	-0,084
-483,649	-200,000	-0,007	-0,040
-482,635	142,721	-0,063	0,062
-481,620	103,437	0,032	-0,027
-480,605	-200,000	0,028	0,098
-479,591	-81,849	-0,110	0,026
-478,576	148,794	-0,105	-0,104
-477,562	-90,330	-0,067	0,014
-476,547	-63,299	-0,074	-0,022
-475,532	86,796	0,058	-0,046
-474,518	-38,017	-0,032	0,012
-473,503	-200,000	0,014	-0,064
-472,489	-10,372	0,126	-0,061
-471,474	-36,964	-0,039	-0,015
-470,459	-92,805	0,088	-0,018
-469,445	129,366	-0,057	-0,053
-468,430	-93,400	-0,166	0,033
-467,416	29,634	0,080	0,050
-466,401	-39,336	0,072	0,027
-465,386	49,170	0,076	0,052
-464,372	60,589	0,098	0,071
-463,357	-126,590	-0,034	-0,004
-462,343	-83,748	-0,061	-0,014
-461,328	-56,680	0,097	-0,031
-460,313	110,627	0,098	0,086
-459,299	13,742	0,142	-0,080
-458,284	800,000	-0,039	0,084
-457,270	-33,466	-0,087	-0,035
-456,255	-10,370	0,040	0,019
-455,241	-102,251	-0,151	0,026
-454,226	-186,684	-0,125	0,001
-453,211	-12,170	0,101	0,048
-452,197	-5,007	0,058	0,029
-451,182	-64,190	-0,075	0,022
-450,168	-200,000	0,025	-0,172
-449,153	238,421	0,075	-0,091
-448,138	258,124	-0,083	-0,105
-447,124	151,301	0,115	0,115
-446,109	-12,989	0,136	0,064
-445,095	-200,000	-0,017	0,073
-444,080	-6,442	-0,047	-0,023
-443,065	800,000	-0,026	0,053
-442,051	800,000	0,040	-0,107
-441,036	-200,000	0,003	-0,034
-440,022	-200,000	0,006	-0,070
-439,007	-200,000	-0,013	-0,134
-437,992	382,589	0,051	0,076
-436,978	-200,000	0,002	-0,020
-435,963	677,161	-0,081	0,154
-434,949	232,635	0,117	0,141
-433,934	493,185	-0,082	-0,138
-432,919	800,000	0,036	-0,100
-431,905	-151,793	-0,110	0,006
-430,890	-200,000	0,015	0,187
-429,876	-32,331	-0,088	-0,036
-428,861	-97,887	0,176	-0,033
-427,846	183,512	-0,099	0,107
-426,832	105,486	-0,059	0,051
-425,817	800,000	-0,089	-0,232
-424,803	800,000	0,009	0,026
-423,788	800,000	0,059	-0,140
-422,773	800,000	0,073	-0,149
-421,759	-10,051	0,094	-0,045
-420,744	-64,490	-0,099	0,029
-419,730	-116,903	-0,119	-0,016
-418,715	-57,475	-0,072	0,023
-417,701	-66,068	0,095	0,027
-416,686	-200,000	-0,018	-0,075
-415,671	-115,800	-0,076	-0,010
-414,657	-200,000	-0,007	-0,070
-413,642	-78,629	0,057	0,014
-412,628	-24,278	0,042	0,018
-411,613	-200,000	-0,012	0,047
-410,598	-18,804	0,081	-0,037
-409,584	-14,446	-0,052	0,024
-408,569	504,452	0,044	0,074
-407,555	270,865	0,087	0,111
-406,540	800,000	0,019	-0,044
-405,525	800,000	-0,061	-0,157
-404,511	-200,000	-0,016	-0,082
-403,496	19,499	-0,083	-0,048
-402,482	-200,000	0,033	0,157
-401,467	-200,000	0,031	0,131
-400,452	172,473	0,088	0,093
-399,438	339,886	-0,062	0,088
-398,423	298,769	-0,093	-0,125
-397,409	-200,000	-0,006	-0,133
-396,394	800,000	-0,016	0,044
-395,379	694,527	0,020	-0,039
-394,365	-200,000	0,020	0,127
-393,350	232,935	-0,030	0,036
-392,336	-44,214	0,061	-0,022
-391,321	32,347	-0,046	0,029
-390,306	-81,920	-0,049	0,012
-389,292	568,027	0,017	0,030
-388,277	-81,202	-0,156	-0,037
-387,263	800,000	0,032	-0,088
-386,248	-200,000	0,000	0,027
-385,233	-200,000	0,019	0,076
-384,219	13,557	0,145	-0,082
-383,204	-200,000	-0,006	0,068
-382,190	-141,846	-0,071	-0,005
-381,175	234,016	-0,056	-0,067
-380,160	409,431	0,037	0,058
-379,146	800,000	0,023	0,068
-378,131	800,000	-0,061	0,124
-377,117	145,074	-0,066	-0,064
-376,102	67,030	-0,201	-0,149
-375,088	154,767	0,061	0,061
-374,073	-200,000	-0,002	-0,021
-373,058	-200,000	-0,009	0,031
-372,044	-49,470	0,105	-0,036
-371,029	209,059	0,029	0,033
-370,015	-118,549	0,044	-0,006
-369,000	-161,521	0,125	0,005
-367,985	-84,839	0,052	-0,012
-366,971	253,161	-0,096	-0,120
-365,956	-38,240	-0,060	-0,023
-364,942	202,194	-0,016	-0,018
-363,927	15,637	0,133	0,076
-362,912	144,308	-0,035	-0,034
-361,898	-46,648	0,062	0,022
-360,883	-63,247	-0,152	0,045
-359,869	-67,599	0,042	-0,012
-358,854	-49,252	0,040	0,014
-357,839	-200,000	-0,003	0,014
-356,825	151,805	0,061	0,061
-355,810	344,253	0,090	0,129
-354,796	800,000	0,027	-0,071
-353,781	-55,654	-0,086	-0,028
-352,766	-177,695	-0,116	-0,002
-351,752	-200,000	-0,003	0,116
-350,737	-112,663	0,051	0,007
-349,723	-11,921	0,040	0,019
-348,708	-200,000	0,001	0,099
-347,693	34,073	-0,010	-0,007
-346,679	-200,000	-0,003	0,094
-345,664	-200,000	0,001	-0,074
-344,650	800,000	0,025	-0,065
-343,635	110,434	0,106	-0,092
-342,620	169,375	-0,083	0,086
-341,606	612,912	-0,074	-0,134
-340,591	145,950	0,105	0,102
-339,577	-200,000	-0,023	0,077
-338,562	741,205	0,028	-0,054
-337,548	-109,281	0,095	-0,014
-336,533	322,607	0,124	0,172
-335,518	800,000	-0,032	0,089
-334,504	378,172	0,085	0,126
-333,489	-200,000	0,026	-0,090
-332,475	-140,843	-0,109	0,008
-331,460	800,000	0,029	-0,070
-330,445	283,717	0,042	0,055
-329,431	-190,642	0,032	-0,000
-328,416	230,438	-0,037	-0,044
-327,402	-200,000	0,009	0,088
-326,387	72,993	-0,034	0,026
-325,372	0,706	-0,037	0,019
-324,358	800,000	-0,013	0,028
-323,343	471,508	0,086	0,141
-322,329	12,399	0,121	0,068
-321,314	-59,393	0,110	-0,034
-320,299	-200,000	0,012	-0,114
-319,285	-200,000	-0,012	-0,110
-318,270	-41,588	-0,066	0,024
-317,256	-200,000	-0,010	0,130
-316,241	306,720	-0,044	-0,060
-315,226	800,000	0,029	-0,083
-314,212	-41,599	0,086	0,032
-313,197	387,684	0,039	0,058
-312,183	800,000	0,028	0,065
-311,168	-42,537	-0,111	-0,041
-310,153	413,482	-0,033	-0,051
-309,139	23,864	-0,065	0,039
-308,124	103,996	0,102	-0,087
-307,110	65,711	-0,027	0,020
-306,095	-200,000	-0,019	0,208
-305,080	800,000	0,030	0,090
-304,066	281,074	-0,106	0,137
-303,051	-200,000	-0,002	-0,013
-302,037	734,323	-0,059	-0,116
-301,022	577,798	0,058	0,104
-300,008	40,625	0,068	0,045
-298,993	175,891	-0,098	-0,103
-297,978	-200,000	-0,006	0,214
-296,964	-48,591	-0,059	-0,020
-295,949	367,836	0,066	-0,097
-294,935	-106,615	-0,172	0,028
-293,920	-122,341	-0,112	0,013
-292,905	301,774	0,088	0,118
-291,891	-118,129	0,082	0,010
-290,876	-200,000	0,004	0,110
-289,862	769,004	-0,043	0,085
-288,847	-200,000	0,033	0,125
-287,832	626,215	-0,021	0,039
-286,818	-105,637	-0,046	-0,007
-285,803	-44,572	0,103	-0,037
-284,789	-45,075	0,167	0,060
-283,774	-11,625	0,189	0,090
-282,759	-200,000	-0,014	-0,110
-281,745	-91,530	-0,092	-0,019
-280,730	123,725	-0,119	-0,108
-279,716	-200,000	-0,023	-0,102
-278,701	130,872	0,045	-0,041
-277,686	-200,000	0,004	0,106
-276,672	800,000	0,026	0,064
-275,657	153,537	0,156	0,155
-274,643	-70,583	-0,111	0,030
-273,628	-73,233	-0,036	0,009
-272,613	800,000	0,027	-0,083
-271,599	-49,691	0,129	-0,044
-270,584	-62,199	-0,136	0,041
-269,570	686,899	-0,003	-0,006
-268,555	27,324	-0,092	-0,056
-267,540	-31,221	-0,065	0,027
-266,526	525,377	0,035	-0,060
-265,511	800,000	-0,009	-0,028
-264,497	-200,000	-0,013	-0,061
-263,482	800,000	-0,033	-0,100
-262,467	98,535	-0,028	0,023
-261,453	481,366	0,037	-0,061
-260,438	441,724	-0,028	0,044
-259,424	206,022	-0,021	0,023
-258,409	-200,000	0,002	0,020
-257,395	-200,000	0,025	0,115
-256,380	376,431	0,035	-0,051
-255,365	20,430	-0,042	0,024
-254,351	-16,628	-0,004	-0,002
-253,336	386,432	-0,076	-0,113
-252,322	800,000	0,035	-0,099
-251,307	141,417	0,044	0,043
-250,292	5,584	-0,116	0,062
-249,278	-171,494	0,107	-0,003
-248,263	157,949	-0,081	0,081
-247,249	304,235	-0,026	0,036
-246,234	-26,830	-0,050	-0,021
-245,219	682,631	0,019	-0,036
-244,205	-200,000	-0,023	0,077
-243,190	278,889	0,070	-0,090
-242,176	183,966	0,066	0,070
-241,161	-30,766	0,095	0,039
-240,146	-102,785	-0,105	0,018
-239,132	205,442	-0,104	0,117
-238,117	-200,000	0,008	-0,168
-237,103	418,363	0,031	0,049
-236,088	96,623	-0,132	-0,109
-235,073	-50,039	0,108	0,037
-234,059	-200,000	0,020	0,081
-233,044	-200,000	0,041	0,214
-232,030	49,247	-0,136	0,092
-231,015	10,200	-0,081	0,044
-230,000	715,178	-0,006	0,012
-228,986	-101,971	0,109	0,019
-227,971	116,919	-0,101	-0,089
-226,957	-32,784	0,138	0,055
-225,942	-32,484	0,113	0,045
-224,927	-200,000	0,006	-0,040
-223,913	-17,318	-0,089	-0,040
-222,898	679,113	-0,124	-0,233
-221,884	-155,888	-0,078	0,004
-220,869	-200,000	-0,010	-0,103
-219,855	-150,372	0,068	-0,004
-218,840	-7,741	0,024	-0,012
-217,825	213,812	-0,028	0,032
-216,811	-75,874	0,092	0,023
-215,796	-49,934	-0,114	-0,039
-214,782	-200,000	-0,015	-0,092
-213,767	11,723	0,124	0,068
-212,752	102,480	-0,048	-0,041
-211,738	-4,756	0,031	0,015
-210,723	-2,019	-0,122	0,062
-209,709	-200,000	0,023	0,126
-208,694	248,196	-0,055	-0,068
-207,679	-52,022	0,137	0,046
-206,665	-200,000	-0,055	-0,196
-205,650	800,000	-0,071	0,147
-204,636	-200,000	0,034	0,135
-203,621	22,647	-0,004	-0,003
-202,606	-75,746	0,004	-0,001
-201,592	-200,000	-0,010	-0,037
-200,577	68,157	0,045	0,033
-199,563	-155,895	0,052	0,002
-198,548	-16,429	0,114	0,052
-197,533	-158,204	0,095	-0,004
-196,519	-12,605	0,082	0,038
-195,504	56,408	-0,115	-0,081
-194,490	390,931	-0,014	-0,020
-193,475	-78,942	-0,033	0,008
-192,460	-85,815	-0,132	-0,029
-191,446	-200,000	-0,016	0,241
-190,431	800,000	0,022	0,068
-189,417	184,950	0,066	-0,071
-188,402	-17,804	0,114	-0,051
-187,387	10,968	0,043	-0,024
-186,373	254,959	0,047	-0,058
-185,358	99,946	-0,070	-0,058
-184,344	114,082	0,041	-0,036
-183,329	-2,516	0,090	0,046
-182,315	800,000	-0,039	0,082
-181,300	258,495	-0,059	-0,074
-180,285	-92,491	0,118	0,024
-179,271	-200,000	-0,006	-0,212
-178,256	-200,000	-0,005	-0,084
-177,242	-28,306	-0,074	0,031
-176,227	-62,094	0,044	-0,013
-175,212	800,000	-0,043	0,122
-174,198	-138,007	-0,070	-0,006
-173,183	-73,935	-0,031	0,008
-172,169	-200,000	-0,003	0,017
-171,154	6,591	0,056	0,030
-170,139	57,973	0,062	0,044
-169,125	27,320	-0,039	-0,023
-168,110	-200,000	0,016	0,067
-167,096	61,963	0,061	-0,044
-166,081	-200,000	-0,004	0,128
-165,066	-117,411	0,138	0,018
-164,052	-112,387	-0,064	0,009
-163,037	-115,481	-0,116	0,016
-162,023	-200,000	0,033	0,128
-161,008	800,000	0,048	0,140
-159,993	94,011	0,085	0,070
-158,979	-18,086	-0,051	-0,023
-157,964	-200,000	-0,002	0,033
-156,950	800,000	0,051	-0,159
-155,935	-200,000	-0,005	-0,077
-154,920	74,344	0,082	0,062
-153,906	-54,379	0,094	0,030
-152,891	521,192	-0,022	-0,037
-151,877	-150,648	0,033	0,002
-150,862	800,000	0,023	0,070
-149,847	-90,013	-0,259	-0,054
-148,833	15,737	0,120	0,068
-147,818	-120,933	0,067	0,008
-146,804	773,633	-0,043	0,084
-145,789	-200,000	0,014	-0,080
-144,775	605,122	0,072	-0,130
-143,760	34,388	0,064	0,040
-142,745	146,261	0,131	0,127
-141,731	348,039	-0,012	-0,016
-140,716	213,226	0,105	0,119
-139,702	-200,000	-0,009	0,140
-138,687	-121,721	0,128	-0,015
-137,672	116,735	0,068	-0,060
-136,658	-9,570	-0,020	0,010
-135,643	800,000	-0,055	0,115
-134,629	-128,008	-0,109	-0,011
-133,614	800,000	0,031	0,067
-132,599	155,085	0,056	0,056
-131,585	409,028	0,079	0,120
-130,570	272,329	-0,047	-0,060
-129,556	201,185	-0,060	-0,066
-128,541	-34,101	-0,047	-0,019
-127,526	-80,505	-0,071	-0,017
-126,512	183,309	0,081	-0,087
-125,497	-200,000	-0,002	-0,045
-124,483	-20,375	0,145	0,064
-123,468	352,789	0,078	0,111
-122,453	37,920	-0,153	-0,098
-121,439	-32,025	0,031	-0,012
-120,424	11,857	-0,117	0,064
-119,410	212,614	-0,109	0,124
-118,395	-200,000	0,033	0,131
-117,380	800,000	-0,067	0,161
-116,366	210,051	-0,021	0,024
-115,351	239,438	-0,060	0,072
-114,337	800,000	-0,027	0,055
-113,322	-167,532	0,090	-0,003
-112,307	265,158	-0,090	0,113
-111,293	800,000	0,033	0,071
-110,278	31,140	0,100	0,062
-109,264	-67,290	-0,134	0,038
-108,249	119,352	0,085	-0,076
-107,234	-37,944	-0,036	-0,014
-106,220	38,078	-0,070	0,045
-105,205	-200,000	0,008	0,070
-104,191	11,495	0,180	0,099
-103,176	43,229	0,109	0,071
-102,162	-200,000	-0,001	0,006
-101,147	43,971	0,043	-0,028
-100,132	-45,846	0,045	0,016
-99,118	8,121	-0,149	0,080
-98,103	209,241	-0,029	-0,032
-97,089	163,188	0,016	0,016
-96,074	-200,000	-0,022	0,126
-95,059	800,000	-0,034	0,103
-94,045	786,096	0,013	0,026
-93,030	48,445	-0,090	0,061
-92,016	-118,518	0,112	0,014
-91,001	48,332	0,078	0,052
-89,986	-200,000	-0,025	-0,101
-88,972	7,446	-0,071	-0,038
-87,957	82,686	0,101	-0,079
-86,943	-35,677	-0,118	0,046
-85,928	800,000	-0,015	-0,042
-84,913	-200,000	0,006	-0,059
-83,899	-152,879	-0,031	-0,002
-82,884	178,768	-0,079	-0,083
-81,870	-200,000	0,012	0,080
-80,855	-200,000	-0,036	0,138
-79,840	436,614	0,072	0,112
-78,826	20,727	-0,118	-0,069
-77,811	-200,000	-0,013	-0,041
-76,797	-200,000	-0,002	0,061
-75,782	423,067	-0,050	0,078
-74,767	126,131	-0,046	-0,041
-73,753	40,506	0,111	0,072
-72,738	800,000	0,024	0,072
-71,724	-200,000	-0,061	-0,208
-70,709	-85,660	0,064	-0,014
-69,694	427,169	0,024	-0,037
-68,680	323,372	0,132	-0,182
-67,665	-10,156	0,089	-0,042
-66,651	-179,205	0,129	0,002
-65,636	800,000	-0,002	-0,005
-64,622	-200,000	-0,008	-0,123
-63,607	101,705	-0,060	-0,051
-62,592	800,000	0,017	-0,045
-61,578	-79,472	0,142	-0,034
-60,563	-101,212	0,132	-0,023
-59,549	-198,408	0,061	-0,000
-58,534	-19,112	-1,849	-0,821
-57,519	800,000	-0,391	-0,864
-56,505	-200,000	-1,244	-4,878
-55,490	-35,218	0,766	0,298
-54,476	800,000	5,322	12,114
-53,461	-200,000	17,159	282,089
-52,446	800,000	721,243	2225,724
-51,432	544,629	1636,772	2816,723
-50,417	112,578	1630,792	1416,434
-49,403	76,318	1287,165	977,458
-48,388	33,162	1029,499	639,249
-47,373	20,330	991,259	573,152
-46,359	18,891	979,383	561,538
-45,344	16,374	975,775	551,192
-44,330	16,584	974,138	550,935
-43,315	16,154	972,383	548,514
-42,300	16,112	971,160	547,665
-41,286	16,103	970,266	547,111
-40,271	16,084	969,320	546,491
-39,257	16,124	968,338	546,049
-38,242	16,123	967,447	545,519
-37,227	16,123	966,584	545,013
-36,213	16,072	965,794	544,381
-35,198	16,067	964,843	543,807
-34,184	16,060	964,158	543,375
-33,169	16,120	963,131	542,969
-32,154	16,122	962,191	542,424
-31,140	16,093	961,392	541,859
-30,125	16,125	960,613	541,502
-29,111	16,172	959,646	541,086
-28,096	16,092	959,213	540,564
-27,082	16,107	958,451	540,160
-26,067	16,079	957,782	539,672
-25,052	16,123	956,905	539,299
-24,038	16,065	956,347	538,774
-23,023	16,035	955,639	538,258
-22,009	16,091	955,044	538,083
-20,994	16,148	954,374	537,865
-19,979	16,091	953,802	537,341
-18,965	16,145	952,964	537,019
-17,950	16,137	952,560	536,744
-16,936	16,055	951,770	536,014
-15,921	16,050	951,228	535,674
-14,906	15,996	950,293	534,953
-13,892	15,939	949,921	534,540
-12,877	15,969	949,248	534,236
-11,863	15,991	948,498	533,862
-10,848	15,932	948,163	533,464
-9,833	16,071	947,540	533,535
-8,819	16,029	947,009	533,081
-7,804	15,942	946,295	532,384
-6,790	15,960	945,755	532,113
-5,775	16,020	945,169	531,956
-4,760	16,055	944,311	531,563
-3,746	15,972	943,791	530,985
-2,731	15,820	943,419	530,273
-1,717	15,811	942,548	529,733
-0,702	15,811	941,937	529,368
0,313	15,595	941,406	529,188
1,327	18,856	939,115	538,143
2,342	27,830	796,861	480,459
3,356	24,714	460,760	273,009
4,371	-2,477	315,111	157,765
5,386	-6,446	296,739	144,531
6,400	-8,504	290,859	139,608
7,415	-8,729	288,274	138,133
8,429	-9,091	286,758	137,039
9,444	-9,196	285,777	136,456
10,459	-9,182	285,347	136,252
11,473	-9,010	284,850	136,170
12,488	-9,069	284,197	135,788
13,502	-9,051	283,571	135,495
14,517	-9,058	283,095	135,249
15,531	-9,088	282,690	135,014
16,546	-9,091	282,305	134,815
17,561	-9,143	281,769	134,497
18,575	-9,160	281,560	134,368
19,590	-9,329	281,109	133,980
20,604	-9,190	280,873	133,988
21,619	-9,412	280,537	133,603
22,634	-9,215	280,064	133,554
23,648	-9,134	279,804	133,495
24,663	-9,349	279,547	133,156
25,677	-9,371	279,515	133,108
26,692	-9,246	279,020	132,980
27,707	-9,248	278,700	132,813
28,721	-9,166	278,381	132,728
29,736	-9,380	278,181	132,417
30,750	-9,216	277,963	132,458
31,765	-9,308	277,625	132,197
32,780	-9,268	277,560	132,192
33,794	-9,255	277,233	132,037
34,809	-9,253	276,924	131,880
35,823	-9,233	276,793	131,825
36,838	-9,276	276,364	131,568
37,853	-9,308	276,243	131,468
38,867	-9,217	275,823	131,342
39,882	-9,458	275,831	131,108
40,896	-9,443	275,611	131,006
41,911	-9,236	275,261	131,022
42,926	-9,302	275,022	130,835
43,940	-9,364	274,763	130,642
44,955	-9,263	274,340	130,523
45,969	-9,403	274,294	130,359
46,984	-9,518	274,023	130,110
47,999	-9,730	273,795	129,793
49,013	-9,803	273,576	129,610
50,028	-9,989	273,137	129,217
51,042	-10,059	272,964	129,058
52,057	-10,108	272,730	128,891
53,071	-10,088	272,569	128,821
54,086	-9,890	272,498	128,960
55,101	-9,782	272,185	128,901
56,115	-9,693	272,054	128,910
57,130	-9,217	271,849	129,242
58,144	-9,118	271,718	129,260
59,159	-9,186	271,524	129,094
60,174	-8,991	271,206	129,111
61,188	-9,154	271,191	128,941
62,203	-9,177	270,853	128,748
63,217	-9,341	270,707	128,516
64,232	-9,072	270,395	128,605
65,247	-9,118	270,130	128,424
66,261	-9,089	269,847	128,305
67,276	-9,275	269,590	128,001
68,290	-9,500	269,393	127,690
69,305	-9,422	269,261	127,687
70,320	-9,511	268,991	127,466
71,334	-9,338	268,890	127,565
72,349	-9,100	268,492	127,583
73,363	-9,139	268,434	127,508
74,378	-9,065	268,059	127,386
75,393	-9,075	267,890	127,285
76,407	-9,130	267,846	127,203
77,422	-9,149	267,520	127,019
78,436	-9,253	267,420	126,866
79,451	-9,043	267,100	126,894
80,466	-9,248	266,819	126,563
81,480	-9,264	266,553	126,411
82,495	-9,311	266,442	126,304
83,509	-9,527	266,329	126,044
84,524	-9,300	265,907	126,038
85,539	-9,309	265,560	125,855
86,553	-9,628	265,528	125,540
87,568	-9,294	265,443	125,790
88,582	-9,351	265,066	125,548
89,597	-9,313	264,977	125,529
90,611	-9,436	264,919	125,380
91,626	-9,110	264,761	125,587
92,641	-9,153	264,433	125,382
93,655	-9,228	264,270	125,226
94,670	-9,233	264,017	125,091
95,684	-9,299	263,895	124,963
96,699	-9,193	263,570	124,893
97,714	-9,309	263,445	124,719
98,728	-9,441	263,278	124,510
99,743	-9,418	262,925	124,352
100,757	-9,444	262,809	124,264
101,772	-9,370	262,507	124,176
102,787	-9,225	262,376	124,231
103,801	-9,108	262,067	124,178
104,816	-9,101	262,044	124,162
105,830	-9,087	261,748	124,023
106,845	-9,102	261,650	123,953
107,860	-9,246	261,555	123,769
108,874	-9,182	261,278	123,683
109,889	-9,081	261,075	123,666
110,903	-9,112	260,809	123,501
111,918	-9,014	260,573	123,466
112,933	-8,965	260,440	123,434
113,947	-8,900	260,301	123,415
114,962	-9,147	260,249	123,162
115,976	-9,200	259,916	122,946
116,991	-9,110	259,714	122,919
118,006	-9,174	259,490	122,746
119,020	-9,094	259,450	122,786
120,035	-9,098	259,252	122,678
121,049	-9,058	258,996	122,581
122,064	-9,151	258,997	122,489
123,079	-9,150	258,689	122,333
124,093	-9,324	258,413	122,039
125,108	-9,122	258,153	122,082
126,122	-9,457	257,960	121,687
127,137	-9,563	257,749	121,485
128,151	-9,510	257,570	121,435
129,166	-9,355	257,447	121,502
130,181	-9,269	257,182	121,441
131,195	-9,490	256,978	121,141
132,210	-9,519	256,941	121,088
133,224	-9,051	256,749	121,394
134,239	-9,215	256,665	121,201
135,254	-9,131	256,462	121,167
136,268	-9,246	256,108	120,889
137,283	-9,418	255,825	120,596
138,297	-9,620	255,573	120,292
139,312	-9,542	255,392	120,263
140,327	-9,289	255,462	120,504
141,341	-9,073	255,290	120,599
142,356	-8,940	255,133	120,628
143,370	-9,147	254,869	120,314
144,385	-8,845	254,751	120,508
145,400	-8,867	254,496	120,358
146,414	-9,107	254,272	120,035
147,429	-8,979	254,092	120,049
148,443	-8,942	253,993	120,023
149,458	-8,958	253,775	119,896
150,473	-9,014	253,792	119,845
151,487	-8,914	253,399	119,735
152,502	-9,014	253,214	119,551
153,516	-8,940	252,986	119,496
154,531	-8,845	252,883	119,518
155,546	-9,122	252,713	119,190
156,560	-9,174	252,636	119,099
157,575	-9,212	252,314	118,904
158,589	-8,895	252,065	119,046
159,604	-8,906	251,946	118,970
160,619	-8,974	251,715	118,793
161,633	-9,046	251,739	118,732
162,648	-8,856	251,356	118,702
163,662	-8,907	251,308	118,625
164,677	-8,914	251,292	118,601
165,692	-8,697	250,868	118,574
166,706	-9,002	250,872	118,308
167,721	-8,836	250,704	118,358
168,735	-8,823	250,568	118,294
169,750	-8,830	250,319	118,160
170,764	-8,919	250,179	118,009
171,779	-8,867	250,086	117,998
172,794	-8,753	249,845	117,970
173,808	-8,806	249,624	117,810
174,823	-9,311	249,224	117,187
175,837	-9,535	249,190	116,972
176,852	-9,069	249,015	117,270
177,867	-8,843	249,021	117,453
178,881	-8,961	248,921	117,296
179,896	-8,943	248,665	117,180
180,910	-8,873	248,530	117,164
181,925	-8,931	248,269	116,982
182,940	-8,728	248,043	117,035
183,954	-8,825	247,883	116,868
184,969	-8,797	247,822	116,852
185,983	-8,914	247,628	116,653
186,998	-8,943	247,451	116,536
188,013	-8,913	247,221	116,442
189,027	-8,567	247,176	116,698
190,042	-8,786	247,123	116,480
191,056	-8,773	246,802	116,330
192,071	-8,703	246,535	116,251
193,086	-8,842	246,483	116,101
194,100	-8,741	246,252	116,066
195,115	-8,575	246,011	116,079
196,129	-8,815	245,836	115,787
197,144	-8,835	245,728	115,710
198,159	-8,782	245,470	115,622
199,173	-8,826	245,437	115,560
200,188	-8,870	245,163	115,384
201,202	-9,196	244,826	114,947
202,217	-9,265	244,711	114,825
203,232	-9,391	244,365	114,549
204,246	-9,030	244,488	114,894
205,261	-8,249	244,442	115,504
206,275	-9,283	244,124	114,495
207,290	-6,538	245,029	117,169
208,304	-1,121	246,653	122,415
209,319	1,260	247,326	124,708
210,334	1,836	247,274	125,147
211,348	2,117	247,322	125,392
212,363	2,474	247,386	125,708
213,377	2,776	247,148	125,825
214,392	2,405	247,189	125,529
215,407	2,579	246,866	125,497
216,421	2,665	246,570	125,406
217,436	2,830	246,482	125,485
218,450	3,078	246,293	125,582
219,465	2,547	246,240	125,108
220,480	2,655	245,949	125,037
221,494	2,454	245,842	124,807
222,509	2,669	245,809	124,955
223,523	2,489	245,642	124,712
224,538	2,212	245,187	124,243
225,553	2,219	245,112	124,200
226,567	2,427	245,050	124,327
227,582	2,472	244,866	124,259
228,596	2,504	244,671	124,176
229,611	2,216	244,490	123,838
230,626	2,280	244,341	123,804
231,640	2,366	244,172	123,777
232,655	2,472	244,084	123,807
233,669	2,455	243,818	123,648
234,684	2,140	243,642	123,292
235,699	2,641	243,606	123,669
236,713	2,729	243,566	123,709
237,728	2,341	243,293	123,245
238,742	2,519	243,094	123,278
239,757	2,396	242,837	123,036
240,772	2,279	242,783	122,904
241,786	2,564	242,575	123,017
242,801	2,232	242,398	122,649
243,815	2,050	242,116	122,349
244,830	2,621	242,187	122,833
245,844	2,544	242,013	122,672
246,859	2,322	241,827	122,389
247,874	2,613	241,647	122,521
248,888	2,405	241,583	122,310
249,903	2,604	241,278	122,305
250,917	2,703	241,388	122,429
251,932	2,694	241,318	122,376
252,947	2,555	241,043	122,113
253,961	2,086	240,735	121,571
254,976	2,545	240,621	121,870
255,990	2,664	240,461	121,873
257,005	2,157	240,151	121,300
258,020	2,135	240,022	121,207
259,034	2,056	240,049	121,146
260,049	2,262	239,825	121,187
261,063	2,362	239,641	121,163
262,078	2,239	239,422	120,943
263,093	2,564	239,400	121,180
264,107	2,647	239,167	121,117
265,122	2,353	239,236	120,908
266,136	2,433	238,899	120,790
267,151	2,443	238,903	120,790
268,166	2,370	238,556	120,545
269,180	2,258	238,296	120,315
270,195	2,899	238,367	120,847
271,209	2,952	238,264	120,826
272,224	2,379	237,935	120,195
273,239	2,242	237,720	119,968
274,253	2,297	237,615	119,948
275,268	2,497	237,501	120,037
276,282	2,450	237,252	119,863
277,297	2,258	237,095	119,623
278,312	2,237	237,040	119,568
279,326	2,430	236,860	119,618
280,341	2,530	236,668	119,588
281,355	2,611	236,670	119,643
282,370	2,642	236,547	119,594
283,384	2,581	236,260	119,390
284,399	2,259	236,170	119,082
285,414	2,289	235,917	118,968
286,428	2,333	235,685	118,875
287,443	2,549	235,719	119,050
288,457	2,648	235,775	119,145
289,472	2,536	235,456	118,885
290,487	2,544	235,185	118,745
291,501	2,434	234,868	118,488
292,516	2,016	234,759	118,097
293,530	1,966	234,625	117,980
294,545	2,340	234,611	118,254
295,560	2,453	234,462	118,256
296,574	2,021	234,287	117,821
297,589	2,239	234,052	117,862
298,603	2,425	234,103	118,021
299,618	2,438	233,996	117,967
300,633	2,454	233,701	117,820
301,647	2,733	233,681	118,016
302,662	3,190	233,642	118,339
303,676	3,043	233,373	118,078
304,691	2,902	233,286	117,915
305,706	2,741	233,058	117,665
306,720	2,960	232,926	117,757
307,735	2,797	232,634	117,473
308,749	2,621	232,582	117,301
309,764	2,322	232,313	116,925
310,779	2,215	232,094	116,722
311,793	2,011	231,994	116,504
312,808	1,992	231,978	116,471
313,822	2,326	231,657	116,556
314,837	2,048	231,599	116,304
315,852	2,300	231,360	116,366
316,866	2,370	231,356	116,407
317,881	2,696	231,275	116,606
318,895	2,903	231,061	116,645
319,910	3,045	231,113	116,770
320,925	2,665	230,769	116,296
321,939	2,220	230,650	115,886
322,954	2,786	230,663	116,314
323,968	2,621	230,343	116,016
324,983	2,621	230,215	115,942
325,997	2,615	230,164	115,901
327,012	2,665	229,883	115,787
328,027	2,294	229,682	115,394
329,041	2,322	229,511	115,319
330,056	2,986	229,746	115,931
331,070	3,379	229,568	116,129
332,085	2,763	229,479	115,607
333,100	2,720	229,136	115,391
334,114	2,504	228,769	115,033
335,129	2,608	228,856	115,144
336,143	2,903	228,683	115,270
337,158	3,055	228,663	115,364
338,173	2,783	228,474	115,053
339,187	2,850	228,262	114,987
340,202	2,760	228,145	114,850
341,216	2,792	228,023	114,803
342,231	2,499	227,809	114,465
343,246	2,618	227,656	114,467
344,260	2,862	227,575	114,599
345,275	2,987	227,373	114,581
346,289	3,045	227,294	114,574
347,304	3,081	227,181	114,533
348,319	3,216	227,031	114,549
349,333	2,898	226,868	114,218
350,348	2,546	226,561	113,791
351,362	2,800	226,455	113,917
352,377	2,697	226,265	113,734
353,392	2,546	226,269	113,614
354,406	2,578	226,181	113,583
355,421	196,027	1322,166	1400,544
356,435	157,150	1455,710	1400,550
