DTS Sentinel unit serial number:	SN410029Multiplexer serial number:	ORYXHardware model number:	OX2-SRSoftware version number:	ORYX F/W v4,00 Oryx Data Collector v3.7.2.0data status	okinstallation	B5 Nyhavnadifferential loss correction	single-endedforward channel	channel 2reverse channel	N/Adate	2023/12/14time	08:27:13forward acquisition time	300,00reverse acquisition time	0,00gamma	499,1914k internal	0,3160k external	0,3160temperature offset calibration	1,0000default loss term (dB/km)	0,3820temperature slope calibration	1,0000multiplexer offset coefficient	1,0000multiplexer slope coefficient	1,0000fibre end	0,00T internal ref (°C)	7,04T ext. ref 1 (°C)	-9,16T ext. ref 2 (°C)	-9,23length (m)	temperature (°C)	Stokes	anti-Stokes-744,400	-31,131	0,158	0,065
-743,385	-114,662	-0,366	-0,051
-742,371	30,353	0,243	0,152
-741,356	-71,941	-0,296	-0,081
-740,342	55,773	0,206	0,147
-739,327	-56,618	-0,456	-0,148
-738,312	-53,971	0,238	0,079
-737,298	-142,915	-0,299	-0,021
-736,283	160,425	0,181	0,187
-735,269	-152,842	-0,234	0,012
-734,254	800,000	0,090	0,195
-733,239	18,217	-0,444	-0,260
-732,225	56,331	0,145	0,104
-731,210	71,746	-0,107	0,082
-730,196	800,000	-0,017	0,038
-729,181	276,673	0,021	0,028
-728,167	-83,987	-0,105	0,024
-727,152	-84,834	-0,050	0,011
-726,137	-46,821	-0,033	-0,012
-725,123	-108,543	-0,057	0,009
-724,108	119,078	-0,135	-0,122
-723,094	-42,029	-0,133	-0,050
-722,079	-43,586	-0,123	-0,045
-721,064	-200,000	0,000	0,074
-720,050	308,484	-0,074	-0,101
-719,035	-63,713	-0,121	-0,036
-718,021	246,955	-0,074	-0,093
-717,006	282,139	-0,086	-0,114
-715,991	147,734	-0,095	-0,094
-714,977	125,095	-0,079	-0,073
-713,962	173,284	-0,093	0,099
-712,948	93,413	-0,056	-0,047
-711,933	74,497	0,151	-0,116
-710,918	84,551	-0,083	0,067
-709,904	289,322	-0,066	0,088
-708,889	95,704	-0,025	0,021
-707,875	-136,658	-0,137	0,011
-706,860	-102,204	0,106	0,019
-705,845	166,274	-0,084	-0,087
-704,831	657,787	-0,031	0,059
-703,816	-137,964	-0,091	0,007
-702,802	-40,231	-0,098	-0,037
-701,787	300,145	-0,087	-0,119
-700,772	-200,000	-0,024	-0,126
-699,758	-200,000	0,028	-0,092
-698,743	-200,000	-0,004	0,107
-697,729	-106,527	0,044	0,007
-696,714	800,000	0,035	0,078
-695,699	340,527	-0,061	-0,088
-694,685	210,140	-0,110	-0,127
-693,670	180,229	-0,129	-0,140
-692,656	114,947	0,092	-0,083
-691,641	-200,000	0,005	0,076
-690,627	-177,894	-0,126	0,002
-689,612	393,576	-0,046	-0,071
-688,597	50,172	0,049	0,034
-687,583	-63,189	-0,010	-0,003
-686,568	-200,000	0,006	0,032
-685,554	-200,000	0,003	-0,074
-684,539	800,000	0,007	-0,018
-683,524	27,350	0,122	0,075
-682,510	-200,000	0,021	0,102
-681,495	160,103	-0,088	0,091
-680,481	800,000	0,016	-0,047
-679,466	800,000	0,022	0,046
-678,451	155,045	-0,106	-0,107
-677,437	22,803	0,056	-0,034
-676,422	315,286	0,016	0,022
-675,408	131,424	0,028	0,026
-674,393	-146,768	0,078	-0,005
-673,378	-200,000	-0,002	-0,073
-672,364	119,756	-0,042	-0,038
-671,349	114,849	-0,072	0,064
-670,335	-200,000	-0,019	0,149
-669,320	-44,550	-0,103	-0,037
-668,305	-125,942	-0,018	0,002
-667,291	19,224	0,053	-0,031
-666,276	-65,080	-0,146	-0,043
-665,262	-82,702	-0,055	0,013
-664,247	-200,000	-0,009	-0,108
-663,232	81,043	-0,063	-0,050
-662,218	800,000	-0,022	-0,049
-661,203	-86,735	0,049	0,011
-660,189	142,173	-0,064	-0,062
-659,174	-154,763	-0,137	-0,007
-658,159	133,430	0,052	0,049
-657,145	-30,115	-0,117	0,049
-656,130	391,600	-0,029	0,045
-655,116	126,780	0,054	-0,050
-654,101	507,535	-0,051	0,088
-653,086	-200,000	0,005	-0,062
-652,072	800,000	-0,065	0,141
-651,057	-200,000	-0,010	-0,159
-650,043	-200,000	0,015	-0,079
-649,028	-199,762	0,035	0,000
-648,014	94,487	0,049	-0,041
-646,999	122,571	0,097	0,089
-645,984	120,532	0,069	-0,063
-644,970	800,000	0,039	-0,106
-643,955	-173,755	-0,147	0,003
-642,941	800,000	-0,049	-0,140
-641,926	-171,738	-0,110	0,003
-640,911	-200,000	0,007	-0,071
-639,897	800,000	-0,024	0,052
-638,882	-200,000	0,002	0,068
-637,868	331,208	-0,019	-0,027
-636,853	-70,735	-0,181	-0,050
-635,838	-200,000	0,026	-0,145
-634,824	299,306	0,035	0,047
-633,809	171,842	0,077	-0,081
-632,795	153,584	0,072	0,072
-631,780	111,462	-0,107	-0,094
-630,765	-200,000	-0,022	-0,081
-629,751	-200,000	0,000	-0,009
-628,736	267,139	0,052	-0,067
-627,722	-58,045	-0,070	0,022
-626,707	-86,195	0,110	0,025
-625,692	-43,171	0,072	-0,026
-624,678	-200,000	-0,013	-0,058
-623,663	-132,016	0,089	0,008
-622,649	-64,505	-0,092	-0,027
-621,634	-200,000	-0,017	-0,057
-620,619	800,000	0,016	-0,050
-619,605	-39,294	0,044	0,017
-618,590	800,000	0,053	0,126
-617,576	-138,214	-0,090	0,007
-616,561	800,000	0,019	0,055
-615,546	-72,526	0,126	0,034
-614,532	-39,240	0,051	-0,019
-613,517	-200,000	-0,009	-0,036
-612,503	-40,316	0,094	0,036
-611,488	-100,681	0,103	0,018
-610,474	30,838	-0,037	0,023
-609,459	242,745	-0,048	-0,058
-608,444	183,894	0,067	-0,073
-607,430	320,464	-0,067	0,093
-606,415	-65,999	-0,066	0,019
-605,401	800,000	-0,027	-0,081
-604,386	-136,493	0,064	-0,005
-603,371	-15,728	0,055	-0,025
-602,357	12,873	0,051	0,029
-601,342	-171,951	-0,033	0,001
-600,328	800,000	0,024	-0,057
-599,313	172,554	-0,060	-0,064
-598,298	-12,415	-0,089	0,042
-597,284	-9,846	0,110	-0,054
-596,269	625,960	-0,078	0,145
-595,255	800,000	-0,011	-0,028
-594,240	-142,135	-0,068	0,005
-593,225	605,603	0,063	0,115
-592,211	46,150	-0,152	0,103
-591,196	525,410	0,007	0,013
-590,182	47,222	-0,076	0,051
-589,167	-60,089	0,022	-0,007
-588,152	-78,546	-0,158	0,039
-587,138	-30,886	0,033	-0,013
-586,123	-200,000	-0,042	-0,160
-585,109	800,000	0,023	-0,064
-584,094	-200,000	-0,003	-0,098
-583,079	-98,490	0,137	0,025
-582,065	-96,280	-0,021	0,004
-581,050	193,327	-0,106	0,118
-580,036	-173,090	-0,146	-0,003
-579,021	-103,516	-0,019	-0,003
-578,006	-16,066	0,075	0,035
-576,992	123,239	-0,104	0,096
-575,977	-144,964	-0,072	-0,005
-574,963	518,536	0,025	-0,043
-573,948	2,137	0,057	0,030
-572,934	40,668	-0,070	0,046
-571,919	177,472	-0,059	0,063
-570,904	-134,498	-0,086	-0,008
-569,890	298,468	0,058	0,078
-568,875	-163,755	0,045	-0,002
-567,861	85,435	-0,010	-0,008
-566,846	-200,000	0,037	0,210
-565,831	-101,589	-0,101	-0,018
-564,817	101,711	-0,054	-0,046
-563,802	87,991	0,033	0,027
-562,788	122,892	0,044	0,040
-561,773	20,474	0,081	-0,048
-560,758	-76,155	-0,021	-0,006
-559,744	113,738	-0,021	-0,019
-558,729	-200,000	-0,018	-0,083
-557,715	366,724	-0,055	0,081
-556,700	-200,000	0,008	0,049
-555,685	281,461	0,090	-0,118
-554,671	-200,000	-0,035	-0,187
-553,656	519,508	-0,014	0,024
-552,642	43,660	0,083	-0,055
-551,627	498,014	-0,023	-0,040
-550,612	709,839	-0,055	-0,106
-549,598	66,339	-0,067	0,049
-548,583	280,607	0,048	0,062
-547,569	100,730	-0,043	0,037
-546,554	30,755	0,068	-0,043
-545,539	-103,487	-0,053	-0,009
-544,525	-8,300	0,060	0,030
-543,510	272,294	-0,073	-0,094
-542,496	448,105	0,008	-0,013
-541,481	9,109	0,055	-0,030
-540,466	-37,069	-0,097	-0,038
-539,452	-200,000	0,015	-0,054
-538,437	-14,898	-0,054	0,025
-537,423	-200,000	0,037	0,149
-536,408	150,104	0,028	0,027
-535,393	-200,000	-0,010	-0,087
-534,379	456,818	-0,059	-0,096
-533,364	800,000	0,068	-0,139
-532,350	-200,000	-0,019	0,142
-531,335	27,956	-0,147	0,091
-530,321	72,308	-0,142	0,108
-529,306	-92,590	0,055	0,011
-528,291	-200,000	0,014	0,100
-527,277	-200,000	-0,004	-0,018
-526,262	-200,000	0,019	-0,083
-525,248	800,000	-0,078	0,158
-524,233	8,053	-0,144	0,079
-523,218	-35,260	-0,067	-0,026
-522,204	776,717	0,045	-0,091
-521,189	-200,000	-0,007	-0,071
-520,175	-32,286	-0,103	-0,042
-519,160	125,103	-0,064	0,059
-518,145	-200,000	-0,005	0,027
-517,131	427,459	-0,014	0,022
-516,116	-200,000	0,005	0,023
-515,102	261,395	0,012	-0,016
-514,087	130,581	-0,083	0,078
-513,072	-147,279	0,053	0,003
-512,058	-97,282	-0,133	0,025
-511,043	-20,974	0,076	0,034
-510,029	-200,000	0,006	-0,059
-509,014	-131,448	-0,040	0,004
-507,999	-18,981	0,110	-0,050
-506,985	-200,000	0,027	-0,170
-505,970	-58,555	-0,019	0,006
-504,956	119,768	-0,115	-0,104
-503,941	-200,000	-0,020	0,085
-502,926	221,934	0,080	0,094
-501,912	800,000	-0,036	-0,073
-500,897	-200,000	0,004	-0,045
-499,883	-200,000	0,019	0,078
-498,868	-57,264	-0,078	-0,025
-497,853	-37,445	0,016	-0,006
-496,839	59,353	0,125	-0,090
-495,824	88,993	0,011	0,009
-494,810	475,776	-0,046	0,076
-493,795	511,192	0,029	0,050
-492,781	20,167	-0,161	-0,094
-491,766	-144,066	-0,160	-0,011
-490,751	190,965	0,083	0,091
-489,737	79,468	0,040	-0,031
-488,722	-99,026	0,091	0,017
-487,708	-94,326	-0,165	-0,033
-486,693	-72,242	0,039	-0,011
-485,678	286,037	-0,047	0,062
-484,664	800,000	-0,051	-0,124
-483,649	-162,357	-0,118	-0,004
-482,635	800,000	-0,034	0,083
-481,620	321,759	0,084	0,118
-480,605	800,000	-0,055	0,149
-479,591	-200,000	0,028	0,092
-478,576	-200,000	-0,017	0,068
-477,562	-104,879	-0,055	0,009
-476,547	800,000	0,035	-0,078
-475,532	184,991	-0,107	0,116
-474,518	800,000	-0,007	-0,020
-473,503	-200,000	0,028	-0,141
-472,489	-66,454	-0,155	0,045
-471,474	-29,914	-0,010	0,004
-470,459	34,164	-0,163	-0,103
-469,445	-200,000	0,010	0,036
-468,430	-200,000	0,008	-0,055
-467,416	-200,000	-0,001	0,082
-466,401	-68,600	0,138	0,039
-465,386	-87,180	0,052	0,011
-464,372	124,139	-0,063	0,058
-463,357	-140,945	-0,040	-0,003
-462,343	800,000	0,011	0,028
-461,328	-49,735	-0,049	0,017
-460,313	-127,177	0,150	-0,016
-459,299	-8,610	-0,021	-0,010
-458,284	-200,000	-0,001	0,115
-457,270	-142,666	0,097	-0,007
-456,255	-200,000	-0,036	-0,129
-455,241	-97,490	0,090	0,017
-454,226	417,176	-0,065	0,101
-453,211	-200,000	0,018	0,154
-452,197	-7,253	-0,062	0,031
-451,182	-141,851	-0,078	-0,006
-450,168	-159,587	0,183	0,007
-449,153	159,678	-0,073	0,074
-448,138	64,307	-0,154	-0,113
-447,124	-200,000	-0,007	-0,030
-446,109	-200,000	0,011	0,049
-445,095	101,105	0,065	-0,055
-444,080	187,178	0,047	0,051
-443,065	-94,300	-0,117	0,023
-442,051	800,000	0,001	-0,004
-441,036	-200,000	0,001	0,067
-440,022	-139,679	-0,225	-0,017
-439,007	-31,352	-0,036	-0,015
-437,992	202,723	0,118	-0,133
-436,978	-200,000	0,011	0,113
-435,963	-200,000	-0,006	-0,109
-434,949	-124,794	-0,106	-0,012
-433,934	-21,351	0,108	-0,048
-432,919	164,033	0,129	0,133
-431,905	44,307	-0,074	0,049
-430,890	800,000	0,050	0,106
-429,876	-50,089	0,049	0,017
-428,861	-165,571	0,098	0,003
-427,846	-132,793	-0,040	0,004
-426,832	800,000	0,028	-0,068
-425,817	311,515	-0,019	0,026
-424,803	1,502	0,143	-0,075
-423,788	-200,000	0,003	-0,019
-422,773	-200,000	0,018	-0,121
-421,759	11,472	0,123	-0,068
-420,744	-64,196	0,102	0,030
-419,730	-200,000	0,026	0,143
-418,715	-200,000	0,008	-0,139
-417,701	695,037	0,038	-0,074
-416,686	99,736	0,153	0,129
-415,671	270,751	-0,082	0,105
-414,657	441,328	-0,025	0,039
-413,642	800,000	-0,020	-0,053
-412,628	800,000	-0,044	-0,121
-411,613	-94,690	-0,073	-0,014
-410,598	228,935	0,051	-0,061
-409,584	28,486	-0,022	-0,013
-408,569	697,483	-0,039	0,075
-407,555	128,125	-0,067	0,062
-406,540	-127,635	0,145	-0,015
-405,525	-200,000	0,003	-0,054
-404,511	638,710	-0,029	-0,053
-403,496	-200,000	0,005	-0,025
-402,482	-89,851	0,125	-0,026
-401,467	-68,611	0,129	0,036
-400,452	57,749	0,087	0,062
-399,438	-108,451	0,085	-0,013
-398,423	556,557	0,025	0,044
-397,409	149,529	-0,068	0,067
-396,394	-200,000	-0,022	-0,222
-395,379	-105,677	0,026	-0,004
-394,365	-3,474	-0,149	0,075
-393,350	-200,000	-0,006	0,057
-392,336	800,000	0,039	0,093
-391,321	134,070	-0,060	0,056
-390,306	-18,968	0,048	-0,021
-389,292	-185,522	-0,099	-0,001
-388,277	-17,892	-0,071	-0,032
-387,263	800,000	-0,001	-0,003
-386,248	-117,004	-0,075	0,010
-385,233	668,292	0,033	0,061
-384,219	33,857	-0,036	-0,023
-383,204	377,272	0,023	-0,035
-382,190	-32,144	-0,113	-0,046
-381,175	165,283	-0,069	-0,071
-380,160	-77,733	-0,039	-0,010
-379,146	-50,613	0,031	-0,011
-378,131	-200,000	0,009	0,079
-377,117	-200,000	0,039	-0,174
-376,102	-69,859	-0,076	-0,021
-375,088	-200,000	-0,004	0,096
-374,073	-22,495	0,193	0,084
-373,058	126,437	0,050	-0,046
-372,044	84,169	0,028	-0,022
-371,029	-127,947	0,154	-0,016
-370,015	58,938	0,050	0,035
-369,000	-81,091	0,067	0,016
-367,985	519,840	-0,049	-0,083
-366,971	-119,796	-0,172	0,021
-365,956	-200,000	-0,036	-0,130
-364,942	129,457	-0,065	0,060
-363,927	-200,000	0,013	0,068
-362,912	18,127	-0,093	0,053
-361,898	151,705	0,053	0,052
-360,883	56,367	0,043	0,030
-359,869	-46,605	-0,100	-0,035
-358,854	800,000	0,046	0,112
-357,839	-137,951	0,043	0,003
-356,825	317,671	0,078	0,107
-355,810	-200,000	0,007	0,104
-354,796	-53,018	-0,115	0,038
-353,781	43,040	-0,066	-0,044
-352,766	-138,340	-0,096	-0,008
-351,752	-133,080	-0,049	0,004
-350,737	800,000	0,041	0,092
-349,723	-15,077	-0,101	-0,047
-348,708	-24,818	-0,044	-0,019
-347,693	215,503	-0,064	0,073
-346,679	100,223	-0,036	0,030
-345,664	178,499	0,023	-0,025
-344,650	-135,672	-0,058	-0,005
-343,635	105,820	-0,029	0,025
-342,620	-200,000	-0,015	0,161
-341,606	17,829	0,129	0,075
-340,591	-142,360	-0,067	-0,005
-339,577	-22,990	0,055	0,024
-338,562	325,496	0,062	-0,086
-337,548	433,770	0,052	0,083
-336,533	800,000	-0,023	0,063
-335,518	21,874	0,031	-0,018
-334,504	62,365	-0,015	-0,011
-333,489	-71,319	-0,082	0,022
-332,475	-75,268	0,083	0,021
-331,460	-200,000	-0,012	-0,103
-330,445	800,000	0,032	-0,100
-329,431	-200,000	-0,007	-0,039
-328,416	-37,523	0,117	-0,045
-327,402	115,024	0,017	0,015
-326,387	114,488	0,066	0,058
-325,372	422,660	-0,053	-0,083
-324,358	-200,000	0,001	-0,137
-323,343	-135,497	-0,150	0,013
-322,329	414,331	0,079	-0,122
-321,314	550,209	0,131	-0,229
-320,299	-200,000	-0,008	0,099
-319,285	-200,000	-0,023	0,128
-318,270	415,475	0,032	-0,049
-317,256	276,450	0,028	-0,036
-316,241	187,871	0,046	0,050
-315,226	32,052	-0,044	0,027
-314,212	-28,033	0,020	-0,008
-313,197	156,720	0,072	0,072
-312,183	74,350	-0,049	-0,037
-311,168	-200,000	-0,006	0,059
-310,153	-200,000	0,041	-0,134
-309,139	37,566	-0,093	-0,060
-308,124	126,557	0,129	-0,118
-307,110	-172,243	-0,076	0,002
-306,095	102,556	0,122	0,103
-305,080	-200,000	-0,019	0,097
-304,066	-71,890	0,069	-0,018
-303,051	-200,000	-0,008	-0,057
-302,037	-138,410	0,069	0,005
-301,022	800,000	0,037	0,076
-300,008	-200,000	0,025	0,143
-298,993	-200,000	0,036	0,129
-297,978	-97,717	-0,062	0,011
-296,964	378,835	-0,052	0,077
-295,949	800,000	-0,023	0,058
-294,935	-200,000	-0,001	-0,092
-293,920	-126,313	0,051	-0,005
-292,905	227,663	0,081	0,095
-291,891	366,800	0,063	-0,092
-290,876	166,975	0,050	0,051
-289,862	800,000	-0,037	0,111
-288,847	800,000	0,013	-0,041
-287,832	282,268	-0,046	0,060
-286,818	-200,000	-0,010	-0,059
-285,803	15,694	-0,043	-0,024
-284,789	-200,000	-0,010	0,056
-283,774	6,064	-0,037	0,020
-282,759	800,000	-0,057	-0,118
-281,745	-200,000	0,024	-0,106
-280,730	-200,000	-0,011	-0,073
-279,716	-139,548	-0,027	0,002
-278,701	-51,626	0,082	0,028
-277,686	800,000	0,029	0,086
-276,672	119,352	0,052	0,046
-275,657	51,885	-0,082	0,056
-274,643	326,276	0,037	0,051
-273,628	-143,922	-0,132	0,009
-272,613	-200,000	0,032	-0,123
-271,599	800,000	0,030	0,061
-270,584	-200,000	-0,011	0,076
-269,570	-6,924	0,030	-0,015
-268,555	-200,000	0,006	0,050
-267,540	54,642	-0,035	-0,024
-266,526	139,804	0,088	-0,084
-265,511	174,632	0,045	0,047
-264,497	-128,287	-0,208	-0,021
-263,482	121,254	0,154	0,139
-262,467	800,000	0,033	-0,085
-261,453	-200,000	-0,000	-0,105
-260,438	-200,000	-0,002	-0,033
-259,424	409,880	0,093	0,143
-258,409	106,297	-0,099	0,085
-257,395	-162,775	0,060	0,002
-256,380	789,842	0,049	0,098
-255,365	163,692	0,105	-0,106
-254,351	360,172	0,073	-0,106
-253,336	-200,000	-0,012	0,101
-252,322	469,276	-0,012	0,020
-251,307	-200,000	0,021	0,097
-250,292	535,582	-0,055	0,095
-249,278	-28,536	0,072	0,030
-248,263	-83,057	0,127	-0,029
-247,249	800,000	0,071	-0,162
-246,234	490,192	0,029	-0,048
-245,219	800,000	0,041	-0,089
-244,205	-134,960	0,020	0,002
-243,190	699,864	-0,037	-0,071
-242,176	-1,633	0,015	0,007
-241,161	-68,829	0,095	-0,026
-240,146	-42,743	0,116	0,042
-239,132	-200,000	0,020	-0,081
-238,117	-85,912	0,120	0,027
-237,103	-200,000	0,001	-0,013
-236,088	-3,077	-0,024	-0,012
-235,073	79,237	0,152	0,118
-234,059	-44,791	-0,049	0,018
-233,044	-122,195	0,072	-0,008
-232,030	-200,000	0,000	-0,056
-231,015	800,000	-0,035	-0,101
-230,000	800,000	0,027	-0,077
-228,986	800,000	-0,022	-0,050
-227,971	-63,798	0,075	-0,022
-226,957	-200,000	0,005	0,103
-225,942	554,323	0,091	0,160
-224,927	-200,000	0,027	-0,099
-223,913	82,835	-0,017	0,014
-222,898	340,353	-0,093	-0,132
-221,884	8,834	0,054	0,029
-220,869	210,811	-0,050	-0,057
-219,855	-26,905	0,103	0,043
-218,840	-84,086	0,144	-0,033
-217,825	461,862	-0,011	-0,018
-216,811	314,311	-0,102	0,140
-215,796	721,396	-0,044	0,085
-214,782	800,000	0,035	0,107
-213,767	-160,965	-0,078	-0,003
-212,752	-7,877	-0,010	-0,005
-211,738	800,000	0,020	-0,055
-210,723	-200,000	0,018	-0,059
-209,709	800,000	-0,021	0,054
-208,694	528,892	-0,139	-0,238
-207,679	132,658	-0,030	-0,028
-206,665	113,450	0,028	0,025
-205,650	-126,858	-0,057	0,006
-204,636	-33,175	-0,077	-0,031
-203,621	171,894	-0,035	-0,036
-202,606	-200,000	-0,003	-0,047
-201,592	-113,981	0,124	-0,017
-200,577	-114,235	0,091	-0,013
-199,563	284,819	-0,082	-0,106
-198,548	-45,314	0,106	0,038
-197,533	-177,628	-0,132	-0,002
-196,519	-200,000	-0,027	0,153
-195,504	-200,000	-0,013	0,132
-194,490	-154,855	-0,168	-0,008
-193,475	800,000	-0,024	-0,058
-192,460	273,373	0,039	0,050
-191,446	-1,070	0,052	0,027
-190,431	-91,511	0,094	-0,019
-189,417	-200,000	-0,000	-0,096
-188,402	-22,480	-0,116	0,051
-187,387	-82,536	0,093	-0,022
-186,373	-167,333	-0,166	-0,005
-185,358	382,278	0,058	-0,087
-184,344	756,747	-0,089	0,174
-183,329	62,459	0,170	0,122
-182,315	128,555	-0,066	-0,060
-181,300	-200,000	0,004	-0,141
-180,285	-130,217	0,010	0,001
-179,271	800,000	0,017	0,039
-178,256	-61,745	-0,025	0,007
-177,242	-107,199	0,043	0,007
-176,227	-39,768	0,208	0,078
-175,212	800,000	0,060	-0,135
-174,198	301,114	-0,045	0,059
-173,183	-10,660	0,080	0,038
-172,169	427,595	0,016	-0,025
-171,154	668,663	-0,032	-0,060
-170,139	-200,000	-0,015	-0,120
-169,125	800,000	-0,018	0,049
-168,110	-200,000	0,010	-0,060
-167,096	81,163	-0,129	-0,101
-166,081	796,018	0,051	0,101
-165,066	-200,000	0,009	-0,135
-164,052	800,000	0,029	-0,088
-163,037	370,006	-0,023	0,034
-162,023	-50,872	-0,056	0,019
-161,008	-142,091	0,052	-0,004
-159,993	-200,000	0,007	-0,109
-158,979	-45,764	-0,161	-0,057
-157,964	244,182	0,065	-0,079
-156,950	-27,153	0,051	-0,021
-155,935	800,000	-0,011	-0,033
-154,920	414,063	0,024	-0,037
-153,906	-70,387	0,046	0,013
-152,891	-133,427	-0,042	-0,004
-151,877	800,000	-0,062	-0,179
-150,862	409,134	-0,059	-0,091
-149,847	-149,253	-0,114	-0,006
-148,833	800,000	0,057	0,116
-147,818	-200,000	-0,022	0,084
-146,804	440,959	0,110	-0,175
-145,789	80,243	0,070	-0,054
-144,775	-2,731	-0,033	-0,017
-143,760	-200,000	-0,022	-0,075
-142,745	109,591	-0,049	-0,042
-141,731	138,888	-0,141	0,133
-140,716	-200,000	0,014	-0,049
-139,702	47,978	-0,105	0,071
-138,687	-200,000	-0,018	0,074
-137,672	800,000	-0,012	0,029
-136,658	153,213	0,029	0,029
-135,643	348,713	-0,017	0,024
-134,629	-200,000	0,003	0,046
-133,614	281,776	0,043	0,056
-132,599	-145,601	0,179	0,011
-131,585	-130,311	-0,039	-0,004
-130,570	-99,933	0,139	0,025
-129,556	398,898	0,114	-0,172
-128,541	-200,000	-0,000	-0,048
-127,526	185,708	-0,135	0,145
-126,512	492,789	-0,057	0,094
-125,497	-103,392	0,042	-0,007
-124,483	-200,000	0,004	0,095
-123,468	-17,048	-0,015	0,007
-122,453	-12,546	0,045	-0,021
-121,439	-19,901	-0,181	0,080
-120,424	95,495	0,129	-0,106
-119,410	260,997	0,076	0,095
-118,395	194,043	0,058	-0,064
-117,380	302,951	0,073	0,097
-116,366	748,289	-0,022	0,043
-115,351	-93,126	-0,073	0,014
-114,337	581,944	0,038	-0,067
-113,322	-22,474	-0,164	0,071
-112,307	-174,531	0,102	0,002
-111,293	179,811	0,098	-0,104
-110,278	800,000	0,041	0,107
-109,264	292,821	-0,015	0,020
-108,249	-100,547	0,056	-0,010
-107,234	235,360	-0,047	0,056
-106,220	-109,126	0,109	0,016
-105,205	110,696	0,098	-0,084
-104,191	-200,000	-0,004	-0,064
-103,176	459,689	-0,050	-0,081
-102,162	387,678	-0,028	-0,041
-101,147	800,000	-0,012	-0,032
-100,132	-31,945	-0,098	-0,039
-99,118	513,651	0,097	-0,163
-98,103	43,437	0,074	-0,048
-97,089	-95,362	0,052	0,010
-96,074	-175,683	0,069	0,001
-95,059	-9,405	0,088	0,042
-94,045	66,225	-0,049	-0,036
-93,030	800,000	0,050	-0,138
-92,016	800,000	0,028	0,056
-91,001	-200,000	0,023	-0,131
-89,986	182,975	0,056	0,060
-88,972	72,317	0,088	-0,066
-87,957	279,236	-0,084	-0,108
-86,943	-73,594	-0,140	0,036
-85,928	-200,000	0,010	-0,100
-84,913	800,000	-0,005	0,011
-83,899	418,019	-0,086	-0,133
-82,884	178,684	-0,096	0,101
-81,870	93,448	0,136	0,111
-80,855	800,000	-0,038	0,076
-79,840	56,680	0,053	0,037
-78,826	-14,661	-0,125	-0,057
-77,811	-118,848	-0,200	-0,025
-76,797	148,722	0,064	0,062
-75,782	800,000	-0,012	0,032
-74,767	-200,000	-0,022	-0,086
-73,753	-75,011	-0,137	-0,035
-72,738	800,000	0,058	0,151
-71,724	135,700	-0,061	-0,057
-70,709	-119,327	-0,046	0,006
-69,694	180,023	0,086	0,090
-68,680	-200,000	0,000	-0,003
-67,665	-14,318	0,081	-0,037
-66,651	218,345	0,072	-0,083
-65,636	-200,000	0,005	-0,078
-64,622	14,779	-0,058	0,032
-63,607	77,463	0,089	0,068
-62,592	53,028	-0,066	0,045
-61,578	233,181	-0,073	-0,086
-60,563	-51,474	0,017	0,006
-59,549	390,818	-0,055	0,082
-58,534	94,909	-2,763	-2,254
-57,519	-5,084	0,387	-0,190
-56,505	800,000	-1,803	-5,522
-55,490	502,247	1,182	1,966
-54,476	800,000	5,307	11,104
-53,461	-200,000	23,044	347,223
-52,446	800,000	765,312	2262,990
-51,432	496,940	1643,353	2720,974
-50,417	93,131	1599,667	1296,108
-49,403	60,946	1254,494	891,344
-48,388	21,148	1006,958	584,545
-47,373	18,369	974,473	556,594
-46,359	11,765	961,456	527,766
-45,344	7,742	958,163	512,906
-44,330	8,095	955,987	512,864
-43,315	7,126	954,174	508,739
-42,300	7,075	953,235	508,053
-41,286	7,059	952,169	507,413
-40,271	7,117	951,458	507,201
-39,257	7,046	950,295	506,332
-38,242	7,036	949,438	505,825
-37,227	7,037	948,961	505,553
-36,213	7,038	947,855	504,948
-35,198	7,070	947,056	504,604
-34,184	7,101	946,376	504,319
-33,169	7,021	945,476	503,564
-32,154	7,127	944,412	503,317
-31,140	7,075	943,704	502,755
-30,125	7,040	943,045	502,272
-29,111	7,085	942,188	501,938
-28,096	7,122	941,512	501,677
-27,082	7,111	940,972	501,332
-26,067	7,075	940,335	500,861
-25,052	7,061	939,459	500,328
-24,038	7,061	938,604	499,852
-23,023	7,033	937,932	499,385
-22,009	7,120	937,237	499,272
-20,994	7,100	936,836	498,975
-19,979	7,058	936,271	498,521
-18,965	7,025	935,511	497,994
-17,950	7,093	934,928	497,880
-16,936	7,029	934,337	497,341
-15,921	7,034	933,725	497,011
-14,906	6,984	933,083	496,491
-13,892	6,992	932,320	496,093
-12,877	6,949	931,827	495,672
-11,863	6,907	931,233	495,204
-10,848	6,963	930,571	495,010
-9,833	7,090	930,076	495,127
-8,819	7,055	929,274	494,571
-7,804	6,962	928,697	493,951
-6,790	7,093	928,074	494,012
-5,775	7,035	927,541	493,525
-4,760	6,982	927,062	493,087
-3,746	6,988	926,616	492,847
-2,731	6,846	925,657	491,873
-1,717	6,814	925,087	491,453
-0,702	6,855	924,301	491,141
0,313	6,639	923,724	490,900
1,327	10,063	921,331	500,261
2,342	18,664	770,266	440,499
3,356	13,574	442,484	245,457
4,371	-12,255	309,746	144,607
5,386	-16,184	292,531	132,620
6,400	-18,224	286,482	127,863
7,415	-18,365	283,925	126,573
8,429	-19,072	281,993	125,017
9,444	-19,116	281,025	124,535
10,459	-19,067	280,541	124,356
11,473	-19,122	280,031	124,066
12,488	-18,906	279,386	123,976
13,502	-18,870	278,898	123,783
14,517	-18,971	278,595	123,541
15,531	-18,884	278,080	123,385
16,546	-18,949	277,883	123,224
17,561	-18,750	277,156	123,080
18,575	-18,704	277,013	123,049
19,590	-18,965	276,712	122,657
20,604	-18,842	276,355	122,605
21,619	-18,766	276,015	122,514
22,634	-18,833	275,669	122,287
23,648	-18,887	275,461	122,132
24,663	-18,780	275,202	122,108
25,677	-18,841	274,897	121,904
26,692	-18,769	274,699	121,873
27,707	-18,755	274,268	121,684
28,721	-18,766	273,926	121,511
29,736	-18,957	273,736	121,237
30,750	-18,974	273,513	121,112
31,765	-18,802	273,218	121,131
32,780	-18,961	272,991	120,871
33,794	-18,900	272,791	120,829
34,809	-18,950	272,577	120,677
35,823	-18,600	272,117	120,788
36,838	-18,778	271,928	120,528
37,853	-18,813	271,681	120,375
38,867	-18,736	271,391	120,308
39,882	-18,744	271,212	120,209
40,896	-18,737	270,854	120,046
41,911	-18,927	270,758	119,818
42,926	-18,776	270,692	119,918
43,940	-18,656	270,240	119,817
44,955	-18,730	269,975	119,621
45,969	-18,826	269,875	119,478
46,984	-18,776	269,922	119,533
47,999	-18,625	269,435	119,446
49,013	-18,694	269,260	119,295
50,028	-18,534	269,071	119,347
51,042	-18,733	268,886	119,072
52,057	-18,718	268,603	118,949
53,071	-18,615	268,420	118,952
54,086	-18,714	268,154	118,733
55,101	-18,638	267,805	118,638
56,115	-18,842	267,706	118,397
57,130	-18,739	267,413	118,351
58,144	-18,806	267,166	118,170
59,159	-18,902	266,776	117,899
60,174	-18,996	266,730	117,783
61,188	-18,777	266,316	117,788
62,203	-18,786	266,342	117,781
63,217	-18,746	265,992	117,652
64,232	-18,727	265,816	117,581
65,247	-18,928	265,592	117,290
66,261	-18,791	265,295	117,271
67,276	-18,678	265,046	117,254
68,290	-18,644	264,904	117,212
69,305	-18,365	264,554	117,298
70,320	-18,577	264,410	117,032
71,334	-18,685	264,248	116,853
72,349	-18,625	263,819	116,706
73,363	-18,883	263,758	116,437
74,378	-18,674	263,252	116,391
75,393	-18,894	263,183	116,153
76,407	-18,842	262,967	116,093
77,422	-18,620	262,707	116,167
78,436	-18,722	262,468	115,960
79,451	-18,761	262,322	115,850
80,466	-18,776	262,100	115,729
81,480	-18,587	261,844	115,774
82,495	-18,719	261,625	115,549
83,509	-18,639	261,507	115,558
84,524	-18,731	261,244	115,350
85,539	-18,594	260,956	115,334
86,553	-18,654	260,748	115,178
87,568	-18,666	260,557	115,073
88,582	-18,768	260,575	114,980
89,597	-18,614	260,156	114,921
90,611	-18,749	260,082	114,759
91,626	-18,799	259,858	114,606
92,641	-18,713	259,634	114,573
93,655	-18,552	259,365	114,586
94,670	-18,647	259,070	114,361
95,684	-18,775	258,910	114,168
96,699	-18,702	258,790	114,169
97,714	-18,744	258,598	114,038
98,728	-18,765	258,469	113,952
99,743	-18,495	258,258	114,086
100,757	-18,577	257,988	113,885
101,772	-18,550	257,787	113,809
102,787	-18,808	257,611	113,495
103,801	-18,719	257,357	113,451
104,816	-18,707	257,181	113,374
105,830	-18,638	256,916	113,307
106,845	-18,622	256,724	113,226
107,860	-18,821	256,653	113,012
108,874	-18,820	256,448	112,912
109,889	-18,668	256,121	112,890
110,903	-18,618	255,821	112,791
111,918	-18,570	255,692	112,766
112,933	-18,475	255,489	112,749
113,947	-18,526	255,254	112,590
114,962	-18,691	255,163	112,397
115,976	-18,734	254,995	112,277
116,991	-18,754	254,771	112,150
118,006	-18,788	254,541	112,009
119,020	-18,761	254,391	111,957
120,035	-18,608	254,068	111,938
121,049	-18,614	253,864	111,832
122,064	-18,708	253,971	111,788
123,079	-18,779	253,739	111,615
124,093	-18,593	253,456	111,641
125,108	-18,693	253,171	111,419
126,122	-18,593	253,112	111,469
127,137	-18,577	252,849	111,357
128,151	-18,390	252,639	111,415
129,166	-18,605	252,320	111,080
130,181	-18,553	252,134	111,032
131,195	-18,656	251,926	110,843
132,210	-18,583	251,735	110,812
133,224	-18,539	251,595	110,778
134,239	-18,689	251,443	110,573
135,254	-18,813	251,184	110,344
136,268	-18,627	251,029	110,425
137,283	-18,529	250,901	110,441
138,297	-18,625	250,749	110,283
139,312	-18,621	250,392	110,119
140,327	-18,673	250,228	109,993
141,341	-18,843	250,050	109,761
142,356	-18,599	249,763	109,832
143,370	-18,693	249,552	109,650
144,385	-18,669	249,398	109,593
145,400	-18,560	249,018	109,509
146,414	-18,580	249,120	109,526
147,429	-18,618	248,815	109,350
148,443	-18,668	248,870	109,323
149,458	-18,668	248,614	109,200
150,473	-18,508	248,396	109,229
151,487	-18,569	248,207	109,086
152,502	-18,719	247,967	108,845
153,516	-18,574	247,681	108,831
154,531	-18,657	247,464	108,656
155,546	-18,626	247,283	108,593
156,560	-18,486	247,045	108,596
157,575	-18,578	247,104	108,535
158,589	-18,548	246,758	108,398
159,604	-18,647	246,528	108,206
160,619	-18,593	246,506	108,231
161,633	-18,483	246,112	108,140
162,648	-18,647	246,235	108,048
163,662	-18,497	245,898	108,015
164,677	-18,589	245,997	107,972
165,692	-18,568	245,563	107,789
166,706	-18,480	245,452	107,804
167,721	-18,476	245,296	107,730
168,735	-18,686	245,186	107,497
169,750	-18,606	244,814	107,391
170,764	-18,528	244,789	107,435
171,779	-18,444	244,599	107,411
172,794	-18,797	244,646	107,131
173,808	-18,541	244,256	107,162
174,823	-18,507	244,125	107,123
175,837	-18,484	244,060	107,103
176,852	-18,473	243,819	106,997
177,867	-18,682	243,537	106,692
178,881	-18,422	243,409	106,840
179,896	-18,434	243,105	106,687
180,910	-18,630	242,978	106,461
181,925	-18,534	242,852	106,476
182,940	-18,608	242,828	106,395
183,954	-18,624	242,456	106,209
184,969	-18,486	242,482	106,324
185,983	-18,416	242,140	106,222
186,998	-18,665	242,085	105,985
188,013	-18,646	241,787	105,860
189,027	-18,695	241,595	105,727
190,042	-18,555	241,518	105,797
191,056	-18,590	241,331	105,678
192,071	-18,595	241,177	105,597
193,086	-18,550	240,941	105,521
194,100	-18,616	240,632	105,323
195,115	-18,634	240,567	105,270
196,129	-18,457	240,295	105,285
197,144	-18,680	240,327	105,109
198,159	-18,629	239,953	104,978
199,173	-18,625	239,872	104,936
200,188	-18,577	239,872	104,965
201,202	-18,298	239,462	105,002
202,217	-18,336	239,429	104,947
203,232	-18,348	239,150	104,806
204,246	-18,279	238,867	104,729
205,261	-18,637	238,861	104,428
206,275	-17,056	239,290	105,881
207,290	-12,488	240,941	110,306
208,304	-5,865	242,954	116,623
209,319	-2,070	243,904	120,169
210,334	-1,174	244,305	121,088
211,348	-0,168	244,174	121,834
212,363	0,131	244,167	122,064
213,377	0,385	244,185	122,269
214,392	0,710	244,091	122,476
215,407	0,771	244,098	122,518
216,421	0,799	244,009	122,485
217,436	0,932	243,819	122,487
218,450	1,339	243,509	122,652
219,465	1,293	243,482	122,590
220,480	0,956	243,416	122,271
221,494	1,065	243,132	122,207
222,509	0,592	242,827	121,660
223,523	0,520	242,687	121,520
224,538	0,278	242,413	121,176
225,553	0,300	242,306	121,129
226,567	0,315	242,048	121,002
227,582	0,452	241,936	121,045
228,596	0,437	241,759	120,934
229,611	0,446	241,744	120,923
230,626	0,258	241,639	120,708
231,640	0,335	241,311	120,596
232,655	0,306	241,115	120,464
233,669	0,381	240,962	120,437
234,684	0,351	240,837	120,340
235,699	0,172	240,795	120,164
236,713	0,438	240,576	120,257
237,728	0,425	240,357	120,127
238,742	0,407	240,176	120,012
239,757	0,352	240,031	119,884
240,772	0,372	239,987	119,867
241,786	0,402	239,663	119,719
242,801	0,400	239,521	119,636
243,815	0,273	239,576	119,551
244,830	0,357	239,413	119,526
245,844	0,421	239,149	119,434
246,859	0,303	239,044	119,277
247,874	0,368	238,718	119,156
248,888	0,393	238,558	119,086
249,903	0,588	238,503	119,202
250,917	0,332	238,455	118,964
251,932	0,572	238,229	119,031
252,947	0,440	238,104	118,853
253,961	0,520	238,027	118,868
254,976	0,596	237,680	118,744
255,990	0,402	237,710	118,595
257,005	0,567	237,331	118,525
258,020	0,208	237,275	118,203
259,034	0,742	237,096	118,525
260,049	0,485	236,894	118,211
261,063	0,356	236,740	118,022
262,078	0,559	236,778	118,191
263,093	0,309	236,561	117,875
264,107	0,366	236,238	117,748
265,122	0,475	236,161	117,785
266,136	0,599	236,012	117,797
267,151	0,618	235,782	117,687
268,166	0,402	235,753	117,492
269,180	0,485	235,458	117,400
270,195	0,650	235,440	117,509
271,209	0,591	235,207	117,337
272,224	0,548	235,083	117,231
273,239	0,279	234,952	116,945
274,253	0,445	234,804	116,990
275,268	0,395	234,663	116,871
276,282	0,550	234,364	116,832
277,297	0,418	234,283	116,679
278,312	0,300	234,266	116,568
279,326	0,437	234,097	116,580
280,341	0,553	233,909	116,566
281,355	0,633	233,705	116,516
282,370	0,622	233,606	116,448
283,384	0,588	233,409	116,313
284,399	0,408	233,313	116,116
285,414	0,420	233,133	116,024
286,428	0,626	232,994	116,104
287,443	0,626	232,888	116,041
288,457	0,577	232,832	115,965
289,472	0,748	232,459	115,901
290,487	0,641	232,396	115,777
291,501	0,661	232,116	115,642
292,516	0,466	232,158	115,503
293,530	0,890	231,834	115,658
294,545	0,749	231,829	115,536
295,560	0,698	231,594	115,369
296,574	0,547	231,631	115,262
297,589	0,439	231,338	115,023
298,603	0,428	231,339	115,005
299,618	0,422	231,213	114,927
300,633	0,594	230,926	114,906
301,647	0,594	230,913	114,889
302,662	0,754	230,729	114,910
303,676	0,758	230,399	114,738
304,691	0,728	230,476	114,743
305,706	0,637	230,140	114,497
306,720	0,747	230,081	114,541
307,735	0,839	229,896	114,508
308,749	0,766	229,839	114,414
309,764	0,915	229,595	114,396
310,779	0,700	229,495	114,172
311,793	0,627	229,404	114,061
312,808	0,715	229,210	114,022
313,822	0,759	228,998	113,939
314,837	1,015	228,841	114,045
315,852	0,684	228,805	113,767
316,866	0,870	228,753	113,871
317,881	0,704	228,463	113,591
318,895	0,960	228,235	113,661
319,910	0,829	228,035	113,452
320,925	0,721	228,109	113,398
321,939	0,697	227,765	113,199
322,954	0,720	227,815	113,230
323,968	0,740	227,693	113,175
324,983	0,814	227,407	113,078
325,997	0,674	227,374	112,946
327,012	0,615	227,182	112,796
328,027	0,784	226,889	112,768
329,041	0,818	226,804	112,741
330,056	0,812	226,778	112,713
331,070	0,753	226,648	112,594
332,085	0,969	226,435	112,640
333,100	0,873	226,217	112,451
334,114	0,848	226,040	112,334
335,129	0,690	226,044	112,207
336,143	0,757	225,871	112,162
337,158	0,954	225,767	112,247
338,173	0,967	225,673	112,200
339,187	1,178	225,327	112,175
340,202	0,997	225,271	112,002
341,216	1,106	225,129	112,003
342,231	0,856	225,012	111,749
343,246	0,976	224,878	111,761
344,260	1,071	224,758	111,762
345,275	0,892	224,665	111,573
346,289	0,935	224,485	111,506
347,304	1,090	224,330	111,533
348,319	0,884	224,163	111,288
349,333	1,030	224,015	111,313
350,348	1,015	223,808	111,189
351,362	0,952	223,775	111,116
352,377	0,970	223,651	111,058
353,392	1,012	223,565	111,036
354,406	1,039	223,382	110,956
355,421	191,818	1312,424	1375,804
356,435	153,568	1444,937	1375,620
