DTS Sentinel unit serial number:	SN410029Multiplexer serial number:	ORYXHardware model number:	OX2-SRSoftware version number:	ORYX F/W v4,00 Oryx Data Collector v3.7.2.0data status	okinstallation	B5 Nyhavnadifferential loss correction	single-endedforward channel	channel 2reverse channel	N/Adate	2023/12/12time	12:22:13forward acquisition time	300,00reverse acquisition time	0,00gamma	499,1914k internal	0,3158k external	0,3158temperature offset calibration	1,0000default loss term (dB/km)	0,3820temperature slope calibration	1,0000multiplexer offset coefficient	1,0000multiplexer slope coefficient	1,0000fibre end	0,00T internal ref (°C)	15,27T ext. ref 1 (°C)	-0,61T ext. ref 2 (°C)	-0,86length (m)	temperature (°C)	Stokes	anti-Stokes-744,400	-139,296	0,115	0,009
-743,385	-103,418	-0,236	0,041
-742,371	-88,763	0,128	0,028
-741,356	-44,382	-0,217	0,080
-740,342	-200,000	0,030	0,140
-739,327	-108,285	-0,383	0,060
-738,312	389,076	0,044	0,068
-737,298	-183,920	-0,323	-0,004
-736,283	-79,667	0,119	0,029
-735,269	-46,297	-0,219	-0,079
-734,254	-200,000	-0,001	0,028
-733,239	-38,420	-0,578	-0,224
-732,225	-7,703	0,098	-0,049
-731,210	-21,200	-0,156	0,070
-730,196	-200,000	-0,002	0,021
-729,181	-200,000	0,023	-0,091
-728,167	800,000	0,054	-0,139
-727,152	-39,533	-0,034	-0,013
-726,137	-64,759	0,063	-0,019
-725,123	49,253	0,022	-0,015
-724,108	800,000	-0,055	0,118
-723,094	-118,412	-0,053	-0,007
-722,079	538,065	0,080	-0,141
-721,064	-63,746	-0,112	-0,034
-720,050	14,052	0,056	-0,032
-719,035	-75,974	-0,137	-0,035
-718,021	13,115	-0,109	-0,062
-717,006	-200,000	0,029	0,102
-715,991	-54,873	-0,157	-0,052
-714,977	109,913	-0,069	-0,061
-713,962	499,625	0,106	-0,181
-712,948	800,000	-0,041	-0,120
-711,933	-64,177	-0,145	-0,043
-710,918	513,961	-0,040	-0,068
-709,904	150,438	-0,159	-0,159
-708,889	-200,000	0,011	-0,143
-707,875	642,544	-0,085	-0,161
-706,860	312,101	-0,059	0,082
-705,845	800,000	0,041	-0,093
-704,831	-69,245	0,110	0,031
-703,816	92,990	0,036	-0,030
-702,802	-200,000	0,010	0,078
-701,787	-200,000	-0,010	-0,102
-700,772	-43,984	-0,056	0,021
-699,758	153,939	0,028	-0,028
-698,743	-200,000	-0,028	-0,142
-697,729	-200,000	0,003	0,117
-696,714	456,246	-0,017	0,027
-695,699	-97,925	-0,070	-0,013
-694,685	307,989	-0,043	-0,060
-693,670	-193,244	0,077	0,000
-692,656	-31,768	-0,100	-0,041
-691,641	-200,000	0,016	-0,108
-690,627	68,957	-0,022	-0,016
-689,612	92,901	-0,013	0,011
-688,597	56,277	-0,130	-0,093
-687,583	-200,000	0,028	-0,091
-686,568	-34,751	0,093	0,037
-685,554	-200,000	0,006	-0,103
-684,539	-139,004	0,063	0,005
-683,524	800,000	-0,055	-0,116
-682,510	-50,092	-0,078	-0,027
-681,495	-80,841	-0,104	0,025
-680,481	800,000	0,021	0,049
-679,466	800,000	-0,002	0,004
-678,451	-37,100	-0,158	0,062
-677,437	-63,576	0,147	0,044
-676,422	60,042	-0,082	0,059
-675,408	-200,000	-0,000	-0,091
-674,393	-64,557	0,106	0,031
-673,378	165,849	0,072	-0,075
-672,364	-140,993	-0,034	-0,003
-671,349	800,000	-0,028	-0,070
-670,335	-113,423	-0,153	-0,022
-669,320	8,959	0,100	-0,055
-668,305	12,309	-0,114	-0,064
-667,291	12,938	-0,056	0,032
-666,276	-157,638	0,088	-0,004
-665,262	-53,047	-0,200	0,067
-664,247	-200,000	0,001	0,052
-663,232	69,658	0,067	-0,051
-662,218	7,332	0,034	0,019
-661,203	800,000	0,010	0,027
-660,189	6,745	-0,072	0,039
-659,174	-96,908	0,016	0,003
-658,159	-200,000	0,057	-0,211
-657,145	636,383	0,026	-0,049
-656,130	-72,848	-0,081	0,022
-655,116	64,151	0,063	-0,046
-654,101	800,000	-0,019	-0,045
-653,086	800,000	-0,048	0,140
-652,072	-24,299	-0,073	-0,032
-651,057	-2,589	-0,164	0,084
-650,043	670,496	0,078	-0,149
-649,028	-200,000	-0,001	-0,108
-648,014	-200,000	-0,013	-0,059
-646,999	106,816	0,043	0,037
-645,984	-119,023	0,074	0,009
-644,970	800,000	0,014	-0,039
-643,955	800,000	-0,012	0,026
-642,941	99,574	0,048	-0,041
-641,926	719,232	0,069	-0,135
-640,911	-200,000	-0,006	-0,073
-639,897	800,000	0,026	-0,063
-638,882	17,670	-0,047	-0,027
-637,868	-200,000	0,034	0,250
-636,853	-46,538	-0,098	-0,035
-635,838	213,256	-0,051	-0,059
-634,824	151,801	0,043	-0,043
-633,809	136,748	0,059	-0,057
-632,795	25,129	-0,043	-0,026
-631,780	-28,531	0,091	-0,038
-630,765	-200,000	0,011	0,109
-629,751	-200,000	-0,006	0,080
-628,736	-103,114	0,074	-0,013
-627,722	-5,759	0,037	-0,018
-626,707	33,702	-0,062	-0,039
-625,692	64,341	-0,080	-0,059
-624,678	-116,313	-0,050	0,007
-623,663	-200,000	-0,011	0,112
-622,649	-66,014	-0,117	-0,034
-621,634	19,750	0,027	0,016
-620,619	-142,333	0,110	-0,008
-619,605	-200,000	-0,039	-0,130
-618,590	-93,304	-0,111	0,022
-617,576	-55,813	0,029	-0,010
-616,561	-24,725	-0,136	-0,059
-615,546	-87,795	0,093	-0,020
-614,532	-200,000	-0,032	-0,142
-613,517	-29,904	0,053	0,022
-612,503	-97,006	-0,137	-0,026
-611,488	-200,000	0,023	0,088
-610,474	-10,915	-0,059	0,028
-609,459	106,709	0,095	0,082
-608,444	-200,000	-0,001	-0,092
-607,430	458,437	-0,059	-0,097
-606,415	510,782	-0,073	-0,126
-605,401	146,213	0,039	-0,038
-604,386	59,898	-0,075	0,055
-603,371	800,000	0,083	0,185
-602,357	661,818	0,042	0,080
-601,342	-30,363	-0,060	0,025
-600,328	323,071	-0,071	-0,100
-599,313	-200,000	0,007	-0,103
-598,298	0,108	0,163	-0,085
-597,284	800,000	0,058	-0,136
-596,269	136,871	-0,127	-0,121
-595,255	-57,279	0,079	-0,025
-594,240	483,490	-0,050	-0,084
-593,225	31,635	-0,054	0,034
-592,211	98,267	-0,060	-0,051
-591,196	99,161	-0,012	0,010
-590,182	-62,625	0,165	-0,050
-589,167	-200,000	-0,026	-0,086
-588,152	162,538	0,069	-0,071
-587,138	0,733	0,092	0,048
-586,123	-200,000	0,001	-0,050
-585,109	105,566	-0,044	-0,038
-584,094	-94,205	0,058	-0,012
-583,079	29,895	-0,045	0,028
-582,065	-153,676	0,230	-0,011
-581,050	-200,000	0,008	0,058
-580,036	800,000	-0,044	0,120
-579,021	126,053	0,051	-0,047
-578,006	-200,000	-0,014	0,050
-576,992	162,670	0,073	-0,075
-575,977	-134,252	-0,043	0,004
-574,963	-111,222	0,141	0,021
-573,948	139,627	0,118	-0,114
-572,934	800,000	0,042	0,132
-571,919	-94,114	-0,128	-0,026
-570,904	173,533	-0,049	-0,052
-569,890	351,314	0,095	-0,139
-568,875	13,246	0,055	0,031
-567,861	245,777	0,033	-0,041
-566,846	-200,000	-0,021	0,099
-565,831	-125,162	-0,110	0,012
-564,817	-200,000	0,013	-0,129
-563,802	800,000	-0,057	-0,153
-562,788	-107,774	-0,164	-0,026
-561,773	-55,348	0,041	0,013
-560,758	-147,840	0,141	0,009
-559,744	-200,000	0,002	0,075
-558,729	800,000	0,038	0,119
-557,715	2,405	-0,124	-0,065
-556,700	191,224	-0,023	-0,025
-555,685	-200,000	-0,008	0,062
-554,671	-200,000	-0,002	0,052
-553,656	251,231	-0,119	0,149
-552,642	-200,000	0,036	0,145
-551,627	247,345	0,021	-0,026
-550,612	561,976	0,073	-0,129
-549,598	800,000	-0,048	-0,130
-548,583	-200,000	0,006	0,028
-547,569	283,134	-0,090	0,118
-546,554	-200,000	0,009	-0,090
-545,539	135,762	-0,031	0,029
-544,525	636,883	-0,055	0,103
-543,510	-200,000	-0,040	0,141
-542,496	-166,030	-0,089	-0,003
-541,481	157,460	0,087	-0,088
-540,466	-64,042	-0,177	-0,052
-539,452	348,360	-0,056	0,081
-538,437	31,293	0,067	0,042
-537,423	-200,000	0,020	-0,096
-536,408	340,946	0,056	-0,080
-535,393	-200,000	-0,006	-0,183
-534,379	310,382	0,044	-0,060
-533,364	-152,010	-0,094	-0,005
-532,350	800,000	0,097	0,266
-531,335	-200,000	0,026	0,091
-530,321	-89,581	-0,054	0,011
-529,306	486,932	-0,064	0,108
-528,291	-200,000	0,005	-0,029
-527,277	-200,000	0,018	-0,064
-526,262	-83,445	0,018	0,004
-525,248	-25,238	-0,046	-0,020
-524,233	800,000	-0,031	0,073
-523,218	-200,000	0,037	0,151
-522,204	-200,000	-0,066	-0,225
-521,189	35,819	-0,067	-0,043
-520,175	133,698	-0,074	-0,070
-519,160	-165,320	-0,139	0,004
-518,145	800,000	0,029	-0,075
-517,131	400,761	0,078	0,119
-516,116	800,000	0,061	0,144
-515,102	620,501	-0,039	0,073
-514,087	-200,000	0,006	-0,121
-513,072	800,000	-0,026	-0,078
-512,058	-100,237	0,080	-0,014
-511,043	74,284	-0,070	-0,054
-510,029	-200,000	0,008	-0,148
-509,014	336,414	-0,029	0,041
-507,999	-111,431	-0,136	0,020
-506,985	-124,287	-0,071	-0,008
-505,970	-118,274	0,023	-0,003
-504,956	116,200	0,094	-0,084
-503,941	-81,931	0,077	-0,018
-502,926	216,758	-0,026	0,030
-501,912	-200,000	-0,024	0,080
-500,897	108,012	0,037	-0,032
-499,883	184,924	-0,149	0,162
-498,868	4,289	-0,148	-0,079
-497,853	46,614	-0,130	-0,088
-496,839	-200,000	0,005	-0,167
-495,824	104,744	0,011	0,009
-494,810	167,507	-0,027	0,028
-493,795	-98,487	0,036	0,007
-492,781	508,920	0,073	-0,124
-491,766	431,166	0,055	0,086
-490,751	-138,616	-0,091	0,007
-489,737	87,589	-0,073	0,059
-488,722	58,795	0,072	-0,052
-487,708	-200,000	0,002	-0,007
-486,693	-200,000	0,006	0,053
-485,678	-200,000	-0,009	-0,092
-484,664	83,443	-0,106	-0,084
-483,649	-200,000	-0,016	-0,061
-482,635	-64,304	0,098	-0,029
-481,620	-200,000	0,017	-0,062
-480,605	800,000	0,077	0,158
-479,591	427,051	-0,080	-0,127
-478,576	119,944	0,026	0,023
-477,562	409,186	-0,061	-0,095
-476,547	-57,766	0,041	-0,013
-475,532	530,016	0,020	0,035
-474,518	-200,000	-0,005	0,159
-473,503	-200,000	0,025	-0,135
-472,489	-200,000	0,000	0,099
-471,474	335,819	-0,059	-0,083
-470,459	-38,796	-0,136	-0,052
-469,445	-200,000	0,050	-0,192
-468,430	-200,000	-0,017	-0,133
-467,416	94,437	-0,093	-0,077
-466,401	800,000	0,036	-0,093
-465,386	-188,133	-0,105	0,001
-464,372	24,064	-0,031	0,019
-463,357	-200,000	0,002	-0,092
-462,343	66,141	-0,067	-0,050
-461,328	2,744	-0,100	-0,053
-460,313	64,387	-0,100	0,074
-459,299	800,000	0,048	-0,126
-458,284	800,000	0,031	0,071
-457,270	-200,000	-0,009	-0,138
-456,255	30,619	0,044	-0,027
-455,241	663,296	-0,008	0,016
-454,226	-200,000	0,013	0,067
-453,211	-89,273	0,094	-0,020
-452,197	-200,000	0,007	0,102
-451,182	-41,290	0,051	0,019
-450,168	561,606	0,095	0,168
-449,153	277,000	-0,034	0,044
-448,138	800,000	-0,039	-0,102
-447,124	325,447	0,086	0,120
-446,109	-200,000	-0,011	-0,066
-445,095	259,973	0,106	0,134
-444,080	-200,000	0,004	0,157
-443,065	-127,830	-0,070	-0,007
-442,051	800,000	-0,050	-0,106
-441,036	-200,000	-0,012	-0,083
-440,022	-25,135	-0,155	0,067
-439,007	-200,000	-0,049	-0,191
-437,992	100,664	-0,052	-0,044
-436,978	-122,997	0,123	0,014
-435,963	95,611	0,083	0,069
-434,949	217,450	0,071	0,083
-433,934	-199,317	-0,013	0,000
-432,919	251,820	-0,063	-0,079
-431,905	800,000	0,032	0,068
-430,890	800,000	-0,045	-0,117
-429,876	285,229	0,051	0,067
-428,861	-73,042	0,113	0,030
-427,846	125,930	-0,047	0,043
-426,832	-200,000	0,001	-0,107
-425,817	-200,000	-0,025	0,085
-424,803	-1,856	-0,125	0,064
-423,788	800,000	0,081	0,177
-422,773	-124,403	-0,109	0,012
-421,759	-168,977	0,099	-0,003
-420,744	401,083	-0,085	0,130
-419,730	800,000	-0,040	-0,097
-418,715	439,934	-0,074	-0,118
-417,701	161,829	0,132	-0,135
-416,686	-53,874	-0,007	-0,002
-415,671	-18,941	0,066	0,030
-414,657	261,773	0,050	0,063
-413,642	800,000	0,035	0,089
-412,628	72,478	0,076	-0,058
-411,613	260,975	0,070	-0,089
-410,598	483,943	-0,041	-0,068
-409,584	-35,284	0,019	-0,008
-408,569	-108,208	-0,056	-0,009
-407,555	-6,817	-0,022	-0,011
-406,540	-187,784	0,079	0,001
-405,525	-200,000	-0,009	-0,051
-404,511	339,333	-0,087	-0,123
-403,496	13,728	-0,088	-0,050
-402,482	4,230	0,080	0,042
-401,467	126,722	0,108	0,100
-400,452	-103,267	0,093	-0,016
-399,438	-17,479	-0,090	0,041
-398,423	-29,540	0,071	0,030
-397,409	-28,573	-0,096	0,040
-396,394	125,163	-0,050	0,046
-395,379	602,031	-0,052	0,095
-394,365	124,423	0,059	0,054
-393,350	-200,000	0,014	0,177
-392,336	-4,760	0,039	0,020
-391,321	367,776	0,035	-0,051
-390,306	800,000	-0,003	0,010
-389,292	800,000	-0,119	-0,245
-388,277	800,000	0,030	-0,093
-387,263	-135,383	0,140	0,012
-386,248	-200,000	-0,061	0,210
-385,233	597,587	0,026	0,047
-384,219	-200,000	-0,028	0,000
-383,204	-112,989	-0,038	0,005
-382,190	264,178	-0,018	-0,022
-381,175	641,676	0,059	-0,109
-380,160	92,243	0,057	0,047
-379,146	-200,000	0,006	0,045
-378,131	-70,106	0,108	-0,030
-377,117	184,008	0,057	0,061
-376,102	535,629	0,078	-0,135
-375,088	-165,661	0,068	-0,002
-374,073	168,444	-0,071	0,073
-373,058	302,289	0,064	0,087
-372,044	-131,153	-0,092	-0,009
-371,029	-200,000	0,010	0,048
-370,015	-135,113	-0,032	0,003
-369,000	-81,170	-0,055	0,013
-367,985	712,373	0,085	0,164
-366,971	-200,000	0,005	-0,042
-365,956	-68,347	-0,066	-0,018
-364,942	90,293	0,018	0,015
-363,927	232,105	-0,038	0,046
-362,912	800,000	0,025	0,074
-361,898	-23,300	-0,049	0,021
-360,883	552,189	0,058	-0,101
-359,869	-2,927	-0,148	-0,075
-358,854	340,358	0,044	0,062
-357,839	513,880	0,049	0,083
-356,825	-143,700	0,165	0,011
-355,810	-200,000	0,042	0,176
-354,796	313,527	-0,056	0,077
-353,781	-119,161	-0,094	-0,012
-352,766	-155,253	-0,134	0,006
-351,752	654,144	-0,025	-0,048
-350,737	-114,978	0,135	-0,018
-349,723	-200,000	-0,014	0,060
-348,708	253,138	-0,058	-0,073
-347,693	-112,067	-0,114	0,017
-346,679	31,049	-0,075	0,047
-345,664	82,268	-0,073	0,058
-344,650	-85,296	0,062	0,014
-343,635	168,880	-0,056	0,058
-342,620	-200,000	-0,008	-0,085
-341,606	41,416	0,009	-0,006
-340,591	-69,703	0,086	0,024
-339,577	-70,620	0,076	0,021
-338,562	-200,000	-0,019	0,076
-337,548	-200,000	-0,007	-0,073
-336,533	461,925	0,066	0,108
-335,518	-70,641	0,190	-0,052
-334,504	-200,000	0,004	-0,031
-333,489	71,932	0,066	-0,049
-332,475	-200,000	-0,017	-0,135
-331,460	360,533	-0,088	-0,128
-330,445	-123,340	0,063	0,007
-329,431	-200,000	0,004	0,021
-328,416	800,000	0,078	0,178
-327,402	-200,000	-0,048	0,158
-326,387	-200,000	-0,009	0,061
-325,372	101,849	-0,107	-0,091
-324,358	350,444	0,033	-0,048
-323,343	566,900	0,034	-0,059
-322,329	-18,445	0,130	-0,059
-321,314	-108,591	0,220	0,034
-320,299	-200,000	-0,009	0,081
-319,285	58,680	-0,084	0,060
-318,270	266,503	-0,007	-0,009
-317,256	-132,063	-0,160	-0,015
-316,241	-200,000	0,025	-0,110
-315,226	-117,440	0,063	-0,008
-314,212	-200,000	0,013	-0,134
-313,197	-200,000	-0,001	-0,022
-312,183	-38,217	-0,097	-0,037
-311,168	398,074	-0,060	-0,091
-310,153	800,000	0,025	-0,073
-309,139	100,441	-0,078	-0,066
-308,124	771,794	-0,017	-0,033
-307,110	224,928	0,050	0,058
-306,095	-66,374	0,135	0,039
-305,080	97,498	-0,046	-0,039
-304,066	800,000	0,065	0,157
-303,051	-6,471	-0,103	-0,050
-302,037	-101,961	-0,167	0,029
-301,022	-107,766	0,099	-0,015
-300,008	-175,388	0,092	-0,002
-298,993	29,862	-0,068	0,042
-297,978	57,018	0,045	-0,032
-296,964	-200,000	-0,007	-0,042
-295,949	-200,000	0,008	0,091
-294,935	114,975	-0,050	-0,044
-293,920	28,708	-0,081	-0,050
-292,905	-58,179	-0,023	-0,007
-291,891	-200,000	-0,019	0,094
-290,876	259,378	-0,039	-0,049
-289,862	800,000	0,008	0,024
-288,847	117,446	-0,092	-0,082
-287,832	435,102	0,032	-0,051
-286,818	800,000	-0,047	0,126
-285,803	-128,107	0,130	-0,013
-284,789	-92,728	0,050	0,010
-283,774	800,000	-0,056	0,138
-282,759	800,000	0,017	0,041
-281,745	67,673	-0,085	0,063
-280,730	-200,000	0,010	-0,118
-279,716	36,930	0,114	-0,073
-278,701	-99,680	0,121	-0,022
-277,686	-146,715	0,067	-0,004
-276,672	64,122	-0,083	0,061
-275,657	322,141	-0,021	0,028
-274,643	-62,525	-0,142	0,043
-273,628	74,366	-0,118	0,090
-272,613	608,591	-0,027	-0,049
-271,599	-100,104	0,104	0,019
-270,584	-200,000	-0,008	-0,196
-269,570	454,863	-0,051	0,083
-268,555	-200,000	0,051	0,165
-267,540	-40,320	0,031	0,012
-266,526	800,000	0,024	-0,060
-265,511	800,000	0,031	-0,097
-264,497	452,652	0,011	-0,018
-263,482	-71,795	-0,129	0,035
-262,467	100,688	0,098	0,082
-261,453	-109,522	0,071	0,011
-260,438	-63,307	-0,133	-0,039
-259,424	-200,000	0,002	0,089
-258,409	-200,000	-0,011	-0,048
-257,395	-200,000	0,013	-0,125
-256,380	285,032	-0,035	0,045
-255,365	349,245	0,018	0,025
-254,351	16,334	0,125	0,071
-253,336	2,093	-0,212	-0,110
-252,322	-157,867	0,043	0,002
-251,307	-200,000	-0,007	-0,047
-250,292	-140,903	0,116	0,009
-249,278	-68,938	0,039	0,011
-248,263	-42,429	-0,125	0,046
-247,249	800,000	0,022	-0,055
-246,234	134,923	0,028	0,027
-245,219	800,000	-0,020	0,043
-244,205	-37,031	0,020	-0,008
-243,190	264,359	0,021	0,027
-242,176	60,916	0,054	0,039
-241,161	380,229	0,061	0,091
-240,146	-5,028	0,137	-0,068
-239,132	461,415	-0,031	-0,050
-238,117	-97,110	-0,102	-0,019
-237,103	-200,000	-0,026	-0,105
-236,088	190,664	-0,135	0,147
-235,073	800,000	-0,041	0,099
-234,059	-91,690	0,087	0,018
-233,044	-200,000	0,002	0,050
-232,030	800,000	0,058	0,121
-231,015	158,244	-0,057	-0,057
-230,000	800,000	-0,082	0,168
-228,986	-38,184	0,110	-0,042
-227,971	-200,000	-0,006	0,202
-226,957	65,109	0,106	0,077
-225,942	-129,186	-0,050	-0,005
-224,927	-142,721	0,083	-0,006
-223,913	508,594	-0,037	0,063
-222,898	-200,000	0,003	0,057
-221,884	105,292	0,028	-0,024
-220,869	-200,000	0,001	-0,020
-219,855	213,016	0,027	0,031
-218,840	800,000	-0,026	0,070
-217,825	-200,000	0,028	0,100
-216,811	705,698	0,045	-0,086
-215,796	18,102	0,028	-0,016
-214,782	-107,637	0,028	0,004
-213,767	715,240	0,036	0,070
-212,752	119,568	0,210	0,188
-211,738	-200,000	0,013	-0,106
-210,723	800,000	0,021	-0,062
-209,709	-112,119	0,162	0,023
-208,694	800,000	0,038	-0,084
-207,679	146,520	-0,041	0,040
-206,665	-113,338	0,096	-0,013
-205,650	-63,257	-0,033	-0,010
-204,636	702,973	-0,063	0,119
-203,621	800,000	0,027	-0,060
-202,606	684,986	-0,052	-0,098
-201,592	-182,936	0,135	0,002
-200,577	-200,000	0,020	0,110
-199,563	-17,869	-0,083	-0,038
-198,548	-200,000	0,008	0,132
-197,533	-9,561	0,085	0,041
-196,519	219,741	-0,056	-0,065
-195,504	522,051	-0,011	0,018
-194,490	-200,000	0,001	-0,062
-193,475	172,942	0,017	-0,018
-192,460	-114,515	0,052	0,007
-191,446	-143,495	0,034	-0,002
-190,431	3,728	0,041	0,021
-189,417	216,625	-0,076	0,088
-188,402	-113,368	-0,128	-0,018
-187,387	-49,310	-0,180	-0,061
-186,373	-200,000	0,022	-0,086
-185,358	218,244	0,042	0,048
-184,344	160,003	0,155	0,156
-183,329	-89,767	0,086	-0,018
-182,315	182,119	-0,052	0,055
-181,300	800,000	0,023	-0,056
-180,285	800,000	0,016	0,040
-179,271	-10,988	-0,060	0,028
-178,256	800,000	0,035	-0,107
-177,242	27,720	-0,041	-0,025
-176,227	-200,000	0,009	0,045
-175,212	19,929	0,085	-0,049
-174,198	-199,816	0,108	-0,000
-173,183	-200,000	0,021	-0,133
-172,169	26,741	-0,119	0,071
-171,154	793,795	-0,062	0,124
-170,139	185,254	-0,060	0,064
-169,125	-7,839	0,054	0,026
-168,110	-47,079	0,137	-0,048
-167,096	526,910	-0,055	0,094
-166,081	28,108	-0,089	0,054
-165,066	-52,257	-0,083	0,028
-164,052	41,847	-0,104	-0,068
-163,037	76,589	0,104	0,079
-162,023	-200,000	-0,013	-0,141
-161,008	168,950	0,057	0,058
-159,993	800,000	-0,016	0,033
-158,979	800,000	-0,012	0,025
-157,964	70,505	-0,056	-0,041
-156,950	171,584	-0,096	0,100
-155,935	21,874	-0,106	-0,062
-154,920	-88,416	0,062	0,013
-153,906	204,837	0,090	0,101
-152,891	276,523	-0,074	0,094
-151,877	-10,297	-0,057	0,027
-150,862	-26,104	-0,122	0,052
-149,847	-83,549	-0,060	-0,014
-148,833	26,190	-0,073	-0,044
-147,818	-200,000	0,008	-0,052
-146,804	-90,451	0,076	-0,016
-145,789	604,805	0,037	-0,067
-144,775	-30,119	0,046	-0,019
-143,760	-200,000	0,025	-0,080
-142,745	-200,000	-0,223	0,001
-141,731	23,990	-0,058	-0,035
-140,716	304,246	-0,052	0,069
-139,702	40,468	0,092	0,059
-138,687	40,990	-0,109	0,071
-137,672	-200,000	-0,023	-0,084
-136,658	800,000	0,048	0,127
-135,643	-200,000	-0,004	-0,037
-134,629	800,000	0,051	0,158
-133,614	800,000	0,027	0,060
-132,599	73,972	0,128	0,097
-131,585	188,698	-0,046	0,050
-130,570	-200,000	-0,034	0,158
-129,556	800,000	-0,010	-0,033
-128,541	-200,000	0,004	0,019
-127,526	800,000	-0,052	-0,106
-126,512	-200,000	0,019	0,064
-125,497	59,915	-0,045	-0,032
-124,483	60,240	0,108	-0,077
-123,468	94,541	-0,123	-0,101
-122,453	393,039	0,013	0,019
-121,439	111,505	0,088	0,076
-120,424	-200,000	0,037	-0,121
-119,410	-200,000	0,014	0,090
-118,395	-200,000	-0,004	0,075
-117,380	-200,000	0,010	0,039
-116,366	64,722	0,085	0,061
-115,351	-22,599	-0,054	-0,023
-114,337	-200,000	0,002	-0,111
-113,322	87,613	0,024	-0,019
-112,307	-125,307	0,080	0,009
-111,293	-200,000	-0,044	-0,147
-110,278	125,664	0,028	0,026
-109,264	60,873	-0,131	-0,093
-108,249	-58,415	-0,140	-0,044
-107,234	-200,000	-0,015	-0,113
-106,220	-31,787	0,058	0,023
-105,205	270,674	0,110	0,140
-104,191	-16,581	0,081	-0,037
-103,176	-149,551	-0,011	-0,001
-102,162	-138,977	0,044	-0,003
-101,147	-72,850	-0,079	0,021
-100,132	272,978	0,079	-0,101
-99,118	129,822	0,061	-0,056
-98,103	526,072	-0,030	0,051
-97,089	-127,215	0,054	0,006
-96,074	-200,000	0,021	0,088
-95,059	-200,000	0,004	-0,041
-94,045	89,049	0,080	0,064
-93,030	-16,707	-0,101	-0,046
-92,016	-130,226	0,043	-0,004
-91,001	-143,869	-0,078	0,005
-89,986	800,000	0,049	0,140
-88,972	211,229	-0,061	-0,069
-87,957	-142,596	0,098	-0,007
-86,943	-126,793	0,067	0,007
-85,928	-68,250	0,028	-0,008
-84,913	170,390	0,079	-0,081
-83,899	-155,506	-0,120	0,005
-82,884	-100,250	-0,021	0,004
-81,870	225,412	-0,050	-0,059
-80,855	15,511	0,003	0,002
-79,840	-200,000	0,010	-0,034
-78,826	800,000	-0,041	-0,092
-77,811	-180,819	-0,082	0,001
-76,797	-200,000	-0,020	-0,134
-75,782	16,727	0,062	0,035
-74,767	-3,681	0,060	-0,030
-73,753	478,626	-0,039	-0,064
-72,738	-16,143	-0,114	0,052
-71,724	473,585	-0,061	-0,099
-70,709	397,788	0,065	-0,098
-69,694	180,072	-0,106	-0,112
-68,680	56,641	-0,101	0,071
-67,665	-200,000	0,000	0,054
-66,651	610,500	-0,008	0,015
-65,636	800,000	-0,078	0,176
-64,622	-200,000	0,000	0,153
-63,607	280,178	-0,154	0,197
-62,592	800,000	-0,010	0,028
-61,578	60,737	-0,114	-0,081
-60,563	450,193	-0,057	-0,090
-59,549	10,618	0,033	-0,018
-58,534	3,226	-1,958	-1,019
-57,519	800,000	-0,302	-0,726
-56,505	-200,000	-1,317	-5,006
-55,490	27,940	0,823	0,497
-54,476	800,000	5,316	12,163
-53,461	-200,000	17,690	283,563
-52,446	800,000	727,304	2214,866
-51,432	534,911	1643,381	2806,927
-50,417	109,974	1633,614	1406,217
-49,403	75,584	1286,282	973,690
-48,388	32,073	1027,065	633,933
-47,373	20,095	989,251	571,113
-46,359	18,459	977,006	558,661
-45,344	15,613	973,056	547,071
-44,330	15,835	971,540	546,924
-43,315	15,368	969,778	544,386
-42,300	15,258	968,866	543,492
-41,286	15,262	967,773	542,870
-40,271	15,295	966,514	542,252
-39,257	15,284	965,751	541,767
-38,242	15,306	964,882	541,328
-37,227	15,272	964,219	540,823
-36,213	15,274	963,352	540,323
-35,198	15,209	962,376	539,543
-34,184	15,292	961,570	539,340
-33,169	15,268	960,604	538,699
-32,154	15,346	959,646	538,391
-31,140	15,363	958,632	537,855
-30,125	15,307	958,211	537,417
-29,111	15,269	957,400	536,818
-28,096	15,358	956,547	536,606
-27,082	15,255	956,091	535,996
-26,067	15,240	955,234	535,448
-25,052	15,345	954,334	535,258
-24,038	15,256	954,014	534,773
-23,023	15,327	953,041	534,434
-22,009	15,308	952,557	534,081
-20,994	15,335	951,839	533,743
-19,979	15,316	951,242	533,326
-18,965	15,265	950,525	532,740
-17,950	15,339	949,878	532,592
-16,936	15,263	949,371	532,046
-15,921	15,236	948,599	531,503
-14,906	15,210	947,793	530,949
-13,892	15,198	947,344	530,639
-12,877	15,146	946,601	530,034
-11,863	15,103	945,966	529,521
-10,848	15,192	945,465	529,504
-9,833	15,303	944,942	529,541
-8,819	15,298	944,268	529,126
-7,804	15,246	943,780	528,667
-6,790	15,240	943,167	528,283
-5,775	15,222	942,735	527,963
-4,760	15,234	941,994	527,567
-3,746	15,230	941,216	527,098
-2,731	15,072	940,546	526,202
-1,717	15,017	940,123	525,770
-0,702	15,119	939,088	525,491
0,313	14,845	938,475	525,077
1,327	18,112	936,690	534,320
2,342	27,171	793,862	476,831
3,356	23,894	459,469	270,939
4,371	-2,895	315,067	157,266
5,386	-6,895	296,882	144,120
6,400	-8,893	290,868	139,201
7,415	-9,376	288,320	137,493
8,429	-9,634	286,914	136,557
9,444	-9,671	285,965	136,057
10,459	-9,706	285,135	135,616
11,473	-9,674	284,752	135,452
12,488	-9,652	284,065	135,135
13,502	-9,585	283,578	134,957
14,517	-9,715	283,246	134,661
15,531	-9,628	282,541	134,397
16,546	-9,629	282,292	134,267
17,561	-9,821	281,922	133,893
18,575	-9,783	281,597	133,763
19,590	-9,804	281,085	133,488
20,604	-9,788	280,750	133,332
21,619	-9,895	280,483	133,091
22,634	-9,709	280,005	133,031
23,648	-9,807	279,878	132,865
24,663	-9,896	279,464	132,571
25,677	-9,916	279,294	132,460
26,692	-9,733	278,991	132,478
27,707	-9,753	278,769	132,343
28,721	-9,875	278,420	132,049
29,736	-10,043	278,323	131,831
30,750	-10,012	277,875	131,637
31,765	-9,977	277,662	131,558
32,780	-9,738	277,434	131,664
33,794	-9,924	277,187	131,359
34,809	-9,923	277,076	131,295
35,823	-9,942	276,712	131,094
36,838	-9,774	276,406	131,096
37,853	-10,100	276,277	130,715
38,867	-9,810	275,877	130,788
39,882	-9,870	275,739	130,653
40,896	-9,989	275,573	130,452
41,911	-9,935	275,139	130,285
42,926	-9,860	274,942	130,251
43,940	-9,836	274,618	130,108
44,955	-9,799	274,463	130,058
45,969	-10,070	274,309	129,720
46,984	-10,070	274,029	129,576
47,999	-10,268	273,780	129,261
49,013	-10,443	273,443	128,928
50,028	-10,411	272,995	128,734
51,042	-10,599	272,856	128,483
52,057	-10,751	272,726	128,268
53,071	-10,720	272,571	128,213
54,086	-10,458	272,339	128,336
55,101	-10,423	272,201	128,292
56,115	-10,299	272,072	128,335
57,130	-9,852	272,020	128,713
58,144	-9,587	271,580	128,739
59,159	-9,733	271,545	128,575
60,174	-9,639	271,227	128,500
61,188	-9,619	271,081	128,437
62,203	-9,798	270,772	128,114
63,217	-9,778	270,675	128,076
64,232	-9,864	270,559	127,930
65,247	-9,626	270,061	127,903
66,261	-9,725	269,844	127,698
67,276	-10,116	269,594	127,209
68,290	-9,925	269,456	127,307
69,305	-10,022	269,113	127,045
70,320	-10,136	268,965	126,860
71,334	-9,709	268,700	127,114
72,349	-9,630	268,657	127,154
73,363	-9,572	268,426	127,087
74,378	-9,731	268,297	126,869
75,393	-9,846	268,044	126,634
76,407	-9,683	267,779	126,645
77,422	-9,780	267,447	126,389
78,436	-9,613	267,310	126,465
79,451	-9,649	267,028	126,287
80,466	-9,658	266,850	126,183
81,480	-9,829	266,506	125,855
82,495	-9,838	266,319	125,748
83,509	-9,942	266,252	125,610
84,524	-10,040	265,985	125,384
85,539	-10,108	265,517	125,091
86,553	-10,014	265,372	125,097
87,568	-9,948	265,240	125,082
88,582	-9,833	265,059	125,090
89,597	-10,042	265,046	124,884
90,611	-9,953	264,884	124,877
91,626	-9,576	264,523	125,035
92,641	-9,838	264,534	124,793
93,655	-9,874	264,158	124,572
94,670	-9,730	263,872	124,555
95,684	-9,830	263,759	124,401
96,699	-9,835	263,593	124,307
97,714	-10,023	263,311	123,995
98,728	-9,871	263,038	123,992
99,743	-10,074	262,830	123,701
100,757	-10,037	262,638	123,633
101,772	-9,991	262,485	123,591
102,787	-9,940	262,317	123,546
103,801	-9,805	262,120	123,562
104,816	-9,645	261,928	123,603
105,830	-9,655	261,712	123,481
106,845	-9,650	261,562	123,404
107,860	-9,704	261,425	123,280
108,874	-9,709	261,164	123,141
109,889	-9,545	261,022	123,209
110,903	-9,714	260,740	122,916
111,918	-9,689	260,559	122,841
112,933	-9,703	260,297	122,694
113,947	-9,701	260,261	122,669
114,962	-9,675	260,014	122,564
115,976	-9,856	259,965	122,370
116,991	-9,876	259,658	122,198
118,006	-9,780	259,471	122,183
119,020	-9,511	259,320	122,337
120,035	-9,802	259,271	122,047
121,049	-9,752	259,106	122,003
122,064	-9,728	258,780	121,860
123,079	-9,593	258,585	121,875
124,093	-9,788	258,478	121,643
125,108	-9,912	258,216	121,400
126,122	-10,154	257,834	120,999
127,137	-10,181	257,700	120,901
128,151	-9,965	257,555	121,011
129,166	-9,837	257,302	120,993
130,181	-9,951	257,105	120,790
131,195	-9,968	256,941	120,687
132,210	-9,858	256,867	120,737
133,224	-9,760	256,650	120,710
134,239	-9,705	256,384	120,622
135,254	-9,566	256,283	120,684
136,268	-9,712	256,173	120,495
137,283	-9,851	255,643	120,115
138,297	-9,997	255,623	119,969
139,312	-10,089	255,292	119,722
140,327	-9,820	255,352	119,973
141,341	-9,518	255,194	120,148
142,356	-9,558	254,964	119,995
143,370	-9,505	254,948	120,022
144,385	-9,462	254,576	119,873
145,400	-9,412	254,493	119,867
146,414	-9,764	254,359	119,490
147,429	-9,643	254,116	119,469
148,443	-9,614	253,959	119,410
149,458	-9,485	253,739	119,406
150,473	-9,692	253,604	119,154
151,487	-9,601	253,330	119,093
152,502	-9,578	253,206	119,044
153,516	-9,666	253,131	118,923
154,531	-9,535	252,719	118,831
155,546	-9,605	252,725	118,763
156,560	-9,428	252,448	118,773
157,575	-9,633	252,097	118,423
158,589	-9,681	252,064	118,356
159,604	-9,582	251,916	118,360
160,619	-9,655	251,726	118,198
161,633	-9,611	251,441	118,091
162,648	-9,633	251,443	118,063
163,662	-9,505	251,278	118,084
164,677	-9,608	251,178	117,939
165,692	-9,546	250,989	117,892
166,706	-9,444	250,677	117,821
167,721	-9,561	250,645	117,696
168,735	-9,411	250,415	117,705
169,750	-9,556	250,308	117,522
170,764	-9,351	250,183	117,626
171,779	-9,215	249,983	117,636
172,794	-9,356	249,698	117,373
173,808	-9,296	249,500	117,320
174,823	-9,940	249,280	116,664
175,837	-10,165	249,065	116,364
176,852	-9,764	248,962	116,642
177,867	-9,443	248,963	116,902
178,881	-9,436	248,713	116,780
179,896	-9,331	248,623	116,814
180,910	-9,544	248,334	116,491
181,925	-9,489	248,303	116,512
182,940	-9,452	248,024	116,401
183,954	-9,481	248,018	116,364
184,969	-9,558	247,827	116,199
185,983	-9,557	247,579	116,074
186,998	-9,358	247,464	116,175
188,013	-9,433	247,212	115,984
189,027	-9,513	247,090	115,850
190,042	-9,458	246,863	115,779
191,056	-9,233	246,654	115,858
192,071	-9,271	246,510	115,748
193,086	-9,384	246,354	115,571
194,100	-9,371	246,124	115,464
195,115	-9,367	246,074	115,433
196,129	-9,279	245,722	115,330
197,144	-9,356	245,589	115,194
198,159	-9,343	245,525	115,164
199,173	-9,326	245,328	115,076
200,188	-9,321	245,144	114,983
201,202	-9,630	244,860	114,586
202,217	-10,000	244,650	114,172
203,232	-10,092	244,461	113,998
204,246	-9,498	244,367	114,433
205,261	-8,958	244,203	114,789
206,275	-9,467	243,851	114,195
207,290	-6,080	245,344	117,676
208,304	0,784	247,582	124,433
209,319	3,632	248,145	127,065
210,334	3,774	248,319	127,260
211,348	4,186	248,056	127,456
212,363	4,569	248,085	127,775
213,377	4,381	248,147	127,640
214,392	4,378	247,939	127,519
215,407	4,414	247,705	127,417
216,421	4,407	247,409	127,248
217,436	4,568	247,401	127,366
218,450	4,754	247,171	127,389
219,465	4,431	246,919	126,982
220,480	4,202	246,818	126,731
221,494	4,102	246,608	126,529
222,509	3,997	246,429	126,340
223,523	4,030	246,157	126,216
224,538	3,616	245,880	125,724
225,553	3,706	245,891	125,791
226,567	3,841	245,631	125,758
227,582	4,013	245,568	125,855
228,596	4,104	245,379	125,822
229,611	3,919	245,148	125,541
230,626	3,690	244,910	125,221
231,640	4,056	244,827	125,465
232,655	3,982	244,828	125,395
233,669	3,872	244,418	125,084
234,684	3,631	244,196	124,763
235,699	4,044	244,340	125,162
236,713	4,236	244,111	125,189
237,728	3,895	243,924	124,806
238,742	3,901	243,699	124,684
239,757	3,487	243,549	124,261
240,772	3,640	243,387	124,291
241,786	3,713	243,300	124,294
242,801	3,634	243,222	124,180
243,815	3,513	243,026	123,971
244,830	3,878	242,844	124,161
245,844	3,913	242,786	124,149
246,859	4,008	242,404	124,019
247,874	3,625	242,358	123,676
248,888	3,814	242,372	123,824
249,903	3,990	242,134	123,833
250,917	3,953	242,008	123,728
251,932	4,066	241,897	123,751
252,947	4,041	241,639	123,588
253,961	3,961	241,339	123,359
254,976	4,042	241,269	123,378
255,990	4,071	241,115	123,311
257,005	3,817	240,944	123,009
258,020	3,599	240,813	122,757
259,034	3,855	240,680	122,883
260,049	3,797	240,535	122,752
261,063	3,739	240,251	122,549
262,078	3,881	239,944	122,496
263,093	4,157	240,028	122,747
264,107	4,286	239,910	122,779
265,122	3,936	239,646	122,354
266,136	3,955	239,596	122,333
267,151	4,247	239,494	122,502
268,166	3,864	239,219	122,046
269,180	3,813	238,859	121,812
270,195	4,184	239,061	122,198
271,209	4,494	238,949	122,375
272,224	3,888	238,705	121,760
273,239	3,656	238,310	121,364
274,253	3,711	238,351	121,418
275,268	4,047	238,136	121,562
276,282	3,904	238,150	121,446
277,297	3,585	237,684	120,946
278,312	3,787	237,733	121,119
279,326	3,830	237,558	121,054
280,341	4,079	237,312	121,113
281,355	3,892	237,304	120,951
282,370	4,052	237,273	121,050
283,384	3,917	236,988	120,787
284,399	3,916	236,692	120,626
285,414	3,649	236,608	120,362
286,428	3,614	236,604	120,322
287,443	3,889	236,255	120,350
288,457	3,987	236,121	120,347
289,472	4,095	236,108	120,414
290,487	3,691	236,030	120,048
291,501	3,668	235,766	119,885
292,516	3,760	235,424	119,772
293,530	3,749	235,261	119,670
294,545	3,955	235,154	119,765
295,560	3,932	235,264	119,792
296,574	3,688	235,008	119,461
297,589	3,711	234,870	119,399
298,603	4,217	234,722	119,706
299,618	3,943	234,681	119,462
300,633	4,056	234,518	119,455
301,647	3,894	234,500	119,310
302,662	4,438	234,313	119,626
303,676	4,234	233,976	119,286
304,691	4,290	233,860	119,259
305,706	4,235	233,755	119,152
306,720	4,246	233,657	119,100
307,735	4,288	233,442	119,012
308,749	4,148	233,284	118,813
309,764	3,792	233,114	118,441
310,779	3,666	232,762	118,156
311,793	3,552	232,558	117,953
312,808	3,819	232,417	118,077
313,822	3,731	232,345	117,962
314,837	3,767	232,154	117,882
315,852	3,697	232,043	117,761
316,866	3,900	232,027	117,899
317,881	4,081	231,895	117,960
318,895	3,748	231,934	117,714
319,910	3,914	231,729	117,726
320,925	3,980	231,390	117,594
321,939	3,896	231,228	117,437
322,954	4,053	231,230	117,548
323,968	3,805	231,024	117,243
324,983	3,934	230,824	117,229
325,997	3,716	230,741	117,010
327,012	3,906	230,532	117,040
328,027	4,251	230,463	117,256
329,041	4,305	230,436	117,273
330,056	4,750	230,446	117,606
331,070	4,678	230,165	117,397
332,085	4,246	229,958	116,953
333,100	4,228	229,783	116,841
334,114	4,122	229,526	116,619
335,129	4,164	229,563	116,659
336,143	4,411	229,446	116,776
337,158	4,356	229,317	116,659
338,173	4,064	228,973	116,253
339,187	3,814	228,892	116,013
340,202	4,029	228,803	116,119
341,216	3,875	228,673	115,926
342,231	4,081	228,368	115,917
343,246	3,990	228,309	115,808
344,260	3,960	228,188	115,714
345,275	4,192	228,077	115,821
346,289	4,214	227,995	115,786
347,304	4,233	227,727	115,654
348,319	4,262	227,670	115,636
349,333	3,876	227,473	115,237
350,348	3,970	227,199	115,158
351,362	4,104	227,093	115,195
352,377	3,836	226,947	114,910
353,392	3,748	226,922	114,821
354,406	3,821	226,636	114,721
355,421	194,791	1321,814	1396,000
356,435	156,129	1455,242	1396,002
