DTS Sentinel unit serial number:	SN410029Multiplexer serial number:	ORYXHardware model number:	OX2-SRSoftware version number:	ORYX F/W v4,00 Oryx Data Collector v3.7.2.0data status	okinstallation	B5 Nyhavnadifferential loss correction	single-endedforward channel	channel 2reverse channel	N/Adate	2023/12/12time	11:32:13forward acquisition time	300,00reverse acquisition time	0,00gamma	499,1914k internal	0,3158k external	0,3158temperature offset calibration	1,0000default loss term (dB/km)	0,3820temperature slope calibration	1,0000multiplexer offset coefficient	1,0000multiplexer slope coefficient	1,0000fibre end	0,00T internal ref (°C)	15,08T ext. ref 1 (°C)	-1,05T ext. ref 2 (°C)	-1,31length (m)	temperature (°C)	Stokes	anti-Stokes-744,400	-113,921	0,075	0,011
-743,385	-172,530	-0,243	-0,006
-742,371	-16,766	0,136	0,063
-741,356	-27,809	-0,304	0,129
-740,342	-6,363	0,178	0,089
-739,327	-66,694	-0,244	0,071
-738,312	517,247	0,011	0,020
-737,298	-92,651	-0,335	-0,069
-736,283	-114,777	0,143	0,020
-735,269	-122,547	-0,370	0,044
-734,254	-84,566	0,301	-0,069
-733,239	-28,518	-0,553	-0,234
-732,225	60,972	0,188	0,138
-731,210	-16,535	0,048	0,022
-730,196	30,037	0,112	-0,070
-729,181	399,042	-0,078	-0,122
-728,167	-200,000	0,003	0,016
-727,152	120,595	-0,074	-0,067
-726,137	144,557	-0,046	-0,046
-725,123	-72,725	-0,016	-0,004
-724,108	-32,592	-0,184	0,075
-723,094	-200,000	-0,013	-0,140
-722,079	316,954	-0,039	-0,054
-721,064	213,683	0,057	-0,067
-720,050	-41,193	0,050	-0,019
-719,035	-200,000	-0,011	0,051
-718,021	-56,380	-0,040	0,013
-717,006	115,699	-0,040	0,036
-715,991	82,579	0,091	-0,073
-714,977	99,647	-0,005	0,005
-713,962	-60,287	-0,146	0,045
-712,948	211,684	-0,040	-0,047
-711,933	-130,586	-0,068	-0,007
-710,918	-200,000	-0,006	-0,023
-709,904	-200,000	0,022	-0,115
-708,889	156,165	0,035	-0,035
-707,875	-200,000	-0,011	-0,093
-706,860	800,000	0,052	-0,160
-705,845	-43,496	0,079	-0,029
-704,831	-60,660	0,107	0,033
-703,816	-200,000	0,034	-0,150
-702,802	36,054	-0,048	0,031
-701,787	-200,000	-0,006	-0,108
-700,772	-200,000	0,002	-0,064
-699,758	308,233	0,036	0,050
-698,743	14,496	-0,088	-0,050
-697,729	268,600	-0,003	0,004
-696,714	-200,000	0,007	0,036
-695,699	403,422	-0,043	-0,067
-694,685	-200,000	0,026	-0,106
-693,670	-200,000	-0,000	-0,060
-692,656	-200,000	0,000	0,013
-691,641	410,203	0,079	0,124
-690,627	-45,588	0,173	0,063
-689,612	212,989	-0,027	0,031
-688,597	3,162	-0,131	-0,070
-687,583	-55,858	0,105	-0,034
-686,568	385,276	-0,045	-0,068
-685,554	177,756	-0,021	-0,023
-684,539	235,120	0,070	0,085
-683,524	-200,000	0,002	-0,063
-682,510	-200,000	-0,011	0,042
-681,495	11,478	-0,030	0,017
-680,481	342,346	-0,048	-0,070
-679,466	800,000	-0,051	-0,117
-678,451	-141,607	-0,047	0,003
-677,437	-36,450	-0,080	0,032
-676,422	258,119	-0,032	0,041
-675,408	99,662	0,031	0,026
-674,393	468,654	-0,037	-0,061
-673,378	209,894	-0,079	-0,091
-672,364	264,412	0,060	-0,078
-671,349	-200,000	0,013	-0,045
-670,335	-93,916	-0,046	-0,009
-669,320	-17,952	-0,120	0,055
-668,305	-200,000	0,007	0,103
-667,291	-200,000	0,001	-0,074
-666,276	-200,000	-0,003	-0,114
-665,262	800,000	-0,064	-0,133
-664,247	193,766	-0,033	0,037
-663,232	765,424	-0,039	0,079
-662,218	-200,000	0,001	0,080
-661,203	-155,413	-0,102	-0,005
-660,189	18,684	-0,024	-0,014
-659,174	-25,795	-0,086	-0,037
-658,159	110,238	-0,050	0,044
-657,145	800,000	0,047	0,101
-656,130	106,936	0,072	-0,063
-655,116	66,694	-0,136	0,101
-654,101	139,693	0,093	0,090
-653,086	-48,555	0,090	-0,032
-652,072	800,000	-0,028	-0,085
-651,057	800,000	-0,035	0,087
-650,043	-200,000	-0,020	-0,243
-649,028	800,000	0,038	-0,081
-648,014	312,306	-0,025	0,034
-646,999	91,414	-0,068	-0,056
-645,984	-200,000	-0,005	0,150
-644,970	800,000	-0,028	-0,069
-643,955	-34,787	-0,172	-0,069
-642,941	800,000	0,055	0,119
-641,926	-22,963	-0,085	0,038
-640,911	165,671	0,109	-0,114
-639,897	-77,912	0,023	-0,006
-638,882	-91,497	-0,149	-0,031
-637,868	800,000	0,030	0,066
-636,853	424,473	-0,073	-0,116
-635,838	1,625	0,087	-0,046
-634,824	800,000	-0,039	-0,079
-633,809	626,992	-0,052	-0,096
-632,795	226,936	0,140	0,168
-631,780	-7,609	0,127	0,063
-630,765	-0,166	-0,063	0,033
-629,751	-52,765	-0,035	-0,012
-628,736	-66,553	-0,034	0,010
-627,722	-152,547	0,156	0,008
-626,707	45,872	0,056	0,038
-625,692	217,884	0,039	-0,046
-624,678	-200,000	0,005	-0,086
-623,663	800,000	-0,042	0,121
-622,649	380,648	-0,069	0,104
-621,634	800,000	-0,067	-0,139
-620,619	-31,247	0,099	-0,041
-619,605	76,201	0,011	0,008
-618,590	78,826	-0,042	-0,033
-617,576	-37,677	0,036	0,014
-616,561	114,749	-0,064	-0,057
-615,546	-200,000	-0,007	-0,067
-614,532	-24,390	-0,217	-0,094
-613,517	-200,000	-0,028	-0,126
-612,503	-139,947	0,141	0,011
-611,488	-62,330	-0,109	0,033
-610,474	-13,444	-0,127	0,060
-609,459	34,432	0,046	-0,029
-608,444	35,881	-0,072	0,046
-607,430	-119,592	-0,082	-0,010
-606,415	238,489	-0,040	-0,049
-605,401	-200,000	0,003	0,030
-604,386	-22,491	-0,018	-0,008
-603,371	800,000	0,040	0,098
-602,357	800,000	0,045	0,110
-601,342	7,751	-0,108	-0,059
-600,328	-200,000	-0,036	-0,203
-599,313	58,369	-0,121	-0,087
-598,298	-55,584	0,092	-0,030
-597,284	215,280	-0,086	-0,100
-596,269	554,778	-0,065	-0,115
-595,255	5,730	-0,029	0,016
-594,240	-157,951	-0,091	0,004
-593,225	-100,256	-0,069	0,012
-592,211	-31,744	-0,181	-0,074
-591,196	-29,656	0,033	-0,014
-590,182	-56,014	-0,076	0,025
-589,167	7,539	0,116	-0,063
-588,152	477,937	0,048	-0,079
-587,138	313,610	0,069	0,095
-586,123	-85,647	-0,089	0,020
-585,109	-184,266	0,116	0,001
-584,094	35,436	0,039	0,025
-583,079	-200,000	0,025	0,105
-582,065	109,221	0,050	0,044
-581,050	-200,000	0,004	0,113
-580,036	93,210	0,067	0,056
-579,021	15,714	0,109	0,063
-578,006	-200,000	0,001	0,031
-576,992	359,982	0,052	-0,076
-575,977	199,566	0,122	-0,137
-574,963	-200,000	0,031	0,146
-573,948	-200,000	-0,062	0,204
-572,934	-34,567	0,105	0,042
-571,919	800,000	-0,039	0,104
-570,904	-80,994	0,043	-0,010
-569,890	-31,212	-0,061	-0,025
-568,875	-59,722	-0,052	0,016
-567,861	111,752	0,070	-0,062
-566,846	209,765	-0,096	0,111
-565,831	276,439	-0,035	0,046
-564,817	800,000	-0,010	-0,022
-563,802	-114,822	-0,136	-0,019
-562,788	52,674	0,119	-0,083
-561,773	78,643	0,034	0,027
-560,758	-200,000	0,017	0,120
-559,744	-200,000	0,030	0,133
-558,729	-59,037	-0,085	-0,027
-557,715	-200,000	-0,011	0,082
-556,700	800,000	0,025	0,058
-555,685	108,982	0,058	0,051
-554,671	115,169	-0,023	-0,020
-553,656	258,976	-0,031	-0,039
-552,642	106,106	-0,056	0,048
-551,627	800,000	0,018	0,058
-550,612	-200,000	0,004	0,035
-549,598	800,000	-0,062	-0,135
-548,583	-124,971	-0,021	0,002
-547,569	336,641	0,050	-0,071
-546,554	-200,000	-0,024	0,107
-545,539	260,181	0,081	0,102
-544,525	800,000	-0,023	0,060
-543,510	18,034	0,064	0,037
-542,496	16,236	0,011	-0,006
-541,481	24,987	-0,021	0,013
-540,466	577,629	-0,057	0,103
-539,452	-200,000	0,004	-0,137
-538,437	275,697	0,070	0,091
-537,423	-200,000	0,002	-0,017
-536,408	-175,039	-0,112	0,002
-535,393	800,000	-0,051	-0,131
-534,379	-200,000	-0,005	0,022
-533,364	63,264	0,137	-0,101
-532,350	-200,000	0,007	0,090
-531,335	228,223	0,102	0,121
-530,321	-200,000	-0,035	-0,130
-529,306	50,758	-0,061	-0,042
-528,291	-87,659	-0,035	-0,008
-527,277	75,074	-0,113	-0,087
-526,262	11,700	0,069	0,039
-525,248	-107,880	0,091	-0,014
-524,233	-40,822	0,048	0,018
-523,218	-116,837	0,187	0,025
-522,204	365,238	0,084	0,125
-521,189	-56,532	-0,081	-0,026
-520,175	-102,275	0,075	-0,013
-519,160	-138,809	0,162	0,013
-518,145	210,692	0,033	0,038
-517,131	-41,062	-0,020	-0,008
-516,116	800,000	-0,043	0,132
-515,102	-63,321	0,158	-0,047
-514,087	-200,000	-0,027	0,121
-513,072	-36,026	-0,163	0,064
-512,058	-54,448	-0,059	-0,019
-511,043	-133,659	0,089	-0,008
-510,029	800,000	0,027	0,072
-509,014	616,541	-0,044	0,080
-507,999	-200,000	0,031	0,201
-506,985	800,000	0,025	-0,066
-505,970	355,401	-0,060	-0,087
-504,956	-200,000	-0,007	-0,139
-503,941	482,153	0,108	-0,180
-502,926	-115,373	-0,051	0,007
-501,912	-112,070	0,052	0,008
-500,897	800,000	-0,015	0,044
-499,883	394,275	0,029	0,044
-498,868	-66,858	0,066	-0,019
-497,853	59,008	0,048	0,034
-496,839	800,000	0,018	0,044
-495,824	-200,000	0,018	0,089
-494,810	617,907	0,077	0,142
-493,795	68,322	0,092	0,069
-492,781	511,398	0,048	0,082
-491,766	678,846	-0,029	-0,055
-490,751	131,635	-0,056	-0,053
-489,737	119,659	0,045	0,040
-488,722	241,264	0,032	-0,039
-487,708	-98,419	0,226	0,042
-486,693	800,000	-0,038	0,083
-485,678	-200,000	0,007	0,071
-484,664	12,067	-0,085	-0,048
-483,649	800,000	-0,070	-0,153
-482,635	51,839	0,129	-0,089
-481,620	659,266	-0,056	0,106
-480,605	79,149	0,033	0,026
-479,591	108,154	-0,005	0,005
-478,576	800,000	-0,027	-0,067
-477,562	700,349	-0,033	-0,063
-476,547	-55,422	-0,054	0,018
-475,532	800,000	-0,049	-0,109
-474,518	307,998	0,049	0,067
-473,503	-9,307	0,115	0,056
-472,489	-55,344	0,064	-0,021
-471,474	800,000	0,033	-0,106
-470,459	-62,674	0,070	-0,021
-469,445	800,000	0,045	-0,108
-468,430	-200,000	-0,009	0,115
-467,416	-69,466	0,076	-0,021
-466,401	91,424	0,066	0,054
-465,386	114,725	0,016	-0,015
-464,372	499,429	-0,094	0,158
-463,357	-200,000	-0,004	-0,099
-462,343	-95,121	0,085	-0,017
-461,328	-116,346	0,065	-0,009
-460,313	-1,835	-0,107	-0,055
-459,299	-89,805	0,115	0,024
-458,284	79,815	0,102	-0,080
-457,270	245,660	-0,078	-0,096
-456,255	485,126	-0,046	-0,076
-455,241	800,000	0,066	-0,135
-454,226	101,823	-0,078	-0,067
-453,211	-20,601	-0,013	0,006
-452,197	66,202	0,143	0,106
-451,182	373,960	0,074	-0,110
-450,168	-94,100	0,065	0,013
-449,153	-200,000	-0,037	-0,178
-448,138	-75,443	0,057	-0,015
-447,124	52,823	0,104	0,072
-446,109	258,418	0,021	0,027
-445,095	-100,961	0,233	0,041
-444,080	-59,731	-0,111	-0,034
-443,065	-36,607	0,027	0,011
-442,051	324,846	-0,032	0,045
-441,036	662,553	-0,036	0,069
-440,022	105,217	0,042	-0,036
-439,007	-8,019	0,064	-0,031
-437,992	11,326	-0,105	0,058
-436,978	356,023	0,167	0,243
-435,963	-82,624	0,202	0,047
-434,949	-52,989	0,022	-0,007
-433,934	-200,000	-0,020	-0,080
-432,919	-68,397	-0,182	-0,051
-431,905	800,000	-0,062	0,169
-430,890	-200,000	-0,009	-0,045
-429,876	1,729	0,115	-0,060
-428,861	9,826	0,133	0,073
-427,846	-199,322	-0,120	-0,000
-426,832	-141,431	-0,066	0,005
-425,817	-66,076	0,096	0,028
-424,803	115,298	-0,051	-0,046
-423,788	-200,000	0,018	0,073
-422,773	247,670	0,023	0,028
-421,759	-200,000	0,043	0,145
-420,744	800,000	-0,056	-0,114
-419,730	800,000	-0,027	0,083
-418,715	-146,757	-0,081	0,005
-417,701	800,000	0,018	-0,051
-416,686	555,703	0,049	-0,086
-415,671	-146,552	0,076	0,005
-414,657	-50,352	0,029	-0,010
-413,642	351,071	0,027	0,039
-412,628	193,524	-0,128	0,141
-411,613	800,000	-0,038	-0,083
-410,598	197,401	-0,021	-0,023
-409,584	800,000	0,016	0,032
-408,569	19,919	0,084	-0,049
-407,555	238,029	0,075	-0,090
-406,540	-200,000	0,013	0,046
-405,525	54,319	-0,043	-0,030
-404,511	789,070	0,072	-0,144
-403,496	183,085	-0,052	0,056
-402,482	-70,635	-0,052	0,014
-401,467	26,882	0,129	-0,078
-400,452	-200,000	0,004	0,086
-399,438	22,074	-0,032	0,019
-398,423	-77,654	-0,046	0,012
-397,409	328,004	-0,051	-0,071
-396,394	-95,053	-0,047	0,009
-395,379	800,000	-0,059	0,121
-394,365	-200,000	0,006	0,040
-393,350	-200,000	0,009	-0,081
-392,336	-75,937	0,075	-0,019
-391,321	67,682	-0,102	-0,076
-390,306	-200,000	0,001	-0,114
-389,292	141,685	-0,029	0,028
-388,277	-200,000	0,005	-0,034
-387,263	-116,241	0,084	0,011
-386,248	-135,782	-0,026	0,002
-385,233	800,000	0,064	0,179
-384,219	-26,600	-0,087	0,037
-383,204	273,398	-0,117	-0,151
-382,190	-22,586	-0,121	-0,053
-381,175	-200,000	0,006	0,060
-380,160	-200,000	-0,011	0,125
-379,146	-200,000	-0,028	0,104
-378,131	-61,772	-0,045	-0,014
-377,117	57,141	-0,106	-0,075
-376,102	800,000	-0,029	-0,080
-375,088	-200,000	-0,013	-0,087
-374,073	800,000	-0,022	-0,051
-373,058	-112,087	0,113	0,016
-372,044	-200,000	-0,009	0,046
-371,029	177,041	0,160	0,169
-370,015	123,107	-0,117	0,106
-369,000	-15,942	0,122	-0,056
-367,985	351,267	-0,035	-0,050
-366,971	579,770	-0,078	-0,139
-365,956	-135,170	0,058	-0,005
-364,942	360,149	-0,002	0,003
-363,927	-200,000	-0,018	0,065
-362,912	50,334	0,174	0,119
-361,898	-47,917	-0,098	0,034
-360,883	258,000	-0,064	-0,080
-359,869	-36,445	-0,059	0,023
-358,854	-125,366	-0,048	0,005
-357,839	-6,783	0,067	0,033
-356,825	-76,494	0,192	0,049
-355,810	567,306	-0,037	-0,066
-354,796	425,505	-0,027	0,042
-353,781	-116,508	-0,083	0,011
-352,766	18,500	-0,038	0,022
-351,752	-64,383	0,122	0,036
-350,737	93,759	-0,043	0,035
-349,723	105,849	0,105	-0,090
-348,708	409,133	0,065	0,101
-347,693	-200,000	0,010	-0,046
-346,679	-200,000	-0,023	-0,083
-345,664	776,544	-0,020	-0,040
-344,650	2,840	0,061	0,032
-343,635	-121,317	0,004	0,001
-342,620	800,000	0,025	-0,070
-341,606	-148,670	0,127	-0,007
-340,591	6,715	-0,063	0,034
-339,577	54,273	0,129	-0,090
-338,562	95,768	-0,098	-0,081
-337,548	800,000	-0,034	0,086
-336,533	800,000	-0,032	0,088
-335,518	69,748	-0,103	0,077
-334,504	-89,759	0,051	0,011
-333,489	337,328	-0,077	0,109
-332,475	800,000	-0,059	-0,123
-331,460	278,328	-0,117	-0,151
-330,445	-72,382	0,038	0,010
-329,431	79,581	0,063	0,049
-328,416	800,000	-0,033	0,090
-327,402	77,406	0,081	-0,062
-326,387	339,411	0,088	-0,125
-325,372	427,341	-0,061	-0,095
-324,358	-200,000	0,012	0,073
-323,343	-200,000	0,010	-0,119
-322,329	-94,871	0,142	0,028
-321,314	-26,762	-0,081	-0,034
-320,299	-81,213	0,071	0,017
-319,285	800,000	-0,047	-0,097
-318,270	800,000	-0,035	-0,083
-317,256	-200,000	-0,010	0,068
-316,241	-74,422	-0,052	-0,014
-315,226	-137,834	-0,059	0,005
-314,212	293,932	0,045	-0,060
-313,197	407,578	-0,054	0,084
-312,183	-200,000	0,006	0,133
-311,168	-200,000	0,001	-0,121
-310,153	-200,000	0,005	-0,150
-309,139	-102,361	0,099	-0,017
-308,124	-200,000	-0,032	0,122
-307,110	-110,402	0,024	0,004
-306,095	-200,000	0,007	0,161
-305,080	147,089	-0,120	0,117
-304,066	37,953	-0,090	-0,058
-303,051	388,999	-0,079	-0,119
-302,037	-67,970	0,043	-0,012
-301,022	-27,076	0,142	-0,060
-300,008	250,851	0,030	0,037
-298,993	800,000	0,046	0,124
-297,978	121,394	0,053	-0,048
-296,964	-200,000	-0,002	-0,085
-295,949	-116,401	-0,059	-0,008
-294,935	169,102	-0,153	0,158
-293,920	423,106	-0,025	-0,040
-292,905	181,139	0,048	-0,051
-291,891	35,290	-0,152	0,097
-290,876	-200,000	0,023	0,077
-289,862	-200,000	0,002	-0,117
-288,847	505,922	-0,082	-0,138
-287,832	-141,336	-0,124	0,009
-286,818	-135,008	0,101	0,009
-285,803	36,970	0,113	0,072
-284,789	-59,592	0,185	0,057
-283,774	800,000	0,040	0,091
-282,759	-200,000	-0,010	0,140
-281,745	339,178	0,063	-0,089
-280,730	303,738	0,046	-0,062
-279,716	23,671	0,062	0,037
-278,701	-41,040	0,078	0,029
-277,686	-39,853	0,072	-0,027
-276,672	800,000	0,005	0,013
-275,657	-166,232	-0,080	-0,002
-274,643	-18,588	-0,212	-0,095
-273,628	-26,978	-0,045	0,019
-272,613	22,921	0,108	0,064
-271,599	-200,000	-0,003	0,056
-270,584	800,000	0,033	0,085
-269,570	-40,263	0,065	-0,024
-268,555	800,000	-0,013	0,033
-267,540	-153,661	-0,119	0,006
-266,526	229,259	-0,072	-0,085
-265,511	-200,000	0,031	-0,107
-264,497	-140,183	0,174	0,013
-263,482	-153,248	0,065	0,003
-262,467	295,508	0,068	0,090
-261,453	-200,000	0,013	-0,067
-260,438	-25,813	0,255	-0,108
-259,424	117,195	0,005	-0,004
-258,409	-81,995	-0,189	-0,044
-257,395	-200,000	-0,018	0,075
-256,380	-200,000	0,021	0,176
-255,365	800,000	0,035	-0,076
-254,351	-157,110	0,072	0,003
-253,336	-200,000	0,011	0,044
-252,322	34,550	0,050	-0,031
-251,307	-57,007	-0,078	-0,025
-250,292	-200,000	-0,011	0,042
-249,278	-74,870	0,026	-0,007
-248,263	-200,000	-0,036	-0,117
-247,249	-200,000	0,005	0,040
-246,234	-200,000	-0,012	0,061
-245,219	358,991	0,097	-0,141
-244,205	-50,640	-0,061	-0,021
-243,190	-41,014	0,027	-0,010
-242,176	-43,147	0,017	-0,006
-241,161	16,884	0,135	0,077
-240,146	-33,645	-0,076	0,030
-239,132	49,799	0,056	0,038
-238,117	120,178	-0,100	-0,090
-237,103	45,255	-0,080	0,053
-236,088	-96,220	-0,061	0,012
-235,073	-200,000	0,045	-0,147
-234,059	274,091	-0,016	0,021
-233,044	800,000	-0,072	0,157
-232,030	48,901	0,054	0,037
-231,015	-200,000	-0,013	0,057
-230,000	256,163	-0,036	-0,045
-228,986	-112,161	-0,091	0,013
-227,971	800,000	0,064	0,130
-226,957	-74,653	-0,033	0,009
-225,942	800,000	0,020	-0,054
-224,927	-162,762	-0,121	0,004
-223,913	-200,000	0,015	-0,125
-222,898	-144,835	-0,116	-0,008
-221,884	-69,754	-0,073	-0,020
-220,869	58,828	-0,051	0,036
-219,855	-46,254	0,131	0,046
-218,840	265,882	0,085	0,107
-217,825	-200,000	0,000	0,045
-216,811	-16,330	-0,104	0,048
-215,796	292,455	-0,014	-0,019
-214,782	-200,000	0,005	-0,038
-213,767	-200,000	-0,013	-0,075
-212,752	297,719	-0,047	-0,062
-211,738	51,640	0,076	0,052
-210,723	11,706	-0,031	-0,017
-209,709	-72,917	-0,163	-0,043
-208,694	108,279	-0,064	0,055
-207,679	-52,968	-0,022	0,007
-206,665	-130,289	0,049	0,005
-205,650	-68,891	0,030	0,008
-204,636	-200,000	-0,039	-0,126
-203,621	56,025	-0,118	0,082
-202,606	366,131	0,049	-0,071
-201,592	-200,000	0,016	-0,152
-200,577	-26,611	-0,075	-0,032
-199,563	800,000	-0,062	-0,143
-198,548	21,020	0,078	0,046
-197,533	-127,835	0,037	-0,004
-196,519	773,848	-0,047	0,093
-195,504	121,748	-0,029	-0,026
-194,490	187,771	-0,073	-0,079
-193,475	-200,000	0,014	-0,164
-192,460	67,382	-0,003	0,002
-191,446	-82,707	-0,101	-0,023
-190,431	320,877	-0,010	-0,014
-189,417	-200,000	-0,005	-0,016
-188,402	-200,000	-0,036	-0,154
-187,387	-64,644	-0,121	-0,035
-186,373	47,965	0,068	-0,046
-185,358	58,681	-0,057	0,040
-184,344	40,481	-0,063	-0,041
-183,329	-58,725	0,068	0,021
-182,315	-31,661	-0,050	0,020
-181,300	85,735	-0,088	-0,069
-180,285	-128,299	0,092	0,009
-179,271	-64,713	-0,072	-0,021
-178,256	444,170	0,025	-0,040
-177,242	800,000	0,061	0,125
-176,227	-167,766	0,147	0,004
-175,212	22,323	-0,108	-0,063
-174,198	276,814	-0,044	-0,056
-173,183	61,219	-0,161	-0,115
-172,169	75,999	-0,062	0,047
-171,154	-149,562	-0,130	-0,007
-170,139	314,279	-0,035	0,048
-169,125	-200,000	-0,020	0,077
-168,110	-1,515	-0,098	0,050
-167,096	202,472	0,059	-0,066
-166,081	-8,502	-0,175	-0,084
-165,066	46,979	0,099	-0,066
-164,052	-119,179	-0,058	-0,007
-163,037	123,819	0,033	0,030
-162,023	88,814	-0,062	0,050
-161,008	800,000	0,040	0,122
-159,993	-200,000	-0,004	-0,040
-158,979	652,059	-0,077	-0,143
-157,964	292,573	-0,037	0,049
-156,950	352,272	-0,043	0,062
-155,935	-0,922	0,061	0,031
-154,920	301,181	-0,034	0,045
-153,906	-200,000	0,018	0,061
-152,891	291,284	-0,048	-0,064
-151,877	800,000	-0,031	0,069
-150,862	528,661	-0,075	-0,127
-149,847	800,000	-0,015	0,043
-148,833	123,810	0,034	-0,030
-147,818	-17,668	-0,054	-0,024
-146,804	61,098	0,110	0,079
-145,789	260,817	-0,077	0,096
-144,775	33,692	0,013	0,008
-143,760	239,362	-0,049	-0,059
-142,745	-200,000	-0,013	-0,068
-141,731	-200,000	0,015	-0,131
-140,716	-200,000	-0,007	-0,088
-139,702	516,478	-0,020	0,034
-138,687	-44,440	0,067	0,024
-137,672	366,698	-0,065	0,094
-136,658	-67,714	-0,077	0,021
-135,643	-51,178	0,125	-0,042
-134,629	298,830	-0,045	-0,059
-133,614	-122,183	0,087	-0,010
-132,599	143,078	-0,104	-0,100
-131,585	-143,525	-0,098	-0,007
-130,570	549,834	-0,019	-0,033
-129,556	-79,195	-0,134	-0,033
-128,541	-76,474	-0,095	0,024
-127,526	72,969	0,064	0,048
-126,512	-200,000	0,007	-0,027
-125,497	800,000	0,019	0,042
-124,483	325,121	-0,017	-0,024
-123,468	718,844	0,032	0,062
-122,453	416,037	0,015	-0,024
-121,439	-24,591	-0,043	0,018
-120,424	1,323	-0,083	-0,043
-119,410	-200,000	-0,005	-0,064
-118,395	528,984	-0,010	0,017
-117,380	77,768	-0,002	-0,002
-116,366	-1,768	0,064	-0,032
-115,351	800,000	-0,044	-0,090
-114,337	323,535	-0,104	-0,143
-113,322	800,000	-0,034	-0,108
-112,307	54,402	-0,068	0,047
-111,293	-62,164	-0,072	-0,021
-110,278	26,803	-0,030	0,018
-109,264	800,000	0,012	0,028
-108,249	-36,950	-0,045	-0,017
-107,234	-2,940	-0,105	0,052
-106,220	-200,000	-0,002	-0,094
-105,205	800,000	0,005	0,014
-104,191	-200,000	0,014	-0,116
-103,176	510,617	0,036	0,060
-102,162	779,507	-0,060	-0,118
-101,147	-34,206	0,159	-0,062
-100,132	-73,014	-0,064	-0,017
-99,118	800,000	-0,036	-0,095
-98,103	800,000	-0,040	-0,095
-97,089	377,734	-0,070	0,102
-96,074	-119,190	-0,113	-0,014
-95,059	800,000	0,036	-0,084
-94,045	288,425	-0,083	-0,109
-93,030	-28,411	-0,051	-0,021
-92,016	-190,495	-0,081	0,001
-91,001	-68,464	-0,024	-0,007
-89,986	-200,000	-0,000	0,028
-88,972	-40,110	0,178	0,066
-87,957	301,218	-0,043	0,058
-86,943	-141,723	0,208	0,015
-85,928	-129,711	0,066	-0,006
-84,913	637,254	0,035	-0,065
-83,899	40,721	0,008	-0,005
-82,884	13,483	0,024	0,013
-81,870	244,123	-0,049	-0,060
-80,855	646,847	-0,030	0,055
-79,840	29,839	-0,049	-0,030
-78,826	92,467	0,115	0,093
-77,811	-126,971	-0,107	-0,011
-76,797	11,795	0,105	0,058
-75,782	-200,000	0,007	0,065
-74,767	373,295	0,062	-0,091
-73,753	-103,103	0,041	-0,007
-72,738	-200,000	0,010	-0,040
-71,724	-200,000	-0,036	-0,159
-70,709	800,000	0,030	-0,093
-69,694	-38,536	0,047	0,018
-68,680	800,000	0,057	0,172
-67,665	-137,731	0,058	0,005
-66,651	-200,000	0,003	0,036
-65,636	-6,540	-0,079	0,039
-64,622	800,000	0,021	-0,044
-63,607	800,000	0,028	-0,079
-62,592	-54,569	0,079	0,025
-61,578	-96,056	0,035	0,007
-60,563	143,288	-0,058	0,056
-59,549	-200,000	0,011	-0,068
-58,534	-3,564	-1,990	-0,990
-57,519	800,000	-0,261	-0,826
-56,505	-200,000	-1,293	-4,948
-55,490	58,202	0,817	0,574
-54,476	800,000	5,213	12,138
-53,461	-200,000	17,833	286,166
-52,446	800,000	728,387	2223,856
-51,432	537,160	1644,502	2813,750
-50,417	109,813	1634,980	1406,668
-49,403	75,804	1286,928	975,087
-48,388	31,897	1027,265	633,476
-47,373	20,059	989,157	570,958
-46,359	18,286	976,887	558,044
-45,344	15,452	972,733	546,381
-44,330	15,613	971,474	546,178
-43,315	15,180	969,438	543,596
-42,300	15,106	968,249	542,667
-41,286	15,055	967,427	542,019
-40,271	15,044	966,437	541,407
-39,257	15,100	965,584	541,092
-38,242	15,122	964,458	540,508
-37,227	15,091	963,788	540,011
-36,213	15,109	962,910	539,558
-35,198	15,087	962,025	538,967
-34,184	15,191	961,317	538,888
-33,169	15,048	960,354	537,865
-32,154	15,134	959,540	537,664
-31,140	15,049	958,472	536,771
-30,125	15,143	957,681	536,610
-29,111	15,115	956,961	536,095
-28,096	15,129	956,389	535,799
-27,082	15,096	955,798	535,340
-26,067	15,173	954,708	534,956
-25,052	15,138	954,171	534,519
-24,038	15,127	953,500	534,087
-23,023	15,090	952,816	533,563
-22,009	15,150	952,209	533,395
-20,994	15,135	951,660	533,019
-19,979	15,127	950,851	532,518
-18,965	15,116	950,228	532,115
-17,950	15,130	949,619	531,797
-16,936	15,013	949,057	531,087
-15,921	15,050	948,477	530,860
-14,906	14,998	947,651	530,211
-13,892	15,034	947,014	529,946
-12,877	14,949	946,474	529,353
-11,863	14,903	945,749	528,779
-10,848	14,976	945,265	528,721
-9,833	15,140	944,650	528,877
-8,819	15,089	944,208	528,447
-7,804	15,009	943,406	527,724
-6,790	14,993	942,895	527,366
-5,775	15,047	942,279	527,171
-4,760	15,060	941,696	526,866
-3,746	14,996	941,106	526,310
-2,731	14,779	940,471	525,250
-1,717	14,795	939,796	524,901
-0,702	14,804	939,048	524,493
0,313	14,636	938,343	524,358
1,327	18,005	936,285	533,770
2,342	27,120	793,468	476,474
3,356	24,035	458,602	270,653
4,371	-3,414	314,861	156,611
5,386	-7,167	296,510	143,668
6,400	-9,309	290,555	138,642
7,415	-9,754	287,957	136,952
8,429	-9,869	286,468	136,119
9,444	-9,959	285,568	135,591
10,459	-10,154	285,010	135,124
11,473	-10,147	284,283	134,774
12,488	-9,997	283,835	134,695
13,502	-9,886	283,242	134,509
14,517	-10,099	282,916	134,136
15,531	-9,951	282,264	133,958
16,546	-9,967	282,013	133,811
17,561	-10,023	281,501	133,503
18,575	-9,954	281,225	133,426
19,590	-9,964	280,885	133,244
20,604	-9,931	280,433	133,049
21,619	-9,937	280,137	132,891
22,634	-10,030	279,800	132,630
23,648	-10,149	279,542	132,383
24,663	-10,090	279,286	132,306
25,677	-10,108	278,839	132,065
26,692	-10,127	278,683	131,961
27,707	-9,966	278,522	132,026
28,721	-9,987	278,135	131,811
29,736	-10,129	277,873	131,540
30,750	-10,180	277,625	131,363
31,765	-10,070	277,321	131,312
32,780	-10,016	277,070	131,233
33,794	-10,236	276,902	130,933
34,809	-10,007	276,507	130,951
35,823	-10,115	276,333	130,755
36,838	-10,165	276,123	130,597
37,853	-10,133	275,783	130,454
38,867	-10,144	275,556	130,325
39,882	-10,037	275,237	130,263
40,896	-10,143	275,169	130,119
41,911	-10,182	274,856	129,924
42,926	-10,214	274,638	129,779
43,940	-10,050	274,325	129,773
44,955	-10,245	274,200	129,520
45,969	-10,130	273,897	129,472
46,984	-10,332	273,760	129,208
47,999	-10,605	273,356	128,751
49,013	-10,641	273,169	128,617
50,028	-10,678	272,800	128,398
51,042	-10,789	272,683	128,228
52,057	-10,876	272,361	127,985
53,071	-10,774	272,248	128,015
54,086	-10,600	271,927	128,014
55,101	-10,557	271,716	127,943
56,115	-10,408	271,747	128,084
57,130	-10,261	271,666	128,171
58,144	-10,019	271,400	128,258
59,159	-9,892	271,046	128,196
60,174	-9,804	270,840	128,168
61,188	-9,947	270,724	127,971
62,203	-9,999	270,527	127,818
63,217	-9,892	270,153	127,728
64,232	-9,807	269,896	127,673
65,247	-9,863	269,783	127,557
66,261	-9,843	269,544	127,451
67,276	-10,132	269,344	127,080
68,290	-10,257	268,986	126,786
69,305	-10,250	268,876	126,729
70,320	-10,273	268,602	126,567
71,334	-9,993	268,365	126,700
72,349	-10,005	268,264	126,630
73,363	-9,919	268,005	126,575
74,378	-9,985	267,786	126,400
75,393	-9,802	267,546	126,442
76,407	-9,909	267,199	126,170
77,422	-10,151	267,203	125,941
78,436	-9,758	266,838	126,114
79,451	-10,019	266,798	125,846
80,466	-9,850	266,457	125,827
81,480	-10,021	266,120	125,502
82,495	-10,150	266,002	125,319
83,509	-10,114	265,947	125,315
84,524	-10,188	265,715	125,127
85,539	-10,267	265,443	124,917
86,553	-10,398	265,156	124,653
87,568	-10,159	264,871	124,723
88,582	-10,182	264,710	124,615
89,597	-10,201	264,515	124,495
90,611	-9,957	264,353	124,627
91,626	-10,095	264,354	124,492
92,641	-10,167	264,091	124,293
93,655	-10,195	263,864	124,149
94,670	-10,171	263,661	124,064
95,684	-10,081	263,362	123,993
96,699	-10,022	263,196	123,957
97,714	-10,094	263,003	123,790
98,728	-10,392	262,894	123,462
99,743	-10,131	262,626	123,558
100,757	-10,371	262,342	123,200
101,772	-10,251	262,138	123,200
102,787	-10,165	262,021	123,210
103,801	-10,013	261,802	123,231
104,816	-9,987	261,654	123,174
105,830	-10,038	261,555	123,071
106,845	-10,015	261,308	122,964
107,860	-9,901	261,027	122,922
108,874	-9,890	260,751	122,791
109,889	-9,999	260,678	122,649
110,903	-9,918	260,410	122,583
111,918	-10,122	260,290	122,336
112,933	-10,081	260,082	122,263
113,947	-9,989	259,760	122,182
114,962	-10,057	259,777	122,120
115,976	-9,963	259,515	122,068
116,991	-9,924	259,389	122,032
118,006	-10,024	259,195	121,842
119,020	-10,026	259,019	121,747
120,035	-9,908	258,913	121,789
121,049	-9,838	258,722	121,751
122,064	-9,824	258,440	121,619
123,079	-9,942	258,387	121,480
124,093	-9,952	258,054	121,304
125,108	-10,133	257,902	121,063
126,122	-10,298	257,551	120,744
127,137	-10,489	257,265	120,433
128,151	-10,461	257,316	120,471
129,166	-10,333	256,955	120,402
130,181	-10,280	256,870	120,397
131,195	-10,248	256,468	120,226
132,210	-10,016	256,292	120,334
133,224	-9,886	256,292	120,436
134,239	-9,997	256,086	120,233
135,254	-9,940	255,899	120,183
136,268	-9,910	255,662	120,088
137,283	-10,221	255,316	119,645
138,297	-10,171	255,061	119,558
139,312	-10,311	254,886	119,345
140,327	-10,076	254,907	119,546
141,341	-10,001	254,746	119,525
142,356	-10,053	254,592	119,398
143,370	-9,907	254,462	119,451
144,385	-9,773	254,223	119,444
145,400	-9,756	254,002	119,344
146,414	-9,728	253,921	119,319
147,429	-9,794	253,626	119,113
148,443	-9,758	253,428	119,040
149,458	-9,771	253,295	118,956
150,473	-9,841	253,085	118,787
151,487	-9,911	252,943	118,650
152,502	-9,906	252,784	118,569
153,516	-9,951	252,635	118,451
154,531	-9,862	252,321	118,369
155,546	-9,757	252,237	118,408
156,560	-9,692	252,084	118,381
157,575	-9,954	251,903	118,062
158,589	-9,760	251,727	118,134
159,604	-9,846	251,459	117,925
160,619	-9,658	251,239	117,971
161,633	-9,714	251,152	117,872
162,648	-9,908	251,110	117,677
163,662	-9,695	250,915	117,755
164,677	-9,772	250,773	117,613
165,692	-9,750	250,463	117,476
166,706	-9,824	250,392	117,370
167,721	-9,654	250,162	117,395
168,735	-9,741	250,143	117,302
169,750	-9,839	249,859	117,076
170,764	-9,743	249,941	117,185
171,779	-9,683	249,603	117,067
172,794	-9,730	249,498	116,967
173,808	-9,891	249,191	116,678
174,823	-10,080	248,901	116,373
175,837	-10,478	248,762	115,963
176,852	-9,892	248,651	116,393
177,867	-9,609	248,621	116,606
178,881	-9,649	248,415	116,465
179,896	-9,734	248,241	116,302
180,910	-9,729	247,974	116,170
181,925	-9,578	247,821	116,215
182,940	-9,754	247,725	116,012
183,954	-9,646	247,404	115,941
184,969	-9,740	247,369	115,837
185,983	-9,640	247,077	115,774
186,998	-9,627	246,984	115,730
188,013	-9,598	246,872	115,691
189,027	-9,536	246,589	115,599
190,042	-9,655	246,460	115,430
191,056	-9,637	246,329	115,373
192,071	-9,632	246,083	115,252
193,086	-9,664	246,004	115,179
194,100	-9,866	245,841	114,924
195,115	-9,713	245,697	114,974
196,129	-9,503	245,395	114,996
197,144	-9,583	245,227	114,840
198,159	-9,760	245,114	114,631
199,173	-9,570	244,863	114,660
200,188	-9,612	244,665	114,523
201,202	-9,693	244,306	114,278
202,217	-10,032	244,036	113,863
203,232	-10,271	243,975	113,629
204,246	-9,757	243,960	114,033
205,261	-9,134	243,747	114,434
206,275	-10,075	243,640	113,603
207,290	-5,930	245,247	117,757
208,304	0,943	247,237	124,394
209,319	3,557	247,948	126,906
210,334	3,948	247,926	127,207
211,348	4,202	247,825	127,353
212,363	4,510	247,885	127,627
213,377	4,650	247,592	127,581
214,392	4,440	247,392	127,294
215,407	4,052	247,342	126,937
216,421	4,181	247,192	126,954
217,436	4,554	246,874	127,087
218,450	4,636	246,737	127,073
219,465	4,237	246,593	126,659
220,480	4,101	246,475	126,475
221,494	3,807	246,335	126,151
222,509	4,086	246,039	126,217
223,523	4,152	245,829	126,152
224,538	3,747	245,658	125,721
225,553	3,971	245,241	125,680
226,567	4,036	245,355	125,780
227,582	3,867	245,301	125,603
228,596	3,986	245,107	125,590
229,611	3,828	244,742	125,263
230,626	3,680	244,660	125,089
231,640	3,821	244,476	125,099
232,655	3,939	244,434	125,162
233,669	3,653	244,158	124,777
234,684	3,536	244,030	124,605
235,699	4,031	243,970	124,966
236,713	4,239	243,875	125,074
237,728	3,913	243,509	124,611
238,742	3,645	243,424	124,340
239,757	3,621	243,180	124,185
240,772	3,686	243,049	124,159
241,786	3,756	242,971	124,165
242,801	3,747	242,739	124,028
243,815	3,819	242,626	124,017
244,830	3,891	242,462	123,981
245,844	4,036	242,250	123,978
246,859	3,925	242,184	123,843
247,874	3,741	242,073	123,628
248,888	3,873	241,855	123,611
249,903	3,970	241,752	123,626
250,917	4,085	241,617	123,638
251,932	4,189	241,453	123,627
252,947	4,078	241,302	123,449
253,961	3,856	240,997	123,105
254,976	3,933	240,918	123,114
255,990	4,106	240,870	123,218
257,005	3,744	240,602	122,780
258,020	3,516	240,300	122,433
259,034	3,812	240,180	122,597
260,049	3,775	240,036	122,483
261,063	3,569	239,949	122,264
262,078	3,538	239,712	122,107
263,093	4,008	239,697	122,463
264,107	4,108	239,481	122,421
265,122	3,850	239,204	122,064
266,136	3,960	239,260	122,169
267,151	4,022	239,259	122,207
268,166	3,826	238,830	121,821
269,180	3,656	238,629	121,573
270,195	4,255	238,601	122,022
271,209	4,512	238,530	122,178
272,224	3,918	238,178	121,518
273,239	3,551	237,940	121,096
274,253	3,632	237,893	121,125
275,268	3,691	237,907	121,168
276,282	3,928	237,673	121,225
277,297	3,469	237,486	120,757
278,312	3,749	237,218	120,831
279,326	3,943	237,307	121,018
280,341	3,819	237,108	120,808
281,355	3,992	236,948	120,852
282,370	3,969	236,712	120,703
283,384	3,871	236,668	120,592
284,399	3,642	236,428	120,280
285,414	3,564	236,279	120,132
286,428	3,900	236,085	120,286
287,443	3,611	236,031	120,021
288,457	3,876	235,903	120,153
289,472	4,074	235,669	120,178
290,487	4,046	235,519	120,068
291,501	3,636	235,378	119,666
292,516	3,520	235,041	119,394
293,530	3,538	235,078	119,416
294,545	3,692	235,077	119,525
295,560	3,963	234,827	119,598
296,574	3,550	234,544	119,123
297,589	3,673	234,540	119,205
298,603	3,882	234,344	119,257
299,618	4,141	234,264	119,406
300,633	3,871	234,145	119,126
301,647	3,672	234,101	118,939
302,662	4,278	233,987	119,340
303,676	4,369	233,681	119,242
304,691	4,145	233,522	118,979
305,706	4,290	233,480	119,058
306,720	4,278	233,331	118,963
307,735	3,916	233,252	118,632
308,749	3,917	232,925	118,456
309,764	3,759	232,739	118,230
310,779	3,495	232,686	117,989
311,793	3,754	232,239	117,950
312,808	3,427	232,148	117,643
313,822	3,558	232,089	117,703
314,837	3,548	231,922	117,600
315,852	3,620	231,727	117,546
316,866	3,615	231,683	117,509
317,881	4,099	231,560	117,807
318,895	4,161	231,280	117,701
319,910	4,023	231,069	117,478
320,925	3,731	230,980	117,199
321,939	3,847	230,980	117,277
322,954	4,159	230,964	117,497
323,968	4,106	230,563	117,242
324,983	4,068	230,415	117,128
325,997	3,964	230,298	116,978
327,012	3,522	230,287	116,626
328,027	3,986	230,008	116,827
329,041	4,188	229,930	116,930
330,056	4,630	229,975	117,278
331,070	4,591	229,924	117,212
332,085	4,149	229,630	116,717
333,100	4,030	229,310	116,453
334,114	3,839	229,283	116,285
335,129	4,140	229,199	116,460
336,143	4,453	228,945	116,556
337,158	4,307	228,933	116,430
338,173	4,165	228,711	116,200
339,187	4,011	228,501	115,967
340,202	4,107	228,487	116,022
341,216	4,179	228,287	115,964
342,231	4,056	227,983	115,706
343,246	4,073	227,961	115,698
344,260	3,964	227,824	115,536
345,275	4,085	227,825	115,617
346,289	4,319	227,692	115,715
347,304	4,335	227,562	115,651
348,319	4,178	227,295	115,387
349,333	3,955	227,227	115,175
350,348	3,917	226,838	114,939
351,362	4,113	226,763	115,037
352,377	3,855	226,621	114,762
353,392	3,818	226,382	114,604
354,406	3,792	226,194	114,479
355,421	194,961	1322,364	1397,166
356,435	156,257	1455,897	1397,158
