DTS Sentinel unit serial number:	SN410029Multiplexer serial number:	ORYXHardware model number:	OX2-SRSoftware version number:	ORYX F/W v4,00 Oryx Data Collector v3.7.2.0data status	okinstallation	B5 Nyhavnadifferential loss correction	single-endedforward channel	channel 2reverse channel	N/Adate	2023/12/12time	11:02:13forward acquisition time	300,00reverse acquisition time	0,00gamma	499,1914k internal	0,3158k external	0,3158temperature offset calibration	1,0000default loss term (dB/km)	0,3820temperature slope calibration	1,0000multiplexer offset coefficient	1,0000multiplexer slope coefficient	1,0000fibre end	0,00T internal ref (°C)	15,01T ext. ref 1 (°C)	-1,19T ext. ref 2 (°C)	-1,45length (m)	temperature (°C)	Stokes	anti-Stokes-744,400	-33,854	0,089	-0,036
-743,385	-177,085	-0,289	-0,005
-742,371	16,850	0,109	0,063
-741,356	-34,718	-0,202	0,081
-740,342	79,946	0,064	-0,051
-739,327	72,405	-0,188	0,144
-738,312	-117,693	0,048	0,006
-737,298	0,443	-0,121	-0,064
-736,283	331,522	0,092	0,132
-735,269	-81,902	-0,273	0,065
-734,254	767,309	-0,026	0,053
-733,239	-112,258	-0,421	-0,062
-732,225	423,889	0,060	-0,096
-731,210	-51,858	0,131	-0,045
-730,196	571,835	0,063	-0,114
-729,181	-200,000	0,033	-0,112
-728,167	195,919	-0,121	0,136
-727,152	518,172	-0,049	-0,085
-726,137	-197,022	-0,189	0,001
-725,123	-128,627	-0,113	-0,012
-724,108	800,000	-0,074	-0,209
-723,094	-144,206	-0,145	-0,010
-722,079	-63,508	-0,022	-0,006
-721,064	-200,000	-0,003	0,032
-720,050	175,786	0,021	0,022
-719,035	-200,000	0,020	0,114
-718,021	-200,000	-0,014	-0,077
-717,006	115,635	-0,012	0,011
-715,991	387,121	0,045	0,069
-714,977	-30,528	-0,037	-0,015
-713,962	-200,000	0,028	-0,104
-712,948	-73,180	0,047	0,012
-711,933	113,750	0,065	0,058
-710,918	-11,229	-0,062	0,030
-709,904	-43,452	-0,106	-0,039
-708,889	-23,851	-0,112	0,049
-707,875	165,890	-0,123	-0,128
-706,860	166,388	0,034	-0,036
-705,845	396,030	-0,045	-0,070
-704,831	-94,057	0,086	0,017
-703,816	35,156	0,103	-0,066
-702,802	220,598	0,049	-0,058
-701,787	-200,000	0,027	-0,137
-700,772	310,896	-0,060	0,082
-699,758	232,207	-0,076	0,092
-698,743	250,059	-0,020	0,025
-697,729	154,020	-0,063	0,064
-696,714	773,811	-0,004	-0,008
-695,699	-182,371	0,097	-0,001
-694,685	-106,399	0,050	-0,008
-693,670	153,413	-0,035	-0,035
-692,656	800,000	0,047	-0,113
-691,641	385,668	-0,062	-0,094
-690,627	-52,424	0,064	0,022
-689,612	464,855	0,067	-0,111
-688,597	800,000	0,020	-0,062
-687,583	252,719	-0,062	-0,078
-686,568	305,496	0,084	-0,115
-685,554	-132,327	-0,032	0,003
-684,539	-94,451	0,106	-0,021
-683,524	-9,620	-0,166	-0,081
-682,510	-200,000	-0,006	-0,026
-681,495	-200,000	-0,035	-0,130
-680,481	350,226	-0,024	-0,035
-679,466	-200,000	-0,038	-0,187
-678,451	399,268	0,011	0,016
-677,437	-96,400	-0,049	-0,009
-676,422	-200,000	-0,016	-0,056
-675,408	68,715	0,060	0,045
-674,393	-37,599	-0,033	-0,013
-673,378	28,735	-0,085	-0,053
-672,364	800,000	0,029	-0,087
-671,349	7,438	-0,091	-0,050
-670,335	-22,578	0,095	0,042
-669,320	174,871	0,039	-0,041
-668,305	800,000	0,069	0,151
-667,291	585,842	-0,050	-0,091
-666,276	297,248	-0,019	0,026
-665,262	-141,482	-0,084	0,006
-664,247	95,646	0,027	-0,023
-663,232	63,438	-0,012	-0,009
-662,218	-200,000	-0,024	0,118
-661,203	-200,000	-0,008	-0,041
-660,189	-130,098	0,157	0,016
-659,174	140,716	-0,042	0,041
-658,159	800,000	-0,059	0,181
-657,145	800,000	0,033	-0,071
-656,130	-200,000	0,001	0,014
-655,116	50,566	-0,024	0,017
-654,101	-200,000	0,008	0,036
-653,086	526,983	0,057	0,099
-652,072	800,000	-0,039	-0,095
-651,057	134,795	0,053	-0,051
-650,043	162,738	0,043	0,044
-649,028	-40,013	-0,028	0,011
-648,014	249,162	-0,052	0,065
-646,999	-200,000	0,013	0,062
-645,984	-81,158	0,189	-0,045
-644,970	-200,000	0,001	0,108
-643,955	260,741	0,055	-0,071
-642,941	-72,531	-0,041	0,011
-641,926	-1,592	-0,074	-0,038
-640,911	-168,831	-0,072	0,002
-639,897	81,115	0,016	-0,012
-638,882	-200,000	0,020	-0,072
-637,868	-74,457	-0,024	-0,006
-636,853	800,000	0,024	-0,048
-635,838	-73,215	-0,243	-0,065
-634,824	-62,548	0,074	0,022
-633,809	26,505	0,104	-0,064
-632,795	800,000	0,029	-0,067
-631,780	391,391	-0,069	0,106
-630,765	90,465	0,095	-0,078
-629,751	15,524	-0,135	-0,078
-628,736	432,867	-0,020	-0,032
-627,722	-112,939	-0,073	-0,010
-626,707	98,895	0,029	0,025
-625,692	281,516	0,059	-0,077
-624,678	800,000	-0,056	0,118
-623,663	-11,856	-0,014	-0,007
-622,649	800,000	-0,048	-0,133
-621,634	-118,186	-0,115	0,015
-620,619	-82,566	-0,052	0,012
-619,605	23,076	-0,067	-0,041
-618,590	-200,000	0,005	0,114
-617,576	-200,000	-0,000	0,060
-616,561	-141,792	-0,028	-0,002
-615,546	678,111	-0,047	0,091
-614,532	-193,420	-0,246	0,002
-613,517	-8,761	0,070	-0,034
-612,503	800,000	0,061	-0,138
-611,488	-187,645	-0,117	-0,001
-610,474	434,276	-0,008	0,012
-609,459	78,592	0,069	-0,054
-608,444	800,000	0,058	-0,180
-607,430	520,059	-0,095	-0,164
-606,415	-200,000	0,002	-0,055
-605,401	145,812	0,042	0,041
-604,386	-200,000	0,003	0,042
-603,371	3,582	-0,040	-0,022
-602,357	800,000	0,033	0,102
-601,342	329,613	-0,043	-0,060
-600,328	333,349	-0,064	-0,092
-599,313	-200,000	0,041	0,000
-598,298	424,140	0,049	-0,078
-597,284	-54,283	-0,113	-0,037
-596,269	-126,525	0,084	-0,009
-595,255	-200,000	-0,001	0,053
-594,240	800,000	-0,014	0,039
-593,225	179,751	0,045	-0,048
-592,211	18,668	-0,058	-0,034
-591,196	121,546	-0,060	0,055
-590,182	-125,832	0,034	-0,004
-589,167	-119,636	0,054	0,007
-588,152	-89,485	-0,116	0,025
-587,138	-89,177	0,068	0,015
-586,123	-200,000	0,012	-0,130
-585,109	-200,000	0,004	0,046
-584,094	-200,000	-0,020	-0,075
-583,079	136,618	0,093	0,089
-582,065	-177,536	-0,038	0,001
-581,050	176,973	0,083	0,089
-580,036	97,145	-0,013	-0,011
-579,021	-145,718	-0,097	0,006
-578,006	55,521	-0,118	-0,084
-576,992	800,000	-0,059	0,179
-575,977	629,780	0,077	0,144
-574,963	-200,000	0,024	0,187
-573,948	-200,000	-0,009	0,035
-572,934	350,132	0,098	-0,142
-571,919	-24,495	-0,107	-0,047
-570,904	-200,000	-0,035	-0,138
-569,890	800,000	-0,041	-0,085
-568,875	104,299	0,022	0,019
-567,861	6,880	-0,069	0,037
-566,846	519,109	0,078	-0,134
-565,831	-163,485	0,073	-0,002
-564,817	646,563	0,031	-0,059
-563,802	224,945	-0,053	-0,063
-562,788	800,000	-0,066	0,167
-561,773	108,276	0,030	-0,026
-560,758	-145,968	0,057	0,004
-559,744	800,000	0,026	-0,077
-558,729	800,000	-0,038	-0,091
-557,715	-200,000	-0,002	0,027
-556,700	-55,948	-0,043	0,014
-555,685	-200,000	-0,009	0,089
-554,671	44,641	-0,110	-0,074
-553,656	194,059	0,092	-0,102
-552,642	43,965	0,025	0,017
-551,627	-200,000	0,006	-0,076
-550,612	8,884	-0,165	-0,091
-549,598	-200,000	-0,017	-0,057
-548,583	175,456	0,095	-0,101
-547,569	-136,387	-0,109	0,009
-546,554	143,811	-0,053	0,052
-545,539	800,000	-0,020	-0,054
-544,525	455,223	-0,043	0,070
-543,510	88,521	0,014	0,011
-542,496	-159,712	0,059	0,002
-541,481	-109,863	-0,095	0,014
-540,466	-200,000	0,007	-0,034
-539,452	196,147	-0,045	-0,050
-538,437	638,093	0,061	0,113
-537,423	123,926	0,109	0,100
-536,408	99,780	0,122	-0,104
-535,393	142,686	-0,167	-0,162
-534,379	-144,461	0,038	-0,003
-533,364	100,716	-0,070	0,060
-532,350	379,431	-0,028	0,042
-531,335	800,000	0,064	0,142
-530,321	800,000	0,010	-0,031
-529,306	159,642	-0,120	-0,122
-528,291	800,000	0,029	-0,076
-527,277	-167,544	-0,072	0,002
-526,262	800,000	0,061	0,149
-525,248	-200,000	0,003	0,026
-524,233	380,688	-0,070	0,106
-523,218	800,000	0,012	-0,025
-522,204	-200,000	-0,014	-0,102
-521,189	800,000	0,031	0,097
-520,175	-163,499	-0,107	0,004
-519,160	211,276	-0,069	-0,079
-518,145	80,329	0,049	0,039
-517,131	352,246	0,088	0,128
-516,116	234,551	-0,057	0,069
-515,102	-200,000	-0,008	-0,040
-514,087	800,000	0,038	0,090
-513,072	61,525	-0,164	0,119
-512,058	-70,668	0,129	-0,035
-511,043	-88,125	-0,008	-0,002
-510,029	18,824	0,035	0,020
-509,014	-31,410	0,027	-0,011
-507,999	-200,000	-0,038	0,196
-506,985	37,843	-0,087	0,056
-505,970	-29,248	0,073	-0,030
-504,956	-200,000	0,000	-0,070
-503,941	800,000	0,031	0,086
-502,926	56,372	0,078	0,056
-501,912	110,157	-0,124	-0,109
-500,897	-200,000	0,008	0,196
-499,883	-47,827	-0,127	-0,045
-498,868	397,649	0,078	-0,120
-497,853	474,692	0,068	-0,112
-496,839	800,000	-0,040	-0,089
-495,824	-173,847	-0,114	-0,002
-494,810	-19,273	-0,064	0,029
-493,795	-193,613	-0,138	0,001
-492,781	800,000	-0,044	-0,111
-491,766	-157,905	-0,031	-0,001
-490,751	456,706	0,092	-0,150
-489,737	-125,080	-0,074	-0,008
-488,722	-200,000	0,010	-0,052
-487,708	100,195	0,049	0,042
-486,693	457,809	-0,055	0,090
-485,678	-138,495	-0,051	-0,004
-484,664	-65,744	0,021	-0,006
-483,649	410,739	0,012	-0,019
-482,635	291,977	-0,055	0,074
-481,620	492,120	0,023	0,039
-480,605	-56,694	-0,107	-0,034
-479,591	-200,000	0,006	0,081
-478,576	85,043	0,126	0,101
-477,562	800,000	0,024	-0,054
-476,547	30,743	-0,098	-0,061
-475,532	-200,000	-0,020	0,079
-474,518	87,076	0,065	-0,053
-473,503	-200,000	-0,004	0,054
-472,489	359,663	-0,076	0,112
-471,474	-184,114	0,057	-0,001
-470,459	-200,000	-0,020	-0,124
-469,445	-200,000	0,022	-0,173
-468,430	53,190	0,090	0,063
-467,416	51,426	-0,043	0,030
-466,401	-200,000	-0,035	0,119
-465,386	800,000	0,031	0,064
-464,372	-200,000	0,009	0,123
-463,357	-133,068	-0,116	-0,011
-462,343	-200,000	-0,002	-0,140
-461,328	-200,000	-0,013	-0,085
-460,313	-200,000	0,013	0,051
-459,299	-34,463	0,050	0,020
-458,284	381,034	0,092	0,138
-457,270	66,478	0,054	0,040
-456,255	-200,000	0,012	-0,072
-455,241	266,534	-0,029	0,037
-454,226	-93,698	-0,031	0,006
-453,211	800,000	0,022	-0,047
-452,197	-27,469	-0,042	-0,018
-451,182	-98,614	-0,024	-0,004
-450,168	88,839	0,042	-0,034
-449,153	131,868	-0,134	0,126
-448,138	-200,000	-0,001	-0,079
-447,124	-200,000	0,009	-0,082
-446,109	-200,000	-0,010	0,107
-445,095	-132,105	0,052	0,005
-444,080	800,000	0,061	-0,125
-443,065	160,982	-0,017	0,017
-442,051	15,819	0,105	-0,060
-441,036	-12,786	-0,128	0,060
-440,022	800,000	-0,014	0,044
-439,007	800,000	-0,022	0,068
-437,992	-43,562	0,149	-0,055
-436,978	-200,000	-0,005	0,056
-435,963	-138,455	-0,022	0,002
-434,949	-102,420	-0,105	0,018
-433,934	-186,847	-0,143	0,001
-432,919	606,383	-0,047	-0,086
-431,905	-200,000	-0,002	-0,048
-430,890	-200,000	-0,025	0,082
-429,876	800,000	0,072	0,155
-428,861	441,567	-0,079	0,126
-427,846	289,100	0,098	-0,129
-426,832	-97,764	-0,053	-0,010
-425,817	-200,000	-0,021	-0,086
-424,803	-200,000	0,005	-0,076
-423,788	-107,929	0,079	-0,012
-422,773	-200,000	-0,017	0,164
-421,759	-200,000	-0,040	0,153
-420,744	160,640	0,096	-0,098
-419,730	-200,000	0,002	-0,081
-418,715	33,485	-0,037	0,023
-417,701	800,000	0,020	0,060
-416,686	47,917	0,060	-0,041
-415,671	-142,050	0,132	-0,009
-414,657	90,066	-0,037	-0,030
-413,642	-200,000	0,030	0,106
-412,628	11,040	-0,113	0,063
-411,613	-29,254	-0,152	0,063
-410,598	373,117	0,047	0,070
-409,584	-119,619	0,135	0,017
-408,569	167,515	0,050	-0,051
-407,555	800,000	-0,078	0,190
-406,540	228,877	0,058	-0,069
-405,525	143,070	-0,072	-0,070
-404,511	-94,468	0,215	0,042
-403,496	3,039	-0,137	-0,072
-402,482	-200,000	0,019	-0,123
-401,467	197,831	-0,087	0,097
-400,452	53,564	0,055	-0,038
-399,438	-23,306	0,095	0,041
-398,423	-200,000	0,002	-0,079
-397,409	364,299	-0,014	-0,020
-396,394	-200,000	0,015	-0,102
-395,379	42,740	0,049	-0,033
-394,365	-72,402	0,061	0,016
-393,350	276,214	0,136	0,176
-392,336	163,537	0,039	0,040
-391,321	-38,574	-0,157	0,060
-390,306	800,000	-0,017	-0,043
-389,292	-200,000	0,015	-0,069
-388,277	800,000	-0,046	-0,095
-387,263	137,135	-0,027	0,026
-386,248	800,000	0,019	0,046
-385,233	-200,000	0,012	-0,052
-384,219	-200,000	-0,000	0,035
-383,204	-40,704	0,076	0,029
-382,190	-200,000	0,022	0,071
-381,175	800,000	0,044	0,131
-380,160	647,740	-0,036	0,067
-379,146	-200,000	0,016	-0,061
-378,131	-110,278	-0,058	0,009
-377,117	781,144	-0,050	-0,100
-376,102	118,403	0,039	0,035
-375,088	-2,510	0,046	-0,023
-374,073	800,000	0,023	-0,048
-373,058	10,552	0,038	0,021
-372,044	-82,744	0,162	0,038
-371,029	-200,000	-0,006	0,174
-370,015	-79,652	-0,038	0,009
-369,000	-200,000	-0,002	-0,067
-367,985	-37,776	0,150	0,058
-366,971	-95,398	-0,098	0,019
-365,956	238,219	0,142	0,172
-364,942	98,847	0,102	0,085
-363,927	165,033	0,025	-0,025
-362,912	152,782	0,106	0,105
-361,898	-200,000	0,011	-0,056
-360,883	800,000	-0,059	-0,146
-359,869	800,000	0,055	0,123
-358,854	800,000	0,046	0,140
-357,839	-66,796	-0,082	-0,023
-356,825	-67,215	-0,028	0,008
-355,810	-53,631	-0,074	-0,024
-354,796	-200,000	0,003	0,018
-353,781	8,164	-0,027	-0,015
-352,766	403,854	0,058	-0,089
-351,752	124,694	0,011	0,010
-350,737	-86,880	0,171	-0,038
-349,723	-200,000	-0,022	0,188
-348,708	-200,000	-0,033	0,120
-347,693	274,360	0,071	0,091
-346,679	-74,608	-0,212	-0,055
-345,664	-200,000	-0,046	-0,194
-344,650	513,023	-0,068	0,115
-343,635	-89,648	-0,086	0,018
-342,620	-200,000	-0,033	0,115
-341,606	-200,000	0,028	0,213
-340,591	66,938	-0,062	0,045
-339,577	65,628	0,091	-0,067
-338,562	800,000	0,040	-0,117
-337,548	37,150	0,139	-0,089
-336,533	219,454	-0,052	0,060
-335,518	-174,179	0,127	-0,003
-334,504	-59,035	0,090	0,028
-333,489	800,000	0,020	-0,044
-332,475	-200,000	0,004	0,024
-331,460	207,057	0,153	-0,173
-330,445	-200,000	0,000	0,006
-329,431	-200,000	0,002	-0,030
-328,416	-132,040	0,166	-0,015
-327,402	-200,000	0,041	0,133
-326,387	-200,000	-0,009	0,038
-325,372	720,107	0,061	0,119
-324,358	800,000	-0,049	-0,104
-323,343	-200,000	0,011	0,054
-322,329	41,479	0,119	0,078
-321,314	-200,000	0,027	0,101
-320,299	65,800	-0,122	0,089
-319,285	800,000	0,010	-0,027
-318,270	-200,000	-0,009	-0,110
-317,256	-200,000	0,029	-0,133
-316,241	-55,642	0,089	-0,029
-315,226	335,310	0,034	0,048
-314,212	64,203	0,081	0,059
-313,197	800,000	-0,017	0,044
-312,183	-200,000	-0,020	0,090
-311,168	344,605	0,032	-0,045
-310,153	192,161	-0,059	-0,064
-309,139	-156,195	-0,090	-0,004
-308,124	800,000	0,039	0,096
-307,110	92,138	0,112	-0,091
-306,095	-86,284	0,126	-0,028
-305,080	1,868	-0,082	0,043
-304,066	21,845	0,119	-0,070
-303,051	-200,000	0,006	-0,042
-302,037	-200,000	0,003	-0,083
-301,022	360,065	-0,002	-0,003
-300,008	800,000	0,020	-0,041
-298,993	695,255	-0,023	-0,045
-297,978	-200,000	0,039	0,131
-296,964	-97,052	-0,203	0,038
-295,949	-80,220	0,075	0,018
-294,935	-14,983	0,031	-0,014
-293,920	237,120	-0,067	0,081
-292,905	-200,000	0,010	0,060
-291,891	105,041	0,084	0,072
-290,876	133,266	-0,084	-0,079
-289,862	800,000	-0,013	-0,040
-288,847	-200,000	-0,010	-0,142
-287,832	-200,000	-0,038	-0,169
-286,818	704,169	-0,039	-0,075
-285,803	-200,000	-0,011	-0,059
-284,789	326,773	0,082	0,114
-283,774	-15,286	0,107	0,049
-282,759	-64,517	0,090	-0,026
-281,745	90,564	-0,116	-0,094
-280,730	-76,167	-0,070	0,018
-279,716	123,747	-0,043	0,039
-278,701	129,601	0,128	0,119
-277,686	-56,721	-0,057	-0,018
-276,672	3,296	-0,051	0,027
-275,657	20,762	0,021	0,012
-274,643	-178,715	-0,108	-0,002
-273,628	800,000	0,044	-0,094
-272,613	-69,886	-0,168	0,046
-271,599	6,224	0,131	-0,070
-270,584	-29,100	-0,068	-0,028
-269,570	164,244	-0,114	-0,116
-268,555	-200,000	-0,005	0,032
-267,540	270,936	-0,051	0,065
-266,526	-74,371	-0,129	0,033
-265,511	-65,656	0,014	0,004
-264,497	-162,467	0,091	0,003
-263,482	-87,749	0,127	0,027
-262,467	250,585	0,044	0,054
-261,453	120,803	-0,035	0,031
-260,438	-141,734	-0,032	-0,002
-259,424	-146,356	-0,075	0,005
-258,409	537,964	-0,024	-0,042
-257,395	-200,000	0,009	0,091
-256,380	461,753	0,024	0,039
-255,365	202,028	0,102	-0,114
-254,351	800,000	-0,016	0,033
-253,336	800,000	0,061	-0,165
-252,322	-200,000	0,019	-0,141
-251,307	-200,000	-0,000	0,045
-250,292	71,062	-0,178	-0,133
-249,278	-200,000	-0,005	-0,016
-248,263	800,000	0,068	-0,157
-247,249	-200,000	-0,021	0,177
-246,234	588,981	-0,031	-0,056
-245,219	-30,143	-0,117	-0,048
-244,205	45,959	0,071	-0,047
-243,190	-200,000	0,005	-0,094
-242,176	800,000	0,031	0,072
-241,161	-70,336	0,052	0,014
-240,146	77,570	0,151	0,116
-239,132	-200,000	0,012	0,066
-238,117	152,058	-0,044	-0,044
-237,103	-4,519	0,034	0,017
-236,088	-1,462	0,075	-0,038
-235,073	45,427	0,094	0,062
-234,059	-51,081	0,074	-0,025
-233,044	313,985	0,061	-0,084
-232,030	-200,000	-0,005	-0,104
-231,015	765,398	-0,023	-0,045
-230,000	-63,354	-0,146	-0,043
-228,986	77,527	0,033	-0,026
-227,971	270,903	-0,062	0,079
-226,957	85,671	-0,070	0,056
-225,942	38,522	0,066	-0,043
-224,927	544,866	0,087	0,151
-223,913	199,552	-0,048	0,054
-222,898	-200,000	-0,016	-0,144
-221,884	-200,000	0,016	0,099
-220,869	28,796	0,096	-0,059
-219,855	-165,937	-0,026	-0,001
-218,840	-137,867	0,065	0,005
-217,825	-152,629	-0,120	-0,006
-216,811	-73,775	-0,088	0,023
-215,796	-51,894	0,138	-0,046
-214,782	4,251	-0,017	0,009
-213,767	800,000	0,013	0,033
-212,752	20,945	0,142	0,083
-211,738	-200,000	0,012	-0,125
-210,723	-95,033	0,030	0,006
-209,709	-147,729	-0,080	-0,005
-208,694	800,000	-0,028	-0,081
-207,679	115,370	0,073	-0,064
-206,665	85,104	0,090	-0,071
-205,650	197,311	0,055	0,061
-204,636	-74,897	0,166	0,043
-203,621	219,157	-0,082	0,094
-202,606	107,437	0,055	-0,047
-201,592	434,412	0,014	0,022
-200,577	-133,802	0,137	0,012
-199,563	427,847	-0,087	0,136
-198,548	-200,000	0,016	0,055
-197,533	800,000	0,020	-0,039
-196,519	-126,539	-0,052	-0,005
-195,504	-200,000	0,014	-0,053
-194,490	800,000	-0,041	-0,130
-193,475	800,000	-0,035	-0,092
-192,460	-108,092	-0,048	-0,007
-191,446	97,410	0,109	0,090
-190,431	29,768	0,018	-0,011
-189,417	508,558	0,043	0,073
-188,402	-166,040	-0,089	-0,003
-187,387	647,617	0,036	-0,066
-186,373	800,000	-0,025	0,079
-185,358	-12,219	0,048	0,023
-184,344	578,388	0,024	0,043
-183,329	246,070	0,064	-0,078
-182,315	-200,000	-0,004	-0,022
-181,300	-200,000	-0,004	-0,059
-180,285	196,923	-0,113	0,125
-179,271	-200,000	0,006	0,103
-178,256	800,000	0,035	0,086
-177,242	304,792	-0,076	-0,102
-176,227	-200,000	0,000	0,012
-175,212	301,699	0,036	0,048
-174,198	-49,549	-0,175	-0,060
-173,183	-200,000	0,003	-0,155
-172,169	-87,925	-0,101	-0,022
-171,154	800,000	0,033	0,084
-170,139	81,081	-0,163	-0,127
-169,125	-60,260	0,133	-0,041
-168,110	800,000	0,063	-0,166
-167,096	-200,000	-0,002	-0,113
-166,081	-78,359	-0,052	0,013
-165,066	11,043	-0,118	-0,065
-164,052	800,000	-0,047	0,095
-163,037	-200,000	-0,005	-0,033
-162,023	211,025	0,092	-0,105
-161,008	115,617	0,053	0,047
-159,993	80,816	-0,054	0,042
-158,979	-200,000	0,006	-0,068
-157,964	-140,346	-0,109	0,008
-156,950	596,141	0,029	-0,052
-155,935	-200,000	-0,020	0,099
-154,920	-200,000	-0,002	0,071
-153,906	251,299	0,069	0,085
-152,891	-200,000	0,006	0,098
-151,877	-200,000	0,004	-0,019
-150,862	103,801	-0,059	-0,050
-149,847	-49,118	-0,007	0,002
-148,833	-16,889	-0,085	-0,038
-147,818	31,222	0,128	0,079
-146,804	-200,000	-0,034	0,137
-145,789	-80,187	0,085	-0,020
-144,775	-200,000	-0,036	-0,129
-143,760	-28,991	-0,045	-0,018
-142,745	149,247	-0,046	-0,045
-141,731	-115,340	0,121	-0,016
-140,716	-102,979	0,111	0,019
-139,702	-200,000	-0,021	0,125
-138,687	-65,529	0,120	0,034
-137,672	-200,000	0,023	0,090
-136,658	-56,193	-0,039	-0,012
-135,643	3,238	0,125	-0,065
-134,629	189,991	-0,054	0,059
-133,614	147,512	0,020	0,020
-132,599	496,338	-0,044	0,072
-131,585	800,000	0,011	0,025
-130,570	467,975	-0,029	0,047
-129,556	-76,887	0,096	-0,024
-128,541	181,193	0,035	-0,037
-127,526	-200,000	0,005	0,151
-126,512	800,000	0,090	-0,195
-125,497	-200,000	-0,012	-0,108
-124,483	-185,606	-0,165	-0,002
-123,468	-165,488	-0,214	-0,007
-122,453	-161,626	0,093	-0,003
-121,439	-200,000	-0,034	-0,112
-120,424	-200,000	0,002	-0,167
-119,410	-66,183	-0,066	0,019
-118,395	-37,782	0,179	0,068
-117,380	-200,000	0,015	0,050
-116,366	68,189	-0,141	0,104
-115,351	342,499	0,041	-0,058
-114,337	117,578	-0,051	-0,045
-113,322	126,577	-0,095	0,086
-112,307	-200,000	0,004	-0,021
-111,293	-85,126	0,098	0,022
-110,278	-134,702	0,048	-0,004
-109,264	-200,000	-0,010	0,088
-108,249	-200,000	-0,010	0,141
-107,234	46,013	-0,047	-0,031
-106,220	-62,381	-0,098	-0,029
-105,205	800,000	-0,037	0,083
-104,191	268,268	0,032	0,041
-103,176	213,004	0,059	-0,067
-102,162	293,399	0,033	0,043
-101,147	-41,616	0,102	0,037
-100,132	800,000	0,054	0,126
-99,118	236,626	-0,045	-0,053
-98,103	-200,000	0,036	-0,163
-97,089	-200,000	0,008	0,102
-96,074	-94,852	-0,080	0,016
-95,059	-116,647	-0,078	-0,010
-94,045	800,000	-0,022	0,065
-93,030	22,579	0,072	-0,042
-92,016	469,808	0,024	-0,038
-91,001	789,361	-0,050	-0,100
-89,986	-68,516	-0,020	-0,006
-88,972	84,054	-0,064	-0,050
-87,957	266,317	0,032	-0,040
-86,943	659,619	0,031	0,058
-85,928	800,000	-0,046	-0,105
-84,913	-89,456	-0,098	0,021
-83,899	79,204	0,061	0,047
-82,884	800,000	-0,012	0,035
-81,870	137,290	0,117	-0,110
-80,855	461,476	-0,026	-0,041
-79,840	-200,000	-0,021	-0,083
-78,826	127,261	-0,038	-0,035
-77,811	265,044	0,081	-0,102
-76,797	10,724	0,146	0,080
-75,782	-108,963	0,095	0,014
-74,767	-104,044	0,039	0,006
-73,753	19,634	0,109	-0,063
-72,738	800,000	-0,031	0,079
-71,724	-200,000	-0,004	-0,056
-70,709	-118,566	-0,059	0,007
-69,694	300,309	0,016	0,021
-68,680	160,962	0,036	-0,036
-67,665	800,000	0,023	0,060
-66,651	-200,000	-0,026	0,126
-65,636	-119,263	-0,087	0,011
-64,622	177,813	0,084	-0,088
-63,607	610,796	-0,070	-0,127
-62,592	-200,000	-0,011	-0,058
-61,578	-200,000	-0,003	-0,110
-60,563	-200,000	0,041	0,159
-59,549	-129,216	0,139	0,014
-58,534	6,215	-1,940	-1,029
-57,519	800,000	-0,301	-0,888
-56,505	-200,000	-1,426	-4,941
-55,490	16,414	0,791	0,447
-54,476	800,000	5,453	12,166
-53,461	-200,000	17,766	288,007
-52,446	800,000	728,740	2229,966
-51,432	538,076	1645,111	2816,583
-50,417	109,579	1635,700	1406,083
-49,403	75,468	1287,066	973,790
-48,388	31,770	1027,227	632,984
-47,373	20,110	989,134	571,079
-46,359	18,330	976,800	558,105
-45,344	15,341	972,792	546,017
-44,330	15,574	971,544	546,055
-43,315	15,093	969,226	543,163
-42,300	14,995	968,376	542,345
-41,286	15,028	967,469	541,923
-40,271	14,999	966,489	541,258
-39,257	15,052	965,405	540,803
-38,242	15,007	964,698	540,237
-37,227	15,027	963,755	539,755
-36,213	15,032	962,954	539,300
-35,198	14,973	961,953	538,526
-34,184	15,049	961,166	538,310
-33,169	14,991	960,348	537,643
-32,154	15,057	959,404	537,306
-31,140	15,037	958,550	536,744
-30,125	15,101	957,595	536,393
-29,111	15,058	957,084	535,946
-28,096	15,051	956,280	535,454
-27,082	15,050	955,741	535,127
-26,067	14,992	954,833	534,411
-25,052	15,095	954,007	534,258
-24,038	15,102	953,320	533,876
-23,023	15,003	952,854	533,276
-22,009	15,118	952,081	533,189
-20,994	15,060	951,548	532,685
-19,979	14,988	950,818	532,023
-18,965	15,047	950,288	531,895
-17,950	15,081	949,511	531,547
-16,936	14,992	948,884	530,890
-15,921	14,937	948,436	530,444
-14,906	14,855	947,651	529,722
-13,892	14,902	947,066	529,524
-12,877	14,940	946,267	529,179
-11,863	14,916	945,615	528,714
-10,848	14,966	945,229	528,639
-9,833	15,000	944,741	528,452
-8,819	15,027	944,023	528,115
-7,804	14,979	943,561	527,683
-6,790	14,974	942,835	527,240
-5,775	15,020	942,221	527,024
-4,760	15,008	941,505	526,564
-3,746	14,982	940,915	526,130
-2,731	14,778	940,418	525,186
-1,717	14,762	939,772	524,754
-0,702	14,823	938,888	524,432
0,313	14,546	938,448	524,104
1,327	17,894	936,093	533,282
2,342	26,933	792,895	475,610
3,356	23,658	457,993	269,701
4,371	-3,367	313,780	156,114
5,386	-7,366	295,643	143,039
6,400	-9,269	289,570	138,204
7,415	-9,602	287,079	136,675
8,429	-9,999	285,538	135,542
9,444	-10,064	284,674	135,056
10,459	-10,009	284,020	134,787
11,473	-10,082	283,420	134,420
12,488	-10,119	283,034	134,189
13,502	-10,074	282,269	133,858
14,517	-9,964	281,954	133,803
15,531	-10,187	281,424	133,325
16,546	-9,962	280,987	133,322
17,561	-10,140	280,710	133,008
18,575	-10,041	280,402	132,945
19,590	-10,262	280,075	132,567
20,604	-10,226	279,801	132,460
21,619	-10,087	279,397	132,389
22,634	-10,002	278,853	132,200
23,648	-10,229	278,690	131,895
24,663	-10,175	278,538	131,862
25,677	-10,257	278,331	131,675
26,692	-10,285	277,924	131,445
27,707	-10,234	277,656	131,355
28,721	-10,312	277,486	131,188
29,736	-10,318	277,197	131,034
30,750	-10,370	276,739	130,756
31,765	-10,259	276,563	130,767
32,780	-10,280	276,328	130,624
33,794	-10,353	276,190	130,478
34,809	-10,310	275,857	130,350
35,823	-10,047	275,491	130,412
36,838	-10,220	275,269	130,133
37,853	-10,231	275,046	130,006
38,867	-10,201	274,722	129,870
39,882	-10,183	274,546	129,792
40,896	-10,128	274,212	129,673
41,911	-10,264	274,095	129,480
42,926	-10,257	273,735	129,304
43,940	-10,419	273,677	129,114
44,955	-10,310	273,368	129,059
45,969	-10,411	273,054	128,805
46,984	-10,380	272,911	128,755
47,999	-10,758	272,669	128,277
49,013	-10,723	272,243	128,098
50,028	-10,816	272,028	127,899
51,042	-10,690	271,843	127,917
52,057	-10,718	271,424	127,684
53,071	-10,806	271,484	127,619
54,086	-10,735	271,326	127,599
55,101	-10,843	271,193	127,425
56,115	-10,466	270,967	127,655
57,130	-10,111	270,755	127,872
58,144	-9,992	270,460	127,831
59,159	-9,973	270,200	127,714
60,174	-10,137	270,037	127,475
61,188	-9,954	269,944	127,587
62,203	-9,873	269,513	127,446
63,217	-9,981	269,281	127,227
64,232	-10,050	269,231	127,129
65,247	-9,866	268,829	127,096
66,261	-9,981	268,679	126,909
67,276	-10,286	268,488	126,528
68,290	-10,377	268,101	126,251
69,305	-10,411	267,989	126,156
70,320	-10,376	267,752	126,065
71,334	-10,176	267,481	126,108
72,349	-10,118	267,388	126,107
73,363	-10,190	267,154	125,920
74,378	-10,087	267,045	125,951
75,393	-9,984	266,696	125,868
76,407	-10,157	266,636	125,671
77,422	-10,034	266,360	125,641
78,436	-10,055	266,174	125,523
79,451	-10,197	266,036	125,319
80,466	-10,162	265,537	125,104
81,480	-10,100	265,395	125,082
82,495	-10,360	265,267	124,777
83,509	-10,351	265,058	124,675
84,524	-10,250	264,738	124,604
85,539	-10,155	264,422	124,530
86,553	-10,342	264,215	124,252
87,568	-10,192	264,152	124,347
88,582	-10,436	264,055	124,071
89,597	-10,284	263,766	124,061
90,611	-10,241	263,709	124,061
91,626	-10,065	263,448	124,085
92,641	-9,933	263,145	124,049
93,655	-10,165	262,980	123,753
94,670	-10,009	262,657	123,730
95,684	-10,170	262,559	123,529
96,699	-10,076	262,386	123,520
97,714	-10,263	262,136	123,224
98,728	-10,232	261,938	123,148
99,743	-10,489	261,718	122,806
100,757	-10,390	261,373	122,720
101,772	-10,277	261,239	122,747
102,787	-10,359	261,152	122,623
103,801	-10,215	260,967	122,652
104,816	-10,223	260,842	122,576
105,830	-9,927	260,564	122,695
106,845	-10,166	260,461	122,425
107,860	-10,102	260,194	122,344
108,874	-9,936	259,994	122,386
109,889	-10,349	259,790	121,916
110,903	-10,158	259,595	121,981
111,918	-10,226	259,527	121,878
112,933	-10,180	259,343	121,822
113,947	-10,051	259,002	121,764
114,962	-10,216	259,005	121,610
115,976	-9,996	258,668	121,634
116,991	-10,037	258,475	121,496
118,006	-10,270	258,455	121,272
119,020	-10,127	258,351	121,337
120,035	-9,914	257,973	121,335
121,049	-9,958	257,854	121,230
122,064	-9,936	257,646	121,141
123,079	-10,030	257,476	120,968
124,093	-10,009	257,200	120,846
125,108	-10,252	256,945	120,503
126,122	-10,503	256,775	120,195
127,137	-10,624	256,496	119,948
128,151	-10,474	256,405	120,025
129,166	-10,425	256,316	120,015
130,181	-10,315	255,947	119,927
131,195	-10,457	255,683	119,670
132,210	-10,372	255,779	119,778
133,224	-10,102	255,389	119,818
134,239	-9,911	255,244	119,904
135,254	-10,134	255,000	119,586
136,268	-10,133	254,815	119,490
137,283	-10,433	254,607	119,123
138,297	-10,350	254,504	119,136
139,312	-10,499	254,283	118,893
140,327	-10,372	254,216	118,961
141,341	-9,983	254,068	119,215
142,356	-10,148	253,859	118,965
143,370	-9,854	253,718	119,141
144,385	-9,913	253,477	118,966
145,400	-9,913	253,420	118,929
146,414	-9,954	253,219	118,789
147,429	-9,803	252,881	118,749
148,443	-10,054	252,758	118,466
149,458	-9,840	252,553	118,541
150,473	-9,811	252,413	118,490
151,487	-9,935	252,096	118,226
152,502	-9,832	252,125	118,316
153,516	-10,016	252,021	118,100
154,531	-9,869	251,706	118,067
155,546	-10,000	251,360	117,783
156,560	-9,849	251,175	117,814
157,575	-10,010	250,930	117,552
158,589	-9,935	250,858	117,572
159,604	-10,093	250,753	117,378
160,619	-10,028	250,510	117,308
161,633	-9,863	250,357	117,366
162,648	-10,092	250,240	117,107
163,662	-9,660	250,088	117,390
164,677	-9,830	249,982	117,186
165,692	-9,828	249,732	117,061
166,706	-9,833	249,599	116,984
167,721	-9,840	249,321	116,837
168,735	-10,051	249,209	116,597
169,750	-9,702	249,159	116,856
170,764	-9,781	249,028	116,718
171,779	-9,741	248,775	116,622
172,794	-9,890	248,648	116,428
173,808	-9,805	248,366	116,357
174,823	-10,221	248,099	115,873
175,837	-10,270	247,848	115,704
176,852	-9,912	247,694	115,921
177,867	-9,605	247,786	116,210
178,881	-9,577	247,560	116,118
179,896	-9,711	247,510	115,972
180,910	-9,795	247,307	115,797
181,925	-9,657	247,111	115,809
182,940	-9,815	246,876	115,558
183,954	-9,743	246,774	115,560
184,969	-9,780	246,512	115,396
185,983	-9,696	246,330	115,369
186,998	-9,943	246,273	115,128
188,013	-9,895	246,094	115,073
189,027	-9,848	245,817	114,973
190,042	-9,803	245,685	114,938
191,056	-9,893	245,591	114,809
192,071	-9,845	245,387	114,743
193,086	-9,870	245,236	114,642
194,100	-9,641	245,012	114,716
195,115	-9,682	244,807	114,576
196,129	-9,747	244,791	114,505
197,144	-9,857	244,468	114,252
198,159	-9,793	244,317	114,225
199,173	-9,813	244,193	114,140
200,188	-9,807	244,029	114,059
201,202	-9,979	243,742	113,773
202,217	-10,319	243,487	113,365
203,232	-10,336	243,281	113,245
204,246	-10,048	243,359	113,507
205,261	-9,251	243,079	114,018
206,275	-9,592	243,072	113,726
207,290	-5,105	244,969	118,295
208,304	1,506	246,977	124,721
209,319	4,040	247,298	126,964
210,334	4,278	247,261	127,131
211,348	4,340	247,174	127,125
212,363	4,310	247,067	127,034
213,377	4,278	246,948	126,935
214,392	4,390	246,707	126,892
215,407	4,291	246,597	126,743
216,421	4,353	246,516	126,741
217,436	4,531	246,218	126,722
218,450	4,157	246,128	126,358
219,465	4,172	245,781	126,181
220,480	4,064	245,621	126,000
221,494	3,803	245,396	125,659
222,509	3,924	245,211	125,652
223,523	3,972	245,252	125,701
224,538	4,173	244,870	125,658
225,553	3,721	244,744	125,214
226,567	3,865	244,627	125,260
227,582	3,886	244,509	125,205
228,596	3,722	244,318	124,963
229,611	3,950	244,040	124,995
230,626	3,901	243,910	124,878
231,640	3,857	243,583	124,663
232,655	3,938	243,753	124,805
233,669	3,578	243,550	124,398
234,684	3,527	243,382	124,259
235,699	3,865	243,207	124,433
236,713	3,982	243,143	124,484
237,728	3,886	242,815	124,227
238,742	3,791	242,543	124,000
239,757	3,683	242,367	123,812
240,772	3,762	242,503	123,935
241,786	3,840	242,223	123,843
242,801	3,433	242,067	123,424
243,815	3,946	241,842	123,712
244,830	3,854	241,856	123,633
245,844	3,945	241,577	123,553
246,859	3,800	241,423	123,347
247,874	3,891	241,274	123,332
248,888	3,897	241,124	123,250
249,903	4,084	241,137	123,395
250,917	3,972	240,968	123,208
251,932	3,799	240,785	122,965
252,947	3,904	240,674	122,982
253,961	3,665	240,311	122,594
254,976	3,728	240,165	122,559
255,990	3,884	239,943	122,559
257,005	3,773	239,888	122,432
258,020	3,598	239,737	122,204
259,034	3,871	239,569	122,325
260,049	3,792	239,305	122,116
261,063	3,877	239,229	122,134
262,078	3,668	239,208	121,947
263,093	3,935	239,104	122,095
264,107	4,006	238,728	121,948
265,122	3,857	238,604	121,756
266,136	3,962	238,611	121,832
267,151	3,885	238,517	121,712
268,166	4,015	238,144	121,614
269,180	3,870	238,113	121,473
270,195	3,929	237,960	121,430
271,209	3,891	237,818	121,317
272,224	3,662	237,592	121,010
273,239	3,595	237,443	120,871
274,253	3,840	237,204	120,931
275,268	3,797	237,115	120,841
276,282	3,763	236,878	120,683
277,297	3,783	236,781	120,638
278,312	3,896	236,587	120,618
279,326	3,759	236,587	120,499
280,341	3,722	236,411	120,370
281,355	3,628	236,290	120,223
282,370	3,642	236,153	120,154
283,384	3,796	235,847	120,109
284,399	3,545	235,904	119,930
285,414	3,593	235,643	119,824
286,428	3,701	235,429	119,789
287,443	3,890	235,346	119,883
288,457	3,946	235,183	119,834
289,472	3,673	234,995	119,515
290,487	3,630	234,832	119,388
291,501	3,602	234,640	119,258
292,516	3,543	234,480	119,120
293,530	3,553	234,482	119,118
294,545	3,770	234,375	119,222
295,560	3,912	234,152	119,207
296,574	3,876	233,984	119,083
297,589	3,995	233,805	119,073
298,603	3,917	233,830	119,016
299,618	4,218	233,500	119,070
300,633	3,927	233,323	118,744
301,647	3,983	233,291	118,760
302,662	4,273	233,195	118,925
303,676	4,262	233,105	118,860
304,691	4,073	232,871	118,584
305,706	3,992	232,699	118,424
306,720	4,173	232,469	118,435
307,735	3,946	232,391	118,210
308,749	3,572	232,282	117,857
309,764	3,661	232,049	117,796
310,779	3,493	231,846	117,555
311,793	3,367	231,770	117,408
312,808	3,742	231,439	117,518
313,822	3,525	231,266	117,253
314,837	3,577	231,099	117,198
315,852	3,790	231,168	117,385
316,866	3,815	231,210	117,415
317,881	3,916	230,940	117,345
318,895	4,084	230,690	117,336
319,910	3,815	230,711	117,130
320,925	3,799	230,426	116,963
321,939	4,028	230,305	117,066
322,954	4,194	230,264	117,161
323,968	3,989	229,989	116,855
324,983	3,880	229,946	116,739
325,997	4,102	229,655	116,750
327,012	4,019	229,626	116,661
328,027	3,982	229,542	116,580
329,041	4,341	229,417	116,778
330,056	4,617	229,264	116,899
331,070	4,232	229,269	116,600
332,085	4,056	228,909	116,273
333,100	4,074	228,755	116,198
334,114	4,064	228,596	116,100
335,129	4,265	228,440	116,161
336,143	4,298	228,327	116,119
337,158	4,202	228,165	115,953
338,173	4,110	228,027	115,804
339,187	3,913	228,016	115,639
340,202	3,996	227,705	115,534
341,216	4,060	227,594	115,516
342,231	3,936	227,454	115,341
343,246	3,924	227,273	115,230
344,260	4,340	227,137	115,462
345,275	4,211	227,161	115,367
346,289	4,138	226,855	115,147
347,304	4,077	226,796	115,061
348,319	3,974	226,574	114,862
349,333	3,582	226,413	114,477
350,348	3,661	226,214	114,425
351,362	3,700	226,084	114,379
352,377	3,502	225,842	114,098
353,392	3,440	225,660	113,950
354,406	3,368	225,564	113,838
355,421	195,053	1322,403	1397,419
356,435	156,311	1456,033	1397,409
