DTS Sentinel unit serial number:	SN410029Multiplexer serial number:	ORYXHardware model number:	OX2-SRSoftware version number:	ORYX F/W v4,00 Oryx Data Collector v3.7.2.0data status	okinstallation	B5 Nyhavnadifferential loss correction	single-endedforward channel	channel 2reverse channel	N/Adate	2023/12/13time	06:42:13forward acquisition time	300,00reverse acquisition time	0,00gamma	499,1914k internal	0,3160k external	0,3160temperature offset calibration	1,0000default loss term (dB/km)	0,3820temperature slope calibration	1,0000multiplexer offset coefficient	1,0000multiplexer slope coefficient	1,0000fibre end	0,00T internal ref (°C)	13,75T ext. ref 1 (°C)	-2,73T ext. ref 2 (°C)	-3,05length (m)	temperature (°C)	Stokes	anti-Stokes-744,400	-131,112	0,157	0,015
-743,385	-27,256	-0,347	-0,148
-742,371	-200,000	-0,016	0,149
-741,356	29,920	-0,262	0,164
-740,342	175,119	0,085	0,091
-739,327	-149,880	-0,304	-0,017
-738,312	83,004	0,007	-0,006
-737,298	18,301	-0,252	0,148
-736,283	-126,648	0,107	-0,012
-735,269	-123,254	-0,308	0,036
-734,254	2,595	0,160	0,085
-733,239	-27,394	-0,447	-0,191
-732,225	9,959	0,120	0,067
-731,210	63,288	0,055	-0,040
-730,196	-200,000	0,001	0,065
-729,181	800,000	0,040	-0,115
-728,167	674,379	-0,013	-0,024
-727,152	-200,000	-0,001	-0,155
-726,137	1,918	-0,200	-0,106
-725,123	-122,149	-0,057	0,007
-724,108	363,693	-0,054	0,081
-723,094	606,321	-0,066	-0,122
-722,079	275,424	-0,009	0,012
-721,064	-200,000	0,028	-0,095
-720,050	-60,388	0,058	0,018
-719,035	258,062	-0,083	-0,106
-718,021	-200,000	-0,009	0,049
-717,006	-3,397	-0,206	-0,105
-715,991	-70,812	0,081	0,022
-714,977	-200,000	-0,010	-0,088
-713,962	-200,000	-0,008	0,076
-712,948	-59,164	-0,048	0,015
-711,933	67,200	0,018	-0,013
-710,918	34,837	-0,122	0,079
-709,904	-109,926	-0,109	-0,017
-708,889	-172,346	-0,120	-0,003
-707,875	-6,751	-0,165	-0,082
-706,860	800,000	-0,008	-0,021
-705,845	-154,460	0,145	0,007
-704,831	-200,000	0,018	0,094
-703,816	-200,000	-0,006	-0,037
-702,802	51,656	-0,071	-0,050
-701,787	-65,009	-0,111	0,033
-700,772	-38,001	0,086	0,033
-699,758	21,550	-0,142	0,085
-698,743	800,000	0,028	0,085
-697,729	284,461	0,126	0,167
-696,714	-200,000	-0,003	0,064
-695,699	-200,000	0,013	-0,132
-694,685	41,728	0,110	-0,073
-693,670	-102,737	-0,113	0,020
-692,656	-200,000	-0,031	-0,107
-691,641	122,270	0,067	-0,061
-690,627	179,735	0,127	0,137
-689,612	196,327	0,045	-0,051
-688,597	16,233	-0,056	-0,033
-687,583	-59,716	0,102	-0,032
-686,568	57,826	0,100	-0,072
-685,554	49,696	-0,083	-0,058
-684,539	800,000	0,057	0,131
-683,524	-200,000	-0,004	0,093
-682,510	-200,000	0,001	0,047
-681,495	800,000	0,017	0,049
-680,481	800,000	-0,034	0,103
-679,466	2,082	-0,098	0,052
-678,451	-200,000	-0,007	-0,063
-677,437	-200,000	-0,017	0,090
-676,422	314,198	-0,029	0,040
-675,408	-200,000	-0,001	0,064
-674,393	-155,560	0,096	0,004
-673,378	800,000	0,051	-0,136
-672,364	-62,636	-0,089	0,027
-671,349	-200,000	0,022	0,111
-670,335	800,000	0,043	-0,108
-669,320	325,942	0,025	0,035
-668,305	381,595	-0,020	-0,030
-667,291	106,281	0,007	0,006
-666,276	338,569	-0,017	0,025
-665,262	-200,000	-0,014	-0,076
-664,247	122,249	-0,133	-0,122
-663,232	284,097	-0,057	-0,076
-662,218	-130,666	0,062	0,006
-661,203	-200,000	0,013	-0,079
-660,189	494,715	0,048	-0,082
-659,174	-89,260	0,167	-0,036
-658,159	-179,886	-0,180	-0,003
-657,145	800,000	-0,051	0,124
-656,130	300,531	-0,009	-0,012
-655,116	364,267	0,115	0,170
-654,101	800,000	-0,014	-0,041
-653,086	-103,389	-0,105	-0,018
-652,072	165,542	0,169	0,176
-651,057	398,331	-0,072	-0,111
-650,043	-200,000	-0,012	-0,092
-649,028	-200,000	-0,008	0,030
-648,014	-40,951	0,019	-0,007
-646,999	-126,165	-0,051	0,006
-645,984	-128,823	-0,056	0,006
-644,970	616,242	-0,051	0,094
-643,955	328,005	-0,074	0,105
-642,941	-74,442	0,145	-0,038
-641,926	659,084	0,015	0,029
-640,911	-13,673	-0,025	0,012
-639,897	425,477	-0,055	-0,087
-638,882	-200,000	0,005	-0,152
-637,868	135,001	-0,058	-0,055
-636,853	-93,700	-0,171	0,034
-635,838	-97,310	-0,086	0,016
-634,824	145,733	-0,052	-0,051
-633,809	150,398	0,067	-0,066
-632,795	92,345	-0,039	0,032
-631,780	76,943	0,099	0,077
-630,765	47,920	0,074	0,050
-629,751	-200,000	0,025	0,155
-628,736	200,401	-0,027	-0,031
-627,722	-41,495	0,145	0,055
-626,707	362,801	0,063	0,093
-625,692	140,875	-0,046	0,045
-624,678	-117,880	-0,082	-0,011
-623,663	402,586	0,046	0,072
-622,649	-34,826	-0,107	0,043
-621,634	171,391	0,053	-0,055
-620,619	288,842	-0,055	0,073
-619,605	-75,933	0,048	-0,012
-618,590	70,637	-0,137	0,104
-617,576	-200,000	0,045	0,207
-616,561	-200,000	-0,001	-0,110
-615,546	-104,468	-0,245	-0,041
-614,532	9,800	-0,103	-0,057
-613,517	83,617	-0,032	-0,026
-612,503	-45,768	0,117	-0,042
-611,488	16,678	-0,101	0,058
-610,474	-45,874	-0,075	-0,027
-609,459	360,593	-0,053	0,077
-608,444	208,416	-0,076	0,087
-607,430	-52,555	0,087	-0,029
-606,415	20,439	0,094	-0,055
-605,401	517,154	0,084	-0,144
-604,386	-200,000	0,002	-0,034
-603,371	365,907	0,060	0,089
-602,357	121,265	-0,044	-0,040
-601,342	97,123	-0,028	0,024
-600,328	-27,854	-0,043	0,018
-599,313	-200,000	-0,006	0,055
-598,298	800,000	0,048	0,122
-597,284	-200,000	0,013	0,151
-596,269	-200,000	0,004	-0,034
-595,255	-4,858	0,091	0,046
-594,240	6,633	-0,062	0,034
-593,225	-200,000	-0,007	-0,122
-592,211	329,929	-0,081	-0,115
-591,196	-49,867	-0,046	0,016
-590,182	-55,996	0,103	0,033
-589,167	-57,450	0,074	0,024
-588,152	800,000	0,018	-0,052
-587,138	800,000	-0,030	0,066
-586,123	-200,000	-0,014	0,094
-585,109	143,690	0,063	-0,062
-584,094	-30,109	-0,086	-0,036
-583,079	583,534	-0,043	-0,078
-582,065	800,000	-0,020	0,056
-581,050	236,015	0,007	-0,009
-580,036	-78,662	0,145	-0,036
-579,021	254,963	0,031	0,039
-578,006	-200,000	-0,024	-0,093
-576,992	-200,000	0,027	-0,103
-575,977	800,000	-0,013	0,041
-574,963	123,147	-0,031	0,029
-573,948	-200,000	-0,007	0,034
-572,934	31,978	0,183	-0,115
-571,919	428,496	-0,055	-0,087
-570,904	800,000	0,026	-0,070
-569,890	-200,000	-0,001	-0,022
-568,875	800,000	0,032	0,082
-567,861	155,472	0,021	-0,021
-566,846	-200,000	0,002	0,126
-565,831	-200,000	0,012	-0,082
-564,817	-182,953	0,047	-0,001
-563,802	800,000	-0,003	0,008
-562,788	800,000	0,013	-0,039
-561,773	-200,000	0,024	0,107
-560,758	143,360	0,059	0,058
-559,744	229,406	-0,114	0,136
-558,729	-49,918	0,030	0,010
-557,715	-18,392	-0,097	0,044
-556,700	800,000	-0,040	-0,093
-555,685	-4,522	-0,093	-0,047
-554,671	-200,000	0,004	0,088
-553,656	-190,586	-0,100	0,001
-552,642	800,000	0,058	0,118
-551,627	-67,009	0,085	0,024
-550,612	-132,720	-0,118	0,011
-549,598	248,054	-0,048	-0,059
-548,583	-28,484	-0,020	-0,008
-547,569	-200,000	-0,006	-0,036
-546,554	-200,000	0,002	0,015
-545,539	87,350	0,077	0,062
-544,525	-200,000	0,013	0,119
-543,510	-100,082	-0,161	-0,029
-542,496	545,348	-0,059	-0,103
-541,481	-140,391	-0,058	0,004
-540,466	489,295	0,084	-0,141
-539,452	448,122	0,047	-0,076
-538,437	800,000	-0,032	0,069
-537,423	345,851	-0,037	0,053
-536,408	-78,325	0,090	0,023
-535,393	-120,589	-0,085	-0,010
-534,379	248,504	0,107	-0,132
-533,364	595,166	-0,049	-0,089
-532,350	-200,000	-0,002	-0,070
-531,335	-200,000	-0,023	0,089
-530,321	427,688	-0,058	-0,092
-529,306	-57,828	-0,110	0,035
-528,291	165,874	0,028	0,029
-527,277	-200,000	-0,034	-0,169
-526,262	-84,586	-0,117	0,027
-525,248	422,120	0,039	0,062
-524,233	-200,000	-0,023	0,105
-523,218	61,049	0,114	0,083
-522,204	-35,591	0,092	0,036
-521,189	-45,070	-0,073	-0,026
-520,175	654,930	-0,019	-0,035
-519,160	-200,000	0,016	-0,056
-518,145	149,529	0,064	-0,063
-517,131	-32,256	-0,040	0,016
-516,116	349,144	0,048	0,070
-515,102	88,425	0,119	0,096
-514,087	-200,000	-0,032	0,200
-513,072	-200,000	0,012	-0,128
-512,058	654,524	0,045	-0,084
-511,043	-66,887	-0,077	0,022
-510,029	-98,698	0,113	-0,021
-509,014	49,934	0,052	-0,036
-507,999	80,056	0,044	0,035
-506,985	75,391	-0,012	0,009
-505,970	-28,106	-0,099	-0,042
-504,956	800,000	-0,036	0,082
-503,941	710,586	0,052	0,100
-502,926	177,818	0,079	0,084
-501,912	800,000	-0,017	0,038
-500,897	135,120	0,051	0,048
-499,883	83,941	-0,056	-0,045
-498,868	5,929	0,075	-0,040
-497,853	502,787	-0,089	-0,151
-496,839	-62,773	0,036	0,011
-495,824	30,917	-0,063	0,039
-494,810	-132,712	0,046	-0,004
-493,795	800,000	-0,026	-0,081
-492,781	-62,522	-0,058	-0,017
-491,766	800,000	0,044	-0,133
-490,751	800,000	-0,005	0,013
-489,737	-200,000	-0,022	-0,113
-488,722	-73,618	0,212	0,056
-487,708	5,278	0,083	-0,044
-486,693	-200,000	-0,007	0,047
-485,678	599,752	0,062	0,113
-484,664	-111,156	-0,148	0,022
-483,649	-25,195	0,067	0,029
-482,635	-15,805	0,084	-0,039
-481,620	-200,000	0,010	-0,108
-480,605	367,941	0,074	-0,109
-479,591	-92,526	0,015	-0,003
-478,576	-107,535	-0,046	-0,007
-477,562	800,000	-0,051	-0,160
-476,547	168,231	-0,043	0,045
-475,532	-65,756	0,076	0,022
-474,518	-143,563	0,035	0,002
-473,503	-188,869	-0,119	0,001
-472,489	-200,000	0,001	0,090
-471,474	199,366	0,106	-0,119
-470,459	310,507	-0,033	-0,045
-469,445	-200,000	0,004	-0,013
-468,430	-200,000	0,004	-0,118
-467,416	-200,000	-0,020	0,075
-466,401	-200,000	0,026	0,115
-465,386	71,805	-0,068	0,052
-464,372	182,330	0,025	-0,027
-463,357	218,491	0,049	-0,057
-462,343	-200,000	0,047	-0,260
-461,328	-11,335	-0,070	0,033
-460,313	-24,301	0,098	0,042
-459,299	800,000	0,049	0,120
-458,284	43,607	-0,043	-0,028
-457,270	-200,000	-0,007	-0,121
-456,255	800,000	-0,028	-0,090
-455,241	-200,000	-0,030	-0,212
-454,226	2,193	0,076	0,040
-453,211	741,578	-0,030	-0,059
-452,197	277,894	0,081	-0,106
-451,182	800,000	0,020	0,059
-450,168	-200,000	-0,001	0,086
-449,153	24,318	-0,053	0,032
-448,138	26,495	-0,035	-0,021
-447,124	161,057	-0,030	-0,031
-446,109	158,773	-0,064	-0,064
-445,095	-200,000	0,016	-0,093
-444,080	-200,000	0,014	0,072
-443,065	88,400	-0,057	0,046
-442,051	-112,940	-0,018	-0,003
-441,036	635,954	-0,067	-0,125
-440,022	-47,781	-0,044	0,016
-439,007	0,457	0,077	-0,040
-437,992	71,417	0,064	-0,048
-436,978	-97,449	0,083	-0,016
-435,963	-200,000	0,007	0,200
-434,949	52,714	-0,066	0,046
-433,934	-106,542	-0,012	0,002
-432,919	800,000	-0,034	-0,090
-431,905	379,249	-0,025	-0,037
-430,890	-200,000	-0,025	0,093
-429,876	800,000	0,046	-0,122
-428,861	-200,000	0,026	0,105
-427,846	-200,000	0,014	-0,072
-426,832	421,855	-0,034	-0,053
-425,817	-47,370	-0,116	0,041
-424,803	119,510	0,034	0,031
-423,788	436,803	-0,031	-0,049
-422,773	-81,066	0,143	0,034
-421,759	594,077	-0,011	0,020
-420,744	800,000	-0,036	0,091
-419,730	2,090	-0,094	0,049
-418,715	86,283	-0,039	0,031
-417,701	-137,778	0,095	0,008
-416,686	800,000	-0,054	0,120
-415,671	341,394	0,067	-0,095
-414,657	57,018	0,033	-0,023
-413,642	162,122	0,025	-0,025
-412,628	-145,844	-0,055	-0,004
-411,613	-0,218	0,106	-0,054
-410,598	204,704	-0,028	-0,032
-409,584	121,369	0,105	0,095
-408,569	206,325	0,029	0,033
-407,555	-43,962	0,117	-0,043
-406,540	-200,000	0,002	-0,051
-405,525	262,842	-0,071	0,089
-404,511	444,020	0,057	-0,092
-403,496	148,450	-0,053	0,052
-402,482	24,451	-0,051	-0,030
-401,467	-23,682	0,119	-0,052
-400,452	202,361	-0,025	0,028
-399,438	-144,026	-0,050	0,003
-398,423	-178,199	-0,113	-0,002
-397,409	800,000	-0,018	-0,045
-396,394	-195,523	-0,010	0,000
-395,379	-200,000	0,015	0,111
-394,365	-95,659	-0,085	-0,016
-393,350	-83,143	0,031	0,007
-392,336	-200,000	-0,004	0,037
-391,321	-200,000	-0,017	0,106
-390,306	800,000	-0,016	-0,047
-389,292	-109,709	0,084	-0,013
-388,277	101,540	0,127	-0,108
-387,263	-115,220	0,100	0,014
-386,248	-200,000	0,001	0,211
-385,233	-200,000	0,020	0,128
-384,219	2,081	0,024	0,013
-383,204	-200,000	-0,016	-0,084
-382,190	-200,000	0,005	-0,101
-381,175	244,900	-0,075	0,091
-380,160	530,522	-0,077	0,132
-379,146	-58,612	0,159	0,050
-378,131	340,985	-0,015	0,021
-377,117	-200,000	0,003	-0,025
-376,102	-176,051	-0,089	-0,002
-375,088	-200,000	-0,011	-0,039
-374,073	281,184	-0,046	0,060
-373,058	31,979	0,087	0,054
-372,044	677,455	-0,038	0,072
-371,029	72,653	0,081	-0,062
-370,015	800,000	0,030	0,082
-369,000	-71,277	-0,071	0,019
-367,985	-88,453	0,096	-0,021
-366,971	585,508	-0,082	0,147
-365,956	-143,549	0,023	-0,002
-364,942	28,679	0,085	-0,052
-363,927	800,000	-0,026	0,073
-362,912	142,670	0,096	-0,093
-361,898	198,532	-0,044	-0,049
-360,883	-176,810	0,131	-0,002
-359,869	356,395	-0,047	0,068
-358,854	800,000	0,039	-0,101
-357,839	375,021	-0,050	0,074
-356,825	-157,567	0,064	0,003
-355,810	137,956	-0,066	0,063
-354,796	0,688	-0,089	-0,046
-353,781	-71,652	-0,066	0,018
-352,766	-163,978	0,144	0,005
-351,752	371,458	-0,082	0,121
-350,737	20,831	0,126	0,074
-349,723	150,718	-0,048	0,047
-348,708	-47,450	0,048	-0,017
-347,693	24,319	0,056	-0,034
-346,679	-200,000	0,008	-0,038
-345,664	-200,000	0,040	-0,134
-344,650	800,000	-0,028	-0,081
-343,635	-200,000	0,085	0,000
-342,620	800,000	0,072	0,167
-341,606	105,336	0,034	-0,029
-340,591	800,000	0,027	0,061
-339,577	800,000	-0,013	0,028
-338,562	-57,724	0,022	0,007
-337,548	-200,000	0,001	-0,040
-336,533	32,617	0,149	0,094
-335,518	-4,545	0,168	0,084
-334,504	-25,924	-0,058	0,025
-333,489	-200,000	0,035	0,154
-332,475	97,523	-0,112	0,093
-331,460	81,278	-0,072	0,056
-330,445	98,232	0,164	-0,136
-329,431	-113,151	0,126	0,018
-328,416	800,000	-0,045	-0,109
-327,402	-130,128	-0,076	-0,007
-326,387	-103,366	0,087	-0,015
-325,372	-67,620	-0,127	-0,036
-324,358	-60,498	-0,067	-0,021
-323,343	-200,000	-0,003	-0,052
-322,329	135,059	-0,087	-0,082
-321,314	-3,057	0,058	0,029
-320,299	102,227	-0,086	0,073
-319,285	-59,867	-0,085	-0,026
-318,270	-167,279	0,038	0,001
-317,256	-58,419	-0,128	-0,040
-316,241	407,697	-0,047	-0,072
-315,226	800,000	0,020	0,057
-314,212	-200,000	-0,002	0,049
-313,197	39,154	-0,107	-0,069
-312,183	128,419	-0,090	0,083
-311,168	526,925	-0,032	-0,054
-310,153	-200,000	-0,014	-0,132
-309,139	-32,022	0,066	-0,027
-308,124	-200,000	-0,002	0,040
-307,110	24,681	0,071	0,042
-306,095	800,000	-0,011	0,026
-305,080	-6,101	0,012	-0,006
-304,066	-42,015	-0,046	-0,017
-303,051	-200,000	-0,050	-0,184
-302,037	85,206	-0,040	0,032
-301,022	800,000	-0,028	0,074
-300,008	-200,000	0,023	0,169
-298,993	-13,407	0,070	-0,033
-297,978	-5,178	-0,121	0,060
-296,964	9,699	0,083	-0,045
-295,949	170,661	-0,040	-0,042
-294,935	644,181	-0,057	-0,107
-293,920	-10,628	-0,019	-0,009
-292,905	-45,804	-0,079	-0,028
-291,891	609,360	-0,036	-0,065
-290,876	-116,854	-0,091	-0,012
-289,862	800,000	0,042	-0,123
-288,847	97,839	-0,084	-0,069
-287,832	-200,000	0,003	-0,052
-286,818	-200,000	0,041	-0,152
-285,803	800,000	-0,074	-0,170
-284,789	-200,000	0,006	0,097
-283,774	800,000	0,021	0,059
-282,759	240,881	-0,056	-0,068
-281,745	-43,455	-0,086	0,031
-280,730	352,065	-0,064	-0,092
-279,716	800,000	-0,023	-0,069
-278,701	25,560	0,088	0,053
-277,686	180,153	0,129	0,137
-276,672	800,000	0,053	-0,141
-275,657	-200,000	-0,006	-0,169
-274,643	74,732	-0,097	-0,074
-273,628	-76,651	-0,164	0,041
-272,613	-176,707	0,092	0,002
-271,599	800,000	-0,030	0,065
-270,584	-200,000	0,001	-0,039
-269,570	470,298	0,038	0,062
-268,555	-31,893	-0,102	0,041
-267,540	-120,382	-0,154	-0,019
-266,526	589,725	-0,043	0,077
-265,511	-121,351	0,095	0,011
-264,497	-200,000	-0,009	-0,044
-263,482	462,979	0,008	-0,014
-262,467	237,656	0,034	-0,041
-261,453	263,361	-0,006	0,008
-260,438	268,864	0,032	0,041
-259,424	-200,000	-0,008	-0,069
-258,409	-77,302	-0,085	0,021
-257,395	305,162	0,156	0,210
-256,380	-200,000	0,017	0,057
-255,365	11,472	-0,079	0,044
-254,351	68,399	-0,076	0,057
-253,336	-200,000	-0,035	0,118
-252,322	561,377	0,073	-0,128
-251,307	-58,881	-0,072	0,022
-250,292	-20,912	0,036	-0,016
-249,278	124,316	0,081	0,073
-248,263	38,017	0,021	0,014
-247,249	10,849	0,103	-0,057
-246,234	747,288	-0,033	-0,064
-245,219	24,968	-0,105	-0,063
-244,205	-200,000	0,035	-0,159
-243,190	137,632	0,141	0,133
-242,176	-33,298	0,150	0,060
-241,161	186,552	-0,082	0,088
-240,146	-34,578	0,097	0,038
-239,132	217,908	-0,025	-0,028
-238,117	-127,545	-0,032	0,003
-237,103	800,000	0,055	-0,144
-236,088	-200,000	0,015	-0,056
-235,073	-31,955	0,213	-0,086
-234,059	800,000	0,022	0,044
-233,044	-200,000	0,020	-0,091
-232,030	-25,752	0,062	0,026
-231,015	-200,000	-0,022	0,105
-230,000	64,406	-0,076	-0,055
-228,986	-79,279	-0,162	-0,039
-227,971	-200,000	0,003	0,070
-226,957	-200,000	0,033	-0,108
-225,942	-200,000	0,014	0,058
-224,927	65,499	0,120	0,088
-223,913	-139,906	-0,095	0,007
-222,898	-200,000	0,045	-0,179
-221,884	20,606	0,073	0,042
-220,869	800,000	0,056	-0,144
-219,855	240,956	-0,025	0,030
-218,840	20,009	-0,008	0,005
-217,825	502,036	0,008	-0,014
-216,811	800,000	-0,025	0,073
-215,796	636,297	-0,008	0,015
-214,782	-200,000	-0,006	-0,058
-213,767	-63,601	0,045	0,013
-212,752	173,490	0,025	-0,026
-211,738	-94,258	0,249	-0,049
-210,723	-67,062	-0,081	-0,023
-209,709	622,725	-0,009	-0,016
-208,694	68,338	-0,100	0,074
-207,679	5,704	-0,037	-0,020
-206,665	-122,729	-0,035	-0,004
-205,650	-200,000	-0,034	0,166
-204,636	15,974	0,070	-0,040
-203,621	148,304	0,043	0,042
-202,606	-2,428	-0,078	0,039
-201,592	800,000	-0,038	-0,090
-200,577	41,233	-0,027	0,018
-199,563	169,135	0,064	0,066
-198,548	88,969	0,059	0,047
-197,533	800,000	0,068	0,141
-196,519	289,982	0,047	-0,062
-195,504	-58,069	-0,090	0,028
-194,490	112,923	0,049	0,043
-193,475	-85,816	-0,102	-0,023
-192,460	253,788	0,092	0,114
-191,446	-36,044	-0,016	-0,006
-190,431	-116,856	0,117	-0,015
-189,417	-147,704	-0,099	-0,006
-188,402	-35,028	0,049	-0,019
-187,387	57,497	-0,136	0,096
-186,373	-92,538	-0,059	0,012
-185,358	406,797	-0,019	-0,030
-184,344	-110,176	-0,158	-0,024
-183,329	-40,191	0,152	-0,057
-182,315	736,339	-0,061	0,118
-181,300	-82,904	-0,136	-0,031
-180,285	-200,000	0,018	0,087
-179,271	800,000	0,017	0,047
-178,256	-126,947	0,036	0,004
-177,242	-153,808	0,117	-0,006
-176,227	-200,000	-0,011	0,070
-175,212	-38,822	0,077	0,029
-174,198	-200,000	0,017	-0,131
-173,183	-130,149	-0,053	-0,005
-172,169	58,716	-0,070	-0,050
-171,154	345,174	0,060	-0,086
-170,139	68,390	0,012	0,009
-169,125	-200,000	0,005	-0,028
-168,110	153,411	-0,062	0,061
-167,096	800,000	0,044	0,092
-166,081	90,007	-0,043	-0,035
-165,066	42,730	-0,113	-0,074
-164,052	274,769	0,082	-0,105
-163,037	341,973	0,044	0,062
-162,023	-200,000	0,003	-0,028
-161,008	8,436	-0,109	-0,059
-159,993	298,126	-0,053	0,071
-158,979	99,830	0,062	0,052
-157,964	-105,498	-0,069	-0,011
-156,950	-200,000	0,045	-0,182
-155,935	-200,000	0,000	-0,099
-154,920	36,597	0,035	0,023
-153,906	800,000	0,006	0,015
-152,891	-80,196	-0,066	0,016
-151,877	-120,849	-0,125	-0,015
-150,862	568,097	0,058	0,102
-149,847	800,000	-0,098	-0,197
-148,833	-200,000	-0,016	-0,100
-147,818	0,276	0,148	0,076
-146,804	9,448	0,108	0,059
-145,789	281,309	0,044	-0,056
-144,775	6,586	0,023	-0,012
-143,760	44,075	0,049	-0,032
-142,745	-2,893	-0,138	-0,069
-141,731	-200,000	-0,008	0,124
-140,716	800,000	0,038	-0,079
-139,702	-200,000	-0,014	0,112
-138,687	10,463	0,042	0,023
-137,672	393,490	0,052	0,078
-136,658	28,564	-0,102	-0,062
-135,643	800,000	0,005	-0,016
-134,629	197,102	-0,148	-0,162
-133,614	-200,000	-0,015	0,097
-132,599	-200,000	0,010	0,205
-131,585	800,000	0,076	0,151
-130,570	-200,000	0,084	0,272
-129,556	-151,193	-0,161	0,009
-128,541	-200,000	-0,003	-0,105
-127,526	-200,000	0,018	0,068
-126,512	-200,000	-0,027	0,146
-125,497	-16,729	0,062	0,028
-124,483	-127,476	0,105	-0,011
-123,468	32,967	-0,084	-0,052
-122,453	498,125	0,012	0,021
-121,439	800,000	0,057	0,145
-120,424	-200,000	0,011	0,079
-119,410	-200,000	0,001	0,042
-118,395	222,521	-0,070	0,082
-117,380	255,025	-0,054	0,067
-116,366	176,531	-0,090	-0,094
-115,351	349,229	-0,092	0,131
-114,337	206,913	-0,031	0,035
-113,322	-200,000	0,013	-0,071
-112,307	-57,780	0,175	0,055
-111,293	26,261	0,077	0,046
-110,278	11,448	-0,085	0,047
-109,264	331,359	0,047	0,065
-108,249	-200,000	0,018	-0,096
-107,234	-49,610	-0,024	0,008
-106,220	12,132	0,084	0,046
-105,205	433,529	-0,024	-0,037
-104,191	800,000	0,033	-0,081
-103,176	-56,230	-0,037	-0,012
-102,162	-200,000	0,015	-0,055
-101,147	-200,000	0,007	-0,051
-100,132	-49,167	0,061	0,021
-99,118	-200,000	0,001	-0,048
-98,103	108,784	0,058	0,050
-97,089	800,000	0,022	-0,059
-96,074	800,000	0,011	0,025
-95,059	64,330	0,032	0,023
-94,045	-49,130	0,060	0,021
-93,030	-200,000	0,011	0,054
-92,016	56,257	-0,084	-0,058
-91,001	-76,225	-0,114	0,029
-89,986	-5,310	0,023	-0,011
-88,972	107,861	0,014	-0,012
-87,957	472,419	-0,105	0,170
-86,943	67,356	0,044	-0,032
-85,928	-200,000	-0,000	-0,030
-84,913	221,506	-0,086	0,100
-83,899	101,695	-0,021	-0,018
-82,884	800,000	0,063	0,153
-81,870	751,809	0,117	0,228
-80,855	327,552	0,069	0,095
-79,840	-88,517	-0,138	0,029
-78,826	800,000	-0,022	0,059
-77,811	-200,000	0,015	-0,075
-76,797	-36,329	0,033	0,013
-75,782	137,341	0,084	-0,079
-74,767	48,936	0,130	0,087
-73,753	-32,757	0,054	0,021
-72,738	-200,000	-0,013	-0,064
-71,724	-2,098	-0,038	-0,019
-70,709	800,000	0,065	-0,203
-69,694	-50,217	-0,130	-0,044
-68,680	-107,199	0,135	0,021
-67,665	-200,000	-0,012	0,062
-66,651	-13,654	-0,068	-0,031
-65,636	185,820	0,077	-0,082
-64,622	138,920	0,050	-0,047
-63,607	-200,000	-0,020	-0,093
-62,592	-200,000	0,007	0,125
-61,578	708,231	0,058	-0,111
-60,563	800,000	-0,042	0,112
-59,549	-100,637	0,052	0,009
-58,534	18,526	-2,149	-1,229
-57,519	-200,000	-0,054	-0,810
-56,505	-200,000	-1,380	-5,077
-55,490	107,854	0,922	0,788
-54,476	800,000	5,328	11,967
-53,461	-200,000	18,693	316,672
-52,446	800,000	741,553	2332,805
-51,432	558,640	1657,062	2878,785
-50,417	111,148	1640,832	1417,164
-49,403	75,459	1290,824	976,007
-48,388	30,418	1031,276	630,480
-47,373	19,949	994,064	573,040
-46,359	17,499	981,536	557,731
-45,344	14,142	977,825	544,561
-44,330	14,446	976,130	544,595
-43,315	13,813	974,429	541,547
-42,300	13,749	973,337	540,708
-41,286	13,744	972,418	540,160
-40,271	13,740	971,455	539,591
-39,257	13,797	970,503	539,229
-38,242	13,751	969,810	538,671
-37,227	13,832	968,833	538,369
-36,213	13,796	968,081	537,813
-35,198	13,744	967,072	537,063
-34,184	13,755	966,306	536,651
-33,169	13,740	965,336	536,044
-32,154	13,842	964,166	535,705
-31,140	13,787	963,465	535,115
-30,125	13,818	962,779	534,812
-29,111	13,750	961,842	534,051
-28,096	13,793	961,266	533,849
-27,082	13,764	960,612	533,369
-26,067	13,809	959,898	533,099
-25,052	13,816	958,967	532,584
-24,038	13,729	958,616	532,087
-23,023	13,753	957,883	531,736
-22,009	13,832	957,037	531,501
-20,994	13,775	956,595	531,048
-19,979	13,777	955,954	530,677
-18,965	13,836	955,173	530,415
-17,950	13,788	954,557	529,897
-16,936	13,766	953,960	529,475
-15,921	13,707	953,504	529,011
-14,906	13,716	952,545	528,487
-13,892	13,716	952,027	528,178
-12,877	13,594	951,319	527,372
-11,863	13,657	950,537	527,121
-10,848	13,736	950,090	527,103
-9,833	13,742	949,650	526,859
-8,819	13,675	948,966	526,242
-7,804	13,667	948,345	525,852
-6,790	13,665	947,810	525,530
-5,775	13,730	947,241	525,401
-4,760	13,704	946,514	524,894
-3,746	13,741	945,992	524,700
-2,731	13,591	945,261	523,797
-1,717	13,553	944,524	523,246
-0,702	13,487	943,994	522,723
0,313	13,356	943,190	522,650
1,327	16,653	940,949	531,802
2,342	25,786	795,797	474,026
3,356	21,931	460,881	268,580
4,371	-4,895	318,098	156,508
5,386	-8,813	299,988	143,569
6,400	-10,852	293,948	138,616
7,415	-11,086	291,544	137,237
8,429	-11,328	289,944	136,231
9,444	-11,433	288,878	135,615
10,459	-11,360	288,293	135,400
11,473	-11,510	287,735	134,978
12,488	-11,354	287,348	134,938
13,502	-11,495	286,763	134,514
14,517	-11,529	286,413	134,304
15,531	-11,360	285,795	134,167
16,546	-11,341	285,520	134,045
17,561	-11,268	285,116	133,914
18,575	-11,376	284,863	133,678
19,590	-11,571	284,343	133,233
20,604	-11,356	283,997	133,267
21,619	-11,356	283,720	133,125
22,634	-11,473	283,368	132,835
23,648	-11,676	283,105	132,503
24,663	-11,398	282,736	132,588
25,677	-11,459	282,560	132,435
26,692	-11,436	282,323	132,334
27,707	-11,383	281,798	132,127
28,721	-11,421	281,661	132,014
29,736	-11,465	281,522	131,895
30,750	-11,437	281,118	131,721
31,765	-11,425	280,833	131,587
32,780	-11,519	280,630	131,390
33,794	-11,427	280,409	131,363
34,809	-11,499	280,254	131,210
35,823	-11,430	279,742	131,024
36,838	-11,489	279,426	130,809
37,853	-11,558	279,422	130,729
38,867	-11,320	279,182	130,832
39,882	-11,537	278,914	130,488
40,896	-11,511	278,496	130,305
41,911	-11,427	278,349	130,305
42,926	-11,573	278,098	130,038
43,940	-11,388	277,876	130,097
44,955	-11,521	277,674	129,866
45,969	-11,503	277,329	129,709
46,984	-11,616	277,104	129,486
47,999	-12,011	276,959	129,033
49,013	-11,886	276,571	128,959
50,028	-12,049	276,301	128,668
51,042	-12,116	276,085	128,493
52,057	-12,215	275,790	128,251
53,071	-12,096	275,517	128,224
54,086	-12,035	275,460	128,244
55,101	-11,996	275,462	128,269
56,115	-11,578	275,098	128,481
57,130	-11,341	274,849	128,575
58,144	-11,380	274,667	128,442
59,159	-11,234	274,402	128,442
60,174	-11,344	274,373	128,316
61,188	-11,418	274,166	128,138
62,203	-11,488	273,813	127,897
63,217	-11,232	273,510	127,982
64,232	-11,446	273,385	127,713
65,247	-11,114	272,992	127,826
66,261	-11,297	272,712	127,514
67,276	-11,514	272,574	127,236
68,290	-11,695	272,203	126,884
69,305	-11,550	271,919	126,875
70,320	-11,507	271,934	126,910
71,334	-11,389	271,646	126,874
72,349	-11,393	271,535	126,806
73,363	-11,201	271,076	126,758
74,378	-11,346	271,165	126,654
75,393	-11,073	270,873	126,758
76,407	-11,279	270,719	126,485
77,422	-11,350	270,354	126,239
78,436	-11,214	270,200	126,280
79,451	-11,226	269,948	126,140
80,466	-11,391	269,803	125,910
81,480	-11,406	269,444	125,718
82,495	-11,606	269,377	125,491
83,509	-11,584	269,266	125,449
84,524	-11,316	268,616	125,380
85,539	-11,640	268,609	125,070
86,553	-11,601	268,318	124,958
87,568	-11,416	268,351	125,132
88,582	-11,755	268,033	124,663
89,597	-11,475	267,617	124,713
90,611	-11,395	267,648	124,789
91,626	-11,263	267,469	124,814
92,641	-11,471	267,352	124,560
93,655	-11,522	267,195	124,430
94,670	-11,489	266,709	124,222
95,684	-11,491	266,590	124,153
96,699	-11,349	266,313	124,142
97,714	-11,515	266,062	123,863
98,728	-11,539	265,768	123,694
99,743	-11,585	265,698	123,609
100,757	-11,652	265,571	123,479
101,772	-11,685	265,196	123,263
102,787	-11,637	265,249	123,320
103,801	-11,313	265,045	123,506
104,816	-11,402	264,821	123,310
105,830	-11,220	264,548	123,336
106,845	-11,399	264,442	123,115
107,860	-11,215	264,139	123,127
108,874	-11,436	264,021	122,864
109,889	-11,370	263,685	122,755
110,903	-11,300	263,669	122,800
111,918	-11,241	263,422	122,727
112,933	-11,425	263,264	122,477
113,947	-11,362	263,017	122,408
114,962	-11,409	262,854	122,279
115,976	-11,271	262,600	122,273
116,991	-11,508	262,586	122,045
118,006	-11,368	262,224	121,990
119,020	-11,248	262,099	122,027
120,035	-11,411	261,997	121,824
121,049	-11,388	261,815	121,749
122,064	-11,378	261,522	121,611
123,079	-11,476	261,383	121,448
124,093	-11,466	261,085	121,309
125,108	-11,436	260,930	121,252
126,122	-11,582	260,673	120,993
127,137	-11,860	260,484	120,649
128,151	-11,557	260,189	120,769
129,166	-11,357	259,901	120,800
130,181	-11,591	259,796	120,534
131,195	-11,705	259,769	120,411
132,210	-11,366	259,531	120,588
133,224	-11,525	259,408	120,380
134,239	-11,383	259,188	120,392
135,254	-11,291	258,953	120,353
136,268	-11,471	258,683	120,059
137,283	-11,633	258,354	119,754
138,297	-11,663	258,342	119,712
139,312	-11,697	258,065	119,543
140,327	-11,486	257,943	119,660
141,341	-11,239	257,900	119,845
142,356	-11,314	257,675	119,664
143,370	-11,150	257,477	119,705
144,385	-11,343	257,412	119,496
145,400	-11,280	257,222	119,452
146,414	-11,051	256,858	119,471
147,429	-11,181	256,849	119,343
148,443	-11,281	256,670	119,162
149,458	-11,028	256,296	119,197
150,473	-11,138	256,204	119,049
151,487	-11,334	255,963	118,756
152,502	-10,915	255,605	118,942
153,516	-11,279	255,717	118,669
154,531	-11,083	255,362	118,662
155,546	-11,217	255,156	118,440
156,560	-11,145	255,071	118,452
157,575	-11,169	254,739	118,267
158,589	-11,223	254,713	118,198
159,604	-11,109	254,497	118,186
160,619	-11,194	254,284	118,002
161,633	-11,151	254,013	117,903
162,648	-11,120	253,945	117,888
163,662	-11,322	253,964	117,713
164,677	-11,188	253,742	117,715
165,692	-11,131	253,351	117,571
166,706	-11,192	253,350	117,508
167,721	-11,204	253,128	117,385
168,735	-11,167	253,153	117,417
169,750	-11,061	252,764	117,316
170,764	-11,143	252,713	117,212
171,779	-11,036	252,379	117,139
172,794	-11,045	252,311	117,089
173,808	-11,154	252,208	116,937
174,823	-11,290	251,699	116,576
175,837	-11,658	251,647	116,229
176,852	-11,141	251,445	116,564
177,867	-11,193	251,451	116,512
178,881	-11,227	251,400	116,449
179,896	-11,128	251,177	116,419
180,910	-11,073	250,899	116,327
181,925	-10,925	250,783	116,387
182,940	-11,110	250,453	116,068
183,954	-10,966	250,381	116,146
184,969	-11,107	250,248	115,955
185,983	-11,278	250,100	115,731
186,998	-11,142	249,897	115,742
188,013	-11,026	249,663	115,721
189,027	-11,029	249,469	115,619
190,042	-11,068	249,370	115,530
191,056	-10,990	249,160	115,486
192,071	-11,241	248,956	115,171
193,086	-11,048	248,781	115,242
194,100	-11,142	248,582	115,061
195,115	-11,054	248,504	115,088
196,129	-11,144	248,441	114,973
197,144	-11,099	247,987	114,791
198,159	-11,169	247,909	114,686
199,173	-11,239	247,697	114,519
200,188	-11,168	247,593	114,520
201,202	-11,423	247,181	114,107
202,217	-11,381	246,915	114,009
203,232	-11,601	246,791	113,759
204,246	-11,343	246,743	113,942
205,261	-10,938	246,483	114,146
206,275	-12,080	246,193	113,057
207,290	-8,322	247,742	116,887
208,304	-0,015	250,457	125,129
209,319	4,400	251,580	129,386
210,334	4,866	251,606	129,778
211,348	5,050	251,539	129,886
212,363	5,152	251,427	129,902
213,377	5,340	251,225	129,944
214,392	5,107	250,977	129,609
215,407	5,035	250,941	129,519
216,421	4,932	250,764	129,331
217,436	5,212	250,661	129,499
218,450	5,313	250,470	129,473
219,465	5,089	250,139	129,104
220,480	4,838	250,119	128,873
221,494	4,594	249,980	128,587
222,509	4,624	249,717	128,465
223,523	4,639	249,545	128,378
224,538	4,479	249,151	128,031
225,553	4,460	249,134	127,995
226,567	4,611	248,969	128,024
227,582	4,706	248,765	127,987
228,596	4,496	248,796	127,817
229,611	4,288	248,467	127,465
230,626	4,228	248,170	127,251
231,640	4,540	247,947	127,383
232,655	4,696	247,866	127,458
233,669	4,385	247,744	127,129
234,684	4,223	247,559	126,889
235,699	4,676	247,522	127,232
236,713	4,730	247,425	127,215
237,728	4,251	247,085	126,635
238,742	4,315	246,915	126,589
239,757	4,275	246,632	126,400
240,772	4,337	246,550	126,397
241,786	4,469	246,383	126,409
242,801	4,264	246,166	126,119
243,815	4,156	246,096	125,982
244,830	4,521	246,152	126,299
245,844	4,466	245,859	126,092
246,859	4,273	245,625	125,803
247,874	4,197	245,537	125,685
248,888	4,446	245,480	125,848
249,903	4,472	245,080	125,653
250,917	4,695	245,082	125,824
251,932	4,581	245,072	125,715
252,947	4,685	244,688	125,591
253,961	4,561	244,574	125,421
254,976	4,536	244,364	125,282
255,990	4,749	244,201	125,360
257,005	4,415	244,107	125,030
258,020	4,301	243,876	124,808
259,034	4,418	243,820	124,862
260,049	4,547	243,585	124,836
261,063	4,448	243,402	124,651
262,078	4,331	243,216	124,450
263,093	4,540	243,131	124,564
264,107	4,632	243,097	124,609
265,122	4,249	242,869	124,173
266,136	4,523	242,719	124,306
267,151	4,747	242,661	124,445
268,166	4,333	242,368	123,951
269,180	4,279	242,243	123,833
270,195	5,034	241,994	124,300
271,209	5,114	242,037	124,375
272,224	4,432	241,802	123,697
273,239	4,113	241,470	123,261
274,253	4,253	241,363	123,307
275,268	4,490	241,285	123,446
276,282	4,514	241,130	123,375
277,297	4,187	240,836	122,953
278,312	4,147	240,728	122,854
279,326	4,569	240,612	123,120
280,341	4,458	240,559	122,994
281,355	4,358	240,347	122,795
282,370	4,559	240,193	122,865
283,384	4,376	239,969	122,594
284,399	4,313	239,886	122,491
285,414	4,157	239,649	122,235
286,428	4,371	239,609	122,373
287,443	4,332	239,424	122,238
288,457	4,580	239,412	122,417
289,472	4,630	239,298	122,387
290,487	4,313	239,046	121,997
291,501	4,085	238,774	121,667
292,516	4,061	238,665	121,582
293,530	4,028	238,456	121,438
294,545	4,564	238,510	121,877
295,560	4,500	238,197	121,656
296,574	4,228	238,007	121,335
297,589	4,262	237,795	121,242
298,603	4,614	237,843	121,533
299,618	4,572	237,845	121,489
300,633	4,547	237,595	121,331
301,647	4,449	237,454	121,172
302,662	4,914	237,355	121,475
303,676	4,819	237,247	121,335
304,691	4,876	236,985	121,235
305,706	4,740	236,962	121,106
306,720	4,867	236,739	121,080
307,735	4,603	236,556	120,770
308,749	4,419	236,397	120,534
309,764	4,195	236,183	120,239
310,779	4,068	235,925	119,998
311,793	4,119	235,625	119,875
312,808	4,078	235,562	119,800
313,822	4,081	235,427	119,722
314,837	3,873	235,307	119,489
315,852	4,056	235,060	119,495
316,866	4,300	235,055	119,672
317,881	4,299	234,941	119,603
318,895	4,394	234,954	119,672
319,910	5,073	234,591	120,002
320,925	4,475	234,497	119,481
321,939	4,302	234,240	119,205
322,954	4,528	234,219	119,358
323,968	4,455	234,193	119,278
324,983	4,538	233,856	119,160
325,997	4,768	233,875	119,337
327,012	4,743	233,647	119,190
328,027	4,491	233,539	118,930
329,041	4,682	233,396	118,993
330,056	5,227	233,369	119,389
331,070	5,127	233,394	119,314
332,085	4,822	233,020	118,877
333,100	4,684	232,684	118,590
334,114	4,666	232,646	118,546
335,129	4,784	232,399	118,500
336,143	4,906	232,353	118,560
337,158	4,881	232,160	118,432
338,173	4,621	231,996	118,139
339,187	4,580	231,633	117,912
340,202	4,748	231,648	118,037
341,216	4,538	231,519	117,801
342,231	4,494	231,351	117,671
343,246	4,542	231,227	117,634
344,260	4,460	231,138	117,516
345,275	4,747	231,001	117,654
346,289	4,804	231,018	117,696
347,304	5,092	230,716	117,750
348,319	4,881	230,661	117,551
349,333	4,580	230,586	117,274
350,348	4,516	230,154	116,995
351,362	4,551	230,134	117,001
352,377	4,341	229,990	116,759
353,392	4,156	229,722	116,473
354,406	4,306	229,472	116,448
355,421	195,018	1320,617	1394,570
356,435	156,412	1453,522	1394,534
