DTS Sentinel unit serial number:	SN410029Multiplexer serial number:	ORYXHardware model number:	OX2-SRSoftware version number:	ORYX F/W v4,00 Oryx Data Collector v3.7.2.0data status	okinstallation	B5 Nyhavnadifferential loss correction	single-endedforward channel	channel 2reverse channel	N/Adate	2023/12/14time	06:07:13forward acquisition time	300,00reverse acquisition time	0,00gamma	499,1914k internal	0,3158k external	0,3158temperature offset calibration	1,0000default loss term (dB/km)	0,3820temperature slope calibration	1,0000multiplexer offset coefficient	1,0000multiplexer slope coefficient	1,0000fibre end	0,00T internal ref (°C)	7,60T ext. ref 1 (°C)	-8,80T ext. ref 2 (°C)	-8,93length (m)	temperature (°C)	Stokes	anti-Stokes-744,400	-8,048	0,156	0,077
-743,385	-78,864	-0,337	-0,084
-742,371	32,821	0,195	0,124
-741,356	-44,187	-0,358	-0,132
-740,342	800,000	0,053	0,117
-739,327	-165,151	-0,466	-0,015
-738,312	56,711	0,044	0,032
-737,298	-119,856	-0,365	-0,046
-736,283	-2,505	0,153	0,079
-735,269	-86,041	-0,291	-0,066
-734,254	453,078	0,096	0,158
-733,239	-25,039	-0,580	-0,252
-732,225	-59,184	0,162	0,051
-731,210	-200,000	-0,006	0,069
-730,196	61,225	-0,031	-0,023
-729,181	-67,317	0,033	0,009
-728,167	-200,000	0,011	0,052
-727,152	-159,821	-0,133	-0,005
-726,137	-200,000	-0,015	-0,055
-725,123	471,542	-0,061	-0,101
-724,108	135,111	0,057	-0,055
-723,094	148,567	-0,043	-0,043
-722,079	-200,000	0,019	-0,102
-721,064	340,679	-0,043	-0,062
-720,050	-0,774	0,062	0,032
-719,035	311,716	0,073	-0,101
-718,021	-125,322	0,022	-0,002
-717,006	-200,000	0,015	-0,055
-715,991	61,750	0,095	-0,070
-714,977	-200,000	-0,020	-0,146
-713,962	800,000	-0,020	0,053
-712,948	-32,779	0,099	-0,040
-711,933	-107,484	-0,072	-0,011
-710,918	-67,760	0,058	0,017
-709,904	-133,430	-0,137	-0,013
-708,889	-111,019	-0,139	0,021
-707,875	-200,000	-0,043	-0,170
-706,860	47,781	-0,014	0,010
-705,845	-37,252	-0,047	-0,019
-704,831	-34,099	-0,099	-0,040
-703,816	-200,000	-0,001	0,039
-702,802	800,000	-0,041	0,100
-701,787	-75,771	0,071	0,018
-700,772	-75,443	0,153	-0,040
-699,758	-121,537	0,077	-0,009
-698,743	-7,180	0,173	0,086
-697,729	-132,563	-0,074	0,007
-696,714	131,722	0,098	-0,093
-695,699	722,931	0,047	-0,093
-694,685	-200,000	0,011	-0,046
-693,670	-7,553	0,051	0,025
-692,656	-200,000	0,019	-0,100
-691,641	-68,664	-0,069	-0,020
-690,627	437,156	0,091	0,146
-689,612	151,912	-0,066	0,066
-688,597	-120,515	0,087	-0,011
-687,583	-200,000	-0,030	-0,127
-686,568	-27,019	0,101	-0,043
-685,554	800,000	-0,052	-0,146
-684,539	-200,000	0,004	-0,015
-683,524	419,171	0,062	0,097
-682,510	-12,997	-0,164	-0,078
-681,495	463,803	-0,040	-0,067
-680,481	-31,358	0,080	0,033
-679,466	-51,181	-0,062	0,021
-678,451	317,387	-0,099	-0,138
-677,437	-57,776	-0,069	-0,022
-676,422	121,476	0,040	0,037
-675,408	516,101	-0,036	0,062
-674,393	-129,772	0,022	-0,002
-673,378	-200,000	0,001	0,063
-672,364	412,989	-0,023	0,036
-671,349	-75,506	0,065	-0,017
-670,335	265,513	0,051	-0,066
-669,320	155,160	-0,057	0,058
-668,305	512,181	0,035	0,060
-667,291	116,400	0,104	-0,094
-666,276	-200,000	0,000	-0,019
-665,262	-200,000	-0,009	0,049
-664,247	648,900	0,033	0,061
-663,232	-76,382	0,097	-0,025
-662,218	-147,964	0,126	-0,008
-661,203	800,000	-0,030	0,090
-660,189	-200,000	0,003	-0,021
-659,174	492,004	-0,054	-0,092
-658,159	270,633	-0,025	-0,032
-657,145	800,000	-0,035	-0,101
-656,130	-200,000	-0,003	0,021
-655,116	-56,953	0,026	-0,008
-654,101	-200,000	-0,001	0,237
-653,086	420,161	-0,012	0,020
-652,072	-193,206	0,137	0,001
-651,057	-137,037	-0,099	0,008
-650,043	-200,000	-0,010	-0,099
-649,028	465,468	-0,052	-0,086
-648,014	-14,015	0,040	0,019
-646,999	-114,449	0,115	-0,016
-645,984	169,981	0,096	0,101
-644,970	-54,215	0,105	0,035
-643,955	-155,443	-0,134	0,006
-642,941	255,841	-0,038	-0,048
-641,926	1,865	0,032	0,017
-640,911	192,577	-0,079	-0,088
-639,897	-200,000	-0,031	0,145
-638,882	-200,000	0,024	0,154
-637,868	-195,655	-0,146	-0,001
-636,853	-99,389	0,043	0,008
-635,838	-200,000	-0,010	0,102
-634,824	-200,000	-0,017	-0,058
-633,809	800,000	0,057	-0,118
-632,795	800,000	0,011	0,035
-631,780	-162,721	-0,147	0,005
-630,765	-200,000	-0,010	0,105
-629,751	800,000	-0,043	0,129
-628,736	101,528	0,059	0,051
-627,722	-200,000	-0,014	-0,051
-626,707	-200,000	0,029	-0,120
-625,692	-103,408	0,031	0,005
-624,678	347,350	0,072	0,105
-623,663	267,131	0,049	-0,063
-622,649	-200,000	-0,035	-0,138
-621,634	54,952	-0,120	-0,085
-620,619	800,000	0,039	-0,113
-619,605	-126,885	0,064	0,007
-618,590	552,904	-0,032	0,056
-617,576	4,997	-0,044	0,024
-616,561	192,468	0,040	0,044
-615,546	88,576	-0,080	-0,065
-614,532	-200,000	0,004	-0,016
-613,517	6,299	-0,148	-0,080
-612,503	231,831	-0,054	0,066
-611,488	-84,718	0,093	0,021
-610,474	-87,189	-0,160	0,035
-609,459	134,861	-0,125	0,119
-608,444	-200,000	-0,005	0,068
-607,430	-92,540	-0,080	-0,016
-606,415	294,296	0,045	-0,061
-605,401	39,349	-0,049	-0,032
-604,386	-135,351	0,105	0,009
-603,371	-45,498	0,030	0,011
-602,357	286,596	0,025	0,033
-601,342	306,797	-0,010	-0,014
-600,328	-103,587	-0,116	-0,020
-599,313	190,134	0,058	0,064
-598,298	-65,033	-0,029	0,009
-597,284	723,509	0,010	0,020
-596,269	-200,000	-0,013	-0,123
-595,255	446,236	-0,074	-0,120
-594,240	-35,646	0,219	0,086
-593,225	35,602	0,098	-0,063
-592,211	143,781	-0,097	-0,095
-591,196	800,000	-0,024	-0,063
-590,182	621,938	-0,057	-0,106
-589,167	146,363	0,071	0,070
-588,152	36,912	0,073	-0,047
-587,138	800,000	0,039	-0,104
-586,123	371,440	0,061	0,090
-585,109	-76,016	-0,077	0,020
-584,094	198,876	-0,084	0,095
-583,079	-200,000	0,015	0,060
-582,065	-200,000	0,017	0,087
-581,050	800,000	0,007	0,017
-580,036	310,997	0,054	0,074
-579,021	215,125	-0,023	-0,026
-578,006	800,000	-0,029	-0,090
-576,992	800,000	0,040	0,121
-575,977	-119,428	0,144	-0,018
-574,963	602,013	-0,013	0,023
-573,948	-200,000	-0,007	-0,091
-572,934	-17,535	-0,095	0,044
-571,919	228,286	-0,073	-0,088
-570,904	-200,000	0,012	-0,051
-569,890	800,000	0,044	-0,096
-568,875	277,123	0,038	-0,050
-567,861	229,375	-0,024	0,028
-566,846	-20,252	-0,068	0,030
-565,831	-165,184	-0,149	0,005
-564,817	285,440	0,061	-0,081
-563,802	800,000	-0,032	-0,087
-562,788	344,770	-0,046	0,066
-561,773	800,000	-0,056	0,116
-560,758	800,000	0,012	-0,033
-559,744	215,932	-0,043	-0,050
-558,729	-79,026	-0,149	-0,037
-557,715	-200,000	-0,001	-0,071
-556,700	242,604	0,042	0,051
-555,685	336,377	-0,112	-0,160
-554,671	-134,806	0,112	0,010
-553,656	-164,120	-0,095	-0,003
-552,642	90,170	-0,056	0,046
-551,627	-47,006	0,028	0,010
-550,612	-169,965	-0,118	-0,003
-549,598	-104,586	-0,055	0,009
-548,583	-200,000	0,005	-0,137
-547,569	-85,672	0,125	0,028
-546,554	161,170	0,068	-0,069
-545,539	613,431	-0,023	-0,043
-544,525	24,474	-0,088	-0,053
-543,510	-43,995	-0,046	-0,017
-542,496	-4,201	-0,105	-0,053
-541,481	106,087	-0,096	-0,083
-540,466	255,139	-0,058	0,073
-539,452	201,803	0,097	-0,109
-538,437	-46,582	0,054	0,019
-537,423	-39,960	-0,050	0,019
-536,408	-69,942	0,135	0,037
-535,393	161,234	-0,062	0,063
-534,379	215,060	-0,034	-0,039
-533,364	15,561	0,095	-0,054
-532,350	800,000	-0,053	0,113
-531,335	-43,032	0,125	0,046
-530,321	-4,262	-0,016	-0,008
-529,306	-200,000	-0,005	-0,090
-528,291	800,000	0,041	-0,106
-527,277	-200,000	-0,017	0,077
-526,262	-131,548	-0,060	0,006
-525,248	-200,000	0,018	-0,064
-524,233	160,714	-0,042	0,043
-523,218	-143,298	-0,015	0,001
-522,204	518,528	0,024	-0,040
-521,189	41,023	0,039	-0,026
-520,175	-15,534	-0,156	0,072
-519,160	294,868	0,047	-0,062
-518,145	-121,607	-0,078	0,009
-517,131	800,000	0,016	-0,041
-516,116	188,330	0,039	0,042
-515,102	-200,000	-0,007	-0,080
-514,087	-200,000	0,014	-0,075
-513,072	440,402	-0,117	-0,188
-512,058	89,664	-0,022	-0,018
-511,043	192,184	0,039	-0,043
-510,029	-138,232	-0,060	0,005
-509,014	127,724	-0,028	0,026
-507,999	-200,000	0,023	0,125
-506,985	200,307	-0,044	0,049
-505,970	392,151	-0,021	0,032
-504,956	138,261	-0,118	-0,113
-503,941	-119,405	-0,040	0,005
-502,926	-1,229	-0,125	0,064
-501,912	365,594	0,047	-0,069
-500,897	4,047	-0,129	-0,069
-499,883	-86,672	0,040	-0,009
-498,868	184,094	0,037	0,040
-497,853	-13,327	0,105	-0,050
-496,839	-101,649	0,046	0,008
-495,824	-65,415	-0,099	0,029
-494,810	252,492	0,094	0,117
-493,795	170,888	0,077	0,080
-492,781	96,147	0,033	-0,028
-491,766	-106,400	-0,090	-0,014
-490,751	-28,985	-0,181	0,075
-489,737	75,428	-0,155	0,119
-488,722	-102,394	0,037	0,006
-487,708	333,129	-0,022	-0,031
-486,693	311,681	0,029	0,040
-485,678	106,872	-0,031	-0,027
-484,664	0,725	-0,073	0,038
-483,649	408,175	0,018	-0,028
-482,635	133,797	0,046	-0,043
-481,620	16,813	-0,181	0,104
-480,605	-200,000	0,005	0,170
-479,591	1,316	-0,187	-0,098
-478,576	-6,423	0,027	-0,014
-477,562	800,000	0,017	0,043
-476,547	-200,000	-0,006	-0,086
-475,532	-200,000	-0,005	-0,074
-474,518	-200,000	0,007	0,154
-473,503	-200,000	0,036	0,145
-472,489	-76,239	-0,139	-0,035
-471,474	-119,564	0,028	0,003
-470,459	-200,000	-0,016	-0,094
-469,445	208,987	-0,050	0,057
-468,430	118,808	-0,100	-0,090
-467,416	-5,657	-0,052	-0,026
-466,401	-141,260	0,124	0,009
-465,386	-200,000	0,004	0,037
-464,372	-200,000	-0,077	-0,000
-463,357	-200,000	0,013	0,044
-462,343	521,171	-0,057	-0,098
-461,328	-200,000	-0,014	0,062
-460,313	69,649	-0,056	-0,042
-459,299	690,226	0,037	0,072
-458,284	649,124	0,025	-0,048
-457,270	-163,242	-0,072	0,002
-456,255	-26,920	0,093	-0,039
-455,241	800,000	0,035	-0,107
-454,226	641,132	-0,051	-0,095
-453,211	-200,000	0,035	0,148
-452,197	-200,000	-0,020	-0,078
-451,182	52,219	0,100	-0,069
-450,168	-145,949	-0,082	-0,005
-449,153	6,933	0,148	0,080
-448,138	332,206	-0,051	0,072
-447,124	-26,802	0,038	-0,016
-446,109	-113,584	-0,060	0,008
-445,095	-31,142	-0,054	0,022
-444,080	-200,000	0,001	0,054
-443,065	415,971	0,023	0,036
-442,051	734,354	0,086	-0,169
-441,036	62,334	0,104	-0,076
-440,022	-188,509	-0,112	-0,001
-439,007	362,233	0,094	0,138
-437,992	71,630	0,080	-0,061
-436,978	-200,000	-0,019	0,063
-435,963	-46,127	0,097	0,035
-434,949	-200,000	-0,001	-0,029
-433,934	145,860	-0,060	0,058
-432,919	800,000	0,059	-0,141
-431,905	-48,079	0,061	-0,021
-430,890	544,660	0,048	-0,083
-429,876	210,773	0,200	0,229
-428,861	523,421	-0,010	-0,017
-427,846	-116,726	-0,037	-0,005
-426,832	-32,143	-0,144	-0,058
-425,817	231,039	-0,049	-0,059
-424,803	-200,000	0,022	-0,168
-423,788	-200,000	0,014	-0,079
-422,773	-200,000	-0,048	0,162
-421,759	709,293	0,057	-0,110
-420,744	66,918	0,095	0,070
-419,730	-44,729	0,092	-0,033
-418,715	343,036	-0,085	-0,122
-417,701	-32,654	0,035	0,014
-416,686	9,390	0,161	-0,088
-415,671	-129,546	-0,088	-0,009
-414,657	800,000	-0,009	0,023
-413,642	-200,000	0,007	-0,022
-412,628	393,867	-0,069	-0,105
-411,613	-58,301	0,087	-0,027
-410,598	800,000	0,039	-0,121
-409,584	-200,000	0,018	-0,071
-408,569	800,000	-0,033	-0,073
-407,555	-43,892	0,163	-0,059
-406,540	61,511	0,105	0,076
-405,525	800,000	0,003	-0,010
-404,511	196,172	-0,038	-0,042
-403,496	-200,000	0,007	-0,070
-402,482	406,356	-0,061	0,094
-401,467	258,056	0,129	0,162
-400,452	246,718	0,144	0,177
-399,438	-77,138	-0,116	0,029
-398,423	302,840	0,082	-0,110
-397,409	-49,328	-0,191	0,066
-396,394	-34,695	0,185	-0,073
-395,379	-200,000	-0,020	-0,127
-394,365	90,143	-0,041	-0,034
-393,350	-26,520	-0,098	-0,041
-392,336	600,104	0,049	-0,090
-391,321	-161,670	0,068	0,002
-390,306	-51,698	-0,102	-0,034
-389,292	96,202	-0,021	-0,018
-388,277	-200,000	0,009	-0,052
-387,263	163,023	0,023	-0,023
-386,248	4,989	0,150	-0,080
-385,233	305,235	0,057	0,077
-384,219	277,663	-0,113	0,147
-383,204	800,000	-0,034	0,093
-382,190	-30,060	0,015	-0,006
-381,175	165,375	-0,071	-0,073
-380,160	-200,000	0,025	0,142
-379,146	36,352	0,072	0,046
-378,131	151,419	0,048	0,047
-377,117	224,407	0,140	-0,165
-376,102	186,000	0,011	0,012
-375,088	54,659	-0,175	-0,123
-374,073	83,166	-0,067	0,053
-373,058	800,000	0,015	-0,033
-372,044	160,425	0,028	0,028
-371,029	-200,000	0,035	0,123
-370,015	-200,000	-0,008	-0,060
-369,000	800,000	-0,050	0,118
-367,985	-200,000	-0,025	-0,102
-366,971	-200,000	-0,023	-0,083
-365,956	-60,899	0,130	0,040
-364,942	-200,000	0,001	0,019
-363,927	-200,000	-0,079	0,000
-362,912	-200,000	-0,001	-0,004
-361,898	-190,284	0,070	-0,001
-360,883	214,213	-0,091	0,105
-359,869	-200,000	-0,004	-0,123
-358,854	-101,734	-0,053	-0,009
-357,839	800,000	0,051	0,106
-356,825	800,000	0,058	0,168
-355,810	166,454	0,118	0,121
-354,796	393,698	-0,054	-0,082
-353,781	800,000	0,012	0,034
-352,766	-150,296	-0,051	-0,003
-351,752	714,895	-0,053	-0,103
-350,737	283,348	0,047	0,062
-349,723	-3,034	0,083	-0,042
-348,708	120,879	0,077	0,070
-347,693	40,565	-0,061	0,040
-346,679	-10,470	-0,068	-0,033
-345,664	-104,515	0,038	-0,006
-344,650	-85,443	0,079	0,018
-343,635	-140,780	0,064	0,005
-342,620	563,933	0,022	0,038
-341,606	-200,000	0,009	-0,080
-340,591	-76,096	-0,127	0,032
-339,577	-21,843	-0,039	0,017
-338,562	9,730	-0,061	0,034
-337,548	289,860	0,036	-0,048
-336,533	443,952	0,026	0,042
-335,518	280,126	-0,031	0,040
-334,504	-200,000	0,009	0,031
-333,489	-159,062	0,024	-0,001
-332,475	-82,657	0,013	0,003
-331,460	-24,156	-0,075	-0,033
-330,445	-89,200	-0,037	-0,008
-329,431	119,558	0,102	0,092
-328,416	174,970	0,106	0,111
-327,402	0,442	-0,141	-0,073
-326,387	800,000	-0,025	-0,056
-325,372	-200,000	0,003	-0,063
-324,358	-126,758	0,043	0,005
-323,343	-92,567	0,117	-0,024
-322,329	-15,682	-0,127	0,059
-321,314	-21,084	0,067	0,030
-320,299	146,914	0,077	-0,075
-319,285	34,451	0,063	-0,040
-318,270	675,489	0,043	-0,081
-317,256	303,645	-0,036	-0,049
-316,241	-81,054	0,043	-0,010
-315,226	-200,000	0,004	-0,102
-314,212	110,303	0,062	0,054
-313,197	-28,746	-0,039	0,016
-312,183	330,929	0,084	0,117
-311,168	-130,905	0,105	-0,010
-310,153	-200,000	0,021	-0,138
-309,139	-200,000	0,007	-0,037
-308,124	-200,000	-0,004	-0,057
-307,110	-92,865	0,136	0,027
-306,095	-200,000	-0,017	0,098
-305,080	151,627	0,066	0,065
-304,066	394,545	-0,024	-0,036
-303,051	-200,000	-0,000	0,002
-302,037	144,617	0,073	-0,071
-301,022	74,155	0,030	0,023
-300,008	688,186	-0,045	0,086
-298,993	119,888	0,011	0,010
-297,978	800,000	-0,020	-0,046
-296,964	800,000	0,036	-0,081
-295,949	547,817	0,055	-0,097
-294,935	-0,428	0,116	-0,060
-293,920	-120,072	-0,033	0,004
-292,905	-99,971	0,056	0,010
-291,891	-135,524	0,198	0,017
-290,876	-49,716	0,058	-0,020
-289,862	-53,008	-0,119	-0,039
-288,847	466,038	-0,156	-0,253
-287,832	-38,339	-0,097	0,037
-286,818	-200,000	-0,034	-0,118
-285,803	-200,000	-0,009	0,133
-284,789	209,194	-0,054	0,062
-283,774	-200,000	0,008	-0,036
-282,759	-75,074	0,100	-0,026
-281,745	31,109	-0,078	-0,048
-280,730	281,093	-0,068	-0,088
-279,716	800,000	0,071	-0,193
-278,701	-4,827	-0,077	-0,038
-277,686	33,530	0,109	-0,069
-276,672	800,000	0,018	0,046
-275,657	-200,000	-0,010	0,050
-274,643	261,817	0,120	0,151
-273,628	-200,000	0,000	-0,073
-272,613	244,637	-0,056	-0,069
-271,599	-200,000	0,015	-0,125
-270,584	125,087	0,076	0,069
-269,570	428,928	0,017	0,026
-268,555	-174,029	0,140	0,003
-267,540	60,097	-0,031	0,022
-266,526	-67,250	-0,105	0,030
-265,511	-72,830	-0,072	-0,019
-264,497	-105,649	-0,031	0,005
-263,482	-2,952	0,034	0,017
-262,467	49,089	0,025	0,017
-261,453	633,882	-0,048	0,089
-260,438	800,000	-0,029	-0,067
-259,424	24,269	0,053	0,032
-258,409	-69,291	-0,075	-0,021
-257,395	109,302	0,050	0,043
-256,380	-45,184	-0,030	0,011
-255,365	160,875	0,043	0,043
-254,351	800,000	-0,010	0,030
-253,336	-200,000	-0,020	0,109
-252,322	325,787	-0,059	0,082
-251,307	800,000	0,021	0,058
-250,292	-167,363	-0,030	0,001
-249,278	-200,000	0,039	0,147
-248,263	-200,000	0,010	0,071
-247,249	-200,000	-0,002	-0,030
-246,234	-76,633	0,042	0,011
-245,219	366,844	-0,012	-0,018
-244,205	199,818	-0,149	-0,166
-243,190	154,442	-0,059	0,059
-242,176	543,817	-0,012	0,021
-241,161	66,636	0,164	-0,120
-240,146	-36,417	0,077	-0,030
-239,132	737,127	-0,049	-0,095
-238,117	-200,000	-0,009	-0,144
-237,103	29,836	-0,128	0,079
-236,088	-53,998	-0,074	0,024
-235,073	-200,000	0,033	0,111
-234,059	147,541	0,101	-0,099
-233,044	-200,000	-0,027	0,115
-232,030	327,091	0,067	-0,093
-231,015	799,423	-0,035	-0,070
-230,000	155,163	0,006	-0,006
-228,986	-200,000	-0,001	0,040
-227,971	-32,173	0,093	0,037
-226,957	-200,000	0,009	0,102
-225,942	-161,571	-0,107	-0,004
-224,927	800,000	0,044	-0,137
-223,913	-39,682	-0,123	-0,046
-222,898	422,887	-0,045	0,070
-221,884	152,983	-0,110	0,108
-220,869	97,939	0,024	-0,020
-219,855	-200,000	0,008	0,190
-218,840	-80,674	0,132	-0,032
-217,825	677,784	-0,036	-0,067
-216,811	135,200	0,040	-0,037
-215,796	130,682	-0,063	-0,058
-214,782	-200,000	0,004	0,089
-213,767	-200,000	0,014	0,070
-212,752	57,942	0,078	0,055
-211,738	-85,972	0,073	-0,016
-210,723	16,963	-0,037	0,021
-209,709	-200,000	0,006	0,071
-208,694	13,726	0,019	0,011
-207,679	-130,460	-0,068	-0,007
-206,665	-125,718	-0,052	0,006
-205,650	-200,000	-0,014	0,062
-204,636	60,232	0,081	0,058
-203,621	-64,691	0,110	0,032
-202,606	-151,756	0,056	0,003
-201,592	-170,062	-0,142	-0,004
-200,577	478,721	-0,025	-0,041
-199,563	-200,000	-0,014	-0,045
-198,548	-169,195	-0,127	0,003
-197,533	47,177	0,076	-0,051
-196,519	-7,816	0,161	-0,078
-195,504	246,578	-0,041	-0,050
-194,490	560,378	0,022	-0,038
-193,475	149,897	-0,024	0,024
-192,460	-63,043	0,060	-0,018
-191,446	-106,405	0,024	0,004
-190,431	20,524	0,064	0,037
-189,417	-106,685	0,122	0,019
-188,402	221,164	-0,064	0,074
-187,387	-123,168	0,042	0,005
-186,373	139,453	-0,124	-0,118
-185,358	-200,000	0,000	0,092
-184,344	800,000	-0,048	0,123
-183,329	329,701	0,088	0,122
-182,315	-200,000	0,016	0,215
-181,300	-200,000	0,003	0,027
-180,285	-51,242	-0,103	0,035
-179,271	-18,500	-0,101	-0,045
-178,256	19,724	0,037	-0,021
-177,242	-42,978	0,168	-0,061
-176,227	800,000	0,023	0,055
-175,212	53,244	0,061	0,042
-174,198	-124,217	-0,128	0,014
-173,183	551,222	-0,075	0,130
-172,169	-200,000	0,013	0,203
-171,154	142,060	0,036	0,034
-170,139	-125,327	0,159	0,017
-169,125	-200,000	-0,010	0,157
-168,110	-200,000	0,015	-0,117
-167,096	-11,250	-0,090	-0,043
-166,081	112,307	-0,038	-0,033
-165,066	-105,597	0,041	-0,007
-164,052	46,263	0,152	0,101
-163,037	-77,475	0,124	-0,031
-162,023	-26,555	-0,083	0,035
-161,008	-75,997	-0,121	0,031
-159,993	169,512	0,073	0,075
-158,979	12,133	-0,105	-0,058
-157,964	-7,588	0,055	0,027
-156,950	-102,001	0,078	-0,013
-155,935	693,227	-0,069	0,131
-154,920	25,145	0,113	0,067
-153,906	181,023	-0,109	0,115
-152,891	278,669	0,053	0,068
-151,877	138,468	-0,075	0,071
-150,862	-101,906	0,068	0,012
-149,847	-200,000	0,018	-0,076
-148,833	-200,000	-0,003	0,102
-147,818	676,144	0,049	0,091
-146,804	-27,238	0,093	0,039
-145,789	50,521	0,073	-0,050
-144,775	-104,391	-0,077	0,013
-143,760	-139,102	-0,124	0,009
-142,745	-200,000	-0,009	-0,053
-141,731	651,277	0,025	-0,046
-140,716	322,196	0,048	-0,066
-139,702	800,000	0,093	0,189
-138,687	100,396	0,105	0,088
-137,672	-170,757	0,102	0,002
-136,658	-138,250	-0,037	0,003
-135,643	-200,000	0,034	0,148
-134,629	-200,000	-0,013	0,102
-133,614	45,031	0,073	-0,048
-132,599	-58,365	-0,082	0,025
-131,585	800,000	0,020	0,042
-130,570	358,017	-0,039	0,057
-129,556	-24,570	0,027	0,012
-128,541	13,775	-0,039	-0,021
-127,526	-200,000	-0,017	0,085
-126,512	-200,000	0,039	-0,155
-125,497	-32,093	0,030	-0,012
-124,483	-89,574	-0,058	0,012
-123,468	265,361	-0,051	-0,064
-122,453	306,183	0,028	-0,037
-121,439	107,661	0,065	0,056
-120,424	-109,190	-0,059	0,009
-119,410	741,803	0,051	0,099
-118,395	418,556	0,032	-0,050
-117,380	-37,399	0,173	-0,066
-116,366	296,369	-0,041	-0,054
-115,351	616,633	-0,094	-0,170
-114,337	800,000	0,024	-0,048
-113,322	800,000	0,041	0,105
-112,307	-163,204	0,083	0,003
-111,293	247,312	-0,031	-0,038
-110,278	-200,000	-0,007	-0,097
-109,264	-200,000	0,031	-0,104
-108,249	-12,560	-0,144	-0,067
-107,234	-92,573	-0,065	-0,013
-106,220	769,578	0,068	-0,133
-105,205	800,000	-0,026	0,058
-104,191	343,911	0,075	-0,106
-103,176	114,995	0,061	0,054
-102,162	548,560	0,057	-0,099
-101,147	-200,000	0,005	0,030
-100,132	388,391	0,050	0,075
-99,118	228,842	-0,081	0,096
-98,103	-148,132	0,076	-0,004
-97,089	800,000	-0,023	-0,062
-96,074	351,921	-0,031	0,044
-95,059	442,200	0,048	-0,076
-94,045	150,064	0,010	-0,010
-93,030	-200,000	-0,014	-0,060
-92,016	111,690	0,035	-0,031
-91,001	-200,000	-0,016	-0,107
-89,986	800,000	0,051	0,105
-88,972	73,753	0,064	0,048
-87,957	584,392	-0,048	0,085
-86,943	12,802	0,063	0,035
-85,928	-116,686	-0,108	0,014
-84,913	-181,272	0,173	-0,002
-83,899	181,826	-0,070	0,074
-82,884	-47,959	0,158	-0,055
-81,870	761,847	0,082	0,160
-80,855	659,672	0,049	0,090
-79,840	800,000	0,050	-0,158
-78,826	141,615	-0,022	0,021
-77,811	-25,696	-0,088	-0,037
-76,797	-60,946	-0,112	0,034
-75,782	-200,000	0,063	0,000
-74,767	-200,000	-0,029	-0,135
-73,753	-64,794	-0,013	0,004
-72,738	-200,000	-0,008	0,044
-71,724	800,000	-0,007	-0,015
-70,709	-200,000	0,032	-0,141
-69,694	146,833	-0,072	-0,069
-68,680	486,256	0,033	-0,055
-67,665	-200,000	0,003	0,241
-66,651	158,683	0,079	0,079
-65,636	531,135	0,028	-0,048
-64,622	57,153	-0,088	0,061
-63,607	-178,974	-0,048	-0,001
-62,592	-132,213	-0,042	0,004
-61,578	76,644	0,033	0,025
-60,563	71,719	0,051	-0,038
-59,549	-200,000	-0,031	-0,138
-58,534	94,946	-2,626	-2,144
-57,519	-42,806	0,384	-0,139
-56,505	800,000	-1,794	-5,464
-55,490	522,800	1,260	2,132
-54,476	800,000	5,232	11,328
-53,461	-200,000	22,607	348,165
-52,446	800,000	762,778	2281,286
-51,432	506,035	1644,786	2745,980
-50,417	95,094	1604,745	1310,633
-49,403	63,353	1261,878	906,866
-48,388	22,269	1014,086	592,904
-47,373	19,105	981,720	563,556
-46,359	12,488	968,618	534,441
-45,344	8,270	965,349	518,845
-44,330	8,668	963,400	519,075
-43,315	7,689	961,528	514,858
-42,300	7,672	960,568	514,270
-41,286	7,660	959,717	513,753
-40,271	7,688	958,377	513,105
-39,257	7,602	957,745	512,468
-38,242	7,610	956,828	511,982
-37,227	7,664	955,918	511,653
-36,213	7,643	955,102	511,125
-35,198	7,636	954,383	510,698
-34,184	7,681	953,333	510,262
-33,169	7,608	952,605	509,616
-32,154	7,702	951,709	509,421
-31,140	7,674	950,795	508,821
-30,125	7,681	950,084	508,441
-29,111	7,597	949,420	507,795
-28,096	7,675	948,696	507,641
-27,082	7,636	948,156	507,207
-26,067	7,599	947,623	506,781
-25,052	7,609	946,551	506,219
-24,038	7,618	945,709	505,780
-23,023	7,629	944,985	505,405
-22,009	7,602	944,634	505,113
-20,994	7,679	943,962	504,981
-19,979	7,632	943,555	504,590
-18,965	7,615	942,619	504,016
-17,950	7,650	942,084	503,823
-16,936	7,561	941,589	503,252
-15,921	7,585	940,661	502,815
-14,906	7,525	940,078	502,292
-13,892	7,512	939,388	501,861
-12,877	7,501	938,737	501,460
-11,863	7,458	938,241	501,036
-10,848	7,516	937,752	500,939
-9,833	7,589	937,129	500,820
-8,819	7,576	936,422	500,380
-7,804	7,542	935,956	500,005
-6,790	7,500	935,252	499,475
-5,775	7,529	934,802	499,307
-4,760	7,624	934,223	499,278
-3,746	7,559	933,709	498,779
-2,731	7,418	932,932	497,897
-1,717	7,338	932,491	497,391
-0,702	7,402	931,679	497,140
0,313	7,267	930,727	496,955
1,327	10,489	928,634	505,924
2,342	18,954	776,673	445,235
3,356	13,887	445,439	247,741
4,371	-12,091	310,775	145,364
5,386	-15,788	293,361	133,490
6,400	-17,953	287,450	128,653
7,415	-17,934	284,635	127,401
8,429	-18,783	282,946	125,810
9,444	-18,672	282,237	125,590
10,459	-18,713	281,479	125,203
11,473	-18,767	280,964	124,910
12,488	-18,668	280,425	124,755
13,502	-18,817	280,001	124,412
14,517	-18,616	279,449	124,348
15,531	-18,563	279,060	124,214
16,546	-18,583	278,672	124,012
17,561	-18,458	278,360	123,981
18,575	-18,343	278,055	123,943
19,590	-18,451	277,632	123,641
20,604	-18,459	277,350	123,497
21,619	-18,353	276,995	123,429
22,634	-18,381	276,637	123,232
23,648	-18,345	276,232	123,074
24,663	-18,484	276,127	122,885
25,677	-18,375	275,663	122,770
26,692	-18,377	275,655	122,754
27,707	-18,437	275,226	122,495
28,721	-18,397	274,977	122,411
29,736	-18,243	274,704	122,424
30,750	-18,581	274,594	122,047
31,765	-18,448	274,213	121,991
32,780	-18,402	273,928	121,896
33,794	-18,295	273,705	121,886
34,809	-18,528	273,607	121,613
35,823	-18,461	273,154	121,464
36,838	-18,611	272,947	121,221
37,853	-18,533	272,762	121,201
38,867	-18,387	272,371	121,153
39,882	-18,307	272,421	121,239
40,896	-18,377	271,979	120,966
41,911	-18,417	271,714	120,801
42,926	-18,281	271,493	120,817
43,940	-18,469	271,331	120,561
44,955	-18,397	271,023	120,479
45,969	-18,371	270,781	120,385
46,984	-18,292	270,694	120,408
47,999	-18,191	270,442	120,379
49,013	-18,168	270,175	120,270
50,028	-18,258	270,098	120,142
51,042	-18,065	269,760	120,160
52,057	-18,220	269,498	119,889
53,071	-18,158	269,290	119,843
54,086	-18,344	269,211	119,627
55,101	-18,039	268,835	119,728
56,115	-18,247	268,684	119,460
57,130	-18,387	268,315	119,157
58,144	-18,472	268,242	119,036
59,159	-18,400	267,847	118,916
60,174	-18,399	267,682	118,833
61,188	-18,457	267,354	118,624
62,203	-18,507	267,227	118,511
63,217	-18,326	266,895	118,519
64,232	-18,444	266,801	118,359
65,247	-18,499	266,425	118,131
66,261	-18,506	266,288	118,054
67,276	-18,316	266,030	118,101
68,290	-18,249	265,675	117,994
69,305	-18,362	265,599	117,847
70,320	-18,196	265,352	117,877
71,334	-18,383	265,137	117,602
72,349	-18,290	264,954	117,595
73,363	-18,296	264,640	117,440
74,378	-18,424	264,374	117,195
75,393	-18,335	264,317	117,240
76,407	-18,357	263,998	117,068
77,422	-18,347	263,874	117,012
78,436	-18,228	263,494	116,939
79,451	-18,129	263,179	116,878
80,466	-18,310	263,080	116,662
81,480	-18,352	262,883	116,526
82,495	-18,338	262,633	116,418
83,509	-18,213	262,505	116,462
84,524	-18,384	262,478	116,287
85,539	-18,445	262,201	116,100
86,553	-18,217	262,095	116,246
87,568	-18,327	261,698	115,961
88,582	-18,336	261,472	115,843
89,597	-18,171	261,095	115,812
90,611	-18,281	261,109	115,710
91,626	-18,336	260,815	115,521
92,641	-18,491	260,677	115,311
93,655	-18,374	260,376	115,272
94,670	-18,323	260,044	115,160
95,684	-18,267	259,833	115,106
96,699	-18,385	259,780	114,968
97,714	-18,335	259,590	114,918
98,728	-18,194	259,308	114,906
99,743	-18,319	259,266	114,768
100,757	-18,110	258,980	114,815
101,772	-18,152	258,769	114,674
102,787	-18,290	258,525	114,434
103,801	-18,411	258,354	114,242
104,816	-18,250	258,075	114,250
105,830	-18,240	257,854	114,150
106,845	-18,330	257,720	114,003
107,860	-18,296	257,347	113,857
108,874	-18,337	257,239	113,763
109,889	-18,264	257,062	113,738
110,903	-18,414	256,815	113,488
111,918	-18,321	256,815	113,559
112,933	-18,268	256,428	113,424
113,947	-18,268	256,200	113,313
114,962	-18,209	255,978	113,256
115,976	-18,318	255,756	113,053
116,991	-18,280	255,642	113,026
118,006	-18,182	255,455	113,018
119,020	-18,251	255,249	112,856
120,035	-18,268	255,250	112,832
121,049	-18,434	254,995	112,566
122,064	-18,411	254,828	112,502
123,079	-18,357	254,589	112,433
124,093	-18,279	254,318	112,371
125,108	-18,365	254,182	112,226
126,122	-17,966	253,860	112,418
127,137	-18,190	253,849	112,210
128,151	-18,234	253,587	112,047
129,166	-18,273	253,414	111,926
130,181	-18,195	253,241	111,908
131,195	-18,243	252,881	111,697
132,210	-18,345	252,902	111,609
133,224	-18,291	252,570	111,498
134,239	-18,166	252,201	111,433
135,254	-18,334	252,008	111,194
136,268	-18,151	251,784	111,241
137,283	-18,046	251,726	111,296
138,297	-18,071	251,609	111,213
139,312	-18,169	251,342	111,001
140,327	-18,193	250,933	110,790
141,341	-18,231	250,970	110,764
142,356	-18,205	250,669	110,644
143,370	-18,387	250,561	110,431
144,385	-18,290	250,369	110,419
145,400	-18,434	250,203	110,214
146,414	-18,128	249,953	110,354
147,429	-18,164	249,562	110,141
148,443	-18,162	249,560	110,131
149,458	-18,277	249,576	110,031
150,473	-18,282	249,253	109,875
151,487	-18,235	249,025	109,804
152,502	-18,350	248,923	109,653
153,516	-18,318	248,529	109,496
154,531	-18,281	248,436	109,476
155,546	-18,218	248,308	109,463
156,560	-18,144	248,125	109,435
157,575	-18,333	247,957	109,193
158,589	-18,347	247,811	109,107
159,604	-18,215	247,580	109,106
160,619	-18,355	247,460	108,926
161,633	-18,507	247,341	108,737
162,648	-18,323	247,072	108,763
163,662	-18,536	246,865	108,484
164,677	-18,231	246,719	108,665
165,692	-18,274	246,570	108,554
166,706	-18,069	246,315	108,602
167,721	-18,148	246,100	108,432
168,735	-18,461	246,036	108,134
169,750	-18,246	245,933	108,258
170,764	-18,155	245,776	108,254
171,779	-18,090	245,474	108,166
172,794	-18,181	245,397	108,047
173,808	-18,012	245,180	108,082
174,823	-18,182	244,970	107,839
175,837	-18,172	244,841	107,781
176,852	-18,093	244,653	107,754
177,867	-18,279	244,594	107,565
178,881	-18,112	244,332	107,577
179,896	-18,169	244,188	107,457
180,910	-18,245	243,813	107,221
181,925	-18,241	243,787	107,202
182,940	-18,201	243,491	107,095
183,954	-18,242	243,491	107,052
184,969	-18,276	243,374	106,964
185,983	-18,098	243,148	107,000
186,998	-18,212	242,925	106,799
188,013	-18,373	242,846	106,624
189,027	-18,259	242,517	106,562
190,042	-18,369	242,157	106,305
191,056	-18,116	242,062	106,461
192,071	-18,222	242,008	106,341
193,086	-18,302	241,780	106,166
194,100	-18,085	241,601	106,255
195,115	-18,204	241,469	106,090
196,129	-18,349	241,226	105,856
197,144	-18,427	241,169	105,758
198,159	-18,335	240,969	105,736
199,173	-18,171	240,661	105,724
200,188	-18,360	240,509	105,495
201,202	-18,055	240,424	105,695
202,217	-18,044	240,383	105,677
203,232	-18,159	240,119	105,458
204,246	-18,326	239,863	105,201
205,261	-18,429	239,548	104,971
206,275	-17,117	239,973	106,208
207,290	-12,511	241,577	110,657
208,304	-5,879	243,763	117,083
209,319	-2,453	244,780	120,372
210,334	-1,210	245,063	121,520
211,348	-0,154	245,172	122,430
212,363	0,170	245,120	122,659
213,377	0,285	244,892	122,628
214,392	0,498	245,174	122,933
215,407	0,685	244,944	122,959
216,421	1,002	244,830	123,151
217,436	1,177	244,582	123,158
218,450	1,121	244,486	123,053
219,465	1,050	244,375	122,928
220,480	1,205	244,284	122,998
221,494	1,195	243,927	122,799
222,509	0,909	243,657	122,420
223,523	0,714	243,458	122,150
224,538	0,658	243,149	121,939
225,553	0,592	242,997	121,798
226,567	0,648	242,817	121,742
227,582	0,531	242,652	121,554
228,596	0,476	242,635	121,490
229,611	0,459	242,515	121,406
230,626	0,418	242,388	121,298
231,640	0,450	242,144	121,191
232,655	0,469	241,960	121,104
233,669	0,431	241,802	120,982
234,684	0,461	241,648	120,919
235,699	0,529	241,489	120,883
236,713	0,389	241,350	120,691
237,728	0,578	241,182	120,748
238,742	0,426	240,979	120,513
239,757	0,500	240,799	120,472
240,772	0,645	240,595	120,475
241,786	0,432	240,580	120,287
242,801	0,588	240,374	120,298
243,815	0,490	240,243	120,142
244,830	0,397	240,039	119,956
245,844	0,385	239,800	119,816
246,859	0,528	239,756	119,897
247,874	0,455	239,603	119,752
248,888	0,716	239,403	119,850
249,903	0,300	239,453	119,532
250,917	0,462	239,144	119,496
251,932	0,641	239,047	119,579
252,947	0,676	238,785	119,466
253,961	0,551	238,808	119,367
254,976	0,594	238,483	119,228
255,990	0,570	238,531	119,222
257,005	0,435	238,265	118,972
258,020	0,514	238,109	118,946
259,034	0,608	237,941	118,926
260,049	0,541	237,719	118,751
261,063	0,605	237,553	118,708
262,078	0,527	237,485	118,602
263,093	0,402	237,331	118,416
264,107	0,415	237,272	118,386
265,122	0,567	236,966	118,343
266,136	0,507	236,842	118,223
267,151	0,549	236,634	118,142
268,166	0,564	236,397	118,025
269,180	0,293	236,365	117,785
270,195	0,294	236,191	117,689
271,209	0,591	235,976	117,804
272,224	0,542	235,857	117,695
273,239	0,613	235,740	117,683
274,253	0,361	235,638	117,423
275,268	0,438	235,359	117,334
276,282	0,479	235,315	117,335
277,297	0,566	235,112	117,290
278,312	0,457	235,026	117,152
279,326	0,491	234,845	117,077
280,341	0,693	234,725	117,165
281,355	0,426	234,667	116,917
282,370	0,805	234,416	117,077
283,384	0,436	234,313	116,728
284,399	0,686	233,987	116,749
285,414	0,436	233,815	116,459
286,428	0,470	233,815	116,476
287,443	0,561	233,655	116,456
288,457	0,538	233,488	116,344
289,472	0,395	233,299	116,129
290,487	0,639	233,107	116,212
291,501	0,488	233,017	116,040
292,516	0,598	232,848	116,031
293,530	0,597	232,766	115,979
294,545	0,674	232,585	115,937
295,560	0,513	232,590	115,805
296,574	0,718	232,369	115,843
297,589	0,670	232,201	115,711
298,603	0,846	232,008	115,741
299,618	0,648	231,779	115,464
300,633	0,628	231,754	115,426
301,647	0,779	231,554	115,431
302,662	0,883	231,339	115,394
303,676	0,889	231,249	115,344
304,691	0,695	231,203	115,161
305,706	0,806	231,058	115,164
306,720	0,827	230,818	115,051
307,735	0,881	230,711	115,028
308,749	0,758	230,666	114,901
309,764	0,765	230,543	114,835
310,779	0,708	230,367	114,694
311,793	0,681	230,149	114,554
312,808	0,679	229,996	114,466
313,822	0,826	229,749	114,446
314,837	0,967	229,754	114,545
315,852	0,786	229,556	114,298
316,866	0,878	229,330	114,245
317,881	0,790	229,234	114,121
318,895	0,866	229,049	114,076
319,910	0,780	228,913	113,932
320,925	0,838	228,843	113,932
321,939	0,823	228,541	113,760
322,954	0,948	228,405	113,776
323,968	0,858	228,323	113,657
324,983	0,816	228,259	113,584
325,997	0,423	228,135	113,216
327,012	0,825	228,021	113,452
328,027	0,890	227,719	113,341
329,041	0,826	227,581	113,214
330,056	0,956	227,461	113,242
331,070	0,632	227,355	112,935
332,085	0,936	227,098	113,026
333,100	0,889	227,017	112,940
334,114	0,719	226,816	112,702
335,129	0,719	226,641	112,606
336,143	0,811	226,498	112,593
337,158	0,880	226,502	112,637
338,173	1,021	226,329	112,647
339,187	0,875	226,210	112,468
340,202	0,898	226,173	112,456
341,216	0,865	225,971	112,322
342,231	1,074	225,722	112,343
343,246	1,077	225,567	112,258
344,260	0,852	225,478	112,037
345,275	0,951	225,329	112,027
346,289	1,124	225,130	112,046
347,304	1,048	225,150	111,990
348,319	0,999	224,944	111,841
349,333	0,962	224,763	111,714
350,348	0,889	224,616	111,576
351,362	1,001	224,485	111,584
352,377	0,966	224,402	111,507
353,392	0,790	224,289	111,311
354,406	0,826	224,125	111,246
355,421	192,116	1311,206	1376,449
356,435	153,849	1443,499	1376,285
