DTS Sentinel unit serial number:	SN410029Multiplexer serial number:	ORYXHardware model number:	OX2-SRSoftware version number:	ORYX F/W v4,00 Oryx Data Collector v3.7.2.0data status	okinstallation	B5 Nyhavnadifferential loss correction	single-endedforward channel	channel 2reverse channel	N/Adate	2023/12/12time	16:27:13forward acquisition time	300,00reverse acquisition time	0,00gamma	499,1914k internal	0,3156k external	0,3156temperature offset calibration	1,0000default loss term (dB/km)	0,3820temperature slope calibration	1,0000multiplexer offset coefficient	1,0000multiplexer slope coefficient	1,0000fibre end	0,00T internal ref (°C)	15,87T ext. ref 1 (°C)	-0,63T ext. ref 2 (°C)	-0,93length (m)	temperature (°C)	Stokes	anti-Stokes-744,400	-26,674	0,204	0,088
-743,385	51,062	-0,259	0,181
-742,371	-64,184	0,150	0,045
-741,356	-105,106	-0,297	0,050
-740,342	-137,894	0,055	-0,005
-739,327	-178,972	-0,330	0,005
-738,312	800,000	0,037	-0,076
-737,298	-16,671	-0,234	-0,109
-736,283	-200,000	-0,007	0,146
-735,269	-16,061	-0,188	0,088
-734,254	71,002	0,076	0,058
-733,239	-121,497	-0,377	-0,046
-732,225	-134,470	0,303	0,027
-731,210	334,505	-0,137	0,196
-730,196	538,966	0,040	-0,071
-729,181	-143,590	-0,170	0,012
-728,167	32,243	-0,095	-0,060
-727,152	63,276	0,062	0,046
-726,137	-5,610	-0,111	0,056
-725,123	800,000	-0,050	-0,106
-724,108	800,000	0,027	0,057
-723,094	58,726	-0,083	-0,060
-722,079	433,102	0,040	-0,065
-721,064	-144,513	-0,136	-0,009
-720,050	-200,000	0,004	-0,015
-719,035	384,052	0,095	0,145
-718,021	776,151	-0,062	-0,125
-717,006	18,299	-0,134	0,079
-715,991	157,134	-0,031	-0,031
-714,977	-33,653	-0,058	-0,024
-713,962	371,420	0,035	-0,052
-712,948	800,000	0,011	-0,023
-711,933	800,000	-0,032	-0,085
-710,918	800,000	0,015	0,037
-709,904	-72,968	-0,200	-0,054
-708,889	312,955	-0,090	-0,124
-707,875	-200,000	0,007	0,086
-706,860	536,569	0,027	-0,047
-705,845	-62,341	-0,088	-0,027
-704,831	800,000	-0,049	-0,100
-703,816	-70,546	0,142	0,039
-702,802	209,689	0,088	0,102
-701,787	800,000	0,022	0,067
-700,772	266,353	-0,017	-0,022
-699,758	362,601	-0,074	-0,110
-698,743	-156,032	0,074	-0,003
-697,729	-200,000	-0,020	0,128
-696,714	-80,816	-0,012	0,003
-695,699	-34,241	-0,212	0,085
-694,685	-54,556	-0,120	0,040
-693,670	-184,174	-0,024	-0,000
-692,656	800,000	-0,035	0,102
-691,641	-200,000	-0,019	0,186
-690,627	9,023	-0,065	0,036
-689,612	66,245	0,131	0,098
-688,597	745,245	0,037	-0,073
-687,583	-72,147	0,141	-0,038
-686,568	800,000	-0,035	0,076
-685,554	-165,557	-0,061	-0,002
-684,539	-200,000	0,002	-0,066
-683,524	35,843	0,050	-0,032
-682,510	102,350	0,014	0,012
-681,495	95,258	-0,014	-0,011
-680,481	-29,843	-0,040	0,017
-679,466	167,444	-0,064	-0,067
-678,451	-17,568	-0,092	-0,042
-677,437	-82,780	0,075	-0,018
-676,422	-65,505	-0,002	0,000
-675,408	-200,000	0,001	-0,050
-674,393	343,970	0,075	0,109
-673,378	-118,360	-0,099	-0,013
-672,364	379,261	-0,033	-0,049
-671,349	211,919	0,029	-0,034
-670,335	117,810	0,029	-0,026
-669,320	129,915	-0,023	0,022
-668,305	-44,452	-0,150	0,055
-667,291	-200,000	0,008	-0,086
-666,276	136,389	0,051	-0,049
-665,262	-200,000	0,008	-0,105
-664,247	-200,000	-0,029	-0,165
-663,232	443,050	0,042	0,069
-662,218	71,417	-0,047	-0,035
-661,203	-200,000	0,002	-0,106
-660,189	56,060	-0,047	0,034
-659,174	300,688	-0,068	-0,093
-658,159	-123,781	-0,051	0,006
-657,145	-200,000	0,002	-0,135
-656,130	-44,053	0,107	0,039
-655,116	148,055	-0,093	0,092
-654,101	0,116	0,115	-0,060
-653,086	218,368	-0,123	-0,144
-652,072	542,638	-0,021	0,036
-651,057	-200,000	-0,016	0,073
-650,043	800,000	0,035	-0,107
-649,028	-200,000	0,010	0,047
-648,014	340,460	0,081	-0,116
-646,999	209,958	-0,107	-0,124
-645,984	-69,648	0,118	0,033
-644,970	-46,506	-0,311	-0,112
-643,955	349,282	0,028	-0,040
-642,941	368,255	-0,026	-0,038
-641,926	570,288	-0,035	-0,062
-640,911	382,465	0,033	0,049
-639,897	560,843	-0,015	0,027
-638,882	110,807	0,048	-0,042
-637,868	-200,000	0,002	-0,205
-636,853	527,525	-0,060	0,105
-635,838	13,225	-0,093	-0,053
-634,824	-105,891	0,033	0,005
-633,809	-200,000	-0,012	0,080
-632,795	800,000	0,069	-0,145
-631,780	134,608	0,094	0,090
-630,765	-110,562	0,010	-0,001
-629,751	-200,000	0,013	-0,086
-628,736	33,689	-0,136	-0,087
-627,722	39,756	0,043	0,028
-626,707	-157,870	0,044	0,002
-625,692	800,000	0,020	-0,052
-624,678	206,916	0,117	-0,135
-623,663	798,958	-0,044	0,090
-622,649	-200,000	0,008	0,078
-621,634	67,319	-0,066	0,049
-620,619	-162,283	-0,173	-0,006
-619,605	-83,180	-0,017	-0,004
-618,590	458,140	0,092	0,151
-617,576	27,429	0,114	0,070
-616,561	-155,445	0,046	-0,002
-615,546	443,306	0,103	-0,166
-614,532	800,000	0,028	-0,058
-613,517	-38,331	0,035	-0,014
-612,503	22,375	-0,091	-0,054
-611,488	800,000	-0,022	0,054
-610,474	81,383	0,214	0,170
-609,459	-200,000	-0,001	0,120
-608,444	16,417	-0,092	-0,053
-607,430	-160,113	-0,112	0,004
-606,415	763,186	0,054	0,109
-605,401	736,774	-0,035	0,069
-604,386	-26,140	-0,174	0,075
-603,371	-200,000	-0,004	0,019
-602,357	45,908	-0,112	0,076
-601,342	116,471	0,047	-0,042
-600,328	-200,000	-0,021	-0,144
-599,313	48,820	-0,037	-0,025
-598,298	-27,820	-0,026	0,011
-597,284	0,804	-0,099	-0,052
-596,269	-200,000	0,019	-0,106
-595,255	800,000	0,059	0,138
-594,240	-51,343	-0,083	-0,028
-593,225	457,707	0,028	-0,046
-592,211	800,000	0,070	-0,156
-591,196	36,346	0,048	0,031
-590,182	229,864	-0,034	0,040
-589,167	277,622	0,077	0,100
-588,152	-105,372	-0,098	-0,016
-587,138	800,000	0,028	-0,073
-586,123	-47,424	-0,095	0,034
-585,109	-200,000	-0,028	-0,129
-584,094	523,849	0,062	-0,107
-583,079	-18,023	-0,113	-0,052
-582,065	408,313	0,059	0,092
-581,050	-200,000	-0,005	-0,081
-580,036	5,351	0,057	-0,031
-579,021	75,763	-0,044	-0,034
-578,006	-125,691	-0,135	0,015
-576,992	800,000	0,042	0,126
-575,977	-78,200	0,139	-0,035
-574,963	-200,000	0,016	0,188
-573,948	800,000	0,033	-0,073
-572,934	-174,632	-0,140	-0,003
-571,919	-67,690	-0,112	0,032
-570,904	159,447	-0,073	-0,075
-569,890	99,641	-0,090	-0,077
-568,875	-200,000	-0,025	0,086
-567,861	800,000	-0,014	0,035
-566,846	26,904	-0,076	-0,047
-565,831	95,734	-0,088	-0,073
-564,817	-132,858	0,032	-0,003
-563,802	113,032	-0,104	0,092
-562,788	-200,000	0,005	0,081
-561,773	-97,364	0,097	-0,018
-560,758	-196,344	0,102	0,000
-559,744	-200,000	0,009	0,056
-558,729	-200,000	0,005	0,091
-557,715	126,233	-0,049	-0,045
-556,700	-90,941	-0,045	-0,009
-555,685	336,800	-0,036	0,052
-554,671	-200,000	0,015	-0,107
-553,656	-111,605	-0,092	0,014
-552,642	-200,000	-0,002	0,104
-551,627	25,216	-0,063	0,038
-550,612	76,406	-0,040	-0,031
-549,598	-200,000	-0,019	-0,084
-548,583	165,892	-0,043	-0,045
-547,569	-200,000	-0,004	-0,056
-546,554	480,457	0,067	0,112
-545,539	-114,765	0,082	0,011
-544,525	-80,099	-0,075	0,018
-543,510	-200,000	-0,001	-0,080
-542,496	454,478	-0,075	0,122
-541,481	100,772	-0,134	-0,114
-540,466	-200,000	0,005	-0,076
-539,452	-25,796	0,095	-0,041
-538,437	464,484	0,042	0,069
-537,423	-129,422	-0,059	0,006
-536,408	-200,000	-0,009	-0,040
-535,393	105,154	-0,059	0,051
-534,379	-200,000	-0,033	0,121
-533,364	451,752	0,042	-0,068
-532,350	518,525	0,070	0,120
-531,335	46,819	-0,008	0,006
-530,321	-15,019	-0,076	0,035
-529,306	-54,213	-0,156	-0,051
-528,291	326,170	-0,059	-0,082
-527,277	89,297	-0,021	-0,017
-526,262	800,000	0,058	0,157
-525,248	-185,623	-0,063	0,001
-524,233	63,024	-0,055	0,040
-523,218	464,833	0,063	0,103
-522,204	631,106	0,050	-0,093
-521,189	88,663	-0,128	-0,104
-520,175	-75,188	-0,031	0,008
-519,160	-108,299	-0,165	0,026
-518,145	-85,408	0,191	-0,043
-517,131	66,691	-0,070	0,052
-516,116	317,804	-0,076	0,105
-515,102	800,000	-0,021	0,053
-514,087	-97,854	-0,043	0,008
-513,072	109,191	-0,086	0,075
-512,058	102,150	0,101	-0,086
-511,043	-200,000	0,003	0,051
-510,029	158,788	0,090	0,091
-509,014	-45,655	0,034	-0,012
-507,999	334,893	0,044	0,062
-506,985	-68,953	0,094	-0,026
-505,970	207,979	-0,081	-0,093
-504,956	-200,000	0,015	0,091
-503,941	261,977	0,087	-0,110
-502,926	-28,597	-0,114	0,048
-501,912	-13,188	0,123	0,058
-500,897	-109,562	-0,051	0,008
-499,883	70,494	0,043	0,033
-498,868	800,000	0,039	-0,114
-497,853	99,094	-0,064	-0,054
-496,839	104,721	0,107	0,092
-495,824	-106,485	0,091	-0,015
-494,810	58,880	-0,012	-0,009
-493,795	77,701	-0,040	-0,031
-492,781	800,000	0,026	0,055
-491,766	84,749	-0,030	-0,024
-490,751	-11,289	-0,025	-0,012
-489,737	800,000	-0,037	0,114
-488,722	138,906	-0,020	-0,019
-487,708	48,308	-0,088	0,060
-486,693	174,933	0,095	0,101
-485,678	-200,000	0,024	0,144
-484,664	-200,000	-0,008	0,054
-483,649	800,000	0,033	0,072
-482,635	226,699	-0,025	-0,029
-481,620	127,571	0,053	0,049
-480,605	800,000	-0,017	0,044
-479,591	91,580	0,060	0,049
-478,576	163,142	0,089	-0,091
-477,562	-99,482	0,139	-0,025
-476,547	-200,000	-0,017	-0,128
-475,532	-200,000	-0,233	-0,000
-474,518	-101,153	0,040	0,007
-473,503	26,938	0,061	0,038
-472,489	162,282	0,078	0,080
-471,474	56,829	-0,053	0,038
-470,459	31,377	-0,163	0,102
-469,445	-120,312	0,087	0,011
-468,430	145,697	-0,012	-0,012
-467,416	-77,188	0,124	0,031
-466,401	10,323	0,042	-0,023
-465,386	-200,000	-0,019	-0,088
-464,372	51,304	0,045	0,031
-463,357	548,553	-0,051	-0,089
-462,343	-38,143	0,047	-0,018
-461,328	-200,000	-0,003	-0,065
-460,313	-200,000	-0,011	-0,072
-459,299	-200,000	0,029	-0,141
-458,284	-200,000	0,042	0,208
-457,270	-200,000	-0,008	0,038
-456,255	800,000	-0,010	0,032
-455,241	799,660	-0,039	-0,079
-454,226	800,000	0,019	0,057
-453,211	121,738	-0,066	-0,060
-452,197	-159,551	-0,091	-0,004
-451,182	-173,715	-0,145	0,003
-450,168	147,354	0,113	0,111
-449,153	800,000	-0,076	0,165
-448,138	-200,000	-0,013	-0,172
-447,124	-60,104	0,120	0,037
-446,109	298,954	0,056	0,075
-445,095	-200,000	-0,014	0,052
-444,080	800,000	-0,050	0,123
-443,065	-130,575	0,049	-0,005
-442,051	14,376	0,097	0,055
-441,036	-98,741	0,047	0,009
-440,022	-41,663	-0,062	0,023
-439,007	588,100	0,037	0,067
-437,992	-51,817	0,028	-0,009
-436,978	128,111	0,064	-0,059
-435,963	-1,544	0,056	-0,028
-434,949	800,000	-0,043	-0,137
-433,934	-112,431	0,124	-0,018
-432,919	242,367	0,062	-0,076
-431,905	169,477	-0,113	-0,118
-430,890	382,651	-0,100	0,151
-429,876	-200,000	0,021	0,147
-428,861	-24,435	0,122	0,053
-427,846	-30,828	-0,079	0,032
-426,832	-200,000	-0,006	0,028
-425,817	-200,000	-0,021	-0,086
-424,803	131,876	-0,042	-0,040
-423,788	-200,000	0,023	0,139
-422,773	39,586	0,054	-0,035
-421,759	-149,810	-0,093	0,005
-420,744	-200,000	0,025	0,086
-419,730	315,552	-0,097	-0,134
-418,715	-200,000	0,013	0,051
-417,701	203,130	-0,090	0,102
-416,686	-200,000	0,038	0,129
-415,671	171,631	-0,105	0,110
-414,657	-88,738	-0,089	-0,019
-413,642	-200,000	-0,046	0,167
-412,628	800,000	0,058	-0,147
-411,613	-160,490	-0,095	-0,004
-410,598	-77,279	0,082	0,021
-409,584	462,704	-0,038	0,062
-408,569	174,866	-0,079	0,083
-407,555	-200,000	0,009	-0,042
-406,540	-200,000	-0,007	-0,024
-405,525	203,773	-0,086	0,097
-404,511	104,742	-0,089	0,076
-403,496	-200,000	0,008	-0,063
-402,482	70,652	0,076	0,057
-401,467	207,304	-0,056	0,064
-400,452	-140,865	-0,012	-0,001
-399,438	-124,090	-0,164	0,018
-398,423	206,844	0,126	-0,143
-397,409	800,000	0,054	-0,123
-396,394	-89,499	0,042	-0,009
-395,379	800,000	0,028	0,069
-394,365	517,345	0,077	0,132
-393,350	800,000	0,032	0,076
-392,336	464,071	0,037	-0,060
-391,321	-3,586	0,062	0,031
-390,306	-99,937	-0,236	0,042
-389,292	490,495	0,116	-0,193
-388,277	182,046	0,006	0,007
-387,263	-116,593	0,118	0,016
-386,248	89,896	0,021	-0,017
-385,233	-120,146	0,129	-0,016
-384,219	42,470	0,128	-0,085
-383,204	566,581	-0,054	-0,095
-382,190	366,975	0,053	-0,077
-381,175	338,783	0,113	-0,160
-380,160	301,101	0,047	0,063
-379,146	540,923	0,050	-0,087
-378,131	39,392	-0,047	0,030
-377,117	-200,000	-0,035	0,189
-376,102	-97,788	-0,039	-0,007
-375,088	78,554	0,055	-0,043
-374,073	382,751	0,087	0,131
-373,058	-20,105	0,045	0,020
-372,044	-200,000	0,015	-0,059
-371,029	-4,967	-0,142	-0,071
-370,015	-159,404	0,121	0,005
-369,000	69,296	-0,033	-0,024
-367,985	30,868	-0,068	0,042
-366,971	22,776	0,037	-0,022
-365,956	800,000	-0,003	-0,006
-364,942	-57,117	0,079	-0,025
-363,927	-200,000	-0,020	0,157
-362,912	80,717	0,118	-0,093
-361,898	268,401	0,012	0,016
-360,883	-41,648	0,094	-0,035
-359,869	800,000	-0,006	-0,016
-358,854	800,000	0,068	-0,203
-357,839	642,613	-0,018	0,033
-356,825	-89,327	0,137	-0,029
-355,810	-30,681	-0,027	-0,011
-354,796	-200,000	-0,054	-0,174
-353,781	14,000	-0,052	0,029
-352,766	149,358	-0,044	-0,043
-351,752	-189,505	-0,113	0,001
-350,737	-200,000	-0,012	0,050
-349,723	-200,000	-0,017	0,131
-348,708	180,585	-0,052	0,055
-347,693	-200,000	0,017	-0,107
-346,679	-5,669	-0,092	-0,046
-345,664	589,490	-0,067	-0,121
-344,650	-99,009	0,095	0,017
-343,635	159,893	0,088	-0,089
-342,620	66,184	0,165	0,121
-341,606	-161,236	0,089	-0,003
-340,591	-83,903	-0,170	-0,039
-339,577	95,527	0,068	-0,056
-338,562	103,024	-0,031	-0,027
-337,548	-200,000	-0,004	-0,088
-336,533	251,041	0,059	0,074
-335,518	-200,000	-0,018	0,155
-334,504	150,791	0,073	0,072
-333,489	-200,000	0,019	-0,074
-332,475	457,512	-0,044	0,072
-331,460	45,513	0,054	-0,036
-330,445	134,707	0,066	-0,062
-329,431	-156,293	-0,054	-0,002
-328,416	729,734	0,056	-0,109
-327,402	229,368	0,067	-0,080
-326,387	-200,000	-0,002	0,097
-325,372	369,723	-0,080	0,118
-324,358	-200,000	-0,009	0,069
-323,343	489,908	-0,010	-0,016
-322,329	-92,309	0,117	-0,024
-321,314	-101,765	-0,046	-0,008
-320,299	-112,768	0,117	0,017
-319,285	70,932	0,055	0,041
-318,270	-58,122	-0,093	0,029
-317,256	98,570	-0,143	-0,120
-316,241	343,913	-0,018	0,026
-315,226	-200,000	0,026	-0,114
-314,212	20,568	0,122	0,071
-313,197	119,644	0,041	0,037
-312,183	180,654	-0,099	-0,106
-311,168	623,613	-0,009	0,017
-310,153	-200,000	0,016	0,152
-309,139	73,356	-0,045	-0,034
-308,124	109,333	0,021	0,018
-307,110	253,801	-0,042	0,052
-306,095	149,512	0,051	-0,050
-305,080	259,064	0,026	0,032
-304,066	326,847	0,078	-0,109
-303,051	219,550	-0,123	-0,143
-302,037	264,909	0,034	0,043
-301,022	176,372	0,072	-0,076
-300,008	-131,790	0,208	-0,020
-298,993	-142,821	0,117	-0,008
-297,978	800,000	-0,027	0,080
-296,964	-106,547	-0,035	0,006
-295,949	-143,035	-0,076	0,005
-294,935	61,753	-0,111	0,080
-293,920	-6,106	0,094	0,046
-292,905	-46,684	0,036	0,013
-291,891	-200,000	0,005	-0,070
-290,876	316,890	0,041	-0,056
-289,862	117,546	0,026	-0,023
-288,847	337,508	-0,085	-0,121
-287,832	111,784	0,033	-0,029
-286,818	164,686	0,038	-0,039
-285,803	-200,000	-0,021	0,093
-284,789	-200,000	0,025	0,100
-283,774	-145,830	0,164	0,010
-282,759	-89,592	-0,158	-0,033
-281,745	-158,818	-0,034	-0,001
-280,730	269,364	-0,080	-0,102
-279,716	-200,000	-0,026	0,084
-278,701	-29,593	-0,047	-0,019
-277,686	-200,000	0,005	0,039
-276,672	-79,736	-0,015	0,004
-275,657	-200,000	-0,014	0,078
-274,643	195,997	0,005	-0,006
-273,628	-76,701	-0,165	-0,042
-272,613	161,236	-0,120	-0,122
-271,599	366,837	-0,062	0,091
-270,584	-70,872	0,134	-0,036
-269,570	-200,000	0,021	0,081
-268,555	-200,000	-0,003	-0,150
-267,540	62,051	0,048	0,034
-266,526	-200,000	-0,036	-0,219
-265,511	-200,000	0,006	-0,136
-264,497	-200,000	-0,014	0,080
-263,482	-200,000	0,030	0,132
-262,467	160,522	0,110	-0,111
-261,453	-200,000	0,001	-0,010
-260,438	129,583	-0,029	-0,027
-259,424	-200,000	0,002	-0,060
-258,409	33,300	0,044	-0,027
-257,395	800,000	0,009	-0,025
-256,380	-33,592	0,116	0,046
-255,365	-33,565	0,195	-0,078
-254,351	13,226	0,093	0,052
-253,336	122,112	-0,042	-0,038
-252,322	234,214	-0,043	0,051
-251,307	472,557	-0,074	-0,120
-250,292	28,866	0,112	-0,069
-249,278	-200,000	0,010	0,061
-248,263	800,000	-0,051	0,158
-247,249	-200,000	-0,045	0,184
-246,234	124,949	0,079	-0,072
-245,219	-59,425	-0,009	-0,003
-244,205	-28,696	-0,095	-0,039
-243,190	-8,140	0,016	0,008
-242,176	-35,091	0,099	-0,039
-241,161	593,569	0,060	0,108
-240,146	477,755	0,032	-0,052
-239,132	-200,000	0,008	-0,104
-238,117	262,538	-0,073	-0,092
-237,103	56,147	0,051	-0,036
-236,088	-73,962	-0,108	-0,028
-235,073	-84,658	0,075	-0,017
-234,059	800,000	-0,046	0,097
-233,044	800,000	-0,040	0,083
-232,030	760,590	-0,035	0,068
-231,015	-113,128	-0,070	-0,010
-230,000	-71,279	-0,097	0,026
-228,986	-41,517	0,083	-0,031
-227,971	-10,110	-0,061	0,029
-226,957	26,726	-0,082	0,050
-225,942	560,058	0,048	0,084
-224,927	-200,000	0,007	0,104
-223,913	78,355	-0,050	-0,039
-222,898	-200,000	0,005	0,070
-221,884	-200,000	0,015	-0,082
-220,869	-130,653	-0,112	0,011
-219,855	-30,270	-0,095	0,039
-218,840	0,213	-0,032	-0,017
-217,825	670,103	-0,038	0,072
-216,811	133,877	-0,051	-0,048
-215,796	-55,085	-0,171	-0,055
-214,782	-57,355	0,081	-0,026
-213,767	-49,282	-0,128	-0,044
-212,752	9,721	0,069	0,038
-211,738	800,000	-0,098	0,216
-210,723	-24,282	-0,135	0,058
-209,709	427,108	-0,046	0,072
-208,694	-73,764	0,122	-0,032
-207,679	-23,468	-0,086	-0,037
-206,665	800,000	-0,052	0,110
-205,650	613,637	0,031	0,057
-204,636	-2,145	0,134	-0,068
-203,621	800,000	0,022	0,059
-202,606	-200,000	0,000	0,057
-201,592	800,000	0,031	-0,081
-200,577	772,090	0,020	-0,039
-199,563	-200,000	0,016	-0,053
-198,548	230,347	0,035	-0,042
-197,533	492,338	-0,016	0,027
-196,519	128,231	-0,045	-0,041
-195,504	147,433	-0,036	0,035
-194,490	147,771	-0,063	-0,062
-193,475	-200,000	0,002	-0,115
-192,460	-200,000	-0,039	0,143
-191,446	65,580	0,154	-0,112
-190,431	231,957	0,044	-0,052
-189,417	-10,123	0,105	-0,050
-188,402	125,359	-0,139	-0,127
-187,387	800,000	0,051	-0,116
-186,373	90,552	-0,073	-0,059
-185,358	169,008	-0,106	0,110
-184,344	3,986	-0,036	0,019
-183,329	383,117	0,063	0,093
-182,315	800,000	-0,027	0,072
-181,300	680,380	0,061	-0,114
-180,285	800,000	0,023	-0,047
-179,271	627,677	-0,026	-0,048
-178,256	461,357	0,086	-0,138
-177,242	47,316	0,045	0,030
-176,227	-17,121	0,078	0,035
-175,212	330,192	0,061	0,084
-174,198	83,911	0,048	-0,038
-173,183	-188,911	0,084	0,001
-172,169	488,272	-0,058	0,096
-171,154	800,000	-0,050	-0,116
-170,139	-200,000	0,024	-0,160
-169,125	-200,000	0,020	0,092
-168,110	800,000	0,072	0,183
-167,096	5,085	-0,021	0,011
-166,081	515,712	0,057	-0,096
-165,066	800,000	0,023	-0,051
-164,052	624,064	0,081	-0,148
-163,037	206,611	-0,062	0,070
-162,023	-20,340	0,188	-0,083
-161,008	-52,368	-0,037	-0,012
-159,993	800,000	0,013	-0,028
-158,979	-125,395	0,022	0,002
-157,964	-3,226	0,051	0,026
-156,950	-200,000	0,002	-0,071
-155,935	-99,242	0,091	-0,016
-154,920	208,704	0,013	0,014
-153,906	132,538	-0,027	0,025
-152,891	-105,772	-0,053	0,009
-151,877	298,532	-0,044	0,059
-150,862	462,009	-0,056	-0,090
-149,847	-115,626	-0,094	-0,013
-148,833	155,370	-0,106	-0,105
-147,818	-200,000	-0,009	0,064
-146,804	83,008	-0,030	-0,023
-145,789	-200,000	0,005	0,065
-144,775	72,379	-0,065	-0,049
-143,760	147,658	0,080	-0,078
-142,745	-137,033	-0,074	-0,006
-141,731	-116,673	0,174	0,023
-140,716	-53,518	0,073	0,024
-139,702	15,714	-0,136	0,077
-138,687	76,734	-0,005	0,004
-137,672	143,552	0,057	-0,055
-136,658	283,067	-0,026	0,034
-135,643	800,000	-0,025	-0,078
-134,629	189,254	-0,170	-0,184
-133,614	-200,000	0,020	-0,066
-132,599	-200,000	0,038	0,141
-131,585	-200,000	-0,002	-0,015
-130,570	102,568	0,043	-0,036
-129,556	349,504	-0,034	-0,048
-128,541	-200,000	-0,009	-0,107
-127,526	-8,141	-0,087	-0,042
-126,512	762,622	-0,041	-0,081
-125,497	-60,122	0,138	0,042
-124,483	-57,699	-0,095	-0,030
-123,468	-200,000	-0,020	0,150
-122,453	-56,119	-0,100	0,032
-121,439	800,000	0,032	-0,084
-120,424	-104,256	0,186	-0,031
-119,410	800,000	0,025	0,050
-118,395	-81,266	0,085	0,020
-117,380	800,000	-0,023	0,050
-116,366	-200,000	-0,008	-0,032
-115,351	-58,251	0,046	-0,014
-114,337	-148,418	-0,094	-0,005
-113,322	-200,000	-0,001	-0,060
-112,307	39,783	-0,042	0,027
-111,293	422,199	-0,032	-0,049
-110,278	800,000	0,010	-0,022
-109,264	-113,717	0,083	-0,012
-108,249	-89,325	-0,210	0,044
-107,234	75,048	0,091	-0,069
-106,220	168,102	-0,073	-0,075
-105,205	800,000	-0,017	0,050
-104,191	20,616	0,100	0,058
-103,176	800,000	-0,038	0,095
-102,162	-16,421	0,049	0,022
-101,147	800,000	0,013	-0,038
-100,132	25,446	0,099	0,059
-99,118	800,000	0,039	-0,081
-98,103	-200,000	0,004	-0,013
-97,089	466,082	-0,110	0,177
-96,074	126,279	0,090	0,081
-95,059	380,080	-0,055	0,081
-94,045	-200,000	-0,011	0,053
-93,030	171,374	0,084	0,086
-92,016	-79,558	-0,098	-0,024
-91,001	-86,426	-0,093	0,020
-89,986	-200,000	0,002	0,075
-88,972	-200,000	0,025	0,085
-87,957	-21,759	-0,076	-0,033
-86,943	38,141	0,060	-0,038
-85,928	-9,118	-0,072	-0,035
-84,913	529,324	-0,082	-0,139
-83,899	149,402	-0,043	-0,042
-82,884	459,509	-0,053	0,085
-81,870	109,689	0,069	0,060
-80,855	33,112	0,097	-0,060
-79,840	800,000	0,013	0,030
-78,826	-200,000	-0,044	-0,159
-77,811	-150,017	-0,164	-0,009
-76,797	330,422	0,024	-0,034
-75,782	-18,664	-0,073	0,032
-74,767	-68,664	-0,043	-0,012
-73,753	-72,057	-0,115	-0,030
-72,738	-200,000	0,005	-0,018
-71,724	-119,745	-0,170	-0,021
-70,709	-200,000	-0,012	-0,081
-69,694	-200,000	-0,019	-0,062
-68,680	21,487	-0,079	0,046
-67,665	140,196	0,020	0,019
-66,651	165,190	0,068	-0,069
-65,636	-143,014	-0,034	0,002
-64,622	-76,335	-0,137	0,034
-63,607	-61,224	-0,219	-0,066
-62,592	361,085	0,032	0,045
-61,578	-43,730	-0,091	-0,033
-60,563	783,646	0,054	0,107
-59,549	-200,000	0,019	0,073
-58,534	-5,295	-1,913	-0,941
-57,519	800,000	-0,324	-0,987
-56,505	-200,000	-1,122	-4,956
-55,490	49,989	0,654	0,442
-54,476	800,000	5,265	12,094
-53,461	-200,000	17,234	284,597
-52,446	800,000	723,193	2229,531
-51,432	544,123	1638,957	2820,438
-50,417	111,990	1630,974	1414,312
-49,403	76,244	1286,157	976,752
-48,388	32,800	1028,552	637,665
-47,373	20,295	990,540	572,827
-46,359	18,708	978,582	560,680
-45,344	16,187	974,667	550,155
-44,330	16,378	973,248	549,956
-43,315	15,913	971,352	547,342
-42,300	15,938	970,163	546,732
-41,286	15,835	969,163	545,812
-40,271	15,871	968,296	545,419
-39,257	15,930	967,318	545,039
-38,242	15,937	966,401	544,522
-37,227	15,963	965,511	544,083
-36,213	15,922	964,670	543,455
-35,198	15,912	963,929	542,986
-34,184	15,968	963,102	542,677
-33,169	15,855	962,172	541,768
-32,154	15,911	961,315	541,443
-31,140	15,892	960,412	540,854
-30,125	15,958	959,543	540,554
-29,111	15,907	958,847	539,976
-28,096	15,910	958,320	539,669
-27,082	15,906	957,508	539,178
-26,067	15,944	956,858	538,912
-25,052	15,976	956,035	538,529
-24,038	15,945	955,279	537,983
-23,023	15,884	954,748	537,466
-22,009	15,934	954,101	537,240
-20,994	15,869	953,462	536,653
-19,979	15,891	952,810	536,333
-18,965	15,873	952,374	536,011
-17,950	15,833	951,758	535,514
-16,936	15,857	950,838	535,050
-15,921	15,828	950,365	534,671
-14,906	15,781	949,448	533,986
-13,892	15,709	949,121	533,549
-12,877	15,747	948,445	533,270
-11,863	15,727	947,624	532,722
-10,848	15,753	947,222	532,557
-9,833	15,872	946,606	532,570
-8,819	15,789	946,197	532,054
-7,804	15,807	945,249	531,558
-6,790	15,784	944,692	531,150
-5,775	15,815	944,242	530,974
-4,760	15,818	943,612	530,607
-3,746	15,842	942,954	530,293
-2,731	15,664	942,141	529,253
-1,717	15,633	941,728	528,900
-0,702	15,643	940,830	528,407
0,313	15,486	940,215	528,362
1,327	18,606	938,065	536,948
2,342	27,403	795,479	478,673
3,356	24,297	459,499	271,720
4,371	-2,749	313,972	156,959
5,386	-7,036	295,894	143,575
6,400	-8,987	289,699	138,623
7,415	-9,435	287,232	136,989
8,429	-9,633	285,646	136,027
9,444	-9,607	284,818	135,646
10,459	-9,495	284,257	135,475
11,473	-9,411	283,502	135,185
12,488	-9,563	283,266	134,914
13,502	-9,321	282,542	134,790
14,517	-9,515	282,141	134,400
15,531	-9,407	281,716	134,290
16,546	-9,504	281,363	134,016
17,561	-9,448	280,986	133,879
18,575	-9,345	280,728	133,843
19,590	-9,556	280,235	133,394
20,604	-9,412	280,072	133,442
21,619	-9,541	279,761	133,158
22,634	-9,479	279,339	133,005
23,648	-9,508	278,993	132,800
24,663	-9,259	278,570	132,825
25,677	-9,530	278,526	132,534
26,692	-9,608	278,302	132,341
27,707	-9,397	277,820	132,300
28,721	-9,464	277,682	132,160
29,736	-9,359	277,314	132,072
30,750	-9,538	277,042	131,761
31,765	-9,486	276,951	131,756
32,780	-9,377	276,532	131,647
33,794	-9,431	276,512	131,575
34,809	-9,527	276,196	131,323
35,823	-9,260	275,635	131,296
36,838	-9,535	275,756	131,082
37,853	-9,500	275,407	130,938
38,867	-9,714	275,323	130,685
39,882	-9,651	275,091	130,622
40,896	-9,512	274,649	130,531
41,911	-9,500	274,488	130,454
42,926	-9,573	274,237	130,255
43,940	-9,622	274,075	130,120
44,955	-9,588	273,837	130,028
45,969	-9,555	273,549	129,910
46,984	-9,879	273,194	129,427
47,999	-10,004	273,136	129,273
49,013	-10,010	272,809	129,101
50,028	-10,015	272,407	128,894
51,042	-10,077	272,180	128,717
52,057	-10,157	271,867	128,484
53,071	-10,224	271,822	128,389
54,086	-10,073	271,533	128,381
55,101	-9,982	271,348	128,366
56,115	-9,761	271,238	128,507
57,130	-9,540	271,116	128,642
58,144	-9,505	270,915	128,568
59,159	-9,461	270,776	128,531
60,174	-9,344	270,406	128,452
61,188	-9,429	270,309	128,315
62,203	-9,557	269,997	128,038
63,217	-9,462	269,848	128,043
64,232	-9,416	269,500	127,909
65,247	-9,517	269,406	127,760
66,261	-9,481	269,210	127,689
67,276	-9,810	269,062	127,306
68,290	-9,899	268,609	126,999
69,305	-9,711	268,439	127,079
70,320	-9,772	268,281	126,938
71,334	-9,467	267,958	127,052
72,349	-9,520	267,897	126,963
73,363	-9,510	267,688	126,861
74,378	-9,639	267,555	126,669
75,393	-9,403	267,214	126,711
76,407	-9,400	266,976	126,590
77,422	-9,157	266,757	126,696
78,436	-9,378	266,561	126,390
79,451	-9,310	266,377	126,354
80,466	-9,512	266,084	126,021
81,480	-9,593	265,877	125,838
82,495	-9,620	265,695	125,717
83,509	-9,517	265,314	125,618
84,524	-9,554	265,240	125,538
85,539	-9,714	265,013	125,276
86,553	-10,005	264,860	124,930
87,568	-9,668	264,681	125,137
88,582	-9,697	264,496	125,013
89,597	-9,533	264,127	124,975
90,611	-9,457	264,139	125,038
91,626	-9,361	263,975	125,035
92,641	-9,520	263,675	124,739
93,655	-9,535	263,577	124,668
94,670	-9,424	263,104	124,532
95,684	-9,686	263,184	124,326
96,699	-9,419	262,866	124,403
97,714	-9,607	262,714	124,151
98,728	-9,777	262,438	123,858
99,743	-9,846	262,214	123,680
100,757	-9,742	261,903	123,615
101,772	-9,610	261,669	123,611
102,787	-9,656	261,686	123,567
103,801	-9,465	261,456	123,617
104,816	-9,496	261,282	123,496
105,830	-9,272	261,027	123,563
106,845	-9,257	260,930	123,519
107,860	-9,259	260,547	123,326
108,874	-9,557	260,601	123,076
109,889	-9,503	260,354	122,997
110,903	-9,474	260,078	122,881
111,918	-9,444	259,892	122,808
112,933	-9,527	259,682	122,625
113,947	-9,408	259,548	122,655
114,962	-9,529	259,339	122,439
115,976	-9,530	259,209	122,366
116,991	-9,177	258,887	122,513
118,006	-9,316	258,833	122,355
119,020	-9,700	258,805	121,994
120,035	-9,614	258,658	121,989
121,049	-9,292	258,299	122,090
122,064	-9,390	258,204	121,949
123,079	-9,433	258,004	121,806
124,093	-9,328	257,646	121,718
125,108	-9,604	257,390	121,345
126,122	-9,834	257,342	121,111
127,137	-9,879	257,006	120,904
128,151	-9,784	257,016	120,979
129,166	-9,428	256,702	121,131
130,181	-9,657	256,375	120,767
131,195	-9,591	256,187	120,725
132,210	-9,670	256,143	120,625
133,224	-9,329	255,939	120,814
134,239	-9,265	255,763	120,775
135,254	-9,367	255,510	120,556
136,268	-9,474	255,324	120,366
137,283	-9,575	255,075	120,150
138,297	-9,834	254,890	119,829
139,312	-9,943	254,863	119,712
140,327	-9,655	254,725	119,884
141,341	-9,363	254,390	119,968
142,356	-9,387	254,237	119,864
143,370	-9,143	254,103	120,000
144,385	-9,319	253,989	119,784
145,400	-9,387	253,768	119,610
146,414	-9,177	253,558	119,681
147,429	-9,273	253,425	119,525
148,443	-9,188	253,219	119,491
149,458	-9,218	253,091	119,393
150,473	-9,174	252,772	119,270
151,487	-9,371	252,585	119,003
152,502	-9,378	252,609	118,997
153,516	-9,330	252,371	118,916
154,531	-9,477	252,221	118,709
155,546	-9,422	251,982	118,633
156,560	-9,265	251,839	118,689
157,575	-9,395	251,671	118,488
158,589	-9,434	251,402	118,318
159,604	-9,331	251,146	118,275
160,619	-9,368	251,051	118,188
161,633	-9,464	250,889	118,020
162,648	-9,245	250,743	118,126
163,662	-9,364	250,625	117,960
164,677	-9,247	250,413	117,948
165,692	-9,316	250,217	117,787
166,706	-9,183	250,210	117,885
167,721	-9,270	249,947	117,677
168,735	-9,339	249,867	117,571
169,750	-9,147	249,605	117,599
170,764	-9,242	249,653	117,531
171,779	-9,254	249,272	117,331
172,794	-9,270	249,153	117,251
173,808	-9,235	249,010	117,203
174,823	-9,755	248,651	116,588
175,837	-9,987	248,549	116,335
176,852	-9,379	248,422	116,774
177,867	-9,335	248,397	116,789
178,881	-9,204	248,107	116,752
179,896	-9,221	247,979	116,667
180,910	-9,286	247,853	116,543
181,925	-9,201	247,608	116,488
182,940	-9,116	247,448	116,473
183,954	-9,199	247,242	116,296
184,969	-9,137	247,170	116,305
185,983	-9,046	246,890	116,238
186,998	-9,206	246,841	116,071
188,013	-8,932	246,591	116,171
189,027	-9,084	246,349	115,921
190,042	-9,331	246,176	115,624
191,056	-9,357	246,194	115,601
192,071	-9,357	245,923	115,463
193,086	-9,351	245,809	115,405
194,100	-9,227	245,624	115,410
195,115	-8,988	245,350	115,468
196,129	-9,068	245,033	115,243
197,144	-9,355	244,996	114,979
198,159	-9,059	244,811	115,125
199,173	-9,301	244,688	114,858
200,188	-9,147	244,341	114,811
201,202	-9,360	244,009	114,470
202,217	-9,578	243,959	114,257
203,232	-9,665	243,630	114,022
204,246	-9,469	243,725	114,216
205,261	-9,075	243,499	114,424
206,275	-10,281	243,124	113,251
207,290	-7,385	244,403	116,216
208,304	0,262	246,627	123,589
209,319	3,826	247,818	127,126
210,334	4,323	247,594	127,410
211,348	4,478	247,560	127,509
212,363	4,726	247,520	127,683
213,377	4,705	247,510	127,649
214,392	4,698	247,032	127,385
215,407	4,777	246,993	127,419
216,421	4,540	246,898	127,163
217,436	4,702	246,826	127,248
218,450	5,056	246,578	127,399
219,465	4,668	246,376	126,965
220,480	4,450	246,057	126,610
221,494	4,384	245,966	126,499
222,509	4,495	245,746	126,465
223,523	4,424	245,481	126,259
224,538	4,154	245,229	125,898
225,553	4,103	245,136	125,797
226,567	4,230	244,953	125,795
227,582	4,259	244,939	125,800
228,596	4,277	244,953	125,812
229,611	3,982	244,624	125,391
230,626	3,923	244,214	125,122
231,640	3,874	244,270	125,099
232,655	4,051	244,103	125,146
233,669	3,980	243,778	124,911
234,684	3,780	243,813	124,755
235,699	4,159	243,778	125,035
236,713	4,607	243,520	125,253
237,728	4,146	243,393	124,804
238,742	3,982	242,924	124,419
239,757	3,905	242,945	124,357
240,772	4,012	242,835	124,375
241,786	4,295	242,657	124,502
242,801	3,939	242,301	124,022
243,815	3,875	242,302	123,960
244,830	3,913	242,240	123,947
245,844	4,208	241,979	124,040
246,859	4,082	241,893	123,883
247,874	3,946	241,732	123,681
248,888	4,184	241,576	123,781
249,903	4,252	241,446	123,758
250,917	4,118	241,383	123,607
251,932	4,274	241,102	123,577
252,947	4,161	241,096	123,472
253,961	4,041	240,787	123,208
254,976	4,139	240,699	123,229
255,990	4,235	240,384	123,134
257,005	4,110	240,255	122,957
258,020	3,946	240,020	122,695
259,034	3,976	239,915	122,655
260,049	4,272	239,781	122,811
261,063	3,983	239,675	122,516
262,078	3,861	239,469	122,302
263,093	4,272	239,388	122,576
264,107	4,309	239,339	122,570
265,122	4,006	238,939	122,113
266,136	3,998	238,969	122,112
267,151	4,526	238,878	122,474
268,166	4,053	238,567	121,929
269,180	4,126	238,429	121,905
270,195	4,569	238,465	122,262
271,209	4,837	238,331	122,395
272,224	4,084	238,028	121,634
273,239	3,726	237,577	121,110
274,253	3,741	237,738	121,194
275,268	4,302	237,389	121,447
276,282	4,417	237,261	121,461
277,297	4,047	237,098	121,075
278,312	4,005	237,078	121,021
279,326	4,139	236,901	121,026
280,341	4,091	236,848	120,950
281,355	4,007	236,671	120,783
282,370	4,216	236,620	120,910
283,384	3,987	236,371	120,593
284,399	3,894	236,171	120,407
285,414	3,860	235,876	120,220
286,428	3,893	235,881	120,237
287,443	4,079	235,673	120,265
288,457	4,085	235,615	120,230
289,472	4,266	235,497	120,300
290,487	4,260	235,320	120,195
291,501	4,176	235,071	119,991
292,516	3,675	235,050	119,579
293,530	3,709	234,818	119,478
294,545	3,998	234,796	119,680
295,560	4,222	234,525	119,705
296,574	3,771	234,286	119,223
297,589	3,792	234,236	119,203
298,603	4,313	234,175	119,565
299,618	4,324	234,048	119,498
300,633	4,228	233,806	119,290
301,647	4,140	233,860	119,239
302,662	4,371	233,720	119,335
303,676	4,584	233,417	119,334
304,691	4,278	233,299	119,028
305,706	4,605	233,268	119,253
306,720	4,567	233,068	119,111
307,735	4,371	232,898	118,863
308,749	4,413	232,661	118,764
309,764	4,076	232,404	118,363
310,779	4,088	232,281	118,298
311,793	3,793	232,136	117,987
312,808	3,879	231,889	117,917
313,822	3,868	231,794	117,850
314,837	3,891	231,691	117,805
315,852	3,807	231,559	117,664
316,866	3,911	231,482	117,693
317,881	4,231	231,233	117,800
318,895	4,003	231,081	117,539
319,910	4,540	231,047	117,921
320,925	4,495	230,986	117,844
321,939	4,092	230,732	117,398
322,954	4,299	230,543	117,449
323,968	4,095	230,483	117,251
324,983	3,906	230,222	116,965
325,997	4,022	230,152	117,007
327,012	4,363	230,096	117,227
328,027	4,176	229,975	117,013
329,041	4,555	229,796	117,200
330,056	5,035	229,787	117,548
331,070	4,870	229,759	117,399
332,085	4,605	229,362	116,984
333,100	4,150	229,177	116,536
334,114	4,284	229,003	116,538
335,129	4,506	228,876	116,631
336,143	4,755	228,760	116,749
337,158	4,585	228,652	116,555
338,173	4,459	228,342	116,292
339,187	4,291	228,254	116,110
340,202	4,249	228,104	115,992
341,216	4,383	227,875	115,966
342,231	4,316	227,863	115,899
343,246	4,009	227,751	115,601
344,260	4,421	227,683	115,866
345,275	4,468	227,542	115,819
346,289	4,746	227,341	115,915
347,304	4,535	227,269	115,709
348,319	4,356	227,171	115,515
349,333	4,260	226,882	115,286
350,348	4,125	226,534	114,999
351,362	4,389	226,478	115,157
352,377	4,273	226,342	114,991
353,392	3,869	226,279	114,647
354,406	4,112	226,116	114,736
355,421	195,846	1321,456	1399,724
356,435	157,005	1454,901	1399,733
