DTS Sentinel unit serial number:	SN410029Multiplexer serial number:	ORYXHardware model number:	OX2-SRSoftware version number:	ORYX F/W v4,00 Oryx Data Collector v3.7.2.0data status	okinstallation	B5 Nyhavnadifferential loss correction	single-endedforward channel	channel 2reverse channel	N/Adate	2023/12/12time	21:22:13forward acquisition time	300,00reverse acquisition time	0,00gamma	499,1914k internal	0,3157k external	0,3157temperature offset calibration	1,0000default loss term (dB/km)	0,3820temperature slope calibration	1,0000multiplexer offset coefficient	1,0000multiplexer slope coefficient	1,0000fibre end	0,00T internal ref (°C)	14,93T ext. ref 1 (°C)	-1,71T ext. ref 2 (°C)	-2,01length (m)	temperature (°C)	Stokes	anti-Stokes-744,400	329,651	0,038	-0,054
-743,385	-15,928	-0,397	0,185
-742,371	780,195	0,071	0,145
-741,356	-56,492	-0,290	0,094
-740,342	-106,370	0,183	-0,030
-739,327	-113,116	-0,312	0,045
-738,312	170,128	-0,058	-0,061
-737,298	-61,187	-0,295	-0,091
-736,283	279,121	0,049	-0,064
-735,269	-148,976	-0,384	0,022
-734,254	102,410	0,054	0,046
-733,239	-157,964	-0,357	-0,015
-732,225	-98,684	0,208	0,039
-731,210	108,049	0,078	-0,068
-730,196	56,294	-0,177	-0,127
-729,181	126,240	0,023	0,022
-728,167	-92,326	0,095	-0,020
-727,152	-200,000	0,019	-0,070
-726,137	800,000	-0,048	-0,153
-725,123	106,121	-0,116	-0,101
-724,108	-200,000	0,030	-0,144
-723,094	700,828	0,044	0,086
-722,079	-36,926	-0,117	-0,046
-721,064	-11,898	-0,059	-0,028
-720,050	146,767	0,100	-0,099
-719,035	-34,393	-0,082	0,033
-718,021	-200,000	-0,005	-0,039
-717,006	765,145	0,081	-0,164
-715,991	-94,283	-0,110	-0,022
-714,977	88,602	0,074	-0,061
-713,962	-112,785	-0,113	-0,016
-712,948	-200,000	-0,029	0,114
-711,933	-200,000	-0,006	0,050
-710,918	-23,459	-0,044	0,019
-709,904	-156,736	-0,109	0,005
-708,889	391,256	-0,081	-0,125
-707,875	141,794	-0,169	-0,165
-706,860	218,855	0,097	-0,114
-705,845	491,400	-0,016	0,027
-704,831	800,000	-0,047	0,130
-703,816	-200,000	-0,006	-0,048
-702,802	233,733	-0,036	0,044
-701,787	796,232	-0,052	-0,107
-700,772	33,881	0,134	-0,086
-699,758	-200,000	0,014	-0,141
-698,743	-43,798	-0,139	-0,051
-697,729	-200,000	0,020	0,150
-696,714	-4,078	-0,070	-0,035
-695,699	-116,189	-0,086	-0,012
-694,685	449,221	0,047	-0,076
-693,670	189,418	-0,067	-0,074
-692,656	470,800	-0,052	-0,086
-691,641	69,962	0,016	-0,012
-690,627	-54,903	0,081	0,027
-689,612	-129,332	-0,065	-0,007
-688,597	94,132	0,067	-0,056
-687,583	-132,880	-0,083	0,008
-686,568	151,283	-0,020	0,021
-685,554	464,932	0,041	-0,068
-684,539	-132,817	-0,316	0,029
-683,524	69,358	0,005	-0,004
-682,510	800,000	0,022	0,069
-681,495	232,517	-0,041	-0,050
-680,481	-180,828	-0,127	-0,002
-679,466	-127,958	0,059	-0,006
-678,451	265,388	-0,024	-0,031
-677,437	8,562	0,019	0,010
-676,422	224,951	-0,047	0,056
-675,408	-164,400	-0,148	-0,005
-674,393	-200,000	-0,005	-0,031
-673,378	-5,089	-0,072	-0,036
-672,364	80,971	0,031	-0,025
-671,349	-33,297	-0,032	-0,013
-670,335	-200,000	0,004	0,118
-669,320	800,000	-0,010	0,028
-668,305	800,000	0,042	-0,127
-667,291	-98,668	-0,118	-0,022
-666,276	132,708	0,060	0,057
-665,262	-200,000	0,003	-0,052
-664,247	27,471	-0,026	-0,016
-663,232	-200,000	-0,003	-0,043
-662,218	155,099	0,069	0,070
-661,203	271,475	0,046	0,060
-660,189	-200,000	0,012	0,063
-659,174	28,718	-0,165	-0,102
-658,159	-34,572	0,148	-0,059
-657,145	289,521	-0,072	0,096
-656,130	215,705	0,050	-0,058
-655,116	800,000	0,035	0,074
-654,101	259,798	-0,146	0,185
-653,086	-101,700	-0,093	0,016
-652,072	44,662	-0,054	0,037
-651,057	-63,251	-0,216	0,065
-650,043	224,580	-0,037	0,044
-649,028	-39,683	-0,174	-0,067
-648,014	800,000	0,060	-0,143
-646,999	285,886	-0,081	-0,108
-645,984	-177,952	-0,075	0,001
-644,970	-32,773	0,059	-0,024
-643,955	217,567	-0,067	-0,079
-642,941	-134,113	-0,109	-0,010
-641,926	315,604	0,046	-0,064
-640,911	249,615	-0,135	0,168
-639,897	-200,000	0,012	0,106
-638,882	279,899	0,040	0,053
-637,868	217,324	-0,018	-0,021
-636,853	471,014	-0,030	-0,049
-635,838	79,358	0,027	-0,021
-634,824	-121,321	0,083	-0,010
-633,809	209,097	0,049	-0,056
-632,795	-37,731	-0,104	-0,040
-631,780	122,803	0,100	-0,092
-630,765	-88,579	-0,099	-0,021
-629,751	-144,742	-0,063	0,004
-628,736	462,242	-0,031	-0,051
-627,722	501,875	-0,054	-0,092
-626,707	800,000	0,034	-0,098
-625,692	164,964	-0,060	-0,062
-624,678	-200,000	-0,014	0,068
-623,663	-161,691	-0,111	0,004
-622,649	301,283	-0,109	-0,147
-621,634	-36,149	-0,134	-0,053
-620,619	800,000	-0,068	0,150
-619,605	-200,000	-0,006	-0,069
-618,590	302,137	0,055	0,075
-617,576	-200,000	-0,014	0,106
-616,561	-52,925	-0,142	0,048
-615,546	718,820	-0,019	0,036
-614,532	-155,215	-0,041	0,002
-613,517	177,376	-0,108	-0,116
-612,503	-75,896	-0,155	-0,040
-611,488	-200,000	-0,002	0,069
-610,474	-130,744	0,041	-0,004
-609,459	-200,000	0,002	-0,080
-608,444	71,453	-0,033	0,025
-607,430	39,419	-0,071	-0,047
-606,415	18,509	-0,083	-0,049
-605,401	713,681	0,034	-0,066
-604,386	34,163	0,073	0,047
-603,371	800,000	0,022	-0,054
-602,357	-38,968	-0,070	-0,027
-601,342	-0,307	0,043	-0,023
-600,328	-200,000	-0,020	-0,064
-599,313	-200,000	-0,016	-0,060
-598,298	46,046	0,151	-0,102
-597,284	800,000	0,028	-0,089
-596,269	-129,142	0,156	-0,016
-595,255	503,255	0,045	0,076
-594,240	-200,000	0,005	0,097
-593,225	44,534	-0,071	-0,048
-592,211	-200,000	-0,022	-0,152
-591,196	139,613	-0,114	-0,110
-590,182	66,571	-0,064	0,048
-589,167	264,962	-0,078	0,100
-588,152	-127,101	0,079	-0,008
-587,138	10,780	-0,080	-0,045
-586,123	-123,716	-0,177	0,020
-585,109	-200,000	0,003	-0,087
-584,094	288,838	-0,077	-0,102
-583,079	39,894	-0,060	-0,040
-582,065	290,768	0,033	-0,044
-581,050	-50,037	0,093	-0,032
-580,036	-93,064	0,080	-0,016
-579,021	-200,000	0,021	-0,101
-578,006	201,830	-0,028	0,031
-576,992	92,055	-0,067	-0,055
-575,977	278,964	0,143	0,187
-574,963	-4,297	-0,056	0,028
-573,948	-38,002	0,126	-0,049
-572,934	264,939	0,022	-0,028
-571,919	202,968	-0,095	0,108
-570,904	800,000	0,032	0,073
-569,890	-200,000	-0,009	-0,126
-568,875	-200,000	-0,006	0,025
-567,861	-78,360	0,094	-0,023
-566,846	593,016	0,058	0,105
-565,831	59,960	0,061	-0,044
-564,817	66,174	0,100	-0,075
-563,802	159,189	0,013	-0,014
-562,788	-32,044	-0,105	0,043
-561,773	800,000	0,017	0,047
-560,758	800,000	0,021	-0,052
-559,744	-200,000	-0,001	0,098
-558,729	-112,458	0,058	0,008
-557,715	-200,000	0,002	-0,050
-556,700	800,000	0,015	-0,047
-555,685	214,273	-0,112	0,130
-554,671	10,388	0,073	-0,041
-553,656	-83,339	0,041	0,009
-552,642	-200,000	-0,022	0,089
-551,627	-102,922	-0,105	-0,018
-550,612	800,000	0,028	-0,086
-549,598	430,809	-0,031	-0,049
-548,583	-200,000	-0,022	0,089
-547,569	70,725	0,028	0,021
-546,554	634,826	0,057	0,105
-545,539	103,524	0,050	-0,043
-544,525	800,000	0,002	0,005
-543,510	82,091	0,096	0,076
-542,496	-200,000	0,008	-0,110
-541,481	-200,000	-0,039	-0,290
-540,466	-84,608	-0,273	-0,062
-539,452	-200,000	0,044	0,178
-538,437	1,561	0,101	0,053
-537,423	-106,236	-0,103	-0,017
-536,408	800,000	0,015	0,030
-535,393	-92,878	0,019	0,004
-534,379	390,897	-0,040	-0,061
-533,364	10,558	0,049	-0,027
-532,350	-91,314	0,023	0,005
-531,335	20,658	0,151	0,089
-530,321	133,409	0,077	0,073
-529,306	7,988	-0,085	0,046
-528,291	298,157	-0,078	-0,105
-527,277	586,469	-0,111	-0,200
-526,262	-87,488	0,153	0,033
-525,248	312,076	-0,019	-0,026
-524,233	-200,000	-0,009	0,059
-523,218	10,916	0,023	0,013
-522,204	165,793	0,073	-0,075
-521,189	-200,000	0,013	-0,051
-520,175	196,607	0,055	0,061
-519,160	480,730	-0,071	0,119
-518,145	-118,745	0,064	0,008
-517,131	-200,000	-0,001	0,156
-516,116	800,000	0,020	0,057
-515,102	67,579	-0,090	-0,067
-514,087	-57,252	-0,018	0,006
-513,072	22,384	-0,016	0,010
-512,058	-105,696	0,053	-0,009
-511,043	-75,856	0,060	-0,015
-510,029	-200,000	0,004	0,060
-509,014	-14,137	0,046	0,021
-507,999	-35,277	0,095	0,038
-506,985	800,000	0,042	-0,101
-505,970	-177,065	-0,054	0,001
-504,956	28,642	-0,065	-0,040
-503,941	98,315	-0,048	-0,040
-502,926	207,214	0,035	0,040
-501,912	-42,952	0,150	0,055
-500,897	425,956	-0,057	0,091
-499,883	800,000	0,041	-0,127
-498,868	423,735	0,082	-0,130
-497,853	-200,000	-0,005	-0,043
-496,839	800,000	0,026	0,055
-495,824	208,721	0,010	-0,012
-494,810	479,549	-0,068	0,113
-493,795	25,717	0,090	0,055
-492,781	536,921	0,016	-0,029
-491,766	53,670	-0,158	-0,110
-490,751	485,999	0,018	-0,030
-489,737	-200,000	-0,038	0,139
-488,722	376,246	-0,047	-0,070
-487,708	-59,208	0,107	0,033
-486,693	800,000	-0,036	-0,113
-485,678	-28,517	-0,061	-0,026
-484,664	579,016	0,046	-0,083
-483,649	500,411	-0,103	-0,175
-482,635	37,350	0,026	-0,017
-481,620	190,512	-0,047	0,051
-480,605	-35,874	0,051	0,020
-479,591	-103,934	0,129	-0,022
-478,576	-200,000	-0,017	0,147
-477,562	-111,655	0,046	0,007
-476,547	-200,000	-0,003	-0,145
-475,532	699,823	0,100	-0,192
-474,518	-15,806	0,165	0,076
-473,503	-79,946	-0,032	-0,008
-472,489	364,488	-0,045	-0,066
-471,474	-200,000	-0,041	0,181
-470,459	-93,496	-0,123	0,025
-469,445	800,000	0,071	-0,157
-468,430	494,523	0,014	0,024
-467,416	-4,404	0,119	-0,060
-466,401	-200,000	-0,007	0,133
-465,386	-45,270	0,076	-0,027
-464,372	-44,900	-0,112	-0,041
-463,357	-102,883	0,044	-0,008
-462,343	410,356	-0,031	-0,048
-461,328	271,013	0,046	-0,059
-460,313	-74,014	0,102	0,027
-459,299	-159,570	-0,123	-0,005
-458,284	515,193	-0,079	-0,136
-457,270	326,373	0,071	0,099
-456,255	-96,828	0,073	0,014
-455,241	462,349	-0,091	-0,148
-454,226	-27,668	-0,133	-0,056
-453,211	240,390	0,056	0,068
-452,197	11,481	-0,068	0,038
-451,182	-183,668	0,028	-0,000
-450,168	295,397	0,037	-0,050
-449,153	-200,000	0,017	0,105
-448,138	-200,000	-0,048	-0,156
-447,124	800,000	-0,009	-0,023
-446,109	39,413	0,037	0,024
-445,095	-18,721	-0,020	-0,009
-444,080	800,000	0,035	0,088
-443,065	-200,000	0,006	0,046
-442,051	-200,000	0,026	0,183
-441,036	-200,000	0,011	0,067
-440,022	31,511	-0,200	-0,125
-439,007	73,523	0,091	-0,069
-437,992	110,546	0,127	-0,111
-436,978	82,562	-0,038	-0,030
-435,963	-168,175	-0,133	-0,004
-434,949	12,923	-0,053	-0,030
-433,934	-107,966	-0,143	0,022
-432,919	-168,162	0,081	0,002
-431,905	73,467	-0,108	-0,082
-430,890	398,950	0,090	0,138
-429,876	-4,754	0,104	0,052
-428,861	707,573	-0,028	0,053
-427,846	-200,000	-0,011	0,084
-426,832	-7,921	0,038	-0,018
-425,817	-200,000	-0,009	0,035
-424,803	54,297	-0,130	-0,091
-423,788	-105,011	-0,099	0,016
-422,773	800,000	0,021	0,064
-421,759	-70,115	0,148	0,041
-420,744	101,943	0,073	-0,062
-419,730	-61,732	-0,071	0,021
-418,715	-200,000	-0,020	-0,089
-417,701	-74,829	0,073	-0,019
-416,686	90,642	0,070	-0,057
-415,671	-81,376	-0,113	0,027
-414,657	314,019	0,070	0,096
-413,642	-98,389	-0,074	-0,014
-412,628	-200,000	-0,019	-0,174
-411,613	689,752	-0,057	-0,109
-410,598	-40,674	0,100	-0,038
-409,584	96,766	0,076	0,063
-408,569	-90,465	-0,065	-0,014
-407,555	-23,366	0,104	0,045
-406,540	-200,000	-0,002	0,109
-405,525	120,573	-0,057	0,051
-404,511	396,703	-0,067	-0,102
-403,496	-155,953	-0,076	0,003
-402,482	-163,117	0,113	0,004
-401,467	544,949	-0,071	-0,125
-400,452	73,673	-0,136	0,103
-399,438	-144,222	0,061	-0,004
-398,423	518,838	-0,055	0,094
-397,409	-200,000	-0,024	-0,078
-396,394	-200,000	0,002	-0,143
-395,379	-200,000	0,007	-0,048
-394,365	-65,647	-0,063	0,018
-393,350	211,844	0,043	0,050
-392,336	-30,870	0,141	0,058
-391,321	-55,643	0,127	0,041
-390,306	-138,203	0,060	0,005
-389,292	800,000	-0,085	-0,183
-388,277	-200,000	-0,038	0,135
-387,263	173,687	0,073	-0,077
-386,248	708,859	0,066	0,127
-385,233	-200,000	0,003	-0,036
-384,219	-128,862	-0,169	0,017
-383,204	368,370	0,017	0,025
-382,190	-200,000	-0,007	-0,107
-381,175	-200,000	-0,010	0,144
-380,160	66,887	0,094	-0,070
-379,146	-200,000	0,016	0,062
-378,131	-200,000	-0,021	0,100
-377,117	-25,390	0,077	0,033
-376,102	-200,000	-0,023	0,122
-375,088	165,306	-0,049	-0,051
-374,073	-200,000	-0,009	-0,043
-373,058	800,000	0,095	0,225
-372,044	-92,595	0,061	0,012
-371,029	116,044	0,137	0,122
-370,015	800,000	0,011	0,036
-369,000	-29,089	-0,123	0,051
-367,985	-81,515	0,073	-0,017
-366,971	-92,059	-0,160	0,032
-365,956	-34,254	0,039	0,015
-364,942	-200,000	0,006	-0,113
-363,927	-32,220	0,063	0,025
-362,912	-200,000	0,007	0,048
-361,898	172,755	-0,125	0,131
-360,883	160,926	0,002	-0,002
-359,869	800,000	0,036	0,077
-358,854	225,372	0,140	0,164
-357,839	-52,798	0,124	0,041
-356,825	800,000	-0,053	0,114
-355,810	-200,000	0,030	0,132
-354,796	-200,000	-0,011	-0,085
-353,781	100,471	-0,085	0,072
-352,766	32,016	0,034	-0,021
-351,752	-200,000	-0,006	-0,093
-350,737	82,163	-0,025	0,020
-349,723	10,772	0,156	0,086
-348,708	12,256	-0,066	0,037
-347,693	105,139	-0,055	0,047
-346,679	591,507	0,038	-0,068
-345,664	800,000	0,034	-0,081
-344,650	26,816	0,034	0,021
-343,635	194,790	-0,042	0,047
-342,620	-99,920	0,052	0,009
-341,606	-117,657	0,207	0,027
-340,591	-146,575	-0,045	0,003
-339,577	-51,860	0,071	-0,024
-338,562	226,556	-0,075	-0,089
-337,548	15,117	-0,140	-0,079
-336,533	39,915	0,194	0,126
-335,518	-200,000	-0,022	-0,102
-334,504	-200,000	0,002	0,097
-333,489	52,801	-0,089	0,062
-332,475	-84,200	-0,104	-0,024
-331,460	432,685	-0,007	0,011
-330,445	33,404	-0,105	0,066
-329,431	30,256	-0,066	-0,041
-328,416	-68,982	0,109	-0,030
-327,402	24,037	0,052	-0,031
-326,387	-38,792	0,101	0,038
-325,372	800,000	0,014	-0,031
-324,358	34,939	-0,137	0,087
-323,343	800,000	0,015	0,045
-322,329	-200,000	0,015	-0,118
-321,314	794,680	0,050	0,099
-320,299	372,140	0,055	0,081
-319,285	-27,320	-0,058	0,024
-318,270	-21,019	0,033	-0,015
-317,256	-200,000	0,000	-0,056
-316,241	-0,752	0,055	-0,028
-315,226	-53,787	0,233	0,077
-314,212	-94,774	-0,028	0,005
-313,197	244,304	0,054	0,066
-312,183	217,011	0,061	0,071
-311,168	757,184	-0,046	-0,090
-310,153	-100,565	0,042	0,007
-309,139	-117,321	-0,068	-0,009
-308,124	-28,860	0,074	-0,031
-307,110	-86,118	-0,100	-0,022
-306,095	532,230	0,041	-0,070
-305,080	104,562	0,051	-0,044
-304,066	-32,802	-0,113	0,045
-303,051	-200,000	0,003	-0,063
-302,037	-120,582	-0,036	0,004
-301,022	528,837	0,042	0,073
-300,008	-200,000	0,012	0,050
-298,993	-53,658	0,095	-0,031
-297,978	-44,951	-0,108	0,039
-296,964	4,383	0,031	-0,016
-295,949	-119,421	-0,068	-0,008
-294,935	-141,433	0,072	-0,005
-293,920	32,119	0,105	-0,066
-292,905	460,599	-0,036	0,059
-291,891	800,000	-0,014	0,042
-290,876	539,328	0,020	-0,035
-289,862	-154,850	-0,060	0,003
-288,847	800,000	-0,029	-0,091
-287,832	-182,841	-0,170	-0,002
-286,818	-136,385	0,073	0,006
-285,803	548,673	0,077	0,134
-284,789	800,000	-0,029	0,071
-283,774	158,991	0,035	-0,035
-282,759	-54,238	0,212	0,069
-281,745	-132,238	-0,033	0,003
-280,730	53,208	-0,087	-0,060
-279,716	-200,000	0,002	-0,059
-278,701	135,208	0,149	0,140
-277,686	-200,000	0,009	-0,127
-276,672	800,000	0,059	-0,169
-275,657	275,090	-0,059	0,076
-274,643	41,815	-0,071	-0,046
-273,628	224,096	0,083	0,098
-272,613	-43,902	0,028	0,010
-271,599	383,746	-0,050	-0,075
-270,584	-11,058	-0,080	0,038
-269,570	-93,665	0,060	-0,012
-268,555	-200,000	-0,013	0,139
-267,540	-59,534	0,038	0,012
-266,526	-200,000	0,004	0,052
-265,511	800,000	0,034	-0,102
-264,497	311,404	0,067	0,091
-263,482	-28,058	0,180	0,075
-262,467	64,254	-0,088	-0,064
-261,453	-14,531	-0,039	0,018
-260,438	-200,000	-0,017	0,205
-259,424	-200,000	-0,014	0,177
-258,409	-200,000	0,013	0,061
-257,395	-200,000	0,018	0,104
-256,380	62,527	0,083	0,060
-255,365	12,298	0,083	-0,046
-254,351	24,564	0,091	-0,054
-253,336	158,759	-0,013	0,013
-252,322	-44,139	-0,096	-0,035
-251,307	-43,775	0,105	0,038
-250,292	215,078	0,048	-0,055
-249,278	800,000	0,036	-0,091
-248,263	118,968	-0,064	-0,057
-247,249	-128,198	-0,040	0,004
-246,234	397,369	-0,048	-0,073
-245,219	620,186	0,056	-0,102
-244,205	510,400	-0,028	0,048
-243,190	800,000	-0,018	-0,041
-242,176	275,885	-0,067	-0,087
-241,161	306,526	0,026	-0,035
-240,146	-4,415	0,094	-0,047
-239,132	-200,000	0,002	0,008
-238,117	-104,716	-0,030	0,005
-237,103	-55,288	0,091	-0,029
-236,088	-49,756	-0,062	0,021
-235,073	73,072	0,120	-0,091
-234,059	-0,451	-0,080	0,041
-233,044	-74,450	-0,104	-0,027
-232,030	-137,172	-0,084	0,007
-231,015	2,577	-0,053	0,028
-230,000	113,649	0,085	0,075
-228,986	-200,000	0,002	0,040
-227,971	78,489	-0,083	0,064
-226,957	-200,000	-0,004	-0,015
-225,942	-188,463	0,038	-0,000
-224,927	-37,780	0,117	0,045
-223,913	145,740	-0,084	-0,082
-222,898	-200,000	-0,016	-0,078
-221,884	415,763	-0,062	0,096
-220,869	800,000	0,008	-0,020
-219,855	800,000	-0,041	0,100
-218,840	800,000	-0,031	0,065
-217,825	800,000	-0,032	0,064
-216,811	800,000	0,024	0,064
-215,796	325,976	0,028	0,039
-214,782	430,234	0,047	0,073
-213,767	308,772	-0,038	-0,052
-212,752	782,940	0,047	0,093
-211,738	-200,000	0,003	0,093
-210,723	86,712	0,083	0,066
-209,709	-200,000	0,004	0,087
-208,694	-0,424	-0,099	0,051
-207,679	234,655	-0,017	0,020
-206,665	-200,000	-0,016	0,065
-205,650	79,291	-0,085	0,065
-204,636	-37,319	0,055	-0,021
-203,621	32,689	0,147	0,091
-202,606	585,951	0,070	-0,124
-201,592	-92,910	-0,104	-0,021
-200,577	-200,000	-0,024	0,086
-199,563	1,339	-0,244	0,126
-198,548	-177,421	0,149	0,003
-197,533	11,460	-0,159	-0,088
-196,519	267,078	0,082	-0,103
-195,504	800,000	-0,041	-0,091
-194,490	147,548	0,133	-0,129
-193,475	800,000	-0,048	-0,102
-192,460	-200,000	0,011	-0,159
-191,446	4,302	-0,060	0,032
-190,431	-72,099	0,058	-0,015
-189,417	-43,111	-0,090	0,033
-188,402	52,176	-0,053	0,036
-187,387	208,607	-0,078	-0,089
-186,373	792,723	-0,012	0,025
-185,358	349,761	-0,038	-0,055
-184,344	-200,000	0,000	0,003
-183,329	800,000	0,057	-0,123
-182,315	-200,000	-0,026	-0,104
-181,300	-200,000	-0,008	0,044
-180,285	-54,574	-0,189	0,061
-179,271	-35,950	0,081	-0,032
-178,256	-200,000	-0,001	0,018
-177,242	246,981	-0,051	0,063
-176,227	800,000	0,026	0,065
-175,212	-200,000	0,012	-0,048
-174,198	-21,069	-0,070	-0,031
-173,183	273,979	-0,084	0,107
-172,169	-78,535	0,119	-0,029
-171,154	69,998	-0,076	-0,056
-170,139	-149,543	0,119	-0,007
-169,125	-200,000	0,029	0,098
-168,110	-44,213	-0,086	-0,031
-167,096	-52,285	0,138	0,046
-166,081	124,752	-0,061	0,056
-165,066	-6,815	-0,169	-0,083
-164,052	800,000	-0,032	0,092
-163,037	54,461	0,045	-0,031
-162,023	-81,156	0,029	-0,007
-161,008	187,324	-0,008	0,008
-159,993	-120,912	-0,049	0,006
-158,979	800,000	-0,044	0,119
-157,964	-200,000	0,039	-0,176
-156,950	292,539	0,121	-0,159
-155,935	39,172	0,130	-0,084
-154,920	-200,000	-0,054	0,183
-153,906	44,041	0,071	0,047
-152,891	283,639	-0,053	0,069
-151,877	425,371	-0,062	-0,097
-150,862	231,771	0,040	-0,047
-149,847	800,000	-0,051	-0,123
-148,833	-200,000	-0,008	0,122
-147,818	-169,275	-0,042	-0,001
-146,804	-200,000	0,015	-0,075
-145,789	-51,446	-0,048	-0,016
-144,775	800,000	0,025	-0,075
-143,760	-27,800	-0,060	-0,025
-142,745	42,695	0,050	-0,033
-141,731	-19,782	-0,097	-0,043
-140,716	222,930	-0,046	-0,054
-139,702	-200,000	0,009	-0,054
-138,687	2,181	0,047	0,024
-137,672	122,802	-0,080	-0,072
-136,658	800,000	0,027	0,071
-135,643	7,486	-0,095	0,051
-134,629	-18,498	-0,098	0,044
-133,614	-58,625	0,056	0,017
-132,599	206,396	0,054	-0,061
-131,585	-200,000	-0,029	0,099
-130,570	-200,000	-0,019	-0,063
-129,556	6,692	-0,060	-0,032
-128,541	-200,000	-0,007	0,024
-127,526	-53,636	-0,138	0,045
-126,512	-200,000	-0,001	0,061
-125,497	401,829	0,064	-0,098
-124,483	602,918	-0,034	-0,060
-123,468	-13,198	0,133	0,062
-122,453	75,890	-0,069	0,052
-121,439	800,000	-0,021	-0,051
-120,424	-200,000	-0,002	0,062
-119,410	800,000	-0,004	-0,011
-118,395	55,015	-0,039	0,027
-117,380	131,322	0,124	0,115
-116,366	599,680	-0,025	-0,045
-115,351	-200,000	0,019	-0,159
-114,337	800,000	-0,061	-0,125
-113,322	537,967	0,084	0,145
-112,307	-2,654	0,121	-0,061
-111,293	10,365	0,093	-0,051
-110,278	-56,431	0,012	-0,004
-109,264	276,203	0,044	0,056
-108,249	28,252	-0,252	-0,153
-107,234	114,648	0,076	-0,066
-106,220	-29,807	0,083	-0,034
-105,205	800,000	-0,018	-0,053
-104,191	-200,000	0,014	0,073
-103,176	25,121	-0,121	0,072
-102,162	-35,922	0,093	-0,036
-101,147	-89,073	-0,077	-0,016
-100,132	59,364	-0,092	-0,065
-99,118	84,992	0,049	0,038
-98,103	780,677	0,051	0,101
-97,089	-200,000	0,009	-0,062
-96,074	-140,430	0,120	0,009
-95,059	-56,383	-0,104	0,033
-94,045	-200,000	0,013	-0,085
-93,030	281,232	-0,036	-0,046
-92,016	-71,146	-0,137	-0,037
-91,001	-119,709	-0,075	-0,009
-89,986	-75,270	-0,088	0,022
-88,972	11,371	0,061	0,033
-87,957	589,683	-0,024	0,043
-86,943	3,962	0,062	-0,033
-85,928	31,999	-0,119	-0,073
-84,913	-200,000	-0,004	-0,152
-83,899	-200,000	-0,024	-0,171
-82,884	-122,798	-0,133	0,015
-81,870	-107,643	0,035	0,005
-80,855	-200,000	-0,022	0,154
-79,840	-200,000	-0,035	0,187
-78,826	-42,963	-0,136	0,049
-77,811	-52,190	0,048	0,016
-76,797	-57,565	0,094	0,029
-75,782	-69,856	0,058	-0,016
-74,767	800,000	0,073	0,171
-73,753	-200,000	0,001	-0,049
-72,738	-134,209	-0,085	0,007
-71,724	-200,000	0,022	0,138
-70,709	207,885	-0,140	-0,157
-69,694	261,406	0,100	-0,125
-68,680	323,724	0,030	0,042
-67,665	263,177	-0,030	0,037
-66,651	800,000	-0,064	0,155
-65,636	165,610	-0,064	-0,065
-64,622	-74,063	-0,038	0,010
-63,607	800,000	-0,080	-0,166
-62,592	323,816	0,032	-0,045
-61,578	320,867	-0,039	0,054
-60,563	-200,000	0,028	0,098
-59,549	-200,000	-0,014	0,060
-58,534	15,103	-1,996	-1,119
-57,519	-200,000	-0,124	-0,994
-56,505	-200,000	-1,373	-4,878
-55,490	79,177	0,817	0,628
-54,476	800,000	5,364	12,119
-53,461	-200,000	17,890	291,945
-52,446	800,000	729,688	2240,431
-51,432	539,413	1646,433	2822,225
-50,417	109,368	1636,332	1405,874
-49,403	74,959	1287,556	972,306
-48,388	31,516	1027,742	632,557
-47,373	20,218	989,217	571,589
-46,359	18,268	977,311	558,296
-45,344	15,259	973,305	546,138
-44,330	15,495	971,714	545,993
-43,315	14,942	970,009	543,210
-42,300	14,948	968,613	542,425
-41,286	14,920	967,819	541,867
-40,271	14,926	966,979	541,396
-39,257	14,954	965,816	540,814
-38,242	14,991	964,887	540,394
-37,227	14,959	964,301	539,939
-36,213	14,953	963,335	539,358
-35,198	14,901	962,515	538,708
-34,184	15,027	961,497	538,524
-33,169	14,941	960,627	537,739
-32,154	14,994	959,709	537,375
-31,140	14,936	958,901	536,713
-30,125	14,976	958,250	536,457
-29,111	14,891	957,485	535,733
-28,096	14,987	956,716	535,591
-27,082	14,962	955,927	535,047
-26,067	15,020	955,116	534,759
-25,052	14,982	954,359	534,193
-24,038	14,923	953,732	533,629
-23,023	14,913	953,205	533,283
-22,009	15,043	952,533	533,300
-20,994	14,983	951,925	532,748
-19,979	14,971	951,146	532,251
-18,965	14,939	950,628	531,838
-17,950	14,980	950,029	531,614
-16,936	14,904	949,472	531,037
-15,921	14,894	948,733	530,570
-14,906	14,881	948,023	530,112
-13,892	14,854	947,008	529,437
-12,877	14,812	946,675	529,098
-11,863	14,820	946,014	528,732
-10,848	14,934	945,303	528,677
-9,833	14,939	945,141	528,580
-8,819	14,910	944,205	527,942
-7,804	14,917	943,605	527,610
-6,790	14,916	943,209	527,363
-5,775	14,902	942,623	526,972
-4,760	14,891	942,013	526,574
-3,746	14,858	941,313	526,056
-2,731	14,775	940,563	525,355
-1,717	14,739	939,964	524,887
-0,702	14,709	939,243	524,367
0,313	14,515	938,661	524,221
1,327	17,611	936,760	532,870
2,342	26,435	792,905	474,391
3,356	22,991	457,674	268,544
4,371	-3,948	313,727	155,494
5,386	-7,880	295,721	142,583
6,400	-9,818	289,519	137,661
7,415	-10,225	287,069	136,084
8,429	-10,626	285,753	135,055
9,444	-10,497	284,781	134,710
10,459	-10,595	284,228	134,341
11,473	-10,373	283,418	134,161
12,488	-10,500	283,046	133,851
13,502	-10,408	282,483	133,662
14,517	-10,475	281,983	133,348
15,531	-10,585	281,607	133,052
16,546	-10,313	281,247	133,132
17,561	-10,522	281,060	132,831
18,575	-10,284	280,462	132,765
19,590	-10,429	280,184	132,482
20,604	-10,390	280,061	132,450
21,619	-10,455	279,559	132,138
22,634	-10,322	279,238	132,102
23,648	-10,455	278,840	131,774
24,663	-10,293	278,682	131,843
25,677	-10,310	278,527	131,742
26,692	-10,462	278,077	131,372
27,707	-10,381	277,766	131,291
28,721	-10,402	277,574	131,169
29,736	-10,433	277,103	130,905
30,750	-10,292	276,927	130,944
31,765	-10,440	276,831	130,746
32,780	-10,250	276,381	130,701
33,794	-10,479	276,249	130,412
34,809	-10,348	276,087	130,447
35,823	-10,372	275,700	130,230
36,838	-10,392	275,412	130,064
37,853	-10,414	275,144	129,904
38,867	-10,385	274,968	129,837
39,882	-10,501	274,772	129,624
40,896	-10,342	274,422	129,596
41,911	-10,322	274,224	129,510
42,926	-10,534	274,019	129,203
43,940	-10,477	273,746	129,116
44,955	-10,346	273,448	129,087
45,969	-10,480	273,242	128,853
46,984	-10,596	273,123	128,677
47,999	-10,687	272,762	128,411
49,013	-10,922	272,473	128,046
50,028	-11,026	272,191	127,804
51,042	-10,911	271,964	127,794
52,057	-11,155	271,745	127,452
53,071	-11,001	271,558	127,497
54,086	-10,739	271,425	127,665
55,101	-10,832	271,382	127,547
56,115	-10,466	270,999	127,694
57,130	-10,547	270,971	127,595
58,144	-10,254	270,579	127,669
59,159	-10,385	270,534	127,516
60,174	-10,281	270,233	127,458
61,188	-10,258	269,990	127,354
62,203	-10,317	269,875	127,234
63,217	-10,350	269,536	127,032
64,232	-10,283	269,305	126,974
65,247	-10,160	269,054	126,956
66,261	-10,371	268,931	126,694
67,276	-10,529	268,549	126,358
68,290	-10,686	268,498	126,179
69,305	-10,547	268,081	126,099
70,320	-10,738	267,928	125,841
71,334	-10,344	267,782	126,120
72,349	-10,314	267,510	126,009
73,363	-10,249	267,276	125,947
74,378	-10,123	267,021	125,929
75,393	-10,255	266,998	125,787
76,407	-10,397	266,711	125,512
77,422	-10,237	266,537	125,564
78,436	-10,336	266,167	125,289
79,451	-10,285	265,948	125,220
80,466	-10,330	265,862	125,129
81,480	-10,380	265,543	124,922
82,495	-10,513	265,277	124,665
83,509	-10,300	265,076	124,752
84,524	-10,458	264,926	124,528
85,539	-10,665	264,733	124,240
86,553	-10,739	264,602	124,101
87,568	-10,642	264,368	124,067
88,582	-10,363	263,962	124,115
89,597	-10,517	263,851	123,915
90,611	-10,462	263,869	123,962
91,626	-10,537	263,672	123,790
92,641	-10,190	263,341	123,934
93,655	-10,220	263,129	123,797
94,670	-10,408	263,020	123,567
95,684	-10,333	262,787	123,513
96,699	-10,382	262,447	123,299
97,714	-10,469	262,364	123,171
98,728	-10,537	262,140	122,994
99,743	-10,539	261,767	122,807
100,757	-10,558	261,613	122,707
101,772	-10,420	261,568	122,797
102,787	-10,532	261,332	122,576
103,801	-10,476	261,259	122,581
104,816	-10,472	260,867	122,389
105,830	-10,283	260,922	122,571
106,845	-10,217	260,545	122,442
107,860	-10,348	260,453	122,272
108,874	-10,156	260,225	122,324
109,889	-10,427	260,063	121,997
110,903	-10,542	259,830	121,776
111,918	-10,680	259,627	121,548
112,933	-10,324	259,394	121,741
113,947	-10,312	259,186	121,643
114,962	-10,374	258,874	121,432
115,976	-10,314	258,801	121,439
116,991	-10,276	258,650	121,391
118,006	-10,194	258,396	121,333
119,020	-10,186	258,352	121,308
120,035	-10,137	258,121	121,232
121,049	-10,217	258,056	121,121
122,064	-10,286	257,920	120,986
123,079	-10,345	257,634	120,789
124,093	-10,463	257,431	120,581
125,108	-10,617	257,181	120,319
126,122	-10,585	256,816	120,165
127,137	-10,738	256,781	120,005
128,151	-10,720	256,569	119,910
129,166	-10,452	256,296	120,005
130,181	-10,477	256,069	119,866
131,195	-10,676	255,973	119,638
132,210	-10,434	255,781	119,747
133,224	-10,278	255,602	119,788
134,239	-10,269	255,424	119,702
135,254	-10,424	255,278	119,488
136,268	-10,566	255,129	119,285
137,283	-10,653	254,749	119,022
138,297	-10,677	254,525	118,887
139,312	-10,790	254,391	118,716
140,327	-10,411	254,221	118,952
141,341	-10,107	254,104	119,148
142,356	-10,261	254,067	118,988
143,370	-10,240	253,911	118,922
144,385	-10,043	253,637	118,952
145,400	-10,198	253,496	118,742
146,414	-10,227	253,394	118,658
147,429	-10,242	252,994	118,449
148,443	-10,293	253,083	118,436
149,458	-10,190	252,834	118,397
150,473	-10,200	252,529	118,235
151,487	-10,334	252,407	118,053
152,502	-10,043	252,237	118,211
153,516	-10,061	251,906	118,029
154,531	-10,069	251,827	117,976
155,546	-10,160	251,744	117,849
156,560	-10,200	251,504	117,692
157,575	-10,391	251,253	117,402
158,589	-10,346	251,073	117,345
159,604	-10,142	250,846	117,402
160,619	-10,091	250,773	117,400
161,633	-10,249	250,521	117,138
162,648	-10,106	250,406	117,195
163,662	-10,034	250,313	117,201
164,677	-9,993	250,084	117,118
165,692	-10,189	249,959	116,884
166,706	-10,037	249,770	116,914
167,721	-10,345	249,607	116,567
168,735	-10,173	249,274	116,547
169,750	-10,152	249,329	116,580
170,764	-9,976	249,033	116,578
171,779	-10,217	249,020	116,359
172,794	-10,130	248,860	116,347
173,808	-10,191	248,651	116,188
174,823	-10,512	248,301	115,745
175,837	-10,711	247,946	115,402
176,852	-10,310	247,951	115,730
177,867	-10,098	247,853	115,851
178,881	-10,227	247,574	115,603
179,896	-10,335	247,624	115,525
180,910	-10,014	247,269	115,618
181,925	-10,259	247,223	115,381
182,940	-10,164	247,031	115,360
183,954	-10,197	246,852	115,239
184,969	-10,106	246,715	115,241
185,983	-10,101	246,606	115,184
186,998	-10,200	246,376	114,984
188,013	-10,115	246,214	114,969
189,027	-10,077	246,030	114,904
190,042	-10,204	245,780	114,672
191,056	-9,983	245,652	114,784
192,071	-10,053	245,387	114,592
193,086	-10,260	245,212	114,330
194,100	-10,007	245,073	114,464
195,115	-10,087	244,864	114,290
196,129	-9,953	244,668	114,298
197,144	-10,397	244,583	113,883
198,159	-10,123	244,225	113,932
199,173	-10,148	244,026	113,808
200,188	-10,304	244,080	113,695
201,202	-10,468	243,586	113,320
202,217	-10,624	243,576	113,178
203,232	-10,786	243,382	112,944
204,246	-10,344	243,379	113,295
205,261	-9,969	243,019	113,424
206,275	-11,144	242,660	112,287
207,290	-7,337	244,257	116,142
208,304	0,637	246,778	123,927
209,319	4,131	247,668	127,253
210,334	4,430	247,593	127,450
211,348	4,619	247,535	127,565
212,363	4,859	247,558	127,763
213,377	5,232	247,212	127,880
214,392	4,820	247,191	127,519
215,407	4,798	246,921	127,350
216,421	4,809	246,754	127,262
217,436	4,942	246,668	127,316
218,450	4,970	246,553	127,268
219,465	4,735	246,155	126,858
220,480	4,477	246,148	126,632
221,494	4,544	245,817	126,505
222,509	4,690	245,699	126,553
223,523	4,543	245,542	126,340
224,538	4,181	245,341	125,929
225,553	4,412	245,087	125,977
226,567	4,422	245,058	125,958
227,582	4,411	244,906	125,861
228,596	4,392	244,765	125,761
229,611	4,282	244,514	125,531
230,626	3,947	244,311	125,143
231,640	4,125	244,224	125,232
232,655	4,471	243,977	125,376
233,669	4,084	243,953	125,038
234,684	4,032	243,600	124,803
235,699	4,510	243,593	125,177
236,713	4,537	243,613	125,198
237,728	4,320	243,289	124,844
238,742	4,148	243,086	124,590
239,757	4,098	242,825	124,405
240,772	3,902	242,776	124,210
241,786	4,167	242,588	124,317
242,801	3,840	242,449	123,971
243,815	4,257	242,330	124,235
244,830	4,271	242,157	124,146
245,844	4,374	242,042	124,159
246,859	4,330	241,730	123,953
247,874	4,107	241,728	123,762
248,888	4,175	241,558	123,718
249,903	4,497	241,435	123,902
250,917	4,189	241,478	123,666
251,932	4,679	241,102	123,855
252,947	4,511	240,941	123,627
253,961	4,319	240,729	123,353
254,976	4,274	240,729	123,307
255,990	4,617	240,452	123,428
257,005	4,103	240,258	122,907
258,020	3,979	240,076	122,703
259,034	4,164	240,088	122,846
260,049	4,389	239,911	122,924
261,063	3,985	239,728	122,497
262,078	3,964	239,469	122,337
263,093	4,517	239,388	122,725
264,107	4,502	239,267	122,640
265,122	4,225	239,117	122,332
266,136	4,424	238,950	122,394
267,151	4,484	238,848	122,378
268,166	4,244	238,610	122,055
269,180	3,971	238,451	121,747
270,195	4,742	238,406	122,323
271,209	4,785	238,283	122,284
272,224	4,275	238,076	121,763
273,239	3,926	237,804	121,338
274,253	3,993	237,708	121,331
275,268	4,398	237,523	121,545
276,282	4,267	237,374	121,355
277,297	3,993	237,173	121,025
278,312	4,291	236,844	121,081
279,326	4,143	237,003	121,036
280,341	4,159	236,814	120,941
281,355	4,366	236,688	121,028
282,370	4,481	236,510	121,016
283,384	4,228	236,480	120,791
284,399	4,145	236,194	120,569
285,414	3,901	235,819	120,177
286,428	4,203	235,947	120,468
287,443	4,091	235,824	120,306
288,457	4,318	235,596	120,356
289,472	4,357	235,497	120,326
290,487	4,416	235,308	120,264
291,501	4,048	235,049	119,835
292,516	4,049	234,945	119,772
293,530	3,819	234,753	119,484
294,545	4,317	234,730	119,849
295,560	4,305	234,589	119,757
296,574	3,960	234,349	119,356
297,589	3,919	234,220	119,249
298,603	4,569	234,259	119,762
299,618	4,276	234,048	119,416
300,633	4,317	233,848	119,335
301,647	4,796	233,716	119,627
302,662	4,736	233,665	119,544
303,676	4,742	233,389	119,397
304,691	4,524	233,394	119,221
305,706	4,738	233,087	119,218
306,720	4,749	232,963	119,153
307,735	4,644	232,724	118,939
308,749	4,441	232,621	118,720
309,764	4,240	232,352	118,418
310,779	4,135	232,029	118,162
311,793	4,195	231,936	118,150
312,808	3,885	231,990	117,929
313,822	3,908	231,591	117,733
314,837	3,733	231,505	117,545
315,852	3,912	231,405	117,621
316,866	4,558	231,463	118,133
317,881	4,662	231,515	118,229
318,895	4,688	231,135	118,044
319,910	4,505	231,082	117,867
320,925	4,098	230,810	117,408
321,939	3,716	230,577	116,988
322,954	3,983	230,612	117,198
323,968	4,512	230,631	117,601
324,983	4,503	230,298	117,413
325,997	4,762	230,162	117,530
327,012	4,582	229,942	117,271
328,027	4,087	229,949	116,888
329,041	4,559	229,831	117,176
330,056	5,132	229,769	117,568
331,070	5,049	229,583	117,400
332,085	4,651	229,310	116,949
333,100	4,499	229,193	116,763
334,114	4,517	228,964	116,650
335,129	4,812	228,867	116,813
336,143	4,836	228,779	116,775
337,158	4,620	228,527	116,474
338,173	4,336	228,423	116,197
339,187	4,290	228,238	116,058
340,202	4,539	227,998	116,112
341,216	4,488	227,952	116,041
342,231	4,171	227,802	115,716
343,246	4,463	227,540	115,792
344,260	4,266	227,556	115,642
345,275	4,795	227,405	115,951
346,289	4,577	227,311	115,729
347,304	4,684	227,174	115,729
348,319	4,428	227,083	115,481
349,333	4,565	226,835	115,447
350,348	4,419	226,535	115,175
351,362	4,190	226,557	115,005
352,377	3,926	226,334	114,684
353,392	3,828	226,029	114,446
354,406	4,103	225,936	114,594
355,421	196,055	1320,686	1399,043
356,435	157,175	1454,055	1399,029
