DTS Sentinel unit serial number:	SN410029Multiplexer serial number:	ORYXHardware model number:	OX2-SRSoftware version number:	ORYX F/W v4,00 Oryx Data Collector v3.7.2.0data status	okinstallation	B5 Nyhavnadifferential loss correction	single-endedforward channel	channel 2reverse channel	N/Adate	2023/12/11time	16:27:13forward acquisition time	300,00reverse acquisition time	0,00gamma	499,1914k internal	0,3166k external	0,3166temperature offset calibration	1,0000default loss term (dB/km)	0,3820temperature slope calibration	1,0000multiplexer offset coefficient	1,0000multiplexer slope coefficient	1,0000fibre end	0,00T internal ref (°C)	14,02T ext. ref 1 (°C)	-0,94T ext. ref 2 (°C)	-0,96length (m)	temperature (°C)	Stokes	anti-Stokes-744,400	73,472	0,125	-0,096
-743,385	-148,258	-0,300	-0,018
-742,371	-62,512	0,152	0,046
-741,356	-10,753	-0,246	0,119
-740,342	-129,327	0,206	0,021
-739,327	-151,811	-0,341	-0,018
-738,312	-78,350	0,132	0,033
-737,298	-2,250	-0,263	0,135
-736,283	747,895	0,047	-0,094
-735,269	-76,700	-0,150	0,038
-734,254	349,429	0,115	0,168
-733,239	-52,646	-0,422	-0,142
-732,225	-46,079	0,127	0,046
-731,210	800,000	-0,010	-0,021
-730,196	800,000	0,017	-0,037
-729,181	10,780	-0,084	-0,047
-728,167	68,297	0,142	-0,107
-727,152	-200,000	-0,012	-0,104
-726,137	-47,894	-0,097	-0,034
-725,123	164,672	-0,139	-0,144
-724,108	-103,659	-0,139	-0,024
-723,094	96,245	-0,077	-0,065
-722,079	800,000	-0,041	0,123
-721,064	800,000	0,012	-0,035
-720,050	800,000	0,029	0,095
-719,035	782,196	0,073	0,147
-718,021	-133,575	-0,062	0,006
-717,006	202,023	-0,122	-0,139
-715,991	64,373	0,108	-0,080
-714,977	170,289	-0,147	-0,155
-713,962	-85,532	0,048	0,011
-712,948	137,158	0,017	0,016
-711,933	-38,309	-0,019	-0,007
-710,918	-37,854	-0,149	0,058
-709,904	-200,000	0,009	-0,090
-708,889	800,000	-0,044	0,095
-707,875	-16,202	-0,069	0,032
-706,860	12,060	-0,087	0,049
-705,845	-200,000	-0,034	0,125
-704,831	-200,000	-0,020	0,122
-703,816	-164,854	0,017	-0,001
-702,802	-200,000	-0,034	0,121
-701,787	17,955	0,044	-0,026
-700,772	45,947	0,028	-0,019
-699,758	-8,904	-0,088	0,043
-698,743	194,284	-0,130	0,145
-697,729	-200,000	-0,001	0,026
-696,714	-200,000	0,011	-0,091
-695,699	451,891	-0,069	-0,113
-694,685	-200,000	0,015	0,095
-693,670	-103,088	-0,111	-0,019
-692,656	800,000	0,038	0,089
-691,641	-83,359	0,129	0,030
-690,627	-7,594	0,097	0,048
-689,612	-113,921	-0,102	0,014
-688,597	202,292	0,031	-0,035
-687,583	-95,424	0,035	0,007
-686,568	-34,063	-0,102	-0,041
-685,554	44,616	-0,024	-0,016
-684,539	-79,286	-0,060	0,015
-683,524	-194,065	-0,035	0,000
-682,510	-200,000	0,002	0,128
-681,495	-200,000	-0,007	-0,048
-680,481	-134,936	-0,143	-0,012
-679,466	3,703	-0,125	-0,067
-678,451	-200,000	-0,021	-0,087
-677,437	82,545	0,057	0,045
-676,422	800,000	0,042	-0,092
-675,408	343,011	-0,039	0,056
-674,393	-59,338	-0,065	0,020
-673,378	481,643	0,054	-0,090
-672,364	800,000	-0,023	-0,063
-671,349	100,342	-0,022	-0,018
-670,335	-200,000	-0,037	-0,138
-669,320	-200,000	-0,009	0,050
-668,305	800,000	0,026	0,079
-667,291	163,540	0,117	0,121
-666,276	-104,853	-0,171	-0,028
-665,262	-164,696	-0,090	0,003
-664,247	-200,000	-0,003	-0,108
-663,232	-89,103	-0,152	-0,033
-662,218	466,648	-0,031	0,051
-661,203	800,000	0,031	-0,095
-660,189	-65,472	-0,125	0,037
-659,174	-200,000	0,053	-0,211
-658,159	-119,690	-0,118	0,015
-657,145	800,000	-0,012	0,030
-656,130	-90,892	0,125	0,026
-655,116	-200,000	-0,006	0,036
-654,101	64,080	0,077	0,057
-653,086	458,797	-0,067	0,109
-652,072	141,307	-0,072	-0,070
-651,057	-200,000	-0,027	-0,154
-650,043	16,316	0,086	0,050
-649,028	-49,384	-0,003	-0,001
-648,014	-34,648	0,086	0,034
-646,999	272,638	0,175	0,227
-645,984	-125,832	-0,061	0,007
-644,970	800,000	-0,042	0,109
-643,955	253,618	-0,050	-0,062
-642,941	61,582	0,095	-0,069
-641,926	203,844	-0,096	-0,109
-640,911	167,709	0,118	-0,123
-639,897	-67,489	-0,087	-0,025
-638,882	-94,321	0,137	0,027
-637,868	752,867	0,047	-0,093
-636,853	-101,848	-0,092	-0,016
-635,838	-200,000	-0,046	-0,223
-634,824	419,264	-0,129	-0,202
-633,809	-200,000	-0,012	-0,060
-632,795	325,712	0,046	0,065
-631,780	-148,309	-0,039	0,002
-630,765	-107,614	-0,194	-0,031
-629,751	800,000	-0,025	-0,053
-628,736	-1,078	-0,102	-0,052
-627,722	-117,011	0,019	0,003
-626,707	-200,000	0,009	-0,071
-625,692	240,243	0,140	0,171
-624,678	-111,511	-0,036	0,005
-623,663	-37,516	0,055	0,021
-622,649	-200,000	-0,016	-0,091
-621,634	-200,000	-0,010	-0,097
-620,619	-200,000	0,006	0,057
-619,605	432,806	0,058	0,092
-618,590	106,000	-0,099	0,086
-617,576	92,768	0,025	0,021
-616,561	307,545	-0,074	0,102
-615,546	-80,092	-0,083	0,020
-614,532	800,000	-0,008	0,026
-613,517	-130,654	-0,084	0,008
-612,503	381,201	0,051	-0,076
-611,488	154,129	0,122	0,123
-610,474	361,023	0,064	0,094
-609,459	171,332	-0,037	-0,038
-608,444	45,654	-0,126	-0,085
-607,430	122,379	0,105	0,096
-606,415	-40,414	0,024	-0,009
-605,401	65,048	0,012	0,009
-604,386	-48,982	-0,034	-0,012
-603,371	190,814	-0,041	0,046
-602,357	800,000	-0,016	0,045
-601,342	-200,000	0,016	0,110
-600,328	800,000	-0,006	0,017
-599,313	733,045	0,061	-0,120
-598,298	800,000	0,029	0,091
-597,284	299,586	-0,086	0,116
-596,269	285,968	-0,059	-0,078
-595,255	-101,217	-0,069	-0,012
-594,240	-62,380	0,043	-0,013
-593,225	17,220	0,067	-0,039
-592,211	-200,000	-0,004	-0,077
-591,196	-5,311	-0,010	0,005
-590,182	-113,919	0,015	-0,002
-589,167	-200,000	-0,006	0,024
-588,152	-200,000	0,021	0,076
-587,138	116,016	0,057	0,051
-586,123	249,614	-0,047	0,059
-585,109	243,336	-0,027	0,033
-584,094	800,000	-0,045	0,105
-583,079	-102,213	-0,043	-0,008
-582,065	269,081	0,052	0,067
-581,050	92,839	0,068	-0,056
-580,036	800,000	0,027	-0,074
-579,021	800,000	-0,021	-0,047
-578,006	-57,442	-0,166	-0,053
-576,992	288,132	0,087	-0,116
-575,977	-200,000	0,020	0,135
-574,963	-118,275	0,054	-0,007
-573,948	446,906	-0,003	0,005
-572,934	800,000	0,008	-0,025
-571,919	-85,343	-0,078	-0,018
-570,904	27,485	-0,145	-0,089
-569,890	-94,666	0,149	0,029
-568,875	-200,000	-0,001	-0,059
-567,861	295,581	0,086	0,116
-566,846	-200,000	0,005	0,071
-565,831	-188,700	-0,088	-0,001
-564,817	-183,586	-0,126	0,002
-563,802	310,893	-0,085	0,116
-562,788	26,585	0,093	-0,057
-561,773	-168,013	-0,136	-0,004
-560,758	800,000	0,039	0,114
-559,744	145,275	-0,054	0,052
-558,729	-200,000	-0,023	-0,109
-557,715	459,167	-0,039	-0,064
-556,700	-151,340	-0,092	-0,005
-555,685	-200,000	0,013	-0,046
-554,671	-200,000	0,012	0,086
-553,656	48,373	0,139	0,095
-552,642	148,697	-0,043	0,043
-551,627	422,814	-0,039	0,062
-550,612	-200,000	-0,008	-0,060
-549,598	800,000	-0,025	-0,051
-548,583	-131,298	0,054	-0,005
-547,569	-200,000	0,026	0,139
-546,554	118,384	0,055	0,050
-545,539	200,779	-0,025	0,028
-544,525	-200,000	-0,011	0,065
-543,510	140,857	-0,049	-0,047
-542,496	-74,912	-0,034	-0,009
-541,481	800,000	-0,062	-0,186
-540,466	-21,841	0,144	0,064
-539,452	800,000	0,045	-0,092
-538,437	-135,730	-0,161	0,014
-537,423	-45,664	-0,083	0,030
-536,408	-115,782	-0,031	-0,004
-535,393	41,988	-0,046	-0,030
-534,379	-200,000	0,006	-0,081
-533,364	-77,985	-0,139	-0,035
-532,350	-10,311	0,129	0,062
-531,335	-147,820	0,056	0,003
-530,321	-47,898	-0,210	-0,074
-529,306	-100,812	0,175	0,031
-528,291	111,203	0,103	-0,090
-527,277	-125,254	0,051	-0,006
-526,262	-200,000	0,007	-0,070
-525,248	-96,834	0,067	0,013
-524,233	-200,000	-0,003	-0,099
-523,218	-42,209	-0,024	0,009
-522,204	304,133	0,090	-0,122
-521,189	3,868	0,136	-0,072
-520,175	413,390	-0,090	-0,140
-519,160	800,000	-0,031	-0,077
-518,145	-50,472	-0,081	-0,028
-517,131	-157,416	0,188	0,008
-516,116	-1,549	0,054	0,028
-515,102	-125,619	-0,192	-0,021
-514,087	800,000	0,057	0,149
-513,072	733,753	-0,089	-0,174
-512,058	-200,000	-0,048	0,161
-511,043	183,994	0,015	0,016
-510,029	236,246	0,013	-0,016
-509,014	-138,390	-0,056	-0,004
-507,999	-98,815	0,150	0,028
-506,985	221,447	-0,073	0,085
-505,970	-6,561	-0,111	-0,055
-504,956	357,432	-0,033	-0,048
-503,941	800,000	-0,004	0,011
-502,926	35,258	0,070	-0,045
-501,912	-200,000	0,014	-0,077
-500,897	-200,000	-0,019	0,118
-499,883	69,965	0,083	-0,062
-498,868	1,170	-0,100	-0,052
-497,853	-139,098	-0,135	0,011
-496,839	-200,000	0,000	-0,016
-495,824	-86,090	0,188	-0,042
-494,810	-82,588	-0,006	-0,001
-493,795	800,000	-0,018	0,038
-492,781	-200,000	-0,030	0,122
-491,766	-80,542	-0,181	-0,044
-490,751	-200,000	0,042	-0,138
-489,737	133,893	0,010	0,009
-488,722	60,310	-0,103	0,074
-487,708	123,426	0,140	0,128
-486,693	-84,637	-0,140	0,032
-485,678	-200,000	0,018	0,171
-484,664	58,107	0,038	0,027
-483,649	492,576	0,039	-0,065
-482,635	-144,298	0,107	0,007
-481,620	42,349	0,058	-0,038
-480,605	-141,218	-0,101	-0,007
-479,591	210,270	-0,070	-0,080
-478,576	-57,528	-0,114	-0,036
-477,562	52,460	-0,019	-0,013
-476,547	800,000	0,054	-0,127
-475,532	800,000	-0,022	0,050
-474,518	-200,000	-0,015	0,204
-473,503	-29,231	-0,025	-0,010
-472,489	-200,000	-0,014	0,092
-471,474	285,168	-0,043	0,056
-470,459	-200,000	0,000	0,057
-469,445	59,018	-0,036	-0,026
-468,430	-139,939	0,115	0,009
-467,416	-124,191	0,094	0,011
-466,401	-158,414	0,047	0,002
-465,386	-173,539	0,067	0,001
-464,372	-200,000	0,015	0,097
-463,357	-200,000	0,016	-0,057
-462,343	-200,000	0,003	-0,014
-461,328	-200,000	0,002	0,061
-460,313	-105,488	0,102	0,017
-459,299	-152,369	-0,087	-0,005
-458,284	-200,000	0,012	0,179
-457,270	-108,954	-0,121	-0,019
-456,255	800,000	-0,041	-0,096
-455,241	-200,000	0,007	0,079
-454,226	448,736	0,044	-0,071
-453,211	188,812	0,045	-0,049
-452,197	-200,000	-0,021	0,111
-451,182	132,022	0,053	0,049
-450,168	-76,867	0,075	0,019
-449,153	3,875	0,011	0,006
-448,138	-200,000	-0,049	-0,202
-447,124	132,379	0,027	-0,025
-446,109	285,205	-0,023	0,030
-445,095	70,994	0,026	-0,020
-444,080	-25,965	0,145	0,062
-443,065	-200,000	0,008	-0,053
-442,051	476,784	-0,048	-0,080
-441,036	800,000	-0,011	0,030
-440,022	-64,270	-0,047	0,014
-439,007	-60,251	0,106	-0,032
-437,992	-200,000	0,001	-0,037
-436,978	800,000	0,046	0,111
-435,963	800,000	-0,017	0,046
-434,949	101,506	-0,039	0,033
-433,934	-87,105	-0,072	-0,016
-432,919	-129,789	0,018	0,002
-431,905	-76,043	0,092	0,023
-430,890	105,915	0,026	-0,022
-429,876	800,000	0,056	0,140
-428,861	-200,000	-0,028	0,153
-427,846	-200,000	0,002	0,170
-426,832	-200,000	-0,000	-0,032
-425,817	71,521	0,086	-0,065
-424,803	-17,775	-0,004	-0,002
-423,788	-132,346	-0,049	-0,005
-422,773	479,468	-0,048	0,079
-421,759	202,427	0,014	-0,016
-420,744	-200,000	-0,047	0,167
-419,730	-159,556	-0,087	0,003
-418,715	14,488	-0,035	0,020
-417,701	-200,000	-0,002	-0,087
-416,686	8,700	0,136	0,074
-415,671	64,147	0,066	-0,048
-414,657	60,776	0,083	0,060
-413,642	-122,590	-0,057	-0,007
-412,628	-200,000	-0,013	0,100
-411,613	800,000	-0,023	0,056
-410,598	-97,195	-0,120	0,023
-409,584	37,743	0,085	-0,055
-408,569	-178,170	0,082	-0,001
-407,555	-102,372	-0,135	0,023
-406,540	44,193	-0,128	0,085
-405,525	-37,622	0,039	-0,015
-404,511	-200,000	0,011	-0,048
-403,496	-80,836	-0,057	0,014
-402,482	119,557	-0,040	0,036
-401,467	-115,235	0,016	-0,002
-400,452	-107,937	0,209	-0,033
-399,438	13,212	0,130	-0,073
-398,423	-116,578	-0,059	-0,008
-397,409	-196,042	-0,041	0,000
-396,394	125,320	0,106	0,097
-395,379	535,484	0,047	-0,082
-394,365	800,000	-0,016	0,037
-393,350	367,354	0,042	-0,062
-392,336	800,000	0,048	0,130
-391,321	800,000	-0,042	-0,105
-390,306	-4,881	0,061	-0,030
-389,292	20,479	-0,012	0,007
-388,277	-200,000	-0,017	0,075
-387,263	-75,795	0,095	-0,024
-386,248	-200,000	0,002	0,056
-385,233	800,000	-0,050	0,153
-384,219	-63,987	-0,148	0,044
-383,204	-72,990	0,031	-0,008
-382,190	127,841	-0,067	0,061
-381,175	520,991	0,042	-0,072
-380,160	262,142	-0,052	-0,066
-379,146	38,333	0,081	0,052
-378,131	363,329	-0,070	-0,102
-377,117	-200,000	-0,034	0,197
-376,102	293,828	-0,075	0,099
-375,088	-99,449	0,047	-0,008
-374,073	800,000	0,012	0,032
-373,058	147,018	0,067	0,065
-372,044	800,000	-0,083	0,229
-371,029	-200,000	-0,023	0,124
-370,015	-38,769	-0,063	0,024
-369,000	-200,000	0,025	-0,135
-367,985	132,704	-0,051	-0,048
-366,971	-200,000	-0,016	0,209
-365,956	-105,370	0,157	0,026
-364,942	370,600	0,077	-0,113
-363,927	446,702	-0,062	0,099
-362,912	704,104	0,071	-0,136
-361,898	800,000	0,012	0,032
-360,883	800,000	0,031	-0,065
-359,869	800,000	-0,050	-0,146
-358,854	-4,228	0,065	0,032
-357,839	199,866	0,012	0,014
-356,825	-43,920	-0,069	0,025
-355,810	-58,404	0,180	-0,056
-354,796	-55,767	-0,014	-0,005
-353,781	-61,841	-0,134	-0,040
-352,766	-200,000	-0,011	0,037
-351,752	269,222	-0,054	0,069
-350,737	78,127	0,059	0,046
-349,723	-43,535	0,092	-0,034
-348,708	-200,000	0,011	0,083
-347,693	243,484	-0,070	0,085
-346,679	311,403	-0,065	0,088
-345,664	365,714	-0,068	-0,100
-344,650	-133,355	-0,138	-0,012
-343,635	-75,574	0,028	0,007
-342,620	-97,508	0,112	0,021
-341,606	-107,347	-0,118	0,019
-340,591	800,000	-0,026	0,064
-339,577	34,373	0,043	0,027
-338,562	182,043	-0,101	0,108
-337,548	-200,000	-0,005	-0,022
-336,533	-151,026	0,057	-0,003
-335,518	623,356	0,068	0,125
-334,504	149,223	0,011	-0,010
-333,489	-66,572	-0,130	0,037
-332,475	-25,174	-0,054	-0,023
-331,460	238,187	0,046	0,055
-330,445	-200,000	-0,008	-0,157
-329,431	11,904	0,173	-0,096
-328,416	362,522	-0,013	0,018
-327,402	-102,821	-0,026	-0,005
-326,387	-200,000	0,003	-0,084
-325,372	122,486	-0,077	-0,069
-324,358	4,867	-0,099	0,053
-323,343	461,517	0,019	0,031
-322,329	800,000	0,051	0,105
-321,314	40,534	0,048	-0,031
-320,299	800,000	-0,032	-0,077
-319,285	-101,879	0,054	0,009
-318,270	128,493	0,114	0,105
-317,256	-200,000	0,038	-0,173
-316,241	136,577	-0,079	-0,075
-315,226	193,632	0,065	0,071
-314,212	551,539	0,070	-0,122
-313,197	613,951	-0,077	-0,139
-312,183	-200,000	-0,026	-0,125
-311,168	224,269	0,069	-0,080
-310,153	183,615	-0,057	-0,061
-309,139	-11,559	-0,031	-0,015
-308,124	52,347	-0,090	-0,062
-307,110	107,976	0,077	0,066
-306,095	-200,000	0,041	-0,182
-305,080	5,279	0,086	-0,046
-304,066	29,684	0,016	0,010
-303,051	-6,453	-0,133	-0,066
-302,037	55,166	-0,114	-0,080
-301,022	116,148	0,023	0,020
-300,008	-63,890	0,057	-0,017
-298,993	-67,681	0,125	0,035
-297,978	151,533	0,093	-0,092
-296,964	-57,067	-0,090	-0,028
-295,949	-130,716	0,037	0,004
-294,935	121,570	-0,124	-0,112
-293,920	-200,000	0,011	-0,049
-292,905	72,578	0,109	0,082
-291,891	-200,000	-0,010	0,078
-290,876	179,980	0,025	0,026
-289,862	-133,012	-0,052	0,005
-288,847	196,287	-0,101	-0,112
-287,832	478,336	0,045	0,074
-286,818	109,405	0,040	0,035
-285,803	85,946	0,184	0,146
-284,789	-91,792	-0,102	-0,021
-283,774	-80,915	-0,009	0,002
-282,759	116,948	-0,009	0,008
-281,745	-200,000	-0,007	0,047
-280,730	-53,249	-0,060	-0,020
-279,716	-99,191	0,033	0,006
-278,701	800,000	0,037	0,089
-277,686	-200,000	-0,031	0,111
-276,672	78,498	-0,042	0,032
-275,657	46,543	0,072	0,048
-274,643	776,659	0,054	-0,107
-273,628	-200,000	-0,022	-0,146
-272,613	234,538	-0,048	-0,058
-271,599	45,172	-0,087	-0,058
-270,584	-52,703	-0,091	0,030
-269,570	234,492	0,027	0,033
-268,555	-86,839	0,088	0,019
-267,540	251,665	-0,059	0,072
-266,526	112,696	-0,029	0,026
-265,511	800,000	-0,033	-0,100
-264,497	154,641	-0,080	-0,080
-263,482	-128,627	-0,116	0,012
-262,467	-10,247	0,076	-0,036
-261,453	4,964	-0,051	0,027
-260,438	72,445	-0,064	0,048
-259,424	169,757	-0,098	-0,101
-258,409	-59,055	0,085	0,026
-257,395	800,000	0,007	-0,017
-256,380	97,705	0,091	-0,075
-255,365	220,427	0,014	0,016
-254,351	74,679	0,016	0,012
-253,336	-101,585	0,056	-0,010
-252,322	166,362	-0,055	0,057
-251,307	800,000	-0,015	0,041
-250,292	61,205	-0,018	0,013
-249,278	-200,000	-0,009	-0,098
-248,263	136,741	0,084	0,080
-247,249	-80,106	0,113	0,027
-246,234	82,957	0,027	-0,021
-245,219	-142,051	0,026	0,002
-244,205	42,448	-0,067	0,044
-243,190	-88,212	-0,015	0,003
-242,176	-118,205	0,061	0,008
-241,161	301,179	0,046	-0,061
-240,146	-137,375	0,076	-0,006
-239,132	-38,687	0,044	0,017
-238,117	88,897	-0,027	-0,021
-237,103	534,690	-0,076	-0,131
-236,088	42,179	-0,116	0,076
-235,073	-200,000	0,040	0,127
-234,059	299,322	-0,001	-0,002
-233,044	62,264	-0,132	0,095
-232,030	171,252	-0,083	0,085
-231,015	-200,000	0,016	-0,054
-230,000	-200,000	0,009	-0,080
-228,986	-70,115	-0,102	0,028
-227,971	-200,000	-0,000	-0,022
-226,957	286,042	-0,016	-0,021
-225,942	517,874	0,086	-0,146
-224,927	-1,454	-0,164	-0,083
-223,913	648,100	0,036	-0,067
-222,898	-47,215	0,166	-0,058
-221,884	-52,409	0,128	0,042
-220,869	179,961	0,081	-0,086
-219,855	800,000	0,043	0,102
-218,840	-116,006	0,150	0,020
-217,825	-72,886	-0,070	0,018
-216,811	800,000	0,016	0,035
-215,796	-53,171	-0,029	0,009
-214,782	-200,000	0,026	-0,166
-213,767	-64,918	-0,050	-0,015
-212,752	-27,451	0,119	-0,050
-211,738	-52,515	0,084	-0,028
-210,723	490,305	0,071	0,118
-209,709	154,802	-0,043	-0,043
-208,694	800,000	0,037	-0,091
-207,679	88,770	-0,020	0,016
-206,665	-200,000	-0,009	0,086
-205,650	800,000	-0,043	0,100
-204,636	99,768	-0,054	-0,045
-203,621	-50,478	0,037	-0,012
-202,606	112,809	0,058	0,050
-201,592	-200,000	0,003	-0,072
-200,577	378,693	-0,095	-0,140
-199,563	-112,858	0,079	-0,011
-198,548	-200,000	-0,006	0,054
-197,533	-200,000	0,006	-0,073
-196,519	-19,060	0,068	-0,030
-195,504	-200,000	0,000	-0,159
-194,490	506,584	-0,027	-0,046
-193,475	-200,000	0,011	0,079
-192,460	-200,000	0,017	0,101
-191,446	-85,005	-0,070	-0,016
-190,431	42,761	0,076	-0,049
-189,417	227,326	-0,139	-0,163
-188,402	26,429	-0,046	-0,028
-187,387	-104,733	-0,091	0,015
-186,373	44,273	0,036	0,024
-185,358	82,665	-0,026	0,020
-184,344	-35,866	0,150	-0,058
-183,329	-6,130	0,011	-0,005
-182,315	338,118	-0,075	-0,105
-181,300	294,275	-0,049	-0,065
-180,285	74,983	-0,150	-0,113
-179,271	116,864	-0,150	-0,133
-178,256	-93,338	-0,053	-0,010
-177,242	-200,000	0,011	0,050
-176,227	-4,827	-0,066	0,033
-175,212	-12,169	0,087	0,041
-174,198	-36,496	0,068	-0,026
-173,183	800,000	-0,020	-0,044
-172,169	123,827	-0,039	-0,035
-171,154	1,117	-0,042	0,021
-170,139	290,237	0,063	0,082
-169,125	-200,000	0,002	-0,096
-168,110	-51,128	0,084	-0,028
-167,096	4,421	0,190	0,100
-166,081	-66,952	-0,109	-0,031
-165,066	-200,000	-0,008	0,029
-164,052	629,509	0,051	0,093
-163,037	180,609	0,106	-0,112
-162,023	268,579	0,052	0,066
-161,008	-121,186	0,094	-0,011
-159,993	189,536	-0,033	-0,036
-158,979	-8,231	-0,027	0,013
-157,964	171,628	-0,026	0,027
-156,950	188,743	0,065	-0,070
-155,935	487,228	0,068	0,113
-154,920	-154,478	-0,093	-0,004
-153,906	728,527	0,042	0,081
-152,891	210,091	0,010	-0,012
-151,877	179,963	0,040	-0,042
-150,862	92,458	-0,149	-0,120
-149,847	-17,994	0,100	-0,045
-148,833	-200,000	0,003	-0,044
-147,818	-94,913	-0,115	0,022
-146,804	105,865	0,020	0,017
-145,789	-7,103	-0,064	-0,031
-144,775	-200,000	-0,018	-0,071
-143,760	239,703	0,112	-0,134
-142,745	-30,349	-0,024	0,010
-141,731	800,000	-0,050	0,133
-140,716	-42,422	0,045	-0,016
-139,702	-200,000	0,001	0,086
-138,687	136,400	-0,078	0,073
-137,672	518,073	0,036	0,060
-136,658	-200,000	-0,010	-0,188
-135,643	119,120	0,054	0,048
-134,629	-63,165	0,067	-0,020
-133,614	-158,442	0,068	0,003
-132,599	40,767	0,016	0,010
-131,585	-200,000	0,019	0,138
-130,570	-62,208	0,106	-0,031
-129,556	-4,919	-0,093	0,046
-128,541	-77,263	-0,197	0,049
-127,526	126,331	0,093	0,085
-126,512	-117,045	-0,054	-0,007
-125,497	-200,000	0,001	0,029
-124,483	-58,400	-0,046	0,014
-123,468	-200,000	-0,030	0,168
-122,453	800,000	0,049	0,105
-121,439	586,338	-0,056	-0,100
-120,424	-200,000	-0,007	0,045
-119,410	-28,050	0,107	-0,044
-118,395	27,089	-0,144	-0,086
-117,380	206,618	0,094	0,105
-116,366	200,982	0,064	-0,070
-115,351	85,240	0,073	-0,058
-114,337	-85,216	-0,059	-0,013
-113,322	119,891	-0,113	0,100
-112,307	-200,000	0,031	0,146
-111,293	106,675	0,107	0,091
-110,278	-200,000	-0,033	-0,158
-109,264	308,086	0,076	-0,102
-108,249	-81,747	-0,110	-0,026
-107,234	111,438	0,046	0,040
-106,220	-30,460	0,051	-0,020
-105,205	696,243	0,042	0,080
-104,191	-31,329	0,122	0,049
-103,176	-70,815	0,115	0,031
-102,162	63,123	0,060	0,043
-101,147	800,000	-0,008	-0,021
-100,132	-22,103	-0,079	-0,034
-99,118	-91,134	-0,086	0,017
-98,103	448,124	0,036	-0,057
-97,089	549,212	0,016	0,028
-96,074	-200,000	-0,014	0,049
-95,059	-17,835	-0,038	0,017
-94,045	226,433	0,061	-0,072
-93,030	-200,000	-0,000	-0,158
-92,016	800,000	-0,051	0,117
-91,001	111,956	-0,113	0,098
-89,986	-67,431	0,099	-0,028
-88,972	-0,373	0,139	0,071
-87,957	4,252	-0,123	0,064
-86,943	-200,000	0,010	-0,044
-85,928	800,000	-0,027	-0,079
-84,913	-14,729	0,137	0,063
-83,899	162,864	0,059	0,059
-82,884	-200,000	-0,024	-0,077
-81,870	-200,000	0,027	0,139
-80,855	245,959	0,055	-0,067
-79,840	-99,001	0,084	0,015
-78,826	209,692	0,045	-0,051
-77,811	800,000	-0,053	-0,141
-76,797	-200,000	0,015	0,052
-75,782	232,190	0,052	0,061
-74,767	519,493	-0,082	0,139
-73,753	242,179	0,062	0,075
-72,738	-200,000	0,005	-0,036
-71,724	120,606	0,094	0,083
-70,709	800,000	0,047	-0,097
-69,694	335,685	-0,035	-0,049
-68,680	47,838	0,040	-0,026
-67,665	103,360	0,021	0,018
-66,651	-24,569	0,041	0,017
-65,636	171,928	0,046	0,048
-64,622	43,137	0,062	0,040
-63,607	479,150	-0,035	0,056
-62,592	108,543	0,035	0,030
-61,578	-200,000	-0,018	-0,121
-60,563	718,092	-0,075	-0,143
-59,549	-68,791	-0,104	0,029
-58,534	29,047	-1,974	-1,196
-57,519	-200,000	-0,118	-0,816
-56,505	-200,000	-1,348	-4,946
-55,490	44,895	0,884	0,581
-54,476	800,000	5,443	12,284
-53,461	-200,000	18,606	308,467
-52,446	800,000	738,308	2307,684
-51,432	553,991	1654,459	2859,399
-50,417	110,651	1639,573	1411,140
-49,403	74,146	1289,946	968,318
-48,388	30,544	1030,111	629,057
-47,373	19,984	992,406	571,167
-46,359	17,709	980,189	556,649
-45,344	14,431	976,302	543,680
-44,330	14,724	974,797	543,779
-43,315	14,120	972,886	540,714
-42,300	13,996	971,899	539,741
-41,286	14,082	970,847	539,416
-40,271	13,996	970,000	538,641
-39,257	14,096	969,142	538,469
-38,242	14,021	968,284	537,729
-37,227	14,053	967,362	537,300
-36,213	14,020	966,494	536,690
-35,198	14,032	965,626	536,225
-34,184	14,048	964,994	535,903
-33,169	14,060	963,862	535,292
-32,154	14,053	962,952	534,744
-31,140	14,032	962,244	534,261
-30,125	14,091	961,475	534,004
-29,111	14,025	960,600	533,283
-28,096	14,056	959,916	532,981
-27,082	14,054	959,163	532,538
-26,067	14,036	958,615	532,154
-25,052	14,094	957,735	531,829
-24,038	14,094	957,027	531,417
-23,023	14,095	956,413	531,058
-22,009	14,069	955,839	530,633
-20,994	14,028	955,219	530,136
-19,979	14,115	954,394	529,936
-18,965	14,077	953,761	529,444
-17,950	14,046	953,218	529,021
-16,936	14,030	952,671	528,646
-15,921	13,938	952,155	528,044
-14,906	13,927	951,403	527,571
-13,892	14,034	950,428	527,352
-12,877	13,973	949,771	526,770
-11,863	13,928	949,290	526,339
-10,848	13,970	948,632	526,088
-9,833	14,028	948,214	526,020
-8,819	13,982	947,600	525,513
-7,804	13,951	947,068	525,097
-6,790	13,976	946,489	524,836
-5,775	13,970	946,042	524,548
-4,760	14,044	945,174	524,280
-3,746	13,960	944,580	523,665
-2,731	13,817	943,929	522,830
-1,717	13,806	943,160	522,348
-0,702	13,821	942,599	522,065
0,313	13,663	941,925	521,979
1,327	16,891	939,618	530,838
2,342	25,904	795,000	473,006
3,356	22,455	459,669	268,193
4,371	-4,089	316,146	156,134
5,386	-8,007	298,109	143,231
6,400	-9,834	291,741	138,341
7,415	-10,543	289,383	136,510
8,429	-10,901	287,711	135,357
9,444	-10,933	286,763	134,868
10,459	-10,804	286,048	134,646
11,473	-10,987	285,522	134,208
12,488	-10,894	285,062	134,071
13,502	-10,952	284,432	133,705
14,517	-11,001	283,869	133,381
15,531	-11,198	283,608	133,056
16,546	-11,107	282,952	132,825
17,561	-11,081	282,690	132,715
18,575	-11,129	282,455	132,546
19,590	-11,263	282,006	132,195
20,604	-10,992	281,568	132,238
21,619	-11,199	281,379	131,939
22,634	-11,131	280,994	131,811
23,648	-11,304	280,637	131,467
24,663	-11,163	280,385	131,472
25,677	-11,306	280,227	131,249
26,692	-11,124	279,809	131,216
27,707	-11,284	279,560	130,935
28,721	-11,393	279,390	130,740
29,736	-11,213	278,916	130,677
30,750	-11,168	278,773	130,641
31,765	-11,296	278,533	130,396
32,780	-11,281	278,256	130,269
33,794	-11,106	277,900	130,256
34,809	-11,233	277,638	130,002
35,823	-11,426	277,552	129,767
36,838	-11,383	277,278	129,668
37,853	-11,368	277,010	129,546
38,867	-11,314	276,664	129,423
39,882	-11,276	276,393	129,320
40,896	-11,361	276,213	129,145
41,911	-11,513	276,181	128,976
42,926	-11,282	275,751	128,980
43,940	-11,414	275,578	128,763
44,955	-11,208	275,365	128,845
45,969	-11,389	275,106	128,544
46,984	-11,331	274,717	128,404
47,999	-11,449	274,565	128,212
49,013	-11,454	274,364	128,101
50,028	-11,427	274,035	127,962
51,042	-11,505	273,821	127,778
52,057	-11,710	273,671	127,506
53,071	-11,546	273,389	127,515
54,086	-11,454	273,153	127,480
55,101	-11,436	272,994	127,411
56,115	-11,292	272,730	127,409
57,130	-11,387	272,744	127,317
58,144	-11,119	272,371	127,379
59,159	-11,032	272,216	127,376
60,174	-10,902	271,795	127,288
61,188	-10,958	271,531	127,101
62,203	-11,171	271,470	126,865
63,217	-11,166	271,228	126,745
64,232	-11,197	271,016	126,606
65,247	-10,986	270,682	126,633
66,261	-11,148	270,568	126,419
67,276	-11,135	270,357	126,321
68,290	-11,313	270,048	126,002
69,305	-11,228	269,895	125,998
70,320	-11,358	269,680	125,767
71,334	-11,097	269,460	125,892
72,349	-11,071	269,339	125,849
73,363	-10,946	269,014	125,799
74,378	-11,210	268,905	125,496
75,393	-10,951	268,517	125,540
76,407	-11,263	268,374	125,178
77,422	-11,148	268,086	125,136
78,436	-11,144	268,047	125,111
79,451	-10,946	267,455	125,003
80,466	-11,118	267,303	124,765
81,480	-11,364	267,216	124,490
82,495	-11,177	267,038	124,565
83,509	-11,133	266,812	124,488
84,524	-11,259	266,608	124,269
85,539	-11,230	266,480	124,224
86,553	-11,298	266,200	124,021
87,568	-11,124	265,850	124,004
88,582	-11,213	265,797	123,887
89,597	-11,181	265,647	123,836
90,611	-11,132	265,314	123,714
91,626	-11,127	265,277	123,690
92,641	-11,081	265,019	123,600
93,655	-11,128	264,785	123,437
94,670	-11,186	264,508	123,245
95,684	-11,159	264,333	123,177
96,699	-11,020	264,207	123,232
97,714	-10,989	264,019	123,161
98,728	-11,292	263,755	122,756
99,743	-11,245	263,455	122,647
100,757	-11,374	263,242	122,422
101,772	-11,188	263,208	122,561
102,787	-11,086	263,043	122,564
103,801	-11,247	262,953	122,368
104,816	-11,218	262,633	122,234
105,830	-10,990	262,344	122,291
106,845	-11,117	262,127	122,067
107,860	-11,082	262,120	122,083
108,874	-11,041	261,718	121,922
109,889	-11,008	261,591	121,880
110,903	-11,176	261,465	121,662
111,918	-10,955	261,215	121,731
112,933	-10,939	260,996	121,631
113,947	-10,936	260,917	121,587
114,962	-11,047	260,438	121,255
115,976	-11,123	260,427	121,172
116,991	-11,253	260,253	120,965
118,006	-11,114	259,901	120,913
119,020	-11,148	259,939	120,891
120,035	-11,011	259,768	120,921
121,049	-11,109	259,656	120,771
122,064	-10,950	259,268	120,720
123,079	-11,071	259,204	120,573
124,093	-11,229	258,795	120,234
125,108	-11,007	258,630	120,341
126,122	-11,351	258,494	119,966
127,137	-11,450	258,253	119,757
128,151	-11,332	258,136	119,795
129,166	-11,142	257,899	119,841
130,181	-11,146	257,677	119,723
131,195	-11,129	257,349	119,574
132,210	-11,059	257,345	119,623
133,224	-11,043	257,083	119,504
134,239	-11,029	257,021	119,477
135,254	-10,910	256,689	119,415
136,268	-11,007	256,508	119,237
137,283	-11,055	256,307	119,091
138,297	-11,247	256,151	118,842
139,312	-11,396	255,898	118,585
140,327	-11,118	255,761	118,751
141,341	-11,063	255,626	118,725
142,356	-10,854	255,420	118,799
143,370	-10,947	255,389	118,694
144,385	-10,982	255,140	118,537
145,400	-11,125	254,970	118,324
146,414	-11,012	254,751	118,309
147,429	-11,115	254,509	118,098
148,443	-10,902	254,242	118,146
149,458	-10,948	254,130	118,044
150,473	-11,073	254,035	117,882
151,487	-11,068	253,870	117,800
152,502	-10,806	253,563	117,871
153,516	-10,884	253,246	117,647
154,531	-10,966	253,252	117,569
155,546	-11,043	253,082	117,413
156,560	-10,920	252,788	117,372
157,575	-11,121	252,617	117,110
158,589	-10,938	252,394	117,152
159,604	-10,974	252,408	117,117
160,619	-10,819	252,169	117,129
161,633	-10,801	251,956	117,034
162,648	-10,892	251,816	116,881
163,662	-10,988	251,812	116,788
164,677	-10,806	251,388	116,734
165,692	-10,921	251,297	116,584
166,706	-10,916	251,102	116,488
167,721	-10,956	250,863	116,333
168,735	-10,770	250,958	116,524
169,750	-10,666	250,752	116,506
170,764	-10,921	250,541	116,182
171,779	-10,993	250,435	116,062
172,794	-10,992	250,245	115,964
173,808	-10,806	249,894	115,948
174,823	-10,969	249,676	115,699
175,837	-11,117	249,487	115,477
176,852	-10,916	249,504	115,644
177,867	-10,767	249,332	115,679
178,881	-10,791	249,165	115,571
179,896	-10,804	248,817	115,388
180,910	-10,747	248,810	115,422
181,925	-10,894	248,691	115,234
182,940	-10,816	248,529	115,213
183,954	-10,880	248,270	115,030
184,969	-10,946	248,234	114,948
185,983	-10,809	247,997	114,942
186,998	-10,948	247,874	114,759
188,013	-10,790	247,658	114,780
189,027	-10,827	247,466	114,650
190,042	-10,911	247,240	114,465
191,056	-10,602	247,127	114,660
192,071	-10,794	246,857	114,365
193,086	-10,765	246,783	114,344
194,100	-10,662	246,587	114,329
195,115	-10,534	246,367	114,322
196,129	-10,590	246,115	114,149
197,144	-10,628	246,044	114,075
198,159	-10,723	245,801	113,874
199,173	-10,582	245,658	113,914
200,188	-10,752	245,581	113,728
201,202	-10,869	245,233	113,459
202,217	-11,224	245,176	113,131
203,232	-11,244	244,757	112,911
204,246	-10,424	244,797	113,593
205,261	-9,669	244,929	114,265
206,275	-9,884	244,855	114,044
207,290	-8,694	245,147	115,147
208,304	-5,380	246,160	118,345
209,319	-2,908	246,736	120,651
210,334	-2,264	246,861	121,234
211,348	-1,561	246,966	121,855
212,363	-1,142	246,902	122,157
213,377	-0,797	247,099	122,528
214,392	-0,407	246,964	122,772
215,407	-0,328	246,689	122,689
216,421	-0,364	246,555	122,582
217,436	-0,524	246,374	122,350
218,450	-0,586	246,208	122,205
219,465	-0,623	245,957	122,040
220,480	-0,805	245,854	121,828
221,494	-0,554	245,727	121,960
222,509	-0,640	245,438	121,736
223,523	-0,719	245,324	121,603
224,538	-0,867	245,131	121,376
225,553	-0,722	245,022	121,430
226,567	-0,860	244,889	121,240
227,582	-0,493	244,573	121,372
228,596	-0,759	244,614	121,165
229,611	-0,659	244,435	121,147
230,626	-0,653	244,246	121,047
231,640	-0,741	243,909	120,798
232,655	-0,671	243,711	120,745
233,669	-0,853	243,817	120,639
234,684	-0,587	243,443	120,660
235,699	-0,680	243,337	120,521
236,713	-0,685	243,097	120,387
237,728	-0,657	243,166	120,433
238,742	-0,762	242,901	120,206
239,757	-0,704	242,680	120,133
240,772	-0,743	242,585	120,044
241,786	-0,748	242,258	119,867
242,801	-0,705	242,191	119,858
243,815	-0,505	242,050	119,939
244,830	-0,542	241,841	119,794
245,844	-0,599	241,904	119,769
246,859	-0,559	241,642	119,661
247,874	-0,685	241,475	119,467
248,888	-0,716	241,309	119,349
249,903	-0,724	241,172	119,264
250,917	-0,522	241,000	119,330
251,932	-0,577	240,842	119,198
252,947	-0,690	240,619	118,986
253,961	-0,536	240,375	118,978
254,976	-0,539	240,371	118,963
255,990	-0,605	240,217	118,823
257,005	-0,815	239,997	118,536
258,020	-0,649	239,830	118,575
259,034	-0,594	239,723	118,556
260,049	-0,624	239,490	118,406
261,063	-0,738	239,315	118,218
262,078	-0,756	239,126	118,100
263,093	-0,729	239,093	118,095
264,107	-0,789	238,952	117,967
265,122	-0,644	238,789	117,991
266,136	-0,656	238,651	117,903
267,151	-0,313	238,442	118,061
268,166	-0,645	238,323	117,729
269,180	-0,549	238,122	117,694
270,195	-0,702	238,045	117,525
271,209	-0,585	237,942	117,556
272,224	-0,710	237,762	117,358
273,239	-0,711	237,637	117,285
274,253	-0,610	237,367	117,221
275,268	-0,591	237,291	117,188
276,282	-0,534	237,006	117,081
277,297	-0,543	236,912	117,018
278,312	-0,831	236,882	116,766
279,326	-0,637	236,718	116,827
280,341	-0,556	236,520	116,783
281,355	-0,722	236,370	116,569
282,370	-0,430	236,196	116,701
283,384	-0,513	236,055	116,556
284,399	-0,681	235,877	116,326
285,414	-0,519	235,709	116,359
286,428	-0,524	235,661	116,321
287,443	-0,401	235,370	116,263
288,457	-0,584	235,362	116,107
289,472	-0,382	235,036	116,092
290,487	-0,490	235,033	115,996
291,501	-0,431	234,736	115,885
292,516	-0,641	234,717	115,702
293,530	-0,602	234,487	115,609
294,545	-0,323	234,419	115,782
295,560	-0,257	234,242	115,735
296,574	-0,372	234,051	115,541
297,589	-0,649	233,905	115,244
298,603	-0,503	233,748	115,270
299,618	-0,422	233,628	115,263
300,633	-0,572	233,515	115,081
301,647	-0,509	233,285	115,006
302,662	-0,436	233,158	114,989
303,676	-0,456	233,068	114,920
304,691	-0,285	232,806	114,911
305,706	-0,414	232,702	114,751
306,720	-0,289	232,593	114,783
307,735	-0,508	232,533	114,575
308,749	-0,470	232,337	114,497
309,764	-0,461	232,169	114,411
310,779	-0,264	231,832	114,386
311,793	-0,393	231,903	114,311
312,808	-0,364	231,762	114,254
313,822	-0,243	231,473	114,194
314,837	-0,328	231,473	114,119
315,852	-0,280	231,258	114,039
316,866	-0,395	231,121	113,874
317,881	-0,156	230,831	113,903
318,895	-0,122	230,793	113,900
319,910	-0,283	230,645	113,695
320,925	-0,286	230,504	113,612
321,939	-0,272	230,353	113,538
322,954	-0,381	230,380	113,459
323,968	-0,141	230,167	113,527
324,983	-0,194	229,914	113,351
325,997	-0,318	229,687	113,135
327,012	-0,318	229,720	113,141
328,027	-0,381	229,590	113,019
329,041	-0,430	229,479	112,917
330,056	-0,423	229,239	112,795
331,070	-0,253	229,021	112,805
332,085	-0,340	228,889	112,665
333,100	-0,221	228,760	112,681
334,114	-0,106	228,509	112,635
335,129	-0,239	228,491	112,515
336,143	-0,185	228,265	112,434
337,158	-0,254	228,297	112,389
338,173	-0,027	228,118	112,461
339,187	-0,149	228,010	112,306
340,202	-0,132	227,886	112,247
341,216	-0,229	227,760	112,102
342,231	-0,172	227,482	111,999
343,246	-0,168	227,268	111,886
344,260	0,013	227,166	111,962
345,275	-0,317	227,162	111,702
346,289	-0,121	226,949	111,735
347,304	-0,157	226,719	111,584
348,319	-0,126	226,594	111,536
349,333	0,059	226,499	111,617
350,348	-0,028	226,346	111,467
351,362	-0,238	226,221	111,239
352,377	-0,091	226,040	111,250
353,392	-0,001	225,982	111,279
354,406	0,117	225,815	111,274
355,421	196,060	1319,246	1393,899
356,435	157,181	1452,442	1393,866
