DTS Sentinel unit serial number:	SN410029Multiplexer serial number:	ORYXHardware model number:	OX2-SRSoftware version number:	ORYX F/W v4,00 Oryx Data Collector v3.7.2.0data status	okinstallation	B5 Nyhavnadifferential loss correction	single-endedforward channel	channel 2reverse channel	N/Adate	2023/12/14time	14:27:13forward acquisition time	300,00reverse acquisition time	0,00gamma	499,1914k internal	0,3157k external	0,3157temperature offset calibration	1,0000default loss term (dB/km)	0,3820temperature slope calibration	1,0000multiplexer offset coefficient	1,0000multiplexer slope coefficient	1,0000fibre end	0,00T internal ref (°C)	8,02T ext. ref 1 (°C)	-8,05T ext. ref 2 (°C)	-8,12length (m)	temperature (°C)	Stokes	anti-Stokes-744,400	172,103	0,183	0,194
-743,385	-35,770	-0,258	-0,102
-742,371	-11,471	0,182	0,088
-741,356	-132,640	-0,174	-0,016
-740,342	16,042	0,235	0,136
-739,327	-10,962	-0,331	-0,160
-738,312	7,142	0,075	0,041
-737,298	-76,920	-0,241	-0,062
-736,283	-30,570	0,160	0,067
-735,269	-64,463	-0,288	0,086
-734,254	473,222	0,113	0,189
-733,239	-96,628	-0,514	-0,099
-732,225	-94,196	0,226	0,045
-731,210	45,745	-0,060	0,041
-730,196	73,342	-0,092	-0,071
-729,181	800,000	0,043	-0,089
-728,167	800,000	0,045	0,106
-727,152	158,096	-0,127	0,130
-726,137	-55,970	-0,045	-0,015
-725,123	592,204	-0,033	-0,061
-724,108	800,000	-0,029	0,067
-723,094	800,000	-0,025	-0,068
-722,079	-21,857	-0,136	-0,061
-721,064	-67,757	0,077	-0,022
-720,050	-20,405	0,058	0,026
-719,035	83,964	-0,103	0,083
-718,021	-111,480	0,101	-0,015
-717,006	-123,300	-0,194	0,023
-715,991	760,859	0,042	-0,085
-714,977	-19,901	0,049	0,022
-713,962	-200,000	-0,054	-0,180
-712,948	-200,000	-0,056	-0,183
-711,933	530,271	-0,042	-0,073
-710,918	-191,343	-0,155	0,001
-709,904	-142,608	-0,025	-0,002
-708,889	61,029	-0,029	0,021
-707,875	336,973	0,061	-0,088
-706,860	800,000	-0,021	0,052
-705,845	466,942	-0,035	-0,058
-704,831	359,262	0,100	-0,148
-703,816	63,266	0,062	0,046
-702,802	800,000	0,013	-0,034
-701,787	249,343	-0,035	0,043
-700,772	6,076	-0,095	0,051
-699,758	-96,462	0,054	0,010
-698,743	-148,625	0,105	0,006
-697,729	-164,027	0,112	0,004
-696,714	400,390	-0,055	0,085
-695,699	28,929	-0,113	-0,070
-694,685	-36,601	-0,118	-0,046
-693,670	800,000	0,049	-0,107
-692,656	-200,000	-0,018	-0,074
-691,641	-151,898	-0,071	0,004
-690,627	-146,283	-0,062	-0,004
-689,612	-200,000	0,010	-0,095
-688,597	334,188	0,038	-0,055
-687,583	-124,674	-0,125	0,014
-686,568	63,529	0,045	-0,033
-685,554	88,609	0,082	-0,067
-684,539	800,000	-0,042	0,103
-683,524	-106,848	0,052	-0,008
-682,510	-71,861	-0,149	0,041
-681,495	174,883	0,022	0,024
-680,481	149,996	-0,156	-0,156
-679,466	274,869	-0,083	-0,108
-678,451	800,000	-0,085	-0,227
-677,437	-15,884	-0,033	-0,015
-676,422	-200,000	-0,015	-0,087
-675,408	-93,334	0,045	-0,009
-674,393	-28,994	0,036	-0,015
-673,378	70,075	-0,053	-0,041
-672,364	-200,000	0,006	0,041
-671,349	22,250	-0,036	-0,022
-670,335	118,591	0,074	0,068
-669,320	800,000	-0,066	0,145
-668,305	-7,126	0,112	0,056
-667,291	-63,379	-0,112	-0,034
-666,276	482,236	0,070	-0,117
-665,262	-200,000	-0,040	-0,197
-664,247	-23,498	-0,090	-0,040
-663,232	-200,000	-0,010	-0,142
-662,218	105,556	0,094	-0,082
-661,203	800,000	-0,050	0,135
-660,189	657,469	0,012	-0,023
-659,174	-102,277	-0,065	0,011
-658,159	208,966	-0,063	0,072
-657,145	-193,287	0,055	-0,000
-656,130	-71,980	0,043	-0,012
-655,116	800,000	-0,033	-0,091
-654,101	800,000	0,024	0,058
-653,086	5,427	0,029	-0,016
-652,072	159,312	-0,087	0,089
-651,057	-20,989	0,015	-0,007
-650,043	290,429	-0,043	0,057
-649,028	-142,083	-0,087	0,006
-648,014	-120,035	0,073	-0,009
-646,999	280,223	0,111	0,146
-645,984	-129,270	0,196	0,020
-644,970	9,043	-0,120	0,066
-643,955	-95,606	0,031	-0,006
-642,941	-17,988	-0,073	0,033
-641,926	277,481	-0,038	0,050
-640,911	-133,591	-0,071	0,006
-639,897	-117,269	0,162	-0,021
-638,882	-28,144	-0,184	-0,078
-637,868	-200,000	0,037	-0,132
-636,853	-96,928	-0,140	0,027
-635,838	138,585	-0,032	0,031
-634,824	-57,328	0,060	0,019
-633,809	-200,000	-0,043	-0,154
-632,795	-200,000	-0,028	0,114
-631,780	58,704	0,076	0,055
-630,765	155,869	-0,035	0,035
-629,751	800,000	0,030	-0,080
-628,736	-6,709	0,143	-0,071
-627,722	44,076	-0,101	-0,068
-626,707	-200,000	-0,022	0,088
-625,692	67,102	-0,072	0,054
-624,678	188,233	0,117	0,128
-623,663	4,029	-0,038	-0,021
-622,649	225,826	-0,055	0,066
-621,634	22,815	-0,172	0,103
-620,619	-72,232	-0,080	0,022
-619,605	3,705	0,037	-0,020
-618,590	-200,000	-0,006	0,086
-617,576	182,867	0,140	-0,152
-616,561	501,270	0,058	0,098
-615,546	404,248	0,056	-0,087
-614,532	800,000	-0,044	-0,110
-613,517	800,000	-0,074	-0,201
-612,503	284,418	0,055	0,072
-611,488	-7,998	0,107	0,053
-610,474	14,985	0,128	-0,074
-609,459	-200,000	-0,022	-0,081
-608,444	-200,000	0,025	-0,154
-607,430	11,078	0,071	-0,040
-606,415	-112,951	-0,175	0,025
-605,401	-6,641	-0,135	0,067
-604,386	-100,706	-0,081	0,015
-603,371	-22,389	0,082	0,036
-602,357	665,953	0,030	0,056
-601,342	-22,144	0,047	-0,021
-600,328	42,267	-0,070	-0,047
-599,313	800,000	-0,033	-0,077
-598,298	-67,341	0,035	0,010
-597,284	167,475	-0,016	0,017
-596,269	215,315	0,071	-0,083
-595,255	23,144	-0,029	-0,017
-594,240	-92,549	-0,066	0,013
-593,225	357,688	0,082	-0,120
-592,211	800,000	0,071	-0,215
-591,196	-86,780	-0,146	0,032
-590,182	-200,000	-0,000	0,054
-589,167	-200,000	-0,031	0,113
-588,152	402,982	0,078	0,120
-587,138	800,000	0,023	0,048
-586,123	65,073	-0,077	-0,057
-585,109	-200,000	-0,025	-0,102
-584,094	-100,168	-0,163	-0,030
-583,079	-31,681	0,116	0,048
-582,065	-200,000	-0,002	0,036
-581,050	-48,485	-0,057	0,020
-580,036	-200,000	-0,016	-0,090
-579,021	-200,000	-0,024	-0,123
-578,006	-200,000	0,003	-0,037
-576,992	-200,000	0,017	0,146
-575,977	541,241	0,067	0,117
-574,963	102,072	-0,059	0,051
-573,948	-145,490	-0,125	0,008
-572,934	284,640	-0,033	0,043
-571,919	-200,000	0,005	0,023
-570,904	79,048	-0,023	-0,018
-569,890	-81,313	-0,068	-0,016
-568,875	-16,285	0,053	-0,024
-567,861	800,000	0,017	-0,049
-566,846	-200,000	0,010	0,068
-565,831	193,137	-0,036	-0,040
-564,817	-26,321	-0,060	0,026
-563,802	-86,832	0,151	-0,033
-562,788	-200,000	-0,006	-0,057
-561,773	-37,669	-0,114	-0,044
-560,758	-66,399	0,173	0,050
-559,744	-58,165	0,015	0,005
-558,729	-46,634	-0,011	0,004
-557,715	3,809	-0,062	0,033
-556,700	76,084	-0,172	0,133
-555,685	719,050	0,025	0,049
-554,671	-199,236	-0,071	0,000
-553,656	-200,000	0,018	-0,059
-552,642	-109,721	0,017	-0,003
-551,627	-18,299	-0,034	0,016
-550,612	-200,000	-0,001	0,059
-549,598	225,703	-0,087	-0,103
-548,583	-200,000	0,022	-0,108
-547,569	-62,699	0,068	-0,021
-546,554	77,615	-0,103	0,080
-545,539	-200,000	-0,001	0,169
-544,525	-169,246	0,055	-0,001
-543,510	-147,032	-0,047	0,003
-542,496	13,027	-0,084	-0,047
-541,481	-200,000	0,028	-0,208
-540,466	689,917	0,043	-0,083
-539,452	-29,766	-0,061	-0,025
-538,437	-167,146	-0,072	0,002
-537,423	800,000	-0,040	-0,120
-536,408	216,039	-0,069	-0,080
-535,393	77,498	0,129	-0,101
-534,379	-31,542	0,073	-0,030
-533,364	-78,742	0,030	-0,007
-532,350	-141,843	0,041	0,003
-531,335	266,720	0,070	0,090
-530,321	71,576	-0,083	-0,063
-529,306	-200,000	0,002	-0,006
-528,291	86,108	-0,098	-0,078
-527,277	-52,140	0,120	-0,040
-526,262	287,552	-0,065	-0,086
-525,248	31,295	-0,044	-0,027
-524,233	26,822	0,122	0,074
-523,218	482,843	-0,114	-0,190
-522,204	800,000	-0,049	-0,102
-521,189	-200,000	-0,004	-0,080
-520,175	-200,000	0,037	-0,147
-519,160	-17,276	0,014	0,006
-518,145	530,734	0,031	-0,053
-517,131	-200,000	-0,015	-0,127
-516,116	800,000	-0,044	-0,129
-515,102	-200,000	-0,004	-0,076
-514,087	800,000	-0,018	-0,046
-513,072	77,088	0,164	-0,127
-512,058	800,000	-0,056	-0,120
-511,043	81,413	-0,085	0,067
-510,029	157,835	0,127	0,129
-509,014	277,385	0,108	0,141
-507,999	-200,000	0,015	-0,081
-506,985	800,000	-0,021	-0,048
-505,970	-90,115	0,096	-0,020
-504,956	-81,437	-0,132	0,032
-503,941	-95,201	-0,201	-0,039
-502,926	68,280	0,021	-0,016
-501,912	583,480	-0,029	0,052
-500,897	-200,000	0,013	0,092
-499,883	-48,648	-0,180	0,063
-498,868	800,000	0,034	0,074
-497,853	-200,000	0,014	-0,102
-496,839	-104,087	-0,078	0,013
-495,824	-53,577	0,041	0,014
-494,810	104,670	0,061	0,053
-493,795	800,000	0,021	0,061
-492,781	178,889	0,040	0,043
-491,766	-200,000	-0,022	-0,131
-490,751	17,273	-0,012	-0,007
-489,737	-73,302	-0,092	0,024
-488,722	349,889	0,029	0,043
-487,708	45,828	-0,056	0,038
-486,693	-15,996	0,143	-0,066
-485,678	-200,000	0,017	-0,112
-484,664	-200,000	0,014	0,072
-483,649	27,967	-0,101	0,062
-482,635	-73,413	-0,100	0,026
-481,620	-14,838	0,066	0,031
-480,605	327,111	-0,043	0,060
-479,591	-200,000	0,003	0,030
-478,576	-32,911	0,060	-0,024
-477,562	140,274	0,081	0,078
-476,547	362,220	-0,050	-0,073
-475,532	81,919	0,069	0,055
-474,518	-110,228	-0,061	0,009
-473,503	-15,199	0,071	0,033
-472,489	-85,255	-0,068	0,015
-471,474	26,056	-0,059	0,036
-470,459	27,993	-0,099	0,061
-469,445	-200,000	0,023	0,080
-468,430	32,664	-0,098	-0,062
-467,416	-117,906	-0,048	-0,006
-466,401	185,768	-0,023	-0,025
-465,386	-200,000	0,034	0,143
-464,372	231,669	0,079	0,095
-463,357	92,780	-0,123	-0,101
-462,343	-152,972	-0,091	0,005
-461,328	-16,769	0,133	-0,061
-460,313	443,563	0,052	-0,083
-459,299	134,299	0,114	-0,108
-458,284	92,714	0,026	-0,021
-457,270	800,000	-0,028	-0,070
-456,255	188,825	-0,091	-0,100
-455,241	0,268	-0,142	-0,074
-454,226	-81,361	0,049	0,012
-453,211	800,000	0,007	-0,018
-452,197	762,611	0,024	0,047
-451,182	-200,000	0,003	0,163
-450,168	20,631	-0,141	0,083
-449,153	-200,000	-0,021	0,105
-448,138	-200,000	0,023	-0,075
-447,124	-200,000	-0,006	0,060
-446,109	278,199	-0,033	0,043
-445,095	800,000	0,023	0,062
-444,080	31,673	0,088	0,055
-443,065	-200,000	0,002	-0,057
-442,051	-200,000	0,007	0,049
-441,036	231,630	-0,120	-0,143
-440,022	-200,000	0,007	0,023
-439,007	-11,580	0,071	-0,034
-437,992	287,377	0,035	0,046
-436,978	-200,000	-0,007	0,171
-435,963	-7,058	-0,018	-0,009
-434,949	-122,194	0,072	0,008
-433,934	800,000	0,050	-0,113
-432,919	-82,961	0,014	-0,003
-431,905	-126,718	-0,031	0,003
-430,890	208,518	0,065	-0,074
-429,876	-108,765	0,021	0,003
-428,861	-200,000	0,003	0,076
-427,846	349,505	-0,041	0,059
-426,832	-146,817	0,036	-0,002
-425,817	-119,370	0,030	0,004
-424,803	800,000	-0,050	-0,135
-423,788	-200,000	0,013	-0,054
-422,773	800,000	-0,017	0,041
-421,759	-200,000	-0,001	-0,032
-420,744	442,750	-0,081	0,130
-419,730	-200,000	-0,068	-0,000
-418,715	-200,000	-0,005	-0,044
-417,701	-18,749	-0,107	-0,048
-416,686	104,853	0,022	0,019
-415,671	384,375	0,081	-0,122
-414,657	-59,201	0,081	0,025
-413,642	415,363	0,061	-0,095
-412,628	800,000	-0,016	0,038
-411,613	426,089	-0,036	-0,056
-410,598	425,106	-0,038	0,060
-409,584	-101,612	-0,037	-0,006
-408,569	363,353	0,039	0,057
-407,555	-21,733	-0,166	-0,073
-406,540	125,630	-0,075	-0,069
-405,525	-200,000	0,004	0,164
-404,511	125,662	-0,045	0,041
-403,496	-59,493	0,015	-0,005
-402,482	-57,687	-0,090	0,029
-401,467	166,653	0,038	0,040
-400,452	300,126	0,114	0,154
-399,438	242,987	-0,010	-0,013
-398,423	139,642	-0,072	-0,069
-397,409	-200,000	-0,022	0,075
-396,394	-86,035	-0,202	-0,045
-395,379	127,062	-0,040	-0,037
-394,365	273,389	0,100	0,129
-393,350	-200,000	-0,003	-0,275
-392,336	-200,000	0,028	0,127
-391,321	-200,000	0,019	-0,062
-390,306	-93,410	-0,146	0,029
-389,292	800,000	0,037	0,101
-388,277	-200,000	0,010	-0,048
-387,263	117,449	0,081	-0,072
-386,248	-200,000	0,017	0,069
-385,233	99,260	0,100	0,084
-384,219	276,832	-0,067	-0,086
-383,204	800,000	-0,045	-0,111
-382,190	-126,863	0,145	-0,015
-381,175	-121,467	0,051	-0,006
-380,160	103,090	0,071	-0,060
-379,146	-200,000	0,009	-0,104
-378,131	310,460	-0,032	0,043
-377,117	56,911	0,096	0,068
-376,102	-200,000	0,004	-0,044
-375,088	198,038	0,063	-0,070
-374,073	70,430	-0,143	-0,107
-373,058	800,000	0,056	0,128
-372,044	-147,615	0,137	0,008
-371,029	-71,095	0,072	-0,019
-370,015	47,573	0,088	0,060
-369,000	800,000	-0,035	0,112
-367,985	269,387	0,045	-0,057
-366,971	-200,000	-0,024	-0,122
-365,956	-132,784	0,087	-0,008
-364,942	-200,000	0,038	0,135
-363,927	-200,000	0,006	0,067
-362,912	562,603	0,028	0,049
-361,898	168,896	-0,078	-0,080
-360,883	-50,873	-0,127	-0,043
-359,869	105,556	0,098	-0,084
-358,854	-200,000	0,027	0,101
-357,839	271,479	0,064	0,082
-356,825	487,511	0,020	0,034
-355,810	175,892	0,085	0,090
-354,796	495,647	-0,062	-0,104
-353,781	-200,000	0,048	-0,157
-352,766	-97,067	0,061	-0,012
-351,752	45,014	0,150	0,100
-350,737	-200,000	-0,018	0,085
-349,723	-200,000	0,020	0,076
-348,708	132,508	0,039	-0,037
-347,693	-75,322	-0,035	-0,009
-346,679	800,000	-0,020	-0,061
-345,664	800,000	-0,025	-0,051
-344,650	340,185	0,061	-0,086
-343,635	800,000	-0,028	0,082
-342,620	-127,548	-0,027	-0,003
-341,606	-105,988	0,010	-0,002
-340,591	-77,767	0,069	-0,017
-339,577	-200,000	0,016	0,139
-338,562	45,572	-0,097	0,065
-337,548	309,413	-0,071	-0,097
-336,533	-12,132	0,028	-0,013
-335,518	-200,000	-0,001	0,013
-334,504	-200,000	0,025	-0,153
-333,489	-200,000	-0,075	-0,291
-332,475	79,886	0,045	-0,035
-331,460	20,107	-0,059	-0,034
-330,445	-18,673	-0,068	0,031
-329,431	-200,000	-0,014	0,152
-328,416	32,062	0,044	-0,027
-327,402	80,429	0,115	0,090
-326,387	63,854	-0,081	0,059
-325,372	-52,449	0,076	-0,025
-324,358	2,672	-0,091	0,048
-323,343	-200,000	-0,002	0,024
-322,329	44,390	0,102	-0,068
-321,314	76,401	0,100	0,077
-320,299	-37,972	-0,065	-0,025
-319,285	-200,000	0,015	0,093
-318,270	-105,686	0,027	0,004
-317,256	-27,647	-0,057	0,024
-316,241	800,000	-0,040	-0,125
-315,226	-200,000	0,045	-0,158
-314,212	13,248	0,105	0,059
-313,197	443,322	0,049	0,079
-312,183	-16,404	0,064	0,029
-311,168	161,228	-0,079	-0,080
-310,153	-200,000	-0,004	-0,116
-309,139	-200,000	0,030	-0,196
-308,124	800,000	0,064	0,197
-307,110	294,739	-0,062	0,083
-306,095	-200,000	0,019	0,108
-305,080	-200,000	0,039	0,127
-304,066	-87,941	0,080	-0,017
-303,051	-13,380	-0,061	-0,029
-302,037	550,671	-0,082	-0,143
-301,022	800,000	-0,020	0,059
-300,008	-84,655	-0,102	-0,023
-298,993	53,810	0,123	0,086
-297,978	-200,000	0,017	-0,107
-296,964	-200,000	-0,001	0,009
-295,949	-101,320	-0,073	0,013
-294,935	800,000	0,036	-0,114
-293,920	-200,000	-0,002	-0,095
-292,905	-200,000	0,010	0,037
-291,891	81,208	0,037	-0,029
-290,876	800,000	-0,041	-0,084
-289,862	30,891	0,087	0,054
-288,847	-200,000	-0,000	-0,091
-287,832	-200,000	-0,007	-0,028
-286,818	-200,000	-0,005	-0,055
-285,803	-101,565	0,056	0,010
-284,789	800,000	-0,061	0,134
-283,774	112,344	0,161	0,141
-282,759	-176,751	-0,051	-0,001
-281,745	800,000	-0,010	0,023
-280,730	-16,069	-0,018	-0,008
-279,716	22,556	0,100	0,059
-278,701	-200,000	-0,009	-0,052
-277,686	800,000	0,041	0,085
-276,672	-131,095	0,106	0,010
-275,657	-200,000	-0,025	-0,122
-274,643	90,699	-0,078	-0,063
-273,628	800,000	-0,015	0,048
-272,613	-200,000	0,001	-0,052
-271,599	185,713	-0,058	0,062
-270,584	800,000	0,033	0,102
-269,570	-200,000	-0,009	0,079
-268,555	159,279	-0,064	0,065
-267,540	176,711	-0,073	-0,077
-266,526	800,000	-0,037	-0,093
-265,511	157,842	-0,094	0,094
-264,497	21,842	-0,075	0,044
-263,482	-131,911	-0,090	0,008
-262,467	800,000	-0,087	0,188
-261,453	800,000	-0,013	-0,027
-260,438	583,557	-0,064	-0,115
-259,424	-125,840	0,182	0,020
-258,409	58,081	-0,072	-0,051
-257,395	-11,713	0,131	0,062
-256,380	499,361	-0,061	-0,103
-255,365	-200,000	-0,009	0,080
-254,351	30,164	-0,118	0,073
-253,336	800,000	-0,058	-0,120
-252,322	-200,000	-0,028	-0,109
-251,307	-174,814	0,050	-0,001
-250,292	83,259	-0,064	-0,050
-249,278	-200,000	0,007	0,143
-248,263	800,000	0,091	0,192
-247,249	-200,000	0,005	-0,088
-246,234	-122,670	0,020	-0,002
-245,219	82,801	0,034	-0,027
-244,205	-200,000	0,001	0,010
-243,190	-102,566	-0,127	-0,022
-242,176	800,000	0,011	-0,025
-241,161	254,527	0,088	0,109
-240,146	553,790	0,006	0,010
-239,132	-160,062	-0,109	0,004
-238,117	-83,367	0,055	-0,013
-237,103	800,000	0,051	0,112
-236,088	-200,000	-0,009	0,224
-235,073	-75,395	0,161	0,041
-234,059	-86,320	0,064	0,014
-233,044	-96,818	-0,019	0,004
-232,030	129,001	0,031	-0,029
-231,015	152,311	0,043	-0,042
-230,000	89,403	-0,071	-0,057
-228,986	244,786	-0,050	0,061
-227,971	77,794	0,153	-0,118
-226,957	-200,000	0,009	0,102
-225,942	-39,810	-0,100	0,038
-224,927	-200,000	-0,006	-0,047
-223,913	-200,000	-0,035	-0,139
-222,898	-56,137	0,095	-0,030
-221,884	-86,399	0,153	-0,034
-220,869	370,852	-0,007	-0,010
-219,855	-80,135	0,030	-0,007
-218,840	800,000	-0,005	-0,016
-217,825	800,000	-0,042	0,116
-216,811	-56,512	-0,054	-0,017
-215,796	-111,286	0,092	-0,013
-214,782	221,033	-0,025	0,030
-213,767	-80,233	0,120	0,029
-212,752	12,351	0,034	-0,019
-211,738	5,697	0,053	0,028
-210,723	800,000	0,040	0,110
-209,709	-78,646	-0,133	0,033
-208,694	-141,170	0,081	-0,006
-207,679	-91,103	0,042	-0,009
-206,665	-200,000	-0,014	0,050
-205,650	247,302	0,105	0,128
-204,636	-159,964	-0,042	-0,002
-203,621	-200,000	-0,025	-0,093
-202,606	29,051	-0,068	0,042
-201,592	108,485	-0,086	-0,074
-200,577	800,000	0,033	-0,067
-199,563	-1,441	-0,071	0,036
-198,548	194,214	0,038	-0,042
-197,533	-123,581	-0,146	-0,017
-196,519	436,498	-0,114	0,180
-195,504	456,505	0,005	-0,008
-194,490	597,847	0,063	-0,113
-193,475	800,000	0,043	-0,086
-192,460	-132,440	0,079	-0,007
-191,446	570,845	0,079	0,140
-190,431	-58,874	0,122	-0,038
-189,417	-70,023	-0,009	0,003
-188,402	-31,773	0,042	-0,017
-187,387	421,353	-0,069	0,107
-186,373	800,000	0,021	-0,049
-185,358	151,717	0,050	-0,049
-184,344	-200,000	0,007	0,027
-183,329	-72,782	0,171	0,045
-182,315	-35,785	0,115	0,045
-181,300	-200,000	-0,024	-0,109
-180,285	-152,251	-0,134	0,007
-179,271	127,816	0,023	0,021
-178,256	-61,454	0,013	0,004
-177,242	-200,000	0,001	-0,053
-176,227	-200,000	-0,001	-0,003
-175,212	755,212	0,041	0,081
-174,198	-88,570	-0,116	-0,025
-173,183	31,470	-0,018	-0,011
-172,169	86,054	-0,036	-0,028
-171,154	562,706	0,052	0,090
-170,139	21,303	0,087	-0,051
-169,125	-200,000	-0,028	0,226
-168,110	-200,000	-0,013	0,093
-167,096	-200,000	0,013	0,103
-166,081	-43,838	-0,109	0,039
-165,066	800,000	0,035	-0,091
-164,052	449,415	0,044	-0,069
-163,037	-152,083	0,083	0,004
-162,023	123,588	-0,012	-0,011
-161,008	151,474	-0,125	0,123
-159,993	-200,000	-0,015	0,147
-158,979	800,000	0,029	-0,089
-157,964	-33,803	-0,031	-0,012
-156,950	-4,421	-0,093	-0,046
-155,935	-116,416	0,085	-0,011
-154,920	-200,000	0,037	0,130
-153,906	800,000	-0,031	0,084
-152,891	-200,000	0,021	0,091
-151,877	800,000	0,032	0,068
-150,862	800,000	-0,012	0,033
-149,847	800,000	0,019	0,052
-148,833	136,191	0,126	-0,118
-147,818	-42,673	0,068	0,025
-146,804	611,200	0,066	0,119
-145,789	-200,000	-0,020	0,083
-144,775	117,191	0,057	-0,050
-143,760	437,444	0,058	-0,091
-142,745	236,255	-0,069	-0,083
-141,731	399,209	0,072	0,108
-140,716	253,878	0,021	-0,025
-139,702	-200,000	-0,008	0,127
-138,687	119,983	-0,113	0,101
-137,672	4,919	0,165	-0,087
-136,658	-16,276	0,058	-0,026
-135,643	-112,687	-0,098	-0,014
-134,629	23,911	-0,091	0,054
-133,614	-200,000	-0,008	-0,045
-132,599	30,873	0,050	0,031
-131,585	-54,752	0,074	0,024
-130,570	-118,796	-0,128	-0,016
-129,556	629,501	-0,088	-0,160
-128,541	156,351	-0,009	-0,009
-127,526	-5,414	0,055	0,027
-126,512	-200,000	-0,015	0,088
-125,497	-200,000	0,010	0,040
-124,483	489,903	-0,033	-0,055
-123,468	130,330	-0,060	0,055
-122,453	800,000	-0,013	-0,027
-121,439	25,367	-0,119	-0,071
-120,424	800,000	0,029	0,068
-119,410	203,364	-0,038	-0,042
-118,395	67,946	0,061	0,045
-117,380	-200,000	0,039	-0,142
-116,366	-140,654	-0,026	0,002
-115,351	-90,891	-0,109	-0,022
-114,337	99,604	-0,164	-0,137
-113,322	205,508	0,077	0,087
-112,307	32,163	-0,075	-0,046
-111,293	114,549	0,148	0,130
-110,278	85,179	0,039	-0,030
-109,264	-200,000	-0,021	-0,100
-108,249	168,819	0,019	-0,019
-107,234	-200,000	-0,009	-0,057
-106,220	467,629	-0,075	-0,122
-105,205	-200,000	-0,000	-0,069
-104,191	-152,559	0,097	0,005
-103,176	-83,530	0,157	0,036
-102,162	207,829	-0,162	-0,183
-101,147	-200,000	0,015	-0,050
-100,132	-138,315	-0,168	0,013
-99,118	800,000	-0,026	-0,076
-98,103	-89,677	-0,244	0,051
-97,089	-72,696	0,070	0,018
-96,074	169,612	-0,079	0,081
-95,059	650,169	-0,065	0,121
-94,045	116,631	-0,091	0,080
-93,030	121,664	0,047	0,042
-92,016	455,773	-0,020	0,032
-91,001	456,779	0,067	-0,107
-89,986	-104,737	-0,051	0,008
-88,972	-129,287	0,182	0,018
-87,957	-200,000	-0,003	0,029
-86,943	-42,833	-0,103	0,037
-85,928	272,330	0,058	-0,073
-84,913	800,000	-0,005	0,012
-83,899	-200,000	-0,027	-0,097
-82,884	-200,000	-0,005	0,037
-81,870	-27,103	-0,083	0,035
-80,855	212,551	0,031	-0,035
-79,840	800,000	-0,065	0,149
-78,826	319,476	-0,028	0,038
-77,811	-200,000	-0,032	-0,129
-76,797	-176,196	0,095	-0,002
-75,782	392,536	0,069	0,103
-74,767	-127,113	0,095	-0,010
-73,753	-160,602	0,177	-0,007
-72,738	75,746	-0,059	-0,045
-71,724	-200,000	-0,021	-0,091
-70,709	181,460	-0,130	-0,137
-69,694	-134,290	-0,066	0,006
-68,680	83,875	-0,069	0,054
-67,665	164,268	0,029	0,030
-66,651	-70,703	0,036	0,010
-65,636	-96,836	0,112	-0,021
-64,622	-200,000	-0,013	0,128
-63,607	-56,691	0,110	-0,035
-62,592	-98,144	-0,118	-0,022
-61,578	800,000	0,048	0,140
-60,563	800,000	0,022	-0,063
-59,549	165,953	-0,079	0,081
-58,534	86,937	-2,742	-2,172
-57,519	-51,214	0,532	-0,178
-56,505	-200,000	-1,660	-5,391
-55,490	427,572	1,297	2,016
-54,476	800,000	5,232	11,201
-53,461	-200,000	22,215	348,042
-52,446	800,000	759,894	2298,322
-51,432	515,012	1645,990	2768,611
-50,417	98,151	1609,656	1329,638
-49,403	65,996	1266,733	921,105
-48,388	23,207	1017,945	598,463
-47,373	19,340	985,241	566,454
-46,359	12,965	972,009	537,974
-45,344	8,702	968,887	522,259
-44,330	9,179	966,843	522,699
-43,315	8,119	965,210	518,328
-42,300	8,091	963,838	517,481
-41,286	8,174	962,824	517,187
-40,271	8,096	962,020	516,480
-39,257	8,054	960,984	515,766
-38,242	8,039	960,256	515,305
-37,227	8,066	959,333	514,879
-36,213	8,015	958,690	514,348
-35,198	8,014	957,841	513,869
-34,184	8,058	956,973	513,523
-33,169	8,046	955,855	512,865
-32,154	8,120	955,122	512,692
-31,140	8,076	954,442	512,163
-30,125	8,043	953,568	511,568
-29,111	8,093	952,708	511,248
-28,096	8,075	952,200	510,898
-27,082	8,062	951,418	510,414
-26,067	8,075	950,708	510,057
-25,052	8,036	949,791	509,419
-24,038	8,017	949,117	508,975
-23,023	7,949	948,539	508,427
-22,009	8,095	947,891	508,528
-20,994	8,078	947,227	508,096
-19,979	8,093	946,693	507,840
-18,965	8,037	946,053	507,294
-17,950	8,010	945,534	506,910
-16,936	7,996	944,725	506,411
-15,921	8,013	944,133	506,130
-14,906	7,968	943,257	505,496
-13,892	7,935	942,865	505,161
-12,877	7,915	942,078	504,656
-11,863	7,950	941,538	504,457
-10,848	7,893	940,912	503,918
-9,833	7,997	940,526	504,022
-8,819	7,993	939,899	503,654
-7,804	7,944	939,275	503,146
-6,790	7,926	938,625	502,720
-5,775	7,995	937,905	502,534
-4,760	7,926	937,551	502,106
-3,746	8,016	936,670	501,899
-2,731	7,822	936,117	500,967
-1,717	7,852	935,429	500,673
-0,702	7,804	934,743	500,134
0,313	7,679	934,175	500,193
1,327	11,108	931,861	509,721
2,342	19,570	780,125	448,906
3,356	14,636	448,061	250,375
4,371	-11,711	312,622	146,661
5,386	-15,256	295,020	134,807
6,400	-17,473	289,090	129,887
7,415	-17,702	286,655	128,557
8,429	-18,289	284,501	127,006
9,444	-18,336	283,569	126,533
10,459	-18,112	283,012	126,490
11,473	-18,167	282,421	126,161
12,488	-18,196	281,925	125,901
13,502	-18,135	281,361	125,696
14,517	-18,053	280,945	125,578
15,531	-18,101	280,559	125,348
16,546	-18,183	280,094	125,050
17,561	-18,257	279,849	124,860
18,575	-18,089	279,566	124,883
19,590	-18,207	279,056	124,532
20,604	-18,113	278,814	124,502
21,619	-18,233	278,463	124,220
22,634	-17,935	277,983	124,278
23,648	-18,178	277,721	123,919
24,663	-18,042	277,400	123,894
25,677	-18,071	277,171	123,753
26,692	-17,968	276,854	123,698
27,707	-18,088	276,647	123,481
28,721	-18,216	276,505	123,286
29,736	-18,133	276,074	123,160
30,750	-17,948	275,838	123,219
31,765	-18,226	275,605	122,841
32,780	-18,098	275,375	122,848
33,794	-18,060	275,090	122,747
34,809	-18,059	274,798	122,606
35,823	-18,055	274,616	122,518
36,838	-17,932	274,330	122,495
37,853	-17,948	274,066	122,351
38,867	-18,239	274,061	122,065
39,882	-18,022	273,621	122,061
40,896	-17,937	273,230	121,955
41,911	-18,121	273,099	121,715
42,926	-18,063	272,951	121,692
43,940	-18,112	272,746	121,544
44,955	-18,128	272,472	121,396
45,969	-17,931	272,192	121,443
46,984	-17,844	272,033	121,442
47,999	-18,106	271,970	121,160
49,013	-17,999	271,602	121,085
50,028	-17,939	271,360	121,022
51,042	-17,854	271,167	121,003
52,057	-18,048	270,752	120,628
53,071	-17,901	270,760	120,757
54,086	-18,111	270,535	120,452
55,101	-17,979	270,239	120,431
56,115	-18,009	269,827	120,209
57,130	-18,140	269,585	119,970
58,144	-18,019	269,297	119,942
59,159	-18,193	269,240	119,746
60,174	-18,139	268,865	119,618
61,188	-18,163	268,675	119,501
62,203	-18,176	268,464	119,385
63,217	-18,133	268,270	119,327
64,232	-18,128	268,038	119,218
65,247	-18,137	267,802	119,094
66,261	-18,010	267,579	119,100
67,276	-18,172	267,384	118,855
68,290	-17,981	267,052	118,871
69,305	-17,955	266,965	118,845
70,320	-17,889	266,621	118,742
71,334	-17,983	266,432	118,561
72,349	-17,963	266,106	118,424
73,363	-18,019	266,017	118,323
74,378	-18,159	265,600	118,000
75,393	-18,105	265,657	118,063
76,407	-18,025	265,495	118,054
77,422	-18,014	265,082	117,869
78,436	-18,074	264,891	117,720
79,451	-17,930	264,587	117,704
80,466	-18,067	264,509	117,535
81,480	-18,034	264,232	117,431
82,495	-17,936	263,993	117,403
83,509	-17,940	263,812	117,309
84,524	-18,028	263,666	117,154
85,539	-18,119	263,451	116,967
86,553	-17,991	263,320	117,012
87,568	-18,108	262,947	116,732
88,582	-17,962	262,631	116,711
89,597	-18,105	262,578	116,550
90,611	-17,964	262,268	116,528
91,626	-18,162	262,102	116,267
92,641	-18,046	261,813	116,231
93,655	-17,908	261,580	116,241
94,670	-17,968	261,404	116,099
95,684	-18,164	261,307	115,871
96,699	-17,942	260,997	115,920
97,714	-17,911	260,905	115,896
98,728	-18,006	260,677	115,700
99,743	-17,985	260,658	115,701
100,757	-17,889	260,274	115,605
101,772	-17,893	260,030	115,483
102,787	-17,942	259,923	115,381
103,801	-18,108	259,747	115,146
104,816	-18,068	259,364	115,002
105,830	-17,893	259,219	115,081
106,845	-18,015	259,156	114,936
107,860	-17,919	258,883	114,889
108,874	-17,931	258,575	114,732
109,889	-17,975	258,497	114,648
110,903	-17,979	258,186	114,496
111,918	-17,940	257,999	114,437
112,933	-17,986	257,736	114,270
113,947	-17,898	257,669	114,308
114,962	-17,986	257,480	114,136
115,976	-17,828	257,159	114,122
116,991	-17,816	256,941	114,026
118,006	-18,099	256,892	113,747
119,020	-17,901	256,523	113,746
120,035	-18,003	256,460	113,618
121,049	-18,009	256,342	113,551
122,064	-17,934	256,068	113,485
123,079	-18,072	255,980	113,315
124,093	-18,031	255,869	113,292
125,108	-17,930	255,442	113,180
126,122	-17,784	255,483	113,315
127,137	-17,770	255,191	113,188
128,151	-17,855	255,095	113,061
129,166	-17,858	254,747	112,894
130,181	-17,818	254,524	112,820
131,195	-17,779	254,149	112,677
132,210	-17,978	254,249	112,540
133,224	-18,001	253,873	112,344
134,239	-17,882	253,809	112,408
135,254	-17,962	253,462	112,176
136,268	-17,946	253,466	112,181
137,283	-17,756	253,141	112,190
138,297	-17,867	252,950	112,000
139,312	-17,743	252,765	112,015
140,327	-17,720	252,423	111,873
141,341	-17,854	252,258	111,675
142,356	-17,956	252,149	111,530
143,370	-17,993	251,993	111,419
144,385	-18,018	251,737	111,274
145,400	-17,831	251,483	111,312
146,414	-17,944	251,322	111,134
147,429	-17,865	251,150	111,116
148,443	-17,950	251,040	110,985
149,458	-18,026	250,792	110,801
150,473	-17,883	250,604	110,829
151,487	-17,820	250,461	110,810
152,502	-17,921	250,156	110,579
153,516	-18,013	250,033	110,437
154,531	-18,071	249,918	110,327
155,546	-18,022	249,753	110,286
156,560	-17,962	249,541	110,233
157,575	-17,809	249,194	110,199
158,589	-17,769	249,028	110,150
159,604	-17,893	248,850	109,957
160,619	-17,796	248,738	109,979
161,633	-18,000	248,587	109,731
162,648	-18,106	248,562	109,621
163,662	-17,924	248,352	109,672
164,677	-17,832	248,202	109,673
165,692	-17,795	247,826	109,528
166,706	-17,931	247,781	109,385
167,721	-18,050	247,766	109,268
168,735	-17,865	247,380	109,242
169,750	-17,824	247,268	109,218
170,764	-17,801	247,190	109,193
171,779	-17,976	247,019	108,962
172,794	-17,871	246,891	108,983
173,808	-17,832	246,593	108,874
174,823	-17,635	246,437	108,960
175,837	-17,702	246,247	108,811
176,852	-17,792	246,129	108,673
177,867	-17,939	245,987	108,479
178,881	-17,731	245,812	108,565
179,896	-17,761	245,556	108,417
180,910	-17,902	245,362	108,205
181,925	-18,073	245,400	108,071
182,940	-17,880	245,162	108,116
183,954	-17,933	244,961	107,973
184,969	-17,937	244,775	107,879
185,983	-17,708	244,511	107,942
186,998	-17,765	244,273	107,780
188,013	-17,952	244,118	107,548
189,027	-17,842	244,013	107,583
190,042	-17,952	243,893	107,430
191,056	-17,825	243,613	107,401
192,071	-18,016	243,481	107,177
193,086	-17,841	243,221	107,196
194,100	-17,920	243,110	107,073
195,115	-17,930	242,950	106,985
196,129	-17,786	242,608	106,942
197,144	-17,876	242,548	106,833
198,159	-17,896	242,328	106,710
199,173	-17,730	242,129	106,749
200,188	-17,829	242,023	106,611
201,202	-17,712	241,844	106,619
202,217	-17,722	241,674	106,526
203,232	-17,715	241,713	106,540
204,246	-17,670	241,214	106,346
205,261	-17,769	241,087	106,201
206,275	-16,375	241,644	107,572
207,290	-11,249	243,398	112,545
208,304	-5,421	245,254	118,197
209,319	-3,524	245,890	120,057
210,334	-2,660	245,779	120,704
211,348	-1,777	245,962	121,511
212,363	-1,196	245,922	121,958
213,377	-0,381	246,166	122,740
214,392	0,190	246,038	123,135
215,407	0,623	246,041	123,482
216,421	0,371	245,921	123,203
217,436	0,660	245,751	123,344
218,450	0,576	245,450	123,113
219,465	0,523	245,526	123,097
220,480	0,718	245,384	123,175
221,494	0,585	245,248	122,987
222,509	-0,056	244,883	122,268
223,523	-0,006	244,652	122,182
224,538	-0,031	244,551	122,101
225,553	-0,122	244,360	121,921
226,567	-0,066	244,034	121,792
227,582	0,348	244,021	122,113
228,596	-0,073	243,796	121,646
229,611	0,092	243,612	121,678
230,626	-0,176	243,619	121,452
231,640	-0,050	243,394	121,432
232,655	-0,140	243,140	121,221
233,669	0,199	243,017	121,424
234,684	-0,071	242,688	121,030
235,699	0,017	242,609	121,051
236,713	-0,030	242,534	120,965
237,728	0,157	242,401	121,039
238,742	0,388	242,035	121,032
239,757	0,145	241,987	120,801
240,772	0,120	241,869	120,711
241,786	0,117	241,771	120,650
242,801	0,018	241,469	120,408
243,815	0,072	241,342	120,378
244,830	0,011	241,218	120,256
245,844	0,112	241,090	120,263
246,859	-0,214	241,001	119,945
247,874	-0,060	240,735	119,926
248,888	0,085	240,630	119,980
249,903	0,051	240,453	119,853
250,917	0,089	240,127	119,711
251,932	0,068	240,218	119,729
252,947	0,079	240,123	119,679
253,961	-0,014	239,888	119,477
254,976	0,082	239,634	119,417
255,990	0,015	239,600	119,335
257,005	0,092	239,469	119,320
258,020	0,082	239,270	119,203
259,034	0,368	238,932	119,252
260,049	0,011	238,932	118,957
261,063	0,057	238,728	118,881
262,078	-0,060	238,578	118,703
263,093	0,015	238,413	118,670
264,107	-0,038	238,439	118,630
265,122	-0,045	238,185	118,488
266,136	-0,101	238,096	118,389
267,151	0,112	237,902	118,450
268,166	0,139	237,711	118,366
269,180	-0,123	237,398	117,992
270,195	0,159	237,364	118,188
271,209	-0,138	237,381	117,951
272,224	0,014	236,984	117,863
273,239	0,137	237,051	117,983
274,253	0,257	236,688	117,886
275,268	0,147	236,645	117,768
276,282	0,203	236,424	117,692
277,297	-0,007	236,281	117,444
278,312	-0,148	236,238	117,302
279,326	0,144	236,016	117,410
280,341	0,180	235,900	117,370
281,355	0,171	235,711	117,259
282,370	0,116	235,609	117,155
283,384	0,218	235,410	117,125
284,399	0,045	235,275	116,912
285,414	-0,130	235,234	116,744
286,428	0,323	234,958	116,951
287,443	0,173	234,877	116,783
288,457	0,245	234,803	116,792
289,472	0,289	234,432	116,631
290,487	0,017	234,335	116,361
291,501	0,151	234,232	116,403
292,516	0,207	234,055	116,349
293,530	0,249	233,899	116,294
294,545	0,234	233,766	116,205
295,560	-0,011	233,703	115,974
296,574	0,157	233,630	116,057
297,589	0,442	233,381	116,144
298,603	0,237	233,220	115,895
299,618	0,180	233,062	115,762
300,633	0,397	232,887	115,833
301,647	0,441	232,663	115,745
302,662	0,536	232,663	115,808
303,676	0,319	232,528	115,563
304,691	0,338	232,365	115,486
305,706	0,384	232,077	115,368
306,720	0,265	231,993	115,225
307,735	0,240	231,971	115,184
308,749	0,440	231,754	115,220
309,764	0,435	231,443	115,051
310,779	0,302	231,503	114,968
311,793	0,528	231,312	115,037
312,808	0,213	231,047	114,653
313,822	0,338	230,986	114,709
314,837	0,550	230,740	114,738
315,852	0,438	230,718	114,632
316,866	0,418	230,554	114,525
317,881	0,558	230,346	114,518
318,895	0,407	230,260	114,350
319,910	0,423	230,093	114,268
320,925	0,390	229,946	114,160
321,939	0,563	229,775	114,197
322,954	0,365	229,914	114,105
323,968	0,525	229,520	114,021
324,983	0,473	229,488	113,956
325,997	0,331	229,358	113,773
327,012	0,461	229,232	113,799
328,027	0,369	228,990	113,599
329,041	0,403	228,795	113,518
330,056	0,632	228,657	113,612
331,070	0,649	228,444	113,509
332,085	0,513	228,449	113,398
333,100	0,420	228,211	113,201
334,114	0,517	228,035	113,176
335,129	0,588	227,850	113,128
336,143	0,555	227,826	113,081
337,158	0,411	227,688	112,894
338,173	0,687	227,446	112,971
339,187	0,726	227,330	112,933
340,202	0,596	227,309	112,815
341,216	0,494	227,178	112,663
342,231	0,866	226,915	112,802
343,246	0,514	226,837	112,489
344,260	0,728	226,599	112,521
345,275	0,562	226,693	112,433
346,289	0,773	226,517	112,494
347,304	0,513	226,355	112,209
348,319	0,601	226,137	112,157
349,333	0,640	225,916	112,066
350,348	0,554	225,758	111,914
351,362	0,757	225,638	111,995
352,377	0,764	225,553	111,949
353,392	0,701	225,384	111,808
354,406	0,541	225,273	111,624
355,421	193,211	1311,279	1380,247
356,435	154,811	1443,436	1380,094
