DTS Sentinel unit serial number:	SN410029Multiplexer serial number:	ORYXHardware model number:	OX2-SRSoftware version number:	ORYX F/W v4,00 Oryx Data Collector v3.7.2.0data status	okinstallation	B5 Nyhavnadifferential loss correction	single-endedforward channel	channel 2reverse channel	N/Adate	2023/12/11time	18:22:13forward acquisition time	300,00reverse acquisition time	0,00gamma	499,1914k internal	0,3161k external	0,3161temperature offset calibration	1,0000default loss term (dB/km)	0,3820temperature slope calibration	1,0000multiplexer offset coefficient	1,0000multiplexer slope coefficient	1,0000fibre end	0,00T internal ref (°C)	15,15T ext. ref 1 (°C)	-0,38T ext. ref 2 (°C)	-0,63length (m)	temperature (°C)	Stokes	anti-Stokes-744,400	22,564	0,092	-0,055
-743,385	-103,441	-0,310	0,053
-742,371	800,000	0,041	-0,108
-741,356	-60,018	-0,149	-0,047
-740,342	-200,000	-0,001	0,035
-739,327	-74,303	-0,251	0,066
-738,312	96,781	-0,101	-0,085
-737,298	-79,753	-0,340	-0,084
-736,283	85,182	0,044	0,035
-735,269	-21,792	-0,161	0,072
-734,254	800,000	0,019	0,062
-733,239	47,772	-0,486	-0,333
-732,225	-52,310	0,156	0,053
-731,210	-200,000	0,002	0,090
-730,196	800,000	-0,047	-0,117
-729,181	26,662	-0,031	-0,019
-728,167	800,000	0,022	0,062
-727,152	-66,586	0,148	-0,043
-726,137	299,357	-0,118	-0,161
-725,123	-200,000	0,027	-0,197
-724,108	429,752	0,011	-0,017
-723,094	103,590	0,077	-0,066
-722,079	800,000	0,016	-0,046
-721,064	-131,159	0,023	0,002
-720,050	-155,163	-0,044	0,002
-719,035	-48,180	0,038	0,014
-718,021	662,503	-0,047	0,090
-717,006	-168,619	-0,147	-0,004
-715,991	-200,000	-0,004	-0,063
-714,977	-200,000	0,011	-0,077
-713,962	11,387	-0,010	-0,006
-712,948	-120,674	0,151	0,019
-711,933	-200,000	0,002	-0,095
-710,918	605,322	-0,061	-0,112
-709,904	-200,000	-0,006	-0,070
-708,889	-108,458	-0,053	0,008
-707,875	327,816	-0,015	-0,021
-706,860	-200,000	0,026	0,139
-705,845	55,400	-0,019	0,014
-704,831	66,657	0,089	0,066
-703,816	-6,632	0,072	-0,036
-702,802	800,000	-0,037	-0,076
-701,787	182,389	-0,075	0,081
-700,772	142,085	0,026	-0,025
-699,758	234,649	0,052	0,063
-698,743	-168,689	0,025	-0,001
-697,729	368,988	0,045	-0,067
-696,714	-100,984	0,115	0,020
-695,699	-200,000	0,018	0,098
-694,685	372,217	-0,087	-0,130
-693,670	62,431	0,081	-0,060
-692,656	-200,000	-0,003	-0,105
-691,641	800,000	-0,019	-0,050
-690,627	373,691	-0,027	0,041
-689,612	-59,847	-0,103	-0,032
-688,597	41,442	0,111	0,074
-687,583	144,395	-0,104	-0,102
-686,568	-61,125	0,127	-0,039
-685,554	-200,000	0,006	0,048
-684,539	620,839	0,015	0,027
-683,524	-200,000	0,008	-0,060
-682,510	-165,431	0,066	-0,002
-681,495	56,791	-0,032	-0,023
-680,481	-89,584	-0,075	0,016
-679,466	-200,000	0,032	-0,112
-678,451	529,982	-0,074	0,130
-677,437	-200,000	-0,019	-0,150
-676,422	-142,915	0,037	-0,003
-675,408	88,473	-0,116	-0,095
-674,393	-49,862	-0,146	0,051
-673,378	1,052	-0,096	0,050
-672,364	-39,025	-0,037	-0,014
-671,349	138,841	-0,031	0,030
-670,335	-38,807	0,060	0,023
-669,320	800,000	0,004	-0,011
-668,305	254,156	0,097	0,121
-667,291	129,935	0,048	-0,046
-666,276	144,077	0,069	-0,068
-665,262	-76,488	0,087	-0,022
-664,247	-200,000	-0,012	-0,150
-663,232	484,027	0,071	-0,119
-662,218	190,541	0,042	0,046
-661,203	109,157	-0,083	0,073
-660,189	-200,000	-0,001	-0,010
-659,174	-200,000	-0,021	-0,107
-658,159	-200,000	-0,002	-0,041
-657,145	-51,727	-0,195	-0,066
-656,130	-42,021	-0,072	0,027
-655,116	332,270	0,091	-0,129
-654,101	235,322	-0,021	-0,026
-653,086	-20,105	-0,021	-0,009
-652,072	-200,000	-0,004	-0,018
-651,057	-200,000	-0,001	-0,162
-650,043	-76,992	-0,090	0,023
-649,028	267,887	0,009	-0,011
-648,014	-200,000	-0,032	-0,121
-646,999	-200,000	0,022	-0,117
-645,984	247,532	-0,087	0,108
-644,970	-108,815	-0,068	0,011
-643,955	-42,040	-0,128	-0,048
-642,941	-31,325	-0,097	0,040
-641,926	-200,000	0,049	-0,176
-640,911	-85,586	0,059	0,013
-639,897	-200,000	0,016	0,087
-638,882	37,824	0,114	-0,074
-637,868	337,224	-0,016	-0,023
-636,853	160,838	-0,113	-0,116
-635,838	310,326	0,134	-0,185
-634,824	-143,790	-0,121	-0,008
-633,809	20,509	0,037	0,022
-632,795	-135,993	0,045	0,004
-631,780	-68,024	0,043	0,012
-630,765	-200,000	0,002	-0,023
-629,751	-55,663	-0,145	-0,047
-628,736	-126,080	-0,074	-0,008
-627,722	-16,612	-0,064	0,029
-626,707	63,852	-0,067	0,050
-625,692	-200,000	-0,016	0,065
-624,678	119,223	0,079	0,072
-623,663	54,271	0,046	-0,032
-622,649	503,576	-0,035	-0,059
-621,634	800,000	-0,046	-0,101
-620,619	69,508	0,058	-0,043
-619,605	-60,594	0,016	0,005
-618,590	88,364	0,123	-0,100
-617,576	800,000	0,044	0,125
-616,561	800,000	0,028	-0,085
-615,546	-74,399	-0,207	-0,054
-614,532	-64,497	-0,042	0,012
-613,517	-200,000	0,005	-0,036
-612,503	338,684	-0,027	-0,039
-611,488	-93,399	0,017	-0,003
-610,474	-33,703	-0,084	0,034
-609,459	236,522	-0,045	-0,055
-608,444	76,548	-0,035	-0,027
-607,430	284,929	-0,074	-0,098
-606,415	-115,662	-0,025	-0,003
-605,401	-200,000	-0,022	0,161
-604,386	509,001	0,079	0,135
-603,371	534,025	-0,021	0,037
-602,357	-200,000	-0,002	0,026
-601,342	-200,000	-0,029	0,100
-600,328	-176,243	0,049	-0,001
-599,313	-200,000	0,013	-0,074
-598,298	-200,000	0,035	-0,126
-597,284	-52,571	0,103	-0,035
-596,269	800,000	-0,069	0,165
-595,255	270,461	-0,028	-0,036
-594,240	102,919	0,012	0,011
-593,225	152,729	-0,087	0,087
-592,211	-24,344	-0,025	0,011
-591,196	177,019	-0,039	0,041
-590,182	-103,363	-0,112	-0,019
-589,167	37,272	0,083	-0,053
-588,152	-121,056	-0,106	-0,013
-587,138	-45,150	-0,067	0,024
-586,123	246,825	0,001	0,002
-585,109	641,904	-0,033	-0,061
-584,094	57,170	-0,031	-0,022
-583,079	800,000	0,009	-0,024
-582,065	-23,847	-0,062	0,027
-581,050	-200,000	-0,004	-0,035
-580,036	-27,776	-0,164	0,069
-579,021	41,614	-0,029	-0,019
-578,006	112,689	-0,067	-0,059
-576,992	800,000	-0,031	-0,081
-575,977	-56,551	-0,079	0,025
-574,963	56,742	0,108	-0,077
-573,948	32,020	0,075	-0,047
-572,934	508,075	-0,040	0,067
-571,919	800,000	-0,025	0,066
-570,904	52,647	-0,129	0,090
-569,890	-200,000	-0,022	0,153
-568,875	224,348	-0,018	0,021
-567,861	33,119	0,068	0,043
-566,846	47,137	0,087	0,059
-565,831	-154,648	-0,017	-0,001
-564,817	-19,895	-0,091	-0,041
-563,802	-200,000	0,002	-0,012
-562,788	-200,000	0,013	-0,052
-561,773	-129,640	0,123	0,012
-560,758	48,515	-0,035	0,024
-559,744	40,435	-0,039	0,026
-558,729	-200,000	0,011	-0,075
-557,715	-200,000	-0,009	-0,046
-556,700	-200,000	0,002	0,031
-555,685	-21,954	-0,085	-0,037
-554,671	-155,801	0,169	0,008
-553,656	160,469	-0,016	0,016
-552,642	99,412	0,119	0,100
-551,627	197,940	0,059	0,066
-550,612	159,041	0,033	-0,034
-549,598	-94,081	-0,019	0,004
-548,583	-200,000	-0,001	-0,026
-547,569	169,392	-0,015	-0,016
-546,554	48,237	0,021	0,014
-545,539	-2,345	0,127	0,065
-544,525	-200,000	0,018	0,116
-543,510	-66,216	-0,011	0,003
-542,496	-200,000	-0,005	-0,097
-541,481	-200,000	-0,034	-0,111
-540,466	3,018	0,160	-0,084
-539,452	8,558	0,097	-0,053
-538,437	110,203	-0,085	-0,075
-537,423	-200,000	0,012	0,114
-536,408	-200,000	-0,009	0,117
-535,393	74,433	0,061	0,047
-534,379	-51,193	-0,171	-0,058
-533,364	208,111	0,081	0,093
-532,350	661,820	-0,065	0,123
-531,335	-200,000	0,009	0,108
-530,321	-200,000	-0,004	0,014
-529,306	-40,115	0,074	0,028
-528,291	385,600	0,044	0,067
-527,277	157,357	0,067	-0,067
-526,262	-25,046	0,104	0,045
-525,248	800,000	0,045	0,102
-524,233	-44,933	0,172	-0,062
-523,218	-129,680	-0,114	-0,011
-522,204	-200,000	-0,001	-0,047
-521,189	-59,002	-0,098	-0,031
-520,175	110,472	-0,061	-0,054
-519,160	-0,542	0,130	-0,067
-518,145	-54,212	0,037	0,012
-517,131	220,617	-0,015	-0,018
-516,116	-200,000	0,011	0,052
-515,102	79,011	0,055	0,043
-514,087	-159,245	-0,074	0,003
-513,072	428,691	-0,013	-0,021
-512,058	-3,407	-0,150	-0,076
-511,043	-200,000	-0,002	-0,065
-510,029	83,042	-0,031	-0,024
-509,014	-200,000	-0,018	0,142
-507,999	145,182	-0,019	0,019
-506,985	476,125	0,044	-0,073
-505,970	-200,000	-0,007	-0,100
-504,956	-170,959	-0,136	-0,003
-503,941	-28,541	0,136	-0,057
-502,926	-200,000	0,000	-0,012
-501,912	100,063	0,016	-0,014
-500,897	7,099	-0,077	0,042
-499,883	61,525	-0,083	-0,060
-498,868	303,142	-0,038	0,051
-497,853	0,059	0,097	-0,050
-496,839	-200,000	-0,022	-0,081
-495,824	-200,000	-0,005	0,092
-494,810	660,700	0,013	0,025
-493,795	-200,000	0,016	-0,064
-492,781	83,409	0,074	-0,059
-491,766	632,130	-0,036	0,066
-490,751	800,000	0,038	0,122
-489,737	334,155	-0,040	0,056
-488,722	-54,403	0,121	-0,040
-487,708	262,457	-0,044	-0,055
-486,693	800,000	-0,067	0,200
-485,678	221,168	0,017	-0,020
-484,664	800,000	0,059	0,143
-483,649	-200,000	0,022	-0,081
-482,635	800,000	-0,018	-0,057
-481,620	-200,000	-0,019	-0,091
-480,605	146,649	0,028	0,028
-479,591	-69,334	0,148	-0,041
-478,576	-75,455	-0,111	0,029
-477,562	-200,000	0,013	-0,075
-476,547	26,141	-0,047	0,028
-475,532	-106,381	-0,074	0,012
-474,518	-168,301	-0,084	0,002
-473,503	-200,000	0,014	0,104
-472,489	539,332	-0,090	-0,157
-471,474	800,000	0,011	-0,024
-470,459	800,000	0,058	-0,126
-469,445	52,702	0,052	0,036
-468,430	-116,821	0,163	0,022
-467,416	-200,000	-0,002	-0,091
-466,401	303,858	0,060	0,081
-465,386	126,363	-0,124	-0,114
-464,372	66,762	-0,065	-0,048
-463,357	-200,000	-0,003	0,111
-462,343	-200,000	-0,008	-0,057
-461,328	-200,000	-0,018	-0,072
-460,313	38,581	0,112	0,073
-459,299	800,000	0,022	0,067
-458,284	-200,000	-0,007	-0,117
-457,270	254,312	0,073	0,091
-456,255	-107,711	-0,169	-0,027
-455,241	753,569	0,049	0,098
-454,226	10,633	-0,047	-0,026
-453,211	-200,000	0,025	0,097
-452,197	800,000	0,049	-0,104
-451,182	-45,093	0,201	-0,072
-450,168	72,033	-0,071	-0,054
-449,153	-69,806	0,087	-0,024
-448,138	135,159	-0,090	-0,085
-447,124	800,000	-0,025	-0,055
-446,109	-82,948	0,075	-0,017
-445,095	532,099	-0,027	0,047
-444,080	-80,118	-0,090	0,022
-443,065	-200,000	-0,018	-0,079
-442,051	-28,893	-0,090	-0,038
-441,036	-18,620	-0,035	-0,016
-440,022	800,000	0,046	-0,097
-439,007	800,000	-0,082	-0,201
-437,992	-200,000	-0,002	-0,048
-436,978	-200,000	0,051	0,231
-435,963	-200,000	0,014	0,075
-434,949	449,724	0,037	0,060
-433,934	800,000	0,015	-0,042
-432,919	-200,000	0,011	-0,051
-431,905	105,414	0,059	-0,051
-430,890	800,000	0,017	-0,051
-429,876	800,000	0,046	0,123
-428,861	94,598	0,060	0,050
-427,846	800,000	-0,054	-0,111
-426,832	-200,000	0,008	0,080
-425,817	134,658	0,054	-0,051
-424,803	-200,000	-0,008	0,083
-423,788	72,126	0,049	0,037
-422,773	-78,883	-0,019	-0,005
-421,759	13,182	0,070	-0,040
-420,744	-135,606	0,078	0,007
-419,730	41,810	0,078	-0,051
-418,715	119,975	-0,050	-0,045
-417,701	-200,000	0,029	0,093
-416,686	573,084	0,014	-0,024
-415,671	-200,000	-0,011	0,044
-414,657	800,000	-0,031	-0,089
-413,642	800,000	-0,026	-0,077
-412,628	-200,000	0,008	-0,067
-411,613	392,578	-0,047	-0,071
-410,598	-200,000	-0,012	-0,047
-409,584	-200,000	-0,009	-0,057
-408,569	-3,607	0,050	-0,025
-407,555	-20,189	-0,113	-0,050
-406,540	-200,000	0,024	0,097
-405,525	800,000	-0,030	0,079
-404,511	17,810	0,044	0,025
-403,496	800,000	-0,036	-0,095
-402,482	-52,621	0,076	-0,026
-401,467	69,170	-0,040	0,030
-400,452	-52,543	0,087	0,029
-399,438	-200,000	-0,005	0,017
-398,423	1,543	-0,055	-0,029
-397,409	-19,056	-0,087	-0,039
-396,394	-200,000	0,012	-0,047
-395,379	-28,579	0,083	-0,034
-394,365	-20,905	-0,047	-0,021
-393,350	492,426	0,063	-0,105
-392,336	-200,000	-0,013	-0,116
-391,321	-146,158	0,130	-0,008
-390,306	29,069	-0,132	-0,081
-389,292	136,715	0,070	0,066
-388,277	-55,578	0,109	-0,035
-387,263	300,716	0,035	-0,048
-386,248	-200,000	0,010	0,036
-385,233	-200,000	0,007	0,086
-384,219	-200,000	0,000	0,070
-383,204	-164,743	-0,038	0,001
-382,190	226,628	-0,056	-0,067
-381,175	64,087	0,019	0,014
-380,160	-70,687	-0,055	0,015
-379,146	-0,243	0,071	0,036
-378,131	391,193	-0,027	0,040
-377,117	214,006	0,034	0,039
-376,102	666,004	-0,046	-0,087
-375,088	-88,506	-0,155	0,033
-374,073	-162,995	0,156	0,005
-373,058	246,508	0,090	0,110
-372,044	46,949	-0,125	0,084
-371,029	-200,000	-0,005	-0,068
-370,015	-200,000	-0,001	-0,016
-369,000	-200,000	-0,028	-0,146
-367,985	62,570	-0,072	-0,052
-366,971	-128,626	0,022	0,002
-365,956	-200,000	0,024	0,087
-364,942	-200,000	0,015	0,080
-363,927	-28,789	0,141	0,059
-362,912	327,068	-0,009	0,012
-361,898	-52,889	-0,108	0,036
-360,883	-33,067	0,082	0,033
-359,869	-31,883	-0,186	-0,075
-358,854	276,401	0,060	-0,077
-357,839	175,253	0,068	0,071
-356,825	-76,871	-0,091	-0,023
-355,810	226,542	0,020	0,023
-354,796	-200,000	0,021	-0,166
-353,781	289,140	-0,061	0,081
-352,766	800,000	-0,006	-0,013
-351,752	800,000	0,052	-0,146
-350,737	214,296	-0,064	-0,074
-349,723	14,322	0,085	0,048
-348,708	-200,000	0,005	-0,030
-347,693	228,856	0,034	-0,040
-346,679	800,000	0,026	-0,070
-345,664	-121,276	-0,062	0,007
-344,650	-200,000	-0,012	0,043
-343,635	-200,000	-0,006	-0,037
-342,620	21,194	0,158	0,092
-341,606	-200,000	-0,018	0,102
-340,591	61,577	-0,019	0,013
-339,577	201,579	-0,094	0,105
-338,562	-13,972	-0,071	0,033
-337,548	199,816	0,061	0,068
-336,533	-6,138	0,136	-0,067
-335,518	-14,324	0,071	-0,033
-334,504	625,697	0,038	0,070
-333,489	82,965	0,023	-0,018
-332,475	-200,000	-0,009	0,040
-331,460	143,747	-0,026	0,025
-330,445	-109,769	-0,103	0,016
-329,431	333,969	0,055	0,077
-328,416	644,459	0,029	0,054
-327,402	800,000	-0,038	0,083
-326,387	-8,354	0,130	0,063
-325,372	800,000	0,022	-0,071
-324,358	28,215	-0,131	-0,080
-323,343	-116,550	-0,028	0,004
-322,329	-66,012	0,036	0,010
-321,314	-44,687	0,043	0,015
-320,299	-73,484	-0,064	0,017
-319,285	1,147	-0,085	0,044
-318,270	79,844	-0,052	-0,041
-317,256	-200,000	-0,001	-0,037
-316,241	323,606	0,046	0,064
-315,226	257,932	-0,016	-0,020
-314,212	151,751	0,053	-0,052
-313,197	127,054	-0,095	-0,087
-312,183	110,533	0,056	-0,049
-311,168	-46,922	0,059	0,021
-310,153	394,828	0,045	0,069
-309,139	-200,000	0,001	0,005
-308,124	-200,000	-0,010	-0,107
-307,110	88,851	-0,110	0,088
-306,095	11,488	-0,108	0,060
-305,080	38,701	0,066	0,042
-304,066	51,478	-0,087	0,060
-303,051	-200,000	0,008	-0,171
-302,037	-200,000	-0,031	-0,143
-301,022	800,000	-0,030	-0,076
-300,008	-38,717	-0,025	0,010
-298,993	126,649	0,074	0,068
-297,978	105,020	0,017	0,015
-296,964	-200,000	0,011	0,179
-295,949	-200,000	0,005	-0,027
-294,935	800,000	0,050	-0,101
-293,920	-200,000	0,013	-0,065
-292,905	800,000	0,045	-0,124
-291,891	562,401	-0,012	0,021
-290,876	800,000	0,022	-0,069
-289,862	-200,000	-0,017	-0,095
-288,847	-28,642	-0,012	-0,005
-287,832	-200,000	-0,011	-0,098
-286,818	189,545	-0,010	0,011
-285,803	353,192	0,060	-0,087
-284,789	-70,672	0,079	-0,022
-283,774	62,294	0,052	0,037
-282,759	-200,000	-0,026	0,113
-281,745	21,320	-0,091	-0,053
-280,730	24,681	0,104	-0,062
-279,716	267,149	0,085	-0,107
-278,701	322,495	-0,040	-0,055
-277,686	100,976	0,015	0,013
-276,672	-200,000	0,003	0,077
-275,657	624,868	0,055	0,101
-274,643	-200,000	-0,000	-0,074
-273,628	-37,301	0,127	-0,049
-272,613	-200,000	-0,048	-0,164
-271,599	-47,242	0,096	-0,034
-270,584	-86,901	0,029	-0,006
-269,570	-200,000	0,003	0,182
-268,555	94,364	0,051	-0,042
-267,540	-10,747	0,077	0,037
-266,526	-89,266	-0,091	0,019
-265,511	-200,000	-0,006	-0,171
-264,497	-200,000	0,015	0,097
-263,482	-200,000	0,015	0,097
-262,467	654,387	0,011	-0,021
-261,453	-50,411	-0,135	-0,046
-260,438	-93,238	0,114	0,023
-259,424	44,294	0,055	0,037
-258,409	187,971	0,080	-0,087
-257,395	228,477	0,061	-0,072
-256,380	490,344	0,011	0,018
-255,365	800,000	-0,064	-0,142
-254,351	-171,413	0,090	0,002
-253,336	-64,826	0,093	-0,027
-252,322	61,868	-0,065	0,046
-251,307	57,535	-0,205	0,144
-250,292	800,000	0,015	-0,039
-249,278	-19,936	0,058	-0,026
-248,263	-32,422	0,106	0,043
-247,249	-181,115	0,088	0,001
-246,234	562,961	0,027	0,048
-245,219	42,481	-0,081	0,053
-244,205	187,348	0,045	0,048
-243,190	-101,016	-0,085	0,015
-242,176	285,263	-0,036	-0,046
-241,161	174,670	-0,043	-0,045
-240,146	-44,897	-0,039	-0,014
-239,132	13,150	0,027	0,015
-238,117	-200,000	0,029	-0,193
-237,103	-200,000	-0,014	0,071
-236,088	85,326	-0,009	-0,007
-235,073	-51,304	-0,033	-0,011
-234,059	123,310	0,041	0,037
-233,044	169,139	-0,046	-0,048
-232,030	276,246	0,053	0,068
-231,015	-200,000	0,007	0,037
-230,000	150,105	-0,070	0,069
-228,986	287,460	-0,063	0,082
-227,971	800,000	-0,021	0,060
-226,957	-33,335	0,053	0,021
-225,942	800,000	-0,012	0,033
-224,927	-200,000	-0,018	0,132
-223,913	3,144	-0,093	0,048
-222,898	362,852	0,015	0,022
-221,884	-103,195	-0,222	-0,037
-220,869	-150,579	0,065	0,004
-219,855	-200,000	-0,019	-0,079
-218,840	-60,777	0,025	0,007
-217,825	800,000	0,042	0,090
-216,811	-56,048	-0,165	0,053
-215,796	164,270	-0,064	-0,065
-214,782	-200,000	0,009	0,065
-213,767	377,888	0,099	0,147
-212,752	-200,000	-0,030	0,150
-211,738	-200,000	0,008	0,078
-210,723	775,288	-0,036	0,071
-209,709	-200,000	-0,003	0,023
-208,694	-81,261	-0,235	0,056
-207,679	19,267	-0,032	0,019
-206,665	339,876	-0,032	-0,046
-205,650	214,811	0,022	0,025
-204,636	-24,090	0,140	-0,060
-203,621	234,302	0,089	0,106
-202,606	34,806	-0,132	-0,083
-201,592	-67,806	0,026	-0,007
-200,577	629,545	-0,048	0,088
-199,563	-10,049	0,111	0,053
-198,548	-200,000	0,009	-0,038
-197,533	-200,000	-0,015	0,049
-196,519	98,057	0,086	0,071
-195,504	800,000	-0,018	-0,040
-194,490	93,416	-0,032	0,026
-193,475	-74,859	-0,077	-0,020
-192,460	-66,586	0,183	-0,052
-191,446	-100,010	0,171	0,031
-190,431	-118,719	0,091	0,011
-189,417	-200,000	-0,029	0,110
-188,402	386,113	-0,029	0,043
-187,387	159,450	-0,091	0,091
-186,373	-162,807	-0,039	-0,001
-185,358	10,221	-0,102	0,056
-184,344	177,937	0,120	-0,127
-183,329	-121,896	0,078	-0,009
-182,315	95,085	0,097	0,079
-181,300	215,387	-0,025	0,029
-180,285	-200,000	-0,015	-0,071
-179,271	563,490	-0,038	0,067
-178,256	-200,000	0,002	0,055
-177,242	174,021	-0,063	-0,066
-176,227	580,935	0,050	-0,088
-175,212	10,033	-0,090	-0,049
-174,198	-200,000	-0,022	0,185
-173,183	-119,281	-0,090	0,011
-172,169	519,558	-0,062	-0,105
-171,154	181,504	-0,060	0,064
-170,139	-200,000	-0,002	-0,021
-169,125	-200,000	0,023	0,090
-168,110	24,177	-0,073	-0,043
-167,096	-124,807	0,106	-0,012
-166,081	-200,000	0,009	0,142
-165,066	-200,000	-0,007	-0,119
-164,052	146,703	0,085	0,082
-163,037	145,685	0,040	-0,039
-162,023	800,000	0,035	0,110
-161,008	-93,534	-0,162	0,032
-159,993	350,072	-0,003	0,004
-158,979	102,205	0,067	0,057
-157,964	-48,520	0,041	0,014
-156,950	-200,000	-0,009	-0,032
-155,935	-200,000	0,017	0,120
-154,920	286,495	0,106	0,138
-153,906	800,000	-0,012	-0,034
-152,891	-158,538	-0,120	-0,005
-151,877	217,254	-0,034	0,039
-150,862	271,144	-0,039	-0,049
-149,847	-143,125	-0,013	0,001
-148,833	58,591	0,018	0,013
-147,818	-75,519	0,033	0,008
-146,804	-200,000	-0,003	0,123
-145,789	722,050	-0,064	0,123
-144,775	329,692	-0,036	0,049
-143,760	-51,055	-0,185	-0,062
-142,745	675,851	0,059	-0,110
-141,731	125,313	0,011	0,010
-140,716	-200,000	0,012	0,064
-139,702	-61,885	-0,071	0,021
-138,687	163,992	0,064	-0,065
-137,672	-34,660	0,085	0,033
-136,658	315,063	-0,040	-0,054
-135,643	-32,306	0,128	-0,051
-134,629	-200,000	0,010	0,136
-133,614	391,496	0,089	0,133
-132,599	800,000	-0,045	0,111
-131,585	589,727	-0,034	0,060
-130,570	-200,000	0,008	-0,054
-129,556	66,291	-0,072	-0,052
-128,541	317,144	0,049	0,067
-127,526	-200,000	-0,021	-0,148
-126,512	693,840	0,044	-0,083
-125,497	-200,000	0,004	0,127
-124,483	374,217	-0,081	0,119
-123,468	-200,000	0,005	0,047
-122,453	800,000	0,048	-0,099
-121,439	-200,000	-0,016	-0,086
-120,424	-200,000	-0,034	-0,200
-119,410	301,102	0,011	-0,015
-118,395	-200,000	-0,001	0,066
-117,380	-123,822	0,075	0,008
-116,366	109,040	-0,084	0,072
-115,351	21,601	-0,128	-0,075
-114,337	-140,069	0,111	0,008
-113,322	-200,000	-0,005	-0,017
-112,307	-200,000	-0,008	0,059
-111,293	196,588	0,045	-0,049
-110,278	-146,531	0,075	0,005
-109,264	800,000	-0,030	-0,077
-108,249	-200,000	0,032	0,117
-107,234	-53,972	0,077	0,025
-106,220	-136,733	-0,160	0,013
-105,205	-178,064	0,108	-0,002
-104,191	750,126	0,105	0,204
-103,176	185,023	-0,020	0,021
-102,162	-27,593	0,123	0,051
-101,147	296,671	-0,070	0,092
-100,132	-82,722	-0,024	-0,005
-99,118	-200,000	-0,034	0,120
-98,103	-30,763	0,079	0,032
-97,089	-80,747	0,009	-0,002
-96,074	663,054	0,037	0,070
-95,059	-69,573	0,143	0,039
-94,045	800,000	-0,026	-0,058
-93,030	263,035	-0,089	0,111
-92,016	599,812	-0,046	-0,082
-91,001	-162,245	-0,131	-0,005
-89,986	-200,000	0,040	0,200
-88,972	-7,037	0,123	0,060
-87,957	-21,626	-0,088	0,038
-86,943	-33,159	0,038	0,015
-85,928	-44,050	0,066	-0,024
-84,913	-200,000	0,017	0,067
-83,899	461,824	0,052	0,084
-82,884	24,853	0,101	0,060
-81,870	-200,000	0,017	0,058
-80,855	774,813	-0,064	0,126
-79,840	-145,651	-0,017	-0,001
-78,826	800,000	-0,021	-0,044
-77,811	-44,185	-0,084	-0,030
-76,797	-200,000	0,023	-0,081
-75,782	571,897	0,082	-0,144
-74,767	-108,936	0,125	0,019
-73,753	6,587	0,128	0,068
-72,738	800,000	-0,041	0,083
-71,724	63,899	0,034	-0,024
-70,709	5,793	0,109	-0,058
-69,694	20,304	-0,019	-0,011
-68,680	800,000	0,060	0,129
-67,665	-200,000	0,001	-0,029
-66,651	54,288	0,093	0,064
-65,636	800,000	-0,019	-0,058
-64,622	-200,000	-0,009	-0,112
-63,607	98,517	-0,013	0,010
-62,592	44,489	0,060	0,039
-61,578	-200,000	-0,015	0,079
-60,563	800,000	-0,070	0,144
-59,549	-106,766	0,124	-0,020
-58,534	17,348	-1,870	-1,062
-57,519	-200,000	-0,244	-0,948
-56,505	-200,000	-1,354	-5,010
-55,490	-9,383	0,814	0,388
-54,476	800,000	5,240	12,135
-53,461	-200,000	17,570	284,530
-52,446	800,000	727,697	2214,621
-51,432	532,897	1643,621	2800,044
-50,417	109,637	1634,311	1403,719
-49,403	75,161	1286,546	971,168
-48,388	31,822	1027,224	632,508
-47,373	20,078	988,803	570,195
-46,359	18,375	976,665	557,600
-45,344	15,488	972,853	545,971
-44,330	15,743	971,206	545,858
-43,315	15,209	969,489	543,128
-42,300	15,171	968,154	542,237
-41,286	15,155	967,306	541,688
-40,271	15,192	966,233	541,186
-39,257	15,191	965,356	540,669
-38,242	15,255	964,492	540,370
-37,227	15,194	963,697	539,707
-36,213	15,177	962,774	539,114
-35,198	15,128	961,899	538,445
-34,184	15,222	961,127	538,293
-33,169	15,160	960,142	537,522
-32,154	15,240	959,215	537,241
-31,140	15,182	958,398	536,572
-30,125	15,147	958,016	536,224
-29,111	15,162	957,001	535,683
-28,096	15,163	956,339	535,297
-27,082	15,169	955,676	534,923
-26,067	15,167	954,791	534,400
-25,052	15,179	954,077	534,016
-24,038	15,153	953,537	533,609
-23,023	15,169	952,941	533,308
-22,009	15,256	952,191	533,143
-20,994	15,243	951,606	532,752
-19,979	15,231	950,877	532,287
-18,965	15,163	950,274	531,712
-17,950	15,233	949,574	531,519
-16,936	15,155	949,010	530,937
-15,921	15,221	948,229	530,686
-14,906	15,036	947,686	529,775
-13,892	15,074	947,004	529,491
-12,877	15,040	946,392	529,023
-11,863	14,992	945,613	528,413
-10,848	15,070	945,206	528,413
-9,833	15,160	944,659	528,371
-8,819	15,151	943,866	527,877
-7,804	15,111	943,423	527,482
-6,790	15,045	943,009	527,019
-5,775	15,119	942,315	526,846
-4,760	15,174	941,536	526,564
-3,746	15,093	941,072	526,027
-2,731	14,914	940,481	525,110
-1,717	14,897	939,860	524,689
-0,702	14,975	938,956	524,411
0,313	14,771	938,416	524,256
1,327	18,124	936,176	533,501
2,342	27,264	793,184	476,165
3,356	24,128	458,061	270,181
4,371	-3,424	314,076	156,040
5,386	-7,134	295,765	143,185
6,400	-8,984	289,741	138,425
7,415	-9,425	287,173	136,753
8,429	-9,643	285,580	135,770
9,444	-9,711	284,820	135,330
10,459	-9,631	283,982	134,997
11,473	-9,799	283,591	134,638
12,488	-9,659	282,994	134,477
13,502	-9,786	282,507	134,110
14,517	-9,748	281,973	133,882
15,531	-10,067	281,334	133,261
16,546	-9,921	281,176	133,313
17,561	-10,019	280,587	132,929
18,575	-9,915	280,371	132,914
19,590	-10,046	280,124	132,660
20,604	-9,935	279,694	132,551
21,619	-10,071	279,256	132,201
22,634	-9,892	278,934	132,208
23,648	-10,122	278,758	131,894
24,663	-10,087	278,444	131,766
25,677	-10,038	278,089	131,633
26,692	-10,140	277,866	131,419
27,707	-10,113	277,689	131,350
28,721	-10,019	277,343	131,263
29,736	-9,993	276,895	131,064
30,750	-10,261	276,717	130,715
31,765	-10,136	276,424	130,682
32,780	-10,213	276,381	130,578
33,794	-10,035	275,915	130,513
34,809	-10,170	275,827	130,333
35,823	-10,205	275,555	130,160
36,838	-10,152	275,304	130,079
37,853	-10,310	275,075	129,812
38,867	-10,296	274,837	129,701
39,882	-10,168	274,524	129,662
40,896	-10,093	274,200	129,568
41,911	-10,184	274,000	129,376
42,926	-10,264	273,817	129,204
43,940	-10,307	273,500	129,002
44,955	-10,274	273,163	128,863
45,969	-10,278	273,130	128,832
46,984	-10,221	272,774	128,705
47,999	-10,512	272,511	128,300
49,013	-10,501	272,294	128,196
50,028	-10,623	272,100	127,980
51,042	-10,533	271,691	127,860
52,057	-10,885	271,544	127,453
53,071	-10,740	271,276	127,450
54,086	-10,542	271,137	127,556
55,101	-10,491	270,916	127,488
56,115	-10,457	270,896	127,499
57,130	-10,136	270,913	127,791
58,144	-9,768	270,243	127,802
59,159	-9,952	270,267	127,634
60,174	-9,863	270,025	127,590
61,188	-9,866	269,905	127,519
62,203	-9,859	269,573	127,357
63,217	-10,037	269,426	127,113
64,232	-9,805	269,096	127,159
65,247	-9,963	268,925	126,921
66,261	-9,907	268,683	126,847
67,276	-10,208	268,463	126,457
68,290	-10,175	268,218	126,361
69,305	-10,029	267,868	126,318
70,320	-10,107	267,766	126,187
71,334	-10,083	267,631	126,134
72,349	-9,876	267,289	126,150
73,363	-9,817	267,141	126,122
74,378	-9,877	267,005	125,992
75,393	-9,913	266,762	125,834
76,407	-10,283	266,738	125,476
77,422	-10,001	266,249	125,489
78,436	-9,969	266,087	125,431
79,451	-9,918	265,878	125,367
80,466	-10,162	265,625	125,017
81,480	-10,136	265,185	124,822
82,495	-10,109	265,204	124,845
83,509	-10,012	264,852	124,755
84,524	-10,194	264,787	124,549
85,539	-10,424	264,575	124,232
86,553	-10,275	264,374	124,260
87,568	-10,019	264,105	124,352
88,582	-10,095	263,885	124,169
89,597	-10,269	263,750	123,939
90,611	-10,026	263,546	124,050
91,626	-10,014	263,259	123,914
92,641	-10,085	263,246	123,833
93,655	-10,196	262,993	123,605
94,670	-10,064	262,646	123,548
95,684	-10,122	262,662	123,493
96,699	-10,063	262,463	123,440
97,714	-10,075	262,214	123,302
98,728	-10,163	261,853	123,042
99,743	-10,281	261,705	122,857
100,757	-10,336	261,531	122,716
101,772	-10,119	261,364	122,819
102,787	-10,145	261,012	122,620
103,801	-10,167	260,999	122,583
104,816	-10,204	260,915	122,500
105,830	-9,861	260,552	122,622
106,845	-9,881	260,338	122,493
107,860	-9,956	260,305	122,400
108,874	-9,918	259,890	122,227
109,889	-9,800	259,885	122,318
110,903	-9,891	259,730	122,154
111,918	-9,909	259,457	121,999
112,933	-10,190	259,274	121,655
113,947	-10,061	259,160	121,704
114,962	-10,018	258,828	121,575
115,976	-10,107	258,732	121,441
116,991	-10,049	258,574	121,407
118,006	-10,056	258,262	121,243
119,020	-9,821	258,312	121,461
120,035	-10,078	258,126	121,139
121,049	-9,924	257,721	121,072
122,064	-9,858	257,749	121,133
123,079	-9,961	257,468	120,900
124,093	-9,921	257,292	120,841
125,108	-10,099	256,942	120,511
126,122	-10,547	256,813	120,051
127,137	-10,361	256,569	120,087
128,151	-10,256	256,392	120,085
129,166	-10,094	256,301	120,172
130,181	-10,072	255,793	119,942
131,195	-10,357	255,789	119,683
132,210	-9,937	255,639	119,965
133,224	-9,885	255,512	119,940
134,239	-9,752	255,378	119,981
135,254	-9,805	255,149	119,817
136,268	-9,965	254,770	119,490
137,283	-10,229	254,702	119,221
138,297	-10,290	254,409	119,020
139,312	-10,284	254,148	118,893
140,327	-10,106	254,118	119,021
141,341	-9,779	253,938	119,206
142,356	-9,891	254,004	119,131
143,370	-9,732	253,657	119,093
144,385	-9,651	253,485	119,072
145,400	-9,625	253,366	119,028
146,414	-9,837	253,049	118,687
147,429	-9,773	253,003	118,709
148,443	-9,814	252,630	118,489
149,458	-9,916	252,597	118,376
150,473	-9,918	252,371	118,258
151,487	-9,708	252,085	118,292
152,502	-9,774	252,007	118,189
153,516	-9,837	251,830	118,041
154,531	-9,674	251,574	118,049
155,546	-9,802	251,413	117,854
156,560	-9,861	251,319	117,750
157,575	-9,824	251,005	117,624
158,589	-9,725	250,909	117,652
159,604	-9,690	250,788	117,615
160,619	-9,671	250,587	117,526
161,633	-9,832	250,439	117,310
162,648	-9,726	250,212	117,282
163,662	-9,741	250,046	117,182
164,677	-9,630	250,031	117,258
165,692	-9,856	249,858	116,975
166,706	-9,665	249,584	116,998
167,721	-9,792	249,323	116,758
168,735	-9,822	249,193	116,662
169,750	-9,725	249,185	116,729
170,764	-9,790	249,128	116,637
171,779	-9,666	248,925	116,636
172,794	-9,672	248,784	116,555
173,808	-9,789	248,430	116,280
174,823	-10,221	248,193	115,798
175,837	-10,138	247,883	115,712
176,852	-10,100	248,067	115,819
177,867	-9,708	247,794	116,009
178,881	-9,562	247,458	115,963
179,896	-9,589	247,382	115,895
180,910	-9,720	247,280	115,727
181,925	-9,580	247,050	115,725
182,940	-9,516	246,990	115,740
183,954	-9,589	246,675	115,522
184,969	-9,739	246,558	115,332
185,983	-9,828	246,520	115,230
186,998	-9,636	246,387	115,317
188,013	-9,537	246,027	115,221
189,027	-9,536	245,950	115,175
190,042	-9,513	245,764	115,096
191,056	-9,319	245,714	115,223
192,071	-9,512	245,444	114,927
193,086	-9,460	245,270	114,877
194,100	-9,483	244,962	114,704
195,115	-9,560	244,861	114,584
196,129	-9,394	244,659	114,615
197,144	-9,515	244,552	114,456
198,159	-9,567	244,325	114,297
199,173	-9,483	244,198	114,296
200,188	-9,624	243,864	114,014
201,202	-9,858	243,657	113,715
202,217	-10,195	243,393	113,306
203,232	-10,229	243,254	113,204
204,246	-9,641	243,325	113,707
205,261	-9,088	243,346	114,159
206,275	-9,613	243,151	113,628
207,290	-7,449	243,617	115,606
208,304	-2,620	245,274	120,351
209,319	0,437	246,138	123,280
210,334	1,056	245,995	123,706
211,348	1,122	246,052	123,778
212,363	1,352	245,897	123,878
213,377	1,583	245,852	124,033
214,392	1,630	245,767	124,018
215,407	1,587	245,533	123,853
216,421	1,504	245,406	123,711
217,436	1,826	245,363	123,942
218,450	1,704	245,102	123,699
219,465	1,395	244,791	123,278
220,480	1,432	244,703	123,254
221,494	1,367	244,673	123,174
222,509	1,518	244,620	123,259
223,523	1,662	244,206	123,158
224,538	1,322	243,990	122,761
225,553	1,212	243,885	122,608
226,567	1,492	243,719	122,741
227,582	1,741	243,554	122,849
228,596	1,570	243,556	122,700
229,611	1,450	243,192	122,408
230,626	1,542	243,022	122,386
231,640	1,311	243,058	122,206
232,655	1,622	242,917	122,377
233,669	1,645	242,574	122,211
234,684	1,548	242,330	121,999
235,699	1,744	242,402	122,183
236,713	2,019	242,295	122,340
237,728	1,669	242,045	121,921
238,742	1,639	241,887	121,806
239,757	1,440	241,563	121,472
240,772	1,528	241,352	121,425
241,786	1,558	241,287	121,407
242,801	1,256	241,154	121,086
243,815	1,044	240,892	120,774
244,830	1,494	240,845	121,100
245,844	2,023	240,715	121,448
246,859	1,581	240,526	120,988
247,874	1,579	240,254	120,838
248,888	1,609	240,205	120,828
249,903	1,586	240,077	120,734
250,917	1,600	240,080	120,736
251,932	1,930	239,850	120,872
252,947	1,592	239,736	120,534
253,961	1,437	239,393	120,228
254,976	1,648	239,249	120,313
255,990	1,679	239,130	120,267
257,005	1,397	239,086	120,010
258,020	1,272	238,717	119,715
259,034	1,495	238,560	119,802
260,049	1,613	238,579	119,895
261,063	1,309	238,446	119,576
262,078	1,397	238,154	119,489
263,093	1,619	238,129	119,641
264,107	1,657	237,982	119,587
265,122	1,447	237,777	119,307
266,136	1,540	237,616	119,289
267,151	1,745	237,522	119,393
268,166	1,481	237,188	119,006
269,180	1,524	237,158	119,015
270,195	1,947	237,146	119,331
271,209	2,221	236,958	119,441
272,224	1,509	236,731	118,756
273,239	1,178	236,507	118,374
274,253	1,476	236,277	118,482
275,268	1,563	236,147	118,475
276,282	1,556	236,044	118,406
277,297	1,363	235,888	118,167
278,312	1,471	235,804	118,199
279,326	1,516	235,641	118,142
280,341	1,585	235,498	118,113
281,355	1,622	235,339	118,052
282,370	1,748	235,295	118,118
283,384	1,692	235,145	117,989
284,399	1,452	234,923	117,680
285,414	1,384	234,624	117,466
286,428	1,370	234,631	117,449
287,443	1,527	234,505	117,497
288,457	1,973	234,326	117,743
289,472	1,924	234,304	117,684
290,487	1,633	233,905	117,247
291,501	1,276	233,772	116,893
292,516	1,042	233,628	116,629
293,530	1,198	233,315	116,584
294,545	1,471	233,504	116,879
295,560	1,529	233,294	116,808
296,574	1,063	233,128	116,355
297,589	1,396	232,871	116,473
298,603	1,675	232,787	116,636
299,618	1,694	232,912	116,703
300,633	1,808	232,533	116,590
301,647	1,869	232,550	116,635
302,662	2,274	232,338	116,830
303,676	2,131	232,263	116,672
304,691	1,984	232,082	116,457
305,706	2,113	231,947	116,478
306,720	2,017	231,819	116,330
307,735	1,831	231,528	116,031
308,749	1,723	231,396	115,872
309,764	1,374	231,233	115,514
310,779	1,348	230,991	115,362
311,793	1,360	230,777	115,254
312,808	1,513	230,690	115,317
313,822	1,298	230,458	115,027
314,837	1,302	230,402	114,992
315,852	1,212	230,169	114,796
316,866	1,577	230,236	115,098
317,881	1,577	230,154	115,047
318,895	1,901	230,132	115,272
319,910	2,093	229,909	115,296
320,925	1,804	229,587	114,905
321,939	1,789	229,397	114,788
322,954	1,901	229,458	114,894
323,968	1,803	229,288	114,723
324,983	2,030	229,029	114,756
325,997	1,949	229,035	114,687
327,012	1,809	228,825	114,466
328,027	1,637	228,492	114,159
329,041	1,749	228,406	114,190
330,056	2,326	228,479	114,652
331,070	2,490	228,225	114,638
332,085	2,383	228,100	114,484
333,100	2,403	227,875	114,376
334,114	2,201	227,824	114,188
335,129	2,012	227,774	114,011
336,143	1,998	227,448	113,827
337,158	1,875	227,295	113,648
338,173	2,013	227,161	113,675
339,187	2,019	226,994	113,586
340,202	1,963	226,985	113,529
341,216	2,000	226,833	113,471
342,231	1,906	226,649	113,299
343,246	1,999	226,560	113,313
344,260	2,030	226,484	113,288
345,275	2,141	226,339	113,289
346,289	2,131	226,216	113,209
347,304	2,230	225,870	113,100
348,319	2,307	225,852	113,137
349,333	2,008	225,648	112,803
350,348	1,894	225,439	112,603
351,362	2,068	225,417	112,712
352,377	1,685	225,162	112,290
353,392	1,869	224,963	112,317
354,406	1,764	224,951	112,224
355,421	197,664	1318,785	1400,416
356,435	158,505	1452,056	1400,410
