DTS Sentinel unit serial number:	SN410029Multiplexer serial number:	ORYXHardware model number:	OX2-SRSoftware version number:	ORYX F/W v4,00 Oryx Data Collector v3.7.2.0data status	okinstallation	B5 Nyhavnadifferential loss correction	single-endedforward channel	channel 2reverse channel	N/Adate	2023/12/14time	01:32:13forward acquisition time	300,00reverse acquisition time	0,00gamma	499,1914k internal	0,3154k external	0,3154temperature offset calibration	1,0000default loss term (dB/km)	0,3820temperature slope calibration	1,0000multiplexer offset coefficient	1,0000multiplexer slope coefficient	1,0000fibre end	0,00T internal ref (°C)	8,69T ext. ref 1 (°C)	-7,28T ext. ref 2 (°C)	-7,31length (m)	temperature (°C)	Stokes	anti-Stokes-744,400	-3,901	0,270	0,138
-743,385	-14,146	-0,452	-0,215
-742,371	20,816	0,275	0,164
-741,356	-151,906	-0,284	-0,015
-740,342	778,618	0,078	0,159
-739,327	43,268	-0,226	-0,152
-738,312	-153,837	0,111	0,005
-737,298	-37,230	-0,291	-0,114
-736,283	-67,132	0,255	0,074
-735,269	-101,143	-0,264	-0,047
-734,254	574,694	0,079	0,144
-733,239	5,845	-0,553	-0,301
-732,225	-7,670	0,160	0,080
-731,210	-167,706	-0,146	-0,004
-730,196	227,059	-0,088	-0,106
-729,181	-62,771	-0,135	0,041
-728,167	133,204	0,035	0,034
-727,152	-200,000	0,018	-0,104
-726,137	-114,050	0,087	0,012
-725,123	-200,000	-0,019	-0,069
-724,108	467,458	0,043	-0,071
-723,094	112,883	-0,060	-0,054
-722,079	255,709	0,051	-0,064
-721,064	-79,619	-0,055	0,014
-720,050	800,000	0,023	-0,056
-719,035	-200,000	-0,021	-0,076
-718,021	286,816	-0,091	-0,122
-717,006	131,903	-0,179	-0,170
-715,991	-22,334	-0,138	-0,061
-714,977	-79,309	-0,070	-0,017
-713,962	521,712	-0,065	0,112
-712,948	800,000	0,066	0,198
-711,933	-46,981	-0,044	-0,016
-710,918	-70,532	0,107	0,030
-709,904	648,095	0,033	-0,063
-708,889	265,182	-0,088	-0,113
-707,875	800,000	0,013	-0,040
-706,860	800,000	0,031	0,063
-705,845	94,066	0,083	0,069
-704,831	800,000	0,034	0,098
-703,816	131,730	0,096	-0,091
-702,802	800,000	-0,043	-0,105
-701,787	318,992	-0,052	-0,073
-700,772	800,000	0,047	-0,119
-699,758	140,416	0,085	0,082
-698,743	-170,604	0,079	0,002
-697,729	77,171	0,065	-0,051
-696,714	228,913	-0,030	0,037
-695,699	146,447	-0,063	0,062
-694,685	15,703	-0,064	0,037
-693,670	79,827	-0,030	-0,024
-692,656	-200,000	0,002	-0,025
-691,641	-200,000	-0,001	0,107
-690,627	-200,000	0,042	0,194
-689,612	-200,000	-0,005	0,047
-688,597	208,478	0,103	-0,119
-687,583	800,000	0,061	-0,180
-686,568	335,393	-0,097	-0,139
-685,554	-118,110	-0,036	0,005
-684,539	-155,889	-0,149	-0,007
-683,524	800,000	-0,016	-0,033
-682,510	-200,000	-0,015	-0,057
-681,495	800,000	0,050	-0,163
-680,481	-112,574	0,128	-0,019
-679,466	162,439	-0,140	-0,145
-678,451	78,036	-0,052	-0,041
-677,437	-32,845	0,022	0,009
-676,422	-200,000	0,005	0,068
-675,408	159,102	-0,100	-0,102
-674,393	86,241	0,103	-0,084
-673,378	-86,943	-0,097	-0,022
-672,364	-89,203	0,088	0,019
-671,349	800,000	-0,051	-0,122
-670,335	-146,644	0,033	0,002
-669,320	-200,000	-0,027	0,104
-668,305	126,769	-0,031	-0,029
-667,291	-21,119	-0,064	-0,029
-666,276	-70,536	0,074	0,020
-665,262	800,000	-0,043	-0,109
-664,247	-200,000	0,004	-0,013
-663,232	473,878	0,084	-0,139
-662,218	-90,511	0,025	0,005
-661,203	-125,113	0,159	-0,018
-660,189	58,693	-0,060	0,044
-659,174	449,391	0,040	-0,065
-658,159	13,684	0,066	-0,038
-657,145	-39,511	-0,171	-0,065
-656,130	52,528	0,027	-0,019
-655,116	-200,000	0,014	-0,082
-654,101	12,410	0,061	0,034
-653,086	-200,000	-0,003	0,023
-652,072	457,467	0,057	0,093
-651,057	34,845	-0,059	-0,038
-650,043	-29,066	-0,089	0,037
-649,028	-86,908	-0,129	-0,029
-648,014	800,000	-0,011	0,026
-646,999	94,098	-0,081	0,068
-645,984	-200,000	0,022	-0,081
-644,970	-34,954	-0,087	0,035
-643,955	-200,000	-0,025	-0,104
-642,941	-27,484	-0,029	-0,012
-641,926	800,000	0,012	0,034
-640,911	800,000	-0,022	-0,054
-639,897	800,000	0,006	-0,015
-638,882	-63,421	0,054	0,016
-637,868	-200,000	0,006	0,051
-636,853	-200,000	-0,002	-0,104
-635,838	145,463	-0,153	0,150
-634,824	715,591	0,032	-0,062
-633,809	-200,000	0,004	0,057
-632,795	194,827	-0,032	-0,035
-631,780	800,000	-0,041	0,111
-630,765	87,165	-0,068	-0,055
-629,751	-13,821	-0,153	-0,073
-628,736	800,000	-0,054	-0,112
-627,722	-114,250	0,041	0,006
-626,707	452,373	0,003	0,005
-625,692	-200,000	-0,017	0,097
-624,678	171,640	0,025	0,026
-623,663	-200,000	-0,003	0,064
-622,649	-200,000	-0,051	-0,186
-621,634	-105,716	-0,145	-0,024
-620,619	800,000	0,024	-0,052
-619,605	-200,000	0,022	-0,132
-618,590	800,000	0,070	-0,164
-617,576	-103,002	0,113	0,019
-616,561	-70,903	-0,143	-0,039
-615,546	205,475	0,061	0,070
-614,532	-112,526	-0,108	0,016
-613,517	-43,498	-0,080	0,030
-612,503	-100,340	0,143	0,026
-611,488	33,047	-0,069	0,044
-610,474	-200,000	0,036	0,177
-609,459	102,473	0,029	0,025
-608,444	-200,000	0,027	-0,097
-607,430	-200,000	0,012	-0,090
-606,415	180,792	0,044	-0,047
-605,401	11,695	0,147	0,083
-604,386	-200,000	0,009	0,055
-603,371	24,102	-0,118	0,071
-602,357	-200,000	0,021	0,077
-601,342	-39,616	0,057	0,022
-600,328	-200,000	-0,032	0,158
-599,313	-200,000	0,002	-0,060
-598,298	72,115	-0,096	-0,073
-597,284	-118,453	0,071	-0,009
-596,269	-48,955	-0,075	0,026
-595,255	-37,557	0,069	-0,027
-594,240	-200,000	0,007	0,041
-593,225	0,163	-0,082	0,043
-592,211	-27,540	-0,051	-0,022
-591,196	800,000	-0,018	0,039
-590,182	138,112	-0,045	-0,043
-589,167	800,000	0,050	-0,127
-588,152	-60,899	-0,067	-0,021
-587,138	-200,000	-0,003	-0,123
-586,123	-150,026	-0,106	-0,006
-585,109	134,766	0,040	-0,038
-584,094	800,000	-0,027	0,078
-583,079	800,000	0,040	-0,097
-582,065	-200,000	0,006	-0,056
-581,050	-98,893	0,109	0,020
-580,036	75,341	0,003	0,002
-579,021	133,012	-0,071	-0,067
-578,006	-200,000	0,005	-0,112
-576,992	-200,000	-0,005	0,046
-575,977	-152,322	0,081	0,004
-574,963	-39,123	-0,090	0,035
-573,948	-20,588	0,131	-0,059
-572,934	-200,000	-0,014	-0,138
-571,919	27,405	-0,058	-0,036
-570,904	-200,000	0,036	-0,152
-569,890	800,000	-0,041	-0,109
-568,875	-149,171	0,070	0,004
-567,861	237,947	0,049	-0,060
-566,846	800,000	-0,029	0,088
-565,831	-92,241	0,159	-0,033
-564,817	284,047	-0,083	-0,110
-563,802	75,718	0,006	0,005
-562,788	-200,000	0,007	0,046
-561,773	-40,405	0,047	-0,018
-560,758	-75,988	-0,106	-0,027
-559,744	800,000	0,023	0,070
-558,729	-40,896	-0,056	-0,021
-557,715	-45,767	-0,037	-0,013
-556,700	800,000	0,045	-0,132
-555,685	54,392	-0,045	0,031
-554,671	68,687	0,069	-0,052
-553,656	800,000	0,005	0,010
-552,642	-65,105	0,116	-0,034
-551,627	-200,000	-0,021	0,098
-550,612	-22,701	-0,079	-0,035
-549,598	-200,000	-0,024	0,084
-548,583	-200,000	-0,005	-0,096
-547,569	168,402	0,064	-0,066
-546,554	-97,477	0,040	0,007
-545,539	534,684	-0,017	0,029
-544,525	-133,213	0,066	-0,006
-543,510	257,837	-0,074	0,094
-542,496	29,543	-0,089	-0,055
-541,481	-200,000	0,052	-0,178
-540,466	51,662	0,058	0,041
-539,452	-200,000	-0,027	0,153
-538,437	303,525	0,063	0,086
-537,423	800,000	-0,026	-0,066
-536,408	-32,508	0,050	0,020
-535,393	-114,761	0,123	-0,017
-534,379	24,968	-0,094	0,057
-533,364	134,422	-0,027	-0,026
-532,350	26,684	0,089	0,054
-531,335	800,000	0,033	0,096
-530,321	104,497	-0,061	-0,053
-529,306	800,000	-0,005	0,011
-528,291	30,037	-0,183	-0,114
-527,277	11,584	-0,048	-0,027
-526,262	86,700	-0,018	0,015
-525,248	143,179	-0,079	0,077
-524,233	-114,825	0,115	-0,016
-523,218	592,337	0,025	-0,046
-522,204	-72,161	0,128	-0,034
-521,189	-63,848	0,066	-0,020
-520,175	800,000	-0,036	0,083
-519,160	-174,193	-0,125	-0,003
-518,145	71,844	-0,058	0,044
-517,131	187,445	0,122	-0,134
-516,116	-200,000	-0,038	-0,131
-515,102	476,309	-0,043	-0,071
-514,087	349,057	0,007	0,011
-513,072	66,394	0,049	0,036
-512,058	-200,000	0,032	-0,115
-511,043	-200,000	-0,004	0,083
-510,029	69,736	-0,059	0,044
-509,014	162,462	0,081	-0,083
-507,999	145,523	-0,079	0,077
-506,985	-80,367	-0,019	-0,005
-505,970	-37,046	-0,072	0,028
-504,956	102,686	0,079	-0,068
-503,941	-81,990	0,036	0,009
-502,926	-200,000	0,022	0,115
-501,912	-31,356	0,045	-0,019
-500,897	165,227	0,074	-0,076
-499,883	22,793	-0,096	-0,057
-498,868	-70,491	-0,122	-0,034
-497,853	208,806	-0,048	0,056
-496,839	800,000	-0,075	-0,192
-495,824	800,000	-0,019	-0,041
-494,810	-38,479	0,087	-0,033
-493,795	-200,000	-0,006	-0,042
-492,781	26,913	-0,109	0,066
-491,766	-3,878	0,152	-0,077
-490,751	800,000	-0,049	-0,123
-489,737	197,216	0,048	0,053
-488,722	-125,423	0,064	-0,007
-487,708	-200,000	0,037	0,155
-486,693	-200,000	-0,018	0,083
-485,678	-200,000	-0,027	0,104
-484,664	118,502	-0,039	-0,035
-483,649	127,930	0,075	-0,070
-482,635	-200,000	0,000	0,014
-481,620	73,474	0,135	-0,103
-480,605	-21,621	0,068	-0,030
-479,591	136,543	0,045	-0,043
-478,576	-200,000	-0,018	0,098
-477,562	480,056	-0,011	-0,018
-476,547	800,000	0,067	-0,158
-475,532	-200,000	0,008	0,037
-474,518	-102,091	0,063	0,011
-473,503	-200,000	0,008	0,131
-472,489	-148,868	-0,065	0,004
-471,474	-128,119	-0,054	-0,006
-470,459	124,949	0,073	-0,067
-469,445	800,000	-0,075	-0,188
-468,430	-96,901	0,065	-0,012
-467,416	-37,227	0,182	-0,071
-466,401	-200,000	0,003	0,026
-465,386	-200,000	-0,003	0,065
-464,372	258,428	0,036	0,046
-463,357	-16,955	0,139	-0,064
-462,343	-64,871	-0,093	-0,027
-461,328	135,266	-0,086	-0,082
-460,313	800,000	-0,059	-0,146
-459,299	-54,067	-0,076	0,025
-458,284	-200,000	0,041	0,212
-457,270	268,504	-0,087	0,112
-456,255	-124,614	0,130	0,015
-455,241	8,578	0,053	-0,029
-454,226	800,000	-0,026	-0,056
-453,211	668,212	-0,030	0,056
-452,197	-200,000	-0,020	0,063
-451,182	360,183	0,049	0,072
-450,168	-200,000	-0,001	-0,014
-449,153	-200,000	0,015	-0,081
-448,138	-111,284	0,094	0,014
-447,124	-63,307	-0,056	0,017
-446,109	799,029	-0,035	0,072
-445,095	800,000	-0,032	0,084
-444,080	800,000	0,037	0,100
-443,065	-127,813	0,105	-0,011
-442,051	67,802	-0,026	0,019
-441,036	800,000	0,074	0,166
-440,022	-34,279	0,104	0,041
-439,007	191,274	0,045	0,050
-437,992	-200,000	-0,004	0,098
-436,978	-72,217	-0,015	-0,004
-435,963	-200,000	-0,013	-0,091
-434,949	-106,879	-0,052	0,008
-433,934	-200,000	-0,007	-0,137
-432,919	-183,582	-0,145	0,002
-431,905	227,439	-0,063	-0,075
-430,890	170,111	0,031	-0,032
-429,876	251,350	0,064	0,079
-428,861	548,028	-0,067	0,118
-427,846	800,000	-0,064	0,142
-426,832	331,474	-0,052	0,073
-425,817	15,133	0,090	0,051
-424,803	163,831	0,082	0,084
-423,788	-17,641	-0,097	-0,044
-422,773	800,000	0,060	0,127
-421,759	-200,000	0,035	0,114
-420,744	53,385	0,121	0,085
-419,730	5,742	0,072	0,039
-418,715	800,000	-0,017	-0,038
-417,701	-102,304	0,092	0,016
-416,686	3,021	0,097	-0,051
-415,671	-175,150	-0,022	-0,000
-414,657	-53,873	-0,117	-0,039
-413,642	-148,635	0,224	-0,013
-412,628	800,000	0,042	0,097
-411,613	-83,673	-0,059	0,014
-410,598	-200,000	0,028	0,150
-409,584	8,936	0,068	0,037
-408,569	94,289	0,084	-0,070
-407,555	-100,537	0,081	-0,014
-406,540	435,483	0,015	-0,023
-405,525	-7,454	-0,050	0,024
-404,511	-200,000	-0,017	-0,061
-403,496	763,575	0,028	0,055
-402,482	374,279	0,072	0,108
-401,467	151,576	0,059	-0,059
-400,452	-200,000	0,011	-0,051
-399,438	-100,257	0,061	0,011
-398,423	-200,000	-0,001	-0,050
-397,409	48,511	-0,055	0,038
-396,394	28,733	0,114	-0,070
-395,379	47,549	0,071	-0,048
-394,365	38,251	-0,146	0,095
-393,350	-200,000	0,007	0,069
-392,336	800,000	0,048	0,128
-391,321	-154,304	0,119	-0,006
-390,306	232,646	-0,093	-0,111
-389,292	120,904	0,023	0,021
-388,277	76,258	0,178	-0,137
-387,263	501,483	0,088	0,149
-386,248	-200,000	0,007	0,102
-385,233	7,051	-0,060	0,033
-384,219	-200,000	0,018	-0,102
-383,204	46,188	-0,114	0,076
-382,190	75,092	0,056	0,043
-381,175	-164,689	0,077	-0,002
-380,160	256,702	0,066	-0,082
-379,146	-200,000	-0,021	0,097
-378,131	173,689	0,140	0,148
-377,117	-200,000	-0,023	0,171
-376,102	168,529	0,076	0,079
-375,088	-200,000	-0,003	0,042
-374,073	-25,861	0,088	0,038
-373,058	-85,280	0,022	0,005
-372,044	238,067	-0,042	0,051
-371,029	-200,000	-0,013	0,120
-370,015	-200,000	0,007	0,106
-369,000	-138,972	-0,024	-0,002
-367,985	-52,357	-0,155	0,052
-366,971	40,575	-0,075	-0,049
-365,956	800,000	0,023	0,049
-364,942	8,420	0,073	0,040
-363,927	178,138	0,098	0,104
-362,912	-123,526	-0,059	-0,007
-361,898	-27,774	0,145	-0,061
-360,883	175,604	-0,053	-0,056
-359,869	275,239	-0,045	0,058
-358,854	33,251	-0,021	0,013
-357,839	14,212	0,105	-0,059
-356,825	346,321	0,070	0,100
-355,810	-41,821	0,062	0,023
-354,796	-61,721	-0,117	-0,035
-353,781	324,984	0,089	-0,124
-352,766	-200,000	-0,015	-0,099
-351,752	-77,789	-0,014	0,004
-350,737	39,753	-0,109	0,071
-349,723	800,000	-0,045	-0,100
-348,708	-200,000	0,007	0,029
-347,693	-90,824	0,054	-0,011
-346,679	-29,774	-0,077	-0,032
-345,664	147,874	0,095	-0,093
-344,650	-49,030	-0,020	0,007
-343,635	-37,387	0,112	-0,043
-342,620	-200,000	0,001	0,061
-341,606	-200,000	-0,004	0,022
-340,591	14,290	-0,133	-0,075
-339,577	444,986	0,043	-0,069
-338,562	-163,564	-0,087	-0,003
-337,548	129,508	-0,064	0,060
-336,533	653,349	-0,027	0,050
-335,518	54,094	-0,051	-0,035
-334,504	-31,701	0,115	0,047
-333,489	-200,000	0,030	0,136
-332,475	-200,000	0,011	-0,064
-331,460	61,783	-0,045	0,033
-330,445	-104,898	-0,067	-0,011
-329,431	-73,260	0,069	0,018
-328,416	14,282	0,084	0,047
-327,402	-76,535	-0,081	-0,020
-326,387	-33,426	-0,108	-0,043
-325,372	-200,000	-0,013	-0,107
-324,358	-200,000	-0,013	0,066
-323,343	228,872	-0,085	-0,100
-322,329	-65,608	0,113	0,033
-321,314	800,000	0,027	-0,062
-320,299	129,921	-0,032	-0,029
-319,285	-200,000	0,002	-0,071
-318,270	-129,419	-0,053	0,005
-317,256	-200,000	-0,013	-0,119
-316,241	440,848	-0,087	-0,138
-315,226	628,955	-0,031	0,058
-314,212	-4,813	-0,124	0,062
-313,197	161,502	0,070	0,071
-312,183	-200,000	-0,017	-0,167
-311,168	-32,449	-0,126	-0,051
-310,153	319,142	-0,043	-0,059
-309,139	-170,716	-0,170	-0,004
-308,124	-124,199	-0,086	-0,010
-307,110	79,575	-0,161	-0,125
-306,095	800,000	0,030	0,096
-305,080	-60,458	0,091	-0,028
-304,066	-15,022	-0,151	0,070
-303,051	-36,043	-0,051	-0,020
-302,037	800,000	0,027	-0,063
-301,022	573,395	-0,020	-0,035
-300,008	158,985	0,083	0,083
-298,993	7,592	0,059	0,032
-297,978	-61,167	0,128	-0,039
-296,964	195,885	-0,111	0,122
-295,949	-125,640	0,104	0,011
-294,935	-60,000	-0,160	-0,049
-293,920	247,417	0,073	0,089
-292,905	-103,457	0,145	-0,025
-291,891	-200,000	0,006	-0,022
-290,876	-103,553	0,149	-0,025
-289,862	-91,618	-0,169	-0,035
-288,847	-153,827	0,176	-0,009
-287,832	178,417	-0,067	-0,071
-286,818	395,605	-0,053	-0,081
-285,803	116,167	0,041	0,036
-284,789	-200,000	0,008	-0,102
-283,774	-99,590	0,055	-0,010
-282,759	-200,000	-0,020	-0,085
-281,745	343,768	-0,036	-0,052
-280,730	-200,000	-0,025	-0,119
-279,716	68,018	0,117	-0,087
-278,701	35,099	0,143	0,091
-277,686	-77,724	0,189	-0,047
-276,672	-200,000	0,008	0,029
-275,657	259,523	-0,051	0,064
-274,643	82,168	-0,049	-0,039
-273,628	694,010	0,066	-0,126
-272,613	-200,000	-0,025	-0,117
-271,599	29,506	0,091	-0,056
-270,584	-8,308	-0,022	-0,011
-269,570	-200,000	-0,013	0,098
-268,555	96,724	-0,008	0,007
-267,540	800,000	0,053	-0,134
-266,526	51,490	0,063	-0,043
-265,511	513,172	-0,041	-0,069
-264,497	-200,000	0,032	-0,106
-263,482	-200,000	-0,007	0,035
-262,467	-135,552	0,098	0,008
-261,453	-200,000	0,007	-0,051
-260,438	-200,000	-0,010	0,091
-259,424	-68,416	-0,098	0,027
-258,409	462,212	0,020	-0,033
-257,395	800,000	-0,016	-0,044
-256,380	-200,000	0,029	0,147
-255,365	118,806	-0,089	0,080
-254,351	15,716	0,063	-0,036
-253,336	-195,434	-0,102	0,001
-252,322	-82,633	-0,093	0,022
-251,307	-153,433	0,129	0,006
-250,292	271,958	-0,017	-0,022
-249,278	546,909	0,028	0,048
-248,263	-154,573	-0,142	0,007
-247,249	29,468	-0,071	-0,043
-246,234	190,288	0,020	0,022
-245,219	178,360	0,050	-0,053
-244,205	-200,000	0,004	-0,064
-243,190	101,362	0,026	0,022
-242,176	24,097	0,058	-0,034
-241,161	-37,225	0,066	0,026
-240,146	143,587	0,047	-0,045
-239,132	646,914	0,069	-0,128
-238,117	-137,742	0,068	-0,005
-237,103	-200,000	-0,017	-0,075
-236,088	-200,000	0,006	0,018
-235,073	-18,173	-0,053	0,024
-234,059	35,675	-0,059	0,037
-233,044	-200,000	-0,001	-0,025
-232,030	-200,000	-0,011	0,110
-231,015	17,039	0,089	-0,051
-230,000	328,014	-0,083	0,115
-228,986	-200,000	0,020	0,098
-227,971	36,351	0,117	0,074
-226,957	-153,144	-0,067	-0,003
-225,942	453,437	0,018	0,028
-224,927	-200,000	-0,007	-0,033
-223,913	-83,366	-0,233	-0,054
-222,898	-200,000	-0,035	-0,137
-221,884	-35,109	-0,099	0,039
-220,869	71,255	-0,005	-0,004
-219,855	-200,000	0,009	0,127
-218,840	-200,000	0,011	0,069
-217,825	-59,716	0,072	0,022
-216,811	6,651	-0,098	-0,052
-215,796	-3,481	-0,193	0,097
-214,782	-120,207	-0,067	0,008
-213,767	712,893	-0,007	0,013
-212,752	800,000	0,022	0,057
-211,738	-183,610	-0,021	0,000
-210,723	47,776	-0,170	0,114
-209,709	-200,000	0,003	-0,096
-208,694	24,480	-0,018	-0,011
-207,679	-80,366	0,038	-0,009
-206,665	63,229	-0,069	0,050
-205,650	-103,882	0,241	0,040
-204,636	800,000	-0,018	0,040
-203,621	-10,974	0,057	0,027
-202,606	-200,000	-0,004	-0,104
-201,592	-116,457	-0,091	-0,012
-200,577	-37,880	-0,014	-0,005
-199,563	41,330	0,070	-0,046
-198,548	-157,066	-0,050	0,002
-197,533	36,953	-0,102	0,065
-196,519	-46,082	0,100	0,036
-195,504	3,286	-0,091	0,048
-194,490	800,000	0,035	0,109
-193,475	139,275	-0,030	0,028
-192,460	93,813	-0,044	0,036
-191,446	307,288	0,022	-0,030
-190,431	114,696	0,073	0,065
-189,417	-107,226	-0,096	0,015
-188,402	-200,000	-0,018	0,073
-187,387	-200,000	0,008	-0,053
-186,373	227,140	-0,076	0,090
-185,358	395,196	0,015	0,022
-184,344	132,420	0,085	0,079
-183,329	-126,275	0,134	0,014
-182,315	460,103	0,063	0,102
-181,300	-97,876	-0,102	0,019
-180,285	14,169	0,048	0,027
-179,271	-120,180	-0,081	-0,010
-178,256	-200,000	0,003	-0,077
-177,242	197,952	-0,053	0,059
-176,227	113,670	0,044	0,039
-175,212	-63,542	-0,080	0,024
-174,198	-200,000	-0,016	-0,073
-173,183	126,471	-0,156	-0,142
-172,169	30,157	-0,190	-0,117
-171,154	-141,047	-0,130	-0,009
-170,139	96,227	-0,031	0,026
-169,125	66,806	0,075	0,055
-168,110	79,844	0,106	0,082
-167,096	-67,854	-0,065	-0,018
-166,081	569,071	-0,030	-0,053
-165,066	200,841	0,075	0,084
-164,052	51,913	-0,058	0,040
-163,037	800,000	-0,036	-0,104
-162,023	-7,928	0,065	-0,031
-161,008	-99,321	-0,048	-0,009
-159,993	119,325	0,039	-0,035
-158,979	-44,803	-0,118	0,042
-157,964	-65,125	0,128	-0,037
-156,950	426,383	-0,034	-0,053
-155,935	177,053	-0,024	0,025
-154,920	156,591	-0,150	0,149
-153,906	-25,085	0,128	0,055
-152,891	-16,782	-0,069	0,031
-151,877	196,572	-0,067	0,074
-150,862	377,943	-0,055	0,081
-149,847	-138,260	-0,045	-0,004
-148,833	15,853	0,148	-0,084
-147,818	-40,474	-0,122	0,045
-146,804	-200,000	-0,013	0,095
-145,789	800,000	0,049	-0,125
-144,775	-200,000	0,001	0,046
-143,760	449,815	0,019	-0,030
-142,745	97,223	-0,050	-0,041
-141,731	-138,903	0,132	-0,010
-140,716	-200,000	-0,029	0,171
-139,702	148,377	-0,119	0,116
-138,687	-200,000	-0,013	0,129
-137,672	91,630	0,037	-0,030
-136,658	113,331	0,058	-0,051
-135,643	-131,742	0,152	-0,014
-134,629	-36,179	-0,005	-0,002
-133,614	157,995	0,071	0,070
-132,599	-25,081	-0,180	-0,077
-131,585	800,000	-0,040	0,083
-130,570	96,024	-0,025	-0,021
-129,556	-200,000	-0,026	-0,098
-128,541	-200,000	-0,007	-0,028
-127,526	45,450	0,112	0,074
-126,512	267,528	-0,042	-0,054
-125,497	-200,000	0,012	0,044
-124,483	124,619	0,068	-0,061
-123,468	-200,000	-0,001	0,127
-122,453	-71,484	-0,087	0,023
-121,439	800,000	0,032	-0,074
-120,424	800,000	-0,026	-0,054
-119,410	-200,000	0,036	-0,138
-118,395	-132,362	0,149	-0,014
-117,380	-200,000	-0,002	0,011
-116,366	198,632	0,062	-0,069
-115,351	800,000	-0,039	-0,111
-114,337	-200,000	0,042	0,146
-113,322	800,000	-0,023	0,046
-112,307	-200,000	-0,011	-0,150
-111,293	-57,059	0,039	0,012
-110,278	-200,000	-0,005	-0,056
-109,264	383,657	-0,039	0,058
-108,249	163,220	-0,099	-0,101
-107,234	-2,593	0,217	-0,109
-106,220	121,939	-0,077	-0,069
-105,205	283,113	-0,043	0,056
-104,191	124,840	0,041	0,037
-103,176	149,940	-0,023	0,022
-102,162	-200,000	0,013	0,104
-101,147	-200,000	-0,004	-0,058
-100,132	263,150	-0,102	-0,127
-99,118	800,000	-0,022	-0,061
-98,103	25,409	0,083	0,050
-97,089	-200,000	-0,001	0,044
-96,074	-109,368	0,002	0,000
-95,059	10,691	0,069	0,038
-94,045	-200,000	0,035	-0,142
-93,030	-23,191	-0,040	0,017
-92,016	-13,296	-0,095	0,044
-91,001	222,616	0,069	-0,080
-89,986	169,963	-0,002	-0,002
-88,972	800,000	-0,070	0,158
-87,957	17,326	0,072	-0,041
-86,943	-200,000	0,002	-0,064
-85,928	800,000	0,035	-0,080
-84,913	-200,000	0,020	-0,210
-83,899	163,886	-0,027	0,028
-82,884	-22,003	0,088	-0,038
-81,870	-141,937	-0,101	0,007
-80,855	234,940	0,035	0,042
-79,840	-200,000	-0,004	0,091
-78,826	375,900	-0,055	-0,081
-77,811	121,624	-0,134	-0,120
-76,797	89,128	-0,070	0,056
-75,782	-200,000	-0,025	0,101
-74,767	591,663	0,041	0,074
-73,753	23,653	-0,028	-0,016
-72,738	51,191	-0,130	0,088
-71,724	596,564	0,030	0,053
-70,709	200,294	-0,105	0,116
-69,694	-112,518	-0,125	-0,018
-68,680	-39,675	0,050	0,019
-67,665	76,045	0,071	0,054
-66,651	-116,496	-0,078	0,010
-65,636	-195,257	-0,070	0,000
-64,622	475,847	-0,060	-0,098
-63,607	460,035	-0,034	0,055
-62,592	72,501	0,059	-0,044
-61,578	225,128	0,116	-0,135
-60,563	-200,000	0,002	-0,080
-59,549	-45,669	-0,090	0,032
-58,534	97,258	-2,512	-2,071
-57,519	114,639	0,388	-0,340
-56,505	-200,000	-1,623	-5,439
-55,490	524,451	1,079	1,830
-54,476	800,000	5,344	11,497
-53,461	-200,000	21,851	343,332
-52,446	800,000	761,104	2308,559
-51,432	517,770	1653,152	2789,182
-50,417	103,915	1618,206	1365,619
-49,403	73,571	1273,817	957,341
-48,388	25,372	1022,157	608,843
-47,373	19,219	988,410	568,360
-46,359	13,440	975,825	542,111
-45,344	9,383	972,341	526,810
-44,330	9,861	970,131	527,164
-43,315	8,796	968,341	522,676
-42,300	8,780	967,165	521,970
-41,286	8,794	966,148	521,444
-40,271	8,769	965,379	520,928
-39,257	8,687	964,391	520,106
-38,242	8,747	963,353	519,722
-37,227	8,705	962,639	519,177
-36,213	8,653	961,920	518,598
-35,198	8,730	960,886	518,271
-34,184	8,788	960,276	518,113
-33,169	8,730	959,162	517,302
-32,154	8,725	958,394	516,852
-31,140	8,760	957,467	516,445
-30,125	8,801	956,665	516,124
-29,111	8,761	955,829	515,521
-28,096	8,753	955,330	515,207
-27,082	8,770	954,485	514,786
-26,067	8,744	953,832	514,330
-25,052	8,714	953,047	513,788
-24,038	8,693	952,348	513,324
-23,023	8,651	951,724	512,833
-22,009	8,696	951,140	512,641
-20,994	8,719	950,626	512,418
-19,979	8,715	950,146	512,125
-18,965	8,719	949,124	511,568
-17,950	8,670	948,943	511,294
-16,936	8,667	948,139	510,831
-15,921	8,731	947,426	510,631
-14,906	8,632	946,619	509,858
-13,892	8,629	945,967	509,477
-12,877	8,613	945,298	509,045
-11,863	8,587	944,736	508,641
-10,848	8,608	944,112	508,349
-9,833	8,683	943,709	508,351
-8,819	8,670	942,984	507,899
-7,804	8,579	942,372	507,261
-6,790	8,592	941,835	506,991
-5,775	8,695	941,285	507,006
-4,760	8,638	940,484	506,373
-3,746	8,670	939,781	506,075
-2,731	8,468	939,250	505,125
-1,717	8,481	938,492	504,741
-0,702	8,465	937,965	504,387
0,313	8,251	937,322	504,122
1,327	11,623	935,232	513,629
2,342	20,403	783,492	453,415
3,356	15,514	450,397	253,228
4,371	-10,769	313,390	148,160
5,386	-14,616	295,693	135,878
6,400	-16,748	289,699	130,993
7,415	-16,680	287,084	129,865
8,429	-17,382	285,248	128,336
9,444	-17,480	284,213	127,764
10,459	-17,326	283,632	127,640
11,473	-17,491	283,082	127,221
12,488	-17,391	282,650	127,113
13,502	-17,320	281,905	126,835
14,517	-17,224	281,542	126,753
15,531	-17,318	281,206	126,500
16,546	-17,255	280,904	126,413
17,561	-17,233	280,486	126,236
18,575	-17,270	280,099	126,014
19,590	-17,165	279,683	125,917
20,604	-17,244	279,490	125,743
21,619	-17,517	279,266	125,370
22,634	-17,270	278,779	125,376
23,648	-17,384	278,579	125,166
24,663	-17,145	278,163	125,196
25,677	-17,478	277,964	124,778
26,692	-17,228	277,703	124,887
27,707	-17,066	277,401	124,895
28,721	-17,303	277,170	124,555
29,736	-17,229	276,806	124,450
30,750	-17,261	276,423	124,237
31,765	-17,327	276,370	124,139
32,780	-17,245	276,198	124,128
33,794	-17,233	275,854	123,974
34,809	-17,117	275,668	123,989
35,823	-17,306	275,382	123,671
36,838	-17,145	275,039	123,657
37,853	-17,302	274,883	123,428
38,867	-17,174	274,577	123,400
39,882	-17,169	274,203	123,226
40,896	-17,335	274,253	123,082
41,911	-17,075	273,840	123,129
42,926	-17,095	273,562	122,974
43,940	-17,160	273,363	122,813
44,955	-17,194	273,061	122,634
45,969	-17,307	272,904	122,448
46,984	-17,132	272,681	122,500
47,999	-17,139	272,480	122,392
49,013	-17,138	272,273	122,289
50,028	-17,159	272,119	122,189
51,042	-17,288	271,785	121,909
52,057	-17,106	271,571	121,971
53,071	-17,220	271,582	121,859
54,086	-17,032	270,919	121,726
55,101	-17,176	270,958	121,598
56,115	-17,113	270,719	121,539
57,130	-17,151	270,482	121,386
58,144	-17,317	270,243	121,115
59,159	-17,387	269,881	120,877
60,174	-17,217	269,541	120,871
61,188	-17,346	269,545	120,743
62,203	-17,242	269,292	120,715
63,217	-17,219	268,955	120,573
64,232	-17,175	268,733	120,504
65,247	-17,212	268,704	120,446
66,261	-17,415	268,353	120,092
67,276	-17,197	268,040	120,141
68,290	-17,094	267,834	120,132
69,305	-17,176	267,666	119,971
70,320	-17,083	267,468	119,956
71,334	-17,262	267,328	119,720
72,349	-17,394	267,085	119,480
73,363	-17,234	266,868	119,518
74,378	-17,237	266,466	119,324
75,393	-17,146	266,380	119,358
76,407	-17,211	266,033	119,133
77,422	-17,107	265,869	119,143
78,436	-17,200	265,617	118,935
79,451	-17,235	265,294	118,748
80,466	-17,083	265,052	118,767
81,480	-17,173	264,973	118,639
82,495	-17,145	264,756	118,556
83,509	-17,154	264,645	118,489
84,524	-17,304	264,314	118,195
85,539	-17,191	264,097	118,189
86,553	-17,185	263,899	118,095
87,568	-17,191	263,740	118,008
88,582	-17,166	263,468	117,898
89,597	-17,165	263,310	117,817
90,611	-17,200	263,233	117,742
91,626	-17,016	262,907	117,750
92,641	-17,265	262,920	117,522
93,655	-17,374	262,536	117,243
94,670	-17,167	262,254	117,292
95,684	-17,024	262,054	117,320
96,699	-17,243	261,839	117,017
97,714	-17,100	261,600	117,027
98,728	-17,103	261,509	116,973
99,743	-16,981	261,279	116,969
100,757	-17,071	260,924	116,719
101,772	-17,187	260,947	116,616
102,787	-17,310	260,520	116,305
103,801	-17,452	260,530	116,174
104,816	-17,219	260,243	116,242
105,830	-17,045	259,855	116,212
106,845	-17,183	259,897	116,099
107,860	-17,079	259,565	116,031
108,874	-17,152	259,357	115,864
109,889	-17,254	259,202	115,694
110,903	-17,196	258,983	115,637
111,918	-17,208	258,796	115,533
112,933	-17,113	258,416	115,436
113,947	-17,053	258,329	115,441
114,962	-17,093	258,115	115,299
115,976	-17,272	258,009	115,084
116,991	-17,306	257,839	114,968
118,006	-17,014	257,622	115,117
119,020	-17,205	257,528	114,898
120,035	-17,203	257,400	114,833
121,049	-17,212	256,925	114,602
122,064	-17,004	256,883	114,755
123,079	-17,013	256,648	114,632
124,093	-17,170	256,463	114,402
125,108	-17,150	256,388	114,376
126,122	-17,178	256,081	114,205
127,137	-17,004	255,811	114,225
128,151	-16,901	255,636	114,226
129,166	-17,007	255,451	114,041
130,181	-17,103	255,229	113,848
131,195	-17,074	255,100	113,806
132,210	-17,227	254,725	113,497
133,224	-16,990	254,580	113,627
134,239	-16,980	254,440	113,563
135,254	-17,020	254,293	113,453
136,268	-17,142	254,111	113,256
137,283	-16,958	253,843	113,285
138,297	-17,142	253,711	113,057
139,312	-16,846	253,282	113,110
140,327	-16,924	253,198	112,996
141,341	-17,008	253,056	112,850
142,356	-17,214	252,944	112,614
143,370	-17,190	252,744	112,535
144,385	-17,167	252,593	112,478
145,400	-17,163	252,406	112,388
146,414	-17,177	252,060	112,211
147,429	-17,061	251,920	112,239
148,443	-17,048	251,763	112,169
149,458	-16,892	251,454	112,155
150,473	-16,948	251,252	112,007
151,487	-17,233	251,107	111,690
152,502	-17,062	250,927	111,745
153,516	-17,139	250,679	111,559
154,531	-17,248	250,636	111,438
155,546	-16,879	250,441	111,654
156,560	-16,850	250,184	111,554
157,575	-17,092	250,100	111,302
158,589	-16,936	249,680	111,237
159,604	-17,019	249,630	111,135
160,619	-16,926	249,541	111,164
161,633	-17,072	249,455	110,992
162,648	-17,100	249,146	110,821
163,662	-17,043	248,938	110,766
164,677	-16,985	248,878	110,779
165,692	-16,994	248,523	110,603
166,706	-16,884	248,464	110,660
167,721	-16,980	248,281	110,488
168,735	-17,003	248,176	110,412
169,750	-17,061	247,907	110,234
170,764	-16,995	247,869	110,262
171,779	-16,930	247,636	110,203
172,794	-17,163	247,600	109,982
173,808	-17,184	247,350	109,844
174,823	-16,955	247,104	109,916
175,837	-17,081	247,033	109,770
176,852	-16,999	246,669	109,666
177,867	-17,071	246,653	109,590
178,881	-17,163	246,469	109,421
179,896	-17,089	246,260	109,381
180,910	-16,926	246,040	109,409
181,925	-17,046	245,748	109,169
182,940	-17,009	245,616	109,132
183,954	-17,114	245,458	108,964
184,969	-17,071	245,485	109,002
185,983	-17,015	245,271	108,944
186,998	-17,018	244,969	108,798
188,013	-16,962	244,888	108,799
189,027	-16,928	244,644	108,709
190,042	-17,010	244,411	108,527
191,056	-16,983	244,232	108,461
192,071	-17,080	244,156	108,337
193,086	-17,040	243,874	108,235
194,100	-16,939	243,655	108,212
195,115	-16,886	243,422	108,142
196,129	-17,068	243,368	107,959
197,144	-16,921	243,180	107,987
198,159	-17,189	243,060	107,704
199,173	-17,075	242,844	107,692
200,188	-17,095	242,618	107,566
201,202	-17,069	242,471	107,512
202,217	-16,886	242,188	107,527
203,232	-16,805	242,156	107,569
204,246	-16,927	241,831	107,316
205,261	-17,040	241,561	107,095
206,275	-15,985	242,005	108,143
207,290	-11,155	243,760	112,886
208,304	-4,942	245,872	118,991
209,319	-1,900	246,445	121,773
210,334	-0,920	246,699	122,698
211,348	-0,091	246,939	123,492
212,363	0,616	246,922	124,057
213,377	0,856	246,968	124,267
214,392	1,193	246,984	124,542
215,407	1,565	246,854	124,773
216,421	1,630	246,734	124,755
217,436	1,568	246,546	124,598
218,450	1,847	246,235	124,659
219,465	1,689	246,170	124,485
220,480	1,782	245,948	124,438
221,494	1,491	245,807	124,116
222,509	0,992	245,544	123,563
223,523	0,890	245,208	123,299
224,538	0,810	245,050	123,143
225,553	0,637	245,025	122,978
226,567	0,853	244,584	122,922
227,582	0,763	244,542	122,817
228,596	0,639	244,460	122,663
229,611	0,633	244,307	122,571
230,626	0,755	244,138	122,575
231,640	0,542	243,963	122,302
232,655	0,605	243,800	122,260
233,669	0,769	243,639	122,302
234,684	0,660	243,407	122,086
235,699	0,612	243,507	122,087
236,713	0,764	243,221	122,056
237,728	0,905	242,974	122,035
238,742	0,924	242,675	121,890
239,757	0,853	242,649	121,809
240,772	0,737	242,422	121,590
241,786	0,775	242,278	121,537
242,801	0,569	242,192	121,317
243,815	0,573	242,036	121,231
244,830	0,663	241,864	121,207
245,844	0,706	241,613	121,105
246,859	0,515	241,525	120,896
247,874	0,604	241,421	120,905
248,888	0,817	241,302	121,006
249,903	0,748	241,117	120,847
250,917	0,877	240,865	120,814
251,932	0,859	240,732	120,721
252,947	0,831	240,671	120,658
253,961	0,814	240,444	120,519
254,976	0,646	240,255	120,280
255,990	0,738	240,159	120,294
257,005	0,614	239,927	120,069
258,020	0,765	239,993	120,211
259,034	0,964	239,642	120,184
260,049	0,946	239,362	120,019
261,063	0,482	239,544	119,729
262,078	0,691	239,233	119,729
263,093	0,738	238,977	119,628
264,107	0,881	238,923	119,704
265,122	0,684	238,747	119,448
266,136	1,004	238,427	119,531
267,151	0,841	238,355	119,356
268,166	0,885	238,203	119,304
269,180	0,723	238,066	119,096
270,195	0,909	237,928	119,163
271,209	0,962	237,791	119,126
272,224	0,709	237,560	118,800
273,239	0,669	237,562	118,758
274,253	0,731	237,541	118,786
275,268	0,849	237,054	118,626
276,282	0,684	237,058	118,487
277,297	0,692	236,923	118,415
278,312	0,839	236,564	118,341
279,326	0,782	236,602	118,304
280,341	0,710	236,464	118,169
281,355	0,792	236,278	118,129
282,370	0,692	236,091	117,946
283,384	0,723	235,971	117,900
284,399	0,665	235,761	117,740
285,414	0,643	235,722	117,693
286,428	0,865	235,472	117,731
287,443	0,776	235,443	117,637
288,457	0,815	235,195	117,532
289,472	0,843	235,072	117,482
290,487	0,863	234,765	117,334
291,501	0,697	234,783	117,203
292,516	0,959	234,528	117,269
293,530	0,781	234,420	117,067
294,545	0,997	234,248	117,138
295,560	0,906	234,253	117,059
296,574	0,950	234,080	116,996
297,589	0,893	233,777	116,790
298,603	0,863	233,728	116,732
299,618	1,091	233,618	116,844
300,633	0,968	233,415	116,637
301,647	0,964	233,304	116,568
302,662	0,971	233,160	116,491
303,676	0,958	232,999	116,390
304,691	0,964	232,848	116,309
305,706	1,006	232,818	116,316
306,720	1,061	232,570	116,224
307,735	1,020	232,427	116,110
308,749	1,018	232,245	116,007
309,764	1,005	232,000	115,865
310,779	1,031	232,060	115,904
311,793	1,107	231,612	115,729
312,808	0,740	231,715	115,488
313,822	0,982	231,431	115,522
314,837	0,802	231,451	115,383
315,852	0,922	231,265	115,372
316,866	1,186	230,888	115,376
317,881	1,165	230,899	115,355
318,895	1,162	230,720	115,254
319,910	1,181	230,590	115,192
320,925	0,841	230,534	114,894
321,939	1,121	230,312	114,987
322,954	1,052	230,210	114,873
323,968	0,839	230,112	114,652
324,983	1,049	229,898	114,695
325,997	1,002	229,639	114,520
327,012	1,112	229,582	114,565
328,027	1,018	229,412	114,399
329,041	1,041	229,264	114,332
330,056	0,864	229,106	114,109
331,070	1,079	229,127	114,271
332,085	0,922	228,917	114,038
333,100	1,138	228,582	114,024
334,114	0,840	228,486	113,741
335,129	1,089	228,388	113,870
336,143	0,986	228,256	113,716
337,158	0,932	228,225	113,650
338,173	1,103	227,985	113,650
339,187	1,218	227,790	113,629
340,202	1,048	227,648	113,420
341,216	1,167	227,661	113,506
342,231	1,170	227,323	113,330
343,246	1,172	227,347	113,333
344,260	1,214	227,164	113,263
345,275	1,224	226,899	113,128
346,289	1,231	226,883	113,115
347,304	1,466	226,505	113,092
348,319	1,301	226,473	112,943
349,333	1,170	226,438	112,818
350,348	1,041	226,085	112,536
351,362	1,135	226,073	112,589
352,377	1,249	226,016	112,636
353,392	1,123	225,855	112,452
354,406	1,118	225,766	112,394
355,421	191,990	1311,746	1378,036
356,435	153,791	1443,927	1377,895
