DTS Sentinel unit serial number:	SN410029Multiplexer serial number:	ORYXHardware model number:	OX2-SRSoftware version number:	ORYX F/W v4,00 Oryx Data Collector v3.7.2.0data status	okinstallation	B5 Nyhavnadifferential loss correction	single-endedforward channel	channel 2reverse channel	N/Adate	2023/12/12time	02:37:13forward acquisition time	300,00reverse acquisition time	0,00gamma	499,1914k internal	0,3156k external	0,3156temperature offset calibration	1,0000default loss term (dB/km)	0,3820temperature slope calibration	1,0000multiplexer offset coefficient	1,0000multiplexer slope coefficient	1,0000fibre end	0,00T internal ref (°C)	15,75T ext. ref 1 (°C)	-0,60T ext. ref 2 (°C)	-0,84length (m)	temperature (°C)	Stokes	anti-Stokes-744,400	-17,237	0,138	0,064
-743,385	-89,729	-0,423	0,091
-742,371	800,000	0,088	0,206
-741,356	-125,638	-0,293	0,032
-740,342	-162,478	0,221	-0,008
-739,327	-35,629	-0,332	0,132
-738,312	-200,000	0,016	0,106
-737,298	-70,670	-0,325	0,090
-736,283	415,639	0,033	0,052
-735,269	-152,316	-0,167	0,009
-734,254	-200,000	-0,004	0,063
-733,239	-86,470	-0,292	0,066
-732,225	-115,400	0,299	-0,041
-731,210	145,694	-0,031	-0,031
-730,196	-200,000	-0,031	-0,190
-729,181	-17,252	-0,073	0,034
-728,167	800,000	-0,040	-0,108
-727,152	-200,000	-0,002	-0,009
-726,137	800,000	0,040	-0,083
-725,123	-200,000	-0,023	-0,094
-724,108	-33,480	-0,077	-0,031
-723,094	800,000	-0,006	0,014
-722,079	800,000	-0,070	-0,188
-721,064	800,000	0,047	-0,099
-720,050	-27,948	-0,078	-0,033
-719,035	65,370	-0,103	0,077
-718,021	-200,000	0,010	-0,122
-717,006	-200,000	0,028	-0,138
-715,991	780,960	-0,025	-0,050
-714,977	-97,167	-0,238	-0,045
-713,962	-137,255	-0,066	-0,005
-712,948	800,000	0,019	-0,044
-711,933	16,497	-0,039	0,022
-710,918	800,000	0,020	-0,041
-709,904	-200,000	-0,002	0,043
-708,889	800,000	-0,071	-0,164
-707,875	45,777	-0,140	-0,096
-706,860	5,837	-0,088	-0,048
-705,845	-200,000	0,012	-0,120
-704,831	242,165	0,046	-0,057
-703,816	-51,094	-0,097	0,033
-702,802	39,410	-0,071	0,047
-701,787	-101,349	-0,084	-0,015
-700,772	-200,000	0,004	-0,015
-699,758	-68,156	0,085	-0,024
-698,743	-78,318	0,046	0,012
-697,729	-156,087	-0,024	-0,001
-696,714	462,141	-0,027	0,044
-695,699	145,119	-0,047	-0,047
-694,685	368,377	-0,033	-0,050
-693,670	-142,682	-0,074	-0,005
-692,656	800,000	-0,029	0,087
-691,641	-43,896	-0,085	0,031
-690,627	-122,362	0,006	0,001
-689,612	50,460	-0,038	0,026
-688,597	-29,277	-0,134	0,056
-687,583	-200,000	0,034	-0,146
-686,568	40,174	0,069	0,046
-685,554	-81,925	-0,068	0,016
-684,539	-150,878	-0,158	-0,009
-683,524	202,449	-0,090	0,103
-682,510	-103,163	-0,137	-0,024
-681,495	-45,305	-0,051	-0,019
-680,481	358,502	-0,087	0,128
-679,466	106,361	-0,141	-0,123
-678,451	12,234	-0,145	-0,082
-677,437	-168,284	-0,029	-0,001
-676,422	800,000	-0,010	-0,033
-675,408	-200,000	-0,042	0,156
-674,393	-200,000	-0,028	0,120
-673,378	9,697	-0,084	-0,047
-672,364	-200,000	-0,001	-0,105
-671,349	133,989	-0,159	-0,152
-670,335	-200,000	0,006	0,049
-669,320	-200,000	-0,005	-0,125
-668,305	130,627	0,136	0,129
-667,291	-151,232	-0,105	0,006
-666,276	-200,000	0,001	-0,032
-665,262	469,866	0,047	-0,077
-664,247	-89,414	-0,124	-0,027
-663,232	697,148	0,040	0,078
-662,218	740,082	-0,033	-0,065
-661,203	-92,748	0,019	-0,004
-660,189	-34,389	0,185	0,074
-659,174	152,858	-0,037	0,037
-658,159	-172,162	-0,227	0,005
-657,145	-200,000	-0,010	0,122
-656,130	256,268	0,032	0,040
-655,116	53,812	-0,042	-0,030
-654,101	-143,200	-0,083	0,006
-653,086	120,360	0,074	0,067
-652,072	-200,000	-0,012	0,113
-651,057	275,268	-0,098	-0,128
-650,043	267,165	0,018	-0,023
-649,028	800,000	-0,017	-0,042
-648,014	68,082	0,023	-0,017
-646,999	-60,387	-0,058	0,018
-645,984	194,041	-0,026	0,029
-644,970	3,666	-0,031	0,016
-643,955	-99,287	-0,124	0,023
-642,941	-3,490	-0,091	-0,046
-641,926	-144,418	0,059	0,004
-640,911	800,000	-0,020	-0,054
-639,897	-81,726	-0,023	-0,006
-638,882	-168,956	0,123	0,003
-637,868	-93,613	-0,112	-0,022
-636,853	-200,000	0,009	-0,060
-635,838	800,000	-0,009	0,024
-634,824	800,000	0,051	-0,130
-633,809	-22,983	0,135	-0,060
-632,795	222,001	0,037	0,044
-631,780	88,239	-0,058	0,047
-630,765	-200,000	-0,014	0,098
-629,751	-28,318	0,055	0,023
-628,736	713,777	-0,031	-0,061
-627,722	-200,000	0,000	-0,105
-626,707	730,141	0,020	-0,039
-625,692	-86,689	-0,096	-0,021
-624,678	-89,302	0,081	-0,017
-623,663	161,336	-0,057	-0,059
-622,649	800,000	-0,051	-0,126
-621,634	129,163	-0,098	0,092
-620,619	-200,000	0,007	-0,117
-619,605	313,805	-0,099	-0,137
-618,590	-200,000	-0,004	-0,050
-617,576	-200,000	-0,016	-0,127
-616,561	65,585	-0,116	-0,086
-615,546	205,684	-0,059	-0,067
-614,532	-200,000	-0,018	-0,097
-613,517	22,926	0,032	-0,019
-612,503	334,715	-0,046	0,066
-611,488	7,622	0,135	-0,074
-610,474	800,000	-0,006	-0,016
-609,459	800,000	-0,073	-0,157
-608,444	198,147	-0,036	-0,040
-607,430	-105,616	-0,209	-0,034
-606,415	-200,000	0,016	-0,108
-605,401	745,030	-0,054	-0,107
-604,386	800,000	0,060	0,125
-603,371	10,619	0,140	-0,078
-602,357	-0,132	-0,102	0,053
-601,342	-33,189	-0,030	-0,012
-600,328	294,007	0,047	-0,063
-599,313	560,532	0,067	0,119
-598,298	-61,415	-0,064	-0,020
-597,284	-130,761	0,051	-0,005
-596,269	520,447	0,106	0,183
-595,255	-63,233	0,040	-0,012
-594,240	-200,000	-0,034	-0,118
-593,225	346,032	0,045	0,065
-592,211	193,529	-0,050	-0,056
-591,196	800,000	0,012	-0,037
-590,182	800,000	0,077	-0,163
-589,167	39,527	-0,015	-0,010
-588,152	200,750	-0,103	0,116
-587,138	800,000	0,019	0,051
-586,123	-200,000	-0,019	0,073
-585,109	-200,000	0,012	0,059
-584,094	800,000	0,010	-0,029
-583,079	-68,775	0,125	0,035
-582,065	330,399	0,071	0,101
-581,050	584,492	-0,004	0,008
-580,036	240,709	-0,060	0,074
-579,021	-200,000	0,010	0,037
-578,006	-101,255	-0,152	0,027
-576,992	-40,464	-0,086	0,033
-575,977	184,890	0,091	-0,099
-574,963	1,346	-0,019	-0,010
-573,948	73,966	0,049	0,037
-572,934	423,196	0,042	0,067
-571,919	-200,000	0,011	-0,092
-570,904	393,020	-0,038	-0,059
-569,890	342,614	-0,085	-0,122
-568,875	-132,531	0,103	0,010
-567,861	368,937	0,055	0,082
-566,846	-200,000	0,000	0,034
-565,831	-106,324	0,109	0,018
-564,817	-200,000	-0,012	-0,075
-563,802	131,843	-0,078	-0,074
-562,788	-200,000	-0,001	-0,021
-561,773	-126,292	-0,074	0,008
-560,758	-100,270	0,163	-0,029
-559,744	418,033	0,054	0,085
-558,729	340,503	0,095	-0,137
-557,715	-81,037	-0,126	0,030
-556,700	111,296	-0,120	-0,106
-555,685	90,622	-0,119	-0,098
-554,671	-200,000	0,009	0,054
-553,656	231,344	0,037	0,044
-552,642	124,204	-0,011	-0,010
-551,627	-43,827	-0,087	-0,032
-550,612	800,000	0,005	0,011
-549,598	-59,741	0,099	0,031
-548,583	-187,341	-0,048	-0,000
-547,569	800,000	0,020	-0,061
-546,554	-200,000	0,008	-0,153
-545,539	-74,685	0,165	-0,043
-544,525	170,759	0,024	-0,025
-543,510	-189,212	-0,174	0,001
-542,496	-200,000	0,006	-0,079
-541,481	-91,785	-0,089	-0,018
-540,466	451,351	0,052	-0,084
-539,452	795,988	-0,031	0,062
-538,437	67,904	0,106	0,079
-537,423	800,000	0,056	0,114
-536,408	122,372	-0,064	-0,058
-535,393	412,206	0,073	-0,114
-534,379	-23,991	0,043	0,019
-533,364	-64,891	-0,021	0,006
-532,350	176,193	0,062	0,066
-531,335	482,328	0,034	-0,056
-530,321	-194,706	-0,110	0,001
-529,306	-200,000	-0,012	-0,089
-528,291	-3,705	-0,089	0,045
-527,277	-103,173	-0,092	-0,016
-526,262	114,826	0,097	-0,087
-525,248	29,473	0,061	0,038
-524,233	800,000	0,065	0,159
-523,218	-89,560	0,175	0,037
-522,204	529,640	-0,048	0,083
-521,189	174,002	-0,056	-0,059
-520,175	-200,000	0,038	-0,136
-519,160	34,581	-0,035	-0,022
-518,145	209,000	0,120	0,137
-517,131	-200,000	0,017	0,086
-516,116	763,638	0,048	-0,097
-515,102	800,000	-0,054	0,112
-514,087	101,180	0,048	-0,041
-513,072	-124,730	-0,077	0,009
-512,058	-200,000	0,001	-0,065
-511,043	-200,000	-0,025	0,126
-510,029	-102,558	0,093	-0,016
-509,014	-69,272	-0,043	-0,012
-507,999	800,000	-0,038	0,118
-506,985	-0,967	0,041	0,021
-505,970	338,569	-0,039	-0,055
-504,956	-200,000	0,021	-0,072
-503,941	-151,941	0,184	0,010
-502,926	-16,390	0,100	0,046
-501,912	240,096	0,035	0,043
-500,897	161,488	-0,065	0,067
-499,883	50,934	-0,034	-0,024
-498,868	57,680	-0,054	0,039
-497,853	-159,062	-0,055	0,002
-496,839	-200,000	-0,009	0,117
-495,824	-26,878	0,060	0,026
-494,810	394,677	-0,104	-0,158
-493,795	616,424	0,026	0,049
-492,781	40,123	0,018	0,012
-491,766	133,588	0,049	-0,047
-490,751	-200,000	0,001	-0,028
-489,737	0,543	-0,052	0,027
-488,722	800,000	0,021	-0,058
-487,708	-200,000	0,003	-0,071
-486,693	-200,000	0,004	0,014
-485,678	800,000	0,026	0,083
-484,664	800,000	-0,066	-0,137
-483,649	-200,000	-0,012	-0,085
-482,635	800,000	-0,012	-0,032
-481,620	800,000	-0,061	0,133
-480,605	45,615	0,040	-0,027
-479,591	82,006	-0,098	-0,078
-478,576	-47,808	0,058	-0,020
-477,562	-5,412	0,119	0,059
-476,547	-200,000	0,016	-0,070
-475,532	-34,096	0,180	-0,072
-474,518	-200,000	0,001	0,005
-473,503	800,000	0,051	0,148
-472,489	800,000	0,049	0,144
-471,474	-200,000	0,013	0,095
-470,459	-122,493	-0,104	-0,012
-469,445	-200,000	0,004	0,021
-468,430	222,948	0,032	-0,037
-467,416	-200,000	0,007	0,078
-466,401	800,000	-0,060	-0,187
-465,386	-200,000	0,010	0,080
-464,372	-12,353	0,075	-0,036
-463,357	-90,366	-0,058	0,012
-462,343	7,160	0,096	0,052
-461,328	-120,559	-0,060	0,007
-460,313	159,709	0,060	0,061
-459,299	8,036	-0,089	0,049
-458,284	-144,612	0,108	-0,007
-457,270	800,000	0,032	0,101
-456,255	172,857	-0,119	-0,125
-455,241	-119,132	0,043	-0,005
-454,226	-200,000	0,003	-0,013
-453,211	30,860	0,071	-0,044
-452,197	-200,000	-0,024	0,084
-451,182	-200,000	0,027	0,158
-450,168	218,976	0,053	-0,062
-449,153	334,036	0,056	0,079
-448,138	623,647	-0,010	0,018
-447,124	183,590	-0,057	-0,061
-446,109	-200,000	-0,005	0,079
-445,095	-200,000	0,024	0,106
-444,080	-127,768	0,126	-0,013
-443,065	-200,000	0,009	0,041
-442,051	137,564	-0,029	0,027
-441,036	249,765	0,048	-0,060
-440,022	-200,000	-0,008	-0,037
-439,007	-148,333	-0,040	0,002
-437,992	-76,681	-0,081	0,021
-436,978	-200,000	0,002	0,057
-435,963	16,910	0,098	0,057
-434,949	140,933	-0,081	0,078
-433,934	-200,000	0,024	0,114
-432,919	-55,722	0,112	0,036
-431,905	800,000	-0,099	0,202
-430,890	-26,703	-0,021	-0,009
-429,876	-50,368	-0,086	-0,030
-428,861	578,140	0,012	0,022
-427,846	-200,000	-0,018	0,104
-426,832	800,000	-0,031	-0,091
-425,817	703,636	0,010	-0,019
-424,803	-200,000	0,000	-0,026
-423,788	-200,000	0,001	0,067
-422,773	-70,240	0,103	-0,028
-421,759	800,000	-0,010	-0,025
-420,744	-49,539	0,048	0,017
-419,730	-34,525	-0,127	-0,050
-418,715	77,257	-0,076	0,059
-417,701	74,267	0,065	-0,050
-416,686	-200,000	-0,020	-0,068
-415,671	279,555	0,021	0,027
-414,657	-54,315	0,152	0,050
-413,642	800,000	0,002	-0,005
-412,628	-87,265	-0,066	-0,015
-411,613	-5,442	0,105	-0,053
-410,598	800,000	-0,036	0,085
-409,584	-200,000	0,003	-0,034
-408,569	177,893	0,086	0,092
-407,555	-200,000	0,010	0,102
-406,540	184,946	-0,036	0,039
-405,525	-140,800	0,017	0,001
-404,511	69,669	-0,171	0,128
-403,496	-36,430	0,078	0,030
-402,482	-95,181	0,073	-0,014
-401,467	-87,631	-0,071	-0,015
-400,452	-200,000	-0,019	0,100
-399,438	679,273	0,050	0,095
-398,423	-65,340	-0,151	0,044
-397,409	-23,621	-0,144	-0,062
-396,394	104,273	-0,054	-0,046
-395,379	168,305	0,050	-0,051
-394,365	-14,200	0,106	0,050
-393,350	-30,774	0,097	-0,040
-392,336	-29,222	0,050	-0,021
-391,321	118,992	-0,037	0,033
-390,306	441,770	0,049	0,078
-389,292	84,401	0,041	0,033
-388,277	279,234	0,100	-0,130
-387,263	677,328	-0,055	0,104
-386,248	338,505	-0,050	-0,070
-385,233	-89,755	0,096	0,020
-384,219	635,302	0,007	-0,013
-383,204	-130,046	-0,082	0,008
-382,190	-200,000	-0,013	-0,102
-381,175	467,881	-0,020	0,033
-380,160	-200,000	-0,017	-0,068
-379,146	-200,000	-0,007	-0,032
-378,131	49,860	-0,066	0,045
-377,117	800,000	0,041	0,086
-376,102	-165,820	-0,224	0,007
-375,088	72,513	-0,038	0,029
-374,073	-200,000	0,008	0,117
-373,058	-80,895	0,130	0,031
-372,044	800,000	0,024	-0,069
-371,029	-200,000	0,025	0,113
-370,015	-58,533	0,090	-0,028
-369,000	800,000	0,028	0,079
-367,985	800,000	0,020	-0,051
-366,971	575,973	0,003	-0,005
-365,956	-200,000	-0,020	-0,133
-364,942	-200,000	-0,001	0,142
-363,927	800,000	-0,030	0,093
-362,912	800,000	0,017	0,049
-361,898	-200,000	0,034	-0,201
-360,883	-200,000	0,005	0,077
-359,869	-200,000	0,046	0,000
-358,854	-186,120	0,080	0,001
-357,839	-28,552	-0,063	0,026
-356,825	800,000	-0,018	0,039
-355,810	-154,936	0,146	0,007
-354,796	-43,244	-0,106	0,039
-353,781	1,546	-0,091	0,047
-352,766	35,199	0,036	-0,023
-351,752	800,000	-0,032	-0,065
-350,737	-101,319	0,141	-0,025
-349,723	-137,768	-0,165	0,013
-348,708	-200,000	0,018	0,124
-347,693	-200,000	0,025	0,099
-346,679	104,249	0,064	0,054
-345,664	604,232	0,059	-0,108
-344,650	421,257	-0,016	0,025
-343,635	-155,437	0,088	0,004
-342,620	-200,000	0,022	-0,140
-341,606	-180,125	0,077	0,001
-340,591	-136,677	-0,097	0,008
-339,577	217,894	0,083	-0,096
-338,562	800,000	-0,016	-0,040
-337,548	273,906	0,091	0,117
-336,533	-43,546	0,110	0,040
-335,518	-170,277	0,105	-0,003
-334,504	227,474	-0,093	-0,110
-333,489	-22,934	0,141	-0,061
-332,475	337,218	-0,105	-0,148
-331,460	25,240	-0,175	-0,106
-330,445	800,000	0,030	0,061
-329,431	-200,000	-0,007	0,025
-328,416	800,000	0,034	0,078
-327,402	-71,264	0,089	-0,024
-326,387	325,241	-0,064	0,089
-325,372	800,000	0,026	-0,058
-324,358	-97,743	0,038	0,007
-323,343	-200,000	0,015	-0,132
-322,329	-133,531	0,102	0,009
-321,314	-66,949	-0,086	-0,025
-320,299	-200,000	-0,021	0,102
-319,285	-107,908	-0,013	0,002
-318,270	-16,784	0,013	-0,006
-317,256	791,507	0,024	0,049
-316,241	-27,354	-0,161	-0,068
-315,226	-133,048	-0,018	-0,002
-314,212	658,885	0,077	0,144
-313,197	-200,000	-0,020	-0,066
-312,183	632,567	0,066	0,123
-311,168	576,623	-0,078	0,139
-310,153	-200,000	-0,015	-0,057
-309,139	171,065	-0,027	0,028
-308,124	-200,000	0,017	0,109
-307,110	5,765	-0,068	0,036
-306,095	232,401	0,107	0,128
-305,080	608,959	-0,024	0,043
-304,066	305,353	-0,044	-0,059
-303,051	-171,676	0,043	-0,001
-302,037	392,784	0,062	-0,094
-301,022	-87,060	-0,084	0,018
-300,008	-156,463	0,015	-0,001
-298,993	-22,295	-0,142	0,062
-297,978	800,000	-0,031	-0,092
-296,964	14,934	-0,041	0,023
-295,949	-105,457	-0,008	-0,001
-294,935	85,655	-0,034	-0,027
-293,920	800,000	0,026	-0,066
-292,905	43,650	-0,079	-0,053
-291,891	-70,464	0,161	0,044
-290,876	800,000	-0,013	0,031
-289,862	-31,031	-0,057	0,023
-288,847	-200,000	-0,001	-0,044
-287,832	63,583	-0,033	-0,024
-286,818	8,224	-0,073	0,040
-285,803	293,085	-0,058	-0,077
-284,789	13,608	-0,102	0,057
-283,774	-200,000	-0,008	0,084
-282,759	-200,000	0,000	-0,084
-281,745	-200,000	0,036	-0,249
-280,730	-53,317	-0,018	0,006
-279,716	246,748	0,110	-0,135
-278,701	800,000	0,011	-0,035
-277,686	80,544	0,078	-0,061
-276,672	800,000	-0,036	0,085
-275,657	800,000	-0,043	0,121
-274,643	47,576	0,066	-0,045
-273,628	-171,740	-0,161	0,004
-272,613	-200,000	0,023	0,081
-271,599	-200,000	0,010	0,090
-270,584	-200,000	-0,006	-0,099
-269,570	137,176	0,053	-0,050
-268,555	314,948	-0,030	-0,042
-267,540	46,825	-0,112	-0,075
-266,526	-200,000	-0,019	-0,066
-265,511	63,816	-0,119	-0,086
-264,497	235,234	-0,111	-0,133
-263,482	318,327	0,069	-0,095
-262,467	-40,077	-0,019	0,007
-261,453	-71,601	0,040	0,011
-260,438	113,575	-0,023	0,020
-259,424	800,000	-0,066	-0,149
-258,409	704,478	-0,032	0,062
-257,395	3,044	0,026	0,014
-256,380	-200,000	-0,009	-0,044
-255,365	173,357	-0,070	0,073
-254,351	-69,141	-0,070	0,019
-253,336	-51,790	0,079	-0,026
-252,322	-58,136	-0,027	-0,008
-251,307	-140,667	0,109	0,008
-250,292	-200,000	0,013	0,112
-249,278	-200,000	0,004	0,095
-248,263	-84,157	0,212	-0,048
-247,249	-22,051	0,123	-0,054
-246,234	800,000	-0,026	0,080
-245,219	-15,205	-0,131	-0,060
-244,205	-200,000	-0,040	-0,151
-243,190	-28,728	-0,023	-0,010
-242,176	185,289	0,078	-0,084
-241,161	-6,574	0,015	-0,008
-240,146	377,398	-0,064	0,095
-239,132	-55,994	0,111	-0,035
-238,117	-200,000	-0,059	0,198
-237,103	298,874	0,033	-0,044
-236,088	257,819	-0,060	0,075
-235,073	800,000	0,038	-0,098
-234,059	800,000	0,051	0,112
-233,044	-166,118	0,055	-0,002
-232,030	-200,000	-0,005	0,060
-231,015	489,955	-0,027	-0,045
-230,000	240,712	-0,071	-0,086
-228,986	-200,000	-0,013	0,067
-227,971	800,000	-0,044	-0,133
-226,957	-75,947	-0,027	0,007
-225,942	61,644	0,093	0,067
-224,927	-200,000	-0,011	-0,164
-223,913	-200,000	0,003	0,071
-222,898	-29,056	0,095	0,039
-221,884	20,772	-0,167	-0,098
-220,869	-200,000	0,007	0,071
-219,855	-101,516	0,045	-0,008
-218,840	-200,000	-0,039	0,136
-217,825	-124,390	-0,091	0,010
-216,811	-155,740	0,082	-0,004
-215,796	-46,660	-0,072	-0,025
-214,782	163,153	0,042	0,043
-213,767	651,442	-0,032	0,059
-212,752	-122,754	0,154	0,018
-211,738	-200,000	0,011	-0,076
-210,723	800,000	-0,028	-0,084
-209,709	393,468	-0,100	-0,151
-208,694	800,000	-0,028	-0,060
-207,679	-200,000	0,002	-0,060
-206,665	-136,578	0,093	-0,008
-205,650	800,000	0,025	0,058
-204,636	300,007	-0,053	0,071
-203,621	1,799	0,072	-0,037
-202,606	327,132	-0,064	-0,089
-201,592	139,041	-0,113	-0,107
-200,577	211,517	-0,065	-0,074
-199,563	-19,958	0,031	0,014
-198,548	-110,610	0,103	0,015
-197,533	71,854	-0,050	-0,038
-196,519	-17,158	0,047	0,021
-195,504	703,216	0,062	-0,118
-194,490	134,975	-0,111	-0,104
-193,475	-125,752	0,099	0,011
-192,460	800,000	0,005	0,013
-191,446	133,291	0,087	0,081
-190,431	49,884	-0,062	0,042
-189,417	-142,313	-0,026	0,002
-188,402	-31,418	0,074	-0,030
-187,387	182,198	0,091	0,096
-186,373	-111,827	-0,232	-0,034
-185,358	418,110	-0,028	0,043
-184,344	-135,376	-0,047	0,004
-183,329	-107,016	0,107	0,017
-182,315	-200,000	0,003	0,021
-181,300	800,000	-0,020	0,040
-180,285	-200,000	-0,001	-0,038
-179,271	757,653	-0,043	0,084
-178,256	-42,826	-0,012	0,004
-177,242	-120,325	0,100	0,012
-176,227	-39,679	0,079	-0,030
-175,212	-200,000	-0,036	0,140
-174,198	-71,321	-0,038	-0,010
-173,183	-46,392	0,060	-0,021
-172,169	161,888	0,062	0,062
-171,154	572,127	-0,061	-0,108
-170,139	-200,000	-0,066	0,217
-169,125	-200,000	0,008	0,056
-168,110	800,000	0,047	-0,098
-167,096	113,168	-0,083	-0,073
-166,081	14,842	-0,051	0,029
-165,066	800,000	0,028	-0,076
-164,052	-31,082	-0,072	-0,029
-163,037	116,004	-0,097	0,085
-162,023	-200,000	0,001	0,052
-161,008	-200,000	0,043	0,179
-159,993	800,000	-0,031	0,089
-158,979	-200,000	0,021	0,079
-157,964	-95,130	-0,044	-0,009
-156,950	-93,213	0,137	-0,027
-155,935	211,787	-0,064	0,073
-154,920	800,000	0,026	0,083
-153,906	800,000	-0,059	0,119
-152,891	234,705	-0,097	-0,115
-151,877	-77,919	-0,195	-0,048
-150,862	-200,000	-0,004	0,095
-149,847	-149,479	-0,017	0,001
-148,833	-106,818	-0,050	0,008
-147,818	-200,000	0,029	-0,093
-146,804	225,898	0,084	0,098
-145,789	800,000	-0,033	0,075
-144,775	407,509	-0,021	-0,031
-143,760	4,941	0,012	-0,006
-142,745	244,320	-0,065	-0,079
-141,731	206,876	-0,062	-0,070
-140,716	800,000	-0,025	-0,065
-139,702	-153,720	-0,087	-0,004
-138,687	157,907	-0,115	0,115
-137,672	-99,565	0,053	0,010
-136,658	-200,000	0,013	-0,053
-135,643	247,941	0,106	-0,130
-134,629	-14,007	0,087	0,040
-133,614	-113,579	0,059	-0,008
-132,599	521,897	0,076	-0,130
-131,585	297,994	-0,094	0,125
-130,570	-120,845	-0,062	0,007
-129,556	113,586	0,083	-0,072
-128,541	-111,887	-0,114	-0,016
-127,526	800,000	0,015	-0,037
-126,512	-86,217	0,110	0,024
-125,497	-200,000	0,028	0,118
-124,483	159,582	0,083	0,083
-123,468	327,898	0,073	0,101
-122,453	-23,642	-0,187	-0,080
-121,439	507,037	0,057	-0,096
-120,424	22,168	-0,076	-0,045
-119,410	207,202	0,037	0,041
-118,395	-200,000	-0,006	0,084
-117,380	-160,141	0,106	0,004
-116,366	800,000	0,006	0,014
-115,351	-200,000	0,004	0,014
-114,337	-200,000	0,006	-0,098
-113,322	109,934	-0,090	-0,078
-112,307	-75,636	0,074	0,019
-111,293	800,000	0,030	0,074
-110,278	583,471	-0,028	-0,049
-109,264	19,097	0,026	-0,015
-108,249	-56,686	-0,072	0,023
-107,234	8,729	-0,057	-0,031
-106,220	800,000	0,024	-0,066
-105,205	157,906	0,047	-0,047
-104,191	800,000	0,031	-0,082
-103,176	194,674	-0,099	0,108
-102,162	-75,995	-0,049	-0,012
-101,147	200,854	-0,095	-0,105
-100,132	20,708	-0,020	0,012
-99,118	586,747	-0,039	-0,070
-98,103	50,493	0,110	-0,075
-97,089	800,000	0,012	0,028
-96,074	385,751	0,070	0,104
-95,059	274,512	-0,029	0,037
-94,045	50,652	-0,130	0,088
-93,030	800,000	-0,034	-0,070
-92,016	-200,000	0,020	-0,066
-91,001	734,590	0,070	-0,135
-89,986	800,000	0,036	0,091
-88,972	-21,426	-0,124	0,054
-87,957	366,255	-0,024	-0,035
-86,943	19,201	0,079	0,045
-85,928	-200,000	0,004	0,086
-84,913	233,010	-0,071	0,084
-83,899	68,237	-0,071	0,052
-82,884	738,778	0,040	0,078
-81,870	160,671	0,059	0,059
-80,855	186,006	0,084	0,090
-79,840	-200,000	-0,008	0,028
-78,826	-59,252	-0,039	0,012
-77,811	-125,390	-0,048	0,005
-76,797	71,255	-0,033	0,025
-75,782	-41,254	0,173	0,064
-74,767	800,000	0,031	0,091
-73,753	40,085	0,065	-0,042
-72,738	-70,613	-0,013	0,004
-71,724	28,190	-0,022	0,014
-70,709	196,229	0,048	-0,052
-69,694	534,014	-0,065	-0,111
-68,680	0,631	-0,088	-0,045
-67,665	127,150	0,146	0,133
-66,651	-200,000	0,006	0,031
-65,636	-67,219	0,059	-0,017
-64,622	293,587	0,058	-0,076
-63,607	800,000	-0,031	-0,094
-62,592	-67,152	0,067	-0,019
-61,578	-200,000	-0,010	-0,117
-60,563	-20,164	0,106	-0,047
-59,549	252,934	-0,059	0,072
-58,534	-2,270	-1,845	-0,926
-57,519	800,000	-0,347	-1,033
-56,505	-200,000	-1,237	-4,978
-55,490	-31,938	0,763	0,305
-54,476	800,000	5,298	12,243
-53,461	-200,000	17,359	284,204
-52,446	800,000	724,101	2224,685
-51,432	540,930	1640,078	2815,947
-50,417	111,396	1631,644	1412,227
-49,403	75,768	1286,409	975,158
-48,388	32,603	1028,165	636,829
-47,373	20,201	990,230	572,403
-46,359	18,691	978,121	560,426
-45,344	16,081	974,055	549,525
-44,330	16,297	972,662	549,425
-43,315	15,838	971,046	546,991
-42,300	15,725	969,940	545,978
-41,286	15,758	968,837	545,440
-40,271	15,741	967,837	544,800
-39,257	15,789	966,835	544,370
-38,242	15,774	965,865	543,755
-37,227	15,735	965,262	543,266
-36,213	15,788	964,393	542,929
-35,198	15,732	963,675	542,322
-34,184	15,767	962,859	541,955
-33,169	15,740	961,788	541,243
-32,154	15,770	960,870	540,800
-31,140	15,770	959,985	540,281
-30,125	15,793	959,243	539,917
-29,111	15,769	958,529	539,415
-28,096	15,816	957,862	539,170
-27,082	15,819	957,187	538,779
-26,067	15,821	956,430	538,337
-25,052	15,780	955,628	537,733
-24,038	15,769	954,954	537,299
-23,023	15,774	954,246	536,895
-22,009	15,832	953,658	536,728
-20,994	15,809	953,043	536,288
-19,979	15,847	952,375	536,011
-18,965	15,819	951,839	535,600
-17,950	15,837	951,120	535,229
-16,936	15,764	950,436	534,591
-15,921	15,700	950,034	534,140
-14,906	15,721	949,089	533,654
-13,892	15,682	948,356	533,095
-12,877	15,632	948,068	532,754
-11,863	15,616	947,361	532,285
-10,848	15,667	946,646	532,023
-9,833	15,743	946,270	532,032
-8,819	15,753	945,520	531,621
-7,804	15,754	944,755	531,173
-6,790	15,611	944,561	530,589
-5,775	15,671	943,915	530,396
-4,760	15,644	943,370	529,985
-3,746	15,654	942,681	529,608
-2,731	15,525	941,694	528,624
-1,717	15,452	941,196	528,092
-0,702	15,499	940,427	527,786
0,313	15,289	939,934	527,642
1,327	18,414	937,470	536,067
2,342	27,197	794,851	477,807
3,356	23,755	459,017	270,637
4,371	-3,162	313,813	156,457
5,386	-7,174	295,508	143,266
6,400	-9,140	289,454	138,370
7,415	-9,455	287,080	136,913
8,429	-9,656	285,647	136,021
9,444	-9,776	284,682	135,432
10,459	-9,589	284,077	135,314
11,473	-9,637	283,459	134,962
12,488	-9,393	282,789	134,867
13,502	-9,587	282,443	134,502
14,517	-9,561	281,983	134,296
15,531	-9,679	281,650	134,012
16,546	-9,749	281,381	133,804
17,561	-9,569	280,763	133,672
18,575	-9,603	280,569	133,535
19,590	-9,566	280,104	133,337
20,604	-9,609	279,909	133,192
21,619	-9,597	279,565	133,027
22,634	-9,627	279,154	132,792
23,648	-9,690	278,925	132,610
24,663	-9,692	278,572	132,429
25,677	-9,759	278,360	132,253
26,692	-9,554	278,089	132,307
27,707	-9,699	277,910	132,072
28,721	-9,667	277,630	131,957
29,736	-9,611	277,229	131,808
30,750	-9,664	277,041	131,657
31,765	-9,909	276,809	131,303
32,780	-9,489	276,405	131,497
33,794	-9,774	276,295	131,163
34,809	-9,529	275,916	131,202
35,823	-9,691	275,712	130,941
36,838	-9,790	275,470	130,721
37,853	-9,841	275,310	130,586
38,867	-9,681	274,978	130,567
39,882	-9,991	274,956	130,255
40,896	-9,713	274,548	130,310
41,911	-9,773	274,295	130,122
42,926	-9,846	274,157	129,977
43,940	-9,759	273,837	129,895
44,955	-9,552	273,557	129,944
45,969	-9,757	273,303	129,620
46,984	-9,910	273,125	129,382
47,999	-10,114	272,831	129,040
49,013	-10,346	272,689	128,747
50,028	-10,245	272,479	128,729
51,042	-10,346	272,007	128,402
52,057	-10,319	271,804	128,319
53,071	-10,246	271,730	128,340
54,086	-10,171	271,307	128,199
55,101	-10,249	271,248	128,087
56,115	-9,804	271,105	128,419
57,130	-9,546	271,043	128,617
58,144	-9,622	270,828	128,433
59,159	-9,483	270,497	128,393
60,174	-9,523	270,247	128,226
61,188	-9,694	270,173	128,022
62,203	-9,606	269,869	127,948
63,217	-9,518	269,775	127,972
64,232	-9,595	269,460	127,741
65,247	-9,326	269,072	127,793
66,261	-9,676	268,933	127,394
67,276	-9,631	268,801	127,361
68,290	-9,955	268,495	126,908
69,305	-9,805	268,141	126,868
70,320	-9,733	268,110	126,907
71,334	-9,816	267,948	126,743
72,349	-9,489	267,726	126,925
73,363	-9,706	267,532	126,624
74,378	-9,439	267,210	126,703
75,393	-9,554	267,279	126,621
76,407	-9,718	266,821	126,243
77,422	-9,545	266,623	126,295
78,436	-9,557	266,476	126,203
79,451	-9,405	266,108	126,155
80,466	-9,623	265,916	125,856
81,480	-9,736	265,709	125,645
82,495	-9,714	265,407	125,510
83,509	-9,717	265,417	125,501
84,524	-9,716	265,178	125,378
85,539	-9,798	264,787	125,108
86,553	-9,983	264,644	124,863
87,568	-9,802	264,567	124,978
88,582	-9,810	264,282	124,825
89,597	-9,754	264,064	124,761
90,611	-9,474	263,991	124,966
91,626	-9,545	263,766	124,786
92,641	-9,665	263,577	124,577
93,655	-9,581	263,380	124,549
94,670	-9,647	263,212	124,399
95,684	-9,629	262,937	124,274
96,699	-9,645	262,698	124,136
97,714	-9,770	262,645	123,988
98,728	-9,633	262,065	123,825
99,743	-9,886	261,945	123,533
100,757	-9,862	261,795	123,472
101,772	-9,763	261,600	123,457
102,787	-9,813	261,473	123,342
103,801	-9,851	261,454	123,287
104,816	-9,626	261,047	123,285
105,830	-9,679	261,063	123,234
106,845	-9,666	260,607	123,019
107,860	-9,751	260,522	122,893
108,874	-9,548	260,277	122,946
109,889	-9,635	260,014	122,734
110,903	-9,584	259,840	122,685
111,918	-9,625	259,713	122,579
112,933	-9,474	259,527	122,613
113,947	-9,510	259,434	122,526
114,962	-9,698	259,230	122,254
115,976	-9,639	258,935	122,155
116,991	-9,578	258,888	122,176
118,006	-9,559	258,591	122,041
119,020	-9,848	258,637	121,799
120,035	-9,593	258,318	121,861
121,049	-9,431	258,057	121,869
122,064	-9,511	258,013	121,767
123,079	-9,607	257,678	121,515
124,093	-9,711	257,579	121,366
125,108	-9,625	257,266	121,283
126,122	-9,927	257,228	120,991
127,137	-10,025	256,889	120,735
128,151	-9,827	256,608	120,764
129,166	-9,810	256,477	120,707
130,181	-9,940	256,249	120,476
131,195	-9,862	256,078	120,453
132,210	-9,378	255,739	120,702
133,224	-9,628	255,790	120,498
134,239	-9,530	255,609	120,487
135,254	-9,386	255,312	120,461
136,268	-9,519	255,114	120,242
137,283	-9,835	254,991	119,901
138,297	-10,006	254,857	119,679
139,312	-10,010	254,461	119,479
140,327	-9,707	254,520	119,757
141,341	-9,466	254,321	119,860
142,356	-9,554	254,123	119,680
143,370	-9,471	253,960	119,665
144,385	-9,355	253,876	119,714
145,400	-9,383	253,577	119,539
146,414	-9,470	253,415	119,377
147,429	-9,264	253,175	119,429
148,443	-9,294	253,074	119,346
149,458	-9,362	252,890	119,190
150,473	-9,301	252,579	119,085
151,487	-9,680	252,518	118,722
152,502	-9,336	252,208	118,859
153,516	-9,353	252,082	118,774
154,531	-9,248	251,869	118,753
155,546	-9,346	251,882	118,664
156,560	-9,324	251,525	118,505
157,575	-9,662	251,320	118,111
158,589	-9,381	251,263	118,311
159,604	-9,425	251,108	118,191
160,619	-9,538	250,922	117,997
161,633	-9,544	250,768	117,909
162,648	-9,311	250,477	117,959
163,662	-9,496	250,392	117,751
164,677	-9,348	250,249	117,799
165,692	-9,292	249,992	117,715
166,706	-9,360	249,784	117,549
167,721	-9,420	249,682	117,440
168,735	-9,620	249,784	117,309
169,750	-9,365	249,512	117,385
170,764	-9,413	249,308	117,238
171,779	-9,390	249,143	117,170
172,794	-9,377	248,988	117,097
173,808	-9,586	248,810	116,828
174,823	-9,748	248,479	116,526
175,837	-9,818	248,243	116,346
176,852	-9,609	248,131	116,459
177,867	-9,621	248,082	116,415
178,881	-9,174	247,837	116,664
179,896	-9,289	247,780	116,530
180,910	-9,250	247,508	116,425
181,925	-9,340	247,450	116,312
182,940	-9,203	247,087	116,244
183,954	-9,554	247,140	115,967
184,969	-9,340	246,847	115,997
185,983	-9,339	246,676	115,907
186,998	-9,441	246,575	115,765
188,013	-9,346	246,435	115,768
189,027	-9,273	246,273	115,742
190,042	-9,294	245,975	115,574
191,056	-9,502	245,892	115,352
192,071	-9,413	245,578	115,268
193,086	-9,264	245,488	115,339
194,100	-9,315	245,337	115,216
195,115	-9,331	245,083	115,073
196,129	-9,238	244,869	115,038
197,144	-9,571	244,722	114,685
198,159	-9,380	244,451	114,705
199,173	-9,425	244,400	114,634
200,188	-9,454	244,253	114,531
201,202	-9,509	243,981	114,348
202,217	-9,680	243,662	114,048
203,232	-9,909	243,543	113,794
204,246	-9,534	243,551	114,096
205,261	-9,175	243,218	114,223
206,275	-10,075	242,872	113,315
207,290	-7,007	244,110	116,401
208,304	-0,299	246,231	122,942
209,319	2,960	247,075	126,045
210,334	3,323	247,055	126,323
211,348	3,456	247,003	126,395
212,363	3,663	247,013	126,559
213,377	3,865	246,769	126,590
214,392	3,640	246,857	126,438
215,407	3,510	246,432	126,102
216,421	3,590	246,389	126,135
217,436	3,762	246,342	126,241
218,450	4,068	246,058	126,336
219,465	3,695	245,706	125,837
220,480	3,516	245,536	125,593
221,494	3,537	245,454	125,557
222,509	3,634	245,215	125,503
223,523	3,587	245,229	125,460
224,538	3,133	244,885	124,902
225,553	3,092	244,767	124,797
226,567	3,506	244,524	125,000
227,582	3,539	244,412	124,958
228,596	3,507	244,267	124,847
229,611	3,295	244,068	124,562
230,626	3,172	243,738	124,282
231,640	3,058	243,810	124,215
232,655	3,292	243,680	124,328
233,669	3,120	243,229	123,948
234,684	2,948	243,190	123,777
235,699	3,495	243,167	124,197
236,713	3,613	243,018	124,206
237,728	3,080	242,876	123,691
238,742	3,179	242,382	123,509
239,757	3,356	242,371	123,635
240,772	3,275	242,266	123,504
241,786	3,540	242,100	123,623
242,801	3,148	241,841	123,163
243,815	3,049	241,828	123,067
244,830	3,142	241,709	123,070
245,844	3,384	241,589	123,192
246,859	3,277	241,372	122,984
247,874	3,023	241,220	122,692
248,888	3,200	241,051	122,737
249,903	3,175	240,946	122,653
250,917	3,476	240,656	122,735
251,932	3,652	240,657	122,866
252,947	3,552	240,434	122,661
253,961	3,264	240,295	122,349
254,976	3,484	240,224	122,478
255,990	3,434	240,027	122,326
257,005	3,372	239,734	122,117
258,020	3,055	239,699	121,836
259,034	3,321	239,408	121,888
260,049	3,267	239,311	121,785
261,063	3,319	239,024	121,670
262,078	3,266	239,059	121,634
263,093	3,477	238,850	121,685
264,107	3,417	238,821	121,612
265,122	2,965	238,705	121,183
266,136	3,406	238,493	121,414
267,151	3,518	238,414	121,451
268,166	3,254	238,068	121,055
269,180	2,917	238,117	120,804
270,195	3,726	237,937	121,340
271,209	3,920	237,879	121,453
272,224	3,352	237,572	120,838
273,239	2,851	237,329	120,308
274,253	3,186	237,034	120,412
275,268	3,433	237,107	120,633
276,282	3,340	236,973	120,480
277,297	3,124	236,606	120,114
278,312	3,302	236,492	120,185
279,326	3,375	236,369	120,169
280,341	3,415	236,481	120,247
281,355	3,357	236,236	120,066
282,370	3,634	236,069	120,188
283,384	3,131	236,046	119,771
284,399	3,132	235,683	119,577
285,414	2,993	235,374	119,301
286,428	3,396	235,331	119,583
287,443	3,213	235,148	119,336
288,457	3,437	235,069	119,460
289,472	3,554	235,057	119,535
290,487	3,368	234,782	119,239
291,501	3,349	234,536	119,089
292,516	2,957	234,372	118,691
293,530	2,712	234,222	118,414
294,545	3,267	234,210	118,829
295,560	3,280	234,070	118,756
296,574	3,020	233,780	118,397
297,589	2,915	233,697	118,264
298,603	3,780	233,528	118,837
299,618	3,329	233,624	118,526
300,633	3,328	233,566	118,485
301,647	3,410	233,328	118,417
302,662	3,956	233,183	118,754
303,676	3,801	232,963	118,513
304,691	3,615	232,982	118,368
305,706	3,843	232,738	118,410
306,720	3,812	232,511	118,259
307,735	3,492	232,499	117,997
308,749	3,384	232,356	117,830
309,764	3,222	231,926	117,477
310,779	3,063	231,761	117,261
311,793	2,973	231,618	117,110
312,808	3,144	231,374	117,107
313,822	2,930	231,279	116,885
314,837	3,035	231,092	116,860
315,852	3,024	230,956	116,772
316,866	3,488	230,995	117,136
317,881	3,548	230,844	117,095
318,895	3,538	230,819	117,064
319,910	3,678	230,624	117,061
320,925	3,609	230,274	116,821
321,939	3,352	230,207	116,581
322,954	3,453	230,066	116,576
323,968	3,207	229,898	116,293
324,983	3,148	229,781	116,179
325,997	3,014	229,574	115,963
327,012	3,607	229,466	116,347
328,027	3,373	229,488	116,170
329,041	3,774	229,442	116,441
330,056	3,883	229,304	116,443
331,070	3,776	229,115	116,255
332,085	3,415	228,802	115,813
333,100	3,485	228,732	115,821
334,114	3,592	228,563	115,805
335,129	3,864	228,351	115,893
336,143	3,594	228,250	115,628
337,158	3,575	228,265	115,611
338,173	3,693	227,964	115,537
339,187	3,646	227,950	115,484
340,202	3,698	227,688	115,380
341,216	3,677	227,503	115,260
342,231	3,515	227,341	115,047
343,246	3,515	227,290	115,010
344,260	3,494	227,115	114,896
345,275	3,810	227,018	115,073
346,289	3,749	226,980	114,998
347,304	3,975	226,829	115,080
348,319	3,562	226,753	114,723
349,333	3,685	226,426	114,639
350,348	3,365	226,182	114,267
351,362	3,606	226,086	114,387
352,377	3,535	225,860	114,210
353,392	3,241	225,729	113,914
354,406	3,316	225,645	113,918
355,421	194,353	1325,276	1399,173
356,435	155,712	1459,251	1399,178
