DTS Sentinel unit serial number:	SN410029Multiplexer serial number:	ORYXHardware model number:	OX2-SRSoftware version number:	ORYX F/W v4,00 Oryx Data Collector v3.7.2.0data status	okinstallation	B5 Nyhavnadifferential loss correction	single-endedforward channel	channel 2reverse channel	N/Adate	2023/12/11time	16:32:13forward acquisition time	300,00reverse acquisition time	0,00gamma	499,1914k internal	0,3165k external	0,3165temperature offset calibration	1,0000default loss term (dB/km)	0,3820temperature slope calibration	1,0000multiplexer offset coefficient	1,0000multiplexer slope coefficient	1,0000fibre end	0,00T internal ref (°C)	14,09T ext. ref 1 (°C)	-0,90T ext. ref 2 (°C)	-0,96length (m)	temperature (°C)	Stokes	anti-Stokes-744,400	-182,820	0,189	0,002
-743,385	-33,596	-0,198	-0,080
-742,371	20,466	0,134	0,079
-741,356	-148,669	-0,101	-0,006
-740,342	602,391	0,039	0,072
-739,327	-146,037	-0,240	0,015
-738,312	800,000	0,027	-0,068
-737,298	-8,653	-0,404	-0,199
-736,283	-76,948	0,177	-0,045
-735,269	-114,302	-0,261	0,037
-734,254	-29,963	0,106	0,044
-733,239	-64,225	-0,491	-0,146
-732,225	-44,725	0,080	0,029
-731,210	-200,000	-0,006	0,069
-730,196	-200,000	-0,032	0,118
-729,181	-200,000	0,001	-0,023
-728,167	800,000	-0,062	-0,170
-727,152	322,395	-0,020	-0,028
-726,137	-40,892	-0,058	0,022
-725,123	-5,908	-0,075	-0,037
-724,108	-33,395	0,018	0,007
-723,094	800,000	-0,063	-0,141
-722,079	239,597	-0,070	0,085
-721,064	196,093	-0,021	-0,024
-720,050	-58,351	0,116	-0,037
-719,035	-108,139	0,026	-0,004
-718,021	-83,111	-0,106	-0,025
-717,006	-200,000	0,008	-0,120
-715,991	-106,140	-0,120	-0,020
-714,977	743,405	0,046	-0,091
-713,962	-89,975	0,008	-0,002
-712,948	-200,000	0,008	0,044
-711,933	94,694	0,064	-0,053
-710,918	-174,636	-0,057	-0,001
-709,904	-38,588	-0,031	0,012
-708,889	-200,000	-0,001	0,019
-707,875	-200,000	-0,005	-0,107
-706,860	-200,000	0,009	0,127
-705,845	-200,000	0,009	0,043
-704,831	800,000	0,023	-0,063
-703,816	-200,000	0,005	-0,044
-702,802	-200,000	-0,007	0,129
-701,787	-97,625	-0,103	-0,019
-700,772	-126,476	-0,092	0,010
-699,758	21,656	-0,135	0,081
-698,743	10,885	0,079	0,044
-697,729	-111,216	0,078	0,012
-696,714	-200,000	0,002	-0,088
-695,699	99,495	-0,039	-0,033
-694,685	-57,789	-0,073	-0,023
-693,670	-195,596	-0,133	-0,001
-692,656	-69,101	-0,035	-0,010
-691,641	-128,105	0,086	0,009
-690,627	-19,462	0,027	-0,012
-689,612	482,010	0,074	-0,124
-688,597	-140,766	0,064	0,005
-687,583	-200,000	-0,021	-0,223
-686,568	-87,736	-0,074	0,016
-685,554	55,482	-0,083	-0,059
-684,539	-200,000	0,032	0,128
-683,524	-106,139	0,084	-0,014
-682,510	800,000	0,027	-0,060
-681,495	27,335	0,130	-0,080
-680,481	800,000	-0,057	-0,136
-679,466	-200,000	-0,015	-0,069
-678,451	-33,814	0,099	0,040
-677,437	-70,406	-0,011	-0,003
-676,422	-70,985	0,135	0,037
-675,408	-200,000	-0,017	-0,066
-674,393	1,875	-0,064	-0,034
-673,378	-48,655	-0,069	0,024
-672,364	585,624	0,047	-0,085
-671,349	67,282	-0,080	-0,060
-670,335	-62,286	-0,148	0,045
-669,320	558,687	-0,031	0,054
-668,305	-200,000	0,012	0,043
-667,291	-200,000	-0,032	-0,119
-666,276	665,778	-0,058	-0,110
-665,262	-163,635	0,005	0,000
-664,247	-200,000	0,011	-0,045
-663,232	232,776	0,103	-0,125
-662,218	-200,000	0,042	-0,138
-661,203	134,311	0,089	0,085
-660,189	-91,315	0,082	-0,017
-659,174	800,000	0,023	-0,048
-658,159	799,255	0,026	-0,053
-657,145	119,285	-0,112	0,101
-656,130	614,141	0,071	-0,130
-655,116	728,519	-0,042	0,082
-654,101	6,766	0,064	0,035
-653,086	640,711	0,015	-0,029
-652,072	-200,000	-0,035	-0,150
-651,057	251,981	0,076	-0,094
-650,043	4,281	-0,098	-0,052
-649,028	-200,000	0,025	-0,148
-648,014	-200,000	0,040	0,143
-646,999	135,756	-0,114	0,109
-645,984	4,328	0,046	0,025
-644,970	-78,236	0,107	0,027
-643,955	-135,706	-0,106	-0,009
-642,941	-44,140	0,092	-0,034
-641,926	120,184	0,081	0,073
-640,911	145,412	-0,019	0,019
-639,897	543,297	-0,017	0,029
-638,882	60,355	-0,054	0,039
-637,868	800,000	0,013	0,036
-636,853	631,198	-0,089	-0,165
-635,838	266,591	-0,021	0,027
-634,824	-61,183	-0,012	-0,004
-633,809	-200,000	-0,001	0,004
-632,795	-8,443	-0,072	0,035
-631,780	-200,000	-0,007	-0,040
-630,765	7,261	-0,081	-0,044
-629,751	150,076	-0,056	-0,056
-628,736	800,000	-0,035	-0,099
-627,722	211,711	-0,082	-0,095
-626,707	-55,842	0,099	-0,032
-625,692	-200,000	-0,010	-0,125
-624,678	61,940	-0,053	0,039
-623,663	173,240	0,079	0,083
-622,649	-200,000	-0,021	-0,069
-621,634	49,864	-0,124	-0,086
-620,619	200,456	-0,058	0,065
-619,605	-33,928	0,060	0,024
-618,590	-95,625	0,097	0,019
-617,576	348,066	-0,026	0,037
-616,561	-106,524	-0,016	-0,003
-615,546	-200,000	-0,002	-0,014
-614,532	-105,923	-0,071	0,012
-613,517	388,889	-0,101	-0,154
-612,503	-200,000	0,007	0,041
-611,488	-99,297	0,113	-0,021
-610,474	528,272	0,067	-0,116
-609,459	-200,000	0,007	-0,027
-608,444	-156,181	-0,123	0,006
-607,430	18,051	-0,048	0,028
-606,415	76,358	-0,071	-0,055
-605,401	-200,000	-0,019	0,066
-604,386	-0,495	0,061	0,032
-603,371	80,932	0,015	-0,012
-602,357	49,127	0,085	-0,058
-601,342	-91,598	-0,129	0,027
-600,328	117,510	-0,118	-0,106
-599,313	160,927	-0,081	-0,083
-598,298	800,000	0,046	0,127
-597,284	195,202	0,038	0,042
-596,269	100,478	-0,074	0,063
-595,255	-159,602	-0,044	0,002
-594,240	267,570	-0,028	-0,037
-593,225	-157,563	-0,121	0,005
-592,211	-200,000	-0,021	-0,071
-591,196	800,000	0,017	0,037
-590,182	18,569	0,158	-0,092
-589,167	800,000	0,051	0,148
-588,152	800,000	-0,028	0,068
-587,138	-39,680	-0,071	-0,027
-586,123	-31,809	-0,151	-0,061
-585,109	-200,000	0,029	-0,124
-584,094	800,000	0,029	-0,065
-583,079	308,145	0,081	-0,110
-582,065	-51,444	0,056	0,019
-581,050	104,204	-0,063	-0,054
-580,036	-176,374	-0,177	-0,003
-579,021	153,739	0,040	-0,040
-578,006	800,000	-0,013	-0,037
-576,992	-160,333	0,092	-0,004
-575,977	800,000	-0,007	-0,022
-574,963	-200,000	0,040	0,178
-573,948	-80,674	0,011	0,003
-572,934	800,000	0,030	-0,062
-571,919	800,000	-0,028	-0,087
-570,904	101,671	0,071	-0,060
-569,890	-200,000	-0,062	-0,210
-568,875	-66,669	0,040	-0,011
-567,861	138,710	0,036	0,035
-566,846	635,991	-0,061	-0,114
-565,831	-112,336	-0,096	0,014
-564,817	12,698	0,054	-0,030
-563,802	350,722	-0,107	-0,155
-562,788	-200,000	-0,035	-0,119
-561,773	568,786	-0,046	-0,082
-560,758	238,036	0,092	-0,111
-559,744	134,249	-0,076	0,072
-558,729	71,703	0,141	0,107
-557,715	19,052	-0,060	-0,035
-556,700	-200,000	0,013	-0,044
-555,685	119,957	-0,143	-0,130
-554,671	-64,762	0,097	-0,028
-553,656	-200,000	0,037	0,121
-552,642	-200,000	-0,003	-0,079
-551,627	-200,000	-0,012	-0,069
-550,612	81,289	0,086	0,068
-549,598	-200,000	0,023	-0,122
-548,583	-25,710	-0,122	0,052
-547,569	-200,000	0,008	0,053
-546,554	-108,475	0,103	-0,016
-545,539	344,210	0,041	0,059
-544,525	-200,000	-0,032	0,137
-543,510	-168,409	-0,057	-0,002
-542,496	203,230	-0,049	-0,055
-541,481	427,557	-0,009	0,013
-540,466	-1,556	0,028	-0,014
-539,452	-96,882	0,091	0,017
-538,437	-200,000	0,002	-0,017
-537,423	800,000	-0,032	-0,077
-536,408	138,906	0,040	-0,039
-535,393	800,000	-0,038	0,081
-534,379	306,824	-0,028	-0,039
-533,364	3,704	0,133	-0,070
-532,350	132,582	-0,048	-0,045
-531,335	-34,284	0,086	0,034
-530,321	-159,560	-0,142	0,006
-529,306	-92,308	-0,139	-0,028
-528,291	800,000	0,030	-0,075
-527,277	784,861	0,016	0,031
-526,262	306,982	-0,090	-0,123
-525,248	91,905	0,028	-0,023
-524,233	-8,221	0,063	0,031
-523,218	104,320	-0,040	0,034
-522,204	322,997	0,065	0,090
-521,189	-70,796	-0,071	0,019
-520,175	170,270	-0,019	-0,020
-519,160	36,541	-0,076	-0,049
-518,145	-200,000	0,039	0,198
-517,131	9,902	-0,050	-0,028
-516,116	-15,326	0,102	0,048
-515,102	-200,000	-0,020	-0,179
-514,087	-32,153	-0,059	-0,024
-513,072	-169,211	0,019	0,000
-512,058	-16,063	-0,102	-0,047
-511,043	-128,353	-0,126	-0,013
-510,029	64,205	0,015	-0,011
-509,014	322,284	0,030	0,042
-507,999	3,020	0,034	0,018
-506,985	-104,895	-0,141	-0,023
-505,970	187,423	-0,090	-0,098
-504,956	97,046	0,086	-0,072
-503,941	-200,000	-0,005	0,067
-502,926	-9,009	-0,022	0,011
-501,912	470,581	-0,068	0,111
-500,897	704,533	0,071	0,137
-499,883	800,000	0,033	0,107
-498,868	-141,552	-0,044	-0,003
-497,853	519,361	-0,028	-0,048
-496,839	-200,000	-0,017	0,088
-495,824	800,000	-0,030	0,084
-494,810	-200,000	-0,002	-0,009
-493,795	199,822	-0,052	-0,059
-492,781	-200,000	0,014	0,053
-491,766	50,246	-0,042	-0,029
-490,751	-156,679	-0,094	-0,004
-489,737	-40,880	0,149	-0,056
-488,722	-200,000	0,008	-0,071
-487,708	90,513	-0,077	0,063
-486,693	800,000	0,021	0,066
-485,678	-200,000	-0,017	-0,147
-484,664	29,120	-0,105	0,065
-483,649	259,979	-0,057	0,072
-482,635	-200,000	0,013	-0,064
-481,620	73,419	-0,045	0,034
-480,605	508,912	-0,103	0,174
-479,591	-200,000	0,060	0,000
-478,576	189,746	-0,018	-0,020
-477,562	-200,000	0,013	-0,048
-476,547	58,783	0,045	-0,032
-475,532	219,879	-0,070	0,081
-474,518	5,315	0,019	-0,010
-473,503	800,000	0,046	0,116
-472,489	-200,000	0,024	0,089
-471,474	115,120	0,042	-0,037
-470,459	-39,920	-0,134	-0,050
-469,445	153,008	0,073	0,073
-468,430	355,452	0,012	-0,017
-467,416	-112,560	-0,105	0,015
-466,401	-82,748	0,081	0,019
-465,386	397,395	-0,016	0,024
-464,372	0,611	-0,088	0,046
-463,357	128,740	0,037	0,034
-462,343	97,144	-0,026	0,022
-461,328	800,000	0,047	-0,099
-460,313	277,112	0,054	0,071
-459,299	221,675	-0,083	0,097
-458,284	-22,927	-0,130	0,057
-457,270	-79,055	0,080	-0,020
-456,255	206,439	-0,068	-0,077
-455,241	-200,000	-0,023	-0,147
-454,226	20,269	0,170	0,100
-453,211	25,650	-0,081	0,049
-452,197	-200,000	0,022	0,081
-451,182	-200,000	-0,006	0,097
-450,168	-40,429	0,119	0,045
-449,153	800,000	-0,089	0,185
-448,138	45,654	0,095	0,063
-447,124	-200,000	-0,007	0,092
-446,109	122,051	0,054	0,049
-445,095	-200,000	-0,049	0,171
-444,080	562,525	0,037	0,066
-443,065	-200,000	-0,002	0,123
-442,051	129,446	0,075	0,070
-441,036	-139,966	-0,117	0,009
-440,022	41,146	0,104	-0,068
-439,007	-60,714	0,071	-0,022
-437,992	-166,120	-0,044	-0,001
-436,978	-112,365	0,005	0,001
-435,963	218,907	0,092	-0,107
-434,949	178,419	-0,054	0,058
-433,934	-153,890	-0,207	-0,010
-432,919	-73,538	-0,049	0,013
-431,905	-200,000	-0,009	0,034
-430,890	19,641	-0,077	0,045
-429,876	-104,123	0,199	0,033
-428,861	501,113	-0,018	-0,031
-427,846	-200,000	-0,004	0,098
-426,832	-21,021	-0,059	-0,026
-425,817	-39,575	-0,050	-0,019
-424,803	-119,246	-0,040	-0,005
-423,788	297,815	0,017	0,023
-422,773	800,000	0,043	-0,124
-421,759	80,566	0,025	-0,019
-420,744	-200,000	-0,005	0,156
-419,730	-174,109	-0,132	-0,003
-418,715	-200,000	0,012	-0,211
-417,701	-76,591	0,104	-0,026
-416,686	-26,907	0,114	0,048
-415,671	347,884	-0,065	0,094
-414,657	534,875	-0,013	-0,023
-413,642	-65,099	-0,066	0,019
-412,628	800,000	0,012	-0,031
-411,613	-2,828	-0,113	-0,057
-410,598	800,000	-0,028	-0,078
-409,584	742,430	0,087	0,171
-408,569	258,435	0,080	0,101
-407,555	380,401	0,069	-0,103
-406,540	0,017	-0,058	-0,030
-405,525	30,326	0,105	-0,065
-404,511	-104,660	-0,104	-0,017
-403,496	28,020	-0,069	-0,042
-402,482	800,000	0,026	-0,061
-401,467	-200,000	0,003	-0,091
-400,452	118,840	-0,055	-0,049
-399,438	404,333	0,017	-0,026
-398,423	-200,000	-0,004	-0,057
-397,409	-198,773	0,039	-0,000
-396,394	119,381	0,090	0,081
-395,379	-200,000	-0,001	0,023
-394,365	-3,526	0,047	-0,024
-393,350	-200,000	0,010	0,063
-392,336	-200,000	0,024	0,079
-391,321	80,002	-0,110	0,085
-390,306	-200,000	0,009	0,078
-389,292	-200,000	-0,032	-0,150
-388,277	800,000	-0,047	-0,121
-387,263	-28,840	0,172	0,071
-386,248	-31,970	0,155	-0,063
-385,233	478,106	0,019	0,031
-384,219	-5,505	-0,084	-0,042
-383,204	-200,000	-0,027	-0,132
-382,190	-18,659	-0,091	-0,041
-381,175	-200,000	0,007	0,043
-380,160	52,595	0,122	0,084
-379,146	93,903	0,059	0,049
-378,131	-80,925	0,059	0,014
-377,117	800,000	-0,080	0,221
-376,102	-200,000	0,001	-0,054
-375,088	-200,000	-0,026	0,096
-374,073	-200,000	-0,005	-0,039
-373,058	10,882	-0,102	0,056
-372,044	88,208	0,111	0,089
-371,029	-52,882	-0,125	0,042
-370,015	251,708	-0,059	0,074
-369,000	-79,739	-0,078	0,019
-367,985	-24,929	0,151	-0,065
-366,971	-200,000	0,001	-0,046
-365,956	98,033	0,112	0,094
-364,942	800,000	0,056	0,123
-363,927	164,692	-0,038	0,039
-362,912	-47,774	0,118	-0,041
-361,898	-16,203	0,029	-0,013
-360,883	432,697	-0,104	-0,165
-359,869	17,023	-0,134	-0,077
-358,854	-200,000	0,021	-0,073
-357,839	-43,789	-0,092	-0,033
-356,825	800,000	-0,055	0,129
-355,810	-200,000	-0,025	0,099
-354,796	251,830	-0,063	-0,077
-353,781	183,462	-0,041	0,044
-352,766	-51,798	0,198	-0,066
-351,752	-200,000	0,014	-0,062
-350,737	800,000	-0,011	0,031
-349,723	-35,423	-0,090	0,035
-348,708	800,000	-0,030	0,073
-347,693	634,523	0,049	0,091
-346,679	-200,000	0,001	0,018
-345,664	1,390	0,079	-0,041
-344,650	-200,000	0,019	0,109
-343,635	-200,000	-0,010	0,053
-342,620	112,115	0,095	-0,083
-341,606	185,120	0,031	-0,033
-340,591	-37,208	0,046	0,018
-339,577	-59,201	0,055	-0,017
-338,562	800,000	-0,063	0,138
-337,548	-145,550	0,076	-0,005
-336,533	358,607	0,089	-0,129
-335,518	26,342	-0,043	-0,026
-334,504	-131,416	0,074	-0,007
-333,489	239,372	0,029	-0,035
-332,475	-200,000	-0,010	-0,043
-331,460	800,000	0,046	-0,117
-330,445	800,000	0,022	0,059
-329,431	-200,000	0,000	-0,002
-328,416	-19,969	-0,036	-0,016
-327,402	-200,000	0,123	0,000
-326,387	-200,000	0,008	-0,040
-325,372	800,000	-0,057	-0,136
-324,358	1,000	-0,060	-0,031
-323,343	-72,269	-0,071	-0,019
-322,329	149,926	0,015	0,015
-321,314	800,000	0,051	0,158
-320,299	-126,293	0,053	-0,006
-319,285	269,620	0,048	0,061
-318,270	-112,428	-0,084	-0,012
-317,256	800,000	-0,053	0,111
-316,241	375,009	0,097	-0,143
-315,226	-43,133	-0,068	0,025
-314,212	-200,000	0,009	0,076
-313,197	-102,720	0,072	0,012
-312,183	800,000	0,054	0,143
-311,168	-200,000	-0,031	0,159
-310,153	214,847	-0,142	-0,163
-309,139	-81,655	0,084	0,020
-308,124	-16,251	0,037	-0,017
-307,110	215,350	-0,067	-0,077
-306,095	176,632	-0,049	-0,051
-305,080	-200,000	-0,023	-0,076
-304,066	-82,418	0,087	-0,020
-303,051	117,647	-0,051	0,045
-302,037	-112,543	0,128	0,018
-301,022	386,299	-0,067	0,101
-300,008	0,001	0,074	0,038
-298,993	800,000	0,034	0,083
-297,978	133,966	-0,068	0,064
-296,964	-8,226	0,141	-0,068
-295,949	41,902	0,088	-0,058
-294,935	-200,000	0,008	-0,032
-293,920	-200,000	-0,011	0,070
-292,905	378,886	0,049	0,073
-291,891	259,915	0,023	0,028
-290,876	191,842	0,078	0,085
-289,862	-25,299	-0,124	-0,053
-288,847	-200,000	0,003	-0,091
-287,832	297,720	0,031	-0,042
-286,818	-200,000	-0,004	-0,050
-285,803	4,974	-0,077	-0,041
-284,789	800,000	0,097	0,237
-283,774	-30,789	0,083	-0,034
-282,759	800,000	0,049	-0,115
-281,745	8,974	-0,077	-0,042
-280,730	-77,874	-0,103	-0,025
-279,716	114,958	0,050	0,044
-278,701	63,664	-0,030	-0,022
-277,686	800,000	-0,037	-0,101
-276,672	207,220	-0,076	-0,086
-275,657	-160,312	-0,021	0,001
-274,643	120,074	0,053	-0,048
-273,628	-200,000	-0,011	-0,110
-272,613	-200,000	-0,008	-0,066
-271,599	116,962	0,066	0,059
-270,584	-49,859	0,093	0,032
-269,570	101,582	-0,066	0,056
-268,555	70,598	-0,094	-0,070
-267,540	-4,915	-0,071	0,035
-266,526	255,875	-0,051	-0,063
-265,511	0,059	0,058	-0,030
-264,497	-200,000	0,015	-0,179
-263,482	800,000	0,040	0,086
-262,467	-86,379	0,089	-0,020
-261,453	-200,000	0,001	-0,059
-260,438	25,258	-0,059	0,035
-259,424	241,561	0,045	-0,055
-258,409	-116,216	-0,098	-0,013
-257,395	210,713	0,026	-0,030
-256,380	800,000	0,036	0,097
-255,365	717,421	0,127	0,245
-254,351	-200,000	0,029	0,124
-253,336	-200,000	0,004	0,057
-252,322	52,069	0,114	0,078
-251,307	-118,756	-0,119	-0,015
-250,292	386,271	0,062	0,093
-249,278	35,108	0,017	0,010
-248,263	800,000	0,048	0,101
-247,249	-200,000	0,034	0,193
-246,234	-23,274	0,051	0,022
-245,219	-200,000	0,019	0,118
-244,205	172,836	-0,030	0,032
-243,190	245,997	-0,105	0,128
-242,176	-32,668	-0,042	0,017
-241,161	211,186	-0,078	0,089
-240,146	-51,765	-0,090	0,030
-239,132	-87,162	0,110	0,024
-238,117	-82,887	-0,078	-0,018
-237,103	800,000	-0,014	0,033
-236,088	-104,902	0,179	-0,029
-235,073	-67,249	-0,038	0,011
-234,059	-65,838	0,108	-0,031
-233,044	-200,000	0,008	-0,089
-232,030	-200,000	0,039	-0,199
-231,015	73,904	0,096	-0,073
-230,000	-200,000	-0,015	-0,145
-228,986	800,000	-0,041	-0,097
-227,971	-30,344	0,154	0,063
-226,957	-117,086	0,068	0,009
-225,942	-200,000	-0,017	-0,092
-224,927	353,892	-0,033	0,047
-223,913	-39,076	-0,047	-0,018
-222,898	-200,000	-0,037	-0,139
-221,884	-118,137	0,041	-0,005
-220,869	-182,669	0,123	0,002
-219,855	214,444	0,008	0,010
-218,840	14,748	0,038	0,021
-217,825	255,180	0,124	-0,153
-216,811	800,000	0,016	-0,048
-215,796	-17,538	-0,177	-0,080
-214,782	-74,192	0,072	0,019
-213,767	714,621	-0,033	-0,064
-212,752	212,036	0,138	0,157
-211,738	-200,000	0,033	-0,124
-210,723	252,685	0,039	0,047
-209,709	99,104	0,107	-0,089
-208,694	397,011	0,058	0,088
-207,679	119,807	-0,031	0,028
-206,665	43,387	-0,100	0,065
-205,650	341,872	0,086	0,121
-204,636	-13,117	0,041	-0,019
-203,621	291,461	-0,066	0,086
-202,606	-130,347	-0,102	-0,010
-201,592	636,533	-0,025	0,046
-200,577	-200,000	0,014	-0,069
-199,563	392,306	0,018	-0,028
-198,548	800,000	0,043	-0,105
-197,533	-200,000	-0,008	0,086
-196,519	800,000	-0,037	-0,074
-195,504	455,954	-0,048	-0,077
-194,490	390,277	0,040	-0,059
-193,475	-200,000	-0,025	-0,091
-192,460	24,836	0,083	-0,049
-191,446	35,345	-0,063	-0,039
-190,431	272,942	-0,014	0,017
-189,417	0,990	-0,058	0,030
-188,402	800,000	0,029	0,091
-187,387	-127,871	-0,094	0,010
-186,373	319,594	0,092	-0,126
-185,358	238,370	0,068	0,082
-184,344	472,653	-0,041	0,067
-183,329	800,000	-0,028	0,075
-182,315	383,156	-0,094	0,139
-181,300	-200,000	-0,003	-0,042
-180,285	145,016	-0,054	-0,052
-179,271	106,388	-0,120	-0,102
-178,256	-105,166	-0,070	-0,011
-177,242	-161,642	0,140	-0,005
-176,227	-200,000	0,076	0,000
-175,212	240,723	-0,040	0,048
-174,198	-200,000	0,026	0,185
-173,183	-29,055	-0,074	0,030
-172,169	-200,000	0,010	-0,032
-171,154	38,203	-0,060	0,039
-170,139	-200,000	0,001	0,043
-169,125	-116,149	-0,088	0,012
-168,110	-94,480	0,027	-0,005
-167,096	568,282	0,012	-0,022
-166,081	-200,000	0,027	-0,109
-165,066	-69,276	0,035	-0,009
-164,052	-39,301	0,046	-0,017
-163,037	-151,692	0,067	0,003
-162,023	-122,427	0,109	-0,013
-161,008	423,688	-0,059	0,092
-159,993	133,266	0,119	-0,111
-158,979	-200,000	0,038	-0,136
-157,964	413,341	0,020	-0,030
-156,950	-50,486	-0,126	0,042
-155,935	-169,675	0,103	-0,003
-154,920	-200,000	0,009	-0,036
-153,906	112,001	0,046	-0,040
-152,891	75,215	0,044	0,033
-151,877	63,771	-0,137	0,099
-150,862	-19,234	0,068	-0,030
-149,847	800,000	0,063	-0,166
-148,833	-200,000	0,003	-0,032
-147,818	228,504	0,085	0,100
-146,804	125,180	-0,108	0,098
-145,789	321,210	-0,058	0,079
-144,775	221,580	0,043	0,050
-143,760	-200,000	0,008	-0,069
-142,745	-2,111	0,048	-0,024
-141,731	-200,000	0,018	0,082
-140,716	117,730	-0,075	0,067
-139,702	-200,000	-0,014	0,119
-138,687	49,892	0,125	0,084
-137,672	-85,725	0,081	-0,018
-136,658	178,779	0,116	-0,122
-135,643	398,497	-0,058	0,087
-134,629	48,999	-0,090	0,060
-133,614	-110,555	-0,058	0,009
-132,599	-130,003	0,186	0,018
-131,585	-200,000	0,024	-0,145
-130,570	431,877	-0,002	-0,002
-129,556	34,833	-0,071	-0,045
-128,541	-200,000	-0,008	-0,037
-127,526	-51,953	0,083	0,027
-126,512	203,743	0,049	0,054
-125,497	-95,593	0,044	-0,008
-124,483	-17,142	0,020	-0,009
-123,468	-200,000	-0,014	-0,080
-122,453	133,203	-0,063	0,058
-121,439	118,831	0,053	-0,047
-120,424	-200,000	0,004	-0,051
-119,410	38,459	0,192	-0,123
-118,395	30,482	0,113	0,069
-117,380	46,961	0,046	0,031
-116,366	-200,000	-0,025	0,083
-115,351	-110,533	-0,095	0,014
-114,337	800,000	-0,005	-0,016
-113,322	-18,011	0,098	0,044
-112,307	-200,000	0,007	0,148
-111,293	172,430	0,031	0,032
-110,278	-10,515	0,146	0,069
-109,264	800,000	-0,031	0,063
-108,249	-200,000	0,026	-0,134
-107,234	363,502	-0,103	-0,149
-106,220	-85,209	-0,020	-0,005
-105,205	31,157	0,111	0,068
-104,191	705,776	0,080	0,153
-103,176	-35,138	0,076	0,030
-102,162	11,951	-0,155	0,085
-101,147	255,278	-0,056	-0,069
-100,132	-95,167	-0,096	-0,018
-99,118	-174,576	-0,029	-0,001
-98,103	127,944	0,060	0,055
-97,089	143,560	-0,074	-0,071
-96,074	-111,474	0,092	0,013
-95,059	-35,215	0,072	-0,028
-94,045	93,573	-0,116	0,094
-93,030	79,394	-0,012	-0,009
-92,016	-17,886	-0,097	0,043
-91,001	226,126	-0,041	0,048
-89,986	-200,000	-0,007	0,074
-88,972	-124,608	-0,161	0,018
-87,957	117,901	-0,053	-0,047
-86,943	800,000	0,015	0,049
-85,928	800,000	-0,081	-0,221
-84,913	125,620	0,027	0,024
-83,899	-184,850	-0,051	0,001
-82,884	-139,743	0,045	0,003
-81,870	-135,277	0,220	0,019
-80,855	-138,357	0,069	0,005
-79,840	12,997	-0,155	-0,086
-78,826	-200,000	-0,001	0,014
-77,811	74,548	-0,055	0,042
-76,797	131,920	-0,076	0,070
-75,782	155,807	-0,038	-0,037
-74,767	800,000	-0,034	0,081
-73,753	-200,000	-0,008	0,171
-72,738	-64,769	0,210	-0,061
-71,724	-97,810	0,104	0,019
-70,709	-161,326	0,087	-0,003
-69,694	554,966	-0,075	0,130
-68,680	800,000	0,020	0,044
-67,665	-200,000	-0,000	0,053
-66,651	-55,092	-0,062	0,020
-65,636	-57,410	-0,140	0,044
-64,622	413,668	-0,079	-0,121
-63,607	220,647	0,032	0,036
-62,592	114,415	-0,103	-0,090
-61,578	129,043	-0,126	-0,115
-60,563	-78,245	0,090	-0,022
-59,549	401,310	-0,011	-0,017
-58,534	24,369	-1,970	-1,164
-57,519	-200,000	-0,227	-0,919
-56,505	-200,000	-1,385	-5,189
-55,490	40,527	0,824	0,530
-54,476	800,000	5,360	12,205
-53,461	-200,000	18,379	308,269
-52,446	800,000	738,232	2303,217
-51,432	552,215	1654,086	2855,474
-50,417	110,451	1639,428	1410,269
-49,403	74,012	1289,503	967,597
-48,388	30,541	1030,085	629,125
-47,373	20,010	992,528	571,406
-46,359	17,786	980,050	556,907
-45,344	14,473	976,207	543,845
-44,330	14,773	974,715	543,976
-43,315	14,169	972,729	540,870
-42,300	14,105	971,588	540,004
-41,286	14,099	970,723	539,483
-40,271	14,096	969,917	539,003
-39,257	14,146	968,923	538,593
-38,242	14,170	968,127	538,208
-37,227	14,137	967,280	537,607
-36,213	14,149	966,192	537,020
-35,198	14,060	965,417	536,281
-34,184	14,112	964,792	536,079
-33,169	14,089	963,810	535,440
-32,154	14,155	962,780	535,059
-31,140	14,116	961,889	534,416
-30,125	14,168	961,216	534,189
-29,111	14,131	960,298	533,540
-28,096	14,184	959,708	533,361
-27,082	14,095	959,104	532,718
-26,067	14,103	958,468	532,369
-25,052	14,147	957,529	531,967
-24,038	14,066	957,074	531,433
-23,023	14,064	956,329	530,989
-22,009	14,154	955,578	530,841
-20,994	14,126	955,138	530,488
-19,979	14,140	954,365	530,080
-18,965	14,096	953,810	529,612
-17,950	14,152	953,135	529,393
-16,936	14,101	952,492	528,854
-15,921	14,107	951,781	528,456
-14,906	14,007	951,135	527,757
-13,892	14,005	950,548	527,405
-12,877	14,008	949,816	526,986
-11,863	13,972	949,266	526,547
-10,848	13,969	948,756	526,233
-9,833	14,097	948,113	526,261
-8,819	14,009	947,514	525,629
-7,804	13,981	946,973	525,218
-6,790	14,009	946,389	524,964
-5,775	14,097	945,804	524,897
-4,760	14,051	945,256	524,428
-3,746	14,024	944,493	523,896
-2,731	13,943	943,737	523,200
-1,717	13,859	943,223	522,630
-0,702	13,837	942,532	522,155
0,313	13,669	941,856	522,036
1,327	16,956	939,717	531,178
2,342	25,954	795,181	473,316
3,356	22,800	459,888	268,889
4,371	-3,932	316,504	156,503
5,386	-7,837	298,461	143,596
6,400	-9,692	292,340	138,787
7,415	-10,272	289,630	136,914
8,429	-10,820	287,981	135,584
9,444	-10,936	287,267	135,122
10,459	-10,830	286,441	134,826
11,473	-10,851	285,904	134,540
12,488	-10,984	285,527	134,221
13,502	-10,977	284,884	133,913
14,517	-10,902	284,362	133,729
15,531	-11,266	284,006	133,197
16,546	-11,127	283,598	133,129
17,561	-10,938	282,957	132,999
18,575	-11,125	282,898	132,778
19,590	-11,081	282,368	132,560
20,604	-11,008	281,991	132,441
21,619	-11,292	281,750	132,043
22,634	-11,091	281,494	132,105
23,648	-11,183	281,087	131,814
24,663	-11,133	280,845	131,736
25,677	-11,233	280,623	131,525
26,692	-11,071	280,335	131,533
27,707	-11,226	280,056	131,242
28,721	-11,169	279,758	131,145
29,736	-11,271	279,479	130,905
30,750	-11,282	279,219	130,761
31,765	-11,328	278,975	130,592
32,780	-11,138	278,646	130,607
33,794	-11,214	278,490	130,450
34,809	-11,111	278,054	130,331
35,823	-11,144	278,015	130,271
36,838	-11,217	277,559	129,976
37,853	-11,217	277,398	129,889
38,867	-11,280	277,146	129,700
39,882	-11,114	276,913	129,736
40,896	-11,222	276,643	129,496
41,911	-11,080	276,314	129,464
42,926	-11,293	276,182	129,190
43,940	-11,369	275,886	128,969
44,955	-11,321	275,557	128,849
45,969	-11,376	275,534	128,775
46,984	-11,158	275,186	128,805
47,999	-11,492	275,081	128,431
49,013	-11,499	274,777	128,272
50,028	-11,483	274,656	128,218
51,042	-11,634	274,392	127,943
52,057	-11,529	274,009	127,851
53,071	-11,435	273,889	127,872
54,086	-11,541	273,630	127,641
55,101	-11,395	273,376	127,647
56,115	-11,148	273,179	127,773
57,130	-11,106	273,117	127,771
58,144	-11,107	272,892	127,654
59,159	-11,130	272,656	127,510
60,174	-11,095	272,368	127,397
61,188	-11,152	272,161	127,235
62,203	-11,120	271,823	127,096
63,217	-11,079	271,638	127,036
64,232	-11,132	271,562	126,940
65,247	-11,085	271,303	126,851
66,261	-11,094	270,890	126,638
67,276	-11,134	270,473	126,396
68,290	-11,403	270,483	126,141
69,305	-11,408	270,382	126,079
70,320	-11,095	270,104	126,225
71,334	-11,116	269,942	126,119
72,349	-11,060	269,620	126,009
73,363	-11,090	269,403	125,868
74,378	-10,926	269,135	125,882
75,393	-11,222	269,115	125,591
76,407	-11,056	268,704	125,539
77,422	-11,275	268,605	125,281
78,436	-10,930	268,171	125,382
79,451	-10,959	268,170	125,345
80,466	-11,155	267,767	124,966
81,480	-11,246	267,668	124,826
82,495	-11,137	267,402	124,790
83,509	-11,251	267,228	124,595
84,524	-11,126	266,889	124,539
85,539	-11,181	266,738	124,408
86,553	-11,166	266,704	124,394
87,568	-11,126	266,405	124,279
88,582	-11,053	266,055	124,171
89,597	-11,099	266,094	124,137
90,611	-11,090	265,763	123,980
91,626	-11,129	265,600	123,857
92,641	-11,037	265,391	123,831
93,655	-11,011	265,160	123,736
94,670	-11,008	264,842	123,579
95,684	-11,052	264,627	123,429
96,699	-11,140	264,597	123,325
97,714	-11,067	264,396	123,285
98,728	-11,182	264,002	122,987
99,743	-11,149	263,931	122,973
100,757	-11,124	263,725	122,888
101,772	-11,292	263,704	122,717
102,787	-11,127	263,298	122,665
103,801	-11,088	263,244	122,664
104,816	-11,209	262,998	122,431
105,830	-11,037	262,920	122,536
106,845	-11,040	262,643	122,393
107,860	-11,169	262,484	122,194
108,874	-11,001	262,300	122,247
109,889	-10,943	261,932	122,115
110,903	-10,899	261,743	122,055
111,918	-10,897	261,672	122,013
112,933	-11,149	261,381	121,643
113,947	-10,956	261,278	121,756
114,962	-10,871	260,971	121,677
115,976	-11,027	260,808	121,452
116,991	-11,159	260,455	121,161
118,006	-11,059	260,413	121,219
119,020	-11,048	260,333	121,181
120,035	-11,012	260,136	121,110
121,049	-10,941	259,824	121,015
122,064	-10,987	259,762	120,935
123,079	-11,046	259,577	120,787
124,093	-11,137	259,295	120,565
125,108	-11,137	259,102	120,464
126,122	-11,380	258,973	120,181
127,137	-11,397	258,605	119,984
128,151	-11,317	258,526	120,007
129,166	-11,070	258,194	120,058
130,181	-11,017	258,056	120,029
131,195	-11,368	257,912	119,646
132,210	-10,951	257,633	119,869
133,224	-11,105	257,620	119,718
134,239	-10,985	257,405	119,711
135,254	-11,203	257,477	119,545
136,268	-10,966	257,015	119,525
137,283	-11,246	256,614	119,086
138,297	-11,300	256,598	119,021
139,312	-11,004	256,319	119,137
140,327	-11,114	256,255	119,002
141,341	-10,806	256,045	119,159
142,356	-10,871	255,927	119,037
143,370	-10,911	255,855	118,959
144,385	-10,782	255,405	118,850
145,400	-10,882	255,246	118,680
146,414	-11,019	255,258	118,557
147,429	-10,922	254,930	118,478
148,443	-11,022	254,821	118,330
149,458	-11,012	254,511	118,184
150,473	-10,870	254,348	118,220
151,487	-11,006	254,382	118,108
152,502	-10,835	253,954	118,045
153,516	-10,749	253,732	118,006
154,531	-10,874	253,650	117,850
155,546	-10,998	253,505	117,666
156,560	-10,804	253,296	117,724
157,575	-11,074	253,058	117,373
158,589	-10,889	252,943	117,466
159,604	-11,103	252,672	117,148
160,619	-10,938	252,659	117,272
161,633	-10,836	252,299	117,182
162,648	-10,809	252,270	117,180
163,662	-10,873	252,127	117,049
164,677	-11,000	252,008	116,876
165,692	-10,897	251,806	116,859
166,706	-10,882	251,675	116,800
167,721	-10,770	251,397	116,755
168,735	-10,927	251,315	116,574
169,750	-10,758	251,076	116,596
170,764	-10,715	250,975	116,575
171,779	-10,632	250,847	116,576
172,794	-10,869	250,796	116,341
173,808	-10,659	250,285	116,271
174,823	-10,884	250,139	116,003
175,837	-11,192	249,968	115,654
176,852	-10,967	249,855	115,781
177,867	-10,889	249,676	115,754
178,881	-10,646	249,501	115,866
179,896	-10,747	249,415	115,731
180,910	-10,750	249,042	115,545
181,925	-10,730	248,976	115,521
182,940	-10,727	248,920	115,487
183,954	-10,767	248,694	115,338
184,969	-10,856	248,552	115,187
185,983	-10,938	248,400	115,039
186,998	-10,699	248,247	115,156
188,013	-10,531	247,907	115,129
189,027	-10,777	247,973	114,944
190,042	-10,831	247,774	114,796
191,056	-10,539	247,453	114,881
192,071	-10,708	247,283	114,650
193,086	-10,479	247,212	114,798
194,100	-10,634	246,998	114,560
195,115	-10,658	246,789	114,433
196,129	-10,631	246,678	114,393
197,144	-10,767	246,346	114,116
198,159	-10,719	246,252	114,103
199,173	-10,762	246,063	113,969
200,188	-10,709	245,880	113,919
201,202	-10,663	245,574	113,804
202,217	-10,952	245,383	113,467
203,232	-11,068	245,170	113,263
204,246	-10,463	245,176	113,754
205,261	-9,735	245,383	114,439
206,275	-9,549	245,102	114,451
207,290	-8,076	245,777	115,970
208,304	-5,248	246,854	118,806
209,319	-2,801	247,185	120,978
210,334	-1,962	247,295	121,714
211,348	-1,584	247,299	122,018
212,363	-1,089	247,365	122,449
213,377	-0,577	247,544	122,949
214,392	-0,393	247,322	122,980
215,407	-0,441	247,107	122,822
216,421	-0,202	246,790	122,850
217,436	-0,547	246,750	122,535
218,450	-0,757	246,619	122,287
219,465	-0,362	246,372	122,478
220,480	-0,617	246,308	122,226
221,494	-0,468	246,114	122,241
222,509	-0,443	245,881	122,135
223,523	-0,589	245,756	121,942
224,538	-0,575	245,438	121,785
225,553	-0,646	245,400	121,697
226,567	-0,621	245,340	121,677
227,582	-0,883	245,234	121,399
228,596	-0,542	244,999	121,551
229,611	-0,541	244,804	121,444
230,626	-0,434	244,600	121,419
231,640	-0,561	244,484	121,248
232,655	-0,520	244,301	121,179
233,669	-0,844	244,230	120,870
234,684	-0,788	243,900	120,741
235,699	-0,490	243,829	120,937
236,713	-0,621	243,569	120,692
237,728	-0,629	243,489	120,634
238,742	-0,785	243,221	120,364
239,757	-0,711	243,051	120,329
240,772	-0,590	242,813	120,298
241,786	-0,932	242,831	120,020
242,801	-0,564	242,627	120,206
243,815	-0,461	242,314	120,123
244,830	-0,673	242,396	119,982
245,844	-0,518	242,276	120,037
246,859	-0,569	241,973	119,835
247,874	-0,794	241,838	119,576
248,888	-0,481	241,654	119,726
249,903	-0,473	241,641	119,716
250,917	-0,498	241,458	119,594
251,932	-0,362	241,221	119,575
252,947	-0,634	241,054	119,264
253,961	-0,802	240,871	119,028
254,976	-0,735	240,775	119,024
255,990	-0,464	240,539	119,113
257,005	-0,760	240,416	118,805
258,020	-0,746	240,244	118,721
259,034	-0,667	240,164	118,734
260,049	-0,646	239,973	118,645
261,063	-0,755	239,844	118,484
262,078	-0,819	239,620	118,312
263,093	-0,479	239,445	118,486
264,107	-0,577	239,320	118,335
265,122	-0,407	239,062	118,332
266,136	-0,572	239,132	118,225
267,151	-0,349	238,870	118,262
268,166	-0,506	238,675	118,031
269,180	-0,653	238,479	117,807
270,195	-0,408	238,408	117,955
271,209	-0,412	238,347	117,911
272,224	-0,591	238,216	117,694
273,239	-0,469	237,962	117,655
274,253	-0,431	237,795	117,591
275,268	-0,556	237,625	117,398
276,282	-0,490	237,560	117,408
277,297	-0,402	237,352	117,364
278,312	-0,513	237,228	117,205
279,326	-0,354	236,954	117,184
280,341	-0,386	236,929	117,136
281,355	-0,759	236,723	116,731
282,370	-0,510	236,588	116,849
283,384	-0,497	236,457	116,784
284,399	-0,533	236,258	116,647
285,414	-0,518	236,108	116,575
286,428	-0,511	235,982	116,508
287,443	-0,472	235,876	116,475
288,457	-0,306	235,820	116,567
289,472	-0,387	235,615	116,392
290,487	-0,624	235,416	116,098
291,501	-0,438	235,223	116,138
292,516	-0,575	235,022	115,922
293,530	-0,320	234,782	115,991
294,545	-0,365	234,991	116,049
295,560	-0,364	234,627	115,860
296,574	-0,552	234,560	115,670
297,589	-0,451	234,386	115,653
298,603	-0,567	234,222	115,471
299,618	-0,510	234,182	115,485
300,633	-0,410	234,066	115,496
301,647	-0,369	233,817	115,394
302,662	-0,274	233,594	115,347
303,676	-0,336	233,644	115,314
304,691	-0,339	233,286	115,124
305,706	-0,333	233,129	115,041
306,720	-0,285	233,016	115,012
307,735	-0,249	232,929	114,987
308,749	-0,588	232,770	114,637
309,764	-0,438	232,691	114,704
310,779	-0,534	232,365	114,459
311,793	-0,385	232,264	114,513
312,808	-0,355	232,077	114,433
313,822	-0,479	231,976	114,279
314,837	-0,337	231,904	114,342
315,852	-0,249	231,673	114,285
316,866	-0,265	231,656	114,254
317,881	-0,225	231,433	114,165
318,895	-0,034	231,260	114,215
319,910	-0,266	231,062	113,930
320,925	-0,240	230,950	113,885
321,939	-0,582	230,837	113,558
322,954	-0,102	230,824	113,908
323,968	-0,349	230,628	113,612
324,983	-0,473	230,489	113,439
325,997	-0,272	230,230	113,455
327,012	-0,168	230,170	113,494
328,027	-0,267	229,958	113,303
329,041	-0,210	229,820	113,269
330,056	-0,384	229,768	113,102
331,070	0,006	229,668	113,338
332,085	-0,181	229,377	113,043
333,100	-0,022	229,185	113,058
334,114	-0,103	229,038	112,915
335,129	-0,134	228,879	112,803
336,143	-0,286	228,819	112,648
337,158	-0,011	228,635	112,755
338,173	-0,021	228,508	112,674
339,187	0,051	228,360	112,646
340,202	-0,010	228,191	112,506
341,216	-0,073	228,136	112,422
342,231	-0,227	228,002	112,230
343,246	-0,104	227,878	112,251
344,260	-0,259	227,702	112,038
345,275	-0,025	227,676	112,192
346,289	-0,115	227,416	111,986
347,304	-0,271	227,211	111,757
348,319	0,156	226,993	111,960
349,333	-0,122	226,984	111,738
350,348	-0,042	226,851	111,723
351,362	0,022	226,602	111,638
352,377	-0,201	226,448	111,385
353,392	0,083	226,373	111,550
354,406	0,045	226,256	111,454
355,421	197,152	1318,409	1396,669
356,435	158,120	1451,445	1396,642
