DTS Sentinel unit serial number:	SN410029Multiplexer serial number:	ORYXHardware model number:	OX2-SRSoftware version number:	ORYX F/W v4,00 Oryx Data Collector v3.7.2.0data status	okinstallation	B5 Nyhavnadifferential loss correction	single-endedforward channel	channel 2reverse channel	N/Adate	2023/12/13time	18:02:13forward acquisition time	300,00reverse acquisition time	0,00gamma	499,1914k internal	0,3159k external	0,3159temperature offset calibration	1,0000default loss term (dB/km)	0,3820temperature slope calibration	1,0000multiplexer offset coefficient	1,0000multiplexer slope coefficient	1,0000fibre end	0,00T internal ref (°C)	13,18T ext. ref 1 (°C)	-4,10T ext. ref 2 (°C)	-4,17length (m)	temperature (°C)	Stokes	anti-Stokes-744,400	-153,139	0,087	-0,004
-743,385	-96,826	-0,495	0,095
-742,371	135,250	0,201	0,193
-741,356	32,136	-0,260	0,165
-740,342	486,832	-0,012	0,021
-739,327	-150,460	-0,349	0,019
-738,312	373,057	0,070	-0,106
-737,298	-126,020	-0,340	0,037
-736,283	-12,675	0,110	0,053
-735,269	-109,460	-0,226	-0,035
-734,254	100,885	0,088	0,075
-733,239	-89,728	-0,586	-0,125
-732,225	-49,863	0,233	0,081
-731,210	-200,000	0,013	0,048
-730,196	-46,320	-0,138	0,050
-729,181	91,732	-0,035	0,029
-728,167	-200,000	0,011	-0,119
-727,152	-108,097	-0,141	0,022
-726,137	86,187	-0,061	-0,049
-725,123	-1,079	-0,090	-0,047
-724,108	-200,000	0,003	-0,087
-723,094	-200,000	-0,002	-0,183
-722,079	-200,000	-0,002	0,074
-721,064	576,676	-0,044	0,079
-720,050	-87,257	-0,057	-0,013
-719,035	703,418	0,050	-0,097
-718,021	102,770	-0,070	-0,061
-717,006	-108,509	-0,136	0,021
-715,991	-200,000	-0,029	-0,160
-714,977	-96,721	-0,106	0,020
-713,962	-200,000	0,013	-0,051
-712,948	800,000	0,016	0,033
-711,933	184,685	-0,057	0,062
-710,918	402,864	0,086	-0,134
-709,904	800,000	-0,057	-0,157
-708,889	-200,000	-0,022	-0,109
-707,875	-200,000	-0,007	-0,126
-706,860	-104,228	-0,072	-0,012
-705,845	-115,906	0,061	0,008
-704,831	595,051	-0,033	0,060
-703,816	-200,000	0,011	-0,088
-702,802	23,983	-0,049	0,030
-701,787	-87,110	-0,060	0,013
-700,772	-72,770	0,014	0,004
-699,758	-60,954	0,096	0,030
-698,743	348,268	0,024	0,034
-697,729	65,751	-0,031	0,023
-696,714	-50,612	0,056	-0,019
-695,699	-18,049	-0,111	-0,051
-694,685	800,000	-0,044	-0,092
-693,670	-37,909	-0,033	0,013
-692,656	-200,000	-0,010	-0,216
-691,641	-81,228	0,019	-0,005
-690,627	-200,000	-0,006	-0,033
-689,612	-200,000	-0,011	-0,053
-688,597	-106,274	-0,040	-0,006
-687,583	-200,000	-0,018	-0,161
-686,568	16,144	-0,115	-0,066
-685,554	-200,000	0,009	-0,112
-684,539	266,075	-0,069	-0,088
-683,524	800,000	0,107	0,224
-682,510	629,840	-0,055	0,102
-681,495	628,148	-0,035	-0,066
-680,481	244,805	-0,034	-0,042
-679,466	-152,551	-0,086	-0,004
-678,451	150,134	-0,072	-0,072
-677,437	-10,913	-0,157	0,076
-676,422	-152,871	0,141	0,007
-675,408	174,526	-0,068	0,073
-674,393	800,000	-0,015	0,044
-673,378	-129,554	-0,107	0,011
-672,364	425,691	-0,013	-0,021
-671,349	-200,000	-0,005	-0,044
-670,335	448,297	0,064	-0,104
-669,320	800,000	0,027	0,068
-668,305	226,470	0,141	0,168
-667,291	800,000	0,023	-0,055
-666,276	-200,000	-0,003	0,033
-665,262	117,481	0,031	-0,028
-664,247	39,265	0,090	-0,059
-663,232	-200,000	-0,025	-0,088
-662,218	-200,000	-0,017	-0,065
-661,203	800,000	-0,061	-0,148
-660,189	135,170	0,074	0,070
-659,174	57,681	-0,062	0,044
-658,159	-66,120	0,004	0,001
-657,145	72,967	-0,086	-0,066
-656,130	800,000	-0,040	0,081
-655,116	87,647	-0,084	0,069
-654,101	118,121	-0,039	0,036
-653,086	13,274	0,048	-0,027
-652,072	-13,148	-0,066	-0,032
-651,057	-200,000	-0,017	0,099
-650,043	187,783	0,059	0,065
-649,028	-73,722	0,108	0,029
-648,014	427,519	0,066	0,104
-646,999	-200,000	0,000	0,165
-645,984	-200,000	0,013	0,047
-644,970	-184,222	0,054	0,001
-643,955	800,000	0,042	0,105
-642,941	386,729	-0,028	-0,042
-641,926	-68,781	-0,107	0,030
-640,911	-156,368	0,103	0,005
-639,897	-200,000	0,000	0,022
-638,882	-182,917	-0,033	0,000
-637,868	-104,854	0,083	0,014
-636,853	-185,836	-0,041	-0,000
-635,838	-200,000	0,009	-0,191
-634,824	-52,945	-0,052	0,017
-633,809	-200,000	-0,006	0,127
-632,795	81,494	-0,163	0,129
-631,780	-30,981	0,139	0,057
-630,765	-146,075	-0,017	-0,001
-629,751	185,407	0,054	0,059
-628,736	-18,807	-0,181	-0,082
-627,722	-3,051	-0,120	-0,061
-626,707	-200,000	0,007	-0,060
-625,692	-56,578	0,096	-0,031
-624,678	-31,885	0,136	-0,056
-623,663	-200,000	-0,173	-0,000
-622,649	-200,000	0,021	-0,113
-621,634	142,441	-0,036	0,035
-620,619	114,668	-0,048	-0,043
-619,605	338,381	0,048	0,069
-618,590	99,185	0,061	0,051
-617,576	-11,118	0,103	0,050
-616,561	-140,181	-0,053	-0,004
-615,546	800,000	-0,049	-0,125
-614,532	-62,618	0,176	-0,053
-613,517	207,340	0,095	-0,108
-612,503	72,976	-0,026	0,020
-611,488	-171,481	0,108	0,003
-610,474	-100,327	0,087	0,016
-609,459	-200,000	0,012	-0,178
-608,444	185,769	0,035	-0,038
-607,430	22,498	0,058	0,035
-606,415	800,000	0,006	0,015
-605,401	216,075	0,053	0,062
-604,386	624,999	0,066	-0,122
-603,371	765,160	-0,006	0,012
-602,357	302,058	-0,069	0,094
-601,342	-200,000	0,005	0,079
-600,328	208,483	0,051	0,058
-599,313	3,985	0,146	-0,078
-598,298	-200,000	0,016	0,093
-597,284	47,457	0,022	-0,015
-596,269	514,722	-0,092	0,158
-595,255	290,246	-0,041	-0,055
-594,240	80,264	0,036	0,029
-593,225	-172,423	-0,133	-0,003
-592,211	800,000	0,034	0,106
-591,196	-60,737	0,053	-0,016
-590,182	800,000	-0,029	-0,062
-589,167	-200,000	-0,011	-0,111
-588,152	-40,900	0,017	-0,006
-587,138	-124,114	-0,094	0,011
-586,123	416,674	-0,068	0,106
-585,109	-200,000	-0,001	-0,006
-584,094	800,000	0,029	-0,063
-583,079	641,191	-0,008	0,016
-582,065	305,231	-0,038	-0,052
-581,050	57,652	0,089	-0,063
-580,036	168,734	-0,045	0,047
-579,021	-200,000	-0,007	0,141
-578,006	-126,388	-0,070	0,008
-576,992	800,000	-0,038	-0,083
-575,977	633,849	0,029	-0,054
-574,963	-200,000	0,009	-0,054
-573,948	800,000	0,042	0,130
-572,934	-18,442	-0,099	0,045
-571,919	3,530	-0,041	0,022
-570,904	722,229	0,058	-0,114
-569,890	77,641	-0,196	-0,153
-568,875	-200,000	-0,011	0,107
-567,861	-200,000	0,006	0,047
-566,846	-119,978	-0,111	-0,014
-565,831	-173,500	0,070	0,002
-564,817	800,000	0,021	0,048
-563,802	-200,000	-0,056	-0,182
-562,788	-200,000	-0,008	-0,168
-561,773	800,000	-0,032	-0,096
-560,758	-42,328	0,067	-0,025
-559,744	800,000	0,066	0,185
-558,729	800,000	-0,038	0,101
-557,715	-200,000	0,029	-0,143
-556,700	800,000	-0,043	-0,106
-555,685	-114,614	-0,145	-0,020
-554,671	-28,030	-0,028	-0,012
-553,656	-200,000	-0,006	0,182
-552,642	800,000	0,027	0,076
-551,627	-19,000	0,124	0,056
-550,612	-200,000	0,010	-0,068
-549,598	374,570	-0,047	-0,070
-548,583	-63,273	-0,071	-0,021
-547,569	-200,000	-0,029	0,147
-546,554	-200,000	0,008	-0,029
-545,539	-121,508	0,083	-0,010
-544,525	47,521	-0,021	-0,015
-543,510	-200,000	0,023	-0,083
-542,496	-36,473	0,048	0,019
-541,481	-125,996	-0,118	-0,013
-540,466	800,000	-0,042	-0,104
-539,452	92,216	0,079	-0,065
-538,437	-200,000	-0,013	-0,048
-537,423	-200,000	-0,007	0,081
-536,408	-72,542	0,130	0,035
-535,393	800,000	0,011	0,032
-534,379	139,279	-0,027	0,026
-533,364	800,000	0,015	0,032
-532,350	-2,043	0,102	0,052
-531,335	199,508	0,074	0,083
-530,321	-35,014	0,099	0,039
-529,306	-200,000	-0,062	-0,224
-528,291	-130,144	-0,115	-0,011
-527,277	262,196	-0,081	0,103
-526,262	-47,907	-0,036	0,013
-525,248	-123,581	-0,070	0,008
-524,233	193,294	0,053	0,059
-523,218	387,345	0,048	-0,072
-522,204	295,347	-0,055	0,074
-521,189	23,695	-0,080	0,048
-520,175	-200,000	0,038	0,143
-519,160	-200,000	0,013	-0,062
-518,145	-200,000	-0,002	0,059
-517,131	-200,000	0,003	0,013
-516,116	361,206	-0,041	-0,060
-515,102	-200,000	-0,019	-0,062
-514,087	114,079	0,083	0,074
-513,072	-200,000	0,011	-0,052
-512,058	-200,000	-0,018	-0,095
-511,043	800,000	-0,049	0,116
-510,029	341,743	0,074	-0,106
-509,014	725,987	-0,009	0,018
-507,999	800,000	-0,055	0,120
-506,985	800,000	0,038	-0,113
-505,970	-200,000	-0,012	-0,099
-504,956	-64,797	-0,192	-0,056
-503,941	-34,176	-0,031	0,013
-502,926	99,833	0,119	0,101
-501,912	16,050	0,071	0,041
-500,897	174,259	-0,022	-0,024
-499,883	58,120	-0,105	-0,075
-498,868	-200,000	-0,014	-0,068
-497,853	714,561	-0,075	-0,146
-496,839	800,000	0,031	-0,066
-495,824	-80,596	0,033	0,008
-494,810	-41,619	0,106	0,040
-493,795	-200,000	0,011	-0,074
-492,781	-200,000	-0,031	0,131
-491,766	-200,000	0,035	-0,000
-490,751	-162,088	0,120	-0,004
-489,737	72,082	0,068	0,051
-488,722	-103,964	0,060	0,010
-487,708	-96,455	0,003	-0,001
-486,693	-200,000	0,029	0,134
-485,678	800,000	-0,060	-0,134
-484,664	25,860	-0,126	-0,077
-483,649	59,038	-0,110	0,079
-482,635	17,418	0,039	0,023
-481,620	800,000	0,018	0,041
-480,605	494,621	-0,033	-0,056
-479,591	-200,000	0,029	-0,165
-478,576	800,000	-0,020	0,063
-477,562	116,306	-0,119	-0,107
-476,547	-55,743	0,025	-0,008
-475,532	36,487	0,154	-0,099
-474,518	-32,895	0,066	0,027
-473,503	376,709	-0,001	-0,002
-472,489	-74,305	0,015	-0,004
-471,474	-200,000	0,028	0,143
-470,459	260,535	0,033	-0,041
-469,445	-19,046	0,056	-0,025
-468,430	-82,414	-0,046	-0,011
-467,416	-97,860	0,029	0,005
-466,401	-200,000	-0,014	0,048
-465,386	14,467	0,037	-0,021
-464,372	103,824	0,100	-0,085
-463,357	191,358	0,039	-0,043
-462,343	-11,685	0,044	0,021
-461,328	-20,673	-0,105	-0,047
-460,313	101,475	0,050	0,043
-459,299	6,141	0,084	0,045
-458,284	-200,000	0,002	0,075
-457,270	110,892	0,083	0,073
-456,255	-3,565	-0,050	-0,025
-455,241	-200,000	-0,045	0,182
-454,226	61,094	-0,047	-0,034
-453,211	800,000	0,016	-0,035
-452,197	282,692	0,055	-0,073
-451,182	-200,000	0,011	-0,107
-450,168	-200,000	0,005	-0,047
-449,153	-200,000	-0,010	0,111
-448,138	548,114	-0,021	0,036
-447,124	28,381	-0,049	0,030
-446,109	63,072	-0,108	0,079
-445,095	-24,729	0,047	0,020
-444,080	-66,756	-0,083	-0,024
-443,065	14,184	0,086	-0,049
-442,051	800,000	0,047	0,151
-441,036	-141,532	-0,071	0,005
-440,022	800,000	-0,005	-0,012
-439,007	53,297	0,141	0,098
-437,992	30,587	0,093	0,058
-436,978	704,027	0,099	0,191
-435,963	476,847	-0,033	0,054
-434,949	-200,000	-0,007	-0,050
-433,934	277,672	-0,040	0,052
-432,919	-200,000	-0,023	-0,089
-431,905	52,340	0,051	0,035
-430,890	44,100	-0,081	-0,054
-429,876	-200,000	-0,020	-0,065
-428,861	226,555	0,044	0,052
-427,846	-200,000	0,019	-0,124
-426,832	116,608	0,012	0,010
-425,817	104,071	-0,011	-0,010
-424,803	-67,337	-0,115	0,033
-423,788	800,000	0,056	-0,160
-422,773	-172,841	0,078	0,002
-421,759	-91,668	-0,040	-0,008
-420,744	-34,835	0,120	-0,048
-419,730	-150,165	0,076	-0,004
-418,715	-200,000	0,002	-0,045
-417,701	467,301	-0,074	-0,121
-416,686	185,809	0,079	-0,086
-415,671	-140,307	0,183	-0,014
-414,657	-70,637	0,043	0,012
-413,642	248,442	-0,049	-0,060
-412,628	-200,000	-0,001	-0,065
-411,613	-111,277	-0,020	0,003
-410,598	-200,000	-0,004	0,108
-409,584	-97,520	0,122	-0,023
-408,569	-157,971	0,087	0,004
-407,555	578,481	0,027	0,049
-406,540	-158,082	0,103	-0,004
-405,525	800,000	0,016	0,040
-404,511	-200,000	0,009	-0,101
-403,496	800,000	-0,037	-0,080
-402,482	800,000	-0,052	0,133
-401,467	-44,494	-0,112	-0,041
-400,452	132,050	0,037	-0,034
-399,438	-10,302	-0,065	0,031
-398,423	29,080	0,050	-0,031
-397,409	50,440	0,018	-0,012
-396,394	224,441	-0,091	-0,107
-395,379	-115,405	0,040	0,005
-394,365	117,796	0,089	0,080
-393,350	718,130	0,024	0,046
-392,336	26,691	-0,102	0,062
-391,321	800,000	0,050	-0,119
-390,306	-128,579	-0,047	0,005
-389,292	89,981	0,156	-0,126
-388,277	800,000	-0,004	-0,013
-387,263	53,677	0,171	0,119
-386,248	800,000	0,066	0,147
-385,233	500,774	-0,087	-0,146
-384,219	177,429	-0,082	0,087
-383,204	-200,000	-0,002	-0,033
-382,190	-140,107	-0,063	0,005
-381,175	-200,000	-0,008	-0,094
-380,160	770,040	-0,016	-0,032
-379,146	-68,919	-0,129	0,036
-378,131	53,050	0,065	-0,045
-377,117	-200,000	0,035	0,131
-376,102	53,400	-0,048	-0,033
-375,088	-4,082	-0,087	-0,044
-374,073	-172,481	-0,120	-0,003
-373,058	-84,188	0,155	0,035
-372,044	87,677	-0,043	0,034
-371,029	-200,000	0,002	0,051
-370,015	-95,975	0,047	-0,009
-369,000	-200,000	0,010	-0,094
-367,985	-131,656	0,050	0,005
-366,971	-74,351	0,146	-0,038
-365,956	707,259	-0,049	0,094
-364,942	-152,136	0,148	0,008
-363,927	46,328	-0,027	0,018
-362,912	-200,000	-0,036	0,178
-361,898	-124,195	-0,059	0,007
-360,883	800,000	-0,027	-0,086
-359,869	-116,907	0,054	-0,007
-358,854	12,879	0,108	0,060
-357,839	126,387	0,110	0,101
-356,825	67,861	-0,029	-0,021
-355,810	575,366	0,086	0,153
-354,796	131,715	-0,037	-0,034
-353,781	-200,000	-0,025	-0,104
-352,766	-95,374	-0,050	0,010
-351,752	419,608	-0,068	0,105
-350,737	-161,868	-0,015	-0,001
-349,723	17,309	-0,069	-0,039
-348,708	800,000	-0,042	-0,109
-347,693	132,356	-0,026	0,024
-346,679	-200,000	-0,017	-0,090
-345,664	-146,393	0,194	-0,012
-344,650	-200,000	0,034	-0,140
-343,635	-166,944	-0,078	0,002
-342,620	201,865	-0,011	-0,013
-341,606	209,776	0,035	-0,039
-340,591	800,000	-0,057	0,148
-339,577	-148,659	-0,208	-0,012
-338,562	-200,000	0,009	-0,040
-337,548	-200,000	-0,005	-0,122
-336,533	105,143	0,115	0,098
-335,518	-188,975	-0,075	0,001
-334,504	-200,000	0,010	-0,143
-333,489	800,000	-0,045	-0,100
-332,475	156,854	-0,062	-0,062
-331,460	-200,000	-0,029	-0,167
-330,445	-200,000	-0,002	-0,007
-329,431	-12,727	-0,081	0,038
-328,416	33,156	-0,074	-0,046
-327,402	800,000	-0,062	-0,188
-326,387	500,456	0,029	-0,049
-325,372	-148,181	0,110	0,006
-324,358	91,577	-0,081	0,066
-323,343	-23,234	-0,119	-0,052
-322,329	99,927	-0,037	-0,031
-321,314	-200,000	0,016	0,217
-320,299	800,000	0,023	0,071
-319,285	-61,594	-0,092	-0,028
-318,270	45,525	-0,126	0,084
-317,256	423,462	-0,048	0,074
-316,241	16,979	-0,154	0,088
-315,226	-88,859	0,067	-0,014
-314,212	603,344	0,049	0,089
-313,197	347,895	0,021	-0,030
-312,183	19,207	-0,060	-0,035
-311,168	-200,000	0,004	0,032
-310,153	-70,048	0,104	-0,029
-309,139	4,795	-0,078	-0,041
-308,124	-200,000	-0,005	0,052
-307,110	800,000	0,017	-0,041
-306,095	687,256	0,112	0,212
-305,080	-200,000	-0,004	0,024
-304,066	-64,725	-0,051	-0,015
-303,051	342,271	-0,041	-0,059
-302,037	800,000	-0,061	-0,192
-301,022	273,328	0,071	-0,091
-300,008	102,885	0,083	0,070
-298,993	800,000	0,017	-0,038
-297,978	-200,000	0,010	-0,039
-296,964	327,765	0,042	0,059
-295,949	371,807	-0,030	0,044
-294,935	284,674	0,089	0,117
-293,920	85,413	0,057	-0,045
-292,905	-200,000	0,006	0,052
-291,891	800,000	0,011	-0,033
-290,876	-45,909	0,051	0,018
-289,862	-200,000	0,001	0,018
-288,847	-106,578	-0,192	-0,031
-287,832	-200,000	0,029	0,159
-286,818	800,000	-0,066	0,142
-285,803	97,597	0,061	0,050
-284,789	-132,278	0,028	-0,003
-283,774	-53,010	-0,053	0,017
-282,759	282,535	0,046	0,059
-281,745	-36,647	0,061	-0,023
-280,730	-200,000	-0,015	-0,149
-279,716	13,746	-0,078	-0,044
-278,701	40,934	-0,059	0,039
-277,686	100,232	-0,083	0,070
-276,672	49,249	0,079	0,054
-275,657	800,000	0,034	-0,109
-274,643	-144,097	-0,050	-0,003
-273,628	-56,343	-0,126	0,040
-272,613	266,818	-0,041	-0,052
-271,599	12,610	0,079	-0,044
-270,584	800,000	-0,023	-0,054
-269,570	-19,655	-0,152	-0,068
-268,555	-200,000	-0,007	0,033
-267,540	-200,000	0,003	-0,091
-266,526	800,000	-0,020	-0,054
-265,511	-200,000	0,003	-0,025
-264,497	-87,508	0,109	0,024
-263,482	-113,401	0,063	-0,009
-262,467	717,106	-0,038	0,073
-261,453	297,486	-0,083	0,110
-260,438	118,344	0,046	-0,041
-259,424	-200,000	0,005	-0,032
-258,409	102,245	-0,020	0,017
-257,395	215,577	0,094	0,108
-256,380	-94,740	-0,024	-0,005
-255,365	-200,000	0,019	0,098
-254,351	189,570	-0,106	-0,115
-253,336	305,571	0,069	0,092
-252,322	88,849	-0,105	-0,085
-251,307	70,173	-0,013	-0,010
-250,292	52,438	0,015	-0,010
-249,278	-200,000	0,028	0,146
-248,263	-68,043	0,041	-0,012
-247,249	800,000	0,046	0,101
-246,234	-46,386	-0,044	0,016
-245,219	-72,697	-0,119	-0,031
-244,205	-34,680	-0,132	-0,052
-243,190	800,000	-0,035	0,084
-242,176	191,910	0,068	0,074
-241,161	312,572	0,075	0,102
-240,146	-200,000	0,021	0,174
-239,132	-101,327	0,069	-0,012
-238,117	-200,000	-0,014	0,090
-237,103	190,482	-0,037	0,040
-236,088	-200,000	-0,030	0,137
-235,073	800,000	-0,040	-0,107
-234,059	-115,628	0,129	0,017
-233,044	-97,071	-0,110	0,021
-232,030	-200,000	0,015	-0,085
-231,015	42,068	-0,053	0,035
-230,000	-136,964	-0,118	-0,010
-228,986	95,952	0,077	0,064
-227,971	283,693	-0,112	-0,146
-226,957	530,970	0,023	0,040
-225,942	-200,000	-0,018	-0,139
-224,927	800,000	-0,006	-0,014
-223,913	102,993	-0,065	-0,055
-222,898	16,334	-0,083	-0,047
-221,884	698,703	0,029	-0,056
-220,869	99,993	-0,123	-0,103
-219,855	-67,365	0,074	0,021
-218,840	-26,538	0,085	0,036
-217,825	800,000	-0,114	0,245
-216,811	-118,593	0,062	0,008
-215,796	211,434	-0,117	0,133
-214,782	-133,538	0,035	0,003
-213,767	800,000	-0,028	0,066
-212,752	22,975	0,146	0,086
-211,738	81,336	0,054	0,042
-210,723	34,223	-0,098	-0,061
-209,709	148,425	-0,075	-0,074
-208,694	800,000	-0,082	-0,179
-207,679	108,826	-0,076	-0,065
-206,665	-86,312	0,082	0,018
-205,650	29,531	-0,092	0,056
-204,636	800,000	-0,012	0,034
-203,621	280,727	-0,048	0,062
-202,606	-30,800	0,091	0,037
-201,592	-200,000	-0,003	-0,017
-200,577	14,586	-0,076	0,043
-199,563	-200,000	0,047	-0,152
-198,548	601,257	-0,047	0,085
-197,533	-93,257	0,107	0,021
-196,519	629,555	0,025	0,046
-195,504	800,000	0,020	-0,047
-194,490	419,092	0,011	0,017
-193,475	-200,000	0,018	-0,145
-192,460	-200,000	-0,014	0,071
-191,446	-200,000	-0,002	0,042
-190,431	37,948	0,175	-0,112
-189,417	279,276	-0,055	0,070
-188,402	-11,014	0,039	-0,018
-187,387	-200,000	0,015	-0,057
-186,373	74,999	-0,060	-0,046
-185,358	-200,000	-0,017	0,084
-184,344	-200,000	-0,032	-0,103
-183,329	-200,000	0,015	0,068
-182,315	446,319	0,038	-0,060
-181,300	-200,000	-0,009	0,116
-180,285	-43,829	-0,145	0,052
-179,271	205,880	-0,047	-0,053
-178,256	-200,000	-0,029	-0,152
-177,242	800,000	0,056	0,150
-176,227	529,718	-0,027	-0,047
-175,212	34,737	-0,097	0,061
-174,198	-29,389	0,100	-0,041
-173,183	-108,060	-0,098	-0,015
-172,169	-200,000	-0,003	0,014
-171,154	-200,000	0,061	-0,198
-170,139	599,262	-0,016	-0,028
-169,125	614,255	0,021	0,039
-168,110	-104,768	0,089	0,015
-167,096	-121,151	0,119	-0,014
-166,081	800,000	-0,066	-0,161
-165,066	-19,252	0,127	-0,056
-164,052	-61,770	-0,117	0,035
-163,037	233,872	0,059	0,070
-162,023	-200,000	0,007	0,074
-161,008	-94,658	0,120	-0,023
-159,993	-181,878	-0,169	0,002
-158,979	-53,830	-0,044	-0,014
-157,964	-200,000	-0,018	-0,104
-156,950	-200,000	0,038	-0,138
-155,935	800,000	0,016	-0,035
-154,920	699,176	-0,014	0,027
-153,906	154,378	0,046	0,046
-152,891	-200,000	0,032	0,115
-151,877	-67,577	-0,211	0,059
-150,862	-200,000	-0,010	-0,055
-149,847	-102,125	-0,143	-0,025
-148,833	221,697	0,122	-0,142
-147,818	-200,000	0,032	-0,116
-146,804	800,000	0,067	0,210
-145,789	-69,120	0,181	0,050
-144,775	-23,583	-0,064	-0,028
-143,760	-49,668	0,158	-0,054
-142,745	127,224	-0,056	0,051
-141,731	551,812	-0,057	0,098
-140,716	27,203	-0,086	-0,052
-139,702	-200,000	0,005	0,075
-138,687	800,000	0,009	-0,027
-137,672	-200,000	0,037	0,143
-136,658	-200,000	-0,011	-0,078
-135,643	800,000	-0,028	0,087
-134,629	800,000	-0,043	0,086
-133,614	800,000	0,017	0,038
-132,599	-200,000	-0,003	0,128
-131,585	427,888	-0,032	0,050
-130,570	800,000	0,034	0,106
-129,556	-138,393	-0,099	0,008
-128,541	-28,155	-0,024	0,010
-127,526	443,914	-0,023	0,036
-126,512	-114,871	0,102	0,014
-125,497	-200,000	0,008	-0,059
-124,483	-61,674	0,016	0,005
-123,468	15,317	0,115	0,065
-122,453	62,894	-0,080	0,058
-121,439	-66,522	-0,046	-0,013
-120,424	-200,000	-0,002	0,063
-119,410	-95,257	-0,115	-0,022
-118,395	178,951	0,147	0,154
-117,380	-200,000	-0,030	0,107
-116,366	31,021	0,016	0,010
-115,351	238,111	-0,048	-0,057
-114,337	-56,040	0,007	0,002
-113,322	157,604	0,048	0,047
-112,307	-85,506	-0,123	0,027
-111,293	-27,377	-0,091	0,038
-110,278	235,521	-0,048	0,057
-109,264	101,057	-0,034	-0,028
-108,249	755,143	-0,055	-0,107
-107,234	567,657	-0,110	-0,192
-106,220	96,361	0,125	0,103
-105,205	-157,612	0,097	-0,004
-104,191	-200,000	-0,038	0,121
-103,176	-200,000	-0,034	0,126
-102,162	26,739	-0,077	-0,046
-101,147	-200,000	-0,007	0,059
-100,132	34,036	-0,141	-0,088
-99,118	-200,000	0,016	-0,081
-98,103	-200,000	-0,001	-0,017
-97,089	146,315	-0,035	-0,034
-96,074	-200,000	0,002	-0,009
-95,059	323,510	0,119	0,163
-94,045	-17,911	-0,115	-0,052
-93,030	800,000	0,034	-0,088
-92,016	358,881	-0,065	-0,093
-91,001	676,365	-0,025	0,047
-89,986	-29,936	0,105	0,043
-88,972	254,858	0,088	0,109
-87,957	800,000	0,031	0,076
-86,943	75,788	-0,083	-0,063
-85,928	299,875	-0,009	-0,012
-84,913	5,351	0,141	0,074
-83,899	454,074	-0,040	-0,063
-82,884	-200,000	0,012	0,048
-81,870	-105,665	0,054	0,009
-80,855	255,814	0,114	0,141
-79,840	277,504	0,038	-0,048
-78,826	232,177	0,024	0,029
-77,811	-83,443	-0,197	-0,045
-76,797	-11,785	0,156	-0,073
-75,782	308,947	0,067	-0,090
-74,767	-200,000	0,002	0,091
-73,753	-200,000	-0,009	0,054
-72,738	-144,820	0,093	0,006
-71,724	357,332	0,040	-0,057
-70,709	29,543	-0,027	0,017
-69,694	-4,280	-0,039	0,019
-68,680	81,850	0,080	0,062
-67,665	-200,000	0,000	-0,022
-66,651	-37,129	0,114	0,043
-65,636	23,208	0,082	0,048
-64,622	174,591	-0,134	-0,140
-63,607	-200,000	-0,038	-0,127
-62,592	4,025	0,041	-0,021
-61,578	149,613	0,046	0,045
-60,563	126,418	0,031	-0,028
-59,549	713,649	0,041	0,078
-58,534	25,085	-2,077	-1,234
-57,519	-200,000	0,039	-0,736
-56,505	-200,000	-1,470	-5,182
-55,490	248,325	0,745	0,906
-54,476	800,000	5,255	11,895
-53,461	-200,000	19,171	324,774
-52,446	800,000	744,542	2338,784
-51,432	554,250	1658,528	2872,952
-50,417	112,705	1641,454	1425,540
-49,403	77,845	1291,330	986,204
-48,388	30,419	1032,201	631,221
-47,373	19,766	994,928	573,083
-46,359	16,946	982,784	556,766
-45,344	13,635	979,075	543,734
-44,330	13,907	977,384	543,668
-43,315	13,250	975,339	540,348
-42,300	13,189	974,389	539,600
-41,286	13,196	973,347	539,026
-40,271	13,211	972,507	538,588
-39,257	13,247	971,537	538,148
-38,242	13,255	970,611	537,639
-37,227	13,238	969,709	537,063
-36,213	13,214	968,905	536,518
-35,198	13,192	967,823	535,827
-34,184	13,208	967,310	535,571
-33,169	13,116	966,498	534,803
-32,154	13,226	965,476	534,573
-31,140	13,188	964,411	533,838
-30,125	13,219	963,845	533,605
-29,111	13,237	962,919	533,129
-28,096	13,241	962,130	532,683
-27,082	13,223	961,526	532,269
-26,067	13,213	960,774	531,802
-25,052	13,203	960,054	531,348
-24,038	13,215	959,321	530,962
-23,023	13,220	958,882	530,714
-22,009	13,222	958,093	530,263
-20,994	13,257	957,343	529,938
-19,979	13,277	956,767	529,662
-18,965	13,251	956,033	529,152
-17,950	13,244	955,535	528,832
-16,936	13,131	955,075	528,194
-15,921	13,118	954,624	527,882
-14,906	13,108	953,618	527,274
-13,892	13,149	952,926	527,001
-12,877	13,076	952,172	526,329
-11,863	13,020	951,885	525,970
-10,848	13,090	951,112	525,745
-9,833	13,207	950,553	525,792
-8,819	13,161	949,737	525,170
-7,804	13,139	949,224	524,795
-6,790	13,125	948,645	524,410
-5,775	13,186	948,099	524,281
-4,760	13,129	947,636	523,825
-3,746	13,147	947,006	523,512
-2,731	12,958	946,322	522,511
-1,717	12,875	945,649	521,855
-0,702	12,947	945,008	521,710
0,313	12,775	944,291	521,553
1,327	16,219	941,713	531,005
2,342	25,311	795,519	472,730
3,356	21,171	460,070	267,013
4,371	-6,661	317,975	154,571
5,386	-10,960	299,934	141,380
6,400	-13,076	293,842	136,366
7,415	-13,208	291,389	135,085
8,429	-13,164	289,882	134,418
9,444	-13,150	288,979	134,001
10,459	-13,080	288,411	133,794
11,473	-13,344	287,862	133,268
12,488	-13,350	287,281	132,981
13,502	-13,265	286,889	132,871
14,517	-12,943	286,247	132,877
15,531	-12,621	286,077	133,102
16,546	-12,460	285,709	133,076
17,561	-12,572	285,332	132,780
18,575	-12,565	285,120	132,675
19,590	-12,571	284,640	132,434
20,604	-12,521	284,260	132,295
21,619	-12,541	283,847	132,071
22,634	-12,580	283,882	132,038
23,648	-12,566	283,358	131,796
24,663	-12,433	282,989	131,741
25,677	-12,637	282,911	131,496
26,692	-12,518	282,519	131,417
27,707	-12,594	282,211	131,188
28,721	-12,393	281,894	131,223
29,736	-12,513	281,694	131,003
30,750	-12,706	281,535	130,732
31,765	-12,503	281,013	130,672
32,780	-12,505	280,834	130,576
33,794	-12,559	280,719	130,458
34,809	-12,552	280,343	130,279
35,823	-12,557	280,142	130,169
36,838	-12,405	279,833	130,160
37,853	-12,446	279,587	129,994
38,867	-12,604	279,473	129,779
39,882	-12,572	279,235	129,687
40,896	-12,604	278,940	129,509
41,911	-12,573	278,628	129,381
42,926	-12,654	278,386	129,180
43,940	-12,433	278,142	129,265
44,955	-12,713	277,982	128,914
45,969	-12,558	277,601	128,872
46,984	-12,571	277,469	128,788
47,999	-12,637	277,280	128,626
49,013	-12,691	277,072	128,467
50,028	-12,635	276,773	128,370
51,042	-12,724	276,545	128,168
52,057	-12,738	276,151	127,961
53,071	-12,851	276,138	127,838
54,086	-12,697	275,788	127,809
55,101	-12,899	275,772	127,600
56,115	-12,683	275,321	127,583
57,130	-12,642	275,162	127,536
58,144	-12,699	274,941	127,369
59,159	-12,647	274,709	127,298
60,174	-12,750	274,459	127,075
61,188	-12,653	274,265	127,064
62,203	-12,565	274,068	127,044
63,217	-12,460	273,774	126,995
64,232	-12,547	273,657	126,848
65,247	-12,651	273,397	126,620
66,261	-12,681	272,880	126,341
67,276	-12,648	272,853	126,348
68,290	-12,630	272,504	126,192
69,305	-12,766	272,319	125,968
70,320	-12,791	272,245	125,900
71,334	-12,433	271,856	126,039
72,349	-12,609	271,780	125,831
73,363	-12,613	271,485	125,679
74,378	-12,740	271,213	125,425
75,393	-12,550	271,042	125,509
76,407	-12,631	270,807	125,315
77,422	-12,631	270,783	125,293
78,436	-12,577	270,273	125,095
79,451	-12,691	270,082	124,891
80,466	-12,711	270,017	124,831
81,480	-12,555	269,623	124,781
82,495	-12,477	269,590	124,826
83,509	-12,446	269,370	124,742
84,524	-12,493	269,120	124,571
85,539	-12,684	269,023	124,341
86,553	-12,577	268,623	124,243
87,568	-12,580	268,373	124,113
88,582	-12,782	268,447	123,952
89,597	-12,629	268,107	123,923
90,611	-12,539	267,694	123,804
91,626	-12,520	267,739	123,831
92,641	-12,821	267,555	123,461
93,655	-12,579	267,187	123,500
94,670	-12,626	267,019	123,368
95,684	-12,495	266,836	123,392
96,699	-12,675	266,522	123,073
97,714	-12,688	266,326	122,959
98,728	-12,415	266,234	123,152
99,743	-12,548	266,145	122,980
100,757	-12,612	265,855	122,777
101,772	-12,876	265,748	122,479
102,787	-12,895	265,439	122,308
103,801	-12,693	265,276	122,405
104,816	-12,639	265,014	122,321
105,830	-12,631	264,876	122,254
106,845	-12,691	264,702	122,108
107,860	-12,583	264,339	122,027
108,874	-12,788	264,250	121,791
109,889	-12,918	264,019	121,558
110,903	-12,738	263,502	121,470
111,918	-12,669	263,448	121,495
112,933	-12,692	263,321	121,405
113,947	-12,662	263,216	121,373
114,962	-12,731	262,937	121,172
115,976	-12,823	262,908	121,066
116,991	-12,721	262,541	120,977
118,006	-12,665	262,376	120,940
119,020	-12,867	262,304	120,716
120,035	-12,641	262,152	120,836
121,049	-12,651	261,925	120,713
122,064	-12,693	261,691	120,556
123,079	-12,572	261,400	120,519
124,093	-12,850	261,226	120,182
125,108	-12,678	261,098	120,264
126,122	-12,611	260,753	120,154
127,137	-12,601	260,678	120,117
128,151	-12,611	260,557	120,042
129,166	-12,737	260,174	119,744
130,181	-12,765	260,026	119,640
131,195	-12,863	259,854	119,464
132,210	-12,902	259,735	119,365
133,224	-12,730	259,502	119,399
134,239	-12,671	259,268	119,332
135,254	-12,706	258,941	119,139
136,268	-12,801	258,735	118,951
137,283	-12,822	258,673	118,894
138,297	-12,740	258,475	118,864
139,312	-12,873	258,146	118,585
140,327	-12,597	258,005	118,751
141,341	-12,562	257,895	118,721
142,356	-12,850	257,861	118,443
143,370	-12,765	257,499	118,340
144,385	-12,442	257,307	118,523
145,400	-12,500	257,113	118,372
146,414	-12,548	256,972	118,255
147,429	-12,607	256,715	118,075
148,443	-12,542	256,581	118,059
149,458	-12,496	256,281	117,951
150,473	-12,447	256,142	117,919
151,487	-12,711	256,106	117,663
152,502	-12,452	255,848	117,758
153,516	-12,663	255,740	117,515
154,531	-12,562	255,445	117,457
155,546	-12,510	255,317	117,432
156,560	-12,759	254,975	117,049
157,575	-12,779	254,780	116,932
158,589	-12,860	254,647	116,792
159,604	-12,541	254,561	117,016
160,619	-12,556	254,379	116,909
161,633	-12,403	254,086	116,896
162,648	-12,386	254,130	116,920
163,662	-12,500	253,916	116,713
164,677	-12,526	253,685	116,574
165,692	-12,489	253,418	116,473
166,706	-12,439	253,424	116,508
167,721	-12,140	253,026	116,569
168,735	-12,428	252,994	116,299
169,750	-12,562	252,789	116,079
170,764	-12,559	252,609	115,990
171,779	-12,541	252,414	115,904
172,794	-12,479	252,393	115,938
173,808	-12,827	252,158	115,523
174,823	-12,679	251,884	115,513
175,837	-12,944	251,809	115,243
176,852	-12,756	251,506	115,254
177,867	-12,603	251,517	115,379
178,881	-12,682	251,378	115,237
179,896	-12,477	251,134	115,289
180,910	-12,321	250,757	115,238
181,925	-12,486	250,598	115,015
182,940	-12,693	250,670	114,862
183,954	-12,495	250,338	114,867
184,969	-12,513	250,278	114,815
185,983	-12,504	250,179	114,766
186,998	-12,364	250,023	114,803
188,013	-12,455	249,661	114,549
189,027	-12,629	249,508	114,323
190,042	-12,713	249,268	114,132
191,056	-12,692	249,070	114,049
192,071	-12,811	248,778	113,805
193,086	-12,823	248,632	113,718
194,100	-12,846	248,505	113,631
195,115	-12,520	248,395	113,843
196,129	-12,641	248,179	113,633
197,144	-12,686	247,952	113,481
198,159	-12,913	247,684	113,159
199,173	-12,762	247,590	113,232
200,188	-12,916	247,231	112,929
201,202	-13,034	247,293	112,850
202,217	-12,688	247,015	113,000
203,232	-12,784	246,754	112,791
204,246	-13,195	246,435	112,294
205,261	-14,058	245,917	111,333
206,275	-13,772	246,043	111,618
207,290	-9,797	247,561	115,606
208,304	-3,012	249,847	122,352
209,319	1,568	251,002	126,752
210,334	2,453	251,226	127,596
211,348	2,955	251,456	128,123
212,363	3,601	251,197	128,520
213,377	3,466	251,268	128,432
214,392	3,785	251,159	128,632
215,407	3,977	250,898	128,648
216,421	4,064	250,759	128,638
217,436	4,095	250,528	128,533
218,450	3,727	250,536	128,220
219,465	3,822	250,255	128,143
220,480	3,722	250,124	127,981
221,494	3,481	249,753	127,580
222,509	3,095	249,591	127,164
223,523	2,886	249,356	126,859
224,538	2,764	249,105	126,619
225,553	2,609	248,872	126,361
226,567	2,625	248,626	126,238
227,582	2,622	248,554	126,188
228,596	2,667	248,317	126,093
229,611	2,477	248,129	125,830
230,626	2,478	247,883	125,694
231,640	2,713	247,623	125,745
232,655	2,563	247,588	125,593
233,669	2,450	247,567	125,478
234,684	2,462	247,359	125,371
235,699	2,722	247,312	125,550
236,713	2,735	247,187	125,485
237,728	2,647	246,902	125,258
238,742	2,615	246,667	125,101
239,757	2,576	246,588	125,017
240,772	2,642	246,442	124,987
241,786	2,700	246,266	124,934
242,801	2,509	245,920	124,591
243,815	2,492	245,927	124,569
244,830	2,525	245,815	124,529
245,844	2,626	245,674	124,528
246,859	2,557	245,402	124,324
247,874	2,800	245,299	124,459
248,888	2,687	245,130	124,270
249,903	2,580	244,971	124,091
250,917	2,876	244,884	124,276
251,932	2,841	244,738	124,163
252,947	3,094	244,307	124,139
253,961	2,904	244,381	124,011
254,976	2,601	244,284	123,704
255,990	2,786	244,062	123,731
257,005	2,634	243,956	123,543
258,020	2,779	243,776	123,559
259,034	2,750	243,529	123,399
260,049	2,743	243,403	123,318
261,063	2,727	243,210	123,197
262,078	2,827	243,159	123,241
263,093	2,730	242,949	123,044
264,107	2,699	242,702	122,884
265,122	2,452	242,724	122,685
266,136	2,823	242,482	122,850
267,151	2,839	242,434	122,827
268,166	2,582	242,310	122,547
269,180	2,383	241,967	122,203
270,195	2,771	241,705	122,371
271,209	2,778	241,824	122,426
272,224	2,512	241,652	122,114
273,239	2,705	241,288	122,074
274,253	2,731	241,140	122,010
275,268	2,832	240,854	121,935
276,282	2,607	240,803	121,718
277,297	2,737	240,688	121,753
278,312	2,801	240,414	121,654
279,326	2,600	240,470	121,511
280,341	2,572	240,269	121,377
281,355	2,521	240,172	121,277
282,370	2,747	239,992	121,355
283,384	2,734	239,829	121,251
284,399	2,653	239,758	121,140
285,414	2,739	239,498	121,066
286,428	2,730	239,375	120,986
287,443	2,620	239,323	120,861
288,457	2,520	239,115	120,667
289,472	2,431	238,918	120,486
290,487	2,785	238,590	120,589
291,501	2,447	238,710	120,372
292,516	2,748	238,363	120,424
293,530	2,607	238,238	120,239
294,545	2,603	238,143	120,177
295,560	2,671	238,015	120,155
296,574	2,680	237,874	120,081
297,589	2,678	237,662	119,961
298,603	2,837	237,570	120,029
299,618	2,680	237,356	119,787
300,633	2,638	237,150	119,639
301,647	2,722	237,092	119,665
302,662	2,792	237,055	119,691
303,676	2,906	236,837	119,660
304,691	2,754	236,737	119,479
305,706	2,787	236,554	119,402
306,720	2,920	236,223	119,328
307,735	2,929	236,208	119,317
308,749	2,899	236,012	119,184
309,764	2,727	235,760	118,912
310,779	2,742	235,570	118,817
311,793	2,670	235,421	118,675
312,808	2,766	235,231	118,644
313,822	2,574	235,380	118,559
314,837	3,119	235,129	118,846
315,852	2,790	235,031	118,530
316,866	3,008	234,845	118,595
317,881	2,897	234,660	118,405
318,895	3,127	234,516	118,499
319,910	2,907	234,303	118,211
320,925	2,791	234,263	118,091
321,939	2,702	234,102	117,930
322,954	2,948	233,908	118,012
323,968	2,540	233,878	117,671
324,983	2,743	233,678	117,716
325,997	2,663	233,505	117,557
327,012	2,773	233,451	117,604
328,027	2,759	233,233	117,473
329,041	2,907	233,061	117,490
330,056	2,913	232,922	117,414
331,070	2,873	232,785	117,304
332,085	2,824	232,578	117,151
333,100	2,724	232,381	116,965
334,114	2,617	232,275	116,819
335,129	2,638	232,181	116,777
336,143	2,742	232,046	116,779
337,158	2,931	231,881	116,831
338,173	2,677	231,808	116,589
339,187	2,916	231,570	116,641
340,202	2,756	231,433	116,440
341,216	2,826	231,187	116,359
342,231	2,723	231,122	116,237
343,246	2,774	230,861	116,134
344,260	2,753	230,854	116,105
345,275	2,792	230,694	116,044
346,289	2,850	230,531	115,995
347,304	2,742	230,310	115,792
348,319	3,158	230,033	115,958
349,333	2,842	229,974	115,678
350,348	2,981	229,896	115,734
351,362	2,857	229,751	115,557
352,377	2,844	229,642	115,481
353,392	2,634	229,521	115,251
354,406	2,580	229,278	115,078
355,421	194,373	1316,180	1388,218
356,435	155,886	1448,550	1388,161
