DTS Sentinel unit serial number:	SN410029Multiplexer serial number:	ORYXHardware model number:	OX2-SRSoftware version number:	ORYX F/W v4,00 Oryx Data Collector v3.7.2.0data status	okinstallation	B5 Nyhavnadifferential loss correction	single-endedforward channel	channel 2reverse channel	N/Adate	2023/12/12time	20:17:13forward acquisition time	300,00reverse acquisition time	0,00gamma	499,1914k internal	0,3157k external	0,3157temperature offset calibration	1,0000default loss term (dB/km)	0,3820temperature slope calibration	1,0000multiplexer offset coefficient	1,0000multiplexer slope coefficient	1,0000fibre end	0,00T internal ref (°C)	15,28T ext. ref 1 (°C)	-1,39T ext. ref 2 (°C)	-1,71length (m)	temperature (°C)	Stokes	anti-Stokes-744,400	-124,045	0,073	0,008
-743,385	-35,165	-0,360	0,144
-742,371	800,000	-0,016	0,041
-741,356	-60,008	-0,390	-0,122
-740,342	209,181	0,102	0,118
-739,327	72,445	-0,338	0,259
-738,312	800,000	0,030	0,079
-737,298	14,043	-0,230	-0,132
-736,283	406,413	0,087	-0,135
-735,269	-198,442	-0,232	0,001
-734,254	266,504	-0,050	-0,064
-733,239	-42,617	-0,491	-0,183
-732,225	-21,820	0,144	0,064
-731,210	-200,000	-0,021	-0,079
-730,196	-29,857	-0,068	-0,028
-729,181	800,000	-0,074	-0,155
-728,167	109,433	0,090	-0,080
-727,152	-89,600	-0,057	0,012
-726,137	325,469	-0,111	-0,157
-725,123	-200,000	0,003	0,055
-724,108	-200,000	-0,027	-0,111
-723,094	180,746	-0,048	-0,052
-722,079	-200,000	0,016	0,189
-721,064	160,475	-0,037	0,038
-720,050	-136,899	-0,068	-0,006
-719,035	284,627	0,052	0,069
-718,021	-32,087	-0,047	-0,019
-717,006	-12,356	-0,108	-0,052
-715,991	-200,000	-0,011	-0,108
-714,977	231,985	-0,163	-0,197
-713,962	-76,972	-0,181	-0,046
-712,948	-200,000	-0,031	-0,108
-711,933	283,924	-0,041	-0,055
-710,918	800,000	0,043	0,107
-709,904	-45,713	-0,161	-0,058
-708,889	13,403	-0,135	-0,077
-707,875	-174,660	-0,150	-0,003
-706,860	341,753	0,109	-0,158
-705,845	-145,287	-0,029	-0,002
-704,831	800,000	0,038	0,088
-703,816	-200,000	0,001	0,070
-702,802	-200,000	0,015	-0,129
-701,787	-44,222	0,110	-0,040
-700,772	-62,946	-0,033	-0,010
-699,758	-200,000	0,014	-0,052
-698,743	-101,668	0,154	0,027
-697,729	-200,000	0,008	-0,032
-696,714	437,633	-0,058	0,093
-695,699	57,075	0,038	0,027
-694,685	313,430	-0,060	-0,084
-693,670	-200,000	0,009	-0,043
-692,656	800,000	0,039	0,082
-691,641	-108,583	0,073	-0,011
-690,627	184,694	0,054	0,059
-689,612	174,371	0,087	-0,092
-688,597	800,000	0,022	0,054
-687,583	800,000	-0,080	-0,222
-686,568	-24,514	-0,153	-0,067
-685,554	734,149	0,010	0,020
-684,539	515,094	0,045	-0,078
-683,524	-1,914	0,084	-0,043
-682,510	508,812	-0,037	0,064
-681,495	-22,869	-0,053	-0,023
-680,481	-110,544	-0,182	-0,027
-679,466	84,757	-0,071	-0,057
-678,451	-71,939	-0,121	0,033
-677,437	-200,000	-0,013	0,080
-676,422	224,157	0,036	-0,043
-675,408	-200,000	-0,011	0,056
-674,393	-39,880	-0,065	-0,025
-673,378	99,385	-0,110	-0,093
-672,364	-166,965	0,052	-0,002
-671,349	-135,294	-0,079	0,007
-670,335	-172,868	0,100	0,002
-669,320	-200,000	-0,004	0,072
-668,305	-200,000	0,003	0,018
-667,291	-200,000	-0,004	-0,088
-666,276	57,421	0,178	-0,128
-665,262	-200,000	-0,048	-0,161
-664,247	165,934	0,097	-0,101
-663,232	800,000	0,041	-0,113
-662,218	-158,678	0,136	-0,006
-661,203	800,000	0,028	-0,063
-660,189	-200,000	-0,012	-0,056
-659,174	-200,000	0,005	0,181
-658,159	8,444	-0,094	-0,052
-657,145	215,218	-0,124	0,145
-656,130	-200,000	-0,035	0,138
-655,116	-47,323	-0,037	0,013
-654,101	35,829	0,034	0,022
-653,086	-148,411	0,049	0,003
-652,072	78,975	-0,079	-0,062
-651,057	800,000	-0,085	-0,174
-650,043	238,401	0,009	0,011
-649,028	-200,000	-0,008	0,055
-648,014	-200,000	0,012	0,070
-646,999	800,000	0,023	-0,068
-645,984	-200,000	-0,018	-0,070
-644,970	800,000	-0,004	-0,009
-643,955	91,261	-0,042	0,035
-642,941	-200,000	-0,002	0,030
-641,926	141,106	0,032	0,031
-640,911	542,804	0,065	-0,114
-639,897	-104,280	-0,104	0,017
-638,882	71,350	-0,103	0,078
-637,868	-146,769	0,071	0,004
-636,853	-86,768	-0,094	-0,021
-635,838	-26,113	0,140	-0,060
-634,824	-200,000	-0,012	-0,097
-633,809	165,347	-0,042	0,043
-632,795	800,000	-0,031	0,075
-631,780	405,099	0,069	0,107
-630,765	247,362	0,046	-0,058
-629,751	-200,000	0,004	-0,032
-628,736	145,300	-0,071	0,070
-627,722	-139,010	0,121	0,009
-626,707	-200,000	0,030	-0,118
-625,692	800,000	-0,021	-0,050
-624,678	-200,000	-0,031	0,112
-623,663	800,000	0,016	0,036
-622,649	27,381	-0,035	-0,022
-621,634	-200,000	-0,012	-0,208
-620,619	310,205	0,094	-0,129
-619,605	-153,521	0,036	0,002
-618,590	-14,109	0,074	-0,035
-617,576	-63,482	-0,045	-0,014
-616,561	-146,121	0,018	0,001
-615,546	-200,000	-0,003	-0,087
-614,532	-200,000	0,012	0,074
-613,517	800,000	0,026	-0,082
-612,503	-200,000	-0,005	0,133
-611,488	-200,000	-0,006	0,032
-610,474	-18,363	0,036	-0,016
-609,459	19,935	-0,068	0,040
-608,444	-200,000	-0,001	-0,051
-607,430	-200,000	0,000	-0,048
-606,415	193,803	-0,078	0,087
-605,401	-108,146	0,116	-0,018
-604,386	298,030	-0,068	0,092
-603,371	-131,660	-0,138	-0,013
-602,357	-65,198	0,029	0,009
-601,342	537,964	-0,086	0,150
-600,328	-200,000	0,003	0,015
-599,313	11,204	0,041	0,023
-598,298	5,599	-0,017	-0,009
-597,284	-160,020	0,211	0,008
-596,269	800,000	0,044	0,097
-595,255	-200,000	0,007	0,084
-594,240	-108,578	-0,090	-0,014
-593,225	-3,767	-0,098	-0,050
-592,211	291,893	0,093	-0,124
-591,196	800,000	-0,067	-0,158
-590,182	421,415	0,065	0,103
-589,167	101,581	0,046	0,039
-588,152	-27,010	-0,061	-0,026
-587,138	79,585	0,084	0,066
-586,123	-36,899	-0,023	0,009
-585,109	437,494	-0,054	-0,087
-584,094	32,787	-0,121	-0,077
-583,079	7,364	0,087	-0,048
-582,065	-34,244	0,089	0,036
-581,050	-200,000	0,000	0,023
-580,036	187,376	0,047	-0,051
-579,021	188,446	-0,056	-0,061
-578,006	-50,648	-0,037	0,013
-576,992	-38,478	-0,038	-0,015
-575,977	800,000	0,001	-0,004
-574,963	-200,000	0,002	-0,037
-573,948	800,000	0,026	0,062
-572,934	-200,000	-0,023	0,141
-571,919	-35,509	-0,120	0,047
-570,904	112,783	0,089	-0,079
-569,890	-144,599	-0,035	-0,002
-568,875	-200,000	-0,011	0,079
-567,861	-48,605	-0,082	0,029
-566,846	800,000	0,006	0,016
-565,831	-54,848	0,069	-0,023
-564,817	800,000	0,031	-0,098
-563,802	-106,895	-0,041	0,007
-562,788	247,837	-0,063	-0,078
-561,773	113,063	-0,078	-0,069
-560,758	21,095	-0,055	-0,033
-559,744	13,449	0,073	-0,041
-558,729	478,867	-0,066	-0,110
-557,715	-200,000	-0,003	-0,066
-556,700	-200,000	0,020	-0,066
-555,685	710,521	-0,012	-0,024
-554,671	-200,000	-0,008	0,069
-553,656	800,000	0,031	0,083
-552,642	-15,476	-0,073	0,034
-551,627	53,848	-0,106	0,074
-550,612	10,029	0,024	0,013
-549,598	15,906	-0,181	-0,104
-548,583	-177,193	0,065	0,001
-547,569	352,358	0,085	-0,123
-546,554	-200,000	-0,004	0,016
-545,539	229,910	0,092	0,110
-544,525	800,000	0,090	0,236
-543,510	-88,217	-0,103	-0,022
-542,496	-200,000	0,034	-0,119
-541,481	229,185	-0,082	-0,098
-540,466	-87,469	0,107	-0,023
-539,452	-125,687	0,071	-0,008
-538,437	-24,931	0,022	-0,010
-537,423	-42,769	0,042	0,016
-536,408	238,618	-0,073	0,089
-535,393	148,942	-0,099	-0,098
-534,379	111,314	0,034	-0,030
-533,364	-200,000	0,046	0,167
-532,350	800,000	0,021	-0,060
-531,335	-200,000	0,003	-0,019
-530,321	-29,525	-0,065	-0,027
-529,306	-200,000	0,001	0,036
-528,291	-116,087	0,053	0,007
-527,277	58,608	-0,083	0,060
-526,262	-200,000	-0,002	0,026
-525,248	276,547	-0,033	0,043
-524,233	221,109	0,059	0,070
-523,218	-33,982	0,145	0,058
-522,204	-66,254	-0,079	0,023
-521,189	-200,000	-0,009	-0,033
-520,175	100,401	0,071	-0,060
-519,160	4,441	-0,133	-0,071
-518,145	514,914	-0,073	0,124
-517,131	197,835	-0,063	0,070
-516,116	330,242	0,011	0,015
-515,102	175,903	-0,054	-0,057
-514,087	65,395	0,048	0,035
-513,072	237,059	0,090	-0,109
-512,058	64,438	0,049	-0,036
-511,043	800,000	0,056	0,118
-510,029	-41,660	0,146	0,054
-509,014	-200,000	0,001	0,009
-507,999	5,741	-0,080	-0,043
-506,985	-200,000	0,022	0,143
-505,970	536,216	-0,026	-0,045
-504,956	115,272	0,120	-0,107
-503,941	-200,000	0,007	-0,053
-502,926	-200,000	-0,018	0,065
-501,912	-200,000	0,002	-0,054
-500,897	-159,200	0,082	0,003
-499,883	37,380	0,075	0,049
-498,868	-107,546	-0,032	0,005
-497,853	800,000	0,008	-0,020
-496,839	705,385	-0,015	-0,030
-495,824	40,498	0,038	0,025
-494,810	-125,647	0,135	-0,015
-493,795	-45,744	-0,030	-0,011
-492,781	304,689	-0,024	-0,033
-491,766	-200,000	0,057	-0,239
-490,751	72,473	-0,075	-0,057
-489,737	173,842	-0,043	0,045
-488,722	646,785	-0,039	0,073
-487,708	84,073	-0,013	0,011
-486,693	-67,149	0,074	0,021
-485,678	39,741	-0,090	-0,059
-484,664	-200,000	-0,034	-0,193
-483,649	-200,000	0,006	-0,117
-482,635	-49,973	0,098	-0,034
-481,620	-59,189	-0,050	0,016
-480,605	-15,236	0,135	0,063
-479,591	800,000	-0,014	0,042
-478,576	166,106	-0,052	-0,054
-477,562	28,053	0,021	-0,013
-476,547	800,000	-0,022	0,060
-475,532	-200,000	0,044	-0,159
-474,518	251,822	0,070	-0,087
-473,503	-136,984	0,101	-0,008
-472,489	652,142	0,032	0,060
-471,474	-200,000	0,026	-0,118
-470,459	40,510	0,076	-0,050
-469,445	488,739	0,019	-0,032
-468,430	-100,698	-0,110	-0,020
-467,416	235,616	-0,059	-0,071
-466,401	-134,668	0,143	0,012
-465,386	800,000	0,020	-0,049
-464,372	102,451	-0,040	0,034
-463,357	252,176	-0,050	-0,062
-462,343	407,311	-0,089	-0,138
-461,328	199,954	-0,072	-0,081
-460,313	334,268	0,130	0,184
-459,299	-112,184	0,109	0,016
-458,284	36,619	-0,061	0,039
-457,270	-200,000	0,008	0,062
-456,255	800,000	0,021	0,065
-455,241	89,321	-0,132	0,108
-454,226	-76,027	-0,069	0,018
-453,211	380,308	-0,044	0,065
-452,197	75,333	-0,098	0,076
-451,182	-200,000	0,017	-0,058
-450,168	59,505	-0,048	-0,034
-449,153	-38,618	-0,170	-0,065
-448,138	-200,000	0,014	-0,103
-447,124	-80,854	0,025	-0,006
-446,109	0,556	0,094	0,049
-445,095	-40,382	0,092	0,035
-444,080	255,779	0,105	0,131
-443,065	-200,000	-0,016	0,085
-442,051	-34,241	0,065	0,026
-441,036	91,976	-0,158	-0,130
-440,022	395,937	-0,032	-0,049
-439,007	192,950	0,034	0,038
-437,992	-200,000	-0,012	0,050
-436,978	172,050	0,046	0,048
-435,963	-200,000	-0,015	0,087
-434,949	-56,568	-0,044	-0,014
-433,934	-200,000	-0,030	0,131
-432,919	455,041	-0,099	-0,160
-431,905	659,013	0,081	-0,153
-430,890	117,105	0,046	0,041
-429,876	-11,713	0,064	-0,030
-428,861	172,428	0,022	-0,023
-427,846	464,066	-0,025	0,041
-426,832	556,533	0,084	-0,148
-425,817	102,265	-0,102	-0,086
-424,803	-200,000	-0,010	0,111
-423,788	-200,000	0,012	0,076
-422,773	658,971	0,070	0,132
-421,759	-65,715	-0,083	0,024
-420,744	-26,945	-0,077	-0,033
-419,730	-121,278	0,042	0,005
-418,715	-200,000	0,000	-0,049
-417,701	515,008	-0,109	-0,186
-416,686	160,952	0,149	0,151
-415,671	188,663	-0,032	-0,035
-414,657	263,450	0,058	-0,074
-413,642	245,988	0,102	0,125
-412,628	465,600	0,034	0,056
-411,613	-182,550	-0,163	0,002
-410,598	22,081	0,073	-0,043
-409,584	-64,647	0,092	-0,027
-408,569	-200,000	-0,003	0,071
-407,555	-200,000	0,007	0,038
-406,540	-2,324	-0,053	-0,027
-405,525	-44,550	-0,197	0,071
-404,511	176,845	0,070	0,074
-403,496	108,764	0,025	-0,022
-402,482	-86,196	-0,054	0,012
-401,467	-200,000	0,002	0,050
-400,452	-200,000	0,001	0,070
-399,438	-36,270	0,068	-0,026
-398,423	40,149	0,057	0,037
-397,409	-46,563	-0,113	-0,040
-396,394	580,220	-0,013	-0,024
-395,379	427,066	0,022	0,035
-394,365	-200,000	-0,004	0,125
-393,350	-200,000	-0,041	0,162
-392,336	-114,100	-0,078	-0,011
-391,321	-61,149	0,037	0,011
-390,306	36,474	-0,076	0,049
-389,292	800,000	-0,040	-0,087
-388,277	-200,000	0,027	0,122
-387,263	-128,974	-0,092	-0,009
-386,248	322,428	-0,055	0,076
-385,233	-200,000	-0,007	-0,065
-384,219	614,245	0,028	-0,052
-383,204	-200,000	-0,010	0,100
-382,190	-40,987	0,048	0,018
-381,175	55,902	-0,063	-0,044
-380,160	171,481	-0,015	-0,016
-379,146	-61,820	0,207	-0,062
-378,131	800,000	0,067	0,182
-377,117	-84,716	-0,165	0,038
-376,102	800,000	-0,014	-0,042
-375,088	779,655	-0,050	-0,100
-374,073	121,991	0,029	-0,026
-373,058	279,822	-0,090	0,117
-372,044	-131,483	-0,107	0,010
-371,029	-200,000	0,013	-0,046
-370,015	800,000	0,068	-0,155
-369,000	209,392	-0,034	-0,038
-367,985	-92,851	-0,114	0,023
-366,971	291,265	-0,055	-0,073
-365,956	-44,174	-0,052	-0,019
-364,942	-89,967	-0,035	0,007
-363,927	59,626	0,095	0,068
-362,912	177,699	-0,042	-0,045
-361,898	-200,000	0,033	-0,127
-360,883	-200,000	-0,034	-0,153
-359,869	-200,000	0,009	0,105
-358,854	-200,000	0,037	-0,133
-357,839	396,760	0,114	0,174
-356,825	490,191	-0,049	-0,082
-355,810	-200,000	0,013	-0,074
-354,796	99,044	-0,085	-0,072
-353,781	800,000	0,020	-0,049
-352,766	569,251	0,021	-0,036
-351,752	458,880	-0,030	0,048
-350,737	287,684	-0,017	-0,022
-349,723	229,280	-0,089	0,105
-348,708	188,134	0,025	-0,027
-347,693	-200,000	-0,013	-0,115
-346,679	304,797	-0,176	-0,238
-345,664	269,524	-0,098	-0,126
-344,650	32,526	-0,030	0,019
-343,635	-200,000	-0,010	-0,035
-342,620	108,912	0,037	0,032
-341,606	-200,000	-0,005	-0,031
-340,591	-91,068	-0,088	-0,018
-339,577	10,266	-0,058	0,032
-338,562	800,000	-0,017	0,046
-337,548	277,750	-0,102	-0,131
-336,533	133,469	-0,027	0,025
-335,518	-200,000	0,012	0,050
-334,504	-120,410	0,160	-0,019
-333,489	800,000	-0,019	0,060
-332,475	122,020	-0,020	-0,018
-331,460	-58,352	-0,072	-0,022
-330,445	464,995	0,052	-0,085
-329,431	276,060	0,041	0,053
-328,416	800,000	0,013	0,036
-327,402	-144,571	-0,024	0,002
-326,387	316,325	0,074	-0,102
-325,372	-146,701	0,075	0,005
-324,358	800,000	0,022	-0,068
-323,343	398,392	-0,053	-0,081
-322,329	31,483	0,021	-0,013
-321,314	800,000	-0,046	0,126
-320,299	-200,000	0,013	0,042
-319,285	800,000	0,026	0,052
-318,270	-99,858	0,116	-0,021
-317,256	-200,000	-0,011	0,048
-316,241	800,000	0,022	0,048
-315,226	209,206	0,064	-0,072
-314,212	46,575	0,017	-0,011
-313,197	298,038	-0,060	0,080
-312,183	800,000	-0,013	0,038
-311,168	-90,836	0,085	-0,018
-310,153	11,619	0,016	-0,009
-309,139	800,000	0,054	0,127
-308,124	800,000	0,052	0,110
-307,110	-200,000	-0,020	0,101
-306,095	-31,295	0,009	0,004
-305,080	-200,000	0,023	-0,084
-304,066	-200,000	0,001	-0,024
-303,051	-38,270	-0,065	0,025
-302,037	28,609	-0,042	-0,026
-301,022	180,395	-0,073	0,078
-300,008	-53,014	0,061	0,020
-298,993	156,284	0,025	-0,025
-297,978	800,000	-0,005	0,013
-296,964	800,000	0,013	-0,035
-295,949	252,383	-0,022	0,027
-294,935	800,000	0,011	0,027
-293,920	295,529	-0,009	-0,012
-292,905	800,000	-0,036	-0,086
-291,891	800,000	0,076	0,183
-290,876	109,418	-0,119	0,103
-289,862	153,981	0,066	0,066
-288,847	-27,314	-0,158	-0,066
-287,832	150,767	-0,025	-0,024
-286,818	438,389	0,042	-0,066
-285,803	-145,972	-0,180	-0,011
-284,789	722,712	0,061	0,118
-283,774	83,246	0,064	-0,051
-282,759	-46,212	0,050	0,018
-281,745	-200,000	0,011	-0,123
-280,730	272,061	-0,061	-0,079
-279,716	19,062	-0,076	-0,044
-278,701	-2,636	0,048	0,024
-277,686	-200,000	0,012	0,081
-276,672	-200,000	0,004	0,125
-275,657	800,000	0,013	-0,039
-274,643	95,837	0,091	-0,075
-273,628	87,688	-0,034	0,027
-272,613	73,154	0,052	0,039
-271,599	-200,000	-0,033	0,112
-270,584	76,881	0,115	0,088
-269,570	-68,329	-0,061	0,017
-268,555	800,000	-0,021	-0,045
-267,540	-200,000	0,005	0,088
-266,526	14,016	0,054	-0,031
-265,511	264,696	-0,049	0,062
-264,497	-200,000	-0,016	0,116
-263,482	-200,000	0,016	0,053
-262,467	89,767	0,037	-0,030
-261,453	70,860	-0,037	-0,027
-260,438	-112,836	-0,146	0,021
-259,424	-200,000	-0,020	0,068
-258,409	-200,000	-0,019	-0,078
-257,395	32,851	0,102	0,064
-256,380	800,000	0,052	0,156
-255,365	152,690	-0,024	-0,024
-254,351	-200,000	0,016	-0,067
-253,336	23,426	-0,080	-0,048
-252,322	-119,137	-0,040	-0,005
-251,307	6,326	0,067	0,036
-250,292	-30,830	-0,071	0,029
-249,278	-185,944	0,090	0,001
-248,263	-200,000	-0,022	-0,128
-247,249	-200,000	-0,021	0,071
-246,234	800,000	0,034	-0,088
-245,219	-155,312	-0,041	-0,002
-244,205	226,453	0,031	0,036
-243,190	800,000	0,032	0,083
-242,176	660,140	0,026	-0,048
-241,161	78,998	0,098	0,076
-240,146	-186,584	0,019	0,000
-239,132	-24,712	0,096	0,041
-238,117	122,467	-0,066	-0,060
-237,103	800,000	0,010	-0,021
-236,088	1,196	0,051	-0,026
-235,073	-200,000	-0,004	0,139
-234,059	800,000	-0,032	0,074
-233,044	-200,000	0,022	0,131
-232,030	-200,000	0,035	0,121
-231,015	-69,796	-0,092	-0,025
-230,000	291,149	-0,026	0,034
-228,986	-133,489	0,021	0,002
-227,971	-200,000	0,010	0,069
-226,957	64,270	0,062	0,045
-225,942	800,000	0,063	0,154
-224,927	182,925	0,057	-0,061
-223,913	224,377	-0,018	0,021
-222,898	482,445	-0,013	0,021
-221,884	-150,511	-0,021	0,001
-220,869	-100,316	0,096	0,017
-219,855	-163,554	-0,041	0,001
-218,840	-63,218	0,116	0,034
-217,825	2,060	0,211	-0,110
-216,811	88,539	-0,115	0,092
-215,796	385,921	0,032	0,047
-214,782	475,577	-0,035	-0,058
-213,767	-133,871	-0,059	0,005
-212,752	212,004	-0,037	-0,042
-211,738	-82,358	0,056	0,013
-210,723	559,171	-0,025	0,045
-209,709	4,870	-0,087	0,046
-208,694	-200,000	-0,007	-0,200
-207,679	-200,000	-0,033	-0,114
-206,665	-111,976	0,120	-0,017
-205,650	800,000	0,060	0,131
-204,636	214,794	0,016	0,018
-203,621	800,000	0,054	0,114
-202,606	-64,358	-0,035	0,010
-201,592	239,276	-0,054	-0,065
-200,577	75,473	-0,020	0,015
-199,563	202,096	-0,060	-0,067
-198,548	165,951	0,039	-0,039
-197,533	131,546	-0,117	-0,109
-196,519	81,042	-0,040	0,031
-195,504	-200,000	-0,012	-0,131
-194,490	19,757	0,101	-0,059
-193,475	-67,830	-0,088	0,025
-192,460	-200,000	0,011	-0,109
-191,446	800,000	-0,031	0,092
-190,431	355,327	0,116	0,168
-189,417	475,337	0,048	0,079
-188,402	800,000	0,060	-0,145
-187,387	10,396	0,066	-0,036
-186,373	74,846	-0,118	-0,089
-185,358	-200,000	0,012	-0,197
-184,344	800,000	-0,030	0,075
-183,329	-200,000	-0,010	0,060
-182,315	100,301	0,013	0,011
-181,300	-32,302	-0,025	0,010
-180,285	79,464	0,031	-0,024
-179,271	-200,000	-0,003	0,097
-178,256	54,696	-0,085	0,059
-177,242	-200,000	-0,017	0,092
-176,227	-141,281	0,096	-0,007
-175,212	-200,000	0,003	0,092
-174,198	-200,000	-0,001	-0,053
-173,183	-77,762	-0,134	0,033
-172,169	326,610	-0,074	0,103
-171,154	171,574	-0,013	-0,013
-170,139	274,432	-0,013	-0,016
-169,125	800,000	0,048	0,111
-168,110	800,000	0,080	0,164
-167,096	-45,898	-0,107	0,038
-166,081	-31,737	-0,044	-0,018
-165,066	94,386	0,102	0,084
-164,052	800,000	0,040	-0,095
-163,037	-200,000	0,044	-0,143
-162,023	62,340	0,127	-0,091
-161,008	181,486	-0,060	-0,064
-159,993	-3,880	0,056	-0,028
-158,979	800,000	0,018	-0,052
-157,964	-103,819	0,066	-0,011
-156,950	332,118	-0,121	-0,169
-155,935	225,979	0,081	-0,095
-154,920	-79,068	0,129	-0,031
-153,906	800,000	0,030	-0,069
-152,891	187,593	-0,072	-0,078
-151,877	800,000	-0,021	0,043
-150,862	612,547	0,031	-0,057
-149,847	800,000	-0,016	-0,050
-148,833	380,700	0,070	0,104
-147,818	-136,011	-0,025	-0,002
-146,804	-200,000	-0,034	0,110
-145,789	291,723	0,040	0,053
-144,775	800,000	-0,059	-0,161
-143,760	-143,173	-0,113	0,008
-142,745	-124,499	0,113	-0,013
-141,731	-99,912	-0,103	0,018
-140,716	78,895	-0,087	0,067
-139,702	-200,000	0,014	-0,122
-138,687	-123,273	0,054	-0,006
-137,672	481,741	-0,083	-0,137
-136,658	-200,000	0,005	-0,038
-135,643	-200,000	0,011	-0,117
-134,629	119,034	-0,111	-0,099
-133,614	-200,000	-0,021	-0,107
-132,599	-200,000	-0,003	-0,051
-131,585	109,741	-0,077	0,067
-130,570	-129,505	-0,144	0,014
-129,556	-130,994	-0,129	0,012
-128,541	179,513	-0,100	0,105
-127,526	-132,934	-0,029	0,003
-126,512	800,000	-0,051	0,106
-125,497	-200,000	-0,020	0,075
-124,483	159,118	-0,061	0,061
-123,468	-200,000	-0,038	-0,126
-122,453	-200,000	0,027	-0,098
-121,439	800,000	0,042	-0,122
-120,424	37,181	-0,074	-0,047
-119,410	-200,000	-0,010	-0,034
-118,395	213,234	0,103	0,118
-117,380	40,305	-0,123	0,079
-116,366	59,445	-0,024	0,017
-115,351	800,000	-0,082	-0,172
-114,337	129,315	0,049	-0,045
-113,322	-128,155	0,091	-0,009
-112,307	-200,000	-0,016	0,100
-111,293	-40,368	0,054	0,020
-110,278	-18,011	0,132	-0,059
-109,264	-96,121	0,071	0,013
-108,249	800,000	-0,024	-0,072
-107,234	14,538	0,040	0,023
-106,220	800,000	-0,037	-0,104
-105,205	114,993	0,001	0,001
-104,191	-144,292	0,102	-0,007
-103,176	248,468	0,097	-0,119
-102,162	137,670	0,109	0,102
-101,147	-70,725	-0,011	-0,003
-100,132	-200,000	-0,029	-0,137
-99,118	-200,000	0,004	-0,106
-98,103	800,000	-0,048	0,151
-97,089	68,312	0,066	-0,048
-96,074	105,428	0,135	-0,114
-95,059	-34,205	0,130	0,051
-94,045	800,000	-0,023	-0,047
-93,030	203,512	0,037	-0,041
-92,016	-169,863	0,110	0,003
-91,001	703,984	-0,054	-0,103
-89,986	-6,038	0,082	0,040
-88,972	575,692	0,035	-0,062
-87,957	-83,037	0,072	0,016
-86,943	208,354	-0,085	-0,096
-85,928	-200,000	0,022	-0,098
-84,913	800,000	0,041	-0,096
-83,899	800,000	0,063	-0,132
-82,884	121,474	-0,034	0,031
-81,870	-18,059	0,067	-0,030
-80,855	296,996	0,041	-0,054
-79,840	-150,966	-0,103	0,005
-78,826	800,000	0,006	-0,012
-77,811	90,342	-0,057	0,046
-76,797	5,648	0,072	-0,038
-75,782	-80,545	0,072	-0,017
-74,767	321,430	0,097	-0,133
-73,753	517,980	-0,051	0,086
-72,738	49,644	0,054	0,037
-71,724	-66,215	-0,035	0,010
-70,709	-6,312	-0,119	0,058
-69,694	-200,000	0,002	-0,078
-68,680	-200,000	-0,010	-0,091
-67,665	800,000	-0,009	0,019
-66,651	-40,725	0,171	0,063
-65,636	16,077	-0,042	-0,024
-64,622	-52,990	-0,057	0,019
-63,607	-200,000	-0,031	-0,198
-62,592	44,896	-0,178	-0,117
-61,578	-17,913	0,080	0,036
-60,563	101,863	-0,057	0,048
-59,549	23,709	-0,199	0,117
-58,534	1,738	-1,924	-0,992
-57,519	-200,000	-0,307	-1,026
-56,505	-200,000	-1,294	-4,885
-55,490	116,309	0,714	0,628
-54,476	800,000	5,218	11,953
-53,461	-200,000	17,752	285,368
-52,446	800,000	728,007	2219,003
-51,432	535,431	1643,805	2809,748
-50,417	110,025	1634,153	1407,419
-49,403	75,650	1286,479	974,442
-48,388	31,996	1027,783	634,337
-47,373	20,228	989,507	571,902
-46,359	18,504	977,443	559,254
-45,344	15,568	973,410	547,313
-44,330	15,852	971,862	547,351
-43,315	15,424	970,064	544,920
-42,300	15,296	968,980	543,869
-41,286	15,285	968,049	543,289
-40,271	15,257	967,044	542,615
-39,257	15,293	966,207	542,241
-38,242	15,321	965,274	541,787
-37,227	15,335	964,433	541,337
-36,213	15,258	963,807	540,713
-35,198	15,334	962,634	540,281
-34,184	15,359	962,012	539,994
-33,169	15,257	961,027	539,088
-32,154	15,335	959,884	538,675
-31,140	15,434	958,925	538,436
-30,125	15,299	958,438	537,707
-29,111	15,306	957,557	537,212
-28,096	15,312	957,010	536,905
-27,082	15,374	956,286	536,676
-26,067	15,302	955,650	536,066
-25,052	15,300	954,768	535,546
-24,038	15,370	954,172	535,412
-23,023	15,285	953,582	534,789
-22,009	15,346	952,853	534,553
-20,994	15,313	952,313	534,123
-19,979	15,301	951,649	533,692
-18,965	15,309	950,978	533,321
-17,950	15,333	950,149	532,911
-16,936	15,277	949,537	532,367
-15,921	15,252	949,037	531,987
-14,906	15,145	948,339	531,234
-13,892	15,207	947,509	530,945
-12,877	15,248	946,843	530,681
-11,863	15,191	946,258	530,151
-10,848	15,177	945,781	529,819
-9,833	15,308	945,382	529,990
-8,819	15,261	944,824	529,506
-7,804	15,174	944,239	528,881
-6,790	15,183	943,750	528,614
-5,775	15,215	943,150	528,360
-4,760	15,229	942,372	527,948
-3,746	15,196	941,683	527,436
-2,731	15,155	940,903	526,848
-1,717	15,020	940,493	526,169
-0,702	15,041	939,782	525,817
0,313	14,882	939,012	525,679
1,327	18,102	936,750	534,511
2,342	26,911	793,953	476,366
3,356	23,332	459,547	270,218
4,371	-3,630	315,256	156,624
5,386	-7,664	296,924	143,411
6,400	-9,841	290,816	138,281
7,415	-10,033	288,357	136,910
8,429	-10,309	286,928	135,948
9,444	-10,241	285,880	135,506
10,459	-10,295	285,429	135,228
11,473	-10,369	284,932	134,908
12,488	-10,174	284,345	134,808
13,502	-10,351	283,855	134,391
14,517	-10,326	283,406	134,192
15,531	-10,264	283,068	134,080
16,546	-10,113	282,637	134,009
17,561	-10,254	282,235	133,671
18,575	-10,157	281,866	133,577
19,590	-10,329	281,645	133,295
20,604	-10,106	281,247	133,309
21,619	-10,156	280,889	133,080
22,634	-10,321	280,579	132,763
23,648	-10,131	280,104	132,708
24,663	-10,152	279,964	132,610
25,677	-10,304	279,824	132,387
26,692	-10,157	279,311	132,272
27,707	-10,025	278,914	132,198
28,721	-10,229	279,080	132,070
29,736	-10,106	278,512	131,907
30,750	-10,178	278,469	131,806
31,765	-10,258	278,063	131,526
32,780	-10,077	277,712	131,520
33,794	-10,191	277,640	131,366
34,809	-10,047	277,239	131,302
35,823	-10,121	277,023	131,117
36,838	-10,175	276,721	130,912
37,853	-10,344	276,611	130,689
38,867	-10,489	276,396	130,439
39,882	-10,238	276,042	130,496
40,896	-10,097	275,807	130,506
41,911	-10,232	275,578	130,260
42,926	-10,282	275,382	130,108
43,940	-10,552	275,310	129,809
44,955	-10,333	274,912	129,815
45,969	-10,353	274,576	129,626
46,984	-10,466	274,339	129,396
47,999	-10,637	273,967	129,050
49,013	-10,776	273,869	128,863
50,028	-10,763	273,590	128,732
51,042	-10,939	273,267	128,405
52,057	-10,950	273,043	128,278
53,071	-10,841	272,873	128,287
54,086	-10,628	272,627	128,358
55,101	-10,556	272,544	128,375
56,115	-10,495	272,397	128,351
57,130	-10,245	272,236	128,496
58,144	-10,002	271,978	128,588
59,159	-10,041	271,618	128,370
60,174	-9,999	271,463	128,323
61,188	-9,929	271,223	128,264
62,203	-10,111	271,117	128,034
63,217	-10,084	270,967	127,977
64,232	-9,858	270,551	127,977
65,247	-10,023	270,456	127,769
66,261	-10,076	270,208	127,591
67,276	-10,201	269,775	127,261
68,290	-10,508	269,751	126,956
69,305	-10,577	269,369	126,702
70,320	-10,379	269,178	126,782
71,334	-10,215	269,094	126,881
72,349	-10,058	268,786	126,868
73,363	-10,289	268,579	126,547
74,378	-10,225	268,373	126,498
75,393	-10,137	268,273	126,520
76,407	-10,092	268,027	126,434
77,422	-9,986	267,784	126,405
78,436	-10,171	267,574	126,126
79,451	-10,141	267,292	126,009
80,466	-10,172	267,007	125,835
81,480	-10,356	266,972	125,640
82,495	-10,151	266,594	125,637
83,509	-10,231	266,666	125,587
84,524	-10,227	266,218	125,368
85,539	-10,335	265,896	125,108
86,553	-10,339	265,835	125,065
87,568	-10,180	265,568	125,072
88,582	-10,281	265,266	124,827
89,597	-10,339	265,190	124,728
90,611	-10,341	265,039	124,644
91,626	-10,219	264,992	124,721
92,641	-9,998	264,693	124,768
93,655	-10,181	264,447	124,476
94,670	-10,290	264,230	124,265
95,684	-10,235	264,075	124,230
96,699	-10,240	263,943	124,153
97,714	-10,210	263,770	124,087
98,728	-10,313	263,377	123,799
99,743	-10,296	263,070	123,659
100,757	-10,502	262,952	123,408
101,772	-10,147	262,866	123,674
102,787	-10,259	262,632	123,453
103,801	-10,298	262,599	123,391
104,816	-10,226	262,235	123,274
105,830	-10,180	262,113	123,246
106,845	-10,162	261,844	123,125
107,860	-10,162	261,626	123,012
108,874	-10,355	261,331	122,690
109,889	-10,226	261,165	122,716
110,903	-10,222	261,075	122,666
111,918	-10,248	260,774	122,491
112,933	-10,210	260,736	122,496
113,947	-10,073	260,464	122,478
114,962	-10,261	260,318	122,232
115,976	-10,187	260,130	122,199
116,991	-10,114	259,920	122,153
118,006	-10,098	259,737	122,071
119,020	-10,253	259,714	121,912
120,035	-10,215	259,480	121,825
121,049	-10,198	259,176	121,686
122,064	-9,967	259,116	121,850
123,079	-10,067	258,902	121,651
124,093	-10,299	258,522	121,259
125,108	-10,513	258,423	121,014
126,122	-10,435	258,207	120,970
127,137	-10,518	257,824	120,708
128,151	-10,331	257,677	120,791
129,166	-10,447	257,626	120,656
130,181	-10,515	257,346	120,454
131,195	-10,536	257,161	120,338
132,210	-10,354	257,103	120,459
133,224	-10,030	256,757	120,567
134,239	-10,224	256,717	120,370
135,254	-10,027	256,366	120,366
136,268	-10,155	256,226	120,178
137,283	-10,274	255,907	119,915
138,297	-10,542	255,684	119,568
139,312	-10,613	255,531	119,423
140,327	-10,167	255,505	119,786
141,341	-10,138	255,336	119,721
142,356	-10,171	255,131	119,586
143,370	-10,026	255,055	119,665
144,385	-9,869	254,852	119,695
145,400	-9,899	254,626	119,552
146,414	-10,114	254,487	119,291
147,429	-9,966	254,346	119,341
148,443	-10,101	254,294	119,190
149,458	-10,096	254,029	119,060
150,473	-10,027	253,772	118,988
151,487	-10,111	253,574	118,812
152,502	-10,043	253,339	118,750
153,516	-10,113	253,315	118,668
154,531	-10,048	253,019	118,575
155,546	-9,837	252,820	118,651
156,560	-9,947	252,668	118,475
157,575	-9,949	252,424	118,348
158,589	-9,919	252,064	118,195
159,604	-9,904	251,963	118,149
160,619	-9,951	251,810	118,027
161,633	-9,970	251,787	117,990
162,648	-9,865	251,548	117,957
163,662	-9,787	251,331	117,911
164,677	-9,727	251,207	117,892
165,692	-9,956	251,065	117,622
166,706	-9,963	250,937	117,546
167,721	-9,953	250,740	117,451
168,735	-9,811	250,639	117,513
169,750	-9,780	250,465	117,447
170,764	-9,970	250,264	117,182
171,779	-9,900	250,072	117,141
172,794	-9,696	249,847	117,197
173,808	-9,871	249,777	117,007
174,823	-10,263	249,565	116,566
175,837	-10,421	249,242	116,272
176,852	-10,039	248,983	116,462
177,867	-10,008	249,132	116,547
178,881	-9,968	248,932	116,477
179,896	-9,980	248,678	116,338
180,910	-10,025	248,561	116,235
181,925	-9,642	248,157	116,356
182,940	-9,990	248,178	116,064
183,954	-9,912	247,955	116,015
184,969	-9,826	247,850	116,027
185,983	-10,025	247,713	115,786
186,998	-9,882	247,511	115,801
188,013	-9,967	247,499	115,714
189,027	-10,014	247,169	115,510
190,042	-9,815	246,936	115,557
191,056	-10,018	246,692	115,264
192,071	-9,915	246,667	115,328
193,086	-10,185	246,603	115,063
194,100	-9,946	246,346	115,131
195,115	-9,889	246,213	115,106
196,129	-9,924	245,910	114,925
197,144	-9,890	245,758	114,872
198,159	-10,054	245,579	114,642
199,173	-9,961	245,464	114,655
200,188	-10,087	245,155	114,397
201,202	-10,438	244,950	114,001
202,217	-10,452	244,677	113,853
203,232	-10,395	244,391	113,756
204,246	-10,319	244,520	113,868
205,261	-10,045	244,366	114,012
206,275	-11,236	243,749	112,737
207,290	-7,303	245,168	116,626
208,304	0,390	247,791	124,255
209,319	4,183	248,795	127,900
210,334	4,414	248,748	128,056
211,348	4,544	248,645	128,099
212,363	4,683	248,552	128,155
213,377	4,945	248,413	128,289
214,392	4,761	248,272	128,052
215,407	4,807	247,954	127,915
216,421	4,790	247,847	127,834
217,436	4,724	247,898	127,795
218,450	5,039	247,629	127,905
219,465	4,849	247,243	127,537
220,480	4,442	247,310	127,226
221,494	4,249	247,036	126,914
222,509	4,574	246,863	127,081
223,523	4,578	246,617	126,946
224,538	4,263	246,347	126,537
225,553	4,357	246,186	126,521
226,567	4,290	246,144	126,433
227,582	4,355	246,025	126,414
228,596	4,243	245,826	126,209
229,611	3,967	245,712	125,913
230,626	3,993	245,383	125,754
231,640	4,192	245,225	125,825
232,655	4,245	245,023	125,753
233,669	4,259	244,902	125,691
234,684	4,044	244,794	125,449
235,699	4,375	244,842	125,732
236,713	4,540	244,740	125,803
237,728	4,281	244,297	125,353
238,742	3,834	244,079	124,868
239,757	3,935	243,966	124,880
240,772	4,139	243,729	124,914
241,786	4,300	243,653	124,994
242,801	4,130	243,437	124,735
243,815	3,945	243,340	124,524
244,830	4,331	243,234	124,771
245,844	4,132	243,206	124,584
246,859	4,147	242,899	124,428
247,874	4,110	242,835	124,354
248,888	4,209	242,672	124,340
249,903	4,375	242,512	124,380
250,917	4,518	242,474	124,465
251,932	4,608	242,221	124,396
252,947	4,453	242,049	124,172
253,961	4,236	241,908	123,915
254,976	4,284	241,759	123,866
255,990	4,555	241,554	123,967
257,005	3,974	241,401	123,411
258,020	3,846	241,242	123,217
259,034	4,155	241,039	123,349
260,049	4,194	240,920	123,309
261,063	3,998	240,735	123,046
262,078	3,906	240,642	122,915
263,093	4,168	240,601	123,091
264,107	4,488	240,492	123,281
265,122	4,167	240,224	122,876
266,136	4,326	240,044	122,900
267,151	4,351	239,942	122,857
268,166	4,127	239,683	122,534
269,180	4,101	239,443	122,381
270,195	4,560	239,491	122,759
271,209	4,707	239,416	122,826
272,224	4,209	239,034	122,224
273,239	3,801	238,842	121,792
274,253	3,978	238,639	121,817
275,268	4,312	238,583	122,043
276,282	4,185	238,443	121,860
277,297	4,040	238,163	121,591
278,312	4,037	238,089	121,540
279,326	4,330	238,012	121,721
280,341	4,232	237,722	121,485
281,355	4,174	237,654	121,394
282,370	4,487	237,599	121,601
283,384	4,157	237,482	121,271
284,399	4,041	237,360	121,107
285,414	4,012	236,963	120,871
286,428	4,233	236,883	120,992
287,443	4,086	236,803	120,825
288,457	4,296	236,678	120,916
289,472	4,303	236,662	120,902
290,487	4,210	236,370	120,669
291,501	4,058	236,166	120,435
292,516	3,830	235,860	120,090
293,530	3,871	235,774	120,068
294,545	4,297	235,889	120,448
295,560	4,312	235,585	120,294
296,574	3,959	235,303	119,865
297,589	4,236	235,124	119,978
298,603	4,256	235,320	120,083
299,618	4,315	235,087	120,000
300,633	4,222	234,941	119,841
301,647	4,221	234,939	119,830
302,662	4,516	234,829	119,992
303,676	4,681	234,469	119,925
304,691	4,369	234,411	119,643
305,706	4,597	234,307	119,756
306,720	4,610	234,094	119,646
307,735	4,564	233,834	119,467
308,749	4,425	233,688	119,275
309,764	4,256	233,405	118,989
310,779	3,974	233,301	118,708
311,793	4,014	233,052	118,601
312,808	4,034	232,877	118,517
313,822	3,873	232,721	118,304
314,837	3,757	232,653	118,169
315,852	3,641	232,380	117,931
316,866	4,218	232,438	118,393
317,881	4,560	232,489	118,671
318,895	4,665	232,447	118,720
319,910	4,822	232,160	118,683
320,925	4,262	231,685	118,001
321,939	3,767	231,621	117,579
322,954	4,002	231,608	117,742
323,968	4,113	231,457	117,739
324,983	4,335	231,412	117,876
325,997	4,589	231,280	117,992
327,012	4,169	231,256	117,649
328,027	4,547	230,829	117,708
329,041	4,327	230,923	117,578
330,056	5,032	230,771	118,027
331,070	4,974	230,566	117,868
332,085	4,789	230,300	117,581
333,100	4,243	230,254	117,132
334,114	4,701	229,901	117,289
335,129	4,321	230,022	117,053
336,143	4,577	229,900	117,174
337,158	4,454	229,674	116,956
338,173	4,244	229,471	116,683
339,187	4,072	229,306	116,458
340,202	4,369	228,989	116,511
341,216	4,472	228,970	116,569
342,231	4,285	228,816	116,339
343,246	4,184	228,664	116,175
344,260	4,257	228,551	116,162
345,275	4,229	228,635	116,173
346,289	4,528	228,396	116,267
347,304	4,589	228,180	116,193
348,319	4,587	228,112	116,146
349,333	4,505	227,844	115,938
350,348	4,351	227,657	115,716
351,362	4,553	227,496	115,775
352,377	4,118	227,333	115,357
353,392	3,822	227,137	115,025
354,406	3,793	227,014	114,931
355,421	196,088	1320,808	1399,546
356,435	157,239	1454,063	1399,550
