DTS Sentinel unit serial number:	SN410029Multiplexer serial number:	ORYXHardware model number:	OX2-SRSoftware version number:	ORYX F/W v4,00 Oryx Data Collector v3.7.2.0data status	okinstallation	B5 Nyhavnadifferential loss correction	single-endedforward channel	channel 2reverse channel	N/Adate	2023/12/12time	14:07:13forward acquisition time	300,00reverse acquisition time	0,00gamma	499,1914k internal	0,3157k external	0,3157temperature offset calibration	1,0000default loss term (dB/km)	0,3820temperature slope calibration	1,0000multiplexer offset coefficient	1,0000multiplexer slope coefficient	1,0000fibre end	0,00T internal ref (°C)	15,79T ext. ref 1 (°C)	-0,27T ext. ref 2 (°C)	-0,51length (m)	temperature (°C)	Stokes	anti-Stokes-744,400	-200,000	-0,020	-0,090
-743,385	71,451	-0,164	0,125
-742,371	-76,935	0,123	-0,032
-741,356	51,472	-0,140	0,098
-740,342	340,501	0,050	0,073
-739,327	-179,065	-0,223	-0,004
-738,312	-46,260	0,059	0,021
-737,298	-87,175	-0,195	-0,043
-736,283	-27,133	0,054	0,023
-735,269	-87,366	-0,272	-0,060
-734,254	-13,786	-0,051	-0,024
-733,239	-97,464	-0,340	-0,065
-732,225	-118,440	0,102	0,013
-731,210	-200,000	-0,003	0,128
-730,196	-200,000	0,001	-0,093
-729,181	-159,138	-0,054	-0,002
-728,167	218,790	0,068	-0,081
-727,152	-200,000	0,010	0,109
-726,137	52,670	0,070	-0,049
-725,123	191,298	-0,061	-0,068
-724,108	-20,954	-0,021	-0,009
-723,094	-79,087	-0,160	-0,040
-722,079	154,080	0,056	-0,056
-721,064	-200,000	0,031	-0,113
-720,050	-159,148	-0,020	-0,001
-719,035	294,002	-0,083	0,112
-718,021	46,447	0,100	0,068
-717,006	-34,807	-0,176	-0,070
-715,991	25,352	-0,086	0,053
-714,977	143,385	0,011	0,011
-713,962	-200,000	-0,012	0,045
-712,948	493,879	0,042	0,072
-711,933	-200,000	-0,016	-0,104
-710,918	92,940	0,033	-0,027
-709,904	93,338	0,054	-0,045
-708,889	795,537	-0,046	-0,094
-707,875	-49,384	-0,034	-0,012
-706,860	16,114	0,026	0,015
-705,845	-200,000	-0,001	0,189
-704,831	760,343	0,066	0,132
-703,816	452,523	-0,118	0,193
-702,802	-28,940	-0,080	-0,034
-701,787	159,278	-0,096	-0,098
-700,772	-140,701	-0,037	0,003
-699,758	429,679	0,023	0,037
-698,743	64,240	0,172	0,127
-697,729	505,302	0,061	0,104
-696,714	-109,759	0,107	0,016
-695,699	800,000	-0,041	-0,090
-694,685	141,000	-0,083	-0,080
-693,670	241,777	0,042	0,052
-692,656	161,137	0,052	0,053
-691,641	264,133	0,071	0,091
-690,627	-87,202	-0,058	-0,013
-689,612	242,340	-0,026	0,033
-688,597	800,000	-0,106	-0,255
-687,583	-161,826	0,040	-0,001
-686,568	-144,048	0,031	0,002
-685,554	-200,000	-0,000	0,146
-684,539	-200,000	0,001	0,034
-683,524	110,473	-0,074	0,065
-682,510	150,602	0,076	0,076
-681,495	-13,529	-0,162	0,077
-680,481	503,102	-0,111	0,189
-679,466	800,000	0,043	0,121
-678,451	-161,623	0,101	0,004
-677,437	-200,000	-0,001	-0,031
-676,422	800,000	0,017	-0,043
-675,408	-66,560	0,106	0,031
-674,393	800,000	-0,020	-0,051
-673,378	89,948	0,071	0,059
-672,364	-29,137	0,108	-0,045
-671,349	275,369	0,026	-0,034
-670,335	-200,000	-0,002	0,138
-669,320	-51,600	-0,121	0,041
-668,305	-40,689	0,113	-0,043
-667,291	800,000	-0,024	-0,051
-666,276	-47,120	-0,129	-0,046
-665,262	-47,629	-0,059	-0,021
-664,247	81,310	0,077	0,061
-663,232	341,815	-0,034	0,049
-662,218	-121,732	0,083	-0,010
-661,203	624,565	-0,034	-0,064
-660,189	-200,000	-0,008	0,136
-659,174	-128,314	-0,181	0,019
-658,159	61,120	0,076	0,055
-657,145	26,381	-0,026	0,016
-656,130	-200,000	-0,001	0,021
-655,116	21,822	0,052	0,031
-654,101	800,000	-0,033	0,068
-653,086	-154,333	0,070	0,003
-652,072	-200,000	0,017	-0,071
-651,057	-40,934	-0,078	-0,030
-650,043	-200,000	-0,013	-0,106
-649,028	138,857	0,007	0,006
-648,014	-11,154	0,060	0,029
-646,999	-97,277	0,070	0,013
-645,984	-200,000	0,031	0,114
-644,970	-65,217	-0,071	-0,021
-643,955	800,000	-0,004	-0,010
-642,941	-92,021	-0,110	0,023
-641,926	-75,769	-0,083	0,021
-640,911	-200,000	-0,012	0,162
-639,897	-200,000	-0,030	0,108
-638,882	121,897	-0,125	-0,115
-637,868	536,276	-0,019	-0,033
-636,853	800,000	-0,061	-0,169
-635,838	561,251	-0,063	-0,112
-634,824	-200,000	-0,015	-0,092
-633,809	-200,000	-0,007	-0,039
-632,795	800,000	-0,033	-0,072
-631,780	157,217	-0,028	0,028
-630,765	-200,000	0,000	0,050
-629,751	-200,000	0,020	-0,082
-628,736	-200,000	0,019	-0,126
-627,722	22,975	-0,133	-0,080
-626,707	-84,895	-0,165	0,038
-625,692	29,821	-0,074	0,046
-624,678	-200,000	-0,010	-0,032
-623,663	-200,000	-0,003	0,075
-622,649	-126,587	-0,066	0,007
-621,634	666,160	-0,085	-0,161
-620,619	113,238	-0,011	-0,010
-619,605	-152,050	-0,129	0,007
-618,590	-200,000	0,025	0,137
-617,576	-200,000	-0,026	-0,139
-616,561	37,405	0,064	0,041
-615,546	-200,000	0,002	0,079
-614,532	-200,000	-0,015	-0,216
-613,517	800,000	0,026	-0,069
-612,503	21,921	-0,070	0,042
-611,488	-55,851	0,068	0,022
-610,474	-73,394	-0,106	-0,028
-609,459	55,222	-0,042	-0,029
-608,444	800,000	-0,045	-0,102
-607,430	-200,000	-0,010	0,083
-606,415	800,000	0,041	-0,119
-605,401	387,200	0,098	-0,150
-604,386	800,000	0,024	-0,073
-603,371	-74,235	0,132	0,035
-602,357	226,063	0,098	0,117
-601,342	-112,593	-0,152	-0,022
-600,328	800,000	0,047	-0,135
-599,313	302,747	0,018	-0,024
-598,298	-176,537	-0,085	0,002
-597,284	-139,690	0,115	0,009
-596,269	-156,767	-0,130	-0,006
-595,255	-74,180	0,096	-0,025
-594,240	-200,000	0,003	-0,073
-593,225	800,000	-0,031	0,080
-592,211	-49,638	0,055	-0,019
-591,196	-200,000	0,011	0,142
-590,182	-144,687	0,080	-0,005
-589,167	148,596	-0,049	-0,049
-588,152	83,153	0,079	0,063
-587,138	-24,188	0,039	0,017
-586,123	160,184	-0,062	0,064
-585,109	-57,435	-0,060	0,019
-584,094	2,318	0,042	-0,022
-583,079	-78,215	0,178	-0,045
-582,065	-58,894	0,090	-0,028
-581,050	-200,000	0,001	0,011
-580,036	-0,734	-0,075	-0,039
-579,021	-107,486	0,060	-0,010
-578,006	-200,000	-0,013	-0,078
-576,992	-150,559	0,031	0,002
-575,977	-200,000	-0,013	-0,115
-574,963	-100,011	-0,101	0,018
-573,948	285,757	0,051	0,067
-572,934	-42,244	-0,106	-0,039
-571,919	-200,000	-0,014	-0,053
-570,904	-200,000	0,008	-0,153
-569,890	-93,385	0,149	-0,030
-568,875	-83,831	0,079	-0,018
-567,861	-5,565	-0,135	0,067
-566,846	-9,904	0,022	-0,011
-565,831	-200,000	-0,019	-0,076
-564,817	586,422	0,053	0,096
-563,802	-99,057	-0,108	0,020
-562,788	-200,000	-0,008	-0,060
-561,773	-200,000	-0,030	0,117
-560,758	800,000	0,019	-0,044
-559,744	-27,844	0,138	-0,058
-558,729	-200,000	0,021	0,072
-557,715	-155,676	-0,116	-0,005
-556,700	-50,187	-0,089	0,031
-555,685	166,814	-0,091	0,094
-554,671	-84,312	0,107	0,025
-553,656	158,589	0,088	-0,089
-552,642	-200,000	0,012	0,072
-551,627	668,735	-0,030	-0,057
-550,612	-120,018	-0,220	-0,027
-549,598	800,000	-0,029	-0,061
-548,583	4,623	-0,076	-0,041
-547,569	800,000	0,032	0,069
-546,554	101,957	-0,076	0,065
-545,539	-142,497	-0,082	-0,006
-544,525	-200,000	0,005	-0,027
-543,510	-32,376	-0,077	0,031
-542,496	129,392	-0,078	-0,073
-541,481	400,695	-0,097	-0,149
-540,466	-200,000	0,010	-0,075
-539,452	-67,320	0,060	-0,017
-538,437	-48,705	-0,088	-0,031
-537,423	-56,625	0,093	-0,030
-536,408	-1,123	0,025	-0,013
-535,393	-200,000	-0,000	-0,183
-534,379	451,937	0,085	-0,137
-533,364	-200,000	0,018	0,064
-532,350	-200,000	-0,028	0,134
-531,335	48,675	0,026	-0,018
-530,321	-87,207	0,087	-0,019
-529,306	177,957	-0,032	-0,034
-528,291	-200,000	0,011	-0,210
-527,277	-71,732	0,060	-0,016
-526,262	800,000	0,033	-0,077
-525,248	800,000	-0,009	0,029
-524,233	227,759	0,002	-0,003
-523,218	-200,000	0,005	-0,024
-522,204	800,000	0,037	-0,087
-521,189	-104,570	-0,108	-0,018
-520,175	596,185	-0,060	0,109
-519,160	95,930	0,064	-0,054
-518,145	58,069	0,065	-0,047
-517,131	396,142	0,032	0,049
-516,116	-200,000	-0,030	-0,104
-515,102	-52,111	-0,028	-0,009
-514,087	800,000	0,052	-0,157
-513,072	108,149	0,097	-0,084
-512,058	660,011	-0,024	-0,046
-511,043	800,000	0,044	0,103
-510,029	-200,000	0,004	0,173
-509,014	47,989	-0,085	0,058
-507,999	-113,454	-0,020	0,003
-506,985	800,000	-0,011	0,024
-505,970	-17,668	0,058	0,027
-504,956	800,000	-0,054	-0,122
-503,941	80,878	0,034	-0,027
-502,926	-52,642	-0,073	-0,025
-501,912	85,830	0,082	0,066
-500,897	220,747	0,017	0,020
-499,883	-152,411	0,038	-0,002
-498,868	51,647	-0,081	0,056
-497,853	-200,000	0,005	0,040
-496,839	47,072	-0,085	0,058
-495,824	217,178	-0,069	0,081
-494,810	-200,000	0,023	0,151
-493,795	49,553	0,072	-0,049
-492,781	-200,000	0,007	0,024
-491,766	90,208	-0,028	-0,023
-490,751	-200,000	0,013	-0,085
-489,737	-104,161	-0,082	-0,014
-488,722	102,869	0,041	-0,035
-487,708	90,398	0,081	0,066
-486,693	-200,000	-0,009	0,101
-485,678	331,777	0,067	-0,095
-484,664	-122,437	-0,051	-0,006
-483,649	68,728	-0,055	-0,041
-482,635	263,167	-0,030	-0,038
-481,620	581,740	-0,049	0,087
-480,605	800,000	-0,049	0,142
-479,591	800,000	0,024	-0,062
-478,576	-200,000	0,000	0,072
-477,562	-200,000	-0,003	0,070
-476,547	62,592	-0,013	0,009
-475,532	-152,840	0,081	-0,004
-474,518	367,424	0,084	0,123
-473,503	800,000	0,042	0,108
-472,489	-44,321	0,070	0,025
-471,474	-56,281	-0,047	0,015
-470,459	8,805	-0,046	0,025
-469,445	800,000	-0,070	-0,149
-468,430	388,592	0,047	0,071
-467,416	-200,000	-0,004	0,102
-466,401	472,289	0,082	0,135
-465,386	-99,220	-0,107	0,020
-464,372	800,000	0,044	0,139
-463,357	-200,000	0,030	0,273
-462,343	246,975	-0,060	0,074
-461,328	-200,000	-0,002	-0,012
-460,313	74,941	-0,020	0,015
-459,299	286,419	0,098	-0,130
-458,284	800,000	-0,002	-0,005
-457,270	800,000	0,110	0,230
-456,255	-174,209	-0,096	-0,002
-455,241	800,000	-0,045	0,109
-454,226	51,793	0,113	0,078
-453,211	210,264	0,094	0,108
-452,197	163,259	-0,005	0,005
-451,182	-13,085	0,089	-0,042
-450,168	219,483	0,054	0,063
-449,153	90,353	-0,080	-0,065
-448,138	85,001	-0,118	-0,095
-447,124	-85,492	-0,014	0,003
-446,109	-33,467	0,135	0,054
-445,095	34,809	0,122	-0,078
-444,080	519,192	0,054	0,092
-443,065	-200,000	-0,017	0,151
-442,051	177,136	0,042	-0,044
-441,036	800,000	-0,009	-0,021
-440,022	-200,000	-0,024	-0,082
-439,007	190,930	-0,124	0,136
-437,992	800,000	-0,026	-0,078
-436,978	-70,273	0,058	-0,016
-435,963	533,126	0,029	0,051
-434,949	800,000	-0,032	-0,070
-433,934	337,616	0,078	-0,111
-432,919	800,000	-0,006	0,016
-431,905	1,743	0,063	0,033
-430,890	800,000	0,072	0,155
-429,876	63,887	0,037	0,027
-428,861	228,724	0,027	-0,032
-427,846	800,000	0,032	-0,085
-426,832	-68,188	-0,082	0,023
-425,817	800,000	-0,027	0,079
-424,803	-114,627	-0,058	0,008
-423,788	62,842	0,062	0,045
-422,773	-26,457	0,039	0,017
-421,759	800,000	-0,031	-0,066
-420,744	70,971	-0,057	-0,043
-419,730	376,100	-0,085	-0,127
-418,715	-131,666	0,034	0,003
-417,701	-146,786	-0,142	0,009
-416,686	490,594	-0,043	-0,072
-415,671	800,000	-0,026	-0,054
-414,657	800,000	0,034	0,076
-413,642	445,810	0,034	-0,054
-412,628	30,233	-0,063	0,039
-411,613	-159,966	-0,106	-0,004
-410,598	314,095	-0,077	-0,106
-409,584	319,564	-0,032	-0,045
-408,569	-48,354	0,082	-0,029
-407,555	800,000	0,045	0,112
-406,540	-65,304	-0,033	-0,010
-405,525	36,200	-0,010	-0,006
-404,511	-200,000	-0,025	-0,101
-403,496	800,000	-0,012	0,028
-402,482	321,400	0,027	-0,037
-401,467	127,487	0,034	-0,032
-400,452	-200,000	-0,009	0,041
-399,438	-200,000	0,020	0,104
-398,423	46,212	-0,193	-0,130
-397,409	129,598	0,045	0,042
-396,394	-16,710	0,094	-0,043
-395,379	-200,000	0,002	-0,067
-394,365	-26,592	-0,103	0,043
-393,350	800,000	-0,081	0,257
-392,336	-200,000	-0,021	0,115
-391,321	-200,000	0,001	0,011
-390,306	-134,290	-0,076	0,007
-389,292	63,000	-0,104	-0,076
-388,277	271,313	0,067	0,086
-387,263	-97,238	0,060	-0,011
-386,248	99,390	0,085	0,071
-385,233	800,000	-0,024	0,060
-384,219	-84,578	0,032	0,007
-383,204	-124,195	-0,097	0,011
-382,190	800,000	0,057	-0,120
-381,175	-88,162	0,173	0,037
-380,160	-200,000	0,005	-0,022
-379,146	269,842	-0,045	-0,057
-378,131	-22,022	-0,125	0,055
-377,117	-200,000	-0,001	0,067
-376,102	-200,000	0,046	-0,255
-375,088	5,981	-0,110	-0,059
-374,073	-64,193	0,044	0,013
-373,058	-200,000	-0,029	-0,099
-372,044	-99,941	0,036	0,007
-371,029	-8,892	0,076	0,037
-370,015	17,735	-0,131	-0,076
-369,000	-200,000	-0,024	-0,111
-367,985	-200,000	0,000	-0,188
-366,971	-200,000	0,009	-0,128
-365,956	388,123	0,046	-0,069
-364,942	-200,000	-0,004	0,076
-363,927	-200,000	0,011	0,145
-362,912	506,437	0,030	-0,051
-361,898	-23,783	-0,167	-0,072
-360,883	-116,981	-0,130	0,017
-359,869	800,000	-0,037	-0,114
-358,854	324,035	0,011	0,015
-357,839	-95,083	0,170	0,033
-356,825	800,000	0,017	0,048
-355,810	206,881	-0,058	-0,066
-354,796	-200,000	-0,003	-0,027
-353,781	-140,115	-0,012	-0,001
-352,766	800,000	0,046	-0,116
-351,752	-200,000	0,006	0,182
-350,737	443,883	0,061	0,097
-349,723	399,882	-0,050	0,076
-348,708	45,325	0,073	0,049
-347,693	199,034	0,073	-0,081
-346,679	114,793	-0,030	-0,027
-345,664	-32,634	-0,135	0,054
-344,650	356,952	-0,033	0,047
-343,635	547,434	0,052	0,091
-342,620	11,791	0,071	0,039
-341,606	149,974	0,079	0,078
-340,591	406,322	-0,042	0,064
-339,577	-200,000	-0,038	-0,138
-338,562	800,000	0,024	-0,053
-337,548	276,953	-0,047	-0,060
-336,533	-200,000	-0,017	-0,059
-335,518	135,123	0,078	0,074
-334,504	245,262	0,077	0,095
-333,489	-40,014	-0,156	-0,059
-332,475	72,587	-0,042	-0,032
-331,460	87,669	-0,025	-0,020
-330,445	-200,000	0,029	-0,109
-329,431	89,844	0,077	-0,062
-328,416	231,514	0,024	-0,028
-327,402	-77,094	-0,056	0,014
-326,387	465,269	0,030	-0,048
-325,372	194,186	0,064	-0,070
-324,358	70,194	0,052	-0,039
-323,343	-51,417	-0,070	-0,024
-322,329	-200,000	-0,007	0,140
-321,314	-200,000	-0,016	0,141
-320,299	800,000	-0,028	0,082
-319,285	-200,000	-0,001	0,102
-318,270	-200,000	-0,011	0,036
-317,256	-200,000	0,018	-0,106
-316,241	-119,653	-0,117	-0,015
-315,226	-113,473	0,123	0,017
-314,212	-91,337	0,108	0,022
-313,197	-155,072	-0,045	-0,002
-312,183	390,846	0,073	-0,110
-311,168	800,000	-0,032	0,067
-310,153	-200,000	0,034	-0,137
-309,139	24,767	0,007	0,004
-308,124	126,512	-0,058	0,053
-307,110	-6,743	0,058	0,029
-306,095	-200,000	-0,034	0,136
-305,080	22,181	-0,088	-0,052
-304,066	144,647	0,025	0,024
-303,051	-47,325	0,040	0,014
-302,037	-12,931	0,087	0,041
-301,022	-60,959	-0,053	-0,016
-300,008	-112,808	0,052	0,007
-298,993	39,505	-0,041	0,026
-297,978	-35,045	-0,106	-0,042
-296,964	535,495	-0,038	-0,066
-295,949	-200,000	-0,015	0,063
-294,935	-46,104	-0,173	-0,062
-293,920	800,000	0,041	0,096
-292,905	42,773	0,038	-0,025
-291,891	-58,005	0,087	-0,027
-290,876	80,881	-0,107	0,084
-289,862	-40,091	-0,021	0,008
-288,847	-200,000	0,031	-0,109
-287,832	-23,293	-0,178	0,077
-286,818	-6,763	0,067	0,033
-285,803	-200,000	0,015	0,069
-284,789	-49,738	0,065	0,022
-283,774	-41,658	0,122	0,045
-282,759	15,876	0,068	0,038
-281,745	-200,000	0,020	-0,074
-280,730	231,340	-0,008	-0,009
-279,716	8,481	0,069	0,038
-278,701	-21,164	-0,027	0,012
-277,686	-130,650	0,100	-0,010
-276,672	800,000	0,012	0,036
-275,657	-200,000	-0,059	-0,203
-274,643	141,250	-0,032	-0,030
-273,628	439,309	-0,052	-0,083
-272,613	-81,747	-0,120	-0,028
-271,599	3,102	0,090	0,047
-270,584	461,643	0,023	0,038
-269,570	-200,000	0,004	0,037
-268,555	294,522	-0,068	0,090
-267,540	-200,000	-0,008	-0,091
-266,526	490,689	0,026	-0,042
-265,511	-124,932	-0,095	0,010
-264,497	-200,000	0,010	-0,154
-263,482	800,000	0,036	-0,072
-262,467	800,000	-0,024	-0,051
-261,453	-3,701	0,068	0,034
-260,438	-200,000	0,016	0,098
-259,424	263,125	0,067	0,085
-258,409	800,000	0,039	0,097
-257,395	-131,998	0,075	0,007
-256,380	317,679	0,122	0,168
-255,365	-20,038	-0,148	0,066
-254,351	515,298	-0,029	0,050
-253,336	-200,000	0,010	-0,082
-252,322	-7,634	0,034	-0,017
-251,307	-200,000	-0,009	0,110
-250,292	376,835	0,033	-0,049
-249,278	463,515	-0,066	-0,108
-248,263	800,000	0,049	0,118
-247,249	768,827	0,082	0,162
-246,234	-47,139	-0,110	-0,039
-245,219	-49,874	-0,134	-0,046
-244,205	677,421	0,055	-0,104
-243,190	-200,000	0,017	0,073
-242,176	712,703	-0,081	-0,156
-241,161	-32,812	0,103	0,041
-240,146	-2,541	0,047	-0,024
-239,132	274,490	0,019	-0,025
-238,117	-17,790	-0,123	0,055
-237,103	85,399	0,097	0,077
-236,088	800,000	-0,022	-0,050
-235,073	-136,456	0,093	0,008
-234,059	144,405	0,022	0,021
-233,044	800,000	-0,005	0,014
-232,030	101,723	-0,076	0,064
-231,015	155,088	0,023	0,023
-230,000	782,640	0,097	-0,193
-228,986	56,201	-0,048	0,034
-227,971	-200,000	0,049	0,180
-226,957	307,934	-0,034	0,045
-225,942	800,000	-0,013	0,042
-224,927	-200,000	0,005	-0,075
-223,913	193,167	0,048	-0,053
-222,898	307,213	0,024	-0,032
-221,884	251,929	-0,069	0,085
-220,869	-200,000	0,000	0,074
-219,855	-52,220	-0,051	0,017
-218,840	11,861	0,148	-0,082
-217,825	-200,000	-0,020	0,068
-216,811	-200,000	-0,032	-0,201
-215,796	800,000	-0,030	-0,064
-214,782	-200,000	-0,031	-0,129
-213,767	-24,364	0,027	-0,012
-212,752	-200,000	0,029	0,101
-211,738	418,286	-0,023	0,036
-210,723	-200,000	0,004	0,077
-209,709	800,000	-0,075	-0,163
-208,694	-1,079	0,044	0,022
-207,679	800,000	0,048	0,103
-206,665	33,285	-0,075	-0,047
-205,650	259,006	0,033	-0,042
-204,636	-200,000	0,006	-0,044
-203,621	739,283	0,023	0,046
-202,606	-200,000	0,005	-0,065
-201,592	492,643	-0,040	0,067
-200,577	90,084	-0,069	0,056
-199,563	320,840	0,094	-0,130
-198,548	-200,000	-0,001	0,005
-197,533	3,163	-0,069	0,036
-196,519	84,865	-0,059	0,046
-195,504	383,120	-0,046	0,069
-194,490	-75,605	0,164	-0,042
-193,475	-10,722	-0,044	0,021
-192,460	-200,000	0,005	0,087
-191,446	-1,888	0,089	0,045
-190,431	-55,918	-0,062	0,020
-189,417	-200,000	0,001	0,079
-188,402	800,000	0,051	0,113
-187,387	11,541	0,081	0,045
-186,373	36,203	-0,061	-0,039
-185,358	800,000	0,065	0,171
-184,344	-56,491	0,073	0,023
-183,329	226,529	0,076	0,089
-182,315	800,000	-0,065	0,148
-181,300	-116,570	0,143	-0,019
-180,285	567,782	0,028	-0,049
-179,271	345,074	0,095	-0,135
-178,256	13,406	-0,069	-0,038
-177,242	16,635	0,095	-0,054
-176,227	6,734	-0,101	0,054
-175,212	36,593	0,028	0,018
-174,198	-82,806	-0,054	-0,012
-173,183	19,497	0,064	-0,037
-172,169	617,505	-0,020	-0,037
-171,154	257,034	-0,085	0,105
-170,139	-96,973	0,124	0,023
-169,125	-196,172	0,149	0,001
-168,110	-112,870	0,106	-0,015
-167,096	-200,000	-0,016	-0,058
-166,081	574,466	0,021	0,037
-165,066	396,960	-0,010	0,015
-164,052	-41,226	0,064	-0,024
-163,037	-156,534	0,053	0,002
-162,023	-200,000	0,015	-0,048
-161,008	446,457	0,041	-0,065
-159,993	80,176	-0,057	0,045
-158,979	-200,000	-0,017	0,078
-157,964	-85,001	-0,066	-0,015
-156,950	-200,000	0,006	0,036
-155,935	-0,551	0,144	-0,074
-154,920	-68,525	-0,095	-0,026
-153,906	355,858	0,026	-0,037
-152,891	-145,947	0,083	-0,005
-151,877	-96,620	-0,026	-0,005
-150,862	-16,291	0,070	0,032
-149,847	632,441	-0,097	0,178
-148,833	239,322	0,023	-0,028
-147,818	86,844	0,073	0,058
-146,804	-9,933	0,008	0,004
-145,789	800,000	0,043	0,087
-144,775	70,423	-0,069	0,052
-143,760	39,235	0,077	-0,050
-142,745	800,000	0,060	-0,130
-141,731	-200,000	0,019	-0,061
-140,716	134,970	0,042	0,039
-139,702	-200,000	0,057	0,206
-138,687	97,462	-0,079	0,065
-137,672	379,577	0,049	-0,072
-136,658	-200,000	-0,018	0,066
-135,643	-99,927	-0,112	-0,020
-134,629	800,000	0,006	0,015
-133,614	-54,363	0,088	0,028
-132,599	308,309	-0,049	-0,066
-131,585	12,394	-0,030	0,017
-130,570	-17,100	-0,104	-0,047
-129,556	-200,000	0,013	-0,220
-128,541	504,667	-0,076	-0,126
-127,526	-89,425	0,138	-0,029
-126,512	-200,000	-0,004	0,036
-125,497	23,287	0,042	-0,025
-124,483	304,034	0,091	0,121
-123,468	-70,127	-0,118	0,032
-122,453	-14,159	0,032	0,015
-121,439	-61,267	0,118	-0,036
-120,424	-59,031	-0,033	-0,010
-119,410	517,384	0,090	-0,152
-118,395	800,000	-0,050	0,146
-117,380	597,377	0,082	-0,148
-116,366	-200,000	0,027	-0,092
-115,351	-38,312	-0,044	-0,017
-114,337	-200,000	-0,009	-0,071
-113,322	800,000	0,018	-0,048
-112,307	-109,988	0,133	0,020
-111,293	-111,583	0,142	0,021
-110,278	-200,000	0,030	-0,114
-109,264	257,175	-0,060	0,074
-108,249	-200,000	-0,001	-0,081
-107,234	-200,000	0,002	0,101
-106,220	-200,000	0,000	0,107
-105,205	17,497	0,060	-0,034
-104,191	-200,000	-0,004	-0,044
-103,176	114,567	0,087	0,077
-102,162	-200,000	-0,003	-0,058
-101,147	397,899	-0,076	-0,114
-100,132	181,717	0,049	0,052
-99,118	800,000	-0,016	-0,034
-98,103	291,207	0,054	-0,070
-97,089	-200,000	0,002	-0,056
-96,074	61,544	0,121	-0,087
-95,059	-88,519	-0,062	0,013
-94,045	-200,000	0,004	0,039
-93,030	-104,898	-0,121	0,020
-92,016	61,785	0,038	0,027
-91,001	547,800	0,050	0,086
-89,986	800,000	0,023	-0,056
-88,972	-200,000	-0,000	0,010
-87,957	-200,000	0,000	0,033
-86,943	-28,275	-0,132	0,054
-85,928	-200,000	-0,004	0,133
-84,913	-200,000	-0,001	-0,023
-83,899	-100,193	-0,079	-0,014
-82,884	555,841	-0,017	-0,030
-81,870	-127,115	-0,146	-0,015
-80,855	132,084	0,137	0,127
-79,840	499,471	0,044	0,074
-78,826	-200,000	0,009	-0,030
-77,811	-41,862	0,156	0,057
-76,797	-200,000	-0,003	-0,020
-75,782	-200,000	0,002	0,080
-74,767	-200,000	0,011	-0,083
-73,753	-158,730	0,094	-0,004
-72,738	800,000	0,048	-0,142
-71,724	407,975	0,045	-0,068
-70,709	-32,913	-0,106	-0,042
-69,694	800,000	0,006	0,012
-68,680	-113,862	-0,093	0,013
-67,665	-113,770	0,060	-0,008
-66,651	-200,000	0,014	-0,077
-65,636	-200,000	0,048	0,167
-64,622	266,606	0,057	0,072
-63,607	-200,000	-0,007	0,114
-62,592	101,786	0,080	0,067
-61,578	243,195	0,075	-0,091
-60,563	549,106	0,049	0,084
-59,549	-200,000	-0,013	-0,052
-58,534	8,878	-1,991	-1,075
-57,519	-200,000	-0,204	-1,015
-56,505	-200,000	-1,251	-4,799
-55,490	-0,213	0,736	0,375
-54,476	800,000	5,490	11,997
-53,461	-200,000	17,369	284,266
-52,446	800,000	723,181	2228,433
-51,432	543,372	1639,314	2819,120
-50,417	111,726	1631,493	1413,327
-49,403	76,072	1286,264	976,027
-48,388	32,683	1028,355	637,064
-47,373	20,266	990,120	572,418
-46,359	18,700	978,446	560,506
-45,344	16,156	974,498	549,889
-44,330	16,272	972,959	549,378
-43,315	15,842	971,012	546,850
-42,300	15,757	970,096	546,037
-41,286	15,773	969,247	545,589
-40,271	15,825	967,885	544,970
-39,257	15,810	966,912	544,350
-38,242	15,887	966,194	544,177
-37,227	15,882	965,296	543,633
-36,213	15,845	964,710	543,162
-35,198	15,834	963,604	542,482
-34,184	15,870	962,980	542,226
-33,169	15,762	962,083	541,347
-32,154	15,788	961,078	540,846
-31,140	15,884	960,095	540,580
-30,125	15,863	959,469	540,141
-29,111	15,834	958,690	539,586
-28,096	15,805	958,059	539,115
-27,082	15,842	957,307	538,790
-26,067	15,840	956,534	538,328
-25,052	15,856	955,864	537,980
-24,038	15,822	955,193	537,471
-23,023	15,802	954,461	536,975
-22,009	15,835	953,844	536,712
-20,994	15,850	953,379	536,477
-19,979	15,876	952,644	536,127
-18,965	15,809	952,083	535,576
-17,950	15,908	951,295	535,426
-16,936	15,751	950,782	534,614
-15,921	15,772	949,935	534,183
-14,906	15,763	949,302	533,778
-13,892	15,611	948,788	532,983
-12,877	15,604	948,133	532,573
-11,863	15,665	947,523	532,404
-10,848	15,693	947,191	532,283
-9,833	15,775	946,434	532,098
-8,819	15,761	945,824	531,691
-7,804	15,761	945,114	531,271
-6,790	15,692	944,559	530,717
-5,775	15,677	944,181	530,437
-4,760	15,699	943,499	530,101
-3,746	15,719	942,786	529,743
-2,731	15,617	941,950	528,931
-1,717	15,543	941,470	528,407
-0,702	15,560	940,803	528,065
0,313	15,356	940,012	527,773
1,327	18,489	937,922	536,429
2,342	27,477	795,328	478,716
3,356	24,281	459,474	271,647
4,371	-2,512	314,150	157,283
5,386	-6,559	295,868	144,027
6,400	-8,478	290,014	139,262
7,415	-9,032	287,470	137,482
8,429	-9,237	286,065	136,598
9,444	-9,178	285,124	136,194
10,459	-9,325	284,591	135,784
11,473	-9,250	283,929	135,528
12,488	-9,164	283,354	135,326
13,502	-9,347	282,890	134,915
14,517	-9,275	282,472	134,773
15,531	-9,319	281,916	134,453
16,546	-9,406	281,664	134,237
17,561	-9,332	281,226	134,088
18,575	-9,238	280,913	134,017
19,590	-9,297	280,507	133,754
20,604	-9,163	280,209	133,729
21,619	-9,402	279,963	133,371
22,634	-9,114	279,468	133,398
23,648	-9,450	279,100	132,890
24,663	-9,382	278,920	132,858
25,677	-9,418	278,725	132,718
26,692	-9,253	278,428	132,722
27,707	-9,210	278,088	132,589
28,721	-9,377	277,818	132,291
29,736	-9,549	277,803	132,108
30,750	-9,423	277,270	131,962
31,765	-9,502	277,159	131,823
32,780	-9,464	276,883	131,716
33,794	-9,458	276,524	131,539
34,809	-9,467	276,304	131,414
35,823	-9,427	276,245	131,412
36,838	-9,306	275,677	131,243
37,853	-9,524	275,392	130,891
38,867	-9,354	275,241	130,968
39,882	-9,416	275,170	130,864
40,896	-9,247	274,777	130,824
41,911	-9,405	274,671	130,614
42,926	-9,413	274,404	130,467
43,940	-9,371	274,163	130,381
44,955	-9,608	274,096	130,116
45,969	-9,538	273,700	129,981
46,984	-9,681	273,421	129,704
47,999	-10,034	273,106	129,214
49,013	-9,969	272,886	129,159
50,028	-10,144	272,579	128,839
51,042	-10,095	272,296	128,740
52,057	-10,212	272,187	128,568
53,071	-10,122	271,918	128,514
54,086	-10,064	271,910	128,552
55,101	-9,799	271,725	128,698
56,115	-9,795	271,521	128,594
57,130	-9,203	271,269	129,010
58,144	-9,251	271,091	128,870
59,159	-9,250	270,997	128,814
60,174	-9,215	270,679	128,684
61,188	-9,188	270,451	128,589
62,203	-9,177	270,378	128,553
63,217	-9,268	270,072	128,312
64,232	-9,309	269,855	128,161
65,247	-9,227	269,469	128,041
66,261	-9,222	269,431	128,016
67,276	-9,616	269,173	127,520
68,290	-9,588	268,935	127,422
69,305	-9,792	268,539	127,037
70,320	-9,560	268,501	127,219
71,334	-9,272	268,259	127,356
72,349	-9,262	268,010	127,237
73,363	-9,432	267,954	127,043
74,378	-9,198	267,698	127,124
75,393	-9,213	267,370	126,943
76,407	-9,230	267,176	126,823
77,422	-9,260	266,904	126,657
78,436	-9,202	266,802	126,650
79,451	-9,165	266,445	126,502
80,466	-9,384	266,244	126,197
81,480	-9,424	266,054	126,059
82,495	-9,398	265,750	125,928
83,509	-9,480	265,743	125,839
84,524	-9,394	265,476	125,779
85,539	-9,550	265,043	125,422
86,553	-9,701	265,025	125,266
87,568	-9,520	264,865	125,343
88,582	-9,696	264,628	125,061
89,597	-9,679	264,455	124,983
90,611	-9,440	264,270	125,099
91,626	-9,304	264,189	125,172
92,641	-9,236	263,979	125,122
93,655	-9,441	263,662	124,777
94,670	-9,361	263,477	124,750
95,684	-9,319	263,356	124,719
96,699	-9,266	263,055	124,613
97,714	-9,367	262,731	124,358
98,728	-9,720	262,867	124,096
99,743	-9,691	262,458	123,918
100,757	-9,678	262,088	123,744
101,772	-9,486	261,875	123,803
102,787	-9,553	261,882	123,735
103,801	-9,346	261,677	123,812
104,816	-9,517	261,618	123,621
105,830	-9,178	261,320	123,769
106,845	-9,223	261,165	123,645
107,860	-9,194	261,094	123,626
108,874	-9,317	260,707	123,323
109,889	-9,290	260,495	123,236
110,903	-9,358	260,299	123,073
111,918	-9,318	260,090	122,998
112,933	-9,398	260,034	122,889
113,947	-9,279	259,827	122,886
114,962	-9,317	259,708	122,785
115,976	-9,234	259,377	122,691
116,991	-9,289	259,251	122,572
118,006	-9,200	258,960	122,501
119,020	-9,332	258,901	122,347
120,035	-9,399	258,948	122,299
121,049	-9,311	258,528	122,167
122,064	-9,272	258,316	122,090
123,079	-9,207	258,034	122,003
124,093	-9,232	257,888	121,901
125,108	-9,323	257,636	121,692
126,122	-9,737	257,474	121,243
127,137	-9,672	257,202	121,161
128,151	-9,578	257,056	121,162
129,166	-9,542	256,822	121,073
130,181	-9,606	256,731	120,964
131,195	-9,712	256,528	120,766
132,210	-9,433	256,348	120,912
133,224	-9,304	256,156	120,923
134,239	-9,355	256,102	120,842
135,254	-9,232	255,964	120,873
136,268	-9,322	255,509	120,569
137,283	-9,594	255,341	120,244
138,297	-9,716	255,110	120,020
139,312	-9,788	254,850	119,824
140,327	-9,443	254,736	120,057
141,341	-9,238	254,747	120,228
142,356	-9,072	254,355	120,176
143,370	-9,040	254,365	120,197
144,385	-9,075	254,196	120,076
145,400	-9,036	253,920	119,969
146,414	-9,286	253,965	119,765
147,429	-9,201	253,828	119,762
148,443	-9,060	253,478	119,707
149,458	-8,922	253,232	119,699
150,473	-9,097	253,166	119,508
151,487	-9,188	252,911	119,298
152,502	-9,286	252,809	119,156
153,516	-9,049	252,691	119,292
154,531	-9,072	252,427	119,137
155,546	-8,977	252,304	119,149
156,560	-9,067	251,934	118,887
157,575	-9,228	251,731	118,644
158,589	-9,163	251,594	118,624
159,604	-9,021	251,506	118,693
160,619	-9,159	251,356	118,494
161,633	-9,150	251,133	118,386
162,648	-9,307	251,032	118,195
163,662	-9,019	250,758	118,299
164,677	-9,010	250,679	118,259
165,692	-9,080	250,362	118,040
166,706	-9,084	250,392	118,040
167,721	-9,058	250,239	117,979
168,735	-9,093	250,112	117,879
169,750	-8,865	249,917	117,969
170,764	-8,983	249,686	117,750
171,779	-9,132	249,758	117,648
172,794	-8,957	249,248	117,545
173,808	-9,089	249,110	117,358
174,823	-9,328	248,787	116,995
175,837	-9,648	248,692	116,671
176,852	-9,416	248,658	116,839
177,867	-9,054	248,590	117,101
178,881	-8,855	248,319	117,130
179,896	-8,992	248,290	116,990
180,910	-9,013	247,977	116,815
181,925	-9,131	247,758	116,603
182,940	-8,935	247,687	116,722
183,954	-9,060	247,488	116,514
184,969	-9,062	247,339	116,432
185,983	-8,930	247,194	116,463
186,998	-8,888	247,133	116,459
188,013	-8,811	246,801	116,356
189,027	-9,090	246,635	116,036
190,042	-9,044	246,567	116,031
191,056	-8,948	246,379	116,013
192,071	-8,977	246,166	115,878
193,086	-8,868	245,860	115,813
194,100	-9,153	245,887	115,580
195,115	-8,880	245,642	115,680
196,129	-8,985	245,488	115,511
197,144	-8,841	245,292	115,527
198,159	-9,029	245,005	115,227
199,173	-8,974	244,976	115,249
200,188	-8,972	244,717	115,118
201,202	-9,288	244,475	114,733
202,217	-9,463	244,208	114,455
203,232	-9,588	244,092	114,287
204,246	-9,220	243,960	114,517
205,261	-8,747	244,011	114,919
206,275	-9,475	243,685	114,159
207,290	-5,927	244,990	117,681
208,304	0,489	247,049	123,972
209,319	3,853	247,603	127,022
210,334	3,960	247,946	127,275
211,348	4,281	247,755	127,431
212,363	4,663	247,522	127,616
213,377	4,749	247,406	127,615
214,392	4,560	247,413	127,452
215,407	4,449	247,171	127,224
216,421	4,514	246,843	127,097
217,436	4,644	246,872	127,207
218,450	4,641	246,630	127,069
219,465	4,337	246,591	126,788
220,480	4,235	246,302	126,544
221,494	4,236	246,120	126,440
222,509	4,186	245,977	126,314
223,523	4,223	245,661	126,172
224,538	3,830	245,436	125,723
225,553	3,801	245,347	125,643
226,567	4,193	245,081	125,815
227,582	4,057	245,104	125,705
228,596	4,030	244,993	125,615
229,611	3,754	244,669	125,213
230,626	3,757	244,510	125,123
231,640	3,953	244,260	125,143
232,655	4,296	244,206	125,383
233,669	3,958	243,995	124,989
234,684	3,713	243,831	124,694
235,699	4,024	243,752	124,896
236,713	4,407	243,687	125,162
237,728	4,015	243,464	124,718
238,742	3,843	243,184	124,425
239,757	3,795	243,042	124,302
240,772	3,748	242,925	124,194
241,786	3,931	242,861	124,297
242,801	4,058	242,536	124,222
243,815	3,889	242,417	124,014
244,830	3,959	242,494	124,098
245,844	4,340	242,121	124,204
246,859	4,023	242,174	123,965
247,874	3,856	241,811	123,633
248,888	4,158	241,682	123,799
249,903	3,924	241,597	123,556
250,917	4,264	241,509	123,773
251,932	4,484	241,290	123,827
252,947	4,430	241,022	123,635
253,961	4,057	240,865	123,245
254,976	4,088	240,804	123,227
255,990	4,216	240,774	123,303
257,005	4,109	240,452	123,041
258,020	3,725	240,317	122,655
259,034	3,830	240,117	122,626
260,049	3,932	240,060	122,668
261,063	4,101	239,682	122,597
262,078	3,987	239,665	122,488
263,093	4,185	239,482	122,540
264,107	4,063	239,401	122,391
265,122	3,870	239,292	122,171
266,136	3,896	239,327	122,199
267,151	4,109	239,064	122,223
268,166	3,843	238,797	121,864
269,180	3,775	238,686	121,743
270,195	4,475	238,568	122,226
271,209	4,604	238,420	122,242
272,224	3,806	238,256	121,515
273,239	3,537	237,971	121,147
274,253	3,894	237,793	121,327
275,268	3,947	237,680	121,301
276,282	4,180	237,583	121,424
277,297	3,811	237,278	120,967
278,312	4,022	237,153	121,058
279,326	4,137	237,168	121,145
280,341	4,051	236,973	120,968
281,355	3,899	236,987	120,844
282,370	4,097	236,761	120,873
283,384	4,065	236,503	120,707
284,399	3,845	236,261	120,400
285,414	3,709	236,160	120,231
286,428	3,793	235,991	120,199
287,443	3,910	235,835	120,201
288,457	4,308	235,647	120,406
289,472	4,187	235,547	120,249
290,487	3,886	235,475	119,967
291,501	3,782	235,262	119,767
292,516	3,797	235,103	119,686
293,530	3,500	235,018	119,401
294,545	3,962	235,007	119,745
295,560	3,960	234,627	119,539
296,574	3,691	234,558	119,284
297,589	3,854	234,328	119,283
298,603	4,141	234,343	119,503
299,618	4,200	234,197	119,463
300,633	4,199	233,960	119,331
301,647	4,000	233,927	119,149
302,662	4,542	233,773	119,480
303,676	4,506	233,584	119,345
304,691	4,448	233,396	119,193
305,706	4,264	233,534	119,111
306,720	4,432	233,202	119,061
307,735	4,415	232,852	118,858
308,749	3,846	232,886	118,427
309,764	3,842	232,669	118,303
310,779	3,836	232,304	118,102
311,793	3,672	232,160	117,892
312,808	3,793	232,067	117,927
313,822	3,631	231,881	117,698
314,837	3,806	231,783	117,772
315,852	3,733	231,561	117,593
316,866	3,862	231,610	117,706
317,881	4,109	231,424	117,790
318,895	4,028	231,250	117,629
319,910	3,952	231,294	117,583
320,925	4,252	231,017	117,661
321,939	4,203	230,854	117,529
322,954	4,209	230,772	117,482
323,968	4,044	230,512	117,213
324,983	3,828	230,317	116,940
325,997	3,963	230,151	116,948
327,012	4,296	230,182	117,206
328,027	4,293	230,126	117,165
329,041	4,538	229,979	117,265
330,056	4,803	229,935	117,434
331,070	4,753	229,823	117,328
332,085	4,520	229,369	116,909
333,100	4,104	229,249	116,523
334,114	4,173	229,124	116,501
335,129	4,480	229,053	116,687
336,143	4,580	228,933	116,690
337,158	4,464	228,836	116,543
338,173	4,373	228,626	116,357
339,187	4,044	228,375	115,971
340,202	4,241	228,263	116,053
341,216	4,153	228,116	115,901
342,231	4,033	228,009	115,746
343,246	4,076	227,725	115,625
344,260	4,039	227,748	115,598
345,275	4,659	227,612	115,984
346,289	4,472	227,493	115,772
347,304	4,548	227,284	115,713
348,319	4,615	227,171	115,695
349,333	4,354	227,028	115,417
350,348	4,175	226,714	115,113
351,362	4,225	226,605	115,085
352,377	4,261	226,366	114,980
353,392	3,821	226,317	114,617
354,406	3,905	226,248	114,634
355,421	195,006	1325,136	1400,769
356,435	156,277	1459,025	1400,767
