DTS Sentinel unit serial number:	SN410029Multiplexer serial number:	ORYXHardware model number:	OX2-SRSoftware version number:	ORYX F/W v4,00 Oryx Data Collector v3.7.2.0data status	okinstallation	B5 Nyhavnadifferential loss correction	single-endedforward channel	channel 2reverse channel	N/Adate	2023/12/12time	06:37:13forward acquisition time	300,00reverse acquisition time	0,00gamma	499,1914k internal	0,3157k external	0,3157temperature offset calibration	1,0000default loss term (dB/km)	0,3820temperature slope calibration	1,0000multiplexer offset coefficient	1,0000multiplexer slope coefficient	1,0000fibre end	0,00T internal ref (°C)	15,22T ext. ref 1 (°C)	-1,11T ext. ref 2 (°C)	-1,42length (m)	temperature (°C)	Stokes	anti-Stokes-744,400	-146,587	0,262	0,017
-743,385	-130,516	-0,386	-0,038
-742,371	-200,000	-0,004	0,108
-741,356	90,046	-0,196	-0,161
-740,342	679,088	0,023	0,045
-739,327	41,955	-0,351	0,235
-738,312	-126,975	0,114	0,012
-737,298	-117,129	-0,349	-0,046
-736,283	367,832	-0,038	-0,057
-735,269	-98,786	-0,427	0,079
-734,254	-64,161	0,119	-0,036
-733,239	-85,821	-0,492	-0,112
-732,225	-34,211	0,215	0,087
-731,210	15,987	-0,071	-0,041
-730,196	754,410	-0,048	-0,097
-729,181	-200,000	-0,015	-0,163
-728,167	432,882	-0,040	-0,064
-727,152	9,267	-0,083	-0,046
-726,137	-200,000	0,004	-0,132
-725,123	555,731	-0,067	-0,120
-724,108	597,538	-0,056	-0,103
-723,094	17,956	0,017	-0,010
-722,079	34,028	-0,081	-0,052
-721,064	-48,215	-0,054	0,019
-720,050	512,725	0,035	0,060
-719,035	45,659	-0,066	-0,045
-718,021	-200,000	-0,043	0,147
-717,006	283,974	-0,078	-0,103
-715,991	-150,158	-0,109	-0,006
-714,977	-17,523	-0,139	-0,064
-713,962	762,737	-0,042	0,084
-712,948	800,000	-0,066	0,197
-711,933	141,944	-0,069	0,067
-710,918	-58,873	-0,043	-0,014
-709,904	-35,057	-0,301	-0,120
-708,889	-40,161	-0,088	0,034
-707,875	-112,152	-0,090	0,013
-706,860	250,324	-0,066	0,082
-705,845	-86,233	0,065	0,015
-704,831	-200,000	0,001	-0,005
-703,816	-200,000	-0,001	-0,092
-702,802	261,111	0,023	0,029
-701,787	384,671	0,038	-0,059
-700,772	-200,000	0,002	-0,162
-699,758	32,692	0,106	-0,067
-698,743	234,712	0,086	-0,104
-697,729	212,200	0,079	0,092
-696,714	-200,000	-0,007	0,122
-695,699	800,000	-0,015	0,032
-694,685	800,000	-0,039	0,114
-693,670	-179,370	0,104	0,002
-692,656	-200,000	-0,006	-0,030
-691,641	-200,000	-0,002	0,014
-690,627	41,954	-0,068	-0,045
-689,612	-200,000	0,015	0,120
-688,597	-108,734	0,050	0,008
-687,583	-49,224	-0,174	-0,061
-686,568	-200,000	-0,004	-0,046
-685,554	-27,192	-0,099	-0,042
-684,539	20,861	0,073	-0,044
-683,524	-200,000	-0,006	0,088
-682,510	-71,057	0,066	0,018
-681,495	9,802	-0,114	0,064
-680,481	663,077	-0,050	0,095
-679,466	341,188	-0,051	-0,073
-678,451	-21,388	-0,101	-0,045
-677,437	-200,000	0,004	0,036
-676,422	-200,000	0,008	-0,035
-675,408	800,000	-0,050	-0,116
-674,393	-133,108	-0,062	0,006
-673,378	86,248	-0,075	-0,061
-672,364	37,775	-0,145	-0,094
-671,349	800,000	-0,007	-0,020
-670,335	369,644	-0,052	-0,077
-669,320	682,645	0,069	0,134
-668,305	-200,000	0,003	-0,063
-667,291	398,383	0,048	-0,074
-666,276	80,200	-0,005	0,004
-665,262	-152,206	-0,036	0,002
-664,247	800,000	0,021	-0,057
-663,232	800,000	-0,024	0,059
-662,218	315,387	-0,089	0,123
-661,203	-200,000	-0,009	0,039
-660,189	220,098	0,025	0,029
-659,174	61,836	0,021	-0,016
-658,159	211,452	-0,139	-0,160
-657,145	800,000	0,044	0,097
-656,130	-101,168	0,010	-0,002
-655,116	149,056	0,025	-0,024
-654,101	97,285	0,063	-0,053
-653,086	361,878	-0,038	-0,056
-652,072	-127,049	-0,052	-0,006
-651,057	800,000	-0,028	0,082
-650,043	23,887	-0,041	-0,025
-649,028	-111,227	0,041	-0,006
-648,014	800,000	-0,010	-0,028
-646,999	16,723	0,035	-0,020
-645,984	-200,000	0,027	0,136
-644,970	-63,063	-0,040	-0,012
-643,955	141,020	0,103	-0,100
-642,941	-200,000	0,004	-0,097
-641,926	133,048	0,038	-0,036
-640,911	83,242	-0,135	0,108
-639,897	-12,064	0,087	-0,042
-638,882	30,884	0,116	0,073
-637,868	-81,074	-0,025	0,006
-636,853	-136,140	-0,022	0,002
-635,838	800,000	-0,029	0,067
-634,824	800,000	-0,018	0,056
-633,809	800,000	0,007	-0,017
-632,795	70,450	0,075	0,057
-631,780	-200,000	-0,008	0,129
-630,765	-101,145	-0,012	0,002
-629,751	249,973	-0,064	0,079
-628,736	800,000	-0,029	-0,079
-627,722	221,578	0,054	-0,063
-626,707	800,000	-0,057	-0,167
-625,692	800,000	0,049	0,118
-624,678	149,481	0,005	-0,005
-623,663	-113,556	0,083	0,012
-622,649	199,804	-0,075	0,084
-621,634	800,000	-0,050	-0,114
-620,619	275,713	0,084	-0,110
-619,605	800,000	0,010	-0,030
-618,590	-200,000	0,000	0,077
-617,576	-69,774	0,058	-0,016
-616,561	235,136	0,039	0,047
-615,546	-200,000	-0,015	0,109
-614,532	201,892	0,014	-0,016
-613,517	47,764	0,085	-0,058
-612,503	800,000	-0,048	-0,113
-611,488	296,692	-0,060	0,081
-610,474	-200,000	0,015	0,121
-609,459	238,827	0,051	0,062
-608,444	-200,000	0,001	-0,170
-607,430	800,000	0,027	-0,079
-606,415	-200,000	0,010	-0,087
-605,401	151,657	-0,010	-0,010
-604,386	-61,063	-0,027	0,008
-603,371	262,722	-0,049	0,063
-602,357	-173,790	-0,138	0,003
-601,342	-140,403	-0,130	0,010
-600,328	38,192	-0,113	-0,073
-599,313	123,597	-0,050	0,046
-598,298	111,364	0,125	-0,110
-597,284	-86,752	-0,065	0,014
-596,269	800,000	0,049	0,102
-595,255	-200,000	-0,008	0,081
-594,240	-25,298	-0,049	0,021
-593,225	425,376	0,016	-0,025
-592,211	800,000	0,024	-0,064
-591,196	-200,000	-0,011	-0,075
-590,182	-178,913	0,135	0,002
-589,167	-93,592	0,113	-0,023
-588,152	267,409	0,065	-0,084
-587,138	-24,355	-0,045	-0,019
-586,123	-200,000	0,022	0,076
-585,109	68,285	0,131	-0,098
-584,094	-200,000	-0,013	-0,064
-583,079	-200,000	0,042	0,204
-582,065	737,408	0,068	-0,133
-581,050	-21,683	0,051	0,023
-580,036	61,845	-0,109	0,080
-579,021	-200,000	-0,023	0,085
-578,006	-200,000	-0,001	0,085
-576,992	-41,412	-0,084	-0,032
-575,977	800,000	0,017	0,053
-574,963	2,053	-0,138	0,073
-573,948	800,000	-0,037	0,090
-572,934	17,584	0,058	0,034
-571,919	332,693	-0,044	-0,063
-570,904	-60,516	-0,060	-0,018
-569,890	282,604	-0,076	-0,100
-568,875	182,892	0,067	-0,073
-567,861	-200,000	0,006	-0,026
-566,846	-200,000	-0,014	0,133
-565,831	-200,000	-0,017	0,191
-564,817	548,741	-0,016	-0,027
-563,802	-200,000	-0,012	-0,147
-562,788	-200,000	-0,014	-0,101
-561,773	-200,000	-0,010	0,039
-560,758	85,313	-0,012	0,010
-559,744	87,072	0,033	0,027
-558,729	-200,000	0,021	-0,112
-557,715	-65,599	0,012	0,003
-556,700	220,662	0,035	-0,041
-555,685	-200,000	0,024	0,087
-554,671	800,000	0,015	0,044
-553,656	161,006	0,045	-0,046
-552,642	-200,000	0,024	0,111
-551,627	800,000	0,023	-0,061
-550,612	728,396	0,045	0,089
-549,598	-200,000	-0,027	-0,181
-548,583	-200,000	0,006	-0,078
-547,569	96,622	-0,014	0,012
-546,554	-200,000	-0,002	0,009
-545,539	-143,576	0,073	0,005
-544,525	-58,007	-0,036	-0,011
-543,510	-8,458	-0,116	0,057
-542,496	800,000	-0,032	-0,072
-541,481	-200,000	0,027	-0,135
-540,466	800,000	0,016	0,039
-539,452	-40,829	-0,022	0,008
-538,437	73,224	-0,049	0,037
-537,423	760,850	0,072	0,144
-536,408	70,382	-0,040	0,030
-535,393	751,407	0,012	0,024
-534,379	-200,000	0,046	-0,206
-533,364	-150,711	-0,113	0,006
-532,350	-200,000	-0,009	0,119
-531,335	-200,000	0,002	0,082
-530,321	800,000	-0,058	0,168
-529,306	52,754	0,035	0,025
-528,291	-114,179	0,089	-0,012
-527,277	800,000	-0,117	-0,298
-526,262	205,226	0,086	-0,098
-525,248	-200,000	-0,022	-0,094
-524,233	-140,059	0,106	0,008
-523,218	-200,000	0,000	0,076
-522,204	178,965	-0,066	0,071
-521,189	69,273	0,119	-0,089
-520,175	800,000	-0,011	-0,037
-519,160	-200,000	0,017	0,055
-518,145	-79,794	-0,075	0,018
-517,131	70,937	0,046	0,035
-516,116	-6,571	0,088	0,044
-515,102	-140,248	0,068	0,005
-514,087	120,919	0,072	0,066
-513,072	94,296	0,068	-0,057
-512,058	-113,816	-0,056	-0,008
-511,043	-87,835	0,077	0,017
-510,029	800,000	0,046	0,106
-509,014	800,000	-0,038	0,119
-507,999	177,371	-0,071	0,076
-506,985	800,000	0,031	-0,069
-505,970	-200,000	-0,024	-0,146
-504,956	-22,830	-0,038	0,017
-503,941	800,000	-0,018	-0,050
-502,926	-200,000	0,003	0,072
-501,912	494,380	0,091	0,153
-500,897	800,000	0,029	0,079
-499,883	337,859	0,049	-0,070
-498,868	-10,529	-0,088	-0,042
-497,853	-200,000	0,028	-0,173
-496,839	161,267	0,065	0,067
-495,824	-200,000	0,000	-0,035
-494,810	-110,970	0,075	-0,011
-493,795	-47,502	0,105	0,037
-492,781	37,470	-0,009	0,006
-491,766	-60,323	-0,110	0,034
-490,751	-200,000	0,006	0,065
-489,737	-59,209	-0,076	0,024
-488,722	251,742	0,082	0,102
-487,708	-70,198	0,083	0,023
-486,693	-136,546	-0,071	0,006
-485,678	120,966	-0,065	0,059
-484,664	197,508	-0,071	0,079
-483,649	800,000	-0,022	-0,051
-482,635	-200,000	-0,002	0,039
-481,620	-14,758	0,056	0,026
-480,605	-22,835	0,094	-0,041
-479,591	96,680	0,105	0,088
-478,576	-77,062	-0,164	-0,042
-477,562	-88,475	-0,102	0,022
-476,547	-200,000	-0,042	-0,148
-475,532	-60,487	0,040	0,012
-474,518	-200,000	-0,001	0,118
-473,503	669,988	0,036	0,069
-472,489	-200,000	-0,010	-0,055
-471,474	-152,107	0,115	-0,006
-470,459	278,896	-0,100	-0,131
-469,445	-200,000	-0,029	-0,117
-468,430	800,000	-0,042	0,104
-467,416	369,429	0,053	0,078
-466,401	195,788	-0,056	-0,063
-465,386	37,680	0,114	0,074
-464,372	-200,000	-0,031	0,151
-463,357	422,159	-0,089	0,140
-462,343	-200,000	-0,011	-0,043
-461,328	107,988	-0,039	0,034
-460,313	-200,000	-0,004	0,034
-459,299	-122,309	0,070	0,008
-458,284	-200,000	0,024	-0,082
-457,270	-200,000	0,002	-0,008
-456,255	101,549	-0,079	0,068
-455,241	114,807	-0,115	-0,102
-454,226	-200,000	-0,022	-0,074
-453,211	-150,257	-0,040	-0,002
-452,197	-200,000	-0,032	0,105
-451,182	173,236	0,069	0,072
-450,168	800,000	0,053	0,147
-449,153	-12,348	-0,129	-0,061
-448,138	226,038	-0,113	-0,133
-447,124	800,000	0,021	0,065
-446,109	-116,482	0,066	-0,009
-445,095	316,260	0,025	0,035
-444,080	-47,267	-0,089	0,031
-443,065	-95,971	0,034	-0,007
-442,051	13,035	-0,082	0,046
-441,036	10,473	0,034	0,019
-440,022	368,562	-0,040	-0,059
-439,007	19,208	-0,142	0,083
-437,992	550,515	0,066	0,116
-436,978	-81,591	0,083	0,020
-435,963	800,000	-0,052	-0,110
-434,949	257,695	-0,043	-0,054
-433,934	800,000	0,025	-0,064
-432,919	96,899	-0,038	0,032
-431,905	-56,278	-0,010	0,003
-430,890	800,000	0,018	-0,043
-429,876	-200,000	-0,004	0,064
-428,861	-200,000	0,001	-0,050
-427,846	21,256	-0,009	-0,005
-426,832	800,000	0,059	-0,124
-425,817	-80,275	-0,085	0,020
-424,803	277,428	0,033	0,042
-423,788	89,806	0,072	-0,058
-422,773	32,807	-0,025	-0,016
-421,759	-200,000	-0,003	0,011
-420,744	-82,344	-0,067	-0,016
-419,730	800,000	-0,025	-0,055
-418,715	689,695	0,011	-0,021
-417,701	-200,000	-0,022	0,093
-416,686	293,589	0,044	0,058
-415,671	308,377	-0,008	-0,011
-414,657	323,025	0,033	-0,045
-413,642	488,999	0,085	0,142
-412,628	-155,357	0,099	0,005
-411,613	800,000	-0,054	-0,166
-410,598	-200,000	-0,005	-0,081
-409,584	-0,509	0,185	0,095
-408,569	-108,900	0,066	0,010
-407,555	800,000	-0,045	0,109
-406,540	-200,000	0,009	-0,047
-405,525	-200,000	-0,027	-0,105
-404,511	147,954	0,107	-0,105
-403,496	-200,000	0,002	-0,012
-402,482	447,603	-0,011	0,018
-401,467	-200,000	-0,013	-0,060
-400,452	164,824	-0,106	0,109
-399,438	-53,886	0,084	-0,028
-398,423	-140,754	-0,072	-0,005
-397,409	-96,308	-0,175	0,034
-396,394	-74,205	-0,080	-0,021
-395,379	36,740	-0,136	-0,087
-394,365	-121,459	0,050	0,006
-393,350	-85,614	0,133	-0,030
-392,336	-105,142	-0,073	-0,012
-391,321	-97,254	-0,036	-0,007
-390,306	-28,841	-0,191	0,079
-389,292	208,142	-0,037	-0,042
-388,277	276,706	0,048	0,062
-387,263	-39,191	0,154	0,059
-386,248	-129,035	0,089	-0,009
-385,233	379,636	0,072	0,107
-384,219	-20,589	0,045	-0,020
-383,204	-119,435	-0,075	0,009
-382,190	800,000	-0,044	-0,105
-381,175	-200,000	-0,019	-0,143
-380,160	-128,925	0,174	-0,018
-379,146	231,883	0,090	0,107
-378,131	-108,022	0,086	0,013
-377,117	-63,965	-0,071	-0,021
-376,102	-1,894	-0,076	-0,039
-375,088	447,843	-0,045	-0,073
-374,073	381,247	0,023	0,034
-373,058	-200,000	0,006	0,022
-372,044	73,458	0,039	0,030
-371,029	-21,505	-0,120	0,053
-370,015	800,000	-0,041	0,097
-369,000	800,000	-0,020	-0,057
-367,985	14,714	0,041	0,023
-366,971	379,477	0,028	0,041
-365,956	41,340	-0,099	0,065
-364,942	7,492	0,040	-0,021
-363,927	-66,551	0,034	-0,010
-362,912	157,229	-0,043	0,043
-361,898	142,249	0,058	-0,056
-360,883	-200,000	-0,000	0,001
-359,869	212,823	-0,043	0,049
-358,854	-200,000	-0,018	-0,077
-357,839	116,719	0,089	0,080
-356,825	-200,000	0,005	-0,085
-355,810	158,103	0,014	0,014
-354,796	-200,000	0,015	0,167
-353,781	-28,630	0,044	-0,018
-352,766	404,321	0,029	0,044
-351,752	-17,567	-0,022	0,010
-350,737	82,479	0,158	0,124
-349,723	-200,000	0,010	0,050
-348,708	122,038	-0,030	-0,027
-347,693	-122,604	0,085	0,010
-346,679	-41,763	-0,121	0,045
-345,664	800,000	0,042	-0,126
-344,650	47,226	0,118	0,080
-343,635	-49,310	0,077	0,027
-342,620	-27,093	0,088	0,037
-341,606	-200,000	-0,008	-0,127
-340,591	25,933	-0,074	0,045
-339,577	594,363	-0,011	0,020
-338,562	428,903	0,028	-0,044
-337,548	-33,188	0,038	-0,015
-336,533	-82,402	0,155	0,036
-335,518	98,989	-0,075	-0,062
-334,504	-200,000	0,072	0,000
-333,489	11,854	-0,048	0,027
-332,475	701,580	-0,035	-0,068
-331,460	186,031	-0,070	-0,076
-330,445	-200,000	-0,004	-0,117
-329,431	1,103	-0,010	-0,005
-328,416	50,655	0,103	-0,071
-327,402	28,809	-0,087	0,053
-326,387	-26,063	0,043	-0,018
-325,372	103,216	-0,110	-0,093
-324,358	-78,072	0,052	0,013
-323,343	423,736	-0,063	-0,099
-322,329	99,239	0,050	0,042
-321,314	-42,580	-0,055	-0,020
-320,299	106,465	0,039	-0,033
-319,285	99,166	0,074	-0,062
-318,270	7,613	-0,117	-0,063
-317,256	800,000	0,063	-0,200
-316,241	13,044	-0,072	-0,040
-315,226	-200,000	-0,000	-0,014
-314,212	-32,961	-0,109	0,044
-313,197	-80,324	0,148	0,036
-312,183	376,969	-0,039	0,058
-311,168	595,579	0,031	-0,057
-310,153	-65,199	-0,074	0,021
-309,139	128,493	-0,088	-0,081
-308,124	-200,000	-0,002	0,063
-307,110	77,216	-0,061	0,047
-306,095	33,383	-0,074	-0,047
-305,080	-200,000	-0,001	0,042
-304,066	275,239	0,056	-0,072
-303,051	329,430	0,064	-0,089
-302,037	800,000	-0,016	0,049
-301,022	-106,595	0,111	-0,018
-300,008	420,959	-0,032	-0,050
-298,993	-200,000	0,008	0,114
-297,978	-105,559	-0,063	0,010
-296,964	-25,803	0,072	0,031
-295,949	195,221	-0,047	0,052
-294,935	800,000	-0,053	-0,116
-293,920	-94,347	0,117	-0,023
-292,905	-200,000	-0,015	0,078
-291,891	43,191	0,092	-0,061
-290,876	-0,557	0,089	-0,046
-289,862	-87,385	-0,075	0,016
-288,847	-136,401	-0,214	-0,018
-287,832	-81,933	-0,180	-0,042
-286,818	-200,000	0,005	-0,126
-285,803	-71,029	0,093	0,025
-284,789	-48,146	0,120	0,042
-283,774	-75,258	-0,115	-0,029
-282,759	-200,000	0,052	-0,186
-281,745	-148,362	0,038	-0,002
-280,730	-96,653	0,031	0,006
-279,716	-139,698	-0,074	0,006
-278,701	-67,371	0,068	-0,019
-277,686	-188,571	0,126	0,001
-276,672	116,255	0,072	-0,064
-275,657	472,329	-0,056	0,092
-274,643	-25,937	0,007	0,003
-273,628	223,015	-0,043	-0,050
-272,613	62,488	-0,125	-0,090
-271,599	-200,000	0,045	0,177
-270,584	300,169	0,042	-0,056
-269,570	800,000	0,058	-0,182
-268,555	52,226	-0,108	-0,075
-267,540	-200,000	0,002	-0,042
-266,526	0,238	0,075	-0,039
-265,511	-200,000	0,034	-0,123
-264,497	-85,508	-0,118	0,026
-263,482	-38,919	0,044	0,017
-262,467	800,000	-0,061	0,144
-261,453	800,000	-0,012	-0,033
-260,438	-181,655	0,083	0,001
-259,424	22,935	-0,171	0,101
-258,409	-200,000	-0,012	-0,046
-257,395	134,405	0,078	-0,073
-256,380	-99,917	0,111	-0,020
-255,365	-113,865	0,064	-0,009
-254,351	-101,555	-0,143	-0,025
-253,336	218,854	0,063	0,073
-252,322	-200,000	0,003	-0,064
-251,307	-200,000	0,008	0,098
-250,292	-200,000	0,008	0,039
-249,278	-122,636	-0,061	0,007
-248,263	-200,000	0,014	0,099
-247,249	-25,175	-0,153	-0,065
-246,234	800,000	-0,023	-0,054
-245,219	174,778	0,044	0,046
-244,205	-200,000	-0,004	0,105
-243,190	-200,000	-0,011	-0,047
-242,176	427,450	-0,052	0,081
-241,161	52,582	-0,053	0,037
-240,146	-14,391	-0,084	0,039
-239,132	42,087	0,068	-0,044
-238,117	800,000	0,037	0,088
-237,103	-45,998	-0,128	-0,045
-236,088	114,943	0,131	-0,115
-235,073	36,702	0,083	-0,053
-234,059	800,000	0,020	-0,053
-233,044	-200,000	-0,017	0,055
-232,030	-200,000	-0,008	-0,184
-231,015	800,000	-0,044	-0,134
-230,000	53,405	-0,174	0,120
-228,986	-86,245	0,133	-0,029
-227,971	-200,000	0,004	-0,014
-226,957	-19,817	0,090	-0,040
-225,942	58,966	0,113	0,081
-224,927	297,714	0,098	0,130
-223,913	294,124	-0,077	-0,101
-222,898	436,336	-0,088	-0,139
-221,884	-35,911	-0,068	-0,026
-220,869	-83,871	0,078	-0,018
-219,855	800,000	-0,038	-0,095
-218,840	800,000	-0,043	0,125
-217,825	800,000	-0,083	0,182
-216,811	607,097	-0,035	-0,063
-215,796	800,000	0,025	-0,073
-214,782	6,891	-0,035	-0,019
-213,767	-34,777	-0,097	-0,038
-212,752	-136,885	0,054	0,004
-211,738	295,793	-0,047	-0,062
-210,723	-82,588	0,109	-0,025
-209,709	-200,000	-0,014	0,068
-208,694	-200,000	0,060	-0,192
-207,679	167,458	-0,101	-0,103
-206,665	304,341	0,072	0,097
-205,650	-200,000	-0,004	-0,028
-204,636	-47,591	0,152	-0,053
-203,621	-200,000	-0,009	0,135
-202,606	34,950	-0,097	-0,061
-201,592	-200,000	0,014	-0,078
-200,577	114,152	-0,112	-0,098
-199,563	-115,381	-0,086	0,012
-198,548	61,241	0,108	0,077
-197,533	198,620	0,098	0,108
-196,519	-200,000	-0,007	0,045
-195,504	-25,325	-0,080	0,034
-194,490	542,278	0,038	0,065
-193,475	354,098	0,028	0,040
-192,460	-200,000	-0,003	0,019
-191,446	458,348	0,035	0,056
-190,431	233,064	0,054	0,064
-189,417	-121,101	0,082	0,010
-188,402	558,124	-0,032	0,055
-187,387	78,441	0,139	-0,107
-186,373	-200,000	0,033	0,156
-185,358	-96,166	-0,078	0,015
-184,344	800,000	-0,013	0,028
-183,329	70,978	0,052	0,039
-182,315	308,202	-0,057	0,077
-181,300	-118,917	-0,065	0,008
-180,285	-64,944	-0,089	-0,026
-179,271	85,847	-0,127	-0,101
-178,256	147,768	0,055	0,053
-177,242	403,952	-0,089	0,135
-176,227	1,717	0,047	-0,024
-175,212	103,386	-0,073	-0,062
-174,198	25,150	0,065	-0,039
-173,183	-93,215	-0,002	-0,000
-172,169	-200,000	-0,025	-0,092
-171,154	16,471	0,078	0,044
-170,139	292,290	0,089	0,118
-169,125	695,125	-0,075	-0,142
-168,110	390,455	0,092	0,138
-167,096	-132,404	-0,088	0,008
-166,081	-53,346	-0,054	0,018
-165,066	-10,032	0,109	-0,052
-164,052	520,809	0,032	-0,055
-163,037	-105,171	-0,140	-0,023
-162,023	146,626	0,065	0,063
-161,008	-200,000	0,015	0,065
-159,993	-155,914	-0,055	-0,002
-158,979	-135,358	-0,050	-0,004
-157,964	63,976	-0,124	-0,090
-156,950	-200,000	0,005	0,029
-155,935	103,504	0,022	-0,018
-154,920	83,979	-0,056	0,044
-153,906	-200,000	-0,015	0,177
-152,891	-200,000	-0,012	0,094
-151,877	-200,000	-0,014	0,055
-150,862	-200,000	0,005	-0,142
-149,847	-177,538	0,143	-0,002
-148,833	800,000	-0,010	-0,023
-147,818	450,536	-0,034	0,054
-146,804	800,000	0,011	0,033
-145,789	-122,687	-0,105	-0,012
-144,775	-200,000	-0,004	0,024
-143,760	-80,968	-0,139	0,033
-142,745	-37,988	-0,065	-0,025
-141,731	39,885	-0,136	0,088
-140,716	312,025	-0,061	0,083
-139,702	59,727	-0,052	-0,037
-138,687	-200,000	0,001	0,160
-137,672	124,882	-0,006	-0,005
-136,658	-65,522	0,234	-0,067
-135,643	-115,811	-0,076	0,010
-134,629	-38,516	0,074	-0,028
-133,614	70,702	0,111	0,082
-132,599	-200,000	-0,024	-0,080
-131,585	800,000	-0,009	-0,019
-130,570	-94,530	-0,117	0,023
-129,556	12,149	-0,109	0,060
-128,541	-200,000	0,008	-0,144
-127,526	-54,927	-0,139	0,045
-126,512	-200,000	-0,033	-0,124
-125,497	98,871	0,031	0,026
-124,483	-200,000	0,010	0,142
-123,468	800,000	0,052	-0,128
-122,453	800,000	0,043	-0,111
-121,439	-29,323	-0,028	0,011
-120,424	-41,388	-0,089	-0,033
-119,410	-200,000	0,161	0,000
-118,395	395,760	-0,048	0,073
-117,380	-200,000	-0,007	-0,042
-116,366	109,187	-0,040	0,035
-115,351	-103,830	-0,046	-0,008
-114,337	20,819	-0,069	0,040
-113,322	42,406	0,094	-0,061
-112,307	-12,169	0,025	0,012
-111,293	22,422	0,039	0,023
-110,278	-149,392	-0,026	0,001
-109,264	-66,351	-0,053	-0,015
-108,249	146,512	0,068	-0,066
-107,234	98,392	-0,102	-0,085
-106,220	-92,628	0,041	-0,008
-105,205	321,899	-0,058	-0,079
-104,191	-182,989	0,091	0,001
-103,176	-200,000	0,006	-0,108
-102,162	-200,000	-0,005	-0,016
-101,147	-200,000	-0,005	0,020
-100,132	119,987	-0,031	-0,028
-99,118	-33,435	-0,069	0,027
-98,103	-200,000	-0,013	-0,080
-97,089	-200,000	-0,031	0,130
-96,074	-200,000	-0,007	0,105
-95,059	58,377	0,085	-0,060
-94,045	485,010	-0,059	0,097
-93,030	6,792	-0,036	-0,019
-92,016	198,120	-0,089	0,098
-91,001	-55,506	-0,076	-0,024
-89,986	388,461	-0,093	0,139
-88,972	6,495	-0,122	0,065
-87,957	666,906	0,046	0,086
-86,943	344,237	-0,053	0,075
-85,928	766,925	-0,090	-0,177
-84,913	130,207	-0,034	0,031
-83,899	-200,000	0,009	0,136
-82,884	56,168	-0,086	0,060
-81,870	-100,877	-0,090	0,016
-80,855	370,135	-0,016	0,023
-79,840	64,352	0,120	0,087
-78,826	265,094	-0,011	0,014
-77,811	28,044	0,107	0,064
-76,797	370,500	0,016	-0,023
-75,782	800,000	-0,006	0,016
-74,767	-90,054	0,253	0,053
-73,753	-83,385	-0,117	0,027
-72,738	80,355	-0,018	-0,014
-71,724	-64,745	-0,067	-0,019
-70,709	13,968	-0,028	-0,016
-69,694	800,000	-0,049	-0,100
-68,680	35,441	0,081	0,051
-67,665	-104,325	-0,081	0,013
-66,651	546,811	0,105	0,181
-65,636	-32,406	0,054	0,022
-64,622	39,261	-0,096	0,062
-63,607	-200,000	-0,010	-0,082
-62,592	-200,000	-0,023	-0,152
-61,578	-116,629	-0,068	-0,009
-60,563	-200,000	0,005	0,018
-59,549	132,310	0,133	0,123
-58,534	-5,612	-1,909	-0,936
-57,519	800,000	-0,329	-0,961
-56,505	-200,000	-1,272	-5,015
-55,490	-31,745	0,849	0,340
-54,476	800,000	5,339	12,237
-53,461	-200,000	17,637	285,136
-52,446	800,000	728,017	2219,526
-51,432	535,570	1644,236	2810,336
-50,417	110,021	1634,600	1407,557
-49,403	75,964	1286,800	975,784
-48,388	32,065	1027,468	634,275
-47,373	20,174	989,411	571,577
-46,359	18,438	977,125	558,764
-45,344	15,570	972,929	546,964
-44,330	15,806	971,584	546,958
-43,315	15,257	969,828	544,154
-42,300	15,225	968,680	543,383
-41,286	15,207	967,831	542,827
-40,271	15,285	966,572	542,355
-39,257	15,262	965,711	541,773
-38,242	15,277	964,983	541,394
-37,227	15,271	964,156	540,889
-36,213	15,180	963,417	540,156
-35,198	15,239	962,354	539,730
-34,184	15,230	961,703	539,316
-33,169	15,287	960,605	538,861
-32,154	15,291	959,669	538,330
-31,140	15,239	958,878	537,697
-30,125	15,325	958,007	537,463
-29,111	15,246	957,241	536,758
-28,096	15,284	956,708	536,560
-27,082	15,292	955,914	536,120
-26,067	15,269	955,179	535,613
-25,052	15,248	954,422	535,100
-24,038	15,238	953,851	534,724
-23,023	15,253	953,170	534,371
-22,009	15,387	952,299	534,289
-20,994	15,280	951,812	533,652
-19,979	15,245	951,297	533,232
-18,965	15,188	950,556	532,614
-17,950	15,201	950,024	532,335
-16,936	15,205	949,394	531,973
-15,921	15,175	948,697	531,466
-14,906	15,122	947,860	530,805
-13,892	15,167	947,161	530,539
-12,877	15,163	946,533	530,152
-11,863	15,113	946,051	529,702
-10,848	15,109	945,474	529,346
-9,833	15,231	944,922	529,401
-8,819	15,187	944,203	528,838
-7,804	15,126	943,812	528,406
-6,790	15,213	943,063	528,241
-5,775	15,153	942,583	527,760
-4,760	15,165	941,978	527,440
-3,746	15,184	941,175	527,029
-2,731	15,022	940,686	526,220
-1,717	14,998	940,026	525,757
-0,702	15,021	939,290	525,396
0,313	14,817	938,593	525,154
1,327	18,129	936,559	534,402
2,342	27,221	793,661	476,933
3,356	23,817	458,747	270,447
4,371	-3,234	314,021	156,411
5,386	-7,430	295,807	143,084
6,400	-9,212	289,708	138,356
7,415	-9,864	287,511	136,653
8,429	-10,026	285,896	135,715
9,444	-9,999	285,003	135,306
10,459	-9,992	284,431	135,029
11,473	-9,973	283,603	134,642
12,488	-9,966	283,332	134,508
13,502	-9,934	282,758	134,254
14,517	-9,779	282,240	134,147
15,531	-9,933	281,852	133,801
16,546	-9,876	281,503	133,678
17,561	-9,854	281,111	133,502
18,575	-9,766	280,610	133,336
19,590	-9,996	280,256	132,936
20,604	-9,937	280,067	132,891
21,619	-10,128	279,760	132,551
22,634	-9,865	279,421	132,629
23,648	-10,207	279,050	132,116
24,663	-10,110	278,755	132,057
25,677	-10,116	278,617	131,973
26,692	-9,897	278,198	131,971
27,707	-10,120	278,187	131,742
28,721	-9,911	277,603	131,653
29,736	-9,960	277,391	131,494
30,750	-10,119	277,154	131,219
31,765	-10,048	276,970	131,187
32,780	-10,084	276,654	130,993
33,794	-9,921	276,439	131,033
34,809	-10,074	276,325	130,822
35,823	-9,986	276,010	130,745
36,838	-10,049	275,685	130,520
37,853	-9,974	275,493	130,488
38,867	-10,096	275,239	130,241
39,882	-10,148	274,963	130,050
40,896	-10,072	274,793	130,029
41,911	-10,049	274,512	129,906
42,926	-10,112	274,349	129,758
43,940	-10,095	273,913	129,556
44,955	-10,247	273,823	129,360
45,969	-10,298	273,608	129,200
46,984	-10,123	273,164	129,141
47,999	-10,298	273,069	128,922
49,013	-10,496	272,739	128,571
50,028	-10,648	272,486	128,298
51,042	-10,616	272,227	128,196
52,057	-10,727	271,916	127,934
53,071	-10,772	271,876	127,862
54,086	-10,645	271,623	127,850
55,101	-10,477	271,361	127,871
56,115	-10,405	271,368	127,929
57,130	-9,884	271,010	128,230
58,144	-9,843	270,904	128,206
59,159	-9,833	270,740	128,126
60,174	-9,836	270,431	127,966
61,188	-9,822	270,192	127,854
62,203	-10,119	270,117	127,534
63,217	-9,869	269,888	127,645
64,232	-9,909	269,559	127,441
65,247	-9,764	269,382	127,479
66,261	-9,831	269,031	127,240
67,276	-10,104	268,972	126,950
68,290	-10,293	268,759	126,666
69,305	-10,201	268,313	126,528
70,320	-10,072	268,054	126,512
71,334	-9,955	267,945	126,557
72,349	-9,927	267,834	126,518
73,363	-9,794	267,580	126,508
74,378	-9,713	267,432	126,501
75,393	-9,828	266,992	126,177
76,407	-9,962	266,949	126,024
77,422	-10,091	266,815	125,832
78,436	-9,839	266,513	125,907
79,451	-9,929	266,339	125,732
80,466	-9,872	265,933	125,581
81,480	-10,100	265,711	125,258
82,495	-10,117	265,389	125,080
83,509	-9,973	265,325	125,169
84,524	-10,314	265,245	124,813
85,539	-10,407	265,112	124,655
86,553	-10,254	264,810	124,639
87,568	-10,056	264,479	124,651
88,582	-10,142	264,354	124,503
89,597	-10,141	264,142	124,393
90,611	-9,829	263,936	124,565
91,626	-9,872	263,831	124,466
92,641	-9,803	263,587	124,401
93,655	-9,769	263,171	124,224
94,670	-10,130	263,269	123,936
95,684	-10,118	262,999	123,809
96,699	-10,065	262,615	123,664
97,714	-10,244	262,649	123,510
98,728	-10,023	262,199	123,484
99,743	-10,265	262,057	123,191
100,757	-10,417	261,999	123,017
101,772	-10,192	261,617	123,027
102,787	-10,071	261,440	123,040
103,801	-9,963	261,352	123,083
104,816	-10,136	261,228	122,860
105,830	-9,800	261,011	123,045
106,845	-9,922	260,854	122,853
107,860	-9,871	260,513	122,726
108,874	-9,941	260,394	122,597
109,889	-9,980	260,167	122,445
110,903	-10,154	259,962	122,184
111,918	-10,076	259,824	122,177
112,933	-9,966	259,545	122,132
113,947	-10,117	259,478	121,956
114,962	-9,721	259,096	122,114
115,976	-9,937	259,094	121,912
116,991	-9,919	258,855	121,805
118,006	-9,891	258,725	121,758
119,020	-9,917	258,423	121,582
120,035	-9,820	258,383	121,636
121,049	-10,040	258,254	121,373
122,064	-9,905	257,973	121,348
123,079	-10,041	257,865	121,168
124,093	-9,952	257,476	121,052
125,108	-10,144	257,207	120,747
126,122	-10,315	257,111	120,542
127,137	-10,248	256,816	120,451
128,151	-10,247	256,733	120,403
129,166	-10,166	256,401	120,306
130,181	-10,253	256,412	120,225
131,195	-10,307	256,173	120,055
132,210	-10,151	256,030	120,113
133,224	-9,989	255,718	120,097
134,239	-10,058	255,787	120,059
135,254	-9,828	255,330	120,032
136,268	-10,196	255,266	119,673
137,283	-10,317	254,959	119,414
138,297	-10,480	254,855	119,214
139,312	-10,457	254,662	119,133
140,327	-10,031	254,423	119,377
141,341	-9,648	254,404	119,687
142,356	-9,895	254,084	119,314
143,370	-9,815	253,977	119,321
144,385	-9,825	253,966	119,297
145,400	-9,684	253,576	119,225
146,414	-9,771	253,367	119,041
147,429	-9,826	253,320	118,961
148,443	-9,758	253,131	118,920
149,458	-9,903	253,062	118,753
150,473	-9,837	252,792	118,672
151,487	-9,854	252,633	118,573
152,502	-9,733	252,239	118,480
153,516	-9,826	252,207	118,375
154,531	-9,696	251,969	118,363
155,546	-9,827	251,769	118,147
156,560	-9,703	251,574	118,151
157,575	-9,867	251,436	117,937
158,589	-10,010	251,302	117,742
159,604	-9,833	251,104	117,789
160,619	-9,780	250,892	117,724
161,633	-9,860	250,738	117,573
162,648	-9,754	250,541	117,560
163,662	-9,698	250,489	117,572
164,677	-9,822	250,308	117,372
165,692	-9,897	250,180	117,238
166,706	-9,615	249,979	117,371
167,721	-9,735	249,771	117,162
168,735	-9,792	249,634	117,039
169,750	-9,830	249,485	116,927
170,764	-9,629	249,324	117,010
171,779	-9,744	249,125	116,809
172,794	-9,642	248,905	116,782
173,808	-9,818	248,780	116,565
174,823	-10,149	248,585	116,186
175,837	-10,257	248,313	115,958
176,852	-9,867	248,285	116,261
177,867	-9,627	248,010	116,322
178,881	-9,825	248,062	116,171
179,896	-9,721	247,863	116,154
180,910	-9,586	247,531	116,101
181,925	-9,630	247,445	116,013
182,940	-9,670	247,119	115,817
183,954	-9,818	247,108	115,679
184,969	-9,811	246,971	115,610
185,983	-9,746	246,820	115,583
186,998	-9,605	246,612	115,592
188,013	-9,715	246,331	115,359
189,027	-9,661	246,221	115,342
190,042	-9,863	246,139	115,125
191,056	-9,704	245,849	115,111
192,071	-9,653	245,774	115,108
193,086	-9,791	245,588	114,897
194,100	-9,630	245,364	114,915
195,115	-9,657	245,162	114,787
196,129	-9,734	245,018	114,647
197,144	-9,591	244,721	114,615
198,159	-9,778	244,637	114,412
199,173	-9,805	244,498	114,314
200,188	-9,905	244,290	114,125
201,202	-9,987	244,039	113,930
202,217	-10,370	243,833	113,509
203,232	-10,240	243,523	113,461
204,246	-9,951	243,552	113,701
205,261	-9,419	243,346	114,031
206,275	-10,481	242,966	112,975
207,290	-7,309	244,274	116,177
208,304	-0,261	246,605	123,104
209,319	3,485	247,465	126,619
210,334	4,068	247,418	127,066
211,348	4,071	247,396	127,045
212,363	4,346	247,287	127,205
213,377	4,486	247,077	127,201
214,392	4,130	247,184	126,951
215,407	4,047	246,861	126,706
216,421	4,014	246,651	126,560
217,436	4,179	246,648	126,682
218,450	4,252	246,384	126,596
219,465	4,169	246,085	126,362
220,480	4,039	245,761	126,078
221,494	3,747	245,816	125,856
222,509	4,017	245,537	125,923
223,523	3,739	245,372	125,600
224,538	3,585	245,031	125,288
225,553	3,611	244,913	125,238
226,567	3,476	244,907	125,113
227,582	3,823	244,823	125,342
228,596	3,744	244,698	125,203
229,611	3,599	244,405	124,924
230,626	3,418	244,274	124,698
231,640	3,558	244,158	124,742
232,655	3,759	243,944	124,785
233,669	3,529	243,819	124,523
234,684	3,583	243,447	124,366
235,699	4,009	243,502	124,728
236,713	4,062	243,416	124,716
237,728	3,413	243,080	124,007
238,742	3,398	242,777	123,829
239,757	3,276	242,937	123,801
240,772	3,539	242,625	123,844
241,786	3,674	242,513	123,884
242,801	3,590	242,180	123,636
243,815	3,388	242,068	123,405
244,830	3,628	242,096	123,601
245,844	3,857	241,759	123,602
246,859	3,489	241,716	123,274
247,874	3,438	241,572	123,148
248,888	3,738	241,250	123,214
249,903	3,760	241,312	123,252
250,917	3,555	241,205	123,021
251,932	3,960	241,047	123,255
252,947	3,983	240,809	123,141
253,961	3,563	240,667	122,721
254,976	3,608	240,462	122,642
255,990	3,796	240,292	122,694
257,005	3,486	240,213	122,396
258,020	3,447	239,963	122,226
259,034	3,407	239,858	122,130
260,049	3,712	239,785	122,325
261,063	3,356	239,545	121,908
262,078	3,540	239,338	121,938
263,093	3,785	239,266	122,085
264,107	3,750	239,122	121,973
265,122	3,594	238,925	121,738
266,136	3,756	238,783	121,783
267,151	3,980	238,741	121,928
268,166	3,616	238,304	121,406
269,180	3,514	238,379	121,353
270,195	4,105	238,257	121,747
271,209	4,256	238,163	121,808
272,224	3,622	237,823	121,123
273,239	3,452	237,482	120,805
274,253	3,418	237,481	120,767
275,268	3,676	237,325	120,880
276,282	3,800	237,192	120,898
277,297	3,377	237,136	120,526
278,312	3,611	236,936	120,598
279,326	3,670	236,863	120,596
280,341	3,741	236,666	120,540
281,355	3,724	236,490	120,427
282,370	4,044	236,314	120,578
283,384	3,619	236,235	120,193
284,399	3,679	236,097	120,160
285,414	3,448	235,766	119,800
286,428	3,509	235,761	119,834
287,443	3,506	235,679	119,779
288,457	3,644	235,542	119,807
289,472	3,968	235,271	119,911
290,487	3,985	235,078	119,815
291,501	3,619	234,900	119,429
292,516	3,447	234,615	119,140
293,530	3,287	234,579	118,986
294,545	3,654	234,695	119,320
295,560	3,563	234,338	119,057
296,574	3,469	234,100	118,853
297,589	3,604	233,999	118,896
298,603	3,825	234,028	119,071
299,618	4,055	233,714	119,079
300,633	3,677	233,697	118,767
301,647	3,846	233,557	118,816
302,662	4,101	233,543	118,995
303,676	4,097	233,328	118,871
304,691	4,105	233,124	118,763
305,706	4,128	233,120	118,769
306,720	4,138	232,927	118,668
307,735	3,759	232,678	118,238
308,749	3,689	232,636	118,152
309,764	3,401	232,364	117,782
310,779	3,290	232,174	117,591
311,793	3,515	231,900	117,613
312,808	3,612	231,744	117,599
313,822	3,457	231,599	117,396
314,837	3,609	231,458	117,430
315,852	3,461	231,368	117,261
316,866	3,825	231,204	117,446
317,881	4,109	231,175	117,637
318,895	3,980	231,135	117,508
319,910	4,114	230,868	117,464
320,925	3,808	230,690	117,129
321,939	3,295	230,546	116,655
322,954	3,851	230,337	116,962
323,968	3,528	230,250	116,662
324,983	3,554	230,179	116,635
325,997	3,843	230,149	116,829
327,012	4,145	229,701	116,821
328,027	3,670	229,592	116,395
329,041	3,979	229,664	116,655
330,056	4,127	229,632	116,741
331,070	4,187	229,458	116,687
332,085	4,268	229,311	116,664
333,100	3,985	229,049	116,305
334,114	3,997	228,883	116,220
335,129	4,057	228,698	116,161
336,143	3,867	228,617	115,966
337,158	4,116	228,528	116,099
338,173	4,098	228,293	115,955
339,187	3,814	228,105	115,636
340,202	4,165	228,057	115,865
341,216	4,046	227,711	115,590
342,231	3,657	227,723	115,293
343,246	3,838	227,559	115,336
344,260	3,683	227,498	115,178
345,275	4,069	227,309	115,361
346,289	4,120	227,162	115,315
347,304	3,970	227,152	115,187
348,319	3,906	226,994	115,049
349,333	3,892	226,718	114,888
350,348	3,821	226,597	114,763
351,362	3,739	226,413	114,599
352,377	4,039	226,083	114,645
353,392	3,654	225,917	114,265
354,406	3,599	225,919	114,214
355,421	194,156	1321,655	1394,076
356,435	155,568	1455,149	1394,054
