DTS Sentinel unit serial number:	SN410029Multiplexer serial number:	ORYXHardware model number:	OX2-SRSoftware version number:	ORYX F/W v4,00 Oryx Data Collector v3.7.2.0data status	okinstallation	B5 Nyhavnadifferential loss correction	single-endedforward channel	channel 2reverse channel	N/Adate	2023/12/12time	07:47:13forward acquisition time	300,00reverse acquisition time	0,00gamma	499,1914k internal	0,3158k external	0,3158temperature offset calibration	1,0000default loss term (dB/km)	0,3820temperature slope calibration	1,0000multiplexer offset coefficient	1,0000multiplexer slope coefficient	1,0000fibre end	0,00T internal ref (°C)	15,13T ext. ref 1 (°C)	-1,19T ext. ref 2 (°C)	-1,45length (m)	temperature (°C)	Stokes	anti-Stokes-744,400	-3,689	0,130	-0,066
-743,385	-163,117	-0,351	-0,012
-742,371	-64,795	0,093	0,028
-741,356	-30,485	-0,351	0,146
-740,342	-53,579	0,096	0,032
-739,327	-103,125	-0,290	-0,050
-738,312	-91,755	0,065	-0,013
-737,298	-106,015	-0,282	0,046
-736,283	-200,000	-0,004	-0,054
-735,269	262,348	-0,070	0,090
-734,254	-136,159	0,048	0,004
-733,239	-25,272	-0,525	-0,228
-732,225	-200,000	0,157	0,000
-731,210	-200,000	-0,023	0,110
-730,196	181,781	0,051	0,056
-729,181	417,092	-0,049	-0,077
-728,167	225,223	-0,002	0,002
-727,152	389,865	-0,015	-0,023
-726,137	-200,000	0,013	-0,053
-725,123	418,921	-0,025	0,040
-724,108	119,550	-0,081	-0,074
-723,094	-69,848	0,046	-0,013
-722,079	-125,543	-0,099	-0,011
-721,064	-61,113	-0,108	-0,033
-720,050	-91,321	-0,092	-0,019
-719,035	-13,490	-0,057	0,027
-718,021	266,365	-0,098	-0,126
-717,006	-89,519	-0,025	-0,005
-715,991	66,608	-0,192	-0,144
-714,977	-37,170	0,022	-0,008
-713,962	772,050	0,041	-0,083
-712,948	22,161	0,053	0,032
-711,933	-200,000	-0,096	0,000
-710,918	593,241	-0,019	0,036
-709,904	21,821	0,068	-0,041
-708,889	27,707	-0,123	-0,076
-707,875	800,000	0,030	-0,089
-706,860	-66,161	0,109	-0,032
-705,845	-200,000	0,027	0,093
-704,831	272,347	0,104	0,136
-703,816	-30,755	-0,074	-0,031
-702,802	254,220	-0,076	0,096
-701,787	-200,000	-0,005	-0,071
-700,772	-200,000	0,019	-0,069
-699,758	-146,008	0,089	0,006
-698,743	-76,553	-0,007	0,002
-697,729	-200,000	0,005	-0,058
-696,714	0,592	0,094	-0,049
-695,699	-200,000	-0,033	-0,224
-694,685	-13,290	0,047	0,022
-693,670	-104,863	-0,050	-0,008
-692,656	-69,763	0,038	-0,011
-691,641	11,713	0,055	-0,031
-690,627	-200,000	-0,012	-0,055
-689,612	-106,717	0,130	-0,021
-688,597	-200,000	-0,001	-0,083
-687,583	800,000	-0,035	-0,107
-686,568	800,000	-0,042	0,122
-685,554	-44,427	0,064	0,024
-684,539	-200,000	0,029	0,098
-683,524	-65,474	0,105	0,031
-682,510	800,000	-0,038	0,113
-681,495	64,063	0,039	-0,029
-680,481	-93,802	-0,131	-0,026
-679,466	800,000	-0,060	-0,169
-678,451	-200,000	0,022	-0,159
-677,437	-91,801	0,017	0,003
-676,422	301,862	0,048	0,065
-675,408	97,737	-0,116	0,098
-674,393	239,554	-0,035	0,043
-673,378	800,000	-0,028	-0,075
-672,364	-81,175	-0,043	0,010
-671,349	-9,642	-0,091	-0,044
-670,335	183,823	-0,095	-0,103
-669,320	-98,270	0,117	-0,022
-668,305	-200,000	0,001	0,059
-667,291	339,532	-0,073	0,105
-666,276	800,000	-0,066	-0,144
-665,262	800,000	0,016	0,037
-664,247	380,948	-0,013	0,020
-663,232	157,617	0,070	0,071
-662,218	42,535	0,159	-0,106
-661,203	-200,000	0,010	0,218
-660,189	-200,000	-0,024	0,079
-659,174	244,829	-0,061	-0,076
-658,159	-98,539	-0,053	-0,010
-657,145	167,954	-0,072	-0,076
-656,130	-200,000	0,026	-0,090
-655,116	-200,000	-0,012	-0,093
-654,101	20,676	0,107	-0,063
-653,086	285,844	-0,041	-0,055
-652,072	339,638	-0,025	0,036
-651,057	535,392	-0,094	-0,164
-650,043	-200,000	-0,020	-0,137
-649,028	-200,000	-0,001	0,085
-648,014	-200,000	-0,013	-0,055
-646,999	-104,026	-0,140	-0,024
-645,984	800,000	0,023	-0,066
-644,970	103,247	0,049	0,042
-643,955	166,972	0,090	-0,093
-642,941	55,393	-0,107	-0,076
-641,926	348,736	-0,055	0,080
-640,911	800,000	0,015	0,048
-639,897	62,763	0,025	0,019
-638,882	84,310	-0,050	-0,040
-637,868	471,216	-0,060	-0,099
-636,853	60,426	-0,127	-0,092
-635,838	54,669	-0,076	-0,053
-634,824	321,419	-0,039	-0,054
-633,809	168,465	0,108	-0,113
-632,795	305,488	-0,067	0,091
-631,780	-200,000	0,019	-0,076
-630,765	-63,778	-0,121	0,036
-629,751	-105,244	0,022	-0,004
-628,736	800,000	-0,058	-0,150
-627,722	214,600	-0,014	0,016
-626,707	501,485	0,017	0,029
-625,692	277,583	-0,013	0,017
-624,678	-81,288	0,130	-0,031
-623,663	-131,766	-0,072	-0,007
-622,649	-75,484	-0,089	-0,023
-621,634	800,000	0,018	0,057
-620,619	-200,000	-0,005	0,089
-619,605	-200,000	-0,004	0,142
-618,590	635,518	-0,036	0,067
-617,576	-79,668	0,103	0,025
-616,561	52,217	-0,050	-0,035
-615,546	800,000	-0,069	-0,166
-614,532	163,309	-0,030	-0,031
-613,517	217,632	0,046	-0,054
-612,503	-200,000	-0,016	0,077
-611,488	282,461	0,105	0,139
-610,474	57,399	0,140	0,100
-609,459	195,051	0,071	0,079
-608,444	-200,000	-0,018	-0,080
-607,430	-0,433	0,042	-0,022
-606,415	-200,000	0,016	-0,104
-605,401	112,834	0,104	-0,092
-604,386	800,000	0,043	0,094
-603,371	-76,661	-0,028	-0,007
-602,357	38,900	0,062	-0,041
-601,342	800,000	-0,028	-0,077
-600,328	110,629	0,060	-0,053
-599,313	-131,617	-0,207	-0,020
-598,298	-73,497	0,257	0,068
-597,284	-5,605	-0,058	-0,029
-596,269	646,382	-0,032	-0,060
-595,255	-200,000	-0,001	0,128
-594,240	37,126	0,044	-0,029
-593,225	-132,610	-0,100	0,009
-592,211	507,071	-0,049	-0,084
-591,196	800,000	-0,008	0,024
-590,182	-72,215	0,094	-0,025
-589,167	51,682	0,082	0,057
-588,152	-200,000	-0,003	0,033
-587,138	-200,000	-0,007	-0,066
-586,123	-90,237	-0,115	-0,024
-585,109	-68,054	-0,056	-0,016
-584,094	130,473	-0,059	-0,055
-583,079	70,334	-0,011	0,009
-582,065	-200,000	0,009	-0,034
-581,050	50,246	0,047	-0,032
-580,036	237,127	-0,133	-0,162
-579,021	342,055	-0,056	-0,081
-578,006	-200,000	0,007	-0,186
-576,992	-200,000	-0,005	0,019
-575,977	27,767	0,176	-0,109
-574,963	277,964	-0,065	0,086
-573,948	143,102	0,148	-0,144
-572,934	-72,720	-0,077	-0,021
-571,919	-200,000	0,013	-0,053
-570,904	800,000	-0,076	-0,214
-569,890	800,000	-0,045	-0,107
-568,875	-62,083	0,054	-0,017
-567,861	-200,000	-0,009	-0,042
-566,846	-200,000	-0,011	-0,115
-565,831	-142,438	-0,034	-0,002
-564,817	800,000	0,046	-0,098
-563,802	-200,000	-0,033	-0,125
-562,788	395,304	0,012	-0,018
-561,773	-200,000	0,008	-0,122
-560,758	-114,996	0,112	-0,015
-559,744	771,822	0,076	0,152
-558,729	-59,243	0,101	0,032
-557,715	-178,013	-0,101	0,002
-556,700	-44,514	0,101	-0,037
-555,685	-200,000	-0,013	-0,079
-554,671	-200,000	0,005	-0,056
-553,656	-16,107	0,036	0,017
-552,642	26,449	0,042	0,025
-551,627	-124,087	0,045	0,005
-550,612	279,990	-0,061	-0,080
-549,598	-200,000	-0,002	-0,010
-548,583	-108,143	-0,084	0,013
-547,569	800,000	0,031	0,085
-546,554	-200,000	0,014	0,081
-545,539	16,405	0,084	0,049
-544,525	65,413	-0,097	0,072
-543,510	-45,663	0,170	-0,061
-542,496	263,989	-0,078	-0,099
-541,481	133,850	0,055	-0,052
-540,466	-85,049	0,094	0,021
-539,452	212,438	0,036	-0,042
-538,437	206,431	-0,083	0,094
-537,423	-200,000	-0,030	0,215
-536,408	133,886	0,089	0,085
-535,393	-18,928	-0,037	0,017
-534,379	375,324	0,013	-0,019
-533,364	-18,966	-0,108	-0,049
-532,350	-200,000	-0,005	0,030
-531,335	-42,211	0,135	0,050
-530,321	43,153	-0,081	-0,054
-529,306	-0,816	-0,040	-0,021
-528,291	800,000	-0,046	0,114
-527,277	550,253	-0,090	-0,159
-526,262	800,000	0,024	-0,076
-525,248	66,977	-0,113	0,084
-524,233	800,000	0,029	-0,063
-523,218	-200,000	-0,021	0,141
-522,204	-200,000	0,016	0,126
-521,189	-68,256	0,080	-0,023
-520,175	-200,000	-0,008	-0,084
-519,160	-200,000	0,034	0,165
-518,145	-200,000	0,001	0,103
-517,131	-200,000	0,014	0,088
-516,116	-200,000	0,004	0,060
-515,102	150,355	-0,077	0,077
-514,087	163,517	0,039	0,040
-513,072	800,000	-0,030	0,077
-512,058	165,313	0,012	-0,012
-511,043	-200,000	-0,002	0,070
-510,029	56,164	0,030	0,021
-509,014	-183,619	-0,045	-0,001
-507,999	-200,000	0,026	0,120
-506,985	-200,000	-0,022	0,206
-505,970	800,000	0,048	-0,151
-504,956	-112,404	-0,084	0,012
-503,941	-200,000	0,018	0,168
-502,926	-99,284	0,116	0,021
-501,912	126,282	0,105	0,097
-500,897	31,405	0,019	0,012
-499,883	239,130	-0,083	0,101
-498,868	94,912	-0,129	0,107
-497,853	-56,984	-0,042	0,013
-496,839	516,073	-0,074	-0,127
-495,824	800,000	0,075	0,239
-494,810	800,000	0,034	0,108
-493,795	369,587	-0,071	-0,106
-492,781	-74,470	-0,018	-0,005
-491,766	-200,000	-0,011	-0,040
-490,751	-167,796	-0,104	-0,003
-489,737	-102,460	-0,136	0,024
-488,722	-21,960	-0,079	0,035
-487,708	-29,111	0,021	-0,009
-486,693	800,000	0,025	-0,054
-485,678	800,000	0,010	-0,032
-484,664	219,646	-0,084	0,098
-483,649	-200,000	-0,002	-0,051
-482,635	497,575	0,026	0,045
-481,620	-200,000	0,007	-0,140
-480,605	-133,447	0,166	-0,015
-479,591	456,974	0,074	0,120
-478,576	800,000	0,024	-0,060
-477,562	-200,000	0,005	0,068
-476,547	-83,423	-0,026	0,006
-475,532	-143,767	-0,082	0,006
-474,518	-43,839	0,172	-0,063
-473,503	-77,649	-0,025	0,006
-472,489	73,421	0,050	0,038
-471,474	472,880	-0,054	-0,089
-470,459	-76,344	-0,062	0,016
-469,445	-57,754	0,036	0,012
-468,430	-111,030	-0,108	0,016
-467,416	-155,857	0,198	0,009
-466,401	-200,000	0,014	0,107
-465,386	800,000	0,031	0,074
-464,372	143,404	0,025	-0,025
-463,357	-38,080	0,061	-0,023
-462,343	-200,000	0,005	0,091
-461,328	800,000	0,016	-0,038
-460,313	-117,237	0,191	0,025
-459,299	16,308	0,068	-0,039
-458,284	-97,728	-0,038	0,007
-457,270	-200,000	-0,009	-0,050
-456,255	-20,356	-0,047	0,021
-455,241	59,167	-0,020	0,014
-454,226	109,547	0,034	0,030
-453,211	-28,547	-0,204	-0,085
-452,197	98,561	0,048	-0,041
-451,182	-120,475	0,065	-0,008
-450,168	692,422	0,048	0,092
-449,153	375,359	0,017	-0,026
-448,138	417,938	0,029	-0,045
-447,124	51,716	0,091	0,063
-446,109	800,000	-0,007	-0,022
-445,095	-200,000	-0,019	-0,079
-444,080	-200,000	0,005	-0,051
-443,065	56,981	-0,064	0,045
-442,051	800,000	-0,035	0,078
-441,036	45,816	0,053	-0,035
-440,022	221,382	-0,029	-0,034
-439,007	-200,000	0,010	-0,066
-437,992	707,155	-0,062	0,120
-436,978	246,414	0,093	-0,114
-435,963	-200,000	-0,020	0,081
-434,949	138,405	0,082	-0,079
-433,934	465,982	-0,050	-0,081
-432,919	29,064	0,050	-0,031
-431,905	-171,844	0,115	0,003
-430,890	222,330	0,009	0,011
-429,876	107,622	0,048	0,041
-428,861	53,415	0,031	0,022
-427,846	-88,727	0,100	0,021
-426,832	-130,579	-0,111	-0,011
-425,817	-200,000	-0,004	-0,053
-424,803	527,102	0,023	0,040
-423,788	-200,000	-0,004	-0,030
-422,773	-22,476	0,096	0,042
-421,759	-17,371	0,077	0,035
-420,744	-200,000	0,022	0,119
-419,730	109,538	-0,059	-0,052
-418,715	297,311	0,071	-0,095
-417,701	199,740	0,069	-0,077
-416,686	-100,458	-0,096	-0,017
-415,671	-200,000	0,013	0,103
-414,657	800,000	-0,003	-0,010
-413,642	-70,873	-0,167	-0,045
-412,628	-200,000	-0,037	-0,142
-411,613	145,961	0,068	-0,066
-410,598	-90,920	-0,116	-0,024
-409,584	172,309	0,086	0,090
-408,569	79,507	0,122	0,095
-407,555	-200,000	0,013	0,242
-406,540	800,000	0,018	0,049
-405,525	800,000	-0,019	-0,041
-404,511	480,982	0,024	0,039
-403,496	41,239	-0,070	0,046
-402,482	800,000	0,042	0,103
-401,467	-22,510	-0,053	-0,023
-400,452	461,625	0,043	-0,070
-399,438	-200,000	-0,004	0,041
-398,423	202,281	0,069	-0,078
-397,409	-200,000	-0,014	-0,099
-396,394	121,135	0,084	0,076
-395,379	212,394	-0,105	0,121
-394,365	800,000	0,024	0,051
-393,350	-200,000	0,009	0,084
-392,336	292,614	0,160	0,213
-391,321	-165,615	-0,070	-0,002
-390,306	39,448	-0,042	-0,027
-389,292	-200,000	-0,011	-0,053
-388,277	406,970	-0,077	-0,118
-387,263	760,973	-0,065	0,128
-386,248	-11,425	-0,113	0,054
-385,233	-85,832	0,070	0,016
-384,219	-92,717	0,151	-0,030
-383,204	-200,000	-0,009	-0,038
-382,190	-114,940	-0,084	-0,011
-381,175	270,539	0,098	-0,126
-380,160	-200,000	0,017	0,057
-379,146	-17,829	0,122	0,055
-378,131	-63,756	-0,062	-0,018
-377,117	743,109	-0,019	0,037
-376,102	17,277	-0,080	-0,046
-375,088	3,185	-0,102	-0,054
-374,073	29,132	-0,093	-0,057
-373,058	422,696	0,097	-0,151
-372,044	-200,000	-0,026	0,153
-371,029	800,000	0,044	0,099
-370,015	-76,842	-0,174	0,044
-369,000	-200,000	0,005	-0,125
-367,985	360,718	-0,008	0,011
-366,971	-52,267	-0,089	0,030
-365,956	-46,978	-0,072	0,025
-364,942	63,658	0,028	-0,020
-363,927	17,884	0,177	0,102
-362,912	-43,281	0,077	-0,028
-361,898	716,463	-0,034	-0,065
-360,883	-100,874	-0,178	-0,031
-359,869	-9,275	0,056	-0,027
-358,854	217,689	0,031	0,036
-357,839	85,993	0,032	-0,025
-356,825	274,358	-0,040	0,051
-355,810	-200,000	-0,023	0,109
-354,796	132,526	0,059	-0,055
-353,781	65,949	-0,117	-0,086
-352,766	110,584	-0,117	0,102
-351,752	800,000	-0,057	0,183
-350,737	49,783	0,084	-0,057
-349,723	180,572	0,007	0,007
-348,708	-200,000	-0,007	0,157
-347,693	-200,000	0,016	0,155
-346,679	34,214	-0,104	0,065
-345,664	56,171	-0,117	-0,082
-344,650	15,524	0,035	-0,020
-343,635	-120,608	-0,063	0,008
-342,620	-95,853	0,088	-0,017
-341,606	439,796	-0,029	0,045
-340,591	126,026	-0,067	-0,061
-339,577	21,271	-0,017	0,010
-338,562	-200,000	-0,010	-0,130
-337,548	28,035	-0,057	0,035
-336,533	232,425	0,020	0,024
-335,518	-24,637	-0,065	-0,028
-334,504	-200,000	0,009	0,043
-333,489	-139,777	0,091	-0,007
-332,475	800,000	0,063	-0,201
-331,460	-44,312	0,036	-0,013
-330,445	72,215	-0,080	-0,060
-329,431	-200,000	0,008	0,063
-328,416	-200,000	-0,003	0,056
-327,402	246,520	-0,072	-0,088
-326,387	800,000	0,026	-0,082
-325,372	-110,536	0,016	-0,002
-324,358	-180,180	-0,037	-0,001
-323,343	-26,919	-0,024	-0,010
-322,329	-83,127	0,015	-0,003
-321,314	-200,000	0,019	0,098
-320,299	-96,240	-0,057	0,011
-319,285	76,543	-0,120	0,093
-318,270	27,725	-0,168	0,102
-317,256	-138,720	-0,082	-0,006
-316,241	-44,662	0,081	-0,029
-315,226	560,668	-0,058	-0,102
-314,212	120,738	-0,077	0,069
-313,197	245,872	0,076	-0,093
-312,183	-92,736	-0,084	-0,017
-311,168	-200,000	0,027	-0,120
-310,153	165,571	-0,092	-0,095
-309,139	102,552	-0,090	-0,076
-308,124	-61,763	0,081	-0,025
-307,110	800,000	0,053	-0,116
-306,095	-109,077	-0,066	0,010
-305,080	2,703	-0,097	0,051
-304,066	800,000	0,037	-0,087
-303,051	-132,339	0,102	-0,009
-302,037	184,256	-0,077	-0,083
-301,022	800,000	0,017	0,038
-300,008	-37,338	0,068	0,026
-298,993	-200,000	-0,014	0,167
-297,978	-200,000	-0,033	0,140
-296,964	-200,000	0,010	0,136
-295,949	15,150	-0,055	-0,031
-294,935	-177,127	0,118	-0,002
-293,920	-116,536	0,014	-0,002
-292,905	-21,583	0,129	0,057
-291,891	102,148	-0,050	-0,042
-290,876	301,452	0,082	-0,110
-289,862	800,000	0,022	-0,054
-288,847	44,920	0,119	-0,079
-287,832	52,720	-0,022	-0,015
-286,818	-68,859	0,078	0,022
-285,803	401,900	0,054	0,082
-284,789	-200,000	0,036	0,159
-283,774	-200,000	0,027	0,105
-282,759	17,514	-0,021	0,012
-281,745	-200,000	-0,007	0,128
-280,730	-127,246	-0,064	0,007
-279,716	-125,469	-0,070	0,008
-278,701	203,793	-0,088	-0,099
-277,686	-51,572	0,121	0,041
-276,672	-112,004	-0,190	0,027
-275,657	-136,803	-0,132	-0,011
-274,643	-41,500	-0,079	-0,029
-273,628	278,014	0,023	-0,029
-272,613	-200,000	0,015	-0,136
-271,599	-94,768	0,101	-0,020
-270,584	-200,000	0,035	0,123
-269,570	-200,000	0,021	0,272
-268,555	800,000	-0,015	-0,032
-267,540	-200,000	0,010	-0,067
-266,526	-200,000	0,000	-0,018
-265,511	120,469	-0,052	0,046
-264,497	751,832	0,074	0,145
-263,482	98,403	-0,041	0,034
-262,467	-58,291	0,064	0,020
-261,453	800,000	0,042	-0,111
-260,438	231,883	-0,117	-0,139
-259,424	800,000	0,044	-0,102
-258,409	461,857	0,085	-0,138
-257,395	-147,766	-0,117	0,007
-256,380	-200,000	0,015	0,071
-255,365	16,867	-0,085	0,048
-254,351	-164,423	-0,093	0,003
-253,336	125,793	-0,121	-0,111
-252,322	38,542	0,018	0,012
-251,307	800,000	-0,047	0,105
-250,292	12,195	-0,076	0,042
-249,278	800,000	0,043	-0,086
-248,263	-165,448	0,104	0,003
-247,249	-200,000	-0,016	-0,103
-246,234	-200,000	-0,010	-0,041
-245,219	-6,316	-0,115	-0,056
-244,205	64,605	0,104	0,076
-243,190	203,533	0,028	0,031
-242,176	-48,533	0,075	-0,026
-241,161	36,896	0,008	0,005
-240,146	-73,196	0,045	0,012
-239,132	35,411	0,098	-0,062
-238,117	800,000	0,024	0,074
-237,103	342,892	0,026	0,037
-236,088	573,434	0,021	0,038
-235,073	-200,000	0,023	0,137
-234,059	800,000	0,027	0,065
-233,044	-90,821	0,118	0,024
-232,030	138,711	0,037	-0,035
-231,015	-58,584	-0,084	-0,026
-230,000	83,397	-0,036	0,028
-228,986	68,262	0,089	-0,065
-227,971	-163,188	0,086	-0,003
-226,957	368,204	0,073	0,108
-225,942	440,614	-0,085	0,135
-224,927	-50,859	0,097	0,033
-223,913	248,571	-0,016	-0,019
-222,898	-200,000	0,030	-0,123
-221,884	-16,962	0,107	0,048
-220,869	800,000	0,040	-0,081
-219,855	-135,292	0,083	-0,007
-218,840	245,594	0,088	-0,107
-217,825	-200,000	-0,006	-0,139
-216,811	-52,860	-0,065	-0,022
-215,796	-93,954	-0,289	-0,057
-214,782	218,966	0,021	0,024
-213,767	-200,000	0,002	0,014
-212,752	19,953	0,190	-0,111
-211,738	760,903	-0,032	-0,063
-210,723	40,653	0,020	-0,013
-209,709	140,330	0,065	-0,062
-208,694	800,000	0,047	-0,124
-207,679	-86,629	0,038	-0,008
-206,665	164,982	0,118	0,121
-205,650	75,395	-0,079	-0,060
-204,636	47,894	-0,118	0,079
-203,621	-185,157	-0,057	0,001
-202,606	-200,000	-0,004	0,029
-201,592	-200,000	0,014	0,102
-200,577	618,383	-0,044	-0,080
-199,563	800,000	0,027	-0,082
-198,548	355,802	0,076	0,109
-197,533	-200,000	-0,001	0,042
-196,519	13,608	0,070	-0,039
-195,504	-131,710	-0,093	0,009
-194,490	45,474	0,050	-0,033
-193,475	768,125	-0,046	-0,091
-192,460	-60,599	0,025	0,008
-191,446	-200,000	-0,028	0,124
-190,431	-144,890	-0,038	-0,002
-189,417	-47,028	-0,088	-0,031
-188,402	114,086	-0,064	-0,056
-187,387	0,216	-0,084	0,043
-186,373	367,422	0,096	-0,140
-185,358	7,559	0,099	-0,053
-184,344	107,971	0,078	0,067
-183,329	-200,000	0,011	0,079
-182,315	352,498	-0,057	0,082
-181,300	-65,303	-0,130	0,037
-180,285	-135,830	-0,083	0,007
-179,271	-200,000	0,004	-0,094
-178,256	-92,395	-0,048	-0,010
-177,242	57,409	0,075	-0,053
-176,227	105,199	0,028	0,024
-175,212	800,000	-0,017	-0,035
-174,198	-128,989	-0,079	0,008
-173,183	57,400	-0,091	-0,064
-172,169	-123,239	-0,015	0,002
-171,154	405,190	-0,095	-0,145
-170,139	75,145	0,081	0,062
-169,125	81,879	0,077	0,060
-168,110	147,620	0,057	0,056
-167,096	544,739	0,060	-0,104
-166,081	-33,088	-0,124	-0,049
-165,066	-75,506	-0,144	-0,037
-164,052	800,000	-0,026	0,052
-163,037	-149,888	0,074	-0,004
-162,023	108,298	-0,068	0,058
-161,008	-119,442	0,215	0,027
-159,993	800,000	0,064	-0,146
-158,979	-59,354	-0,026	0,008
-157,964	237,725	-0,026	-0,031
-156,950	486,098	-0,079	0,130
-155,935	-200,000	0,021	-0,103
-154,920	-200,000	0,014	0,136
-153,906	286,791	0,056	0,073
-152,891	-200,000	0,025	-0,088
-151,877	99,500	-0,104	-0,086
-150,862	-200,000	0,024	-0,090
-149,847	256,484	-0,035	-0,044
-148,833	-200,000	-0,029	0,118
-147,818	-65,415	-0,119	0,034
-146,804	-200,000	0,015	0,136
-145,789	-78,686	0,185	0,045
-144,775	-200,000	0,009	0,138
-143,760	-136,529	0,122	0,010
-142,745	-200,000	-0,001	0,022
-141,731	611,174	-0,033	0,059
-140,716	800,000	0,010	-0,031
-139,702	-93,683	-0,055	0,011
-138,687	-200,000	0,027	0,105
-137,672	-100,240	-0,036	0,006
-136,658	156,872	-0,092	0,092
-135,643	-200,000	-0,008	-0,138
-134,629	731,335	-0,084	-0,163
-133,614	421,185	0,089	0,137
-132,599	46,173	-0,009	-0,006
-131,585	-9,596	-0,056	-0,027
-130,570	-111,851	-0,090	-0,013
-129,556	-200,000	0,002	-0,065
-128,541	26,234	-0,116	-0,070
-127,526	440,469	-0,052	-0,082
-126,512	-200,000	-0,020	0,099
-125,497	-80,308	-0,104	0,025
-124,483	-87,586	-0,217	0,047
-123,468	-125,324	-0,151	-0,016
-122,453	-200,000	0,034	-0,223
-121,439	-108,340	0,083	-0,013
-120,424	23,308	-0,063	0,037
-119,410	-200,000	-0,005	0,082
-118,395	-19,906	0,054	-0,024
-117,380	687,198	-0,063	0,118
-116,366	-80,014	0,068	0,016
-115,351	-200,000	-0,007	0,024
-114,337	-200,000	-0,003	0,017
-113,322	77,001	-0,028	0,022
-112,307	-200,000	-0,001	0,103
-111,293	-200,000	0,006	0,143
-110,278	-4,752	0,078	-0,038
-109,264	-71,660	-0,110	-0,029
-108,249	-200,000	-0,001	-0,099
-107,234	-107,674	0,120	0,019
-106,220	313,488	-0,030	0,040
-105,205	-56,782	0,057	-0,018
-104,191	-55,398	0,133	-0,043
-103,176	-200,000	0,003	0,057
-102,162	509,977	0,043	0,072
-101,147	66,816	-0,020	-0,014
-100,132	162,459	0,056	-0,056
-99,118	-200,000	-0,013	0,083
-98,103	-164,611	0,099	-0,003
-97,089	232,667	0,084	0,099
-96,074	-33,171	0,141	0,056
-95,059	-65,826	-0,097	0,028
-94,045	-13,988	0,076	0,035
-93,030	559,575	0,039	0,067
-92,016	501,508	-0,048	0,080
-91,001	-45,551	-0,023	0,008
-89,986	-1,100	-0,109	0,055
-88,972	-147,421	-0,027	0,002
-87,957	203,742	-0,127	0,142
-86,943	-200,000	0,010	-0,065
-85,928	37,536	-0,111	-0,071
-84,913	-27,684	-0,133	-0,055
-83,899	48,527	0,131	-0,088
-82,884	133,415	0,021	-0,019
-81,870	271,453	0,065	0,083
-80,855	-200,000	-0,005	0,120
-79,840	-102,908	-0,102	0,017
-78,826	-200,000	0,050	-0,172
-77,811	-171,946	-0,162	-0,004
-76,797	-84,558	0,074	-0,017
-75,782	-148,668	0,103	0,006
-74,767	-200,000	-0,019	0,136
-73,753	717,406	-0,001	-0,002
-72,738	410,008	-0,036	-0,055
-71,724	-135,081	0,033	-0,003
-70,709	174,407	0,080	-0,084
-69,694	-14,057	-0,104	-0,048
-68,680	-91,567	-0,031	0,006
-67,665	89,468	0,064	0,051
-66,651	11,564	-0,111	0,061
-65,636	-200,000	0,022	0,088
-64,622	-200,000	0,008	-0,036
-63,607	-20,207	0,054	-0,024
-62,592	636,664	0,012	0,022
-61,578	800,000	0,015	-0,035
-60,563	22,345	-0,045	0,027
-59,549	277,712	-0,038	-0,048
-58,534	-12,130	-2,032	-0,951
-57,519	-200,000	-0,270	-0,996
-56,505	-200,000	-1,229	-4,901
-55,490	63,951	0,707	0,510
-54,476	800,000	5,399	12,218
-53,461	-200,000	17,732	286,514
-52,446	800,000	728,512	2224,095
-51,432	537,031	1644,626	2813,774
-50,417	109,942	1635,167	1407,491
-49,403	75,884	1287,184	975,632
-48,388	32,006	1027,207	633,833
-47,373	20,212	989,209	571,513
-46,359	18,412	976,845	558,449
-45,344	15,475	973,060	546,655
-44,330	15,668	971,767	546,539
-43,315	15,185	969,743	543,801
-42,300	15,139	968,588	542,982
-41,286	15,084	967,665	542,264
-40,271	15,161	966,501	541,842
-39,257	15,187	965,690	541,450
-38,242	15,135	964,836	540,779
-37,227	15,162	964,012	540,385
-36,213	15,209	962,957	539,923
-35,198	15,147	962,051	539,193
-34,184	15,153	961,551	538,913
-33,169	15,133	960,455	538,213
-32,154	15,160	959,671	537,839
-31,140	15,138	958,896	537,310
-30,125	15,188	958,027	536,963
-29,111	15,182	957,128	536,421
-28,096	15,140	956,766	536,060
-27,082	15,149	955,901	535,585
-26,067	15,158	955,169	535,180
-25,052	15,130	954,215	534,536
-24,038	15,118	953,907	534,302
-23,023	15,150	953,056	533,909
-22,009	15,187	952,275	533,567
-20,994	15,123	951,686	533,011
-19,979	15,143	951,198	532,782
-18,965	15,121	950,629	532,372
-17,950	15,207	949,800	532,159
-16,936	15,126	949,388	531,648
-15,921	15,120	948,578	531,156
-14,906	15,060	947,698	530,450
-13,892	15,066	947,213	530,178
-12,877	15,063	946,334	529,654
-11,863	15,008	946,054	529,302
-10,848	15,026	945,618	529,093
-9,833	15,153	944,963	529,112
-8,819	15,152	944,270	528,697
-7,804	15,110	943,639	528,191
-6,790	15,090	943,041	527,772
-5,775	15,124	942,552	527,585
-4,760	15,097	941,876	527,100
-3,746	15,065	941,308	526,659
-2,731	14,871	940,751	525,713
-1,717	14,963	939,813	525,459
-0,702	14,885	939,242	524,872
0,313	14,646	938,626	524,567
1,327	18,070	936,381	534,045
2,342	27,209	793,419	476,694
3,356	23,969	458,584	270,549
4,371	-3,405	314,588	156,490
5,386	-7,296	296,185	143,386
6,400	-9,373	290,189	138,408
7,415	-10,077	287,926	136,623
8,429	-10,076	286,157	135,773
9,444	-10,221	285,302	135,214
10,459	-10,199	284,701	134,937
11,473	-10,227	284,106	134,617
12,488	-10,204	283,700	134,435
13,502	-10,084	283,197	134,301
14,517	-10,136	282,509	133,911
15,531	-10,042	282,140	133,816
16,546	-9,993	281,770	133,676
17,561	-10,278	281,470	133,247
18,575	-10,129	280,981	133,147
19,590	-10,050	280,672	133,065
20,604	-10,049	280,434	132,940
21,619	-10,094	279,980	132,670
22,634	-10,146	279,689	132,471
23,648	-10,245	279,439	132,247
24,663	-10,227	279,086	132,084
25,677	-10,076	278,957	132,155
26,692	-10,141	278,756	131,987
27,707	-10,155	278,411	131,799
28,721	-10,190	278,027	131,572
29,736	-10,222	277,800	131,422
30,750	-10,254	277,558	131,265
31,765	-10,069	277,123	131,223
32,780	-10,150	277,105	131,127
33,794	-9,990	276,688	131,069
34,809	-10,148	276,687	130,908
35,823	-10,183	276,237	130,650
36,838	-10,381	275,942	130,312
37,853	-10,309	275,933	130,363
38,867	-10,256	275,598	130,243
39,882	-9,885	275,166	130,377
40,896	-10,126	275,014	130,066
41,911	-10,245	274,806	129,845
42,926	-9,956	274,377	129,902
43,940	-10,215	274,224	129,575
44,955	-10,355	273,996	129,325
45,969	-10,333	273,780	129,232
46,984	-10,399	273,533	129,042
47,999	-10,558	273,282	128,764
49,013	-10,736	272,969	128,439
50,028	-10,759	272,844	128,348
51,042	-10,893	272,560	128,078
52,057	-10,929	272,348	127,934
53,071	-10,749	272,098	127,972
54,086	-10,529	271,836	128,041
55,101	-10,493	271,712	128,005
56,115	-10,400	271,710	128,078
57,130	-10,193	271,455	128,138
58,144	-10,124	271,243	128,091
59,159	-9,976	270,847	128,029
60,174	-10,126	270,692	127,805
61,188	-9,895	270,488	127,911
62,203	-10,063	270,356	127,682
63,217	-10,153	270,074	127,455
64,232	-9,995	269,808	127,463
65,247	-9,993	269,667	127,387
66,261	-10,111	269,309	127,098
67,276	-10,255	269,173	126,890
68,290	-10,462	268,963	126,591
69,305	-10,483	268,617	126,398
70,320	-10,391	268,426	126,381
71,334	-10,253	268,306	126,438
72,349	-10,036	268,013	126,488
73,363	-9,965	267,808	126,444
74,378	-9,985	267,515	126,276
75,393	-10,069	267,454	126,160
76,407	-9,929	267,164	126,139
77,422	-10,097	267,013	125,904
78,436	-10,044	266,629	125,759
79,451	-10,049	266,608	125,734
80,466	-10,055	266,228	125,538
81,480	-10,126	265,938	125,326
82,495	-10,182	265,841	125,218
83,509	-10,095	265,657	125,199
84,524	-10,180	265,340	124,961
85,539	-10,384	265,125	124,665
86,553	-10,231	264,942	124,706
87,568	-10,150	264,835	124,717
88,582	-10,191	264,689	124,601
89,597	-10,168	264,329	124,441
90,611	-10,196	264,405	124,440
91,626	-10,084	264,163	124,416
92,641	-10,027	263,892	124,328
93,655	-10,063	263,794	124,240
94,670	-10,283	263,523	123,903
95,684	-10,228	263,361	123,865
96,699	-10,154	263,036	123,768
97,714	-10,308	262,923	123,566
98,728	-10,422	262,646	123,323
99,743	-10,191	262,448	123,424
100,757	-10,289	262,133	123,178
101,772	-10,352	262,043	123,069
102,787	-10,280	261,789	123,003
103,801	-10,241	261,699	122,984
104,816	-10,124	261,540	123,002
105,830	-10,044	261,357	122,976
106,845	-10,151	261,210	122,801
107,860	-9,929	260,992	122,884
108,874	-10,158	260,763	122,563
109,889	-10,272	260,540	122,346
110,903	-9,996	260,317	122,475
111,918	-10,198	259,892	122,086
112,933	-9,972	259,842	122,251
113,947	-10,054	259,650	122,077
114,962	-10,216	259,666	121,932
115,976	-10,173	259,355	121,812
116,991	-10,116	259,204	121,780
118,006	-10,284	259,051	121,550
119,020	-9,935	258,804	121,730
120,035	-10,003	258,677	121,599
121,049	-9,965	258,617	121,593
122,064	-10,213	258,477	121,300
123,079	-10,069	258,120	121,247
124,093	-10,031	257,929	121,180
125,108	-10,232	257,665	120,869
126,122	-10,241	257,186	120,626
127,137	-10,496	257,210	120,405
128,151	-10,322	257,022	120,458
129,166	-10,250	256,847	120,427
130,181	-10,220	256,631	120,341
131,195	-10,269	256,367	120,164
132,210	-10,201	256,110	120,092
133,224	-10,062	256,040	120,169
134,239	-9,709	255,891	120,394
135,254	-10,212	255,806	119,908
136,268	-10,220	255,537	119,764
137,283	-10,358	255,192	119,473
138,297	-10,544	254,955	119,191
139,312	-10,469	254,793	119,169
140,327	-10,342	254,737	119,242
141,341	-10,078	254,659	119,422
142,356	-10,108	254,480	119,301
143,370	-9,985	254,329	119,326
144,385	-10,068	254,210	119,188
145,400	-9,761	253,919	119,304
146,414	-9,804	253,574	119,095
147,429	-9,889	253,615	119,030
148,443	-9,897	253,433	118,927
149,458	-9,725	253,287	118,996
150,473	-9,902	253,138	118,764
151,487	-9,875	252,790	118,613
152,502	-9,947	252,679	118,489
153,516	-10,002	252,521	118,357
154,531	-9,881	252,328	118,359
155,546	-9,840	252,017	118,238
156,560	-9,986	251,966	118,079
157,575	-9,926	251,579	117,938
158,589	-9,813	251,548	118,009
159,604	-10,043	251,413	117,740
160,619	-9,972	251,134	117,659
161,633	-9,797	250,976	117,723
162,648	-9,768	250,895	117,699
163,662	-9,703	250,713	117,658
164,677	-9,940	250,585	117,387
165,692	-10,021	250,450	117,244
166,706	-9,715	250,026	117,294
167,721	-9,931	250,087	117,130
168,735	-9,709	249,752	117,150
169,750	-9,827	249,742	117,036
170,764	-9,832	249,616	116,961
171,779	-9,931	249,432	116,782
172,794	-9,692	249,165	116,847
173,808	-9,867	249,009	116,616
174,823	-10,079	248,841	116,349
175,837	-10,438	248,530	115,892
176,852	-10,049	248,639	116,259
177,867	-9,924	248,228	116,161
178,881	-9,868	248,255	116,211
179,896	-9,687	248,005	116,234
180,910	-9,742	247,697	116,034
181,925	-9,868	247,734	115,936
182,940	-9,949	247,446	115,723
183,954	-10,028	247,352	115,603
184,969	-9,996	247,325	115,607
185,983	-9,757	246,930	115,610
186,998	-9,673	246,762	115,591
188,013	-9,654	246,602	115,522
189,027	-9,672	246,349	115,378
190,042	-9,941	246,286	115,116
191,056	-9,757	245,993	115,121
192,071	-9,673	245,879	115,126
193,086	-10,031	245,866	114,813
194,100	-9,865	245,556	114,796
195,115	-9,735	245,331	114,787
196,129	-9,953	245,240	114,555
197,144	-9,818	245,016	114,552
198,159	-9,985	244,822	114,313
199,173	-9,968	244,678	114,250
200,188	-9,944	244,563	114,205
201,202	-9,981	244,113	113,955
202,217	-10,473	243,876	113,430
203,232	-10,390	243,620	113,369
204,246	-10,117	243,770	113,653
205,261	-9,509	243,572	114,048
206,275	-10,574	243,404	113,088
207,290	-7,157	244,668	116,475
208,304	0,014	246,829	123,427
209,319	3,375	247,723	126,644
210,334	3,735	247,792	126,966
211,348	3,984	247,643	127,084
212,363	4,224	247,647	127,273
213,377	4,371	247,452	127,282
214,392	4,341	247,138	127,085
215,407	4,096	247,127	126,867
216,421	4,055	246,935	126,723
217,436	4,292	246,818	126,847
218,450	4,300	246,668	126,764
219,465	4,080	246,391	126,430
220,480	3,778	246,354	126,152
221,494	3,890	246,098	126,102
222,509	3,805	245,756	125,846
223,523	3,673	245,642	125,667
224,538	3,527	245,399	125,413
225,553	3,692	245,249	125,460
226,567	3,864	245,192	125,560
227,582	3,805	245,009	125,407
228,596	3,968	244,717	125,379
229,611	3,585	244,563	124,977
230,626	3,362	244,409	124,705
231,640	3,619	244,270	124,833
232,655	3,901	244,114	124,971
233,669	3,393	243,923	124,450
234,684	3,443	243,779	124,405
235,699	3,900	243,707	124,728
236,713	3,929	243,663	124,718
237,728	3,736	243,341	124,386
238,742	3,511	243,042	124,041
239,757	3,659	242,901	124,076
240,772	3,505	242,884	123,933
241,786	3,725	242,721	124,016
242,801	3,474	242,446	123,662
243,815	3,554	242,378	123,681
244,830	3,670	242,252	123,699
245,844	3,974	242,130	123,871
246,859	3,669	241,856	123,474
247,874	3,640	241,738	123,380
248,888	3,561	241,556	123,212
249,903	3,852	241,629	123,472
250,917	3,762	241,236	123,189
251,932	3,803	241,214	123,199
252,947	3,893	241,076	123,189
253,961	3,415	240,933	122,723
254,976	3,594	240,752	122,763
255,990	3,978	240,482	122,921
257,005	3,706	240,246	122,572
258,020	3,611	240,030	122,376
259,034	3,821	239,968	122,500
260,049	3,850	239,944	122,501
261,063	3,487	239,763	122,108
262,078	3,548	239,578	122,051
263,093	3,691	239,390	122,058
264,107	3,942	239,243	122,172
265,122	3,563	239,116	121,795
266,136	3,690	239,093	121,873
267,151	3,956	238,870	121,959
268,166	3,782	238,586	121,665
269,180	3,361	238,580	121,319
270,195	4,121	238,536	121,887
271,209	4,418	238,270	121,975
272,224	3,713	238,035	121,287
273,239	3,316	237,882	120,885
274,253	3,362	237,780	120,859
275,268	3,671	237,674	121,037
276,282	3,699	237,511	120,966
277,297	3,407	237,275	120,605
278,312	3,766	237,030	120,752
279,326	3,798	237,002	120,752
280,341	3,764	236,880	120,652
281,355	3,721	236,713	120,523
282,370	3,880	236,670	120,615
283,384	3,724	236,497	120,394
284,399	3,434	236,326	120,069
285,414	3,470	235,949	119,895
286,428	3,718	235,817	120,011
287,443	3,568	235,727	119,837
288,457	3,708	235,677	119,910
289,472	3,779	235,606	119,919
290,487	3,703	235,442	119,766
291,501	3,619	235,126	119,529
292,516	3,267	234,877	119,117
293,530	3,295	234,882	119,131
294,545	3,828	234,704	119,445
295,560	3,801	234,600	119,360
296,574	3,398	234,323	118,895
297,589	3,597	234,234	118,994
298,603	3,775	234,156	119,082
299,618	3,773	234,103	119,043
300,633	3,888	233,971	119,054
301,647	3,868	233,836	118,960
302,662	4,227	233,707	119,161
303,676	4,174	233,516	119,012
304,691	4,084	233,253	118,798
305,706	4,175	233,239	118,850
306,720	4,133	232,993	118,682
307,735	3,839	232,953	118,425
308,749	3,995	232,599	118,354
309,764	3,600	232,586	118,033
310,779	3,529	232,334	117,840
311,793	3,394	232,176	117,645
312,808	3,470	231,983	117,596
313,822	3,425	231,775	117,445
314,837	3,390	231,703	117,372
315,852	3,504	231,569	117,381
316,866	3,585	231,513	117,404
317,881	3,897	231,427	117,588
318,895	3,849	231,222	117,437
319,910	4,056	231,080	117,512
320,925	3,571	230,891	117,036
321,939	3,467	230,758	116,879
322,954	3,479	230,566	116,780
323,968	3,712	230,429	116,877
324,983	3,710	230,453	116,877
325,997	4,133	230,306	117,115
327,012	3,659	230,040	116,609
328,027	3,306	229,860	116,239
329,041	3,656	229,730	116,428
330,056	4,078	229,813	116,781
331,070	4,324	229,787	116,943
332,085	4,070	229,529	116,610
333,100	3,849	229,285	116,308
334,114	3,873	229,121	116,232
335,129	3,915	228,998	116,191
336,143	4,088	228,862	116,242
337,158	4,466	228,700	116,435
338,173	4,162	228,461	116,074
339,187	3,956	228,304	115,829
340,202	4,065	228,167	115,831
341,216	3,676	228,054	115,471
342,231	3,715	227,908	115,416
343,246	3,724	227,717	115,315
344,260	3,837	227,643	115,353
345,275	4,029	227,617	115,473
346,289	3,915	227,485	115,310
347,304	3,931	227,336	115,237
348,319	4,104	227,266	115,320
349,333	4,082	226,895	115,105
350,348	3,778	226,743	114,791
351,362	4,013	226,628	114,898
352,377	3,808	226,267	114,552
353,392	3,401	226,259	114,234
354,406	3,648	226,097	114,326
355,421	194,403	1323,543	1396,679
356,435	155,776	1457,242	1396,670
