DTS Sentinel unit serial number:	SN410029Multiplexer serial number:	ORYXHardware model number:	OX2-SRSoftware version number:	ORYX F/W v4,00 Oryx Data Collector v3.7.2.0data status	okinstallation	B5 Nyhavnadifferential loss correction	single-endedforward channel	channel 2reverse channel	N/Adate	2023/12/13time	15:37:13forward acquisition time	300,00reverse acquisition time	0,00gamma	499,1914k internal	0,3160k external	0,3160temperature offset calibration	1,0000default loss term (dB/km)	0,3820temperature slope calibration	1,0000multiplexer offset coefficient	1,0000multiplexer slope coefficient	1,0000fibre end	0,00T internal ref (°C)	14,96T ext. ref 1 (°C)	-1,43T ext. ref 2 (°C)	-1,73length (m)	temperature (°C)	Stokes	anti-Stokes-744,400	161,783	0,070	0,072
-743,385	-134,463	-0,291	-0,026
-742,371	-14,393	0,079	-0,038
-741,356	-200,000	-0,407	0,001
-740,342	304,678	-0,049	-0,067
-739,327	-50,367	-0,339	-0,117
-738,312	-200,000	0,003	0,016
-737,298	-110,562	-0,365	-0,055
-736,283	800,000	-0,016	0,034
-735,269	-53,705	-0,182	0,061
-734,254	152,082	0,079	0,080
-733,239	-87,024	-0,479	-0,107
-732,225	35,802	0,109	0,071
-731,210	233,771	0,015	0,018
-730,196	-200,000	0,015	-0,112
-729,181	-119,417	0,168	-0,021
-728,167	21,813	-0,083	-0,050
-727,152	286,888	0,091	-0,121
-726,137	-59,422	-0,074	0,023
-725,123	-117,698	-0,111	-0,015
-724,108	451,800	0,012	0,020
-723,094	257,972	-0,093	0,118
-722,079	-200,000	-0,002	-0,039
-721,064	-86,457	-0,062	0,014
-720,050	356,409	-0,019	0,027
-719,035	34,268	-0,008	0,005
-718,021	139,678	-0,003	-0,003
-717,006	-200,000	-0,056	-0,213
-715,991	800,000	-0,067	-0,140
-714,977	194,688	-0,060	0,068
-713,962	-200,000	0,005	0,018
-712,948	40,352	0,023	-0,015
-711,933	-95,949	-0,087	0,017
-710,918	-200,000	0,004	0,090
-709,904	800,000	-0,037	-0,081
-708,889	23,259	-0,132	0,080
-707,875	-4,714	-0,119	-0,060
-706,860	-200,000	-0,018	0,149
-705,845	216,206	0,023	-0,027
-704,831	-200,000	-0,021	0,097
-703,816	-200,000	-0,007	-0,056
-702,802	-177,761	-0,085	0,001
-701,787	15,705	0,050	-0,029
-700,772	-106,694	0,068	-0,011
-699,758	414,422	0,087	-0,136
-698,743	800,000	0,010	0,028
-697,729	635,532	-0,035	0,065
-696,714	-86,357	0,016	-0,003
-695,699	-200,000	-0,008	-0,075
-694,685	-200,000	-0,032	0,125
-693,670	-0,568	-0,025	0,013
-692,656	-84,950	-0,135	0,031
-691,641	215,995	-0,064	-0,074
-690,627	133,907	0,047	0,045
-689,612	-5,535	-0,111	0,056
-688,597	-200,000	-0,021	0,158
-687,583	213,382	-0,101	-0,118
-686,568	-200,000	-0,005	0,089
-685,554	-200,000	0,019	0,082
-684,539	800,000	-0,039	0,099
-683,524	-121,926	0,090	0,011
-682,510	800,000	-0,009	-0,029
-681,495	313,589	-0,066	0,091
-680,481	37,106	-0,075	-0,049
-679,466	53,150	0,013	-0,009
-678,451	217,663	-0,043	0,050
-677,437	19,672	-0,053	0,031
-676,422	-200,000	-0,027	0,146
-675,408	-77,973	-0,052	0,013
-674,393	-67,864	-0,157	0,045
-673,378	343,907	0,076	-0,110
-672,364	29,759	-0,075	-0,047
-671,349	-58,419	0,087	0,028
-670,335	-200,000	-0,018	0,115
-669,320	-59,789	0,095	0,030
-668,305	-37,797	-0,096	-0,037
-667,291	800,000	0,051	-0,109
-666,276	-64,420	-0,128	-0,038
-665,262	-200,000	0,005	0,093
-664,247	87,489	0,075	-0,061
-663,232	-57,189	-0,049	-0,016
-662,218	-26,887	-0,049	0,021
-661,203	6,786	-0,048	-0,026
-660,189	148,405	-0,056	0,055
-659,174	14,013	0,095	-0,054
-658,159	-200,000	-0,041	-0,164
-657,145	-200,000	0,008	-0,026
-656,130	52,277	-0,105	-0,073
-655,116	-200,000	0,021	0,067
-654,101	800,000	0,039	0,110
-653,086	-200,000	-0,005	0,045
-652,072	78,454	-0,077	0,061
-651,057	800,000	-0,005	0,016
-650,043	426,302	-0,038	0,061
-649,028	-200,000	-0,014	0,059
-648,014	100,478	-0,027	-0,023
-646,999	-29,512	-0,223	0,093
-645,984	800,000	0,017	0,036
-644,970	-128,200	0,070	-0,007
-643,955	-200,000	0,004	-0,095
-642,941	133,856	0,079	0,075
-641,926	-78,281	0,049	0,012
-640,911	-181,131	-0,107	0,002
-639,897	444,911	0,009	0,015
-638,882	800,000	0,074	0,209
-637,868	152,430	0,088	-0,088
-636,853	161,011	-0,055	-0,056
-635,838	224,950	0,099	-0,118
-634,824	-111,706	-0,118	-0,017
-633,809	290,459	-0,037	-0,049
-632,795	-200,000	0,018	-0,058
-631,780	-31,857	0,010	-0,004
-630,765	-200,000	-0,015	-0,090
-629,751	408,921	0,067	-0,104
-628,736	-200,000	0,008	0,032
-627,722	97,334	-0,147	-0,124
-626,707	86,849	0,083	0,067
-625,692	40,609	0,097	0,064
-624,678	-135,392	0,060	-0,005
-623,663	-137,009	-0,160	0,013
-622,649	91,076	-0,185	-0,152
-621,634	-88,749	0,068	0,015
-620,619	800,000	-0,069	-0,145
-619,605	140,634	0,110	0,107
-618,590	-75,838	-0,071	-0,018
-617,576	132,476	-0,139	-0,132
-616,561	217,540	0,014	-0,016
-615,546	-145,746	-0,023	0,001
-614,532	-11,554	-0,088	0,042
-613,517	800,000	0,045	0,103
-612,503	-50,043	0,079	-0,027
-611,488	20,757	-0,147	0,087
-610,474	28,128	0,071	0,044
-609,459	-111,904	-0,082	0,012
-608,444	-176,146	-0,052	0,001
-607,430	-26,143	-0,108	-0,046
-606,415	-200,000	-0,018	-0,097
-605,401	-200,000	0,005	-0,032
-604,386	-121,032	0,048	0,006
-603,371	-200,000	0,008	0,072
-602,357	-200,000	0,008	-0,058
-601,342	800,000	-0,021	-0,068
-600,328	295,194	-0,009	-0,011
-599,313	-182,873	-0,028	-0,000
-598,298	36,575	-0,085	-0,055
-597,284	-29,175	0,143	0,060
-596,269	-200,000	-0,003	0,143
-595,255	215,667	0,066	0,077
-594,240	315,643	0,068	-0,094
-593,225	299,270	0,078	-0,106
-592,211	440,152	-0,074	-0,120
-591,196	23,665	0,068	0,041
-590,182	195,211	-0,046	0,051
-589,167	279,837	-0,030	0,040
-588,152	800,000	-0,039	-0,097
-587,138	800,000	-0,029	0,089
-586,123	-17,739	-0,143	0,066
-585,109	-200,000	0,021	0,076
-584,094	800,000	-0,040	-0,115
-583,079	-200,000	-0,004	0,029
-582,065	-200,000	-0,004	-0,037
-581,050	-200,000	-0,022	-0,079
-580,036	314,479	-0,044	0,060
-579,021	800,000	-0,042	-0,088
-578,006	-122,461	-0,059	-0,007
-576,992	-45,783	0,057	0,020
-575,977	275,901	-0,060	-0,078
-574,963	-35,713	-0,059	0,023
-573,948	800,000	0,046	0,111
-572,934	-200,000	0,017	0,091
-571,919	39,806	0,068	-0,044
-570,904	200,820	0,051	-0,057
-569,890	5,142	-0,143	-0,077
-568,875	547,301	0,036	0,063
-567,861	364,645	-0,038	0,056
-566,846	237,347	-0,046	0,056
-565,831	-48,728	0,198	0,069
-564,817	-200,000	-0,006	-0,070
-563,802	-89,914	0,097	-0,021
-562,788	255,717	-0,174	-0,219
-561,773	-153,678	-0,065	-0,003
-560,758	121,789	0,040	0,037
-559,744	-200,000	0,005	-0,093
-558,729	-200,000	0,018	0,099
-557,715	-125,489	-0,076	0,008
-556,700	27,412	-0,035	0,022
-555,685	-4,436	-0,056	-0,028
-554,671	218,010	-0,072	-0,084
-553,656	578,226	0,100	0,179
-552,642	-200,000	0,014	0,059
-551,627	800,000	-0,050	0,127
-550,612	517,700	-0,025	-0,043
-549,598	800,000	-0,033	-0,079
-548,583	111,645	-0,042	-0,037
-547,569	-200,000	-0,035	0,160
-546,554	800,000	0,036	0,099
-545,539	235,000	0,033	-0,040
-544,525	-200,000	-0,004	-0,159
-543,510	-68,664	-0,086	-0,024
-542,496	800,000	0,020	-0,061
-541,481	7,605	-0,079	-0,043
-540,466	16,277	-0,154	-0,088
-539,452	141,563	0,110	-0,107
-538,437	-69,478	0,060	0,017
-537,423	-90,499	0,088	-0,019
-536,408	-200,000	0,012	0,057
-535,393	31,924	-0,100	0,063
-534,379	44,695	0,046	-0,031
-533,364	-200,000	-0,009	-0,091
-532,350	-39,946	-0,127	0,048
-531,335	-4,314	0,199	0,100
-530,321	-171,764	-0,072	0,002
-529,306	63,227	-0,042	-0,031
-528,291	130,460	0,163	-0,153
-527,277	-200,000	0,008	0,040
-526,262	800,000	0,013	-0,036
-525,248	13,869	0,070	0,040
-524,233	800,000	0,036	0,088
-523,218	800,000	0,028	0,079
-522,204	-58,031	-0,017	0,005
-521,189	-152,537	-0,105	0,005
-520,175	191,616	0,086	-0,095
-519,160	-83,389	0,054	-0,013
-518,145	6,373	-0,073	0,039
-517,131	58,470	0,047	-0,034
-516,116	15,052	-0,104	-0,059
-515,102	-194,126	-0,146	-0,001
-514,087	800,000	-0,044	-0,125
-513,072	-9,039	0,081	-0,039
-512,058	49,109	-0,051	-0,035
-511,043	250,034	0,097	-0,121
-510,029	410,621	0,068	-0,105
-509,014	-200,000	0,037	0,233
-507,999	-200,000	0,043	0,170
-506,985	-86,205	-0,110	0,025
-505,970	229,863	0,082	0,098
-504,956	-7,826	-0,060	-0,030
-503,941	49,654	0,057	-0,039
-502,926	-61,429	0,195	-0,059
-501,912	318,504	0,027	-0,038
-500,897	56,138	-0,025	-0,017
-499,883	-87,259	-0,090	0,020
-498,868	-131,135	-0,119	-0,011
-497,853	83,092	-0,012	0,009
-496,839	113,439	0,056	0,049
-495,824	-76,044	0,109	0,028
-494,810	-200,000	0,014	0,123
-493,795	111,565	0,025	0,022
-492,781	800,000	0,029	0,061
-491,766	68,224	0,034	-0,025
-490,751	-200,000	0,033	-0,136
-489,737	131,355	0,045	-0,042
-488,722	-59,076	0,042	0,013
-487,708	-200,000	-0,008	0,044
-486,693	511,714	-0,063	-0,107
-485,678	233,011	-0,040	-0,048
-484,664	186,514	-0,042	-0,046
-483,649	800,000	-0,006	-0,017
-482,635	-200,000	-0,050	-0,283
-481,620	-200,000	0,012	0,054
-480,605	-81,598	0,100	0,024
-479,591	-200,000	-0,007	0,108
-478,576	-200,000	-0,009	0,051
-477,562	-200,000	-0,016	0,100
-476,547	711,227	-0,059	0,114
-475,532	-200,000	0,005	0,034
-474,518	195,370	0,111	0,123
-473,503	-7,137	0,167	0,082
-472,489	248,891	0,127	0,157
-471,474	-200,000	-0,020	0,139
-470,459	-78,776	-0,119	-0,029
-469,445	-200,000	0,006	0,207
-468,430	800,000	-0,046	0,143
-467,416	91,386	0,103	0,084
-466,401	29,894	0,053	-0,033
-465,386	65,932	-0,056	0,041
-464,372	96,676	0,066	0,055
-463,357	198,756	-0,048	-0,053
-462,343	70,449	-0,095	0,072
-461,328	88,587	-0,088	0,072
-460,313	251,640	0,054	-0,067
-459,299	800,000	0,039	-0,108
-458,284	-200,000	0,009	-0,042
-457,270	-200,000	-0,021	-0,119
-456,255	722,383	0,049	0,095
-455,241	-129,859	0,055	-0,005
-454,226	-74,710	-0,051	0,013
-453,211	50,380	-0,037	0,026
-452,197	551,151	0,041	0,072
-451,182	413,374	0,081	-0,126
-450,168	-116,060	0,070	-0,009
-449,153	230,176	-0,065	-0,078
-448,138	-141,539	0,018	0,001
-447,124	800,000	0,025	0,072
-446,109	400,862	-0,064	-0,098
-445,095	-200,000	-0,008	0,124
-444,080	190,199	-0,138	0,151
-443,065	47,738	0,055	0,037
-442,051	129,202	0,073	-0,068
-441,036	170,384	0,053	0,055
-440,022	10,797	-0,059	-0,033
-439,007	174,479	-0,050	0,053
-437,992	-128,792	0,026	0,003
-436,978	800,000	-0,013	0,028
-435,963	-44,390	0,131	0,047
-434,949	-34,358	-0,050	0,020
-433,934	-200,000	-0,040	-0,152
-432,919	85,645	0,094	-0,075
-431,905	74,906	-0,023	-0,017
-430,890	-200,000	0,015	0,079
-429,876	-35,329	0,085	-0,033
-428,861	-1,282	-0,075	-0,039
-427,846	800,000	0,029	-0,082
-426,832	-200,000	-0,008	0,138
-425,817	-21,721	-0,060	-0,026
-424,803	-31,053	0,080	-0,033
-423,788	713,509	0,020	-0,038
-422,773	-200,000	0,010	-0,093
-421,759	-41,149	-0,004	0,002
-420,744	800,000	0,055	0,167
-419,730	78,981	-0,090	-0,070
-418,715	-117,592	0,081	0,011
-417,701	800,000	0,032	0,086
-416,686	-35,706	0,053	0,021
-415,671	-108,005	0,163	-0,025
-414,657	-131,270	0,109	-0,010
-413,642	-65,632	-0,118	-0,034
-412,628	-200,000	-0,011	-0,080
-411,613	800,000	-0,068	-0,154
-410,598	800,000	0,038	-0,096
-409,584	32,399	-0,062	0,039
-408,569	-150,108	0,128	0,007
-407,555	800,000	0,020	-0,046
-406,540	271,653	-0,004	0,005
-405,525	-137,416	-0,092	-0,007
-404,511	327,617	-0,036	-0,051
-403,496	-200,000	-0,035	-0,134
-402,482	-36,174	0,109	0,042
-401,467	682,920	0,038	-0,072
-400,452	-149,403	0,127	0,007
-399,438	-63,266	-0,049	0,014
-398,423	-185,273	0,043	-0,000
-397,409	-24,059	-0,177	-0,077
-396,394	154,828	-0,069	-0,069
-395,379	127,172	0,176	0,163
-394,365	489,493	-0,107	0,179
-393,350	275,626	0,116	0,150
-392,336	-6,174	-0,064	0,032
-391,321	127,328	0,029	0,027
-390,306	-200,000	-0,014	-0,140
-389,292	17,633	-0,028	-0,016
-388,277	800,000	-0,024	-0,059
-387,263	-200,000	-0,004	-0,090
-386,248	101,939	0,027	0,023
-385,233	319,804	-0,040	-0,055
-384,219	800,000	0,011	-0,029
-383,204	685,542	0,018	0,033
-382,190	-200,000	-0,043	-0,185
-381,175	493,971	0,041	0,068
-380,160	-117,523	0,033	0,004
-379,146	14,379	-0,174	-0,098
-378,131	53,234	0,090	-0,063
-377,117	-200,000	-0,019	0,127
-376,102	300,912	-0,077	-0,103
-375,088	84,596	0,055	-0,044
-374,073	92,353	-0,020	0,016
-373,058	-4,184	0,096	0,048
-372,044	-200,000	0,007	-0,057
-371,029	278,892	-0,072	0,093
-370,015	-39,476	-0,068	0,026
-369,000	162,223	-0,065	-0,066
-367,985	-200,000	0,010	-0,093
-366,971	-200,000	-0,023	-0,092
-365,956	716,520	0,012	0,023
-364,942	48,577	0,041	-0,028
-363,927	-200,000	-0,012	0,074
-362,912	-200,000	-0,008	0,035
-361,898	659,622	0,013	-0,025
-360,883	-95,257	0,081	-0,016
-359,869	-68,028	-0,075	-0,021
-358,854	-200,000	0,002	0,058
-357,839	690,906	0,053	-0,101
-356,825	-200,000	0,008	0,044
-355,810	52,789	-0,129	0,090
-354,796	-142,414	-0,032	-0,002
-353,781	-200,000	0,012	-0,080
-352,766	-200,000	-0,009	-0,060
-351,752	-28,059	-0,025	-0,010
-350,737	320,653	0,068	0,094
-349,723	800,000	0,053	-0,129
-348,708	800,000	-0,015	0,038
-347,693	-115,921	-0,046	-0,006
-346,679	800,000	-0,037	-0,109
-345,664	-200,000	-0,024	-0,133
-344,650	263,085	0,051	-0,064
-343,635	347,720	-0,024	-0,035
-342,620	400,115	0,037	0,056
-341,606	-200,000	-0,029	-0,119
-340,591	-173,052	-0,138	-0,003
-339,577	3,096	-0,076	-0,040
-338,562	480,762	-0,031	-0,051
-337,548	-52,874	-0,077	0,026
-336,533	-200,000	-0,011	0,046
-335,518	-200,000	0,000	-0,023
-334,504	-85,923	-0,053	-0,012
-333,489	-200,000	-0,029	-0,107
-332,475	-79,310	-0,061	-0,015
-331,460	5,573	0,048	-0,026
-330,445	800,000	0,034	-0,071
-329,431	512,308	0,059	0,100
-328,416	-34,885	-0,091	0,036
-327,402	-38,056	-0,048	-0,019
-326,387	398,648	0,028	0,043
-325,372	-200,000	0,012	-0,108
-324,358	-144,667	0,131	-0,009
-323,343	77,609	0,108	0,084
-322,329	46,941	-0,054	-0,036
-321,314	43,052	0,122	0,080
-320,299	800,000	0,014	0,027
-319,285	-200,000	0,001	0,067
-318,270	680,951	-0,050	0,095
-317,256	-24,953	-0,041	-0,018
-316,241	-50,740	0,103	-0,035
-315,226	-40,857	0,095	-0,035
-314,212	0,950	0,079	0,041
-313,197	-200,000	-0,007	-0,088
-312,183	212,574	-0,108	0,123
-311,168	-200,000	-0,006	0,159
-310,153	93,207	0,115	-0,094
-309,139	84,487	-0,112	0,088
-308,124	-82,258	0,116	0,027
-307,110	522,744	0,095	0,162
-306,095	255,806	0,076	-0,095
-305,080	171,044	0,033	-0,034
-304,066	800,000	-0,039	-0,097
-303,051	17,679	-0,053	0,030
-302,037	342,449	-0,019	0,026
-301,022	-200,000	-0,024	0,107
-300,008	-51,047	-0,061	0,021
-298,993	307,832	0,008	0,010
-297,978	-200,000	0,027	0,120
-296,964	800,000	0,033	0,069
-295,949	542,251	0,030	-0,052
-294,935	800,000	0,052	-0,136
-293,920	402,338	0,028	0,042
-292,905	800,000	-0,047	-0,105
-291,891	-132,168	0,209	0,019
-290,876	-200,000	-0,033	0,124
-289,862	-98,734	-0,074	-0,013
-288,847	800,000	0,022	-0,055
-287,832	85,060	-0,074	-0,059
-286,818	-200,000	0,011	0,098
-285,803	167,286	-0,088	0,090
-284,789	465,263	0,033	-0,053
-283,774	150,221	0,071	-0,069
-282,759	800,000	-0,056	-0,133
-281,745	-200,000	-0,006	-0,039
-280,730	-36,986	-0,039	-0,015
-279,716	153,949	-0,087	-0,086
-278,701	26,474	0,117	0,070
-277,686	-200,000	0,000	0,026
-276,672	-91,594	0,159	-0,032
-275,657	-200,000	0,029	-0,115
-274,643	-200,000	-0,051	-0,163
-273,628	-147,300	0,045	0,003
-272,613	-200,000	-0,026	-0,087
-271,599	-200,000	-0,008	-0,086
-270,584	-200,000	0,028	0,141
-269,570	26,410	0,085	0,051
-268,555	117,097	-0,091	-0,081
-267,540	-200,000	-0,003	-0,034
-266,526	176,772	-0,026	-0,027
-265,511	138,444	-0,028	-0,026
-264,497	6,716	0,026	0,014
-263,482	-60,054	0,160	0,049
-262,467	-29,013	-0,060	-0,025
-261,453	-200,000	-0,035	0,115
-260,438	-67,473	0,068	-0,019
-259,424	-200,000	0,002	-0,061
-258,409	-200,000	-0,022	-0,110
-257,395	-107,700	0,099	0,015
-256,380	800,000	0,028	0,077
-255,365	98,881	-0,125	0,104
-254,351	311,700	0,081	0,110
-253,336	-106,241	-0,183	0,029
-252,322	800,000	-0,015	-0,048
-251,307	19,653	0,073	0,042
-250,292	800,000	-0,023	0,053
-249,278	-200,000	0,016	0,120
-248,263	-200,000	0,018	0,093
-247,249	253,602	-0,033	-0,041
-246,234	135,846	-0,041	0,038
-245,219	150,708	-0,067	-0,066
-244,205	-48,152	0,046	0,016
-243,190	174,200	0,062	0,065
-242,176	680,749	0,042	0,080
-241,161	800,000	0,027	0,069
-240,146	-123,770	0,078	0,009
-239,132	-11,382	0,049	0,023
-238,117	427,709	0,052	-0,081
-237,103	800,000	0,002	-0,004
-236,088	116,525	-0,078	0,069
-235,073	-182,227	0,081	-0,001
-234,059	652,416	0,046	-0,085
-233,044	-34,497	0,055	-0,022
-232,030	800,000	-0,050	-0,103
-231,015	-139,317	0,113	0,009
-230,000	55,124	0,051	-0,035
-228,986	-21,914	0,051	0,022
-227,971	32,454	-0,033	-0,020
-226,957	-200,000	0,016	0,064
-225,942	-64,064	-0,038	-0,011
-224,927	-113,562	-0,108	-0,015
-223,913	558,370	-0,020	-0,035
-222,898	800,000	-0,005	-0,014
-221,884	-46,763	-0,042	0,015
-220,869	-182,261	-0,065	-0,001
-219,855	-74,319	0,113	0,029
-218,840	800,000	0,038	0,082
-217,825	-130,716	-0,112	-0,011
-216,811	800,000	-0,027	0,058
-215,796	800,000	-0,050	0,149
-214,782	-200,000	-0,027	0,220
-213,767	108,034	-0,039	0,034
-212,752	-3,162	0,056	-0,028
-211,738	800,000	-0,014	0,029
-210,723	-177,410	0,051	0,001
-209,709	631,921	0,046	0,084
-208,694	109,951	-0,045	-0,039
-207,679	800,000	-0,031	-0,099
-206,665	-200,000	0,007	0,033
-205,650	-200,000	-0,006	0,055
-204,636	-19,084	-0,023	0,010
-203,621	-13,729	0,109	-0,051
-202,606	800,000	-0,021	0,060
-201,592	-153,895	-0,084	0,004
-200,577	-64,666	0,076	-0,022
-199,563	739,451	-0,006	-0,011
-198,548	170,753	-0,058	0,060
-197,533	-99,978	0,040	-0,007
-196,519	-200,000	-0,002	-0,027
-195,504	131,955	0,068	0,063
-194,490	-54,907	0,120	-0,039
-193,475	116,499	-0,076	-0,067
-192,460	35,307	-0,063	-0,040
-191,446	800,000	0,066	0,145
-190,431	130,372	0,090	0,083
-189,417	27,153	-0,084	-0,051
-188,402	477,048	-0,066	-0,107
-187,387	-78,280	-0,050	-0,012
-186,373	46,954	0,056	0,037
-185,358	-30,836	-0,103	0,042
-184,344	-200,000	-0,012	-0,043
-183,329	-59,970	-0,109	0,033
-182,315	-200,000	-0,005	-0,153
-181,300	101,852	0,012	0,010
-180,285	415,593	0,072	-0,111
-179,271	87,289	-0,010	-0,008
-178,256	119,995	0,072	-0,064
-177,242	72,095	-0,065	0,048
-176,227	800,000	0,061	0,127
-175,212	435,578	0,052	0,082
-174,198	800,000	-0,018	0,039
-173,183	103,384	-0,103	-0,087
-172,169	-127,884	-0,037	-0,004
-171,154	-200,000	-0,025	-0,118
-170,139	-170,720	0,098	0,002
-169,125	147,005	-0,099	0,096
-168,110	-200,000	0,027	0,121
-167,096	-200,000	0,003	0,017
-166,081	19,888	-0,092	-0,053
-165,066	-200,000	0,006	0,055
-164,052	203,370	-0,068	-0,076
-163,037	-200,000	0,012	0,106
-162,023	800,000	-0,007	-0,021
-161,008	-200,000	0,008	-0,070
-159,993	51,931	-0,124	-0,085
-158,979	-42,478	-0,021	0,008
-157,964	208,133	0,094	-0,106
-156,950	-167,341	-0,094	0,003
-155,935	-15,083	0,047	0,021
-154,920	800,000	0,036	0,115
-153,906	-200,000	0,001	0,080
-152,891	-200,000	-0,040	0,145
-151,877	184,668	-0,076	0,082
-150,862	-76,483	0,029	-0,007
-149,847	192,165	0,026	-0,028
-148,833	-200,000	-0,001	0,011
-147,818	72,760	0,123	0,092
-146,804	283,027	0,071	0,092
-145,789	226,364	-0,099	0,116
-144,775	279,730	-0,047	0,060
-143,760	-123,855	-0,069	0,008
-142,745	-14,316	-0,089	-0,041
-141,731	800,000	-0,010	0,032
-140,716	43,195	0,203	-0,133
-139,702	-174,809	0,033	0,001
-138,687	79,535	-0,059	-0,045
-137,672	528,923	0,020	-0,035
-136,658	301,242	-0,041	-0,054
-135,643	103,932	0,019	0,016
-134,629	-184,014	-0,125	0,001
-133,614	53,669	-0,107	-0,074
-132,599	-200,000	0,026	0,089
-131,585	43,453	-0,073	-0,048
-130,570	594,036	0,010	-0,017
-129,556	682,055	-0,038	0,072
-128,541	87,227	0,044	-0,035
-127,526	-146,186	-0,057	0,004
-126,512	-200,000	-0,007	-0,153
-125,497	-185,536	0,052	0,001
-124,483	287,956	0,053	-0,069
-123,468	-200,000	0,007	0,115
-122,453	-200,000	0,021	0,138
-121,439	800,000	0,052	-0,107
-120,424	524,846	-0,024	0,040
-119,410	800,000	0,057	0,138
-118,395	-118,168	0,107	0,014
-117,380	32,068	0,042	0,026
-116,366	-41,259	0,067	-0,025
-115,351	-200,000	-0,308	0,001
-114,337	-119,889	-0,056	0,007
-113,322	-68,819	0,163	0,045
-112,307	431,430	0,048	-0,075
-111,293	-14,021	0,159	0,073
-110,278	-200,000	-0,006	0,081
-109,264	-37,900	-0,133	0,050
-108,249	-108,385	-0,123	-0,019
-107,234	89,128	0,078	0,062
-106,220	-16,854	-0,142	0,064
-105,205	24,802	-0,029	-0,017
-104,191	230,946	0,059	-0,069
-103,176	800,000	0,009	0,018
-102,162	399,735	0,023	-0,035
-101,147	119,547	-0,036	0,032
-100,132	-200,000	-0,005	-0,062
-99,118	800,000	-0,036	-0,106
-98,103	492,765	-0,048	0,080
-97,089	39,147	0,017	0,011
-96,074	636,295	-0,021	-0,039
-95,059	-200,000	-0,008	-0,037
-94,045	-96,977	-0,166	-0,031
-93,030	398,833	-0,030	0,046
-92,016	-87,360	0,174	-0,038
-91,001	13,522	-0,089	-0,049
-89,986	-29,052	-0,120	-0,049
-88,972	-104,505	0,182	-0,030
-87,957	800,000	-0,084	0,188
-86,943	210,386	-0,045	0,050
-85,928	-200,000	-0,006	0,124
-84,913	-200,000	0,016	0,061
-83,899	-97,929	-0,053	0,010
-82,884	18,808	0,076	0,043
-81,870	-200,000	0,003	0,074
-80,855	131,631	-0,042	-0,039
-79,840	495,821	-0,035	0,058
-78,826	-196,701	0,114	-0,001
-77,811	-20,100	-0,079	-0,035
-76,797	-200,000	0,000	-0,079
-75,782	139,461	-0,043	0,041
-74,767	243,298	0,052	-0,063
-73,753	-2,480	0,139	0,069
-72,738	25,533	-0,035	-0,021
-71,724	-51,422	-0,043	0,014
-70,709	-200,000	0,014	-0,059
-69,694	42,612	-0,133	-0,087
-68,680	3,633	0,173	0,090
-67,665	252,245	-0,086	0,106
-66,651	800,000	-0,034	-0,100
-65,636	-200,000	-0,003	-0,068
-64,622	-148,018	0,040	-0,002
-63,607	-200,000	0,003	0,031
-62,592	800,000	-0,055	0,138
-61,578	41,394	-0,012	0,008
-60,563	298,191	-0,050	0,066
-59,549	20,106	-0,144	0,083
-58,534	17,039	-1,932	-1,095
-57,519	-200,000	-0,191	-0,843
-56,505	-200,000	-1,187	-4,979
-55,490	73,095	0,818	0,613
-54,476	800,000	5,195	11,911
-53,461	-200,000	17,913	289,068
-52,446	800,000	729,177	2229,582
-51,432	536,244	1645,004	2810,858
-50,417	109,507	1635,380	1404,652
-49,403	75,140	1287,065	971,918
-48,388	31,708	1027,335	632,477
-47,373	20,169	988,852	570,781
-46,359	18,294	976,992	557,773
-45,344	15,263	972,892	545,501
-44,330	15,595	971,225	545,632
-43,315	15,039	969,525	542,841
-42,300	14,997	968,453	542,081
-41,286	14,983	967,438	541,447
-40,271	15,044	966,414	541,050
-39,257	14,973	965,476	540,273
-38,242	14,959	964,673	539,759
-37,227	14,979	963,956	539,400
-36,213	14,961	963,002	538,785
-35,198	14,974	962,024	538,258
-34,184	15,007	961,383	537,987
-33,169	14,954	960,305	537,191
-32,154	15,057	959,360	536,974
-31,140	15,014	958,451	536,303
-30,125	15,026	957,994	536,065
-29,111	15,036	956,901	535,464
-28,096	15,023	956,375	535,109
-27,082	14,975	955,663	534,532
-26,067	14,978	954,925	534,108
-25,052	15,020	953,945	533,673
-24,038	14,971	953,482	533,237
-23,023	14,972	952,775	532,823
-22,009	15,003	952,336	532,656
-20,994	15,021	951,567	532,263
-19,979	14,997	950,937	531,812
-18,965	15,016	950,224	531,452
-17,950	15,025	949,806	531,229
-16,936	14,958	948,942	530,509
-15,921	14,974	948,267	530,161
-14,906	14,861	947,719	529,474
-13,892	14,908	946,974	529,188
-12,877	14,865	946,381	528,696
-11,863	14,834	945,756	528,230
-10,848	14,852	945,426	528,081
-9,833	14,922	944,732	527,894
-8,819	14,937	943,963	527,491
-7,804	14,893	943,551	527,101
-6,790	14,868	943,031	526,711
-5,775	14,957	942,342	526,587
-4,760	14,922	941,808	526,158
-3,746	14,891	941,080	525,631
-2,731	14,748	940,374	524,763
-1,717	14,779	939,626	524,423
-0,702	14,764	938,931	523,968
0,313	14,588	938,344	523,875
1,327	17,682	936,344	532,450
2,342	26,465	792,714	473,992
3,356	23,001	457,828	268,446
4,371	-3,800	314,080	155,710
5,386	-7,841	295,772	142,539
6,400	-9,742	289,573	137,657
7,415	-10,276	287,189	135,987
8,429	-10,363	285,668	135,169
9,444	-10,477	284,818	134,644
10,459	-10,188	284,099	134,573
11,473	-10,340	283,584	134,170
12,488	-10,284	283,081	133,974
13,502	-10,254	282,500	133,716
14,517	-10,329	282,082	133,434
15,531	-10,446	281,777	133,165
16,546	-10,291	281,250	133,054
17,561	-10,444	280,924	132,740
18,575	-10,372	280,650	132,668
19,590	-10,194	280,009	132,523
20,604	-10,225	279,880	132,421
21,619	-10,208	279,456	132,225
22,634	-10,310	279,203	131,997
23,648	-10,540	278,998	131,669
24,663	-10,186	278,493	131,755
25,677	-10,342	278,437	131,568
26,692	-10,410	278,165	131,364
27,707	-10,246	277,770	131,321
28,721	-10,315	277,583	131,155
29,736	-10,394	277,143	130,861
30,750	-10,486	277,052	130,720
31,765	-10,499	276,710	130,534
32,780	-10,382	276,621	130,590
33,794	-10,229	276,210	130,529
34,809	-10,291	276,117	130,416
35,823	-10,310	275,656	130,168
36,838	-10,344	275,503	130,053
37,853	-10,373	275,312	129,924
38,867	-10,409	274,971	129,717
39,882	-10,360	274,751	129,648
40,896	-10,329	274,492	129,543
41,911	-10,166	274,127	129,512
42,926	-10,249	273,949	129,338
43,940	-10,309	273,728	129,166
44,955	-10,456	273,535	128,927
45,969	-10,539	273,348	128,749
46,984	-10,499	273,044	128,632
47,999	-10,754	272,846	128,291
49,013	-10,652	272,424	128,175
50,028	-10,943	272,423	127,893
51,042	-11,139	271,958	127,482
52,057	-11,169	271,768	127,354
53,071	-11,118	271,529	127,277
54,086	-10,920	271,389	127,384
55,101	-10,682	271,323	127,561
56,115	-10,645	271,159	127,507
57,130	-10,468	271,028	127,598
58,144	-10,195	270,767	127,715
59,159	-10,193	270,648	127,650
60,174	-10,012	270,347	127,662
61,188	-9,975	270,031	127,536
62,203	-10,293	269,780	127,114
63,217	-10,280	269,706	127,080
64,232	-10,148	269,338	127,016
65,247	-10,292	269,200	126,808
66,261	-10,103	268,820	126,790
67,276	-10,319	268,547	126,452
68,290	-10,558	268,347	126,129
69,305	-10,630	268,060	125,917
70,320	-10,338	267,911	126,102
71,334	-10,419	267,827	125,977
72,349	-10,176	267,593	126,077
73,363	-10,274	267,404	125,889
74,378	-10,183	267,130	125,830
75,393	-10,167	267,118	125,828
76,407	-10,254	266,748	125,564
77,422	-10,144	266,547	125,558
78,436	-10,280	266,305	125,309
79,451	-10,139	266,001	125,282
80,466	-10,330	265,810	125,009
81,480	-10,414	265,636	124,840
82,495	-10,402	265,332	124,697
83,509	-10,443	265,253	124,611
84,524	-10,433	265,029	124,505
85,539	-10,492	264,808	124,336
86,553	-10,599	264,544	124,105
87,568	-10,684	264,403	123,951
88,582	-10,324	264,175	124,157
89,597	-10,675	264,051	123,773
90,611	-10,484	263,802	123,816
91,626	-10,163	263,716	124,052
92,641	-10,173	263,478	123,920
93,655	-10,352	263,253	123,643
94,670	-10,404	263,058	123,494
95,684	-10,408	262,794	123,356
96,699	-10,401	262,712	123,313
97,714	-10,136	262,357	123,371
98,728	-10,467	262,104	122,946
99,743	-10,501	261,873	122,797
100,757	-10,620	261,753	122,624
101,772	-10,458	261,487	122,632
102,787	-10,309	261,370	122,699
103,801	-10,243	261,284	122,706
104,816	-10,356	261,160	122,536
105,830	-10,130	260,900	122,603
106,845	-10,114	260,581	122,457
107,860	-10,283	260,340	122,184
108,874	-10,209	260,343	122,239
109,889	-10,027	259,954	122,206
110,903	-10,060	259,682	122,038
111,918	-10,388	259,751	121,770
112,933	-10,148	259,386	121,800
113,947	-10,150	259,231	121,715
114,962	-10,155	259,143	121,658
115,976	-10,291	258,932	121,429
116,991	-10,249	258,763	121,375
118,006	-10,448	258,579	121,104
119,020	-10,321	258,423	121,131
120,035	-10,353	258,413	121,088
121,049	-10,210	258,060	121,037
122,064	-10,315	257,969	120,891
123,079	-10,365	257,679	120,701
124,093	-10,547	257,515	120,455
125,108	-10,425	257,337	120,467
126,122	-10,561	257,070	120,213
127,137	-10,626	256,752	119,997
128,151	-10,559	256,483	119,918
129,166	-10,371	256,308	119,989
130,181	-10,579	256,292	119,791
131,195	-10,628	256,058	119,629
132,210	-10,409	255,834	119,703
133,224	-10,299	255,726	119,736
134,239	-10,188	255,458	119,696
135,254	-10,286	255,449	119,596
136,268	-10,377	255,028	119,310
137,283	-10,481	254,806	119,106
138,297	-10,657	254,469	118,787
139,312	-10,682	254,335	118,692
140,327	-10,596	254,321	118,749
141,341	-10,226	254,221	119,010
142,356	-10,103	254,052	119,025
143,370	-10,307	253,992	118,812
144,385	-9,906	253,579	118,951
145,400	-10,106	253,572	118,767
146,414	-10,094	253,321	118,648
147,429	-10,003	253,057	118,592
148,443	-10,176	252,938	118,378
149,458	-10,042	252,763	118,400
150,473	-10,017	252,557	118,314
151,487	-10,075	252,280	118,124
152,502	-10,122	252,160	118,017
153,516	-10,178	252,008	117,888
154,531	-9,973	251,750	117,931
155,546	-10,186	251,689	117,711
156,560	-10,200	251,463	117,583
157,575	-10,429	251,337	117,320
158,589	-10,206	251,110	117,392
159,604	-10,056	250,866	117,394
160,619	-9,975	250,649	117,351
161,633	-9,995	250,521	117,264
162,648	-10,117	250,472	117,127
163,662	-10,219	250,298	116,949
164,677	-10,066	250,122	116,986
165,692	-9,962	249,816	116,920
166,706	-10,072	249,737	116,780
167,721	-10,112	249,627	116,684
168,735	-10,145	249,441	116,559
169,750	-9,960	249,256	116,617
170,764	-9,862	249,107	116,619
171,779	-9,915	249,055	116,541
172,794	-10,028	248,801	116,316
173,808	-10,140	248,569	116,104
174,823	-10,430	248,271	115,712
175,837	-10,647	248,281	115,525
176,852	-10,246	248,094	115,762
177,867	-9,983	247,965	115,911
178,881	-9,783	247,739	115,963
179,896	-9,861	247,632	115,837
180,910	-9,977	247,447	115,644
181,925	-10,213	247,260	115,350
182,940	-9,991	247,153	115,474
183,954	-9,915	246,937	115,426
184,969	-10,031	246,787	115,249
185,983	-10,042	246,627	115,155
186,998	-9,882	246,383	115,163
188,013	-10,097	246,126	114,855
189,027	-9,872	245,940	114,944
190,042	-10,018	245,798	114,747
191,056	-9,885	245,708	114,804
192,071	-9,963	245,642	114,699
193,086	-10,058	245,447	114,519
194,100	-10,081	245,178	114,364
195,115	-9,851	244,955	114,440
196,129	-10,088	244,815	114,169
197,144	-10,099	244,687	114,090
198,159	-10,119	244,327	113,896
199,173	-10,016	244,292	113,954
200,188	-10,163	243,990	113,682
201,202	-10,087	243,654	113,577
202,217	-10,670	243,641	113,084
203,232	-10,660	243,378	112,960
204,246	-10,192	243,401	113,343
205,261	-9,901	243,278	113,514
206,275	-10,642	242,682	112,622
207,290	-6,933	244,366	116,437
208,304	0,920	246,973	124,164
209,319	4,553	247,795	127,570
210,334	5,004	247,904	127,987
211,348	5,192	247,629	127,989
212,363	5,325	247,680	128,114
213,377	5,462	247,430	128,085
214,392	5,310	247,279	127,871
215,407	5,238	247,190	127,754
216,421	5,366	246,915	127,705
217,436	5,364	246,889	127,679
218,450	5,654	246,704	127,810
219,465	5,277	246,266	127,264
220,480	5,122	246,281	127,132
221,494	5,066	246,193	127,030
222,509	5,160	245,881	126,934
223,523	5,103	245,786	126,827
224,538	4,714	245,373	126,285
225,553	4,665	245,359	126,227
226,567	4,861	245,301	126,346
227,582	4,662	245,215	126,128
228,596	4,760	244,940	126,054
229,611	4,275	244,710	125,531
230,626	4,369	244,583	125,530
231,640	4,742	244,158	125,604
232,655	4,691	244,256	125,602
233,669	4,636	243,932	125,379
234,684	4,485	243,866	125,212
235,699	4,822	243,695	125,386
236,713	4,946	243,730	125,494
237,728	4,752	243,499	125,206
238,742	4,513	243,403	124,953
239,757	4,420	243,047	124,684
240,772	4,462	242,850	124,605
241,786	4,645	242,800	124,716
242,801	4,598	242,602	124,565
243,815	4,554	242,379	124,404
244,830	4,861	242,424	124,664
245,844	4,841	242,149	124,495
246,859	4,500	241,897	124,081
247,874	4,588	241,845	124,113
248,888	4,538	241,859	124,069
249,903	4,600	241,644	123,998
250,917	4,889	241,481	124,135
251,932	4,978	241,387	124,147
252,947	5,044	241,065	124,022
253,961	4,771	240,818	123,667
254,976	4,611	240,933	123,586
255,990	4,949	240,591	123,670
257,005	4,580	240,514	123,324
258,020	4,529	240,294	123,161
259,034	4,715	240,217	123,258
260,049	4,548	240,045	123,026
261,063	4,757	239,855	123,084
262,078	4,541	239,678	122,810
263,093	4,867	239,541	122,988
264,107	5,006	239,381	123,005
265,122	4,581	239,277	122,604
266,136	4,699	239,162	122,627
267,151	4,943	239,108	122,782
268,166	4,655	238,715	122,341
269,180	4,560	238,566	122,179
270,195	4,936	238,716	122,543
271,209	5,380	238,615	122,830
272,224	4,816	238,242	122,183
273,239	4,260	237,983	121,601
274,253	4,642	237,667	121,729
275,268	4,723	237,739	121,819
276,282	4,741	237,581	121,741
277,297	4,333	237,316	121,274
278,312	4,430	237,216	121,288
279,326	4,753	237,026	121,434
280,341	4,560	237,020	121,268
281,355	4,824	236,846	121,376
282,370	4,884	236,749	121,362
283,384	4,822	236,507	121,179
284,399	4,395	236,315	120,735
285,414	4,289	236,199	120,583
286,428	4,633	235,927	120,701
287,443	4,779	235,751	120,714
288,457	4,637	235,742	120,588
289,472	4,773	235,693	120,658
290,487	4,913	235,420	120,617
291,501	4,417	235,147	120,081
292,516	4,345	235,075	119,977
293,530	4,215	235,022	119,839
294,545	4,759	234,968	120,223
295,560	4,519	234,728	119,903
296,574	4,490	234,500	119,753
297,589	4,475	234,392	119,676
298,603	4,791	234,525	119,978
299,618	4,807	234,204	119,816
300,633	5,033	233,916	119,832
301,647	4,965	233,994	119,809
302,662	5,152	233,863	119,876
303,676	4,987	233,627	119,617
304,691	4,949	233,528	119,526
305,706	5,161	233,333	119,579
306,720	5,009	233,155	119,360
307,735	4,889	232,993	119,174
308,749	4,739	232,873	118,987
309,764	4,460	232,679	118,662
310,779	4,327	232,342	118,378
311,793	4,150	232,131	118,124
312,808	4,178	231,975	118,056
313,822	4,355	232,008	118,198
314,837	4,883	231,913	118,543
315,852	4,635	231,731	118,250
316,866	4,741	231,736	118,323
317,881	4,977	231,525	118,385
318,895	4,944	231,355	118,263
319,910	4,954	231,261	118,212
320,925	4,854	230,921	117,951
321,939	4,369	230,759	117,488
322,954	4,595	230,856	117,699
323,968	4,571	230,565	117,522
324,983	4,478	230,402	117,358
325,997	5,200	230,409	117,900
327,012	4,891	230,362	117,630
328,027	4,848	230,022	117,414
329,041	5,052	229,930	117,510
330,056	5,385	229,996	117,787
331,070	5,285	229,833	117,616
332,085	5,129	229,665	117,402
333,100	4,747	229,307	116,920
334,114	5,034	229,125	117,034
335,129	5,080	229,074	117,032
336,143	5,172	228,967	117,037
337,158	4,983	228,893	116,845
338,173	4,963	228,591	116,666
339,187	4,573	228,494	116,313
340,202	4,840	228,298	116,403
341,216	4,696	228,110	116,189
342,231	4,787	228,016	116,198
343,246	4,666	227,811	115,993
344,260	4,933	227,632	116,092
345,275	5,125	227,705	116,262
346,289	5,166	227,478	116,167
347,304	5,346	227,328	116,214
348,319	4,898	227,339	115,875
349,333	4,894	227,036	115,707
350,348	4,972	226,713	115,590
351,362	4,724	226,715	115,396
352,377	4,543	226,635	115,210
353,392	4,655	226,336	115,131
354,406	4,669	226,118	115,020
355,421	195,488	1320,219	1395,688
356,435	156,709	1453,506	1395,681
