DTS Sentinel unit serial number:	SN410029Multiplexer serial number:	ORYXHardware model number:	OX2-SRSoftware version number:	ORYX F/W v4,00 Oryx Data Collector v3.7.2.0data status	okinstallation	B5 Nyhavnadifferential loss correction	single-endedforward channel	channel 2reverse channel	N/Adate	2023/12/12time	02:12:13forward acquisition time	300,00reverse acquisition time	0,00gamma	499,1914k internal	0,3156k external	0,3156temperature offset calibration	1,0000default loss term (dB/km)	0,3820temperature slope calibration	1,0000multiplexer offset coefficient	1,0000multiplexer slope coefficient	1,0000fibre end	0,00T internal ref (°C)	15,81T ext. ref 1 (°C)	-0,57T ext. ref 2 (°C)	-0,84length (m)	temperature (°C)	Stokes	anti-Stokes-744,400	73,787	-0,039	-0,031
-743,385	-52,491	-0,182	0,062
-742,371	-200,000	0,007	-0,082
-741,356	-160,150	-0,186	0,007
-740,342	166,327	0,036	0,038
-739,327	19,564	-0,224	-0,133
-738,312	-140,442	0,165	-0,012
-737,298	-78,029	-0,404	0,102
-736,283	800,000	0,040	0,083
-735,269	-35,244	-0,255	0,102
-734,254	117,707	0,069	0,062
-733,239	-99,064	-0,496	-0,092
-732,225	0,328	0,120	-0,063
-731,210	-142,291	0,068	-0,005
-730,196	-39,378	-0,082	-0,031
-729,181	-120,901	-0,092	0,011
-728,167	287,459	0,034	-0,045
-727,152	-200,000	-0,055	-0,244
-726,137	-32,355	-0,081	-0,033
-725,123	238,121	-0,067	-0,083
-724,108	25,975	0,053	-0,033
-723,094	-26,342	-0,173	-0,075
-722,079	24,595	-0,148	-0,090
-721,064	-59,157	0,145	-0,046
-720,050	800,000	0,021	0,060
-719,035	-33,688	-0,125	0,050
-718,021	767,236	-0,040	0,080
-717,006	269,012	-0,008	0,011
-715,991	-24,090	-0,057	0,025
-714,977	37,250	-0,042	-0,027
-713,962	-121,858	-0,126	-0,015
-712,948	-54,095	0,112	0,037
-711,933	107,422	0,033	0,029
-710,918	278,427	0,053	0,070
-709,904	800,000	-0,062	0,140
-708,889	336,078	0,024	-0,034
-707,875	-200,000	-0,003	-0,095
-706,860	-84,642	0,034	-0,008
-705,845	-114,395	-0,040	-0,006
-704,831	87,977	-0,008	-0,006
-703,816	643,301	0,014	0,027
-702,802	800,000	-0,022	-0,057
-701,787	747,418	-0,016	-0,031
-700,772	330,360	0,008	-0,012
-699,758	-59,210	-0,036	-0,011
-698,743	-52,728	0,075	-0,025
-697,729	-200,000	-0,007	0,145
-696,714	-168,276	0,149	0,004
-695,699	-200,000	0,010	0,088
-694,685	-90,757	-0,011	0,002
-693,670	800,000	0,023	-0,075
-692,656	28,309	0,023	0,014
-691,641	105,619	-0,107	0,093
-690,627	-200,000	0,009	0,092
-689,612	386,148	0,114	0,174
-688,597	-114,577	0,034	-0,005
-687,583	800,000	-0,034	-0,085
-686,568	169,985	0,091	-0,096
-685,554	-114,039	0,033	0,005
-684,539	564,067	0,071	-0,127
-683,524	-86,487	0,074	-0,017
-682,510	-200,000	-0,002	0,023
-681,495	304,293	-0,033	-0,046
-680,481	-200,000	0,010	-0,038
-679,466	780,923	0,047	-0,094
-678,451	58,796	-0,169	-0,122
-677,437	100,756	0,012	-0,011
-676,422	-200,000	-0,004	0,087
-675,408	800,000	0,014	-0,039
-674,393	800,000	-0,020	0,052
-673,378	-69,228	-0,086	0,024
-672,364	-200,000	0,011	-0,152
-671,349	-200,000	-0,003	-0,038
-670,335	5,410	0,052	0,028
-669,320	-52,288	0,048	-0,016
-668,305	-200,000	-0,009	-0,034
-667,291	259,216	0,060	0,077
-666,276	800,000	-0,008	0,017
-665,262	800,000	-0,005	-0,016
-664,247	-200,000	-0,025	-0,225
-663,232	-31,657	0,201	0,082
-662,218	-39,810	0,072	0,027
-661,203	95,440	-0,073	-0,061
-660,189	73,510	0,122	-0,094
-659,174	-200,000	0,015	-0,268
-658,159	31,138	-0,149	-0,094
-657,145	41,160	0,021	0,014
-656,130	800,000	0,011	0,027
-655,116	800,000	0,021	0,046
-654,101	29,064	-0,051	0,031
-653,086	360,124	-0,090	-0,133
-652,072	109,963	-0,101	-0,089
-651,057	-132,125	-0,127	-0,012
-650,043	-200,000	-0,021	-0,074
-649,028	-31,329	0,053	0,022
-648,014	800,000	0,036	0,077
-646,999	149,198	0,082	0,082
-645,984	25,428	-0,054	0,033
-644,970	652,777	-0,027	-0,051
-643,955	213,486	0,064	-0,075
-642,941	-86,163	-0,121	-0,027
-641,926	251,371	-0,070	0,088
-640,911	-200,000	-0,005	-0,052
-639,897	324,298	0,027	0,037
-638,882	-200,000	0,000	-0,018
-637,868	-93,936	-0,120	-0,024
-636,853	400,559	-0,107	-0,165
-635,838	800,000	-0,026	-0,075
-634,824	-200,000	0,002	0,054
-633,809	-1,819	-0,055	-0,028
-632,795	-57,151	0,158	0,051
-631,780	300,508	0,021	-0,029
-630,765	-43,091	-0,114	-0,042
-629,751	800,000	-0,100	-0,228
-628,736	-200,000	-0,016	-0,073
-627,722	-200,000	0,002	-0,015
-626,707	-200,000	0,012	0,040
-625,692	37,232	0,164	0,106
-624,678	-200,000	0,026	-0,091
-623,663	-200,000	0,004	0,114
-622,649	43,780	-0,187	-0,126
-621,634	800,000	0,014	0,036
-620,619	694,901	0,015	-0,029
-619,605	347,173	-0,024	-0,035
-618,590	-200,000	0,033	-0,117
-617,576	-20,825	-0,034	-0,015
-616,561	-200,000	0,014	-0,066
-615,546	800,000	0,030	0,080
-614,532	-127,205	0,061	0,006
-613,517	-69,997	0,127	-0,035
-612,503	31,100	-0,116	0,073
-611,488	-9,177	0,032	-0,015
-610,474	-200,000	0,017	0,057
-609,459	-182,908	-0,096	-0,001
-608,444	-200,000	0,012	-0,070
-607,430	-200,000	0,016	-0,091
-606,415	-200,000	0,002	-0,010
-605,401	-200,000	0,034	-0,116
-604,386	800,000	-0,049	0,143
-603,371	800,000	0,072	0,210
-602,357	105,830	0,064	0,056
-601,342	-128,598	-0,170	-0,017
-600,328	-40,989	0,037	0,014
-599,313	-200,000	0,033	-0,130
-598,298	178,450	0,069	-0,074
-597,284	-15,435	0,106	-0,050
-596,269	207,848	-0,095	0,109
-595,255	-102,877	-0,040	-0,007
-594,240	-101,010	-0,014	0,003
-593,225	-62,451	-0,055	-0,017
-592,211	692,503	-0,059	-0,114
-591,196	-67,326	0,034	-0,010
-590,182	-27,251	-0,089	0,038
-589,167	113,423	-0,049	-0,044
-588,152	-200,000	-0,006	0,160
-587,138	104,521	0,025	-0,022
-586,123	77,153	-0,085	-0,066
-585,109	484,724	0,003	0,005
-584,094	-116,570	-0,063	-0,008
-583,079	126,688	0,088	0,081
-582,065	409,990	0,050	-0,078
-581,050	-200,000	-0,023	-0,097
-580,036	-65,237	-0,005	-0,001
-579,021	-200,000	0,024	-0,122
-578,006	483,803	0,034	-0,057
-576,992	751,814	0,003	-0,006
-575,977	-128,090	0,036	-0,004
-574,963	130,875	0,058	0,054
-573,948	120,311	0,119	0,109
-572,934	215,147	0,060	0,070
-571,919	702,466	-0,041	-0,079
-570,904	800,000	-0,039	-0,116
-569,890	-200,000	-0,003	0,122
-568,875	-99,346	0,109	-0,020
-567,861	8,988	0,044	-0,024
-566,846	38,681	-0,038	-0,025
-565,831	-200,000	0,004	-0,050
-564,817	52,994	-0,065	-0,046
-563,802	-124,964	-0,170	0,019
-562,788	-129,756	-0,110	-0,011
-561,773	-200,000	-0,000	-0,023
-560,758	800,000	0,049	0,138
-559,744	-200,000	0,029	0,152
-558,729	-200,000	-0,009	0,106
-557,715	303,478	0,025	-0,034
-556,700	10,194	0,033	-0,018
-555,685	-89,415	-0,055	-0,012
-554,671	285,226	0,030	-0,039
-553,656	-91,682	-0,095	0,020
-552,642	-200,000	0,000	-0,007
-551,627	369,870	-0,081	0,121
-550,612	293,969	0,062	0,083
-549,598	16,191	0,053	-0,030
-548,583	300,358	0,093	-0,125
-547,569	160,981	-0,040	0,041
-546,554	-200,000	0,020	0,078
-545,539	277,428	-0,057	-0,074
-544,525	800,000	-0,048	0,103
-543,510	-113,911	-0,179	0,025
-542,496	-200,000	0,004	-0,068
-541,481	260,286	-0,066	-0,083
-540,466	-14,848	0,136	0,064
-539,452	358,861	0,045	0,066
-538,437	-15,834	-0,071	-0,033
-537,423	63,211	-0,038	-0,028
-536,408	642,268	-0,025	-0,047
-535,393	-112,357	0,026	-0,004
-534,379	-200,000	0,003	-0,040
-533,364	67,275	-0,043	0,032
-532,350	800,000	-0,034	-0,081
-531,335	548,339	-0,083	0,147
-530,321	145,169	-0,063	-0,062
-529,306	-98,289	-0,071	0,013
-528,291	-89,081	-0,068	-0,015
-527,277	311,210	-0,049	0,067
-526,262	118,991	0,089	0,080
-525,248	800,000	-0,021	0,052
-524,233	-65,587	0,125	-0,036
-523,218	-150,818	0,064	-0,004
-522,204	1,731	-0,095	0,050
-521,189	-200,000	-0,003	0,161
-520,175	10,047	-0,044	-0,025
-519,160	800,000	-0,082	-0,209
-518,145	-110,682	0,195	-0,029
-517,131	76,126	-0,032	-0,024
-516,116	-9,507	0,063	-0,031
-515,102	-200,000	0,013	-0,088
-514,087	576,710	-0,041	0,074
-513,072	548,580	-0,029	0,052
-512,058	-200,000	-0,009	-0,100
-511,043	-43,272	0,099	0,036
-510,029	23,054	0,067	0,040
-509,014	800,000	0,008	-0,019
-507,999	-111,852	-0,048	0,007
-506,985	-123,680	-0,123	0,014
-505,970	-200,000	-0,018	-0,066
-504,956	-200,000	-0,004	0,047
-503,941	-200,000	0,013	0,122
-502,926	-200,000	0,016	0,155
-501,912	716,680	-0,043	-0,084
-500,897	-200,000	-0,002	0,027
-499,883	-153,769	0,100	0,005
-498,868	302,852	0,107	-0,146
-497,853	45,498	0,089	-0,060
-496,839	800,000	0,039	-0,115
-495,824	-96,864	0,088	0,017
-494,810	9,447	0,043	0,024
-493,795	442,192	-0,073	0,117
-492,781	44,923	-0,031	0,021
-491,766	315,830	-0,046	-0,064
-490,751	-58,851	-0,108	0,034
-489,737	163,940	-0,041	0,042
-488,722	-32,668	0,153	-0,062
-487,708	41,657	0,042	-0,028
-486,693	-139,750	0,104	0,008
-485,678	-200,000	0,000	0,004
-484,664	144,880	0,022	0,022
-483,649	-112,529	0,197	-0,028
-482,635	93,923	-0,053	-0,044
-481,620	-200,000	-0,006	0,047
-480,605	-200,000	0,019	0,163
-479,591	44,474	0,046	-0,031
-478,576	168,032	0,091	-0,094
-477,562	-68,680	0,107	0,030
-476,547	-60,744	-0,082	0,025
-475,532	-200,000	0,016	-0,090
-474,518	800,000	0,041	0,088
-473,503	-93,613	0,081	0,016
-472,489	-200,000	0,011	-0,093
-471,474	699,079	-0,031	-0,060
-470,459	-35,926	-0,212	-0,083
-469,445	368,219	0,064	-0,094
-468,430	-200,000	-0,009	0,108
-467,416	-75,038	-0,098	0,025
-466,401	-200,000	-0,010	0,165
-465,386	-200,000	0,006	0,026
-464,372	270,609	0,077	0,099
-463,357	468,279	0,052	-0,086
-462,343	-160,273	-0,130	0,005
-461,328	-92,803	0,018	-0,004
-460,313	800,000	0,003	0,009
-459,299	-52,034	-0,149	-0,050
-458,284	-153,231	0,184	-0,009
-457,270	-200,000	0,015	0,064
-456,255	-106,348	-0,181	0,029
-455,241	94,322	-0,124	-0,103
-454,226	-200,000	0,012	0,115
-453,211	-85,262	-0,070	-0,016
-452,197	-200,000	0,003	0,157
-451,182	-100,528	-0,034	0,006
-450,168	455,824	0,046	0,074
-449,153	355,039	-0,079	0,115
-448,138	-116,319	-0,080	0,011
-447,124	-30,099	0,118	0,049
-446,109	-200,000	0,004	0,054
-445,095	-3,160	-0,012	0,006
-444,080	800,000	0,079	0,171
-443,065	87,439	-0,076	-0,061
-442,051	135,895	-0,074	-0,070
-441,036	-22,413	-0,028	0,012
-440,022	-200,000	0,009	-0,036
-439,007	-43,747	-0,090	0,033
-437,992	-200,000	0,033	-0,174
-436,978	-0,930	0,052	0,027
-435,963	401,232	-0,066	0,102
-434,949	-13,426	-0,125	-0,059
-433,934	27,716	-0,101	-0,062
-432,919	-68,464	-0,125	-0,035
-431,905	-200,000	0,018	-0,081
-430,890	155,772	0,071	-0,071
-429,876	9,309	-0,080	-0,044
-428,861	-200,000	-0,030	0,249
-427,846	800,000	-0,035	0,072
-426,832	86,046	0,097	0,078
-425,817	-200,000	0,011	-0,053
-424,803	-152,137	0,086	-0,004
-423,788	-200,000	0,001	0,088
-422,773	98,846	0,066	0,056
-421,759	-168,558	0,173	0,005
-420,744	-118,774	-0,214	0,027
-419,730	-91,386	-0,108	0,022
-418,715	6,379	0,183	0,099
-417,701	5,140	0,048	0,025
-416,686	98,431	0,094	-0,079
-415,671	-200,000	0,006	0,079
-414,657	112,028	-0,132	0,116
-413,642	-200,000	-0,008	-0,083
-412,628	-200,000	-0,002	-0,113
-411,613	-52,407	-0,172	-0,058
-410,598	72,421	0,103	0,078
-409,584	-200,000	-0,032	-0,240
-408,569	-200,000	0,015	0,000
-407,555	263,060	-0,032	0,041
-406,540	-200,000	0,005	0,058
-405,525	194,283	0,045	-0,049
-404,511	-60,686	-0,021	-0,006
-403,496	162,041	-0,025	0,025
-402,482	292,811	-0,032	0,043
-401,467	246,052	-0,025	0,031
-400,452	-50,973	-0,140	0,048
-399,438	-122,861	0,044	0,005
-398,423	-200,000	-0,035	-0,112
-397,409	-200,000	0,029	-0,115
-396,394	-152,459	-0,085	0,004
-395,379	155,804	0,038	0,039
-394,365	462,860	0,031	0,051
-393,350	-75,534	0,065	0,017
-392,336	154,107	-0,090	-0,090
-391,321	112,363	0,034	-0,030
-390,306	125,389	-0,093	0,086
-389,292	200,766	0,041	0,046
-388,277	-47,587	0,118	-0,042
-387,263	559,939	0,037	0,065
-386,248	-200,000	0,010	0,133
-385,233	-21,148	-0,125	-0,055
-384,219	611,863	-0,034	-0,061
-383,204	3,959	-0,076	-0,040
-382,190	528,611	0,052	-0,089
-381,175	48,697	0,033	0,022
-380,160	-146,186	-0,023	-0,001
-379,146	-104,718	0,099	-0,016
-378,131	-200,000	-0,001	-0,102
-377,117	183,519	-0,028	0,030
-376,102	-38,685	-0,055	-0,021
-375,088	478,718	-0,080	-0,131
-374,073	-107,388	0,082	-0,013
-373,058	492,677	0,073	0,122
-372,044	320,307	-0,073	0,100
-371,029	800,000	-0,038	0,078
-370,015	43,711	-0,036	0,024
-369,000	795,937	-0,009	0,018
-367,985	-200,000	-0,007	0,023
-366,971	48,679	-0,035	-0,023
-365,956	318,897	0,125	-0,173
-364,942	-150,256	0,052	-0,003
-363,927	475,939	0,037	0,061
-362,912	227,296	0,056	0,066
-361,898	206,576	-0,048	-0,055
-360,883	141,770	0,017	0,016
-359,869	-200,000	-0,017	-0,093
-358,854	800,000	-0,041	0,095
-357,839	152,552	0,168	0,166
-356,825	-200,000	0,004	0,033
-355,810	-200,000	-0,007	0,028
-354,796	452,305	-0,067	-0,108
-353,781	177,609	-0,081	-0,086
-352,766	40,805	0,088	-0,058
-351,752	176,888	0,080	-0,085
-350,737	-200,000	0,040	0,146
-349,723	-51,036	-0,228	0,077
-348,708	-101,349	-0,058	0,010
-347,693	-200,000	0,010	0,068
-346,679	48,322	-0,193	-0,131
-345,664	546,370	-0,041	-0,071
-344,650	503,370	0,040	0,067
-343,635	318,924	-0,041	0,057
-342,620	-139,707	0,111	0,008
-341,606	285,565	0,017	0,022
-340,591	-69,057	-0,093	-0,026
-339,577	-200,000	-0,021	0,151
-338,562	-2,108	-0,107	0,054
-337,548	50,429	-0,018	0,012
-336,533	24,878	-0,066	0,040
-335,518	-200,000	0,025	0,140
-334,504	800,000	0,042	0,116
-333,489	171,085	-0,046	-0,048
-332,475	322,072	0,055	-0,076
-331,460	-37,325	0,080	0,031
-330,445	797,239	0,031	0,063
-329,431	68,574	-0,036	0,027
-328,416	467,135	-0,142	0,231
-327,402	-200,000	0,027	0,100
-326,387	136,307	-0,053	0,050
-325,372	563,615	-0,101	-0,178
-324,358	569,589	0,025	-0,044
-323,343	-122,863	0,036	0,004
-322,329	213,918	0,052	-0,060
-321,314	-200,000	0,023	-0,116
-320,299	-164,176	-0,048	-0,002
-319,285	430,191	-0,006	-0,009
-318,270	498,417	0,021	0,035
-317,256	330,052	-0,087	-0,122
-316,241	158,574	0,045	-0,046
-315,226	-150,002	0,100	-0,006
-314,212	19,100	-0,092	-0,053
-313,197	395,182	0,037	0,056
-312,183	21,131	-0,084	0,049
-311,168	-200,000	0,012	0,046
-310,153	-200,000	0,019	-0,078
-309,139	448,544	-0,042	-0,068
-308,124	-41,579	0,068	0,025
-307,110	-200,000	0,011	-0,124
-306,095	222,964	0,076	0,088
-305,080	130,302	0,106	0,099
-304,066	-200,000	0,025	-0,113
-303,051	326,135	-0,101	-0,141
-302,037	-200,000	0,036	-0,186
-301,022	11,197	0,034	-0,019
-300,008	87,075	0,095	-0,076
-298,993	510,177	0,077	-0,130
-297,978	-78,974	-0,111	-0,027
-296,964	800,000	-0,035	0,073
-295,949	-34,232	-0,026	-0,010
-294,935	800,000	0,043	-0,136
-293,920	353,440	-0,089	-0,128
-292,905	554,238	-0,108	0,189
-291,891	3,470	0,234	0,123
-290,876	800,000	0,040	0,100
-289,862	19,297	0,203	-0,118
-288,847	-146,328	-0,134	0,008
-287,832	356,323	-0,060	-0,087
-286,818	-200,000	0,024	0,086
-285,803	-46,639	0,057	0,020
-284,789	-200,000	-0,014	0,128
-283,774	361,468	0,075	0,109
-282,759	92,439	0,083	0,068
-281,745	-200,000	-0,016	-0,169
-280,730	467,502	0,054	0,089
-279,716	-188,836	-0,031	0,000
-278,701	112,947	0,048	0,042
-277,686	383,587	0,115	0,172
-276,672	-200,000	-0,069	0,231
-275,657	775,672	0,057	0,114
-274,643	-68,304	0,132	-0,037
-273,628	800,000	-0,056	-0,169
-272,613	2,229	0,046	-0,024
-271,599	-115,536	0,094	0,013
-270,584	56,413	0,209	0,147
-269,570	337,551	-0,135	-0,190
-268,555	-60,158	0,099	-0,030
-267,540	-26,185	-0,138	-0,058
-266,526	269,580	-0,038	0,049
-265,511	-132,561	-0,130	-0,012
-264,497	756,792	0,028	0,056
-263,482	800,000	-0,044	0,103
-262,467	-123,064	-0,081	0,009
-261,453	-89,263	-0,011	-0,002
-260,438	-200,000	0,001	-0,123
-259,424	800,000	-0,011	-0,026
-258,409	70,382	-0,026	0,019
-257,395	5,790	0,112	-0,060
-256,380	-51,994	0,080	0,027
-255,365	27,451	0,074	0,045
-254,351	-200,000	-0,002	0,032
-253,336	-93,164	-0,046	-0,009
-252,322	460,000	0,043	-0,070
-251,307	-200,000	-0,001	0,006
-250,292	183,369	0,042	0,045
-249,278	28,461	0,076	0,046
-248,263	-50,943	0,058	0,020
-247,249	-200,000	-0,019	0,182
-246,234	-92,794	0,070	-0,014
-245,219	-174,273	-0,055	-0,001
-244,205	800,000	0,018	0,041
-243,190	-22,389	0,087	0,038
-242,176	800,000	0,011	0,026
-241,161	-198,520	0,096	-0,000
-240,146	800,000	-0,037	0,081
-239,132	55,965	0,084	0,059
-238,117	349,896	-0,053	-0,076
-237,103	40,042	0,072	-0,046
-236,088	-200,000	-0,034	-0,131
-235,073	-9,579	0,086	-0,041
-234,059	-200,000	-0,003	0,017
-233,044	-9,559	0,095	0,046
-232,030	800,000	-0,008	0,021
-231,015	-72,667	-0,039	-0,010
-230,000	-200,000	0,014	-0,055
-228,986	-116,696	0,081	-0,011
-227,971	304,591	-0,025	0,034
-226,957	-200,000	-0,012	0,062
-225,942	-200,000	0,013	0,113
-224,927	800,000	0,035	0,076
-223,913	-200,000	0,016	-0,104
-222,898	-91,175	0,129	0,026
-221,884	800,000	-0,052	-0,107
-220,869	65,609	0,130	-0,095
-219,855	-40,749	-0,070	0,026
-218,840	-15,140	0,110	0,050
-217,825	20,666	-0,142	0,083
-216,811	800,000	0,032	-0,096
-215,796	-48,014	-0,118	0,041
-214,782	-169,150	0,068	0,002
-213,767	-200,000	-0,004	-0,054
-212,752	152,499	0,108	-0,107
-211,738	309,217	-0,048	-0,065
-210,723	-68,538	0,083	-0,023
-209,709	-111,125	-0,071	-0,010
-208,694	-200,000	0,005	-0,139
-207,679	-118,108	0,138	-0,018
-206,665	-141,113	-0,117	-0,008
-205,650	-54,076	0,048	-0,016
-204,636	-58,074	0,014	-0,004
-203,621	-65,502	-0,051	-0,015
-202,606	-200,000	-0,026	-0,150
-201,592	800,000	0,033	0,092
-200,577	-200,000	-0,034	-0,129
-199,563	-24,887	-0,069	-0,030
-198,548	184,306	0,022	0,023
-197,533	800,000	0,054	-0,135
-196,519	28,100	-0,148	0,090
-195,504	-51,768	-0,062	-0,021
-194,490	-200,000	0,016	-0,062
-193,475	236,900	0,040	-0,048
-192,460	-200,000	-0,009	0,056
-191,446	-200,000	-0,023	-0,083
-190,431	-144,188	0,068	-0,004
-189,417	-84,313	-0,097	0,022
-188,402	-200,000	-0,009	-0,163
-187,387	366,307	-0,123	-0,180
-186,373	132,323	-0,158	-0,147
-185,358	293,682	-0,075	-0,099
-184,344	-105,949	0,077	0,012
-183,329	-143,942	0,156	0,010
-182,315	-56,177	0,147	0,047
-181,300	-159,213	-0,113	0,004
-180,285	-200,000	-0,005	-0,191
-179,271	192,656	-0,050	0,054
-178,256	122,529	0,170	0,153
-177,242	-200,000	0,017	0,068
-176,227	-60,978	-0,122	-0,037
-175,212	-133,155	-0,087	0,008
-174,198	204,444	0,080	-0,089
-173,183	632,417	-0,044	0,081
-172,169	101,896	-0,021	-0,018
-171,154	104,643	-0,030	0,026
-170,139	-200,000	0,043	0,200
-169,125	-130,858	0,070	0,007
-168,110	494,459	-0,038	0,064
-167,096	-200,000	0,014	-0,046
-166,081	-82,198	-0,135	-0,032
-165,066	-5,840	-0,025	-0,012
-164,052	-9,737	0,111	-0,053
-163,037	-200,000	0,011	0,083
-162,023	-200,000	-0,003	-0,032
-161,008	-47,267	0,109	0,038
-159,993	-28,537	0,070	0,029
-158,979	-200,000	0,004	-0,057
-157,964	-200,000	0,018	0,067
-156,950	211,679	-0,040	0,046
-155,935	-200,000	-0,005	-0,035
-154,920	158,007	-0,057	0,057
-153,906	278,107	0,044	0,056
-152,891	-200,000	-0,006	-0,066
-151,877	-166,505	-0,079	0,002
-150,862	27,070	0,058	-0,035
-149,847	-46,953	-0,130	-0,046
-148,833	800,000	0,047	0,109
-147,818	-5,912	-0,074	0,036
-146,804	138,430	0,048	-0,045
-145,789	-114,324	0,010	-0,001
-144,775	-200,000	-0,005	-0,038
-143,760	-9,934	-0,095	0,046
-142,745	-125,112	0,058	-0,006
-141,731	800,000	-0,075	0,156
-140,716	-200,000	-0,014	-0,100
-139,702	800,000	0,054	0,142
-138,687	1,613	-0,059	0,030
-137,672	-97,217	0,075	-0,014
-136,658	-74,674	0,067	0,017
-135,643	-200,000	-0,001	0,010
-134,629	800,000	-0,055	-0,120
-133,614	106,705	-0,057	0,049
-132,599	-54,223	0,074	0,024
-131,585	-78,670	-0,063	-0,015
-130,570	-200,000	-0,003	-0,036
-129,556	274,810	-0,040	-0,051
-128,541	255,730	0,040	-0,050
-127,526	451,615	0,078	-0,125
-126,512	137,390	0,056	-0,053
-125,497	-91,751	0,130	0,026
-124,483	-200,000	0,034	0,108
-123,468	507,705	-0,026	0,044
-122,453	-200,000	-0,010	-0,060
-121,439	27,112	-0,057	-0,035
-120,424	800,000	-0,043	0,093
-119,410	-200,000	0,004	0,041
-118,395	-105,009	-0,101	0,016
-117,380	800,000	-0,043	0,097
-116,366	-118,309	-0,146	-0,019
-115,351	123,785	-0,169	-0,153
-114,337	-95,136	-0,109	-0,021
-113,322	-58,173	-0,144	-0,045
-112,307	6,474	0,120	-0,064
-111,293	-54,105	0,071	0,023
-110,278	-8,096	0,110	0,053
-109,264	5,516	-0,033	0,018
-108,249	-45,150	-0,075	-0,027
-107,234	82,219	-0,126	-0,098
-106,220	9,245	0,023	0,012
-105,205	59,080	-0,020	0,014
-104,191	326,162	-0,033	0,046
-103,176	34,438	-0,021	-0,013
-102,162	119,938	0,147	0,131
-101,147	-99,456	-0,037	0,007
-100,132	800,000	-0,039	-0,085
-99,118	327,138	0,079	-0,110
-98,103	581,362	-0,033	0,058
-97,089	169,996	0,038	-0,039
-96,074	162,361	0,061	0,061
-95,059	-200,000	-0,007	-0,022
-94,045	-24,629	-0,040	-0,017
-93,030	222,277	-0,028	-0,033
-92,016	-121,301	0,088	-0,010
-91,001	88,452	0,105	-0,084
-89,986	-145,543	0,145	0,009
-88,972	225,683	0,086	-0,100
-87,957	108,122	0,124	0,106
-86,943	52,146	-0,064	0,044
-85,928	211,653	0,053	-0,060
-84,913	358,228	0,058	-0,083
-83,899	-16,473	-0,118	0,053
-82,884	67,076	0,133	0,097
-81,870	-200,000	0,002	0,013
-80,855	53,172	0,124	-0,085
-79,840	8,649	-0,070	-0,038
-78,826	-17,647	-0,069	0,031
-77,811	-200,000	-0,011	-0,056
-76,797	-200,000	-0,030	0,118
-75,782	412,065	-0,040	0,062
-74,767	-1,127	0,108	0,055
-73,753	-40,665	-0,111	0,041
-72,738	71,034	-0,027	-0,020
-71,724	800,000	-0,036	-0,080
-70,709	-200,000	0,011	0,107
-69,694	-40,122	-0,120	-0,045
-68,680	100,300	0,052	-0,043
-67,665	-109,108	-0,065	-0,010
-66,651	380,371	-0,029	-0,043
-65,636	-200,000	0,016	0,052
-64,622	25,163	0,074	-0,044
-63,607	-200,000	-0,010	-0,112
-62,592	-108,022	-0,085	-0,013
-61,578	800,000	0,061	-0,124
-60,563	756,668	-0,027	0,054
-59,549	733,534	0,038	0,073
-58,534	2,677	-1,921	-0,997
-57,519	-200,000	-0,169	-0,924
-56,505	-200,000	-1,366	-4,978
-55,490	4,781	0,792	0,417
-54,476	800,000	5,264	12,195
-53,461	-200,000	17,241	283,516
-52,446	800,000	724,039	2223,760
-51,432	541,012	1640,157	2815,909
-50,417	111,531	1631,853	1412,875
-49,403	75,971	1286,569	975,968
-48,388	32,694	1028,382	637,196
-47,373	20,251	990,340	572,561
-46,359	18,671	978,583	560,554
-45,344	16,144	974,429	549,875
-44,330	16,329	972,969	549,636
-43,315	15,918	971,120	547,225
-42,300	15,813	970,078	546,273
-41,286	15,823	968,951	545,651
-40,271	15,824	967,846	545,010
-39,257	15,833	967,223	544,667
-38,242	15,890	966,309	544,317
-37,227	15,835	965,730	543,791
-36,213	15,840	964,651	543,175
-35,198	15,805	963,734	542,524
-34,184	15,874	962,977	542,300
-33,169	15,741	962,206	541,415
-32,154	15,855	961,233	541,213
-31,140	15,881	960,068	540,621
-30,125	15,847	959,575	540,210
-29,111	15,858	958,604	539,680
-28,096	15,845	957,996	539,275
-27,082	15,905	957,444	539,135
-26,067	15,856	956,659	538,512
-25,052	15,874	955,863	538,101
-24,038	15,824	955,254	537,578
-23,023	15,807	954,581	537,121
-22,009	15,881	953,835	536,917
-20,994	15,862	953,315	536,545
-19,979	15,852	952,715	536,152
-18,965	15,845	952,115	535,772
-17,950	15,812	951,538	535,319
-16,936	15,758	950,902	534,767
-15,921	15,766	950,121	534,332
-14,906	15,732	949,424	533,812
-13,892	15,729	948,789	533,424
-12,877	15,742	948,175	533,098
-11,863	15,759	947,513	532,759
-10,848	15,687	946,983	532,210
-9,833	15,815	946,478	532,315
-8,819	15,767	945,862	531,792
-7,804	15,729	945,173	531,264
-6,790	15,772	944,543	531,026
-5,775	15,681	944,206	530,526
-4,760	15,726	943,531	530,267
-3,746	15,717	942,799	529,808
-2,731	15,642	942,139	529,178
-1,717	15,583	941,493	528,609
-0,702	15,575	940,733	528,133
0,313	15,357	940,070	527,870
1,327	18,405	937,912	536,222
2,342	27,211	795,149	477,964
3,356	23,916	458,982	270,830
4,371	-3,042	313,593	156,455
5,386	-6,940	295,291	143,379
6,400	-9,111	289,469	138,389
7,415	-9,399	287,023	136,925
8,429	-9,782	285,605	135,862
9,444	-9,604	284,607	135,549
10,459	-9,626	284,018	135,234
11,473	-9,665	283,480	134,928
12,488	-9,549	282,908	134,756
13,502	-9,813	282,524	134,306
14,517	-9,363	281,892	134,428
15,531	-9,401	281,399	134,143
16,546	-9,367	281,140	134,041
17,561	-9,529	280,812	133,717
18,575	-9,552	280,505	133,537
19,590	-9,444	280,029	133,402
20,604	-9,399	279,920	133,382
21,619	-9,547	279,517	133,036
22,634	-9,361	279,094	133,000
23,648	-9,438	278,850	132,798
24,663	-9,512	278,451	132,526
25,677	-9,547	278,267	132,393
26,692	-9,528	277,994	132,270
27,707	-9,603	277,713	132,054
28,721	-9,568	277,426	131,938
29,736	-9,671	277,244	131,742
30,750	-9,435	276,894	131,788
31,765	-9,534	276,631	131,557
32,780	-9,583	276,420	131,399
33,794	-9,405	276,185	131,443
34,809	-9,675	275,932	131,057
35,823	-9,464	275,632	131,101
36,838	-9,419	275,346	130,996
37,853	-9,572	275,057	130,703
38,867	-9,847	275,087	130,447
39,882	-9,605	274,743	130,499
40,896	-9,583	274,487	130,387
41,911	-9,717	274,254	130,139
42,926	-9,676	273,934	130,014
43,940	-9,568	273,729	130,006
44,955	-9,580	273,521	129,884
45,969	-9,630	273,285	129,714
46,984	-9,721	273,054	129,508
47,999	-9,796	272,686	129,252
49,013	-9,908	272,485	129,041
50,028	-10,182	272,304	128,689
51,042	-10,089	272,000	128,621
52,057	-10,288	271,677	128,272
53,071	-10,245	271,534	128,233
54,086	-10,025	271,372	128,349
55,101	-10,053	271,249	128,253
56,115	-9,697	271,053	128,478
57,130	-9,470	270,910	128,608
58,144	-9,467	270,596	128,450
59,159	-9,431	270,409	128,383
60,174	-9,553	270,466	128,287
61,188	-9,464	269,911	128,094
62,203	-9,433	269,824	128,069
63,217	-9,353	269,608	128,029
64,232	-9,351	269,350	127,897
65,247	-9,582	269,248	127,626
66,261	-9,567	268,980	127,501
67,276	-9,726	268,552	127,141
68,290	-9,605	268,383	127,160
69,305	-9,884	268,064	126,743
70,320	-9,636	267,891	126,876
71,334	-9,621	267,834	126,852
72,349	-9,274	267,508	127,002
73,363	-9,573	267,522	126,725
74,378	-9,491	267,311	126,688
75,393	-9,391	266,926	126,585
76,407	-9,560	266,895	126,406
77,422	-9,456	266,430	126,268
78,436	-9,393	266,307	126,256
79,451	-9,379	266,053	126,137
80,466	-9,461	265,792	125,928
81,480	-9,453	265,562	125,815
82,495	-9,770	265,405	125,443
83,509	-9,551	265,161	125,515
84,524	-9,661	264,995	125,326
85,539	-9,600	264,761	125,258
86,553	-9,783	264,558	124,987
87,568	-9,642	264,398	125,026
88,582	-9,595	264,233	124,980
89,597	-9,659	263,896	124,752
90,611	-9,637	263,863	124,745
91,626	-9,483	263,683	124,787
92,641	-9,569	263,596	124,657
93,655	-9,630	263,064	124,340
94,670	-9,589	263,040	124,355
95,684	-9,404	262,791	124,390
96,699	-9,539	262,634	124,185
97,714	-9,588	262,410	124,025
98,728	-9,803	262,300	123,769
99,743	-9,663	261,937	123,712
100,757	-9,609	261,605	123,592
101,772	-9,515	261,601	123,662
102,787	-9,610	261,293	123,422
103,801	-9,552	261,360	123,494
104,816	-9,585	260,994	123,280
105,830	-9,424	260,855	123,347
106,845	-9,482	260,772	123,245
107,860	-9,371	260,498	123,203
108,874	-9,465	260,199	122,967
109,889	-9,633	260,194	122,805
110,903	-9,405	259,881	122,848
111,918	-9,601	259,608	122,535
112,933	-9,615	259,549	122,484
113,947	-9,561	259,312	122,409
114,962	-9,525	259,188	122,371
115,976	-9,537	258,938	122,231
116,991	-9,499	258,724	122,152
118,006	-9,453	258,590	122,119
119,020	-9,405	258,336	122,030
120,035	-9,600	258,354	121,857
121,049	-9,564	257,992	121,707
122,064	-9,325	257,946	121,883
123,079	-9,462	257,747	121,659
124,093	-9,682	257,481	121,331
125,108	-9,642	257,156	121,201
126,122	-9,740	257,063	121,061
127,137	-9,975	256,727	120,688
128,151	-9,956	256,654	120,660
129,166	-9,501	256,431	120,939
130,181	-9,665	256,214	120,684
131,195	-9,640	255,994	120,591
132,210	-9,590	255,857	120,559
133,224	-9,585	255,706	120,482
134,239	-9,644	255,629	120,383
135,254	-9,506	255,356	120,363
136,268	-9,536	255,272	120,287
137,283	-9,805	254,816	119,829
138,297	-9,834	254,889	119,828
139,312	-10,033	254,505	119,466
140,327	-9,673	254,347	119,691
141,341	-9,481	254,426	119,882
142,356	-9,415	254,062	119,756
143,370	-9,433	254,029	119,715
144,385	-9,252	253,703	119,706
145,400	-9,206	253,486	119,633
146,414	-9,175	253,489	119,650
147,429	-9,416	253,280	119,333
148,443	-9,202	252,935	119,344
149,458	-9,260	252,805	119,222
150,473	-9,377	252,796	119,107
151,487	-9,638	252,483	118,727
152,502	-9,439	252,320	118,808
153,516	-9,351	252,015	118,729
154,531	-9,471	252,030	118,624
155,546	-9,290	251,725	118,623
156,560	-9,161	251,518	118,626
157,575	-9,317	251,369	118,412
158,589	-9,330	251,111	118,269
159,604	-9,246	251,065	118,308
160,619	-9,539	250,861	117,952
161,633	-9,201	250,599	118,105
162,648	-9,362	250,641	117,978
163,662	-9,144	250,372	118,026
164,677	-9,244	250,186	117,843
165,692	-9,095	250,037	117,888
166,706	-9,226	249,907	117,706
167,721	-9,203	249,685	117,610
168,735	-9,271	249,552	117,479
169,750	-9,282	249,297	117,340
170,764	-9,264	249,263	117,328
171,779	-9,161	248,987	117,274
172,794	-9,093	248,905	117,283
173,808	-9,173	248,698	117,108
174,823	-9,673	248,536	116,602
175,837	-9,786	248,212	116,344
176,852	-9,383	248,111	116,624
177,867	-9,250	247,963	116,656
178,881	-9,337	247,893	116,539
179,896	-9,168	247,708	116,583
180,910	-9,320	247,612	116,400
181,925	-9,102	247,290	116,420
182,940	-9,275	247,184	116,216
183,954	-9,279	247,120	116,172
184,969	-9,294	246,904	116,048
185,983	-9,266	246,675	115,953
186,998	-9,227	246,649	115,963
188,013	-9,227	246,291	115,784
189,027	-9,272	246,186	115,687
190,042	-9,195	245,925	115,618
191,056	-9,241	245,778	115,501
192,071	-9,277	245,519	115,339
193,086	-9,378	245,508	115,240
194,100	-9,261	245,279	115,219
195,115	-9,455	245,178	115,000
196,129	-9,117	244,798	115,091
197,144	-9,295	244,765	114,918
198,159	-9,346	244,569	114,775
199,173	-9,386	244,277	114,594
200,188	-9,332	244,154	114,570
201,202	-9,466	243,753	114,263
202,217	-9,846	243,656	113,895
203,232	-9,833	243,531	113,837
204,246	-9,421	243,433	114,119
205,261	-9,101	243,263	114,290
206,275	-9,817	242,875	113,513
207,290	-6,475	244,240	116,885
208,304	-0,215	246,391	123,076
209,319	2,998	246,983	126,014
210,334	3,230	247,002	126,204
211,348	3,558	247,098	126,512
212,363	3,706	247,000	126,573
213,377	3,719	246,827	126,484
214,392	3,882	246,579	126,480
215,407	3,618	246,598	126,260
216,421	3,759	246,304	126,215
217,436	3,839	246,118	126,174
218,450	3,974	246,003	126,214
219,465	3,607	245,772	125,784
220,480	3,339	245,669	125,500
221,494	3,410	245,372	125,396
222,509	3,658	245,310	125,555
223,523	3,602	245,038	125,359
224,538	2,972	244,923	124,775
225,553	3,042	244,708	124,711
226,567	3,353	244,411	124,802
227,582	3,483	244,428	124,905
228,596	3,600	244,295	124,922
229,611	3,290	243,933	124,474
230,626	3,186	243,849	124,335
231,640	3,231	243,691	124,280
232,655	3,440	243,480	124,331
233,669	3,246	243,323	124,082
234,684	2,981	243,044	123,714
235,699	3,631	243,151	124,284
236,713	3,659	243,152	124,296
237,728	3,365	242,660	123,796
238,742	3,319	242,493	123,663
239,757	3,075	242,384	123,399
240,772	3,236	242,297	123,474
241,786	3,502	242,138	123,597
242,801	3,131	241,979	123,206
243,815	3,132	241,685	123,046
244,830	3,135	241,700	123,044
245,844	3,495	241,468	123,204
246,859	3,237	241,418	122,961
247,874	3,252	241,090	122,794
248,888	3,478	241,044	122,942
249,903	3,396	240,826	122,754
250,917	3,398	240,829	122,747
251,932	3,688	240,664	122,883
252,947	3,558	240,431	122,649
253,961	3,218	240,241	122,270
254,976	3,400	240,117	122,341
255,990	3,421	239,995	122,285
257,005	3,272	239,841	122,077
258,020	3,175	239,553	121,842
259,034	3,196	239,507	121,824
260,049	3,291	239,490	121,880
261,063	3,141	239,094	121,549
262,078	3,067	239,147	121,506
263,093	3,460	238,887	121,675
264,107	3,542	238,704	121,636
265,122	3,284	238,510	121,322
266,136	3,515	238,411	121,444
267,151	3,459	238,402	121,384
268,166	3,284	238,081	121,071
269,180	2,891	237,960	120,688
270,195	3,776	237,835	121,313
271,209	4,083	237,740	121,496
272,224	3,452	237,546	120,889
273,239	3,161	237,286	120,516
274,253	3,216	237,083	120,446
275,268	3,266	237,008	120,436
276,282	3,403	236,860	120,458
277,297	3,123	236,818	120,206
278,312	3,334	236,598	120,249
279,326	3,503	236,381	120,260
280,341	3,546	236,275	120,229
281,355	3,396	236,189	120,058
282,370	3,382	236,114	119,998
283,384	3,437	236,006	119,975
284,399	3,300	235,542	119,622
285,414	2,896	235,533	119,291
286,428	3,078	235,477	119,394
287,443	3,216	235,272	119,387
288,457	3,451	235,069	119,457
289,472	3,505	234,875	119,389
290,487	3,203	234,921	119,167
291,501	3,332	234,566	119,077
292,516	3,084	234,369	118,773
293,530	3,071	234,347	118,742
294,545	3,327	234,211	118,861
295,560	3,502	233,909	118,832
296,574	2,940	233,725	118,293
297,589	3,260	233,637	118,486
298,603	3,494	233,695	118,686
299,618	3,471	233,546	118,582
300,633	3,545	233,384	118,546
301,647	3,385	233,349	118,394
302,662	3,927	233,286	118,770
303,676	3,896	232,959	118,569
304,691	3,631	232,797	118,272
305,706	3,510	232,701	118,119
306,720	3,627	232,545	118,120
307,735	3,710	232,378	118,089
308,749	3,296	232,310	117,725
309,764	3,159	232,024	117,464
310,779	3,101	231,917	117,355
311,793	3,176	231,554	117,218
312,808	2,961	231,429	116,980
313,822	3,090	231,274	116,990
314,837	3,141	231,093	116,926
315,852	3,108	231,029	116,859
316,866	3,199	230,932	116,869
317,881	3,670	230,896	117,200
318,895	3,613	230,720	117,057
319,910	3,654	230,626	117,030
320,925	3,645	230,323	116,858
321,939	3,312	230,149	116,506
322,954	3,401	230,243	116,612
323,968	3,316	229,830	116,327
324,983	3,165	229,553	116,062
325,997	3,248	229,567	116,121
327,012	3,413	229,461	116,183
328,027	3,261	229,435	116,044
329,041	3,668	229,315	116,282
330,056	4,119	229,195	116,551
331,070	4,029	228,957	116,352
332,085	3,473	228,724	115,803
333,100	3,651	228,598	115,864
334,114	3,585	228,507	115,757
335,129	3,763	228,391	115,823
336,143	3,575	228,350	115,650
337,158	3,622	228,189	115,594
338,173	3,766	228,071	115,632
339,187	3,421	227,931	115,291
340,202	3,682	227,665	115,342
341,216	3,521	227,552	115,154
342,231	3,696	227,388	115,192
343,246	3,554	227,232	114,996
344,260	3,528	227,236	114,968
345,275	3,843	226,994	115,071
346,289	3,903	226,884	115,050
347,304	3,806	226,710	114,879
348,319	3,731	226,640	114,777
349,333	3,649	226,277	114,523
350,348	3,533	226,267	114,421
351,362	3,889	226,001	114,541
352,377	3,335	225,905	114,070
353,392	3,331	225,751	113,979
354,406	3,359	225,631	113,929
355,421	193,742	1323,610	1395,290
356,435	155,204	1457,388	1395,294
