DTS Sentinel unit serial number:	SN410029Multiplexer serial number:	ORYXHardware model number:	OX2-SRSoftware version number:	ORYX F/W v4,00 Oryx Data Collector v3.7.2.0data status	okinstallation	B5 Nyhavnadifferential loss correction	single-endedforward channel	channel 2reverse channel	N/Adate	2023/12/11time	16:52:13forward acquisition time	300,00reverse acquisition time	0,00gamma	499,1914k internal	0,3165k external	0,3165temperature offset calibration	1,0000default loss term (dB/km)	0,3820temperature slope calibration	1,0000multiplexer offset coefficient	1,0000multiplexer slope coefficient	1,0000fibre end	0,00T internal ref (°C)	14,31T ext. ref 1 (°C)	-0,72T ext. ref 2 (°C)	-0,84length (m)	temperature (°C)	Stokes	anti-Stokes-744,400	128,325	0,055	-0,052
-743,385	-82,682	-0,333	0,079
-742,371	151,792	0,118	-0,118
-741,356	-66,979	-0,327	0,094
-740,342	-128,057	0,180	-0,019
-739,327	94,420	-0,203	-0,169
-738,312	178,381	0,179	0,193
-737,298	-116,793	-0,329	0,044
-736,283	-191,756	0,146	-0,001
-735,269	-137,070	-0,239	-0,020
-734,254	-200,000	0,020	0,084
-733,239	-14,099	-0,552	-0,261
-732,225	-110,213	0,134	0,020
-731,210	36,771	0,019	0,012
-730,196	-94,480	-0,040	-0,008
-729,181	-200,000	-0,020	-0,129
-728,167	-200,000	-0,014	-0,100
-727,152	-68,341	0,057	-0,016
-726,137	11,185	-0,245	-0,137
-725,123	-200,000	-0,004	-0,085
-724,108	800,000	-0,042	-0,105
-723,094	-200,000	0,009	-0,100
-722,079	800,000	-0,044	-0,101
-721,064	-200,000	-0,005	-0,016
-720,050	-158,673	-0,022	-0,001
-719,035	90,209	-0,049	0,040
-718,021	-29,962	-0,145	0,060
-717,006	80,021	-0,135	-0,107
-715,991	152,958	-0,068	-0,068
-714,977	66,394	-0,054	-0,041
-713,962	800,000	0,031	-0,076
-712,948	-42,130	-0,044	0,017
-711,933	13,863	-0,036	0,020
-710,918	-120,312	-0,147	0,018
-709,904	270,946	0,097	-0,125
-708,889	-83,616	0,046	0,011
-707,875	338,002	-0,057	-0,082
-706,860	800,000	-0,036	-0,076
-705,845	-200,000	0,009	0,077
-704,831	-101,684	-0,089	0,016
-703,816	-200,000	-0,004	0,025
-702,802	-91,412	-0,163	0,034
-701,787	-71,540	0,030	0,008
-700,772	141,444	-0,109	0,106
-699,758	184,096	0,036	-0,039
-698,743	-112,660	0,029	-0,004
-697,729	-83,895	0,049	0,011
-696,714	-175,749	0,058	-0,001
-695,699	-99,869	-0,223	0,041
-694,685	-200,000	-0,010	-0,063
-693,670	136,364	-0,035	-0,033
-692,656	-21,442	0,159	0,071
-691,641	526,116	0,033	-0,058
-690,627	800,000	0,026	0,077
-689,612	-200,000	0,000	-0,006
-688,597	180,280	-0,074	-0,079
-687,583	-200,000	-0,035	-0,116
-686,568	128,184	0,018	0,017
-685,554	184,369	0,127	-0,138
-684,539	159,724	-0,040	0,041
-683,524	51,879	0,082	0,057
-682,510	800,000	0,007	0,020
-681,495	448,369	-0,065	-0,106
-680,481	316,594	0,032	0,044
-679,466	7,322	-0,099	-0,054
-678,451	800,000	0,051	-0,108
-677,437	-181,679	-0,066	-0,001
-676,422	48,848	0,066	-0,046
-675,408	-25,184	0,131	0,057
-674,393	-200,000	0,017	0,118
-673,378	-200,000	0,002	-0,020
-672,364	227,485	0,036	-0,043
-671,349	0,350	0,201	0,105
-670,335	800,000	0,046	0,098
-669,320	70,665	-0,036	0,027
-668,305	126,476	-0,084	0,078
-667,291	127,645	-0,039	0,036
-666,276	-200,000	-0,015	-0,113
-665,262	182,320	-0,116	-0,126
-664,247	16,283	-0,074	0,043
-663,232	423,419	0,025	0,040
-662,218	467,694	0,055	0,091
-661,203	-99,674	-0,093	0,017
-660,189	-200,000	0,003	-0,059
-659,174	122,625	-0,072	-0,066
-658,159	-66,307	0,089	0,026
-657,145	-5,026	0,091	0,046
-656,130	-37,948	-0,068	0,026
-655,116	270,543	-0,021	-0,027
-654,101	662,609	-0,025	0,048
-653,086	-96,946	-0,069	-0,013
-652,072	-81,812	-0,078	-0,019
-651,057	587,329	-0,061	-0,110
-650,043	-200,000	0,002	-0,073
-649,028	-200,000	0,020	-0,072
-648,014	136,388	-0,053	0,051
-646,999	191,409	0,028	0,031
-645,984	-200,000	-0,017	-0,059
-644,970	444,219	-0,081	0,130
-643,955	-200,000	-0,011	0,049
-642,941	509,104	-0,081	-0,138
-641,926	-149,199	0,021	-0,001
-640,911	89,291	0,078	-0,063
-639,897	800,000	-0,039	0,091
-638,882	72,950	-0,020	0,015
-637,868	692,602	-0,053	-0,103
-636,853	171,764	-0,039	-0,042
-635,838	81,582	-0,014	0,011
-634,824	-200,000	0,011	-0,093
-633,809	800,000	0,026	0,072
-632,795	646,467	0,032	-0,059
-631,780	-200,000	0,012	0,068
-630,765	-200,000	0,018	0,245
-629,751	-29,794	0,131	-0,055
-628,736	114,771	-0,042	-0,037
-627,722	77,627	0,051	0,040
-626,707	-108,220	-0,018	-0,003
-625,692	205,929	0,107	0,122
-624,678	-200,000	-0,002	-0,086
-623,663	-168,275	-0,022	0,001
-622,649	-200,000	0,010	-0,137
-621,634	7,999	-0,022	0,012
-620,619	-89,832	-0,062	-0,013
-619,605	250,878	0,109	-0,136
-618,590	-73,319	0,044	0,012
-617,576	-200,000	-0,010	0,041
-616,561	76,581	-0,041	0,032
-615,546	-200,000	-0,025	-0,127
-614,532	595,447	0,047	-0,085
-613,517	-5,822	0,107	-0,053
-612,503	265,126	0,041	-0,053
-611,488	63,738	0,035	-0,026
-610,474	-113,587	0,071	0,010
-609,459	-200,000	0,018	-0,062
-608,444	112,633	-0,036	-0,031
-607,430	56,577	-0,095	-0,067
-606,415	-200,000	-0,009	-0,041
-605,401	357,673	0,042	-0,061
-604,386	735,969	-0,020	0,040
-603,371	-96,398	0,111	-0,021
-602,357	-200,000	0,017	0,150
-601,342	317,683	-0,083	0,115
-600,328	181,499	-0,058	0,062
-599,313	-200,000	0,017	0,060
-598,298	729,368	0,051	-0,099
-597,284	-75,558	-0,071	0,018
-596,269	-200,000	-0,015	0,053
-595,255	-24,060	0,075	-0,033
-594,240	-49,483	-0,153	0,053
-593,225	800,000	-0,060	-0,130
-592,211	-23,281	-0,103	-0,045
-591,196	800,000	-0,048	0,098
-590,182	800,000	0,038	-0,103
-589,167	-74,036	0,181	0,048
-588,152	637,215	-0,037	0,070
-587,138	-200,000	-0,030	0,113
-586,123	203,290	0,014	0,016
-585,109	72,211	0,123	0,093
-584,094	-136,638	-0,146	-0,012
-583,079	66,303	0,053	-0,039
-582,065	-38,955	0,087	-0,033
-581,050	-25,594	0,138	-0,059
-580,036	19,876	0,040	-0,024
-579,021	-119,593	-0,075	-0,009
-578,006	-166,228	0,059	0,002
-576,992	321,816	-0,018	0,026
-575,977	800,000	-0,036	0,087
-574,963	800,000	0,027	0,070
-573,948	118,938	0,062	-0,056
-572,934	625,225	0,081	0,150
-571,919	800,000	0,005	0,014
-570,904	-200,000	0,010	-0,076
-569,890	299,632	0,033	0,044
-568,875	-200,000	0,011	0,094
-567,861	35,633	0,064	0,041
-566,846	180,534	-0,036	0,039
-565,831	-200,000	0,042	0,209
-564,817	-136,981	-0,137	0,011
-563,802	90,130	-0,044	0,036
-562,788	70,491	-0,040	-0,030
-561,773	-106,516	0,020	-0,003
-560,758	-200,000	-0,023	0,109
-559,744	-26,006	-0,078	0,033
-558,729	73,228	0,069	0,053
-557,715	-146,115	-0,078	0,005
-556,700	77,567	-0,032	-0,025
-555,685	-200,000	-0,001	-0,069
-554,671	-151,262	-0,127	-0,007
-553,656	23,721	0,125	0,075
-552,642	-13,599	0,124	0,058
-551,627	-61,194	-0,062	-0,019
-550,612	-138,999	-0,079	-0,006
-549,598	-200,000	-0,034	0,229
-548,583	-200,000	-0,010	0,144
-547,569	-200,000	-0,007	0,082
-546,554	-5,621	-0,071	-0,035
-545,539	800,000	0,033	-0,081
-544,525	800,000	-0,068	0,154
-543,510	800,000	-0,015	-0,035
-542,496	177,534	0,046	-0,049
-541,481	-200,000	0,013	-0,171
-540,466	-200,000	0,003	0,077
-539,452	88,778	-0,047	0,038
-538,437	-62,485	-0,027	-0,008
-537,423	-200,000	-0,006	0,119
-536,408	800,000	-0,076	-0,200
-535,393	47,564	0,070	-0,047
-534,379	788,592	-0,024	-0,048
-533,364	102,011	0,052	-0,044
-532,350	102,226	-0,079	-0,068
-531,335	-114,073	0,173	-0,024
-530,321	800,000	0,025	-0,054
-529,306	-200,000	-0,015	0,188
-528,291	-200,000	-0,001	0,026
-527,277	146,251	0,055	-0,054
-526,262	255,817	-0,107	-0,134
-525,248	192,404	0,080	-0,088
-524,233	-200,000	-0,007	-0,053
-523,218	-200,000	0,004	-0,039
-522,204	-141,526	-0,073	-0,005
-521,189	800,000	-0,048	-0,154
-520,175	-200,000	0,026	0,091
-519,160	14,649	-0,123	0,070
-518,145	-200,000	-0,011	0,067
-517,131	164,191	-0,006	0,006
-516,116	800,000	-0,027	-0,076
-515,102	-200,000	-0,002	0,080
-514,087	-69,065	-0,066	-0,018
-513,072	-200,000	-0,003	-0,102
-512,058	-185,447	-0,087	0,001
-511,043	97,108	-0,040	0,034
-510,029	800,000	-0,045	-0,102
-509,014	-200,000	0,024	0,108
-507,999	10,327	0,067	-0,037
-506,985	192,717	-0,078	0,086
-505,970	800,000	0,032	-0,078
-504,956	201,250	0,147	-0,165
-503,941	295,570	0,074	0,099
-502,926	-200,000	-0,007	-0,034
-501,912	74,873	0,055	-0,042
-500,897	-36,416	0,044	0,017
-499,883	800,000	0,021	-0,045
-498,868	-2,119	0,049	0,025
-497,853	77,201	-0,163	0,127
-496,839	-200,000	0,041	0,169
-495,824	800,000	-0,029	0,073
-494,810	-200,000	0,023	0,089
-493,795	-200,000	0,039	0,134
-492,781	198,064	-0,009	0,010
-491,766	228,735	-0,094	-0,112
-490,751	-21,695	-0,070	-0,031
-489,737	-200,000	0,007	0,026
-488,722	800,000	0,039	-0,086
-487,708	-200,000	0,023	-0,131
-486,693	567,127	-0,035	-0,062
-485,678	87,443	0,077	-0,062
-484,664	-137,969	0,036	-0,003
-483,649	-200,000	-0,003	0,056
-482,635	120,102	-0,030	-0,027
-481,620	-10,650	0,068	-0,033
-480,605	-200,000	0,047	-0,160
-479,591	800,000	-0,045	0,103
-478,576	187,444	-0,035	0,038
-477,562	-200,000	-0,018	-0,070
-476,547	800,000	0,060	-0,132
-475,532	138,495	-0,068	-0,065
-474,518	81,656	0,101	-0,079
-473,503	-40,092	0,106	-0,040
-472,489	272,078	-0,020	-0,025
-471,474	27,344	-0,042	-0,026
-470,459	-5,751	0,101	0,050
-469,445	311,716	0,043	-0,060
-468,430	-66,093	-0,032	0,009
-467,416	-42,957	-0,087	0,032
-466,401	67,303	0,098	-0,073
-465,386	105,959	0,079	0,068
-464,372	-200,000	-0,018	-0,098
-463,357	101,182	0,126	0,107
-462,343	-82,287	0,095	-0,022
-461,328	800,000	0,005	0,014
-460,313	-200,000	0,007	0,057
-459,299	800,000	-0,055	0,168
-458,284	79,642	-0,120	-0,094
-457,270	378,368	-0,082	-0,122
-456,255	-142,296	-0,025	-0,002
-455,241	800,000	0,024	-0,060
-454,226	800,000	-0,042	-0,125
-453,211	-20,724	0,158	0,070
-452,197	41,956	0,082	0,054
-451,182	325,309	0,101	0,140
-450,168	-200,000	0,016	0,180
-449,153	197,668	-0,119	-0,132
-448,138	133,365	0,050	-0,047
-447,124	-107,767	-0,089	0,014
-446,109	800,000	-0,025	-0,065
-445,095	54,716	0,013	0,009
-444,080	800,000	-0,018	-0,047
-443,065	-88,322	0,119	0,026
-442,051	800,000	0,037	0,082
-441,036	-22,932	-0,155	-0,068
-440,022	-77,413	0,105	0,026
-439,007	661,407	0,073	-0,137
-437,992	-58,944	0,103	-0,032
-436,978	-200,000	-0,018	0,118
-435,963	-68,719	0,155	0,043
-434,949	57,987	-0,081	-0,057
-433,934	91,458	-0,043	-0,035
-432,919	-200,000	-0,017	-0,092
-431,905	-170,889	0,069	0,002
-430,890	469,453	0,072	0,118
-429,876	-200,000	-0,024	0,158
-428,861	-165,044	-0,032	-0,001
-427,846	189,371	-0,033	0,036
-426,832	39,950	-0,031	0,020
-425,817	737,930	-0,053	0,104
-424,803	-62,174	-0,153	0,046
-423,788	-200,000	0,006	0,039
-422,773	-25,376	-0,011	0,005
-421,759	-37,052	-0,040	0,015
-420,744	-200,000	-0,009	-0,049
-419,730	800,000	0,035	-0,108
-418,715	276,421	-0,007	-0,009
-417,701	-167,014	-0,206	-0,006
-416,686	-42,482	0,098	0,036
-415,671	31,796	0,117	0,073
-414,657	216,261	-0,102	0,118
-413,642	19,612	-0,131	0,076
-412,628	800,000	-0,032	-0,087
-411,613	214,767	-0,090	-0,103
-410,598	-101,359	-0,172	0,030
-409,584	-3,563	0,085	-0,043
-408,569	659,182	-0,031	0,059
-407,555	-110,276	0,222	0,033
-406,540	74,508	-0,053	-0,040
-405,525	-200,000	0,010	-0,139
-404,511	800,000	0,027	-0,066
-403,496	800,000	0,050	0,118
-402,482	-149,834	0,061	0,003
-401,467	-191,451	0,174	-0,001
-400,452	-14,436	-0,123	-0,057
-399,438	593,237	-0,038	0,069
-398,423	27,133	-0,130	0,079
-397,409	84,217	0,074	-0,059
-396,394	-200,000	-0,008	0,112
-395,379	800,000	0,037	0,116
-394,365	632,490	-0,056	0,103
-393,350	163,438	0,079	0,081
-392,336	-200,000	0,007	0,035
-391,321	670,938	-0,072	-0,136
-390,306	800,000	0,030	-0,063
-389,292	-191,983	0,119	0,001
-388,277	-108,531	0,117	0,018
-387,263	-135,371	0,190	0,016
-386,248	154,265	-0,013	0,013
-385,233	49,051	-0,078	-0,053
-384,219	169,179	0,052	-0,054
-383,204	12,168	-0,093	-0,052
-382,190	-200,000	0,015	-0,063
-381,175	800,000	-0,029	0,086
-380,160	61,335	0,049	0,035
-379,146	-200,000	-0,011	0,129
-378,131	-200,000	-0,001	-0,034
-377,117	45,933	-0,119	0,080
-376,102	-95,192	0,049	-0,010
-375,088	-200,000	-0,024	-0,161
-374,073	-25,022	-0,132	-0,057
-373,058	-53,234	0,076	-0,025
-372,044	-138,997	-0,073	0,006
-371,029	282,308	-0,115	-0,150
-370,015	-200,000	-0,012	-0,064
-369,000	321,570	-0,032	0,045
-367,985	46,129	-0,048	0,032
-366,971	489,323	-0,027	-0,046
-365,956	0,696	0,088	-0,045
-364,942	33,027	0,164	0,103
-363,927	-116,793	0,067	0,009
-362,912	-18,599	0,076	0,034
-361,898	197,905	0,046	-0,051
-360,883	218,563	0,063	-0,073
-359,869	155,287	-0,096	-0,096
-358,854	800,000	-0,041	-0,107
-357,839	640,411	0,054	-0,101
-356,825	800,000	0,069	0,141
-355,810	168,991	-0,049	0,050
-354,796	-116,802	0,077	0,010
-353,781	-47,344	0,094	0,033
-352,766	-200,000	-0,011	-0,108
-351,752	800,000	-0,042	-0,127
-350,737	-151,488	-0,040	0,002
-349,723	-200,000	0,030	0,120
-348,708	-36,291	-0,076	-0,029
-347,693	-200,000	0,031	-0,098
-346,679	-42,599	-0,070	-0,026
-345,664	800,000	-0,049	-0,116
-344,650	91,650	-0,091	0,074
-343,635	264,785	0,160	0,202
-342,620	6,802	0,071	0,038
-341,606	-200,000	0,035	0,123
-340,591	-48,662	-0,035	-0,012
-339,577	377,937	-0,036	-0,054
-338,562	528,237	-0,056	-0,095
-337,548	-14,384	-0,044	0,020
-336,533	44,504	-0,078	-0,052
-335,518	-26,701	0,080	0,034
-334,504	800,000	0,025	0,071
-333,489	-200,000	0,039	0,139
-332,475	-112,031	-0,185	0,027
-331,460	800,000	0,009	-0,024
-330,445	-54,102	-0,128	-0,042
-329,431	-200,000	0,001	-0,030
-328,416	5,990	0,136	-0,073
-327,402	-38,924	0,053	-0,020
-326,387	41,939	-0,110	0,072
-325,372	-109,059	0,096	0,015
-324,358	-150,624	0,059	0,003
-323,343	698,234	0,038	0,072
-322,329	145,976	-0,017	0,016
-321,314	386,370	0,126	0,189
-320,299	-200,000	-0,013	0,184
-319,285	486,531	0,024	-0,040
-318,270	-13,009	-0,097	-0,046
-317,256	8,718	-0,194	-0,105
-316,241	800,000	0,042	-0,130
-315,226	172,761	0,093	0,097
-314,212	-74,215	0,100	-0,026
-313,197	34,628	-0,066	-0,041
-312,183	675,475	-0,045	-0,086
-311,168	-136,491	-0,138	0,011
-310,153	93,063	0,060	-0,049
-309,139	-165,686	-0,047	-0,001
-308,124	800,000	-0,026	-0,079
-307,110	-200,000	0,002	-0,042
-306,095	88,210	-0,054	0,043
-305,080	165,434	-0,101	0,104
-304,066	114,740	0,057	0,050
-303,051	-200,000	-0,003	-0,096
-302,037	228,333	-0,074	0,087
-301,022	-88,044	0,120	-0,026
-300,008	128,721	0,085	0,078
-298,993	-154,688	-0,088	-0,004
-297,978	236,106	-0,063	0,076
-296,964	9,494	-0,069	-0,038
-295,949	800,000	0,051	-0,150
-294,935	-103,702	-0,044	-0,007
-293,920	187,456	0,050	0,054
-292,905	-117,915	0,079	0,010
-291,891	-200,000	-0,006	0,062
-290,876	78,258	0,061	0,047
-289,862	-145,702	0,060	-0,004
-288,847	81,821	0,096	-0,075
-287,832	-200,000	0,000	0,023
-286,818	800,000	0,016	-0,041
-285,803	-182,782	0,072	0,001
-284,789	800,000	0,045	0,108
-283,774	-1,357	-0,045	-0,023
-282,759	-200,000	-0,003	-0,182
-281,745	273,770	0,061	0,079
-280,730	800,000	0,015	0,033
-279,716	800,000	-0,032	-0,069
-278,701	417,812	0,013	-0,021
-277,686	427,221	-0,110	-0,172
-276,672	-200,000	-0,014	-0,077
-275,657	35,127	-0,063	-0,040
-274,643	138,701	0,060	-0,057
-273,628	800,000	-0,071	-0,196
-272,613	-86,332	-0,115	-0,025
-271,599	339,133	-0,016	0,022
-270,584	-101,133	0,052	0,009
-269,570	323,262	0,060	0,083
-268,555	-200,000	0,005	0,164
-267,540	-151,170	-0,088	-0,005
-266,526	800,000	-0,054	-0,137
-265,511	-112,830	-0,224	0,032
-264,497	-200,000	0,008	0,078
-263,482	103,033	0,081	0,069
-262,467	-200,000	-0,005	-0,055
-261,453	475,563	0,045	-0,074
-260,438	128,626	0,060	-0,055
-259,424	99,412	-0,038	0,032
-258,409	146,020	0,076	0,074
-257,395	-200,000	-0,005	0,060
-256,380	-80,601	-0,117	-0,028
-255,365	-161,132	0,101	-0,004
-254,351	96,677	-0,070	0,058
-253,336	479,955	-0,048	0,079
-252,322	-200,000	-0,027	-0,125
-251,307	-200,000	0,004	-0,017
-250,292	8,038	0,078	0,042
-249,278	241,134	-0,123	0,148
-248,263	-2,946	-0,080	0,040
-247,249	6,127	0,057	0,030
-246,234	-1,119	0,127	-0,065
-245,219	-200,000	-0,009	0,055
-244,205	93,796	0,024	0,020
-243,190	143,124	-0,056	0,053
-242,176	-60,310	0,112	-0,034
-241,161	-200,000	-0,001	0,061
-240,146	-200,000	-0,008	0,149
-239,132	-112,949	-0,133	0,019
-238,117	167,808	0,030	-0,031
-237,103	-92,745	-0,081	0,016
-236,088	36,559	0,117	-0,074
-235,073	-142,971	-0,129	-0,009
-234,059	-200,000	0,060	0,251
-233,044	266,390	0,052	-0,065
-232,030	800,000	-0,041	0,121
-231,015	-200,000	-0,006	-0,107
-230,000	-200,000	0,017	-0,067
-228,986	530,485	-0,029	-0,050
-227,971	-99,220	0,108	0,019
-226,957	800,000	-0,065	-0,179
-225,942	720,888	0,030	-0,057
-224,927	-161,917	-0,101	0,004
-223,913	800,000	0,017	-0,045
-222,898	-200,000	-0,012	-0,098
-221,884	62,354	0,069	-0,050
-220,869	574,288	0,023	-0,041
-219,855	83,734	-0,023	0,018
-218,840	-200,000	0,026	0,139
-217,825	120,975	-0,086	-0,077
-216,811	-64,992	-0,055	-0,016
-215,796	-55,361	0,082	-0,026
-214,782	-169,787	0,019	-0,000
-213,767	-39,412	0,072	-0,027
-212,752	-105,046	0,138	-0,023
-211,738	290,689	0,121	-0,159
-210,723	292,481	0,023	-0,031
-209,709	-9,928	-0,050	0,024
-208,694	186,314	-0,092	-0,099
-207,679	-200,000	0,002	-0,183
-206,665	-96,651	-0,143	-0,027
-205,650	-200,000	0,035	0,174
-204,636	185,210	0,032	0,034
-203,621	800,000	-0,040	-0,102
-202,606	-182,839	-0,038	0,000
-201,592	-85,020	-0,187	0,042
-200,577	179,522	-0,030	-0,032
-199,563	112,608	0,110	0,096
-198,548	204,315	0,045	0,050
-197,533	-167,831	0,224	0,006
-196,519	-200,000	0,005	0,125
-195,504	-56,053	-0,093	-0,030
-194,490	613,480	-0,075	0,136
-193,475	-200,000	-0,016	0,128
-192,460	-74,175	0,147	-0,038
-191,446	-119,139	-0,078	-0,010
-190,431	800,000	-0,027	-0,082
-189,417	91,234	0,069	0,055
-188,402	-15,263	0,111	-0,051
-187,387	-41,468	-0,018	0,007
-186,373	-200,000	0,037	0,154
-185,358	-200,000	-0,003	0,014
-184,344	633,532	-0,047	0,087
-183,329	-17,250	-0,134	0,061
-182,315	425,083	0,083	-0,130
-181,300	-116,335	0,074	0,010
-180,285	800,000	0,010	0,027
-179,271	-200,000	-0,024	-0,159
-178,256	-200,000	0,004	-0,078
-177,242	-88,064	0,065	-0,014
-176,227	-90,480	0,106	-0,022
-175,212	-31,523	-0,169	0,068
-174,198	132,007	-0,070	0,065
-173,183	-200,000	-0,016	0,051
-172,169	278,986	-0,095	0,122
-171,154	800,000	-0,021	-0,060
-170,139	8,663	0,056	0,031
-169,125	-50,734	0,012	-0,004
-168,110	-142,115	0,108	-0,008
-167,096	82,122	-0,028	0,022
-166,081	117,676	-0,047	0,041
-165,066	21,447	-0,117	0,069
-164,052	17,414	-0,033	0,019
-163,037	346,904	-0,057	-0,081
-162,023	800,000	0,026	-0,056
-161,008	-60,779	0,036	0,011
-159,993	800,000	-0,029	0,088
-158,979	-35,909	-0,085	-0,033
-157,964	-47,202	-0,175	-0,061
-156,950	226,244	-0,063	-0,074
-155,935	60,246	0,049	-0,035
-154,920	117,794	0,079	-0,070
-153,906	800,000	0,020	0,063
-152,891	-200,000	-0,012	-0,091
-151,877	-164,400	-0,049	-0,002
-150,862	-200,000	0,016	-0,074
-149,847	508,313	0,062	-0,103
-148,833	215,367	0,076	0,087
-147,818	461,493	0,111	0,179
-146,804	800,000	0,020	-0,041
-145,789	26,719	0,033	0,020
-144,775	-127,568	-0,097	-0,010
-143,760	800,000	-0,039	-0,083
-142,745	359,370	0,014	-0,020
-141,731	-144,306	-0,070	-0,005
-140,716	-78,429	-0,026	0,006
-139,702	-200,000	0,044	0,152
-138,687	-11,827	-0,042	-0,020
-137,672	-200,000	0,026	-0,096
-136,658	-46,325	-0,097	0,034
-135,643	131,010	0,040	-0,036
-134,629	-200,000	-0,002	0,033
-133,614	-137,283	-0,079	0,006
-132,599	-91,427	0,133	-0,027
-131,585	-55,417	0,098	0,031
-130,570	-200,000	0,011	0,076
-129,556	42,173	0,019	0,013
-128,541	-200,000	-0,030	-0,102
-127,526	800,000	0,061	-0,135
-126,512	-200,000	-0,003	0,036
-125,497	800,000	0,020	-0,052
-124,483	-200,000	0,006	0,073
-123,468	198,084	-0,042	-0,046
-122,453	-56,173	0,018	0,006
-121,439	-120,065	-0,083	0,010
-120,424	800,000	0,013	-0,027
-119,410	339,992	0,088	0,123
-118,395	33,798	-0,044	-0,028
-117,380	800,000	-0,053	-0,117
-116,366	-200,000	-0,047	0,000
-115,351	-200,000	-0,019	-0,117
-114,337	-121,817	-0,120	-0,014
-113,322	-120,140	-0,126	-0,015
-112,307	-75,078	0,050	0,013
-111,293	18,128	0,067	0,038
-110,278	518,262	0,055	0,093
-109,264	83,662	-0,039	0,031
-108,249	-200,000	-0,000	0,020
-107,234	-67,878	-0,094	-0,026
-106,220	132,626	0,065	-0,060
-105,205	-12,793	0,108	-0,050
-104,191	-8,655	-0,101	-0,048
-103,176	-117,732	0,094	0,012
-102,162	800,000	-0,007	0,020
-101,147	-188,302	-0,116	0,001
-100,132	-71,047	-0,102	-0,027
-99,118	387,441	0,047	0,070
-98,103	184,555	0,007	0,007
-97,089	246,411	-0,069	-0,084
-96,074	-80,727	0,094	-0,022
-95,059	89,661	0,059	0,047
-94,045	237,748	-0,097	-0,116
-93,030	800,000	-0,017	-0,038
-92,016	10,698	-0,144	-0,079
-91,001	800,000	-0,029	-0,088
-89,986	-127,889	-0,073	-0,007
-88,972	-81,477	0,119	0,028
-87,957	20,971	-0,055	0,032
-86,943	82,490	-0,069	-0,054
-85,928	599,991	0,062	-0,110
-84,913	-200,000	-0,033	-0,153
-83,899	10,897	0,018	0,010
-82,884	131,766	0,040	0,037
-81,870	-200,000	0,018	0,159
-80,855	18,471	0,093	-0,053
-79,840	76,516	-0,039	0,030
-78,826	-118,405	-0,115	-0,014
-77,811	800,000	-0,061	-0,132
-76,797	-200,000	0,004	0,019
-75,782	-200,000	0,007	-0,072
-74,767	-79,338	0,102	0,025
-73,753	-200,000	0,001	-0,058
-72,738	800,000	-0,040	-0,113
-71,724	-200,000	-0,015	0,091
-70,709	104,126	0,042	-0,035
-69,694	-45,779	-0,160	-0,057
-68,680	-160,735	0,071	-0,003
-67,665	7,798	0,089	0,047
-66,651	-200,000	-0,026	0,147
-65,636	-131,794	-0,135	0,012
-64,622	-81,689	0,047	-0,011
-63,607	800,000	0,039	-0,095
-62,592	-113,397	-0,050	-0,007
-61,578	73,329	-0,029	-0,022
-60,563	76,060	-0,056	-0,042
-59,549	-78,650	-0,091	-0,022
-58,534	24,735	-1,946	-1,151
-57,519	-200,000	-0,238	-0,827
-56,505	-200,000	-1,385	-5,065
-55,490	94,898	0,857	0,698
-54,476	800,000	5,400	12,245
-53,461	-200,000	18,157	300,830
-52,446	800,000	735,535	2273,261
-51,432	544,357	1651,337	2834,600
-50,417	109,674	1638,350	1405,822
-49,403	73,678	1288,634	965,743
-48,388	30,716	1028,883	629,073
-47,373	19,959	991,010	570,445
-46,359	17,821	978,694	556,328
-45,344	14,635	974,717	543,620
-44,330	14,936	973,227	543,751
-43,315	14,409	971,183	540,868
-42,300	14,324	970,226	540,036
-41,286	14,405	969,262	539,742
-40,271	14,298	968,314	538,845
-39,257	14,294	967,402	538,303
-38,242	14,314	966,511	537,853
-37,227	14,397	965,649	537,619
-36,213	14,308	964,825	536,850
-35,198	14,321	963,853	536,331
-34,184	14,308	963,399	536,015
-33,169	14,338	962,176	535,410
-32,154	14,320	961,349	534,870
-31,140	14,331	960,482	534,403
-30,125	14,348	959,771	534,042
-29,111	14,321	958,987	533,497
-28,096	14,353	958,177	533,127
-27,082	14,353	957,391	532,671
-26,067	14,365	956,737	532,322
-25,052	14,360	955,955	531,850
-24,038	14,339	955,369	531,437
-23,023	14,349	954,805	531,133
-22,009	14,373	954,198	530,851
-20,994	14,336	953,346	530,237
-19,979	14,343	952,918	530,000
-18,965	14,381	952,218	529,714
-17,950	14,342	951,763	529,315
-16,936	14,304	950,888	528,685
-15,921	14,318	950,395	528,434
-14,906	14,194	949,561	527,553
-13,892	14,273	948,849	527,389
-12,877	14,225	948,294	526,907
-11,863	14,129	947,626	526,208
-10,848	14,225	947,058	526,178
-9,833	14,374	946,520	526,332
-8,819	14,302	945,997	525,791
-7,804	14,285	945,330	525,347
-6,790	14,275	944,817	525,009
-5,775	14,270	944,239	524,652
-4,760	14,232	943,734	524,230
-3,746	14,258	943,002	523,885
-2,731	14,125	942,256	523,027
-1,717	14,051	941,741	522,487
-0,702	14,120	940,991	522,268
0,313	13,893	940,324	521,970
1,327	17,089	937,914	530,649
2,342	26,077	793,775	472,868
3,356	22,718	459,169	268,381
4,371	-3,739	315,917	156,443
5,386	-7,509	297,862	143,661
6,400	-9,545	291,864	138,727
7,415	-10,025	289,289	137,017
8,429	-10,444	287,735	135,857
9,444	-10,547	286,809	135,306
10,459	-10,482	286,092	135,020
11,473	-10,631	285,814	134,732
12,488	-10,569	285,105	134,446
13,502	-10,806	284,591	133,960
14,517	-10,806	284,217	133,773
15,531	-10,881	283,660	133,426
16,546	-10,726	283,074	133,288
17,561	-10,671	282,777	133,189
18,575	-10,863	282,486	132,856
19,590	-10,957	282,101	132,572
20,604	-10,884	281,811	132,494
21,619	-11,012	281,382	132,158
22,634	-10,852	281,020	132,130
23,648	-10,848	280,718	131,979
24,663	-10,889	280,563	131,856
25,677	-10,987	280,309	131,631
26,692	-10,936	279,971	131,509
27,707	-11,051	279,757	131,287
28,721	-10,847	279,315	131,262
29,736	-11,073	279,153	130,960
30,750	-10,921	278,861	130,956
31,765	-11,066	278,627	130,696
32,780	-10,957	278,215	130,594
33,794	-11,041	278,168	130,481
34,809	-10,957	277,828	130,389
35,823	-11,004	277,591	130,222
36,838	-11,073	277,203	129,963
37,853	-10,923	277,108	130,049
38,867	-10,911	276,819	129,913
39,882	-10,974	276,497	129,691
40,896	-11,025	276,514	129,639
41,911	-10,888	275,906	129,472
42,926	-11,170	275,878	129,182
43,940	-11,082	275,677	129,159
44,955	-11,144	275,356	128,939
45,969	-11,071	275,091	128,871
46,984	-11,083	275,059	128,833
47,999	-11,326	274,628	128,394
49,013	-11,379	274,471	128,259
50,028	-11,164	274,164	128,304
51,042	-11,384	273,985	128,004
52,057	-11,404	273,570	127,781
53,071	-11,349	273,574	127,823
54,086	-11,185	273,265	127,819
55,101	-11,114	273,259	127,870
56,115	-11,007	272,935	127,807
57,130	-10,870	272,769	127,845
58,144	-10,881	272,629	127,758
59,159	-10,882	272,423	127,649
60,174	-10,797	272,068	127,550
61,188	-10,876	271,861	127,368
62,203	-10,745	271,540	127,327
63,217	-10,990	271,522	127,082
64,232	-10,803	271,160	127,073
65,247	-10,702	271,048	127,102
66,261	-10,782	270,784	126,894
67,276	-11,110	270,521	126,458
68,290	-11,112	270,317	126,349
69,305	-11,027	270,042	126,287
70,320	-10,986	269,834	126,216
71,334	-10,942	269,699	126,183
72,349	-10,867	269,409	126,104
73,363	-10,764	269,236	126,106
74,378	-10,787	269,040	125,982
75,393	-10,680	268,777	125,945
76,407	-10,908	268,567	125,628
77,422	-10,848	268,355	125,572
78,436	-10,905	268,224	125,448
79,451	-10,994	267,996	125,248
80,466	-10,799	267,746	125,298
81,480	-10,969	267,317	124,931
82,495	-10,925	267,092	124,855
83,509	-10,787	266,957	124,906
84,524	-10,963	266,900	124,709
85,539	-10,827	266,443	124,608
86,553	-11,224	266,409	124,222
87,568	-11,003	266,116	124,273
88,582	-10,952	266,052	124,278
89,597	-10,970	265,773	124,121
90,611	-10,755	265,644	124,243
91,626	-10,775	265,429	124,114
92,641	-10,690	265,083	124,017
93,655	-10,746	265,017	123,925
94,670	-10,941	264,882	123,675
95,684	-10,950	264,625	123,536
96,699	-10,815	264,404	123,542
97,714	-10,970	264,174	123,286
98,728	-10,930	263,924	123,194
99,743	-11,012	263,768	123,037
100,757	-11,055	263,459	122,843
101,772	-10,833	263,298	122,955
102,787	-10,817	263,324	122,971
103,801	-10,688	262,960	122,905
104,816	-10,850	262,839	122,693
105,830	-10,749	262,698	122,706
106,845	-10,794	262,515	122,570
107,860	-10,718	262,147	122,454
108,874	-10,807	262,096	122,341
109,889	-10,675	261,843	122,328
110,903	-10,710	261,661	122,202
111,918	-10,822	261,468	122,002
112,933	-10,744	261,337	121,999
113,947	-10,754	261,186	121,908
114,962	-10,669	260,900	121,839
115,976	-10,664	260,630	121,706
116,991	-10,925	260,477	121,394
118,006	-10,796	260,300	121,414
119,020	-10,836	260,253	121,347
120,035	-11,031	260,169	121,124
121,049	-10,827	259,878	121,158
122,064	-10,874	259,635	120,992
123,079	-10,787	259,297	120,901
124,093	-10,902	259,280	120,781
125,108	-10,833	258,888	120,648
126,122	-11,134	258,714	120,292
127,137	-11,114	258,477	120,190
128,151	-10,926	258,461	120,335
129,166	-10,915	258,232	120,228
130,181	-10,837	257,943	120,151
131,195	-11,113	257,779	119,823
132,210	-10,746	257,627	120,062
133,224	-10,817	257,440	119,901
134,239	-10,825	257,345	119,839
135,254	-10,703	257,028	119,787
136,268	-10,711	256,886	119,704
137,283	-10,993	256,707	119,365
138,297	-11,072	256,332	119,112
139,312	-10,962	256,138	119,106
140,327	-10,897	256,134	119,150
141,341	-10,597	255,844	119,263
142,356	-10,634	255,737	119,171
143,370	-10,590	255,567	119,119
144,385	-10,425	255,347	119,148
145,400	-10,553	255,083	118,904
146,414	-10,677	254,978	118,737
147,429	-10,767	254,905	118,616
148,443	-10,823	254,696	118,460
149,458	-10,661	254,366	118,435
150,473	-10,722	254,342	118,361
151,487	-10,738	254,040	118,195
152,502	-10,609	253,827	118,196
153,516	-10,596	253,596	118,089
154,531	-10,451	253,497	118,157
155,546	-10,690	253,377	117,886
156,560	-10,713	253,190	117,769
157,575	-10,682	252,859	117,631
158,589	-10,698	252,876	117,615
159,604	-10,629	252,494	117,485
160,619	-10,509	252,309	117,491
161,633	-10,867	252,408	117,222
162,648	-10,579	252,025	117,278
163,662	-10,683	251,952	117,146
164,677	-10,578	251,776	117,143
165,692	-10,672	251,474	116,911
166,706	-10,825	251,533	116,798
167,721	-10,514	251,188	116,892
168,735	-10,521	251,146	116,855
169,750	-10,640	250,936	116,647
170,764	-10,667	250,921	116,607
171,779	-10,486	250,600	116,600
172,794	-10,453	250,461	116,553
173,808	-10,494	250,247	116,408
174,823	-10,837	249,974	115,982
175,837	-10,999	249,825	115,766
176,852	-10,681	249,776	116,001
177,867	-10,467	249,670	116,121
178,881	-10,403	249,275	115,981
179,896	-10,747	249,261	115,676
180,910	-10,508	249,118	115,799
181,925	-10,444	248,914	115,747
182,940	-10,619	248,767	115,523
183,954	-10,498	248,585	115,528
184,969	-10,436	248,378	115,474
185,983	-10,544	248,201	115,291
186,998	-10,422	247,945	115,264
188,013	-10,400	247,894	115,248
189,027	-10,348	247,709	115,195
190,042	-10,252	247,559	115,194
191,056	-10,367	247,475	115,050
192,071	-10,327	247,192	114,942
193,086	-10,393	247,048	114,809
194,100	-10,534	246,948	114,635
195,115	-10,262	246,608	114,693
196,129	-10,476	246,483	114,447
197,144	-10,326	246,194	114,427
198,159	-10,282	246,044	114,383
199,173	-10,474	245,976	114,183
200,188	-10,363	245,695	114,134
201,202	-10,672	245,591	113,820
202,217	-10,595	245,185	113,686
203,232	-10,814	244,988	113,405
204,246	-10,151	245,068	113,976
205,261	-9,360	245,143	114,652
206,275	-9,751	244,912	114,213
207,290	-8,416	245,541	115,595
208,304	-4,412	246,624	119,403
209,319	-1,598	247,112	121,953
210,334	-1,486	247,263	122,109
211,348	-1,077	247,290	122,449
212,363	-0,555	247,181	122,815
213,377	0,033	247,224	123,311
214,392	0,444	247,072	123,562
215,407	0,253	246,991	123,354
216,421	-0,009	246,918	123,090
217,436	-0,020	246,715	122,969
218,450	0,136	246,540	122,999
219,465	0,135	246,245	122,840
220,480	0,164	246,094	122,778
221,494	0,014	246,038	122,616
222,509	0,118	245,940	122,641
223,523	0,030	245,646	122,412
224,538	0,020	245,451	122,295
225,553	-0,200	245,322	122,041
226,567	0,040	245,244	122,187
227,582	0,023	245,123	122,102
228,596	0,091	245,104	122,137
229,611	0,132	244,704	121,960
230,626	0,059	244,503	121,790
231,640	0,212	244,411	121,858
232,655	0,286	244,188	121,796
233,669	0,213	244,000	121,632
234,684	-0,096	243,718	121,230
235,699	0,389	243,779	121,643
236,713	0,279	243,788	121,547
237,728	-0,242	243,401	120,921
238,742	0,068	243,241	121,082
239,757	0,151	243,064	121,050
240,772	0,224	242,921	121,027
241,786	-0,013	242,792	120,761
242,801	-0,299	242,557	120,402
243,815	-0,190	242,478	120,440
244,830	0,027	242,320	120,526
245,844	0,171	242,186	120,565
246,859	-0,120	242,063	120,258
247,874	-0,064	241,717	120,121
248,888	-0,113	241,682	120,053
249,903	0,093	241,578	120,156
250,917	0,332	241,543	120,320
251,932	0,344	241,281	120,188
252,947	-0,149	240,877	119,581
253,961	-0,199	240,812	119,499
254,976	0,099	240,622	119,632
255,990	-0,061	240,547	119,456
257,005	-0,021	240,228	119,319
258,020	-0,504	240,165	118,892
259,034	-0,129	240,019	119,108
260,049	0,193	239,890	119,290
261,063	-0,158	239,732	118,921
262,078	-0,040	239,528	118,903
263,093	0,282	239,300	119,035
264,107	0,157	239,440	118,995
265,122	0,025	239,156	118,739
266,136	0,273	239,007	118,851
267,151	0,358	238,980	118,894
268,166	-0,058	238,762	118,446
269,180	-0,057	238,492	118,301
270,195	0,266	238,540	118,571
271,209	0,381	238,325	118,544
272,224	0,043	238,168	118,188
273,239	-0,335	237,984	117,788
274,253	-0,006	237,812	117,952
275,268	0,101	237,683	117,962
276,282	0,130	237,458	117,862
277,297	0,192	237,283	117,814
278,312	0,128	237,156	117,690
279,326	0,006	237,064	117,538
280,341	0,013	236,970	117,486
281,355	-0,126	236,705	117,235
282,370	0,151	236,642	117,411
283,384	0,107	236,361	117,227
284,399	0,049	236,241	117,112
285,414	0,086	236,032	117,026
286,428	0,120	235,891	116,972
287,443	0,013	235,873	116,870
288,457	0,291	235,787	117,034
289,472	0,260	235,652	116,931
290,487	0,227	235,510	116,825
291,501	-0,152	235,186	116,359
292,516	-0,401	234,979	116,052
293,530	-0,270	234,997	116,153
294,545	0,369	234,722	116,503
295,560	0,367	234,750	116,505
296,574	0,042	234,446	116,092
297,589	-0,176	234,264	115,822
298,603	0,234	234,281	116,138
299,618	0,345	234,250	116,199
300,633	0,516	234,051	116,222
301,647	0,332	233,874	115,981
302,662	0,732	233,783	116,235
303,676	0,647	233,545	116,041
304,691	0,391	233,362	115,742
305,706	0,710	233,198	115,896
306,720	0,201	233,178	115,483
307,735	0,010	232,969	115,222
308,749	0,035	232,727	115,111
309,764	0,013	232,495	114,970
310,779	0,047	232,377	114,927
311,793	0,014	232,236	114,822
312,808	0,001	231,923	114,647
313,822	-0,106	231,837	114,512
314,837	-0,185	231,811	114,428
315,852	-0,209	231,673	114,332
316,866	0,192	231,656	114,621
317,881	0,242	231,487	114,565
318,895	0,374	231,469	114,646
319,910	0,765	231,312	114,858
320,925	0,449	231,097	114,499
321,939	0,268	230,787	114,197
322,954	0,427	230,854	114,342
323,968	0,281	230,590	114,090
324,983	0,444	230,437	114,128
325,997	0,457	230,249	114,034
327,012	0,356	230,205	113,925
328,027	0,307	229,941	113,747
329,041	0,119	229,923	113,585
330,056	0,632	229,833	113,921
331,070	0,838	229,645	113,973
332,085	0,733	229,549	113,835
333,100	0,565	229,132	113,492
334,114	0,611	229,030	113,466
335,129	0,786	228,941	113,544
336,143	0,521	228,992	113,359
337,158	0,602	228,709	113,270
338,173	0,507	228,495	113,082
339,187	0,571	228,330	113,039
340,202	0,594	228,296	113,029
341,216	0,773	228,186	113,099
342,231	0,465	227,952	112,742
343,246	0,407	227,910	112,667
344,260	0,638	227,779	112,766
345,275	0,853	227,564	112,810
346,289	0,948	227,455	112,818
347,304	0,862	227,334	112,683
348,319	1,064	227,207	112,762
349,333	0,985	227,028	112,603
350,348	0,407	226,915	112,106
351,362	0,668	226,711	112,189
352,377	0,544	226,473	111,969
353,392	0,550	226,267	111,862
354,406	0,502	226,267	111,816
355,421	196,812	1318,448	1395,834
356,435	157,839	1451,486	1395,822
