DTS Sentinel unit serial number:	SN410029Multiplexer serial number:	ORYXHardware model number:	OX2-SRSoftware version number:	ORYX F/W v4,00 Oryx Data Collector v3.7.2.0data status	okinstallation	B5 Nyhavnadifferential loss correction	single-endedforward channel	channel 2reverse channel	N/Adate	2023/12/12time	03:32:13forward acquisition time	300,00reverse acquisition time	0,00gamma	499,1914k internal	0,3156k external	0,3156temperature offset calibration	1,0000default loss term (dB/km)	0,3820temperature slope calibration	1,0000multiplexer offset coefficient	1,0000multiplexer slope coefficient	1,0000fibre end	0,00T internal ref (°C)	15,67T ext. ref 1 (°C)	-0,78T ext. ref 2 (°C)	-1,10length (m)	temperature (°C)	Stokes	anti-Stokes-744,400	-116,155	0,213	0,029
-743,385	9,216	-0,313	-0,174
-742,371	-57,087	0,156	-0,051
-741,356	-23,048	-0,256	0,113
-740,342	35,766	0,112	0,073
-739,327	-25,041	-0,308	0,134
-738,312	-200,000	-0,014	0,059
-737,298	-87,993	-0,357	-0,078
-736,283	64,658	0,059	0,043
-735,269	-130,133	-0,264	0,026
-734,254	98,450	0,122	0,104
-733,239	-82,738	-0,436	-0,103
-732,225	14,272	0,126	0,072
-731,210	-200,000	-0,002	-0,057
-730,196	208,967	0,059	-0,068
-729,181	62,635	-0,105	0,077
-728,167	235,421	-0,016	0,020
-727,152	800,000	-0,054	0,128
-726,137	208,637	0,062	0,071
-725,123	52,717	-0,085	-0,060
-724,108	-200,000	-0,004	-0,059
-723,094	241,906	-0,019	0,024
-722,079	650,179	0,052	-0,098
-721,064	-67,346	-0,113	0,032
-720,050	-200,000	-0,009	-0,084
-719,035	-45,877	-0,101	0,036
-718,021	651,159	0,035	-0,067
-717,006	-200,000	-0,028	-0,139
-715,991	-200,000	0,025	-0,098
-714,977	800,000	-0,077	-0,202
-713,962	800,000	0,022	0,051
-712,948	-200,000	0,048	0,162
-711,933	-18,650	0,063	-0,029
-710,918	24,777	-0,135	-0,082
-709,904	-200,000	-0,001	-0,081
-708,889	-178,012	0,055	0,001
-707,875	-16,254	-0,035	-0,016
-706,860	232,229	0,093	0,113
-705,845	-126,410	0,081	-0,009
-704,831	589,887	-0,089	0,163
-703,816	-45,309	0,077	0,028
-702,802	145,443	0,032	-0,032
-701,787	-200,000	0,016	-0,110
-700,772	300,852	-0,035	-0,048
-699,758	-3,531	0,022	-0,011
-698,743	800,000	0,015	0,042
-697,729	-66,210	0,033	0,009
-696,714	4,199	0,002	-0,001
-695,699	12,706	-0,108	0,061
-694,685	1,556	0,064	-0,034
-693,670	230,076	0,057	-0,069
-692,656	351,286	0,075	0,110
-691,641	-200,000	-0,021	-0,114
-690,627	-200,000	0,002	0,055
-689,612	-93,700	-0,032	0,006
-688,597	0,112	0,055	0,029
-687,583	270,023	-0,042	0,054
-686,568	-62,717	-0,076	-0,023
-685,554	76,239	0,018	-0,014
-684,539	-87,692	-0,105	0,023
-683,524	381,333	0,081	-0,123
-682,510	121,274	0,043	-0,039
-681,495	100,678	-0,030	0,025
-680,481	-200,000	-0,011	0,060
-679,466	800,000	-0,085	-0,191
-678,451	-155,934	-0,103	0,005
-677,437	11,972	-0,070	-0,039
-676,422	-200,000	-0,009	-0,034
-675,408	-163,565	-0,037	0,001
-674,393	224,337	0,047	0,056
-673,378	50,049	-0,071	-0,049
-672,364	800,000	-0,017	-0,056
-671,349	-200,000	0,001	-0,101
-670,335	-200,000	0,009	-0,073
-669,320	391,397	0,076	0,116
-668,305	282,439	-0,067	-0,088
-667,291	-118,355	0,019	-0,003
-666,276	-138,412	-0,141	-0,011
-665,262	-11,511	-0,084	0,040
-664,247	-200,000	0,037	-0,136
-663,232	328,963	0,037	-0,053
-662,218	87,950	-0,020	0,016
-661,203	-200,000	-0,015	-0,088
-660,189	800,000	0,031	0,073
-659,174	800,000	-0,016	0,046
-658,159	-200,000	0,009	-0,048
-657,145	-200,000	-0,020	-0,099
-656,130	-103,649	-0,029	-0,005
-655,116	-44,238	0,070	-0,026
-654,101	-8,958	-0,099	-0,049
-653,086	800,000	0,022	0,069
-652,072	-114,982	-0,091	0,013
-651,057	152,297	0,060	-0,060
-650,043	-91,740	-0,038	-0,008
-649,028	371,987	-0,081	-0,121
-648,014	-73,254	0,050	-0,013
-646,999	403,194	-0,063	0,097
-645,984	468,982	0,048	0,080
-644,970	-2,783	-0,044	-0,022
-643,955	-70,522	-0,089	-0,025
-642,941	-200,000	0,026	-0,240
-641,926	-144,112	-0,123	-0,008
-640,911	-102,969	0,046	-0,008
-639,897	484,885	0,037	0,061
-638,882	568,218	0,028	-0,049
-637,868	800,000	0,011	0,025
-636,853	800,000	-0,032	-0,098
-635,838	125,443	-0,084	0,078
-634,824	-38,148	-0,048	-0,018
-633,809	-200,000	0,053	0,208
-632,795	435,278	-0,032	0,051
-631,780	-200,000	-0,021	-0,075
-630,765	800,000	0,007	0,023
-629,751	125,387	-0,044	-0,040
-628,736	78,333	-0,071	-0,055
-627,722	800,000	0,059	0,136
-626,707	-50,380	-0,070	0,024
-625,692	-112,029	0,087	-0,013
-624,678	-9,477	0,080	-0,039
-623,663	88,228	0,062	-0,051
-622,649	115,555	0,070	-0,063
-621,634	-200,000	-0,003	-0,084
-620,619	800,000	-0,059	-0,129
-619,605	-141,939	-0,066	-0,005
-618,590	-200,000	-0,017	-0,089
-617,576	-200,000	-0,003	0,013
-616,561	-200,000	0,031	-0,122
-615,546	-81,857	-0,153	-0,037
-614,532	800,000	-0,081	-0,184
-613,517	71,910	-0,074	-0,056
-612,503	114,375	0,062	-0,055
-611,488	125,951	-0,069	-0,064
-610,474	-200,000	-0,011	0,156
-609,459	152,189	0,120	-0,120
-608,444	-200,000	0,027	0,090
-607,430	36,722	-0,124	-0,080
-606,415	31,925	0,090	0,057
-605,401	80,424	0,066	-0,052
-604,386	252,539	0,035	0,044
-603,371	339,487	0,069	-0,099
-602,357	141,799	0,118	-0,114
-601,342	-87,397	-0,038	0,008
-600,328	-18,715	-0,224	-0,102
-599,313	-200,000	-0,024	-0,084
-598,298	-200,000	-0,003	-0,031
-597,284	84,291	-0,061	0,049
-596,269	-200,000	0,003	0,030
-595,255	312,844	0,076	-0,106
-594,240	-61,411	0,116	-0,035
-593,225	156,187	-0,074	-0,075
-592,211	149,802	0,038	-0,038
-591,196	-200,000	0,030	-0,140
-590,182	-200,000	0,041	-0,156
-589,167	-164,241	-0,025	0,001
-588,152	383,335	-0,082	0,124
-587,138	-200,000	-0,040	0,172
-586,123	-92,972	0,020	0,004
-585,109	135,656	0,064	-0,061
-584,094	-200,000	-0,008	-0,225
-583,079	90,905	0,073	0,060
-582,065	800,000	0,010	0,024
-581,050	-200,000	-0,009	-0,060
-580,036	-200,000	0,013	0,100
-579,021	-107,255	0,133	-0,021
-578,006	-200,000	-0,004	-0,050
-576,992	183,036	0,086	0,094
-575,977	-14,726	0,032	-0,015
-574,963	58,314	0,087	0,062
-573,948	-200,000	-0,010	-0,058
-572,934	800,000	0,046	0,115
-571,919	47,092	0,106	0,072
-570,904	-80,374	-0,059	0,014
-569,890	-159,015	-0,121	0,005
-568,875	184,839	-0,007	-0,007
-567,861	800,000	0,023	0,051
-566,846	-200,000	0,017	0,149
-565,831	141,751	-0,090	0,087
-564,817	-81,986	0,024	0,006
-563,802	-200,000	0,030	-0,142
-562,788	800,000	-0,017	-0,053
-561,773	-163,564	-0,018	0,001
-560,758	-11,302	0,085	-0,041
-559,744	-103,327	0,068	-0,012
-558,729	-162,365	-0,131	-0,005
-557,715	122,644	-0,028	0,026
-556,700	-133,619	-0,024	0,002
-555,685	101,085	-0,026	-0,022
-554,671	171,586	0,107	0,112
-553,656	-200,000	0,000	-0,102
-552,642	157,629	-0,048	-0,048
-551,627	4,782	0,063	0,034
-550,612	-200,000	-0,016	-0,065
-549,598	-77,331	0,083	-0,021
-548,583	93,290	-0,078	-0,065
-547,569	-200,000	-0,003	-0,030
-546,554	-135,372	0,040	0,003
-545,539	-90,452	-0,073	0,015
-544,525	-200,000	-0,016	0,094
-543,510	-200,000	-0,004	-0,034
-542,496	280,437	-0,054	-0,070
-541,481	-95,466	-0,087	-0,017
-540,466	-69,361	-0,035	0,010
-539,452	56,880	0,013	-0,009
-538,437	-50,077	-0,109	0,038
-537,423	-88,580	-0,118	0,025
-536,408	-200,000	-0,004	-0,097
-535,393	773,363	-0,080	-0,161
-534,379	-34,296	-0,087	0,035
-533,364	427,906	0,035	0,055
-532,350	685,002	0,033	0,062
-531,335	-200,000	-0,003	0,073
-530,321	800,000	0,039	0,092
-529,306	-91,086	0,136	-0,028
-528,291	-64,710	-0,197	-0,058
-527,277	107,891	-0,104	-0,090
-526,262	-200,000	-0,001	0,121
-525,248	-200,000	0,012	0,118
-524,233	128,789	-0,047	0,043
-523,218	-200,000	-0,054	0,190
-522,204	-200,000	-0,020	0,184
-521,189	-200,000	0,002	-0,013
-520,175	-200,000	-0,011	0,081
-519,160	800,000	-0,042	-0,110
-518,145	74,820	-0,040	-0,031
-517,131	-200,000	-0,025	0,115
-516,116	-50,896	-0,104	-0,036
-515,102	270,512	-0,050	-0,064
-514,087	800,000	-0,033	0,068
-513,072	339,667	-0,070	0,100
-512,058	311,376	0,010	0,014
-511,043	421,486	-0,010	0,016
-510,029	800,000	-0,008	0,024
-509,014	800,000	0,040	0,111
-507,999	-81,875	0,079	0,019
-506,985	-54,273	-0,078	0,026
-505,970	434,078	0,057	0,091
-504,956	-127,831	0,123	0,013
-503,941	-116,474	0,073	0,010
-502,926	-52,663	0,066	-0,022
-501,912	391,297	0,133	0,202
-500,897	-200,000	0,014	-0,091
-499,883	-41,157	0,044	-0,017
-498,868	800,000	-0,014	0,035
-497,853	116,334	-0,073	0,066
-496,839	-156,070	0,133	0,006
-495,824	-60,348	-0,046	0,014
-494,810	160,295	0,067	-0,068
-493,795	368,397	-0,028	0,042
-492,781	628,297	0,057	0,106
-491,766	76,562	0,086	-0,066
-490,751	-200,000	0,008	-0,106
-489,737	-31,547	0,089	-0,036
-488,722	-118,472	-0,056	0,007
-487,708	-200,000	0,018	-0,061
-486,693	605,931	-0,049	-0,090
-485,678	-145,234	-0,043	0,003
-484,664	139,750	-0,047	-0,046
-483,649	194,943	-0,027	-0,030
-482,635	114,865	0,084	-0,075
-481,620	231,243	-0,048	0,057
-480,605	502,423	0,054	-0,091
-479,591	44,290	-0,011	0,007
-478,576	-172,052	-0,125	0,003
-477,562	43,559	-0,045	0,030
-476,547	-200,000	0,025	0,167
-475,532	-108,098	-0,035	-0,005
-474,518	32,378	0,042	-0,026
-473,503	800,000	-0,044	-0,090
-472,489	-68,846	0,087	-0,024
-471,474	-200,000	0,013	-0,074
-470,459	14,175	-0,037	-0,021
-469,445	-66,246	-0,105	0,030
-468,430	-52,283	-0,082	0,027
-467,416	-192,156	0,124	0,001
-466,401	-101,217	0,166	-0,029
-465,386	-200,000	-0,001	-0,057
-464,372	-147,383	-0,037	0,002
-463,357	-200,000	-0,002	-0,134
-462,343	381,105	-0,115	-0,173
-461,328	-200,000	0,009	0,034
-460,313	-200,000	-0,004	0,025
-459,299	-200,000	-0,000	-0,089
-458,284	618,043	-0,025	0,046
-457,270	-70,803	-0,042	-0,011
-456,255	800,000	0,025	-0,057
-455,241	-126,054	-0,149	-0,016
-454,226	290,461	0,024	0,031
-453,211	190,611	0,031	0,034
-452,197	-16,275	0,143	0,066
-451,182	146,909	0,065	0,064
-450,168	-200,000	-0,009	0,194
-449,153	49,673	-0,094	-0,064
-448,138	168,681	0,073	-0,076
-447,124	184,552	0,043	0,047
-446,109	50,889	0,090	0,062
-445,095	-31,718	0,050	0,020
-444,080	441,996	-0,043	0,068
-443,065	16,163	0,083	0,047
-442,051	8,613	0,032	0,018
-441,036	334,613	0,100	-0,141
-440,022	-0,563	-0,110	0,057
-439,007	376,068	0,032	0,048
-437,992	614,781	0,058	0,106
-436,978	99,083	0,167	0,141
-435,963	800,000	0,057	0,127
-434,949	-148,291	-0,088	-0,005
-433,934	683,002	0,036	-0,068
-432,919	526,238	-0,063	-0,108
-431,905	53,730	0,134	0,093
-430,890	-151,068	0,118	0,006
-429,876	-200,000	-0,004	0,044
-428,861	-200,000	-0,016	0,164
-427,846	16,580	0,049	-0,028
-426,832	-200,000	-0,044	-0,143
-425,817	165,143	-0,060	-0,061
-424,803	800,000	-0,027	0,058
-423,788	-110,177	0,192	0,029
-422,773	-200,000	0,034	0,134
-421,759	28,064	0,036	0,022
-420,744	-157,766	0,055	0,002
-419,730	-120,875	-0,043	0,005
-418,715	-73,750	-0,121	0,032
-417,701	800,000	0,008	-0,018
-416,686	740,727	-0,042	-0,082
-415,671	1,401	0,065	0,034
-414,657	-200,000	-0,047	0,152
-413,642	-200,000	-0,015	-0,059
-412,628	-52,901	-0,134	-0,045
-411,613	131,987	-0,046	-0,043
-410,598	193,970	0,085	-0,094
-409,584	800,000	0,047	-0,150
-408,569	-200,000	-0,011	-0,048
-407,555	-15,257	0,157	0,073
-406,540	132,804	-0,094	-0,089
-405,525	-200,000	-0,003	0,084
-404,511	-200,000	0,037	-0,151
-403,496	59,661	0,092	-0,066
-402,482	-200,000	0,001	0,072
-401,467	800,000	0,058	0,149
-400,452	408,441	0,055	0,086
-399,438	800,000	0,017	-0,053
-398,423	527,378	0,037	0,064
-397,409	-200,000	0,044	-0,141
-396,394	395,574	0,077	-0,118
-395,379	-10,547	0,097	0,046
-394,365	-8,674	0,063	-0,031
-393,350	-50,742	0,076	0,026
-392,336	-130,517	-0,125	-0,012
-391,321	-200,000	0,001	-0,008
-390,306	60,882	-0,121	0,087
-389,292	800,000	-0,021	-0,059
-388,277	167,028	0,051	0,052
-387,263	34,534	0,106	0,067
-386,248	508,920	0,086	0,145
-385,233	800,000	0,032	-0,100
-384,219	800,000	0,061	-0,171
-383,204	-51,796	-0,064	-0,021
-382,190	181,278	-0,071	-0,076
-381,175	-18,468	0,026	-0,012
-380,160	-200,000	-0,002	0,085
-379,146	740,966	0,043	-0,085
-378,131	708,417	-0,012	-0,022
-377,117	-24,430	0,142	-0,061
-376,102	800,000	-0,020	0,044
-375,088	-151,359	-0,037	-0,002
-374,073	48,850	-0,057	-0,039
-373,058	534,394	-0,045	-0,078
-372,044	102,382	-0,017	0,015
-371,029	-147,719	-0,058	-0,003
-370,015	193,588	-0,033	-0,037
-369,000	19,003	-0,077	0,045
-367,985	-200,000	0,003	-0,108
-366,971	-69,522	-0,068	-0,019
-365,956	-200,000	-0,004	-0,044
-364,942	767,007	0,088	0,174
-363,927	518,865	-0,030	0,052
-362,912	329,899	-0,038	0,053
-361,898	-200,000	-0,005	-0,090
-360,883	174,911	-0,071	0,075
-359,869	-174,822	-0,093	-0,002
-358,854	-200,000	-0,012	-0,055
-357,839	-200,000	-0,012	0,093
-356,825	800,000	0,015	0,034
-355,810	-200,000	-0,033	0,132
-354,796	205,538	-0,026	-0,029
-353,781	800,000	0,025	-0,058
-352,766	-53,977	-0,105	-0,034
-351,752	-200,000	-0,024	0,080
-350,737	800,000	0,047	0,126
-349,723	-200,000	-0,009	0,130
-348,708	-200,000	0,013	0,152
-347,693	2,910	0,148	0,078
-346,679	763,645	0,041	-0,081
-345,664	-200,000	-0,019	-0,085
-344,650	173,223	-0,024	-0,025
-343,635	355,837	0,024	0,034
-342,620	-200,000	0,036	0,182
-341,606	129,348	-0,058	0,054
-340,591	525,584	-0,020	0,035
-339,577	-49,549	0,019	-0,007
-338,562	-2,325	0,053	-0,027
-337,548	499,378	0,007	0,011
-336,533	295,030	-0,094	0,125
-335,518	-84,891	-0,082	-0,019
-334,504	-200,000	-0,007	-0,041
-333,489	31,545	0,070	0,043
-332,475	-56,998	-0,144	-0,046
-331,460	-103,446	-0,105	-0,018
-330,445	199,734	0,056	-0,063
-329,431	-200,000	-0,026	-0,115
-328,416	800,000	-0,042	-0,095
-327,402	381,202	0,055	0,083
-326,387	800,000	0,016	0,041
-325,372	-200,000	-0,009	0,031
-324,358	800,000	-0,028	-0,079
-323,343	91,259	0,091	-0,074
-322,329	352,472	0,081	0,116
-321,314	315,901	0,051	0,070
-320,299	730,303	-0,076	0,149
-319,285	-164,031	0,094	0,003
-318,270	344,150	0,030	0,043
-317,256	-200,000	0,021	-0,088
-316,241	0,468	-0,086	0,045
-315,226	-200,000	0,005	-0,086
-314,212	-173,299	0,179	0,004
-313,197	357,208	-0,073	-0,106
-312,183	282,182	0,052	0,068
-311,168	79,559	-0,052	-0,041
-310,153	-0,060	0,038	-0,020
-309,139	800,000	-0,010	0,027
-308,124	800,000	0,018	0,037
-307,110	718,990	-0,026	-0,050
-306,095	-200,000	-0,005	-0,081
-305,080	800,000	-0,064	0,132
-304,066	-92,886	-0,043	-0,009
-303,051	-200,000	-0,019	-0,195
-302,037	-200,000	0,027	0,173
-301,022	-0,803	0,047	0,024
-300,008	800,000	-0,063	0,152
-298,993	-62,108	0,133	0,040
-297,978	149,230	0,017	-0,017
-296,964	-155,674	-0,071	-0,003
-295,949	-200,000	0,016	-0,054
-294,935	-200,000	-0,005	-0,111
-293,920	-200,000	-0,017	-0,126
-292,905	-200,000	0,001	0,057
-291,891	-200,000	-0,012	0,045
-290,876	0,287	0,040	0,020
-289,862	-103,081	-0,086	0,015
-288,847	800,000	0,035	-0,088
-287,832	-67,460	-0,118	0,033
-286,818	21,141	0,034	-0,020
-285,803	-200,000	-0,013	0,146
-284,789	-87,010	0,045	0,010
-283,774	162,893	0,069	0,070
-282,759	247,915	0,054	-0,067
-281,745	135,692	-0,069	0,065
-280,730	-200,000	0,020	-0,075
-279,716	800,000	-0,049	-0,107
-278,701	72,193	0,026	-0,019
-277,686	-115,416	0,041	0,006
-276,672	62,286	0,093	0,067
-275,657	-10,574	0,086	-0,041
-274,643	61,753	-0,120	0,086
-273,628	-0,817	-0,056	-0,028
-272,613	800,000	0,046	0,125
-271,599	-3,908	0,105	0,053
-270,584	17,866	0,102	0,059
-269,570	-200,000	0,002	0,034
-268,555	800,000	0,008	-0,017
-267,540	-200,000	-0,003	0,019
-266,526	152,244	-0,148	-0,146
-265,511	125,376	0,137	-0,125
-264,497	477,129	0,015	0,024
-263,482	259,845	0,040	0,050
-262,467	511,495	-0,038	0,064
-261,453	120,679	0,006	0,005
-260,438	-7,700	-0,048	0,024
-259,424	800,000	-0,063	-0,134
-258,409	-200,000	-0,002	0,037
-257,395	450,683	0,022	0,035
-256,380	-144,492	-0,045	0,003
-255,365	800,000	-0,061	0,151
-254,351	-200,000	0,009	0,084
-253,336	800,000	0,048	-0,118
-252,322	264,983	-0,050	-0,063
-251,307	800,000	0,025	0,076
-250,292	-200,000	0,015	0,066
-249,278	-200,000	0,030	0,111
-248,263	410,080	-0,030	0,046
-247,249	-200,000	0,009	0,034
-246,234	800,000	0,014	-0,028
-245,219	-200,000	-0,005	-0,068
-244,205	323,496	0,068	-0,094
-243,190	-200,000	-0,154	0,000
-242,176	107,332	0,103	-0,088
-241,161	15,082	0,033	-0,019
-240,146	-200,000	0,012	0,078
-239,132	90,997	-0,028	-0,023
-238,117	800,000	-0,078	-0,226
-237,103	-200,000	-0,045	0,171
-236,088	-200,000	0,004	-0,026
-235,073	-58,018	0,204	0,064
-234,059	225,808	-0,111	-0,131
-233,044	-167,404	-0,111	-0,003
-232,030	-68,411	-0,067	0,019
-231,015	212,776	-0,065	-0,074
-230,000	-43,583	-0,128	-0,046
-228,986	-63,976	0,196	0,058
-227,971	-200,000	-0,013	0,076
-226,957	61,633	0,045	0,032
-225,942	262,310	0,069	0,087
-224,927	47,149	-0,030	-0,020
-223,913	-200,000	0,021	0,127
-222,898	-200,000	-0,005	-0,091
-221,884	64,095	-0,095	0,069
-220,869	211,062	0,133	0,151
-219,855	-72,616	0,115	0,031
-218,840	-80,687	-0,032	0,008
-217,825	191,151	0,074	-0,081
-216,811	634,789	-0,112	-0,206
-215,796	-101,748	-0,161	0,028
-214,782	-174,939	-0,209	-0,004
-213,767	-200,000	0,000	0,066
-212,752	-200,000	-0,011	0,090
-211,738	199,538	0,041	-0,045
-210,723	800,000	-0,013	0,036
-209,709	547,211	-0,043	-0,074
-208,694	-146,006	-0,209	0,013
-207,679	800,000	-0,037	-0,083
-206,665	-5,318	-0,083	0,041
-205,650	9,779	-0,044	0,024
-204,636	-200,000	-0,016	0,154
-203,621	177,716	0,077	0,082
-202,606	19,552	-0,060	-0,035
-201,592	454,194	0,075	-0,120
-200,577	127,965	-0,078	0,072
-199,563	185,547	0,072	-0,077
-198,548	-200,000	0,032	-0,128
-197,533	-110,818	-0,183	-0,027
-196,519	33,048	0,110	0,069
-195,504	800,000	-0,063	0,132
-194,490	125,587	-0,103	0,093
-193,475	-114,081	0,055	-0,008
-192,460	199,133	-0,041	-0,045
-191,446	-112,129	0,054	-0,008
-190,431	240,328	-0,009	-0,011
-189,417	-85,951	0,127	-0,028
-188,402	268,334	-0,041	-0,052
-187,387	209,229	0,057	-0,065
-186,373	-51,210	-0,109	0,036
-185,358	800,000	-0,048	0,133
-184,344	-91,157	-0,063	0,013
-183,329	-11,980	-0,004	-0,002
-182,315	-86,682	0,053	-0,012
-181,300	-200,000	-0,021	-0,087
-180,285	-157,474	-0,143	-0,006
-179,271	88,915	0,084	-0,067
-178,256	387,703	0,033	0,049
-177,242	117,595	0,128	-0,114
-176,227	46,735	0,060	0,040
-175,212	-200,000	-0,009	0,073
-174,198	-25,541	-0,048	-0,020
-173,183	199,590	0,089	0,098
-172,169	-200,000	0,001	-0,194
-171,154	-200,000	0,025	-0,129
-170,139	-151,007	0,040	0,002
-169,125	-200,000	0,028	0,126
-168,110	-200,000	0,044	-0,185
-167,096	800,000	0,033	-0,082
-166,081	468,439	-0,090	-0,146
-165,066	108,011	0,067	-0,057
-164,052	-200,000	0,041	-0,144
-163,037	-200,000	-0,006	0,023
-162,023	-122,878	-0,051	0,006
-161,008	-200,000	0,036	0,123
-159,993	-200,000	0,004	0,067
-158,979	-200,000	-0,024	-0,109
-157,964	169,617	-0,065	-0,067
-156,950	-200,000	0,003	0,016
-155,935	-16,145	-0,129	0,059
-154,920	-109,121	0,021	0,003
-153,906	-200,000	0,037	0,209
-152,891	-121,712	0,106	-0,012
-151,877	-10,061	0,056	0,027
-150,862	-61,481	-0,094	0,028
-149,847	313,945	-0,077	-0,105
-148,833	-36,985	-0,057	-0,022
-147,818	-25,345	0,153	0,065
-146,804	-200,000	0,037	0,166
-145,789	-200,000	0,017	0,133
-144,775	800,000	0,027	0,072
-143,760	-114,970	-0,136	0,018
-142,745	-21,088	0,198	-0,087
-141,731	-132,727	-0,031	-0,003
-140,716	800,000	0,006	0,021
-139,702	-200,000	-0,000	0,069
-138,687	-22,719	0,081	0,035
-137,672	219,713	-0,067	-0,078
-136,658	-59,472	0,178	-0,055
-135,643	-3,742	0,101	-0,050
-134,629	-110,174	-0,190	0,028
-133,614	-131,119	0,100	-0,009
-132,599	287,053	-0,007	0,010
-131,585	640,374	0,053	-0,098
-130,570	-200,000	0,003	0,061
-129,556	96,659	-0,101	0,084
-128,541	800,000	-0,019	0,044
-127,526	408,362	-0,061	0,093
-126,512	-34,281	0,060	0,023
-125,497	-200,000	-0,044	0,171
-124,483	118,114	0,063	-0,056
-123,468	-200,000	0,002	-0,057
-122,453	-99,437	0,100	0,018
-121,439	83,482	-0,154	-0,121
-120,424	-200,000	-0,025	-0,121
-119,410	-200,000	0,000	0,039
-118,395	476,725	-0,039	0,063
-117,380	-36,566	-0,056	0,021
-116,366	-200,000	0,030	-0,169
-115,351	149,123	0,048	0,047
-114,337	-200,000	-0,003	-0,041
-113,322	-179,466	0,044	-0,001
-112,307	-85,090	-0,040	0,009
-111,293	735,195	-0,011	-0,021
-110,278	29,224	0,095	0,058
-109,264	-137,149	-0,091	-0,007
-108,249	-99,826	-0,009	0,002
-107,234	-115,414	0,059	-0,008
-106,220	800,000	-0,030	0,091
-105,205	64,355	0,037	-0,027
-104,191	-96,671	0,025	0,005
-103,176	-77,927	-0,028	0,007
-102,162	-200,000	0,019	0,064
-101,147	-196,860	-0,195	-0,001
-100,132	-87,488	-0,169	0,036
-99,118	-63,942	-0,059	0,017
-98,103	286,292	-0,017	-0,023
-97,089	-200,000	0,005	0,118
-96,074	-200,000	-0,008	-0,033
-95,059	-7,248	0,063	-0,031
-94,045	-63,966	-0,098	-0,029
-93,030	-200,000	0,004	-0,104
-92,016	800,000	-0,047	-0,144
-91,001	-16,420	-0,063	-0,029
-89,986	178,642	0,091	0,096
-88,972	-59,572	-0,067	0,020
-87,957	394,735	0,066	0,099
-86,943	-200,000	-0,028	0,124
-85,928	-200,000	-0,015	-0,150
-84,913	162,542	-0,034	0,034
-83,899	-8,400	0,072	0,035
-82,884	230,712	0,077	0,091
-81,870	-200,000	-0,005	0,062
-80,855	-200,000	0,027	-0,091
-79,840	71,041	0,049	-0,036
-78,826	40,008	-0,057	0,037
-77,811	800,000	0,007	-0,016
-76,797	-54,066	0,101	-0,033
-75,782	-200,000	-0,018	0,115
-74,767	-5,508	0,036	0,017
-73,753	-106,344	-0,108	0,017
-72,738	414,124	0,061	-0,094
-71,724	800,000	-0,053	-0,111
-70,709	-54,344	-0,081	-0,026
-69,694	-39,471	-0,114	0,043
-68,680	1,671	-0,088	0,045
-67,665	311,828	-0,065	0,088
-66,651	107,281	0,063	-0,054
-65,636	58,643	-0,044	0,031
-64,622	-200,000	-0,005	-0,072
-63,607	97,327	-0,124	-0,102
-62,592	-200,000	-0,016	0,073
-61,578	134,443	-0,045	-0,042
-60,563	-173,004	0,228	0,005
-59,549	-114,562	0,071	0,010
-58,534	-14,191	-1,862	-0,859
-57,519	-200,000	-0,254	-0,956
-56,505	-200,000	-1,294	-4,886
-55,490	6,585	0,678	0,361
-54,476	800,000	5,327	12,238
-53,461	-200,000	17,392	283,123
-52,446	800,000	724,717	2219,879
-51,432	539,152	1641,237	2813,825
-50,417	110,976	1632,342	1410,659
-49,403	75,404	1286,686	973,795
-48,388	32,413	1028,254	636,162
-47,373	20,277	989,968	572,436
-46,359	18,650	978,122	560,226
-45,344	15,988	974,113	549,188
-44,330	16,209	972,662	549,072
-43,315	15,736	970,841	546,476
-42,300	15,643	969,722	545,520
-41,286	15,725	968,953	545,333
-40,271	15,749	967,578	544,616
-39,257	15,745	966,825	544,159
-38,242	15,745	965,913	543,625
-37,227	15,744	965,141	543,165
-36,213	15,734	964,210	542,587
-35,198	15,650	963,540	541,915
-34,184	15,702	962,693	541,587
-33,169	15,713	961,600	540,987
-32,154	15,753	960,635	540,550
-31,140	15,724	959,801	539,965
-30,125	15,756	959,083	539,643
-29,111	15,744	958,367	539,182
-28,096	15,792	957,643	538,906
-27,082	15,781	957,059	538,520
-26,067	15,710	956,120	537,743
-25,052	15,712	955,657	537,469
-24,038	15,677	954,823	536,865
-23,023	15,683	954,236	536,532
-22,009	15,690	953,693	536,228
-20,994	15,723	953,044	535,948
-19,979	15,751	952,326	535,612
-18,965	15,724	951,614	535,106
-17,950	15,691	951,221	534,756
-16,936	15,630	950,509	534,141
-15,921	15,620	949,983	533,791
-14,906	15,581	949,033	533,113
-13,892	15,575	948,412	532,722
-12,877	15,590	947,758	532,382
-11,863	15,527	947,235	531,868
-10,848	15,532	946,676	531,549
-9,833	15,654	946,373	531,746
-8,819	15,679	945,514	531,320
-7,804	15,571	945,039	530,688
-6,790	15,565	944,394	530,288
-5,775	15,627	943,830	530,147
-4,760	15,642	943,152	529,793
-3,746	15,582	942,391	529,153
-2,731	15,449	941,786	528,373
-1,717	15,406	941,325	527,954
-0,702	15,423	940,520	527,538
0,313	15,277	939,753	527,441
1,327	18,361	937,633	535,929
2,342	27,148	795,067	477,750
3,356	23,920	459,003	270,850
4,371	-3,084	313,763	156,497
5,386	-7,282	295,561	143,165
6,400	-9,322	289,526	138,208
7,415	-9,695	287,185	136,711
8,429	-9,869	285,602	135,775
9,444	-9,841	284,583	135,306
10,459	-9,715	283,941	135,112
11,473	-9,985	283,536	134,644
12,488	-9,865	283,032	134,510
13,502	-9,827	282,549	134,305
14,517	-9,848	282,027	134,025
15,531	-9,797	281,593	133,855
16,546	-9,600	281,102	133,799
17,561	-9,837	280,968	133,496
18,575	-9,641	280,506	133,453
19,590	-9,876	280,163	133,052
20,604	-9,737	279,855	133,028
21,619	-9,779	279,406	132,762
22,634	-9,750	279,181	132,671
23,648	-9,815	278,756	132,395
24,663	-9,856	278,762	132,347
25,677	-9,646	278,299	132,315
26,692	-9,648	278,041	132,178
27,707	-9,697	277,715	131,966
28,721	-9,853	277,631	131,766
29,736	-9,793	277,290	131,650
30,750	-9,766	276,753	131,408
31,765	-9,806	276,755	131,359
32,780	-9,587	276,434	131,402
33,794	-9,756	276,299	131,167
34,809	-9,794	276,071	131,012
35,823	-9,865	275,732	130,771
36,838	-9,785	275,436	130,695
37,853	-9,887	275,153	130,453
38,867	-9,920	275,055	130,364
39,882	-9,780	274,714	130,322
40,896	-9,781	274,522	130,219
41,911	-9,761	274,304	130,122
42,926	-9,749	274,033	129,994
43,940	-9,967	273,865	129,698
44,955	-9,886	273,575	129,624
45,969	-9,951	273,389	129,465
46,984	-10,162	273,153	129,145
47,999	-10,204	272,780	128,917
49,013	-10,319	272,666	128,746
50,028	-10,274	272,232	128,571
51,042	-10,443	271,874	128,233
52,057	-10,469	271,795	128,161
53,071	-10,391	271,509	128,086
54,086	-10,522	271,526	127,962
55,101	-10,173	271,212	128,125
56,115	-9,947	271,066	128,253
57,130	-9,693	270,822	128,361
58,144	-9,726	270,758	128,289
59,159	-9,520	270,621	128,402
60,174	-9,659	270,277	128,100
61,188	-9,691	270,044	127,949
62,203	-9,711	269,841	127,823
63,217	-9,533	269,606	127,863
64,232	-9,753	269,419	127,562
65,247	-9,829	269,147	127,352
66,261	-9,706	268,847	127,311
67,276	-9,814	268,610	127,089
68,290	-9,990	268,412	126,823
69,305	-10,210	268,180	126,500
70,320	-10,025	268,059	126,601
71,334	-9,992	268,023	126,603
72,349	-9,652	267,625	126,714
73,363	-9,880	267,608	126,487
74,378	-9,757	267,265	126,426
75,393	-9,597	267,012	126,440
76,407	-9,632	266,874	126,331
77,422	-9,772	266,774	126,146
78,436	-9,793	266,463	125,968
79,451	-9,582	266,124	125,988
80,466	-9,745	265,902	125,724
81,480	-9,815	265,580	125,497
82,495	-9,870	265,475	125,387
83,509	-9,865	265,266	125,282
84,524	-9,962	265,233	125,167
85,539	-9,880	264,676	124,967
86,553	-9,844	264,436	124,875
87,568	-9,844	264,281	124,791
88,582	-9,908	264,204	124,686
89,597	-9,968	264,051	124,549
90,611	-9,822	263,871	124,583
91,626	-9,624	263,598	124,621
92,641	-9,740	263,516	124,467
93,655	-9,736	263,293	124,354
94,670	-9,883	263,185	124,160
95,684	-9,784	263,011	124,156
96,699	-9,768	262,610	123,969
97,714	-9,645	262,291	123,918
98,728	-9,919	262,169	123,605
99,743	-10,087	262,120	123,421
100,757	-10,016	261,849	123,345
101,772	-10,042	261,594	123,191
102,787	-9,963	261,478	123,196
103,801	-9,708	261,235	123,297
104,816	-9,728	261,140	123,224
105,830	-9,727	261,111	123,200
106,845	-9,626	260,675	123,073
107,860	-9,648	260,458	122,939
108,874	-9,757	260,175	122,699
109,889	-9,703	260,022	122,663
110,903	-9,831	259,919	122,491
111,918	-9,776	259,617	122,386
112,933	-9,844	259,422	122,223
113,947	-9,755	259,418	122,289
114,962	-9,774	259,164	122,141
115,976	-9,838	259,067	122,029
116,991	-9,650	258,869	122,089
118,006	-9,590	258,564	121,987
119,020	-9,632	258,414	121,868
120,035	-9,620	258,370	121,848
121,049	-9,785	258,151	121,589
122,064	-9,956	257,894	121,308
123,079	-9,831	257,643	121,288
124,093	-9,839	257,497	121,202
125,108	-9,919	257,346	121,050
126,122	-10,076	257,027	120,752
127,137	-10,210	256,790	120,514
128,151	-10,067	256,597	120,537
129,166	-9,929	256,596	120,645
130,181	-9,995	256,183	120,383
131,195	-9,922	255,989	120,345
132,210	-10,014	255,950	120,236
133,224	-9,795	255,765	120,328
134,239	-9,791	255,687	120,284
135,254	-9,789	255,352	120,118
136,268	-9,834	255,087	119,943
137,283	-10,109	254,845	119,581
138,297	-10,026	254,600	119,527
139,312	-10,065	254,466	119,420
140,327	-9,753	254,263	119,582
141,341	-9,743	254,315	119,605
142,356	-9,706	254,102	119,526
143,370	-9,663	253,851	119,434
144,385	-9,545	253,763	119,483
145,400	-9,535	253,642	119,424
146,414	-9,633	253,394	119,213
147,429	-9,649	253,262	119,127
148,443	-9,461	253,053	119,178
149,458	-9,533	252,899	119,034
150,473	-9,419	252,663	119,009
151,487	-9,772	252,562	118,649
152,502	-9,653	252,238	118,588
153,516	-9,405	252,113	118,730
154,531	-9,672	252,045	118,461
155,546	-9,654	251,662	118,285
156,560	-9,644	251,649	118,277
157,575	-9,719	251,404	118,087
158,589	-9,697	251,226	118,012
159,604	-9,526	251,043	118,061
160,619	-9,548	250,792	117,913
161,633	-9,562	250,587	117,795
162,648	-9,605	250,486	117,700
163,662	-9,575	250,416	117,683
164,677	-9,483	250,206	117,651
165,692	-9,460	250,087	117,604
166,706	-9,621	249,905	117,372
167,721	-9,586	249,675	117,283
168,735	-9,458	249,427	117,263
169,750	-9,478	249,518	117,279
170,764	-9,497	249,213	117,110
171,779	-9,627	249,154	116,962
172,794	-9,365	248,814	117,012
173,808	-9,654	248,692	116,702
174,823	-9,982	248,493	116,323
175,837	-10,041	248,204	116,128
176,852	-9,796	248,185	116,314
177,867	-9,365	248,058	116,604
178,881	-9,582	247,920	116,347
179,896	-9,557	247,587	116,201
180,910	-9,513	247,569	116,219
181,925	-9,535	247,324	116,076
182,940	-9,311	247,147	116,169
183,954	-9,454	247,010	115,976
184,969	-9,509	246,868	115,852
185,983	-9,626	246,787	115,707
186,998	-9,405	246,497	115,744
188,013	-9,501	246,371	115,595
189,027	-9,580	246,154	115,417
190,042	-9,638	245,960	115,268
191,056	-9,574	245,736	115,205
192,071	-9,680	245,680	115,082
193,086	-9,532	245,510	115,114
194,100	-9,556	245,328	114,999
195,115	-9,339	245,100	115,061
196,129	-9,591	244,978	114,785
197,144	-9,545	244,852	114,754
198,159	-9,638	244,544	114,523
199,173	-9,700	244,397	114,392
200,188	-9,540	244,186	114,415
201,202	-9,669	243,755	114,097
202,217	-10,024	243,627	113,736
203,232	-10,061	243,398	113,589
204,246	-9,849	243,479	113,790
205,261	-9,355	243,434	114,163
206,275	-10,296	242,968	113,166
207,290	-7,470	244,137	116,020
208,304	-0,705	246,327	122,640
209,319	3,104	247,141	126,183
210,334	3,453	247,246	126,513
211,348	3,716	247,065	126,626
212,363	4,123	247,031	126,933
213,377	3,957	246,904	126,720
214,392	3,891	246,728	126,564
215,407	3,650	246,511	126,243
216,421	3,785	246,369	126,270
217,436	3,924	246,222	126,298
218,450	4,048	246,066	126,308
219,465	3,598	246,002	125,895
220,480	3,530	245,657	125,651
221,494	3,441	245,492	125,483
222,509	3,537	245,309	125,456
223,523	3,497	245,157	125,335
224,538	3,158	244,930	124,931
225,553	3,363	244,733	124,987
226,567	3,422	244,665	124,989
227,582	3,638	244,403	125,020
228,596	3,342	244,449	124,791
229,611	3,279	244,095	124,547
230,626	3,204	243,888	124,370
231,640	3,453	243,608	124,418
232,655	3,418	243,609	124,379
233,669	3,145	243,505	124,093
234,684	2,986	243,308	123,854
235,699	3,583	243,230	124,287
236,713	3,917	243,000	124,428
237,728	3,401	242,897	123,947
238,742	3,331	242,532	123,693
239,757	3,142	242,533	123,530
240,772	3,314	242,398	123,589
241,786	3,365	242,085	123,459
242,801	3,120	242,013	123,214
243,815	3,006	241,869	123,038
244,830	3,312	241,773	123,225
245,844	3,522	241,681	123,336
246,859	3,267	241,517	123,036
247,874	3,296	241,253	122,913
248,888	3,213	241,290	122,855
249,903	3,378	241,019	122,838
250,917	3,644	240,790	122,924
251,932	3,851	240,710	123,037
252,947	3,585	240,569	122,742
253,961	3,077	240,430	122,254
254,976	3,508	240,306	122,524
255,990	3,463	240,004	122,323
257,005	3,340	239,850	122,136
258,020	3,188	239,604	121,878
259,034	3,226	239,561	121,876
260,049	3,326	239,397	121,862
261,063	3,239	239,244	121,704
262,078	3,199	239,105	121,590
263,093	3,405	238,923	121,650
264,107	3,361	238,906	121,596
265,122	3,323	238,704	121,452
266,136	3,246	238,591	121,322
267,151	3,705	238,368	121,562
268,166	3,361	238,197	121,192
269,180	3,052	238,047	120,861
270,195	3,752	237,890	121,323
271,209	3,935	238,009	121,517
272,224	3,405	237,672	120,916
273,239	2,973	237,184	120,317
274,253	3,037	237,238	120,384
275,268	3,095	237,290	120,446
276,282	3,342	237,029	120,496
277,297	3,272	236,780	120,304
278,312	3,345	236,606	120,263
279,326	3,310	236,648	120,245
280,341	3,447	236,349	120,190
281,355	3,392	236,316	120,120
282,370	3,679	236,171	120,260
283,384	3,341	235,996	119,896
284,399	3,246	235,740	119,680
285,414	3,102	235,628	119,500
286,428	3,243	235,438	119,504
287,443	3,355	235,338	119,530
288,457	3,475	235,125	119,504
289,472	3,446	235,076	119,446
290,487	3,331	234,931	119,272
291,501	3,169	234,584	118,959
292,516	3,063	234,439	118,793
293,530	3,049	234,323	118,713
294,545	3,276	234,425	118,931
295,560	3,262	234,158	118,774
296,574	3,035	234,001	118,507
297,589	3,191	233,844	118,538
298,603	3,633	233,698	118,795
299,618	3,574	233,702	118,741
300,633	3,199	233,439	118,307
301,647	3,474	233,297	118,437
302,662	3,609	233,418	118,592
303,676	4,014	233,117	118,742
304,691	3,849	232,885	118,486
305,706	3,783	232,872	118,417
306,720	3,697	232,748	118,278
307,735	3,509	232,421	117,956
308,749	3,594	232,242	117,920
309,764	3,403	231,974	117,627
310,779	3,196	231,802	117,370
311,793	3,033	231,583	117,124
312,808	3,019	231,532	117,077
313,822	3,055	231,239	116,947
314,837	3,054	231,347	116,990
315,852	3,001	231,122	116,824
316,866	3,357	231,064	117,057
317,881	3,583	230,889	117,131
318,895	3,606	230,864	117,125
319,910	3,641	230,652	117,034
320,925	3,541	230,420	116,829
321,939	3,233	230,273	116,510
322,954	3,424	230,211	116,613
323,968	3,461	229,945	116,497
324,983	3,245	229,635	116,165
325,997	3,110	229,619	116,044
327,012	3,539	229,633	116,366
328,027	3,631	229,476	116,347
329,041	3,623	229,351	116,266
330,056	3,835	229,373	116,428
331,070	3,905	229,132	116,348
332,085	3,651	228,812	115,983
333,100	3,689	228,723	115,956
334,114	3,622	228,617	115,842
335,129	3,693	228,614	115,884
336,143	3,836	228,258	115,801
337,158	3,409	228,240	115,460
338,173	3,748	228,179	115,674
339,187	3,767	227,889	115,531
340,202	3,860	227,849	115,570
341,216	3,771	227,635	115,384
342,231	3,295	227,369	114,882
343,246	3,316	227,421	114,914
344,260	3,499	227,209	114,934
345,275	3,597	227,184	114,984
346,289	3,834	227,062	115,090
347,304	3,780	226,851	114,932
348,319	4,089	226,689	115,070
349,333	3,739	226,591	114,749
350,348	3,372	226,279	114,307
351,362	3,706	226,216	114,514
352,377	3,390	226,139	114,230
353,392	3,466	225,722	114,065
354,406	3,458	225,657	114,016
355,421	197,628	1321,619	1405,547
356,435	158,487	1455,143	1405,554
