DTS Sentinel unit serial number:	SN410029Multiplexer serial number:	ORYXHardware model number:	OX2-SRSoftware version number:	ORYX F/W v4,00 Oryx Data Collector v3.7.2.0data status	okinstallation	B5 Nyhavnadifferential loss correction	single-endedforward channel	channel 2reverse channel	N/Adate	2023/12/13time	07:57:13forward acquisition time	300,00reverse acquisition time	0,00gamma	499,1914k internal	0,3160k external	0,3160temperature offset calibration	1,0000default loss term (dB/km)	0,3820temperature slope calibration	1,0000multiplexer offset coefficient	1,0000multiplexer slope coefficient	1,0000fibre end	0,00T internal ref (°C)	13,65T ext. ref 1 (°C)	-2,78T ext. ref 2 (°C)	-3,09length (m)	temperature (°C)	Stokes	anti-Stokes-744,400	99,109	0,082	-0,070
-743,385	-21,055	-0,283	0,127
-742,371	-34,275	0,264	0,106
-741,356	-131,918	-0,228	0,022
-740,342	-117,307	0,164	0,022
-739,327	-195,617	-0,347	0,002
-738,312	-138,077	0,109	0,009
-737,298	-35,230	-0,331	-0,132
-736,283	-52,624	0,082	-0,028
-735,269	-180,546	-0,293	-0,004
-734,254	-75,486	0,080	-0,021
-733,239	-97,943	-0,557	-0,105
-732,225	62,097	0,209	0,153
-731,210	-200,000	-0,015	0,064
-730,196	89,139	-0,083	-0,068
-729,181	-200,000	0,005	-0,026
-728,167	193,046	-0,100	-0,112
-727,152	-156,690	-0,069	0,003
-726,137	4,615	0,055	-0,029
-725,123	150,252	-0,113	-0,113
-724,108	-200,000	0,003	-0,043
-723,094	-3,278	-0,188	-0,096
-722,079	800,000	-0,019	-0,056
-721,064	-68,819	-0,125	0,035
-720,050	-200,000	-0,003	-0,037
-719,035	194,199	-0,095	-0,106
-718,021	90,421	-0,086	-0,071
-717,006	-35,383	-0,064	-0,025
-715,991	800,000	-0,051	-0,158
-714,977	246,811	-0,088	0,109
-713,962	273,854	-0,034	-0,045
-712,948	-200,000	-0,019	-0,064
-711,933	89,950	0,066	0,054
-710,918	-200,000	-0,016	-0,057
-709,904	24,111	-0,201	-0,122
-708,889	-200,000	0,011	-0,150
-707,875	-200,000	0,001	0,043
-706,860	-22,701	-0,073	0,032
-705,845	169,511	-0,022	-0,023
-704,831	-82,490	-0,036	-0,008
-703,816	-200,000	0,001	0,011
-702,802	600,060	-0,056	-0,102
-701,787	-200,000	0,005	-0,139
-700,772	-90,871	-0,121	-0,025
-699,758	-139,347	-0,060	-0,005
-698,743	-92,703	-0,073	0,015
-697,729	-11,807	-0,085	-0,041
-696,714	-200,000	0,011	0,043
-695,699	239,742	-0,025	0,031
-694,685	-200,000	-0,022	-0,115
-693,670	164,705	0,050	0,052
-692,656	-11,333	0,077	-0,037
-691,641	223,165	0,059	0,070
-690,627	-148,876	0,216	0,013
-689,612	-23,836	-0,065	-0,028
-688,597	800,000	-0,060	-0,193
-687,583	-200,000	0,001	-0,022
-686,568	256,643	-0,023	0,029
-685,554	-200,000	0,030	-0,139
-684,539	-200,000	0,008	-0,036
-683,524	199,555	-0,032	-0,036
-682,510	-200,000	0,021	-0,119
-681,495	800,000	-0,021	-0,064
-680,481	-200,000	-0,019	-0,116
-679,466	-200,000	0,007	-0,118
-678,451	-200,000	-0,010	-0,108
-677,437	6,035	-0,072	-0,039
-676,422	123,767	-0,022	0,020
-675,408	205,276	-0,080	-0,091
-674,393	149,948	0,011	-0,011
-673,378	800,000	0,061	0,134
-672,364	74,224	-0,042	-0,033
-671,349	-87,625	-0,124	-0,027
-670,335	11,074	-0,075	-0,042
-669,320	-60,712	0,068	0,021
-668,305	-200,000	-0,003	-0,062
-667,291	800,000	-0,027	-0,076
-666,276	-114,546	-0,112	-0,016
-665,262	109,405	-0,035	-0,031
-664,247	65,985	-0,149	-0,111
-663,232	-30,079	-0,032	0,013
-662,218	-47,351	0,099	0,035
-661,203	-200,000	-0,043	-0,186
-660,189	-47,795	0,035	-0,013
-659,174	-200,000	-0,005	-0,032
-658,159	800,000	-0,100	-0,296
-657,145	-200,000	-0,022	0,202
-656,130	51,470	0,126	-0,088
-655,116	-91,910	-0,141	-0,029
-654,101	-200,000	0,001	0,060
-653,086	-160,863	-0,021	0,001
-652,072	800,000	0,019	0,041
-651,057	-62,946	-0,062	0,019
-650,043	-49,411	-0,128	-0,044
-649,028	62,891	-0,046	-0,034
-648,014	-70,163	-0,044	0,012
-646,999	-6,905	0,124	0,062
-645,984	-200,000	0,003	0,075
-644,970	236,713	-0,083	-0,101
-643,955	79,727	-0,076	-0,060
-642,941	-14,410	0,163	-0,077
-641,926	-132,627	-0,165	0,015
-640,911	197,005	0,059	-0,066
-639,897	800,000	-0,073	0,165
-638,882	-111,606	0,008	0,001
-637,868	-200,000	0,026	-0,086
-636,853	-200,000	-0,044	-0,148
-635,838	800,000	-0,042	-0,105
-634,824	800,000	-0,045	0,119
-633,809	11,892	0,010	0,006
-632,795	800,000	-0,021	-0,065
-631,780	-65,449	0,186	-0,055
-630,765	-74,000	-0,034	0,009
-629,751	787,493	0,039	-0,078
-628,736	47,470	-0,066	-0,045
-627,722	462,289	0,070	-0,116
-626,707	-200,000	-0,001	0,050
-625,692	800,000	0,026	0,066
-624,678	-200,000	-0,001	-0,064
-623,663	-77,139	0,056	-0,014
-622,649	-200,000	0,016	-0,148
-621,634	-81,325	-0,148	0,036
-620,619	-200,000	-0,011	-0,135
-619,605	-200,000	-0,013	0,051
-618,590	-94,561	-0,088	0,017
-617,576	-200,000	-0,011	0,072
-616,561	-200,000	0,013	0,157
-615,546	92,066	-0,064	-0,053
-614,532	70,746	0,076	0,058
-613,517	341,298	-0,013	-0,019
-612,503	-200,000	-0,013	0,094
-611,488	-38,994	0,127	0,049
-610,474	800,000	-0,031	-0,082
-609,459	164,062	0,103	-0,107
-608,444	-200,000	-0,012	-0,046
-607,430	-128,370	-0,060	-0,006
-606,415	-5,192	-0,139	0,070
-605,401	-50,363	-0,055	0,019
-604,386	188,467	0,114	-0,125
-603,371	141,276	0,089	0,087
-602,357	360,212	-0,079	-0,116
-601,342	67,020	0,004	-0,003
-600,328	800,000	0,026	0,062
-599,313	-200,000	-0,020	-0,279
-598,298	-4,195	-0,067	-0,034
-597,284	-200,000	0,003	0,050
-596,269	158,979	0,016	0,016
-595,255	-200,000	0,004	-0,165
-594,240	562,799	0,021	-0,037
-593,225	-200,000	0,028	-0,129
-592,211	8,755	0,102	-0,056
-591,196	-69,728	-0,073	0,020
-590,182	-32,983	0,098	0,040
-589,167	-200,000	-0,024	0,089
-588,152	-58,398	0,153	0,048
-587,138	800,000	0,022	-0,071
-586,123	800,000	-0,039	-0,104
-585,109	510,466	-0,058	-0,100
-584,094	-200,000	-0,013	-0,087
-583,079	-25,072	0,078	-0,034
-582,065	601,488	0,021	0,038
-581,050	156,742	-0,070	-0,071
-580,036	-200,000	0,001	-0,049
-579,021	210,564	0,100	-0,115
-578,006	-200,000	0,004	-0,161
-576,992	-200,000	-0,026	-0,113
-575,977	-200,000	-0,017	-0,179
-574,963	-107,397	-0,078	0,012
-573,948	-200,000	0,008	0,041
-572,934	-83,970	-0,156	-0,036
-571,919	-200,000	-0,046	-0,192
-570,904	-200,000	0,013	0,068
-569,890	135,995	-0,032	0,031
-568,875	-200,000	-0,006	0,048
-567,861	186,274	-0,010	-0,011
-566,846	-57,682	0,091	0,029
-565,831	88,184	-0,043	-0,035
-564,817	800,000	0,020	0,064
-563,802	155,312	-0,048	-0,048
-562,788	800,000	-0,023	-0,053
-561,773	96,451	-0,016	-0,013
-560,758	-26,017	0,107	0,046
-559,744	800,000	-0,038	-0,086
-558,729	202,199	-0,017	-0,020
-557,715	215,291	-0,154	-0,179
-556,700	-116,805	-0,149	-0,020
-555,685	55,826	-0,129	0,092
-554,671	800,000	-0,036	0,084
-553,656	86,876	0,081	0,065
-552,642	-200,000	-0,018	0,083
-551,627	-200,000	0,008	-0,030
-550,612	-161,334	-0,030	-0,001
-549,598	308,966	-0,061	0,084
-548,583	-70,988	0,097	-0,026
-547,569	-200,000	0,023	-0,136
-546,554	486,728	0,052	-0,087
-545,539	112,244	-0,081	0,071
-544,525	255,992	0,070	0,088
-543,510	-138,736	0,090	0,007
-542,496	-175,830	-0,179	0,003
-541,481	-159,164	-0,119	0,005
-540,466	208,369	0,051	-0,059
-539,452	-200,000	0,024	0,120
-538,437	-200,000	0,014	0,076
-537,423	459,054	0,013	-0,021
-536,408	438,692	-0,066	-0,106
-535,393	-200,000	-0,014	0,127
-534,379	279,792	-0,026	-0,033
-533,364	111,826	-0,061	-0,054
-532,350	800,000	0,029	0,085
-531,335	113,449	0,049	0,043
-530,321	15,444	0,064	-0,036
-529,306	800,000	0,004	-0,012
-528,291	-72,144	-0,106	-0,029
-527,277	-1,318	0,074	-0,038
-526,262	388,824	0,018	-0,027
-525,248	285,776	0,029	-0,038
-524,233	-200,000	0,002	0,050
-523,218	675,908	-0,025	-0,048
-522,204	88,018	0,048	0,039
-521,189	161,247	-0,061	-0,062
-520,175	45,230	-0,034	0,023
-519,160	275,097	0,085	-0,111
-518,145	11,672	0,064	-0,036
-517,131	548,318	-0,082	0,144
-516,116	143,468	0,043	0,042
-515,102	74,012	0,017	0,013
-514,087	152,922	-0,016	-0,016
-513,072	-10,018	-0,073	0,035
-512,058	800,000	-0,047	0,101
-511,043	-170,210	0,126	-0,003
-510,029	-200,000	0,001	-0,005
-509,014	-14,235	-0,120	0,056
-507,999	-22,565	-0,011	-0,005
-506,985	-38,554	-0,055	0,021
-505,970	185,453	-0,095	-0,103
-504,956	-200,000	-0,001	-0,119
-503,941	45,120	0,027	-0,018
-502,926	800,000	0,093	-0,206
-501,912	-70,947	0,016	-0,004
-500,897	-200,000	-0,003	0,080
-499,883	-161,202	0,048	0,002
-498,868	-200,000	0,004	-0,014
-497,853	-44,905	0,227	-0,082
-496,839	800,000	0,016	-0,048
-495,824	-80,284	0,047	0,011
-494,810	85,048	0,057	-0,046
-493,795	-9,573	0,043	0,021
-492,781	678,991	-0,050	-0,095
-491,766	-89,672	-0,038	0,008
-490,751	-119,961	-0,124	-0,015
-489,737	-146,618	0,145	0,009
-488,722	22,701	0,050	-0,030
-487,708	800,000	0,045	0,094
-486,693	-200,000	0,020	0,130
-485,678	419,474	-0,033	-0,051
-484,664	-10,276	-0,064	-0,031
-483,649	-200,000	-0,007	0,098
-482,635	-69,087	0,117	-0,033
-481,620	-140,843	0,043	-0,003
-480,605	358,073	0,063	0,091
-479,591	800,000	0,047	0,128
-478,576	158,503	0,031	0,032
-477,562	12,895	-0,163	-0,091
-476,547	800,000	0,026	-0,066
-475,532	111,097	-0,059	-0,051
-474,518	-188,555	0,092	-0,001
-473,503	89,749	0,078	0,063
-472,489	197,427	-0,115	0,128
-471,474	52,791	-0,114	0,079
-470,459	183,381	0,037	0,040
-469,445	-200,000	0,007	-0,032
-468,430	-72,782	-0,068	0,018
-467,416	22,750	0,162	-0,097
-466,401	56,026	0,078	0,055
-465,386	61,610	-0,041	0,030
-464,372	-200,000	0,001	0,184
-463,357	-118,297	-0,130	-0,017
-462,343	-200,000	0,002	-0,066
-461,328	-116,106	-0,023	0,003
-460,313	-27,677	-0,090	-0,038
-459,299	-165,750	0,129	0,004
-458,284	800,000	0,030	0,083
-457,270	-80,492	-0,152	-0,037
-456,255	19,853	-0,102	0,059
-455,241	800,000	0,019	0,051
-454,226	-6,715	-0,073	-0,036
-453,211	-200,000	-0,011	-0,091
-452,197	321,732	0,060	0,084
-451,182	246,794	0,071	0,087
-450,168	26,400	0,104	0,063
-449,153	-200,000	-0,031	0,188
-448,138	84,848	0,056	0,045
-447,124	646,495	0,011	-0,021
-446,109	434,102	-0,066	-0,104
-445,095	98,376	-0,011	-0,010
-444,080	312,975	0,033	0,045
-443,065	118,695	0,107	0,096
-442,051	-200,000	0,028	-0,104
-441,036	-200,000	-0,024	-0,083
-440,022	800,000	-0,015	-0,047
-439,007	91,044	0,083	0,068
-437,992	-73,970	-0,074	0,019
-436,978	180,612	-0,031	-0,033
-435,963	70,537	-0,106	0,080
-434,949	158,101	0,083	-0,084
-433,934	-39,031	-0,181	-0,069
-432,919	-200,000	-0,002	-0,057
-431,905	281,999	0,065	0,085
-430,890	-200,000	-0,016	0,062
-429,876	-200,000	-0,017	0,079
-428,861	-43,840	0,108	0,039
-427,846	-157,047	-0,108	-0,005
-426,832	-98,932	-0,156	0,029
-425,817	-87,059	0,160	0,035
-424,803	117,960	-0,099	-0,089
-423,788	20,934	0,056	0,033
-422,773	56,422	0,196	0,138
-421,759	-200,000	-0,015	0,085
-420,744	-200,000	-0,014	-0,063
-419,730	-14,142	-0,048	-0,023
-418,715	-111,956	-0,171	-0,025
-417,701	800,000	0,016	-0,044
-416,686	-200,000	-0,013	-0,042
-415,671	122,055	-0,084	0,077
-414,657	0,042	-0,085	-0,044
-413,642	-156,261	0,083	-0,004
-412,628	-88,184	0,140	-0,030
-411,613	-9,133	-0,044	0,021
-410,598	-200,000	-0,023	-0,083
-409,584	-200,000	0,023	-0,078
-408,569	238,598	0,038	0,045
-407,555	-147,508	-0,060	-0,004
-406,540	39,855	0,143	0,093
-405,525	-37,670	0,046	0,018
-404,511	372,591	-0,044	-0,065
-403,496	289,515	0,071	0,094
-402,482	372,053	0,023	0,034
-401,467	-54,351	-0,142	0,047
-400,452	-200,000	-0,011	0,082
-399,438	-200,000	0,016	0,057
-398,423	54,061	-0,080	0,056
-397,409	-53,046	0,069	-0,023
-396,394	212,891	-0,104	-0,119
-395,379	-200,000	-0,004	0,064
-394,365	-200,000	-0,008	0,039
-393,350	505,174	0,055	-0,092
-392,336	260,767	0,084	0,105
-391,321	545,987	-0,109	0,190
-390,306	101,308	-0,037	-0,031
-389,292	-33,299	-0,088	-0,035
-388,277	800,000	0,023	-0,051
-387,263	-81,715	-0,049	0,011
-386,248	800,000	-0,044	0,135
-385,233	59,736	0,163	0,117
-384,219	73,196	0,067	-0,051
-383,204	706,549	0,071	-0,137
-382,190	-9,146	-0,098	-0,048
-381,175	106,349	0,075	-0,064
-380,160	-200,000	0,020	0,089
-379,146	121,081	0,059	0,053
-378,131	800,000	0,008	0,024
-377,117	402,392	-0,011	0,016
-376,102	800,000	0,004	0,011
-375,088	308,249	0,059	-0,080
-374,073	-200,000	-0,008	0,036
-373,058	177,755	0,009	0,009
-372,044	-200,000	0,003	0,022
-371,029	800,000	0,043	0,100
-370,015	348,397	-0,052	0,075
-369,000	-200,000	0,012	-0,120
-367,985	32,934	-0,117	0,074
-366,971	193,869	-0,030	0,033
-365,956	-148,071	0,093	-0,006
-364,942	424,123	-0,084	-0,131
-363,927	-200,000	0,020	0,087
-362,912	230,517	-0,029	0,035
-361,898	50,203	-0,042	-0,029
-360,883	800,000	-0,011	-0,026
-359,869	-134,300	0,056	-0,005
-358,854	800,000	-0,021	0,054
-357,839	800,000	0,036	0,104
-356,825	-200,000	0,014	0,100
-355,810	-30,078	0,060	0,025
-354,796	138,148	0,018	-0,018
-353,781	-47,676	-0,128	-0,045
-352,766	313,180	-0,030	0,041
-351,752	40,195	-0,112	-0,073
-350,737	-50,022	0,029	-0,010
-349,723	-200,000	0,010	0,122
-348,708	800,000	-0,074	0,189
-347,693	800,000	-0,019	0,051
-346,679	36,911	0,045	-0,029
-345,664	-200,000	0,002	0,019
-344,650	354,532	-0,041	-0,060
-343,635	-148,212	-0,081	-0,005
-342,620	-106,466	0,124	0,020
-341,606	24,031	0,036	0,022
-340,591	14,799	-0,039	0,022
-339,577	-124,131	0,115	-0,013
-338,562	-76,533	0,088	0,022
-337,548	62,961	-0,042	0,030
-336,533	27,901	0,075	-0,046
-335,518	-200,000	-0,014	0,174
-334,504	217,671	0,024	-0,028
-333,489	-200,000	0,006	-0,091
-332,475	-200,000	-0,009	-0,029
-331,460	27,136	-0,016	0,010
-330,445	101,137	-0,096	0,081
-329,431	44,665	0,068	-0,045
-328,416	-200,000	-0,005	0,130
-327,402	476,627	0,062	0,101
-326,387	-78,638	-0,106	0,026
-325,372	-13,671	-0,122	-0,057
-324,358	-62,382	0,046	0,014
-323,343	800,000	0,043	-0,109
-322,329	-200,000	-0,003	0,112
-321,314	-32,357	-0,059	0,024
-320,299	-3,458	-0,097	0,049
-319,285	800,000	0,018	0,047
-318,270	774,511	-0,032	-0,063
-317,256	-200,000	0,002	-0,118
-316,241	222,475	-0,062	0,073
-315,226	309,895	0,024	0,032
-314,212	800,000	0,039	0,121
-313,197	169,281	0,059	0,061
-312,183	-78,105	-0,116	-0,029
-311,168	-41,145	0,070	0,026
-310,153	-32,386	0,011	-0,005
-309,139	-135,326	-0,037	-0,003
-308,124	-86,758	0,053	0,012
-307,110	-200,000	0,024	0,159
-306,095	224,878	0,086	0,101
-305,080	-77,885	0,121	0,030
-304,066	-103,769	-0,092	-0,016
-303,051	800,000	0,032	-0,092
-302,037	79,230	-0,044	0,034
-301,022	-200,000	0,000	0,042
-300,008	-200,000	0,035	-0,157
-298,993	-125,166	-0,054	0,006
-297,978	-200,000	-0,006	-0,054
-296,964	83,677	-0,038	0,030
-295,949	800,000	-0,031	0,075
-294,935	754,799	-0,005	-0,010
-293,920	-55,983	-0,037	0,012
-292,905	-200,000	0,002	0,019
-291,891	-200,000	0,021	0,167
-290,876	592,315	0,047	0,084
-289,862	-200,000	0,021	0,115
-288,847	-130,849	-0,129	0,012
-287,832	-58,590	-0,033	-0,010
-286,818	-48,642	-0,088	-0,030
-285,803	96,074	0,047	-0,039
-284,789	800,000	0,026	0,056
-283,774	-200,000	0,021	0,129
-282,759	-200,000	0,001	0,096
-281,745	-100,102	-0,063	0,011
-280,730	-200,000	-0,028	-0,112
-279,716	-200,000	-0,010	-0,073
-278,701	36,631	0,095	0,061
-277,686	49,797	0,088	0,060
-276,672	-200,000	-0,005	0,065
-275,657	-200,000	-0,002	-0,014
-274,643	-112,248	0,058	0,008
-273,628	188,797	-0,134	-0,146
-272,613	80,381	0,053	0,041
-271,599	460,516	0,064	0,104
-270,584	71,266	0,035	-0,027
-269,570	-132,371	0,076	-0,007
-268,555	390,376	-0,047	0,071
-267,540	800,000	0,045	-0,141
-266,526	268,747	0,091	-0,115
-265,511	119,916	0,052	-0,047
-264,497	-200,000	-0,012	-0,067
-263,482	301,019	0,083	0,111
-262,467	800,000	0,028	0,058
-261,453	232,902	-0,016	0,019
-260,438	88,425	-0,048	-0,038
-259,424	28,137	-0,039	-0,024
-258,409	-200,000	-0,013	0,121
-257,395	-200,000	-0,008	-0,049
-256,380	-23,027	0,066	-0,029
-255,365	264,800	0,113	0,142
-254,351	-103,627	0,069	0,012
-253,336	-51,893	-0,090	-0,030
-252,322	200,979	0,080	-0,089
-251,307	-97,428	-0,063	0,012
-250,292	-140,098	-0,119	-0,009
-249,278	218,891	0,032	0,037
-248,263	373,885	-0,075	0,111
-247,249	29,119	0,102	0,063
-246,234	800,000	0,015	-0,045
-245,219	-200,000	-0,030	-0,172
-244,205	800,000	0,039	-0,097
-243,190	-97,177	-0,121	0,023
-242,176	462,187	-0,033	-0,053
-241,161	177,759	-0,022	-0,024
-240,146	-141,547	0,123	0,009
-239,132	308,789	0,042	-0,057
-238,117	-4,275	-0,056	-0,028
-237,103	102,432	-0,114	0,096
-236,088	248,588	0,023	0,028
-235,073	-200,000	-0,008	-0,092
-234,059	29,268	0,032	0,020
-233,044	-50,522	0,031	0,011
-232,030	216,913	0,053	-0,061
-231,015	3,460	0,067	-0,035
-230,000	4,215	-0,124	-0,065
-228,986	-200,000	0,015	0,099
-227,971	800,000	-0,010	-0,021
-226,957	-200,000	-0,007	-0,058
-225,942	-200,000	0,005	-0,082
-224,927	53,314	-0,024	-0,017
-223,913	-200,000	-0,042	-0,133
-222,898	660,300	0,012	-0,023
-221,884	132,677	0,060	-0,056
-220,869	283,071	0,052	-0,067
-219,855	-200,000	-0,010	0,071
-218,840	800,000	-0,084	0,171
-217,825	-39,171	0,082	-0,031
-216,811	30,643	-0,171	-0,105
-215,796	2,207	-0,138	-0,072
-214,782	153,071	0,064	0,064
-213,767	-101,424	0,058	0,010
-212,752	147,916	0,177	0,173
-211,738	620,809	0,018	-0,033
-210,723	338,800	0,059	0,083
-209,709	500,318	-0,041	-0,069
-208,694	-200,000	0,023	-0,152
-207,679	800,000	-0,049	0,150
-206,665	800,000	-0,028	-0,083
-205,650	-4,246	0,047	-0,023
-204,636	-78,114	0,066	0,016
-203,621	800,000	0,025	0,069
-202,606	-48,102	-0,148	-0,051
-201,592	-200,000	-0,006	-0,047
-200,577	800,000	-0,076	-0,154
-199,563	-47,615	-0,060	0,021
-198,548	-166,091	-0,095	0,003
-197,533	330,386	-0,044	0,061
-196,519	229,200	0,067	-0,079
-195,504	-177,555	-0,115	-0,002
-194,490	-200,000	-0,004	-0,092
-193,475	549,254	-0,020	0,035
-192,460	-42,194	0,046	0,017
-191,446	-50,111	0,067	0,023
-190,431	257,381	-0,026	0,032
-189,417	160,163	0,086	-0,087
-188,402	-147,859	0,054	-0,003
-187,387	7,854	-0,138	0,074
-186,373	195,244	-0,093	-0,102
-185,358	182,377	-0,053	0,056
-184,344	-65,781	0,072	-0,021
-183,329	-200,000	-0,010	0,086
-182,315	-200,000	0,030	0,202
-181,300	73,015	0,058	0,044
-180,285	293,744	0,042	-0,055
-179,271	-200,000	-0,005	-0,164
-178,256	96,695	0,050	0,041
-177,242	-200,000	-0,005	0,056
-176,227	60,089	0,078	-0,056
-175,212	-44,451	0,071	-0,026
-174,198	538,953	0,017	-0,029
-173,183	228,447	0,044	-0,052
-172,169	-51,910	0,030	-0,010
-171,154	30,880	-0,091	-0,056
-170,139	800,000	0,016	-0,040
-169,125	225,516	0,046	-0,054
-168,110	434,258	0,035	0,055
-167,096	464,456	0,072	0,117
-166,081	800,000	0,016	0,044
-165,066	800,000	-0,028	-0,076
-164,052	273,671	-0,043	0,054
-163,037	-200,000	-0,004	0,014
-162,023	-146,120	0,132	0,008
-161,008	76,751	0,036	0,028
-159,993	-200,000	0,002	-0,009
-158,979	488,688	-0,065	-0,108
-157,964	163,531	-0,066	-0,067
-156,950	153,242	-0,040	-0,039
-155,935	-148,364	0,133	0,008
-154,920	-109,982	-0,068	0,010
-153,906	800,000	0,060	0,135
-152,891	800,000	0,046	-0,103
-151,877	-11,742	-0,117	0,055
-150,862	-200,000	0,032	-0,104
-149,847	411,684	0,058	-0,089
-148,833	-200,000	-0,022	-0,104
-147,818	-200,000	0,003	0,067
-146,804	-43,004	0,074	-0,027
-145,789	-110,697	-0,009	-0,001
-144,775	-46,810	-0,148	-0,052
-143,760	-200,000	0,001	-0,012
-142,745	590,830	-0,004	0,007
-141,731	-121,674	-0,131	0,015
-140,716	554,018	-0,085	0,147
-139,702	-199,562	-0,044	0,000
-138,687	800,000	0,022	0,062
-137,672	-200,000	-0,024	0,086
-136,658	-104,927	0,049	-0,008
-135,643	104,909	-0,090	0,077
-134,629	388,193	-0,046	0,069
-133,614	-111,203	-0,156	0,023
-132,599	116,905	0,047	0,042
-131,585	800,000	0,032	0,074
-130,570	-92,236	0,076	0,015
-129,556	364,210	-0,131	-0,190
-128,541	-34,475	-0,156	-0,061
-127,526	800,000	-0,043	0,104
-126,512	-200,000	0,016	0,101
-125,497	-200,000	-0,000	0,049
-124,483	80,488	0,033	0,025
-123,468	-13,886	-0,068	0,031
-122,453	0,574	-0,108	0,055
-121,439	356,174	0,067	-0,096
-120,424	-166,317	0,014	0,000
-119,410	21,618	-0,068	-0,039
-118,395	-188,244	0,113	-0,001
-117,380	109,782	0,060	0,051
-116,366	-37,208	0,206	0,079
-115,351	-200,000	0,001	0,024
-114,337	-51,834	-0,176	0,058
-113,322	312,018	-0,014	-0,020
-112,307	87,374	-0,046	-0,037
-111,293	72,827	-0,094	0,070
-110,278	-200,000	-0,003	0,116
-109,264	-200,000	-0,026	0,112
-108,249	210,632	-0,142	0,160
-107,234	-200,000	0,001	0,010
-106,220	437,192	0,039	-0,062
-105,205	-14,449	0,045	-0,021
-104,191	-200,000	-0,028	-0,165
-103,176	196,413	0,088	0,096
-102,162	116,495	-0,067	0,059
-101,147	351,574	0,044	0,063
-100,132	-126,162	0,077	0,008
-99,118	206,795	0,106	0,119
-98,103	-20,765	-0,013	0,006
-97,089	-141,914	0,054	-0,004
-96,074	284,468	0,040	0,052
-95,059	220,847	0,107	0,124
-94,045	-3,427	0,126	-0,063
-93,030	-82,637	-0,048	0,011
-92,016	276,077	0,061	-0,078
-91,001	-200,000	0,013	-0,054
-89,986	1,035	0,036	0,018
-88,972	-15,487	-0,020	-0,009
-87,957	800,000	-0,038	0,095
-86,943	-200,000	-0,044	0,179
-85,928	800,000	-0,026	0,064
-84,913	-9,225	-0,023	0,011
-83,899	-119,306	-0,034	0,004
-82,884	-121,432	0,071	-0,008
-81,870	-112,463	0,057	-0,008
-80,855	-30,748	-0,159	-0,064
-79,840	-93,453	-0,035	0,007
-78,826	800,000	-0,048	-0,099
-77,811	-7,577	0,070	-0,034
-76,797	-44,627	0,069	-0,025
-75,782	800,000	-0,026	0,067
-74,767	800,000	-0,062	0,174
-73,753	-200,000	0,028	0,094
-72,738	-143,891	0,126	-0,008
-71,724	-200,000	0,014	-0,193
-70,709	-36,110	-0,121	0,047
-69,694	72,977	0,098	-0,073
-68,680	62,389	0,062	0,044
-67,665	-200,000	0,022	0,072
-66,651	800,000	-0,050	0,107
-65,636	-181,667	0,046	0,001
-64,622	-152,826	0,101	-0,005
-63,607	-200,000	-0,005	-0,077
-62,592	-200,000	0,002	0,015
-61,578	800,000	-0,046	0,092
-60,563	-104,320	0,214	0,035
-59,549	-200,000	0,010	-0,050
-58,534	20,925	-2,126	-1,233
-57,519	-200,000	-0,073	-0,695
-56,505	-200,000	-1,305	-4,969
-55,490	65,179	0,901	0,652
-54,476	800,000	5,377	12,095
-53,461	-200,000	18,647	317,742
-52,446	800,000	741,345	2335,186
-51,432	558,927	1657,163	2879,618
-50,417	111,091	1641,232	1417,267
-49,403	75,405	1291,086	976,006
-48,388	30,303	1031,613	630,305
-47,373	19,912	994,421	573,134
-46,359	17,402	981,881	557,619
-45,344	14,065	978,142	544,494
-44,330	14,356	976,513	544,524
-43,315	13,753	974,546	541,426
-42,300	13,716	973,624	540,771
-41,286	13,671	972,753	540,117
-40,271	13,656	971,834	539,539
-39,257	13,711	970,793	539,119
-38,242	13,705	969,883	538,574
-37,227	13,721	969,071	538,152
-36,213	13,668	968,114	537,426
-35,198	13,655	967,320	536,921
-34,184	13,695	966,542	536,600
-33,169	13,663	965,558	535,926
-32,154	13,667	964,778	535,485
-31,140	13,662	963,741	534,872
-30,125	13,700	963,131	534,636
-29,111	13,682	962,287	534,088
-28,096	13,704	961,503	533,704
-27,082	13,682	960,973	533,315
-26,067	13,690	960,136	532,857
-25,052	13,690	959,249	532,342
-24,038	13,696	958,548	531,951
-23,023	13,677	958,020	531,577
-22,009	13,689	957,448	531,278
-20,994	13,705	956,799	530,947
-19,979	13,723	956,021	530,554
-18,965	13,700	955,433	530,132
-17,950	13,687	955,004	529,831
-16,936	13,641	954,444	529,352
-15,921	13,636	953,637	528,867
-14,906	13,588	953,003	528,339
-13,892	13,570	952,313	527,880
-12,877	13,588	951,624	527,533
-11,863	13,535	950,879	526,931
-10,848	13,560	950,286	526,662
-9,833	13,644	949,878	526,682
-8,819	13,653	949,143	526,282
-7,804	13,569	948,563	525,672
-6,790	13,579	948,019	525,380
-5,775	13,624	947,479	525,205
-4,760	13,589	946,888	524,745
-3,746	13,623	946,273	524,492
-2,731	13,400	945,547	523,360
-1,717	13,400	944,863	522,960
-0,702	13,358	944,125	522,396
0,313	13,236	943,391	522,392
1,327	16,524	941,108	531,493
2,342	25,611	795,809	473,580
3,356	21,954	460,285	268,274
4,371	-4,977	317,291	156,025
5,386	-9,017	299,190	142,981
6,400	-10,934	293,124	138,148
7,415	-11,160	290,666	136,753
8,429	-11,499	289,035	135,639
9,444	-11,581	288,070	135,092
10,459	-11,483	287,533	134,925
11,473	-11,518	286,850	134,558
12,488	-11,364	286,447	134,508
13,502	-11,479	285,786	134,073
14,517	-11,439	285,393	133,916
15,531	-11,493	284,967	133,651
16,546	-11,320	284,487	133,583
17,561	-11,475	284,134	133,255
18,575	-11,415	283,753	133,122
19,590	-11,453	283,455	132,934
20,604	-11,584	283,169	132,661
21,619	-11,575	282,751	132,462
22,634	-11,471	282,423	132,397
23,648	-11,565	282,344	132,257
24,663	-11,288	281,676	132,199
25,677	-11,412	281,544	132,006
26,692	-11,439	281,235	131,823
27,707	-11,545	281,055	131,626
28,721	-11,576	280,784	131,457
29,736	-11,506	280,557	131,407
30,750	-11,655	280,267	131,116
31,765	-11,422	279,807	131,112
32,780	-11,369	279,617	131,062
33,794	-11,433	279,389	130,882
34,809	-11,551	279,180	130,661
35,823	-11,382	278,847	130,654
36,838	-11,480	278,757	130,507
37,853	-11,505	278,382	130,296
38,867	-11,474	278,194	130,226
39,882	-11,576	278,072	130,060
40,896	-11,481	277,737	129,981
41,911	-11,530	277,413	129,772
42,926	-11,421	277,214	129,771
43,940	-11,639	276,993	129,449
44,955	-11,640	276,719	129,309
45,969	-11,710	276,511	129,134
46,984	-11,741	276,295	128,993
47,999	-11,926	275,964	128,653
49,013	-11,951	275,733	128,510
50,028	-12,049	275,429	128,265
51,042	-12,319	275,203	127,895
52,057	-12,212	274,826	127,808
53,071	-12,044	274,743	127,916
54,086	-11,945	274,423	127,848
55,101	-11,923	274,291	127,796
56,115	-11,846	274,169	127,799
57,130	-11,390	274,022	128,145
58,144	-11,398	273,913	128,075
59,159	-11,371	273,651	127,967
60,174	-11,410	273,475	127,836
61,188	-11,337	273,208	127,768
62,203	-11,445	273,100	127,605
63,217	-11,467	272,806	127,436
64,232	-11,415	272,566	127,362
65,247	-11,399	272,320	127,250
66,261	-11,367	272,023	127,129
67,276	-11,534	271,777	126,849
68,290	-11,691	271,356	126,496
69,305	-11,748	271,161	126,342
70,320	-11,691	271,018	126,315
71,334	-11,576	270,921	126,365
72,349	-11,416	270,720	126,407
73,363	-11,294	270,422	126,369
74,378	-11,437	270,231	126,137
75,393	-11,349	269,884	126,045
76,407	-11,404	269,872	125,977
77,422	-11,391	269,671	125,884
78,436	-11,103	269,341	125,983
79,451	-11,318	268,997	125,614
80,466	-11,463	268,832	125,393
81,480	-11,553	268,595	125,189
82,495	-11,460	268,353	125,151
83,509	-11,422	268,228	125,115
84,524	-11,494	267,852	124,863
85,539	-11,595	267,738	124,707
86,553	-11,641	267,547	124,565
87,568	-11,717	267,488	124,458
88,582	-11,687	267,126	124,305
89,597	-11,420	266,979	124,468
90,611	-11,488	266,844	124,333
91,626	-11,499	266,679	124,234
92,641	-11,310	266,450	124,288
93,655	-11,534	266,219	123,966
94,670	-11,376	265,970	123,982
95,684	-11,498	265,932	123,844
96,699	-11,529	265,657	123,676
97,714	-11,340	265,346	123,690
98,728	-11,458	265,109	123,463
99,743	-11,802	265,013	123,098
100,757	-11,939	264,793	122,861
101,772	-11,511	264,495	123,096
102,787	-11,703	264,408	122,872
103,801	-11,433	264,185	123,000
104,816	-11,556	264,136	122,856
105,830	-11,444	263,815	122,796
106,845	-11,295	263,642	122,838
107,860	-11,416	263,437	122,623
108,874	-11,462	263,178	122,451
109,889	-11,255	262,903	122,496
110,903	-11,461	262,746	122,229
111,918	-11,446	262,427	122,083
112,933	-11,434	262,450	122,093
113,947	-11,432	262,212	121,973
114,962	-11,395	261,945	121,871
115,976	-11,516	261,847	121,708
116,991	-11,473	261,667	121,651
118,006	-11,551	261,575	121,528
119,020	-11,349	261,396	121,613
120,035	-11,294	261,205	121,562
121,049	-11,247	260,935	121,467
122,064	-11,319	260,756	121,310
123,079	-11,231	260,515	121,264
124,093	-11,396	260,328	121,020
125,108	-11,437	260,071	120,855
126,122	-11,599	259,802	120,576
127,137	-11,774	259,562	120,300
128,151	-11,763	259,485	120,263
129,166	-11,414	259,166	120,411
130,181	-11,631	259,116	120,187
131,195	-11,642	258,807	120,023
132,210	-11,520	258,717	120,078
133,224	-11,417	258,575	120,091
134,239	-11,418	258,423	120,009
135,254	-11,339	258,248	119,986
136,268	-11,281	257,686	119,765
137,283	-11,538	257,604	119,492
138,297	-11,704	257,414	119,248
139,312	-11,756	257,333	119,155
140,327	-11,437	257,073	119,301
141,341	-11,184	256,962	119,459
142,356	-11,296	256,795	119,274
143,370	-11,244	256,564	119,201
144,385	-11,217	256,525	119,196
145,400	-11,181	256,336	119,128
146,414	-11,218	256,149	118,998
147,429	-11,020	255,821	119,006
148,443	-11,307	255,818	118,746
149,458	-11,187	255,639	118,757
150,473	-11,299	255,417	118,546
151,487	-11,301	255,228	118,446
152,502	-11,101	254,969	118,488
153,516	-11,151	254,830	118,369
154,531	-11,149	254,748	118,323
155,546	-11,073	254,414	118,223
156,560	-11,107	254,040	118,008
157,575	-11,368	254,029	117,770
158,589	-11,150	253,743	117,813
159,604	-11,341	253,702	117,620
160,619	-11,143	253,575	117,721
161,633	-11,175	253,275	117,543
162,648	-11,243	253,170	117,426
163,662	-11,095	253,070	117,496
164,677	-11,213	252,879	117,295
165,692	-11,110	252,666	117,274
166,706	-11,031	252,409	117,212
167,721	-11,227	252,366	117,014
168,735	-11,089	252,135	117,014
169,750	-11,302	252,077	116,796
170,764	-11,271	251,936	116,746
171,779	-10,958	251,747	116,913
172,794	-10,981	251,487	116,763
173,808	-11,260	251,349	116,452
174,823	-11,679	251,069	115,957
175,837	-11,918	250,956	115,692
176,852	-11,477	250,856	116,009
177,867	-11,178	250,644	116,153
178,881	-11,294	250,488	115,973
179,896	-11,220	250,402	115,985
180,910	-11,172	250,087	115,869
181,925	-11,166	249,916	115,785
182,940	-11,193	249,841	115,717
183,954	-11,238	249,696	115,601
184,969	-10,997	249,517	115,711
185,983	-11,181	249,413	115,498
186,998	-11,122	249,212	115,444
188,013	-11,088	248,932	115,332
189,027	-11,171	248,809	115,196
190,042	-11,142	248,621	115,123
191,056	-11,337	248,465	114,877
192,071	-11,091	248,190	114,945
193,086	-11,077	248,023	114,869
194,100	-11,220	247,785	114,630
195,115	-10,968	247,623	114,755
196,129	-11,093	247,429	114,550
197,144	-11,173	247,302	114,415
198,159	-11,217	247,139	114,293
199,173	-11,362	247,005	114,100
200,188	-11,274	246,756	114,047
201,202	-11,451	246,576	113,808
202,217	-11,344	246,135	113,683
203,232	-11,788	245,984	113,235
204,246	-11,437	246,101	113,570
205,261	-10,898	245,904	113,914
206,275	-11,709	245,465	113,031
207,290	-7,876	247,073	116,944
208,304	0,089	249,806	124,893
209,319	4,489	250,784	129,054
210,334	4,945	250,806	129,434
211,348	4,980	250,773	129,435
212,363	5,229	250,610	129,547
213,377	5,375	250,599	129,652
214,392	5,131	250,191	129,226
215,407	5,176	250,123	129,217
216,421	4,932	249,981	128,929
217,436	5,301	249,855	129,160
218,450	5,328	249,637	129,058
219,465	5,052	249,368	128,678
220,480	4,767	249,228	128,358
221,494	4,832	249,149	128,360
222,509	4,753	248,867	128,138
223,523	4,643	248,644	127,921
224,538	4,405	248,424	127,599
225,553	4,651	248,300	127,727
226,567	4,781	248,204	127,773
227,582	4,695	248,128	127,652
228,596	4,644	247,999	127,533
229,611	4,464	247,691	127,214
230,626	4,219	247,415	126,860
231,640	4,407	247,260	126,923
232,655	4,674	247,127	127,063
233,669	4,463	246,946	126,785
234,684	4,210	246,855	126,520
235,699	4,774	246,621	126,851
236,713	4,872	246,714	126,968
237,728	4,505	246,423	126,506
238,742	4,308	246,067	126,151
239,757	4,297	245,978	126,085
240,772	4,301	245,853	126,013
241,786	4,520	245,604	126,053
242,801	4,174	245,585	125,750
243,815	4,365	245,417	125,809
244,830	4,483	245,312	125,840
245,844	4,628	245,087	125,831
246,859	4,415	244,920	125,560
247,874	4,543	244,757	125,570
248,888	4,509	244,689	125,497
249,903	4,806	244,382	125,569
250,917	4,557	244,445	125,388
251,932	4,916	244,243	125,564
252,947	4,822	244,135	125,421
253,961	4,514	243,982	125,082
254,976	4,706	243,762	125,113
255,990	4,588	243,548	124,897
257,005	4,252	243,318	124,496
258,020	4,141	243,076	124,272
259,034	4,275	243,060	124,361
260,049	4,462	242,957	124,448
261,063	4,439	242,660	124,266
262,078	4,423	242,471	124,145
263,093	4,552	242,465	124,235
264,107	4,658	242,298	124,223
265,122	4,327	242,139	123,866
266,136	4,547	242,095	124,008
267,151	4,677	241,910	124,006
268,166	4,439	241,740	123,717
269,180	4,036	241,635	123,330
270,195	4,950	241,417	123,939
271,209	5,168	241,338	124,062
272,224	4,641	241,113	123,514
273,239	4,277	240,719	123,011
274,253	4,046	240,700	122,806
275,268	4,437	240,692	123,103
276,282	4,536	240,420	123,032
277,297	4,375	240,163	122,761
278,312	4,275	239,962	122,567
279,326	4,456	239,990	122,715
280,341	4,531	239,946	122,741
281,355	4,425	239,678	122,508
282,370	4,527	239,611	122,545
283,384	4,529	239,364	122,409
284,399	4,541	239,141	122,293
285,414	4,224	239,001	121,960
286,428	4,378	238,751	121,944
287,443	4,350	238,770	121,920
288,457	4,592	238,709	122,069
289,472	4,602	238,563	121,992
290,487	4,623	238,280	121,853
291,501	4,309	238,049	121,476
292,516	4,168	237,972	121,316
293,530	4,064	237,799	121,134
294,545	4,482	237,800	121,453
295,560	4,599	237,474	121,367
296,574	3,988	237,390	120,834
297,589	4,496	237,186	121,118
298,603	4,694	237,158	121,248
299,618	4,653	236,997	121,123
300,633	4,821	236,797	121,141
301,647	4,548	236,850	120,944
302,662	5,035	236,672	121,223
303,676	4,922	236,526	121,049
304,691	4,709	236,222	120,716
305,706	4,988	236,199	120,912
306,720	5,047	236,023	120,857
307,735	4,677	235,907	120,499
308,749	4,435	235,662	120,174
309,764	4,627	235,255	120,105
310,779	4,347	235,284	119,891
311,793	3,979	235,141	119,522
312,808	4,110	234,876	119,478
313,822	4,259	234,686	119,486
314,837	4,083	234,554	119,272
315,852	3,975	234,309	119,053
316,866	4,144	234,374	119,207
317,881	4,676	234,198	119,518
318,895	4,982	234,222	119,756
319,910	4,811	234,077	119,539
320,925	4,518	233,798	119,160
321,939	4,293	233,607	118,879
322,954	4,651	233,521	119,100
323,968	4,501	233,477	118,951
324,983	4,436	233,437	118,870
325,997	4,836	233,323	119,109
327,012	4,687	233,142	118,891
328,027	4,640	232,739	118,640
329,041	4,746	232,850	118,767
330,056	5,160	232,797	119,047
331,070	5,132	232,642	118,936
332,085	4,933	232,287	118,591
333,100	4,765	232,032	118,322
334,114	4,607	231,954	118,151
335,129	4,665	231,828	118,121
336,143	4,946	231,719	118,269
337,158	4,882	231,659	118,179
338,173	4,671	231,162	117,754
339,187	4,358	231,231	117,541
340,202	4,769	231,147	117,801
341,216	4,872	230,901	117,743
342,231	4,530	230,656	117,348
343,246	4,516	230,650	117,324
344,260	4,824	230,465	117,453
345,275	4,798	230,528	117,454
346,289	4,732	230,348	117,302
347,304	5,065	230,055	117,395
348,319	4,799	230,057	117,184
349,333	4,759	229,681	116,952
350,348	4,650	229,528	116,781
351,362	4,637	229,538	116,766
352,377	4,458	229,270	116,484
353,392	4,474	229,071	116,384
354,406	4,207	229,013	116,144
355,421	196,836	1316,703	1396,215
356,435	157,947	1449,181	1396,163
