DTS Sentinel unit serial number:	SN410029Multiplexer serial number:	ORYXHardware model number:	OX2-SRSoftware version number:	ORYX F/W v4,00 Oryx Data Collector v3.7.2.0data status	okinstallation	B5 Nyhavnadifferential loss correction	single-endedforward channel	channel 2reverse channel	N/Adate	2023/12/12time	08:22:13forward acquisition time	300,00reverse acquisition time	0,00gamma	499,1914k internal	0,3157k external	0,3157temperature offset calibration	1,0000default loss term (dB/km)	0,3820temperature slope calibration	1,0000multiplexer offset coefficient	1,0000multiplexer slope coefficient	1,0000fibre end	0,00T internal ref (°C)	15,09T ext. ref 1 (°C)	-1,28T ext. ref 2 (°C)	-1,56length (m)	temperature (°C)	Stokes	anti-Stokes-744,400	-30,061	0,190	-0,079
-743,385	-73,124	-0,263	-0,071
-742,371	-61,230	0,092	0,028
-741,356	-91,912	-0,412	0,085
-740,342	237,383	0,116	0,142
-739,327	-155,312	-0,342	0,016
-738,312	133,283	0,073	0,070
-737,298	-126,757	-0,227	-0,024
-736,283	149,185	0,103	-0,103
-735,269	-17,484	-0,345	0,160
-734,254	-94,422	0,167	0,033
-733,239	47,025	-0,410	-0,280
-732,225	-77,499	0,240	-0,061
-731,210	285,531	0,084	0,112
-730,196	800,000	-0,042	-0,126
-729,181	-97,198	-0,076	-0,014
-728,167	359,819	-0,060	0,088
-727,152	150,852	0,045	-0,045
-726,137	710,113	-0,068	-0,134
-725,123	521,781	-0,083	-0,144
-724,108	240,417	-0,106	-0,130
-723,094	800,000	0,020	-0,060
-722,079	-200,000	0,021	-0,210
-721,064	-200,000	-0,001	0,017
-720,050	66,756	0,036	-0,027
-719,035	124,691	-0,012	0,011
-718,021	800,000	-0,026	0,059
-717,006	-130,886	-0,071	-0,007
-715,991	-200,000	-0,015	-0,139
-714,977	270,597	0,069	-0,090
-713,962	-200,000	0,004	-0,083
-712,948	129,056	0,022	-0,020
-711,933	-200,000	0,035	-0,171
-710,918	593,850	0,029	-0,054
-709,904	-11,054	0,023	0,011
-708,889	26,030	-0,077	-0,047
-707,875	800,000	0,015	0,049
-706,860	-35,456	0,093	-0,037
-705,845	-20,356	0,098	0,044
-704,831	-36,637	0,035	0,014
-703,816	174,379	-0,074	-0,079
-702,802	-85,301	0,128	-0,029
-701,787	624,212	-0,038	-0,070
-700,772	142,238	-0,058	-0,057
-699,758	61,700	-0,099	0,073
-698,743	176,924	-0,105	-0,112
-697,729	150,959	0,090	0,091
-696,714	800,000	-0,071	0,155
-695,699	-80,756	-0,064	-0,016
-694,685	800,000	-0,012	0,035
-693,670	-200,000	-0,001	-0,053
-692,656	54,819	0,049	-0,035
-691,641	-200,000	0,023	-0,156
-690,627	-200,000	0,009	-0,053
-689,612	-200,000	0,022	0,102
-688,597	-200,000	-0,008	0,071
-687,583	-4,842	-0,076	-0,038
-686,568	800,000	0,051	-0,116
-685,554	193,935	0,086	-0,096
-684,539	109,094	-0,014	-0,012
-683,524	182,931	-0,109	0,118
-682,510	-200,000	-0,012	0,156
-681,495	136,919	0,041	0,040
-680,481	-200,000	0,014	-0,062
-679,466	11,390	-0,052	-0,029
-678,451	-14,596	-0,095	0,045
-677,437	-109,348	0,075	-0,012
-676,422	-31,984	-0,115	-0,047
-675,408	241,061	-0,089	-0,110
-674,393	29,832	-0,127	0,079
-673,378	-38,561	-0,084	-0,032
-672,364	211,478	-0,051	-0,059
-671,349	-200,000	-0,035	-0,168
-670,335	-95,161	0,053	-0,010
-669,320	-200,000	0,029	-0,132
-668,305	374,386	-0,080	-0,121
-667,291	144,042	0,124	-0,122
-666,276	-68,085	-0,223	0,064
-665,262	800,000	-0,057	-0,149
-664,247	-45,122	-0,185	0,067
-663,232	55,747	0,098	0,070
-662,218	-61,732	0,062	-0,019
-661,203	66,511	-0,067	-0,050
-660,189	136,293	0,126	-0,121
-659,174	-126,150	-0,055	0,006
-658,159	58,728	-0,168	0,121
-657,145	141,415	-0,081	0,079
-656,130	-200,000	-0,021	0,072
-655,116	-179,877	0,099	0,002
-654,101	-118,641	0,046	-0,006
-653,086	-200,000	-0,005	0,016
-652,072	-200,000	0,004	0,073
-651,057	220,096	0,047	-0,056
-650,043	-48,986	-0,066	-0,023
-649,028	-5,359	-0,088	-0,044
-648,014	-53,860	-0,068	0,023
-646,999	71,582	0,127	-0,097
-645,984	-200,000	-0,001	-0,123
-644,970	-96,808	0,027	-0,005
-643,955	-200,000	0,017	-0,058
-642,941	800,000	0,011	-0,032
-641,926	478,568	-0,086	-0,143
-640,911	-125,478	-0,092	0,010
-639,897	-74,561	0,017	0,004
-638,882	257,782	0,053	-0,067
-637,868	267,151	0,037	0,047
-636,853	393,104	-0,093	0,143
-635,838	97,070	0,122	0,103
-634,824	31,695	0,067	-0,042
-633,809	132,200	-0,057	-0,054
-632,795	358,741	-0,054	0,079
-631,780	2,410	0,051	-0,027
-630,765	-76,512	-0,176	0,045
-629,751	800,000	0,006	-0,018
-628,736	800,000	0,077	-0,247
-627,722	164,458	-0,093	-0,096
-626,707	195,125	0,022	0,024
-625,692	800,000	0,025	-0,056
-624,678	70,131	-0,035	-0,027
-623,663	790,354	-0,002	-0,005
-622,649	800,000	-0,027	0,083
-621,634	629,996	-0,044	0,082
-620,619	-200,000	0,030	0,106
-619,605	-153,019	0,100	0,005
-618,590	-93,187	0,107	-0,022
-617,576	309,200	0,117	0,160
-616,561	-200,000	0,040	0,169
-615,546	-75,328	0,088	0,023
-614,532	800,000	0,028	-0,082
-613,517	-50,744	-0,161	-0,055
-612,503	230,059	0,064	-0,077
-611,488	-200,000	-0,018	0,171
-610,474	37,633	0,023	-0,015
-609,459	54,314	-0,035	-0,025
-608,444	-56,794	0,042	-0,014
-607,430	92,671	0,032	0,026
-606,415	767,707	-0,037	0,075
-605,401	-61,824	-0,034	0,010
-604,386	-110,632	-0,101	0,015
-603,371	346,717	0,110	-0,159
-602,357	-200,000	-0,001	0,167
-601,342	137,133	0,036	0,035
-600,328	376,446	0,070	-0,105
-599,313	800,000	0,073	-0,151
-598,298	707,186	0,009	0,017
-597,284	-200,000	0,024	0,113
-596,269	671,613	-0,022	-0,042
-595,255	-95,451	-0,095	-0,018
-594,240	-150,280	-0,095	-0,005
-593,225	800,000	0,031	-0,065
-592,211	35,147	-0,093	0,060
-591,196	-112,780	-0,111	0,016
-590,182	318,851	0,062	-0,087
-589,167	-141,126	0,113	-0,008
-588,152	800,000	-0,031	-0,070
-587,138	800,000	0,040	0,101
-586,123	-46,096	-0,082	-0,029
-585,109	-152,488	-0,050	0,003
-584,094	29,390	-0,125	0,078
-583,079	-87,482	-0,075	-0,017
-582,065	-200,000	-0,021	-0,095
-581,050	0,717	0,134	0,070
-580,036	10,039	0,095	0,052
-579,021	-64,937	0,035	-0,010
-578,006	10,466	-0,114	-0,063
-576,992	707,467	-0,032	-0,062
-575,977	800,000	-0,078	0,200
-574,963	5,748	0,098	0,053
-573,948	-151,926	0,080	0,004
-572,934	528,221	0,019	-0,032
-571,919	254,874	0,105	-0,132
-570,904	-171,261	-0,068	0,002
-569,890	-200,000	0,010	0,035
-568,875	-200,000	-0,001	0,064
-567,861	206,502	0,100	0,114
-566,846	12,341	0,138	0,078
-565,831	-14,383	-0,090	-0,042
-564,817	-125,575	-0,044	0,005
-563,802	225,475	-0,034	0,041
-562,788	55,237	-0,108	0,077
-561,773	800,000	-0,042	0,091
-560,758	59,852	-0,063	0,046
-559,744	280,779	-0,053	0,070
-558,729	108,352	-0,059	-0,052
-557,715	384,942	0,062	-0,093
-556,700	-200,000	0,008	0,040
-555,685	221,863	-0,063	0,074
-554,671	50,921	0,141	0,098
-553,656	407,449	0,030	0,047
-552,642	48,393	0,067	0,046
-551,627	-44,943	0,158	0,057
-550,612	91,437	-0,012	0,010
-549,598	-200,000	-0,020	0,179
-548,583	437,307	0,089	0,142
-547,569	26,710	0,109	-0,067
-546,554	-200,000	-0,017	-0,090
-545,539	-200,000	0,001	0,051
-544,525	49,396	-0,065	-0,045
-543,510	-200,000	-0,033	0,123
-542,496	-200,000	-0,045	-0,155
-541,481	71,039	-0,097	0,073
-540,466	-120,044	0,037	-0,005
-539,452	-200,000	0,016	0,118
-538,437	-61,369	-0,017	0,005
-537,423	9,899	-0,011	0,006
-536,408	74,330	-0,052	0,040
-535,393	-200,000	0,032	-0,135
-534,379	-200,000	-0,013	0,056
-533,364	362,625	-0,053	-0,078
-532,350	150,007	0,096	0,096
-531,335	800,000	0,030	0,070
-530,321	-103,817	-0,025	0,004
-529,306	-200,000	-0,001	0,054
-528,291	107,231	-0,056	-0,049
-527,277	60,386	-0,124	-0,089
-526,262	166,627	-0,020	0,021
-525,248	-76,426	0,068	-0,017
-524,233	-200,000	0,003	0,047
-523,218	244,354	0,086	0,106
-522,204	-150,403	-0,084	0,005
-521,189	-97,447	-0,138	-0,026
-520,175	800,000	-0,034	-0,078
-519,160	295,702	0,037	-0,050
-518,145	-66,834	0,083	-0,024
-517,131	157,648	-0,057	0,058
-516,116	800,000	-0,031	0,094
-515,102	-152,732	-0,068	0,003
-514,087	-168,750	0,019	-0,001
-513,072	-200,000	-0,009	-0,107
-512,058	679,049	-0,022	-0,042
-511,043	514,861	-0,094	0,161
-510,029	-80,983	0,094	-0,023
-509,014	49,432	-0,049	0,033
-507,999	-10,574	-0,043	-0,021
-506,985	-77,266	-0,066	-0,017
-505,970	298,516	-0,098	-0,132
-504,956	-200,000	-0,024	0,123
-503,941	-143,522	-0,011	-0,001
-502,926	547,872	0,053	-0,094
-501,912	800,000	0,043	0,114
-500,897	-200,000	0,010	0,063
-499,883	161,483	-0,038	0,039
-498,868	800,000	-0,017	-0,041
-497,853	-15,961	0,081	0,037
-496,839	26,106	-0,093	-0,057
-495,824	-53,008	0,034	0,011
-494,810	800,000	0,032	-0,088
-493,795	-81,966	-0,163	-0,039
-492,781	800,000	-0,026	0,064
-491,766	800,000	0,043	0,104
-490,751	800,000	0,017	0,036
-489,737	342,003	-0,075	-0,107
-488,722	260,146	-0,093	-0,118
-487,708	-200,000	0,012	-0,150
-486,693	170,050	0,075	-0,078
-485,678	-200,000	-0,013	-0,044
-484,664	358,627	0,065	-0,095
-483,649	-78,949	-0,043	0,011
-482,635	420,085	-0,084	0,132
-481,620	651,950	0,057	0,106
-480,605	19,701	-0,068	-0,040
-479,591	-89,258	0,189	-0,040
-478,576	-200,000	0,003	-0,014
-477,562	162,149	-0,129	0,132
-476,547	-200,000	0,000	0,149
-475,532	800,000	0,058	-0,120
-474,518	636,825	0,073	0,135
-473,503	-46,907	-0,058	0,021
-472,489	617,998	0,069	-0,127
-471,474	800,000	-0,025	0,073
-470,459	-200,000	-0,017	-0,085
-469,445	214,876	-0,110	-0,128
-468,430	-200,000	0,008	-0,096
-467,416	376,053	0,107	0,160
-466,401	-200,000	-0,002	0,087
-465,386	800,000	-0,028	0,071
-464,372	-74,916	-0,073	0,019
-463,357	326,295	-0,038	-0,054
-462,343	-200,000	-0,009	-0,069
-461,328	-71,271	-0,060	0,016
-460,313	-22,831	0,057	0,025
-459,299	-200,000	0,027	0,139
-458,284	81,468	0,015	-0,012
-457,270	243,008	0,047	0,058
-456,255	-117,032	-0,031	0,004
-455,241	71,604	-0,037	0,028
-454,226	53,625	0,039	-0,027
-453,211	19,658	-0,051	-0,030
-452,197	11,475	-0,062	-0,035
-451,182	324,449	0,072	0,101
-450,168	-200,000	-0,000	0,015
-449,153	285,490	-0,059	0,078
-448,138	-200,000	-0,007	-0,055
-447,124	-53,282	-0,133	0,044
-446,109	-200,000	-0,001	0,010
-445,095	800,000	0,054	0,123
-444,080	436,364	0,046	0,074
-443,065	491,135	0,056	0,094
-442,051	-200,000	-0,037	-0,205
-441,036	-125,081	-0,018	0,002
-440,022	800,000	-0,033	-0,094
-439,007	366,274	0,043	-0,063
-437,992	-22,561	0,138	-0,060
-436,978	800,000	-0,009	0,019
-435,963	-200,000	-0,007	-0,120
-434,949	471,675	0,029	-0,047
-433,934	-200,000	-0,004	0,115
-432,919	242,199	0,093	0,113
-431,905	-137,598	0,183	-0,015
-430,890	86,812	-0,053	-0,043
-429,876	190,648	0,044	-0,048
-428,861	-200,000	0,011	0,058
-427,846	-65,910	-0,108	-0,031
-426,832	111,188	-0,127	-0,111
-425,817	800,000	0,055	0,171
-424,803	125,121	0,076	-0,070
-423,788	218,831	0,081	0,094
-422,773	72,688	0,068	-0,051
-421,759	-200,000	0,005	0,199
-420,744	-116,786	-0,150	0,020
-419,730	-25,879	-0,051	0,022
-418,715	-77,581	-0,175	-0,044
-417,701	-193,807	0,072	-0,000
-416,686	-45,937	0,092	-0,033
-415,671	51,782	0,072	0,050
-414,657	800,000	0,036	0,108
-413,642	81,300	-0,132	-0,104
-412,628	594,682	-0,038	-0,070
-411,613	-105,208	-0,131	0,021
-410,598	-159,207	0,178	0,007
-409,584	800,000	0,063	0,148
-408,569	-126,708	-0,139	0,015
-407,555	-200,000	0,002	0,071
-406,540	800,000	-0,022	0,052
-405,525	567,738	-0,106	-0,188
-404,511	-21,328	-0,036	-0,016
-403,496	-200,000	0,002	0,010
-402,482	-200,000	-0,006	-0,104
-401,467	130,963	0,085	-0,079
-400,452	550,635	-0,019	0,033
-399,438	-132,786	0,151	0,014
-398,423	437,659	0,017	-0,026
-397,409	-138,053	-0,070	0,006
-396,394	386,869	-0,046	-0,069
-395,379	212,881	0,067	-0,077
-394,365	56,185	0,051	0,036
-393,350	-200,000	-0,004	0,078
-392,336	800,000	0,024	-0,071
-391,321	800,000	-0,067	-0,147
-390,306	245,317	-0,069	-0,084
-389,292	174,801	-0,072	0,076
-388,277	-200,000	0,024	0,112
-387,263	175,309	0,083	-0,088
-386,248	594,137	0,055	0,099
-385,233	-76,244	-0,024	0,006
-384,219	800,000	-0,049	-0,111
-383,204	800,000	0,018	-0,051
-382,190	753,053	0,008	-0,015
-381,175	-16,779	0,154	-0,071
-380,160	39,347	0,068	-0,044
-379,146	40,000	-0,047	0,031
-378,131	-26,191	0,193	0,082
-377,117	-167,949	-0,170	-0,005
-376,102	-47,053	-0,045	-0,016
-375,088	-120,676	0,044	0,005
-374,073	-165,031	-0,178	0,006
-373,058	94,701	0,115	-0,095
-372,044	-25,533	0,135	0,058
-371,029	707,124	-0,005	-0,010
-370,015	-106,288	-0,093	-0,015
-369,000	429,866	-0,027	-0,042
-367,985	-200,000	0,025	-0,104
-366,971	113,847	-0,091	0,080
-365,956	90,662	-0,061	-0,050
-364,942	684,321	0,020	-0,038
-363,927	284,740	0,056	0,074
-362,912	-82,326	0,062	0,014
-361,898	-36,071	0,102	-0,040
-360,883	-151,328	-0,103	0,006
-359,869	-9,236	-0,026	0,013
-358,854	-95,653	0,164	-0,032
-357,839	-200,000	-0,013	0,046
-356,825	525,266	0,047	0,081
-355,810	-200,000	0,032	-0,183
-354,796	-200,000	0,003	-0,122
-353,781	33,275	0,088	-0,055
-352,766	-9,222	0,015	0,007
-351,752	-151,565	0,216	-0,011
-350,737	-68,844	0,154	-0,043
-349,723	500,867	0,033	0,055
-348,708	-89,236	-0,085	0,018
-347,693	-200,000	-0,008	-0,063
-346,679	800,000	-0,026	-0,063
-345,664	215,334	-0,086	-0,100
-344,650	800,000	0,008	-0,020
-343,635	-139,377	0,090	-0,007
-342,620	-116,167	0,040	-0,005
-341,606	-51,510	0,202	-0,068
-340,591	-200,000	0,027	-0,123
-339,577	-200,000	-0,004	-0,046
-338,562	-118,777	-0,116	0,015
-337,548	89,211	0,059	0,048
-336,533	-56,876	0,115	-0,037
-335,518	132,322	0,102	0,095
-334,504	73,616	0,079	-0,060
-333,489	-9,019	-0,006	0,003
-332,475	-200,000	0,009	0,103
-331,460	-8,003	-0,088	-0,043
-330,445	-131,728	-0,040	-0,004
-329,431	-163,639	-0,107	0,004
-328,416	235,970	0,086	-0,103
-327,402	-55,499	-0,109	-0,035
-326,387	168,838	0,050	-0,051
-325,372	-166,401	0,051	0,002
-324,358	-75,218	-0,113	0,029
-323,343	709,338	0,053	-0,102
-322,329	-78,724	0,056	-0,014
-321,314	-140,539	0,089	-0,007
-320,299	288,647	0,081	-0,107
-319,285	681,973	-0,060	-0,114
-318,270	55,591	0,074	0,052
-317,256	163,129	-0,071	0,073
-316,241	-200,000	-0,010	-0,086
-315,226	55,978	-0,033	-0,024
-314,212	-34,677	0,143	0,056
-313,197	-200,000	-0,009	-0,093
-312,183	4,047	-0,143	0,075
-311,168	65,001	0,058	-0,043
-310,153	-74,685	-0,108	0,028
-309,139	-16,212	0,103	-0,047
-308,124	800,000	-0,026	0,079
-307,110	353,282	0,083	0,120
-306,095	800,000	0,045	0,138
-305,080	-85,306	-0,058	-0,013
-304,066	787,789	-0,059	-0,117
-303,051	372,286	-0,031	-0,046
-302,037	-67,290	0,193	0,055
-301,022	125,781	-0,107	0,098
-300,008	-103,712	-0,063	0,011
-298,993	138,332	-0,007	0,006
-297,978	-151,552	0,067	-0,004
-296,964	15,418	-0,006	0,003
-295,949	-200,000	0,004	-0,140
-294,935	-51,177	-0,045	0,015
-293,920	120,226	-0,066	-0,059
-292,905	96,567	-0,036	-0,029
-291,891	3,382	-0,060	0,032
-290,876	572,382	0,089	0,158
-289,862	-200,000	0,009	0,047
-288,847	-133,808	-0,092	0,008
-287,832	-50,508	-0,200	-0,068
-286,818	-19,268	0,033	0,015
-285,803	-200,000	-0,001	0,085
-284,789	83,914	0,080	0,063
-283,774	-32,276	0,058	0,023
-282,759	-41,046	-0,036	-0,013
-281,745	-47,877	0,062	0,022
-280,730	736,014	-0,044	-0,085
-279,716	304,137	0,061	0,082
-278,701	221,378	0,058	0,068
-277,686	43,700	-0,085	0,056
-276,672	219,454	-0,036	-0,042
-275,657	800,000	-0,047	-0,127
-274,643	-200,000	-0,004	-0,195
-273,628	49,064	-0,080	-0,055
-272,613	800,000	0,009	-0,022
-271,599	-200,000	0,027	0,093
-270,584	-200,000	0,005	0,102
-269,570	-30,348	0,064	0,026
-268,555	-140,613	-0,052	-0,004
-267,540	75,396	-0,083	-0,063
-266,526	-200,000	-0,015	0,100
-265,511	232,453	-0,037	0,044
-264,497	-41,442	0,135	0,050
-263,482	118,698	0,078	0,070
-262,467	-110,739	-0,116	0,017
-261,453	-102,026	-0,013	-0,002
-260,438	-200,000	-0,029	-0,103
-259,424	-200,000	-0,001	-0,021
-258,409	-200,000	0,004	-0,043
-257,395	800,000	0,088	0,182
-256,380	-200,000	0,007	-0,059
-255,365	-34,781	-0,076	0,030
-254,351	-200,000	-0,004	0,109
-253,336	-200,000	-0,014	-0,064
-252,322	-200,000	-0,002	0,051
-251,307	800,000	0,035	0,091
-250,292	800,000	0,059	0,187
-249,278	-200,000	0,020	0,092
-248,263	139,246	0,060	0,057
-247,249	-30,285	0,085	0,035
-246,234	172,186	0,011	-0,011
-245,219	114,402	-0,034	-0,030
-244,205	800,000	-0,066	-0,140
-243,190	-200,000	-0,016	-0,065
-242,176	266,134	0,020	0,025
-241,161	229,397	-0,007	-0,008
-240,146	-103,672	0,113	-0,019
-239,132	-49,333	-0,048	0,016
-238,117	26,531	-0,033	0,020
-237,103	228,655	0,060	-0,071
-236,088	-185,017	0,086	-0,001
-235,073	-9,014	-0,128	-0,062
-234,059	800,000	-0,025	0,078
-233,044	281,984	0,058	0,075
-232,030	337,263	-0,044	-0,062
-231,015	424,741	0,055	0,086
-230,000	107,300	-0,126	0,108
-228,986	-57,639	-0,093	0,029
-227,971	487,584	-0,025	-0,042
-226,957	315,441	0,035	-0,048
-225,942	6,376	0,042	0,023
-224,927	-143,200	-0,046	0,003
-223,913	-200,000	-0,003	0,034
-222,898	8,533	-0,051	-0,028
-221,884	197,152	-0,073	0,081
-220,869	-12,388	0,118	-0,055
-219,855	800,000	0,022	0,061
-218,840	800,000	-0,019	-0,044
-217,825	800,000	0,056	0,139
-216,811	-45,923	-0,105	0,037
-215,796	800,000	0,047	-0,128
-214,782	74,845	0,071	-0,054
-213,767	800,000	0,059	-0,169
-212,752	55,169	-0,056	0,039
-211,738	31,259	-0,117	-0,073
-210,723	281,798	-0,076	0,098
-209,709	94,131	0,044	-0,036
-208,694	32,149	-0,091	-0,056
-207,679	61,099	-0,012	0,008
-206,665	-183,740	-0,091	0,001
-205,650	226,781	0,101	0,119
-204,636	-139,957	0,103	-0,008
-203,621	5,111	-0,077	0,041
-202,606	-55,417	0,063	-0,020
-201,592	800,000	0,055	-0,166
-200,577	180,966	0,097	-0,103
-199,563	-121,509	-0,048	-0,006
-198,548	201,214	0,088	0,097
-197,533	-200,000	0,041	0,132
-196,519	-97,629	-0,073	-0,014
-195,504	-33,161	0,038	-0,015
-194,490	204,451	0,018	-0,020
-193,475	550,141	-0,062	-0,108
-192,460	8,065	-0,032	-0,017
-191,446	-9,291	-0,041	0,020
-190,431	230,171	0,084	0,099
-189,417	43,786	0,061	0,041
-188,402	223,875	-0,067	0,078
-187,387	-200,000	0,011	-0,193
-186,373	800,000	-0,050	0,105
-185,358	800,000	-0,054	-0,130
-184,344	-200,000	-0,012	-0,095
-183,329	335,136	0,030	0,042
-182,315	-14,079	0,080	0,037
-181,300	-122,774	-0,160	0,018
-180,285	800,000	-0,090	-0,208
-179,271	130,320	-0,056	-0,052
-178,256	-200,000	-0,010	0,042
-177,242	800,000	-0,052	0,108
-176,227	-200,000	-0,008	-0,070
-175,212	56,936	-0,145	0,102
-174,198	800,000	0,046	-0,119
-173,183	800,000	-0,055	-0,167
-172,169	77,418	-0,100	-0,077
-171,154	800,000	-0,051	0,143
-170,139	-96,668	0,199	0,037
-169,125	161,443	-0,023	0,024
-168,110	800,000	0,034	0,070
-167,096	800,000	0,011	0,028
-166,081	91,764	-0,057	0,046
-165,066	24,983	-0,106	-0,063
-164,052	-200,000	0,015	-0,076
-163,037	800,000	-0,026	0,054
-162,023	800,000	-0,004	0,011
-161,008	-200,000	-0,012	-0,093
-159,993	79,191	-0,041	-0,032
-158,979	74,668	0,064	-0,049
-157,964	-95,860	-0,085	-0,016
-156,950	81,674	-0,016	-0,012
-155,935	111,860	0,065	-0,056
-154,920	-200,000	0,030	-0,144
-153,906	-20,803	0,113	0,050
-152,891	-143,999	0,089	-0,006
-151,877	-200,000	0,034	-0,137
-150,862	800,000	-0,062	-0,144
-149,847	-200,000	-0,005	0,125
-148,833	-46,415	0,116	0,041
-147,818	-22,702	0,048	0,021
-146,804	-2,483	0,071	-0,036
-145,789	-16,878	0,046	0,021
-144,775	-48,841	0,041	-0,014
-143,760	238,452	-0,065	0,078
-142,745	800,000	0,028	0,088
-141,731	-140,283	0,048	-0,004
-140,716	800,000	-0,067	0,157
-139,702	-155,225	0,120	0,006
-138,687	112,862	0,032	-0,028
-137,672	139,292	-0,025	-0,024
-136,658	-200,000	0,010	0,078
-135,643	-45,181	-0,009	0,003
-134,629	-60,695	0,088	0,027
-133,614	104,755	0,148	0,125
-132,599	-200,000	0,005	0,025
-131,585	668,731	0,019	-0,035
-130,570	-45,588	-0,030	-0,011
-129,556	47,820	0,052	-0,035
-128,541	-200,000	-0,038	-0,170
-127,526	-200,000	-0,014	-0,093
-126,512	583,273	-0,058	-0,102
-125,497	150,873	0,174	0,171
-124,483	-145,308	-0,114	-0,007
-123,468	800,000	-0,046	-0,106
-122,453	787,462	0,076	-0,151
-121,439	234,959	0,016	-0,019
-120,424	8,086	0,076	-0,041
-119,410	-32,674	0,101	-0,040
-118,395	642,733	0,078	-0,143
-117,380	0,626	0,109	0,056
-116,366	95,837	-0,038	-0,031
-115,351	800,000	-0,067	-0,136
-114,337	-89,882	-0,024	0,005
-113,322	-84,493	-0,043	0,010
-112,307	-101,839	0,073	0,013
-111,293	317,447	0,037	0,050
-110,278	-22,500	0,020	-0,009
-109,264	62,371	0,141	0,101
-108,249	800,000	-0,091	-0,248
-107,234	-200,000	-0,011	-0,104
-106,220	35,511	-0,062	0,039
-105,205	-200,000	0,028	0,124
-104,191	240,464	-0,031	0,037
-103,176	-153,014	-0,033	0,002
-102,162	-140,445	-0,042	-0,003
-101,147	415,058	-0,019	0,030
-100,132	800,000	0,021	-0,062
-99,118	-200,000	-0,012	0,079
-98,103	228,600	0,014	0,017
-97,089	799,027	0,038	-0,075
-96,074	-77,215	0,142	-0,035
-95,059	-200,000	0,017	0,101
-94,045	-83,974	-0,162	-0,037
-93,030	800,000	-0,009	0,020
-92,016	800,000	-0,024	-0,054
-91,001	34,388	0,113	0,071
-89,986	62,098	0,055	-0,039
-88,972	-200,000	0,012	-0,044
-87,957	-200,000	0,011	0,044
-86,943	800,000	0,064	0,144
-85,928	193,480	0,100	-0,109
-84,913	459,650	-0,093	0,149
-83,899	55,993	-0,106	-0,074
-82,884	-200,000	-0,010	0,131
-81,870	-46,349	-0,068	-0,024
-80,855	134,267	0,115	-0,107
-79,840	-200,000	0,000	-0,036
-78,826	-36,427	-0,106	0,041
-77,811	261,704	0,130	-0,162
-76,797	-200,000	-0,025	-0,151
-75,782	-5,090	0,111	-0,055
-74,767	800,000	0,030	0,062
-73,753	-145,070	0,034	0,002
-72,738	235,425	0,043	0,051
-71,724	800,000	-0,027	0,085
-70,709	2,919	-0,181	-0,094
-69,694	358,193	-0,034	-0,048
-68,680	31,912	-0,068	0,042
-67,665	-60,382	0,069	0,021
-66,651	498,197	0,051	0,084
-65,636	-200,000	-0,027	-0,098
-64,622	-200,000	0,029	-0,100
-63,607	-200,000	0,007	-0,067
-62,592	-86,065	0,114	0,025
-61,578	421,799	-0,045	0,069
-60,563	194,360	0,036	-0,040
-59,549	-200,000	0,006	0,310
-58,534	13,892	-1,808	-1,007
-57,519	-200,000	-0,187	-0,934
-56,505	-200,000	-1,185	-5,082
-55,490	-19,326	0,879	0,390
-54,476	800,000	5,396	12,207
-53,461	-200,000	17,816	286,882
-52,446	800,000	728,459	2226,023
-51,432	537,164	1644,894	2814,856
-50,417	109,804	1635,522	1407,302
-49,403	75,751	1287,188	975,220
-48,388	31,868	1027,461	633,596
-47,373	20,130	989,185	571,293
-46,359	18,354	976,980	558,403
-45,344	15,402	972,994	546,446
-44,330	15,643	971,455	546,348
-43,315	15,129	969,604	543,605
-42,300	15,057	968,613	542,796
-41,286	15,161	967,385	542,425
-40,271	15,114	966,460	541,731
-39,257	15,178	965,419	541,334
-38,242	15,111	964,729	540,706
-37,227	15,091	963,812	540,108
-36,213	15,136	962,876	539,708
-35,198	15,055	962,128	539,003
-34,184	15,156	961,424	538,915
-33,169	15,050	960,441	537,999
-32,154	15,138	959,523	537,748
-31,140	15,108	958,781	537,216
-30,125	15,135	957,950	536,816
-29,111	15,159	957,009	536,343
-28,096	15,103	956,522	535,870
-27,082	15,167	955,730	535,611
-26,067	15,161	954,991	535,154
-25,052	15,125	954,246	534,600
-24,038	15,101	953,545	534,110
-23,023	15,125	952,884	533,796
-22,009	15,141	952,212	533,449
-20,994	15,123	951,695	533,081
-19,979	15,155	950,916	532,726
-18,965	15,132	950,291	532,280
-17,950	15,135	949,741	531,961
-16,936	15,043	949,164	531,323
-15,921	15,089	948,392	531,015
-14,906	15,033	947,572	530,357
-13,892	15,010	946,939	529,909
-12,877	14,991	946,310	529,477
-11,863	15,011	945,736	529,197
-10,848	15,043	945,087	528,913
-9,833	15,089	944,834	528,897
-8,819	15,036	944,255	528,386
-7,804	15,055	943,500	528,002
-6,790	14,963	943,081	527,454
-5,775	15,085	942,478	527,482
-4,760	15,063	941,681	526,948
-3,746	14,998	941,225	526,465
-2,731	14,843	940,352	525,465
-1,717	14,827	939,770	525,067
-0,702	14,850	939,121	524,757
0,313	14,649	938,597	524,622
1,327	17,983	936,308	533,795
2,342	27,142	793,265	476,482
3,356	23,845	458,650	270,431
4,371	-3,390	314,614	156,537
5,386	-7,651	296,485	143,188
6,400	-9,541	290,291	138,307
7,415	-9,939	287,811	136,721
8,429	-10,079	286,279	135,844
9,444	-10,432	285,481	135,108
10,459	-10,242	284,983	135,045
11,473	-10,159	284,383	134,830
12,488	-10,028	283,712	134,627
13,502	-10,241	283,170	134,152
14,517	-9,992	282,566	134,094
15,531	-10,156	282,146	133,725
16,546	-10,148	281,927	133,617
17,561	-10,270	281,558	133,312
18,575	-10,206	281,234	133,209
19,590	-10,148	280,778	133,037
20,604	-10,132	280,549	132,932
21,619	-10,106	280,127	132,744
22,634	-10,076	279,883	132,646
23,648	-9,974	279,290	132,451
24,663	-10,054	279,172	132,307
25,677	-10,010	278,985	132,248
26,692	-10,379	278,723	131,760
27,707	-10,318	278,486	131,695
28,721	-9,983	278,236	131,883
29,736	-10,213	277,900	131,494
30,750	-10,103	277,453	131,375
31,765	-10,126	277,495	131,361
32,780	-10,108	277,007	131,136
33,794	-10,041	276,738	131,059
34,809	-10,256	276,548	130,755
35,823	-10,344	276,272	130,529
36,838	-10,272	276,053	130,482
37,853	-10,180	275,661	130,372
38,867	-10,329	275,628	130,205
39,882	-10,214	275,376	130,183
40,896	-10,091	275,081	130,146
41,911	-10,168	274,832	129,945
42,926	-10,270	274,672	129,762
43,940	-10,286	274,393	129,604
44,955	-10,257	274,206	129,531
45,969	-10,279	273,916	129,362
46,984	-10,500	273,634	129,011
47,999	-10,607	273,386	128,782
49,013	-10,606	273,126	128,649
50,028	-10,747	272,700	128,307
51,042	-10,813	272,510	128,144
52,057	-10,953	272,459	127,979
53,071	-10,881	272,223	127,924
54,086	-10,693	271,922	127,945
55,101	-10,556	271,768	127,988
56,115	-10,537	271,669	127,947
57,130	-10,129	271,371	128,173
58,144	-10,181	271,334	128,096
59,159	-9,852	271,005	128,233
60,174	-10,095	270,758	127,881
61,188	-10,046	270,598	127,839
62,203	-10,067	270,335	127,684
63,217	-10,055	270,216	127,627
64,232	-10,130	269,935	127,414
65,247	-9,934	269,642	127,445
66,261	-10,011	269,432	127,263
67,276	-10,193	269,148	126,951
68,290	-10,203	268,707	126,723
69,305	-10,593	268,705	126,354
70,320	-10,497	268,687	126,422
71,334	-10,268	268,397	126,483
72,349	-10,055	268,118	126,534
73,363	-9,973	267,817	126,456
74,378	-10,022	267,682	126,336
75,393	-10,043	267,440	126,192
76,407	-10,043	267,188	126,062
77,422	-9,920	266,893	126,022
78,436	-9,831	266,709	126,006
79,451	-10,144	266,572	125,646
80,466	-10,075	266,327	125,581
81,480	-10,177	266,099	125,371
82,495	-10,272	265,891	125,176
83,509	-10,233	265,750	125,134
84,524	-10,250	265,504	124,991
85,539	-10,261	265,191	124,822
86,553	-10,283	265,018	124,711
87,568	-10,177	264,870	124,725
88,582	-10,186	264,777	124,662
89,597	-10,266	264,457	124,428
90,611	-10,207	264,449	124,466
91,626	-9,994	264,178	124,519
92,641	-10,061	263,923	124,327
93,655	-10,098	263,667	124,163
94,670	-10,201	263,575	124,016
95,684	-10,142	263,285	123,921
96,699	-10,002	263,087	123,942
97,714	-10,179	262,874	123,673
98,728	-10,187	262,625	123,537
99,743	-10,470	262,573	123,250
100,757	-10,505	262,178	123,022
101,772	-10,325	262,025	123,100
102,787	-10,185	261,812	123,113
103,801	-10,209	261,633	122,997
104,816	-10,220	261,520	122,923
105,830	-9,891	261,338	123,118
106,845	-10,104	261,233	122,868
107,860	-10,056	260,957	122,770
108,874	-10,297	260,768	122,457
109,889	-10,159	260,553	122,467
110,903	-10,232	260,253	122,251
111,918	-10,078	260,134	122,320
112,933	-10,163	260,019	122,180
113,947	-10,094	259,784	122,120
114,962	-10,035	259,505	122,030
115,976	-10,094	259,375	121,905
116,991	-10,030	259,120	121,831
118,006	-9,845	258,913	121,885
119,020	-10,069	258,816	121,632
120,035	-10,037	258,709	121,599
121,049	-9,977	258,486	121,535
122,064	-10,098	258,351	121,355
123,079	-10,135	258,010	121,153
124,093	-10,213	258,028	121,082
125,108	-10,294	257,689	120,841
126,122	-10,443	257,389	120,560
127,137	-10,420	257,190	120,476
128,151	-10,368	257,078	120,458
129,166	-10,280	257,020	120,496
130,181	-10,306	256,725	120,325
131,195	-10,332	256,282	120,084
132,210	-10,188	256,375	120,242
133,224	-10,074	256,125	120,213
134,239	-10,330	256,105	119,971
135,254	-10,090	255,738	119,996
136,268	-10,138	255,503	119,833
137,283	-10,428	255,374	119,511
138,297	-10,492	255,085	119,311
139,312	-10,433	254,922	119,275
140,327	-10,132	254,704	119,421
141,341	-9,917	254,640	119,566
142,356	-10,066	254,508	119,365
143,370	-10,044	254,313	119,282
144,385	-9,784	254,138	119,413
145,400	-9,838	253,902	119,245
146,414	-9,915	253,868	119,152
147,429	-9,948	253,660	119,016
148,443	-9,959	253,390	118,868
149,458	-9,833	253,267	118,908
150,473	-9,748	252,976	118,834
151,487	-10,010	252,864	118,547
152,502	-10,087	252,740	118,412
153,516	-9,777	252,340	118,478
154,531	-9,778	252,136	118,371
155,546	-9,859	251,991	118,224
156,560	-9,875	251,846	118,131
157,575	-9,972	251,669	117,956
158,589	-9,981	251,499	117,858
159,604	-9,843	251,238	117,842
160,619	-9,876	251,133	117,754
161,633	-9,874	250,989	117,678
162,648	-9,827	250,802	117,620
163,662	-9,746	250,668	117,615
164,677	-9,949	250,580	117,391
165,692	-9,786	250,429	117,448
166,706	-9,809	250,220	117,320
167,721	-9,970	249,952	117,047
168,735	-9,917	249,699	116,963
169,750	-9,886	249,695	116,978
170,764	-9,731	249,632	117,068
171,779	-9,849	249,340	116,821
172,794	-9,839	249,154	116,733
173,808	-9,785	248,933	116,663
174,823	-10,033	248,646	116,310
175,837	-10,355	248,508	115,966
176,852	-9,956	248,487	116,280
177,867	-9,959	248,351	116,204
178,881	-9,760	248,266	116,320
179,896	-9,781	247,994	116,165
180,910	-9,842	247,818	116,020
181,925	-10,038	247,870	115,871
182,940	-10,000	247,608	115,770
183,954	-9,761	247,300	115,815
184,969	-9,873	247,108	115,621
185,983	-9,697	247,049	115,730
186,998	-9,766	246,917	115,600
188,013	-9,665	246,629	115,539
189,027	-9,789	246,469	115,351
190,042	-9,932	246,290	115,138
191,056	-9,835	246,277	115,203
192,071	-9,738	245,928	115,109
193,086	-9,929	245,721	114,844
194,100	-9,779	245,503	114,856
195,115	-9,723	245,432	114,859
196,129	-9,824	245,443	114,770
197,144	-9,773	245,111	114,646
198,159	-9,830	244,781	114,435
199,173	-9,785	244,654	114,403
200,188	-9,843	244,506	114,276
201,202	-10,116	244,222	113,908
202,217	-10,318	243,999	113,628
203,232	-10,393	243,576	113,360
204,246	-9,959	243,715	113,770
205,261	-9,546	243,523	114,008
206,275	-10,294	243,342	113,301
207,290	-7,035	244,825	116,664
208,304	0,177	247,003	123,663
209,319	3,262	247,664	126,536
210,334	3,987	247,757	127,171
211,348	3,847	247,869	127,102
212,363	4,209	247,730	127,318
213,377	4,487	247,428	127,381
214,392	4,416	247,172	127,180
215,407	4,149	247,203	126,964
216,421	4,220	246,975	126,894
217,436	4,319	246,842	126,896
218,450	4,316	246,811	126,866
219,465	4,155	246,569	126,598
220,480	3,950	246,167	126,213
221,494	4,161	246,061	126,320
222,509	3,912	245,923	126,034
223,523	3,879	245,751	125,908
224,538	3,517	245,420	125,430
225,553	3,598	245,279	125,414
226,567	3,740	245,274	125,516
227,582	3,801	245,242	125,538
228,596	3,880	245,037	125,487
229,611	3,571	244,771	125,087
230,626	3,482	244,514	124,872
231,640	3,633	244,443	124,947
232,655	3,642	244,193	124,816
233,669	3,841	243,989	124,862
234,684	3,478	243,869	124,494
235,699	4,023	243,786	124,883
236,713	3,808	243,885	124,749
237,728	3,724	243,536	124,491
238,742	3,433	243,302	124,124
239,757	3,520	242,975	124,017
240,772	3,658	242,769	124,013
241,786	3,783	242,705	124,069
242,801	3,507	242,667	123,816
243,815	3,724	242,491	123,890
244,830	3,773	242,367	123,855
245,844	3,676	242,247	123,705
246,859	3,625	242,013	123,534
247,874	3,580	241,842	123,399
248,888	3,610	241,631	123,305
249,903	3,653	241,473	123,248
250,917	3,825	241,415	123,345
251,932	4,006	241,346	123,444
252,947	3,915	241,027	123,196
253,961	3,397	240,946	122,730
254,976	3,891	240,775	123,027
255,990	3,976	240,718	123,054
257,005	3,608	240,462	122,619
258,020	3,508	240,233	122,411
259,034	3,606	239,916	122,317
260,049	3,808	239,906	122,462
261,063	3,546	239,695	122,135
262,078	3,712	239,600	122,207
263,093	3,687	239,655	122,204
264,107	3,733	239,384	122,092
265,122	3,633	239,137	121,876
266,136	3,799	239,078	121,967
267,151	3,969	238,965	122,033
268,166	3,533	238,581	121,481
269,180	3,334	238,586	121,315
270,195	4,064	238,615	121,897
271,209	4,389	238,469	122,068
272,224	3,721	238,134	121,358
273,239	3,449	237,833	120,980
274,253	3,452	237,883	120,997
275,268	3,603	237,746	121,035
276,282	3,770	237,484	121,023
277,297	3,585	237,304	120,774
278,312	3,708	237,252	120,834
279,326	3,677	236,997	120,668
280,341	3,842	236,932	120,754
281,355	3,582	236,874	120,510
282,370	3,868	236,664	120,617
283,384	3,925	236,428	120,530
284,399	3,622	236,247	120,190
285,414	3,421	236,069	119,931
286,428	3,550	236,001	119,988
287,443	3,587	235,882	119,945
288,457	3,847	235,704	120,047
289,472	3,906	235,604	120,032
290,487	3,792	235,480	119,869
291,501	3,625	235,146	119,558
292,516	3,317	234,952	119,209
293,530	3,252	234,812	119,077
294,545	3,872	234,698	119,490
295,560	3,701	234,676	119,335
296,574	3,359	234,559	119,000
297,589	3,499	234,146	118,889
298,603	3,782	234,331	119,191
299,618	3,902	234,184	119,199
300,633	3,844	233,898	118,997
301,647	3,990	233,924	119,113
302,662	4,212	233,698	119,159
303,676	4,137	233,667	119,075
304,691	4,039	233,451	118,878
305,706	4,166	233,250	118,863
306,720	3,946	233,225	118,670
307,735	4,083	232,834	118,566
308,749	3,659	232,828	118,226
309,764	3,474	232,636	117,976
310,779	3,556	232,320	117,868
311,793	3,593	232,244	117,847
312,808	3,473	232,050	117,646
313,822	3,495	231,818	117,535
314,837	3,287	231,812	117,362
315,852	3,449	231,609	117,373
316,866	3,739	231,461	117,509
317,881	3,985	231,411	117,661
318,895	3,954	231,267	117,554
319,910	4,131	231,181	117,635
320,925	3,661	230,933	117,139
321,939	2,981	230,929	116,609
322,954	3,588	230,645	116,917
323,968	3,847	230,693	117,129
324,983	3,919	230,474	117,061
325,997	4,064	230,177	117,010
327,012	3,685	230,098	116,672
328,027	3,261	229,824	116,201
329,041	3,619	229,856	116,478
330,056	4,209	229,961	116,970
331,070	4,446	229,856	117,085
332,085	4,116	229,512	116,649
333,100	3,993	229,212	116,394
334,114	4,086	228,976	116,333
335,129	3,937	229,016	116,231
336,143	3,914	229,027	116,209
337,158	4,410	228,884	116,501
338,173	4,101	228,573	116,099
339,187	4,122	228,365	115,999
340,202	4,213	228,215	115,980
341,216	4,004	228,128	115,769
342,231	3,811	227,980	115,538
343,246	4,030	227,764	115,583
344,260	4,016	227,797	115,578
345,275	4,249	227,620	115,654
346,289	4,024	227,468	115,398
347,304	4,251	227,298	115,471
348,319	4,032	227,240	115,267
349,333	4,250	226,912	115,253
350,348	3,932	226,817	114,957
351,362	3,998	226,724	114,949
352,377	3,935	226,396	114,725
353,392	3,626	226,210	114,391
354,406	3,648	226,217	114,400
355,421	194,273	1322,790	1395,636
356,435	155,675	1456,372	1395,621
