DTS Sentinel unit serial number:	SN410029Multiplexer serial number:	ORYXHardware model number:	OX2-SRSoftware version number:	ORYX F/W v4,00 Oryx Data Collector v3.7.2.0data status	okinstallation	B5 Nyhavnadifferential loss correction	single-endedforward channel	channel 2reverse channel	N/Adate	2023/12/14time	06:12:13forward acquisition time	300,00reverse acquisition time	0,00gamma	499,1914k internal	0,3158k external	0,3158temperature offset calibration	1,0000default loss term (dB/km)	0,3820temperature slope calibration	1,0000multiplexer offset coefficient	1,0000multiplexer slope coefficient	1,0000fibre end	0,00T internal ref (°C)	7,56T ext. ref 1 (°C)	-8,85T ext. ref 2 (°C)	-8,95length (m)	temperature (°C)	Stokes	anti-Stokes-744,400	-121,934	0,318	0,038
-743,385	-78,629	-0,432	-0,108
-742,371	-52,206	0,172	0,059
-741,356	-179,357	-0,222	0,004
-740,342	124,402	0,109	0,101
-739,327	0,648	-0,298	-0,157
-738,312	15,512	0,154	-0,089
-737,298	-2,287	-0,435	-0,224
-736,283	-164,278	0,221	0,007
-735,269	-171,443	-0,451	-0,011
-734,254	-41,941	0,111	0,042
-733,239	-80,413	-0,558	-0,136
-732,225	-106,086	0,173	-0,028
-731,210	129,827	-0,101	0,095
-730,196	-95,402	-0,145	0,028
-729,181	-80,647	0,061	0,015
-728,167	187,647	-0,063	-0,070
-727,152	175,504	-0,064	0,069
-726,137	-200,000	-0,020	-0,097
-725,123	150,893	-0,064	0,064
-724,108	-35,092	-0,039	-0,016
-723,094	44,493	-0,086	0,058
-722,079	198,277	0,060	-0,068
-721,064	800,000	-0,058	-0,138
-720,050	622,774	0,028	0,052
-719,035	-98,436	0,068	-0,013
-718,021	146,631	-0,040	-0,040
-717,006	291,063	-0,075	-0,101
-715,991	6,458	-0,194	-0,106
-714,977	800,000	0,024	-0,057
-713,962	-200,000	-0,018	0,070
-712,948	800,000	0,038	-0,097
-711,933	94,499	0,037	-0,031
-710,918	72,926	-0,073	0,056
-709,904	536,759	-0,031	-0,054
-708,889	800,000	-0,031	-0,064
-707,875	194,672	-0,061	-0,068
-706,860	-200,000	-0,019	-0,088
-705,845	-200,000	0,026	0,141
-704,831	96,505	-0,076	0,064
-703,816	103,778	-0,036	-0,031
-702,802	800,000	0,005	0,016
-701,787	-200,000	-0,036	0,126
-700,772	438,562	-0,053	0,085
-699,758	-200,000	-0,000	-0,027
-698,743	800,000	0,016	-0,048
-697,729	254,754	0,032	0,040
-696,714	-83,469	0,075	-0,018
-695,699	-90,069	-0,110	0,023
-694,685	79,001	0,100	-0,079
-693,670	-106,619	0,017	0,003
-692,656	44,335	-0,101	-0,068
-691,641	-200,000	0,006	-0,045
-690,627	-43,455	0,076	0,028
-689,612	93,452	-0,055	0,046
-688,597	-49,146	-0,192	0,067
-687,583	364,080	-0,088	-0,130
-686,568	32,005	-0,137	0,087
-685,554	458,117	-0,070	0,114
-684,539	-200,000	0,019	0,151
-683,524	800,000	0,039	0,104
-682,510	-200,000	-0,014	-0,058
-681,495	6,625	-0,044	0,024
-680,481	-52,973	-0,103	-0,035
-679,466	-200,000	0,008	0,092
-678,451	421,823	-0,073	0,116
-677,437	235,153	-0,047	0,058
-676,422	-90,655	-0,142	0,030
-675,408	-27,124	-0,005	0,002
-674,393	161,951	-0,072	0,074
-673,378	800,000	-0,054	-0,147
-672,364	-115,890	-0,071	0,010
-671,349	800,000	-0,039	-0,094
-670,335	800,000	0,045	0,117
-669,320	527,813	-0,046	0,080
-668,305	125,856	0,037	0,034
-667,291	-121,450	0,149	-0,018
-666,276	8,650	-0,122	-0,067
-665,262	-90,670	0,087	0,018
-664,247	-200,000	0,044	0,152
-663,232	64,410	-0,070	0,052
-662,218	310,696	0,041	0,056
-661,203	-70,946	0,006	-0,002
-660,189	-59,686	-0,085	-0,027
-659,174	-200,000	0,036	0,126
-658,159	28,206	-0,112	-0,069
-657,145	359,724	0,023	-0,035
-656,130	800,000	0,036	-0,093
-655,116	-109,658	0,040	0,006
-654,101	800,000	0,018	0,055
-653,086	151,110	-0,018	0,018
-652,072	-200,000	0,014	-0,076
-651,057	100,272	-0,045	0,039
-650,043	800,000	-0,047	-0,102
-649,028	153,744	0,060	-0,060
-648,014	800,000	0,030	-0,063
-646,999	255,563	0,102	0,128
-645,984	-200,000	-0,001	0,077
-644,970	80,227	0,064	-0,051
-643,955	-200,000	-0,011	-0,047
-642,941	76,684	-0,038	-0,030
-641,926	79,141	0,063	0,050
-640,911	-126,189	0,205	0,022
-639,897	389,336	0,066	0,101
-638,882	74,266	-0,200	0,154
-637,868	11,912	0,025	0,014
-636,853	335,759	-0,055	-0,078
-635,838	-53,346	0,066	0,022
-634,824	113,573	0,087	-0,077
-633,809	-200,000	0,024	0,101
-632,795	-83,747	-0,144	-0,033
-631,780	800,000	0,041	0,112
-630,765	-22,976	-0,075	-0,033
-629,751	-200,000	0,025	0,107
-628,736	-124,607	-0,213	-0,024
-627,722	800,000	0,037	-0,115
-626,707	75,822	-0,095	0,073
-625,692	86,600	0,067	-0,054
-624,678	351,031	-0,076	0,111
-623,663	-200,000	0,019	0,111
-622,649	142,568	-0,085	-0,083
-621,634	-114,372	-0,091	0,013
-620,619	-200,000	-0,007	-0,169
-619,605	-27,253	0,077	-0,033
-618,590	-77,469	-0,056	0,014
-617,576	289,029	0,073	-0,097
-616,561	-194,472	0,111	0,001
-615,546	-77,646	-0,056	0,014
-614,532	-200,000	0,009	0,034
-613,517	-62,307	-0,095	-0,029
-612,503	341,671	-0,028	-0,040
-611,488	92,801	0,097	0,080
-610,474	-200,000	-0,038	-0,178
-609,459	315,699	-0,071	-0,098
-608,444	-107,077	-0,045	-0,007
-607,430	-51,996	0,100	0,034
-606,415	800,000	-0,039	-0,100
-605,401	-200,000	-0,008	0,027
-604,386	111,456	-0,074	0,065
-603,371	107,799	-0,052	-0,045
-602,357	-200,000	-0,005	0,075
-601,342	246,880	-0,044	-0,054
-600,328	-74,182	0,029	0,008
-599,313	-200,000	-0,019	0,072
-598,298	196,217	0,106	-0,118
-597,284	141,894	-0,103	0,100
-596,269	-69,345	0,131	-0,037
-595,255	800,000	0,062	0,145
-594,240	82,135	-0,102	0,081
-593,225	-200,000	-0,004	-0,147
-592,211	-200,000	-0,006	-0,037
-591,196	-200,000	0,039	-0,192
-590,182	106,124	0,086	0,075
-589,167	15,784	0,068	-0,039
-588,152	-79,854	0,032	-0,008
-587,138	-79,262	-0,052	-0,013
-586,123	124,080	0,075	0,069
-585,109	-28,017	-0,056	0,024
-584,094	-200,000	0,005	0,043
-583,079	275,073	0,048	-0,063
-582,065	-200,000	0,009	-0,048
-581,050	800,000	-0,008	-0,017
-580,036	-200,000	0,039	0,000
-579,021	-200,000	-0,017	-0,059
-578,006	-166,119	-0,181	-0,006
-576,992	70,073	0,058	0,044
-575,977	-85,047	0,025	-0,006
-574,963	-80,910	0,144	0,035
-573,948	666,515	0,035	-0,067
-572,934	800,000	0,005	0,016
-571,919	160,901	-0,093	-0,095
-570,904	-12,232	-0,052	0,025
-569,890	800,000	-0,037	0,114
-568,875	-58,314	0,113	0,036
-567,861	-112,623	0,078	-0,011
-566,846	-200,000	0,004	-0,035
-565,831	-6,597	0,152	-0,075
-564,817	800,000	0,019	-0,060
-563,802	800,000	0,044	-0,106
-562,788	-200,000	-0,048	-0,164
-561,773	800,000	0,058	-0,166
-560,758	-200,000	-0,012	0,039
-559,744	241,483	0,064	0,078
-558,729	57,026	-0,098	-0,070
-557,715	-200,000	-0,015	-0,123
-556,700	-73,106	-0,064	-0,017
-555,685	-37,860	-0,072	0,028
-554,671	230,254	0,020	0,023
-553,656	-199,118	0,146	-0,001
-552,642	32,684	0,042	0,026
-551,627	528,095	0,042	-0,072
-550,612	173,997	0,057	-0,060
-549,598	672,561	-0,051	0,098
-548,583	800,000	-0,017	-0,040
-547,569	502,157	0,039	0,066
-546,554	-200,000	-0,003	0,073
-545,539	-53,994	0,043	0,014
-544,525	800,000	0,006	-0,016
-543,510	387,107	-0,037	0,056
-542,496	-101,926	-0,110	-0,019
-541,481	56,490	-0,083	0,059
-540,466	68,889	0,025	0,019
-539,452	-76,383	0,141	-0,036
-538,437	37,486	0,087	0,056
-537,423	220,731	-0,013	-0,015
-536,408	-83,768	-0,150	-0,035
-535,393	113,536	0,064	-0,056
-534,379	677,979	-0,011	-0,021
-533,364	-200,000	0,006	0,047
-532,350	-13,152	0,089	-0,042
-531,335	223,383	0,028	-0,033
-530,321	440,754	-0,086	0,138
-529,306	306,690	-0,044	0,060
-528,291	703,759	0,015	0,029
-527,277	-200,000	-0,013	-0,047
-526,262	-153,685	-0,079	-0,004
-525,248	-135,324	0,070	0,006
-524,233	-142,667	0,085	-0,006
-523,218	13,338	-0,059	-0,033
-522,204	-200,000	-0,013	-0,059
-521,189	409,102	-0,028	-0,043
-520,175	16,984	-0,060	-0,034
-519,160	50,781	0,050	0,035
-518,145	-200,000	-0,009	0,149
-517,131	43,446	0,072	0,048
-516,116	800,000	0,023	0,072
-515,102	29,042	0,032	-0,020
-514,087	-200,000	-0,018	-0,061
-513,072	-2,245	-0,145	-0,074
-512,058	-55,951	0,110	-0,036
-511,043	-42,202	0,047	-0,017
-510,029	101,464	-0,179	-0,152
-509,014	0,654	-0,024	-0,013
-507,999	-7,246	0,152	0,075
-506,985	320,407	0,110	0,153
-505,970	-88,337	0,048	0,010
-504,956	-128,325	0,034	-0,003
-503,941	-26,695	-0,125	-0,053
-502,926	81,973	0,049	-0,038
-501,912	9,234	-0,101	0,055
-500,897	-160,666	-0,091	-0,003
-499,883	-121,289	-0,030	0,004
-498,868	-200,000	0,020	-0,096
-497,853	800,000	-0,037	0,084
-496,839	800,000	-0,063	0,186
-495,824	-108,575	0,113	-0,018
-494,810	-46,819	0,132	0,047
-493,795	-200,000	-0,009	-0,044
-492,781	-136,833	-0,143	0,012
-491,766	-200,000	0,000	-0,009
-490,751	489,320	0,047	-0,079
-489,737	-200,000	-0,045	0,147
-488,722	800,000	0,018	0,039
-487,708	800,000	0,041	-0,113
-486,693	348,452	-0,031	-0,044
-485,678	487,311	-0,041	0,069
-484,664	800,000	-0,014	0,044
-483,649	-101,928	-0,040	0,007
-482,635	800,000	-0,027	-0,080
-481,620	-200,000	-0,033	-0,128
-480,605	-57,239	0,106	0,034
-479,591	-80,205	0,100	0,024
-478,576	167,331	0,090	-0,093
-477,562	-65,180	-0,254	-0,074
-476,547	616,756	-0,072	0,132
-475,532	198,364	0,064	-0,072
-474,518	281,247	0,049	-0,064
-473,503	800,000	0,021	0,053
-472,489	-72,605	0,071	0,019
-471,474	-148,630	-0,056	-0,003
-470,459	-200,000	0,000	0,009
-469,445	-200,000	-0,024	-0,211
-468,430	107,751	0,074	-0,064
-467,416	-200,000	-0,043	0,163
-466,401	-117,700	0,190	0,025
-465,386	365,504	-0,054	0,080
-464,372	-200,000	0,034	0,123
-463,357	176,366	-0,030	-0,032
-462,343	-200,000	-0,019	-0,066
-461,328	-200,000	0,013	-0,115
-460,313	-118,993	0,115	-0,014
-459,299	127,004	0,026	-0,024
-458,284	-200,000	0,011	0,040
-457,270	36,049	0,049	0,031
-456,255	-92,979	0,078	-0,016
-455,241	20,202	0,032	-0,019
-454,226	-26,444	0,089	0,038
-453,211	23,782	0,109	-0,066
-452,197	-30,845	0,062	0,025
-451,182	-200,000	0,017	-0,069
-450,168	-117,230	0,064	-0,008
-449,153	659,152	0,011	0,021
-448,138	236,030	-0,084	-0,101
-447,124	385,275	-0,014	-0,021
-446,109	800,000	-0,013	0,034
-445,095	-200,000	-0,003	0,110
-444,080	208,453	0,032	0,036
-443,065	11,701	0,082	-0,046
-442,051	-2,270	0,052	-0,027
-441,036	-200,000	-0,011	-0,077
-440,022	800,000	-0,037	0,083
-439,007	69,072	-0,073	-0,054
-437,992	800,000	-0,026	0,059
-436,978	800,000	0,043	0,104
-435,963	232,522	-0,052	0,063
-434,949	-102,326	0,045	0,008
-433,934	-200,000	-0,030	-0,137
-432,919	162,133	-0,022	0,022
-431,905	-59,574	-0,056	0,017
-430,890	-78,684	0,121	0,030
-429,876	51,095	-0,105	0,072
-428,861	-62,586	-0,085	-0,026
-427,846	-200,000	-0,021	0,102
-426,832	-200,000	0,016	-0,152
-425,817	800,000	0,031	-0,064
-424,803	-118,920	-0,070	0,009
-423,788	-196,309	0,070	-0,000
-422,773	466,294	0,085	0,139
-421,759	-200,000	-0,009	0,081
-420,744	266,994	-0,038	0,049
-419,730	197,124	0,098	-0,109
-418,715	-200,000	-0,025	-0,159
-417,701	800,000	0,058	0,135
-416,686	287,083	-0,051	0,067
-415,671	51,908	0,081	0,056
-414,657	-49,292	0,066	-0,023
-413,642	-140,034	-0,029	-0,002
-412,628	-200,000	0,004	0,063
-411,613	377,802	-0,058	-0,087
-410,598	-200,000	-0,017	0,055
-409,584	-154,326	0,065	0,003
-408,569	-55,097	-0,076	0,025
-407,555	474,879	0,046	0,076
-406,540	-191,438	-0,146	0,001
-405,525	-138,612	-0,101	-0,008
-404,511	-200,000	-0,035	-0,146
-403,496	-72,765	0,024	0,006
-402,482	800,000	-0,013	0,032
-401,467	26,090	0,127	0,077
-400,452	122,537	0,014	0,013
-399,438	136,229	0,064	0,061
-398,423	349,734	-0,067	-0,096
-397,409	-191,984	-0,050	-0,000
-396,394	14,149	-0,163	-0,092
-395,379	-94,129	-0,111	0,022
-394,365	191,554	0,032	0,035
-393,350	-97,735	0,061	-0,011
-392,336	-54,830	-0,067	-0,022
-391,321	195,920	-0,090	-0,099
-390,306	-200,000	0,007	-0,078
-389,292	-200,000	-0,004	0,013
-388,277	800,000	-0,033	0,078
-387,263	295,170	-0,021	-0,028
-386,248	-85,390	0,068	-0,015
-385,233	494,330	0,085	0,142
-384,219	128,449	0,133	-0,124
-383,204	-200,000	-0,013	-0,047
-382,190	-191,880	0,041	0,000
-381,175	800,000	-0,017	0,054
-380,160	-200,000	0,015	-0,166
-379,146	-8,436	0,069	-0,034
-378,131	-200,000	-0,021	0,068
-377,117	-35,250	0,095	0,037
-376,102	121,520	-0,053	-0,048
-375,088	200,589	-0,091	-0,102
-374,073	-126,396	0,154	0,016
-373,058	800,000	-0,041	0,097
-372,044	-6,884	0,178	-0,088
-371,029	-109,064	0,028	0,004
-370,015	800,000	-0,022	-0,046
-369,000	-74,715	-0,043	-0,011
-367,985	-59,790	-0,134	-0,041
-366,971	488,898	-0,034	0,057
-365,956	-87,047	0,169	0,037
-364,942	-200,000	0,008	0,157
-363,927	800,000	-0,025	-0,058
-362,912	97,627	-0,014	-0,012
-361,898	106,341	-0,026	0,022
-360,883	-90,594	-0,121	-0,025
-359,869	-200,000	0,001	0,017
-358,854	-180,112	-0,124	-0,002
-357,839	307,610	0,101	0,138
-356,825	63,418	-0,077	-0,056
-355,810	431,727	0,055	-0,087
-354,796	-200,000	0,029	-0,128
-353,781	79,772	-0,040	0,031
-352,766	285,008	-0,041	-0,054
-351,752	-200,000	-0,002	0,009
-350,737	800,000	0,025	0,076
-349,723	78,507	-0,005	0,004
-348,708	161,385	-0,040	0,041
-347,693	-32,416	-0,118	-0,047
-346,679	800,000	0,017	-0,050
-345,664	-200,000	-0,012	-0,049
-344,650	133,862	0,040	-0,037
-343,635	-200,000	-0,004	0,062
-342,620	800,000	0,003	-0,009
-341,606	-50,536	-0,133	-0,045
-340,591	141,114	0,087	-0,084
-339,577	-30,659	-0,090	-0,037
-338,562	131,426	-0,067	-0,063
-337,548	354,808	-0,021	0,030
-336,533	800,000	-0,070	-0,150
-335,518	13,242	0,092	-0,051
-334,504	717,179	0,049	0,095
-333,489	200,741	-0,084	-0,094
-332,475	-43,806	-0,164	0,060
-331,460	174,286	0,141	-0,148
-330,445	-200,000	0,007	-0,037
-329,431	-184,709	0,159	0,002
-328,416	800,000	-0,033	-0,073
-327,402	75,196	0,110	0,084
-326,387	147,228	-0,051	0,050
-325,372	-198,515	-0,072	0,000
-324,358	234,158	-0,074	-0,088
-323,343	800,000	-0,041	-0,091
-322,329	800,000	-0,035	0,090
-321,314	-200,000	-0,035	0,117
-320,299	-200,000	-0,018	0,140
-319,285	14,605	-0,039	0,022
-318,270	-112,762	-0,063	-0,009
-317,256	360,750	-0,027	-0,040
-316,241	464,723	-0,050	0,082
-315,226	184,821	-0,030	0,033
-314,212	115,246	0,110	0,098
-313,197	383,915	-0,071	0,107
-312,183	-180,015	0,102	-0,002
-311,168	141,466	0,092	0,089
-310,153	-200,000	-0,033	-0,200
-309,139	-200,000	-0,036	0,124
-308,124	-153,842	0,133	0,006
-307,110	-9,941	-0,074	0,035
-306,095	800,000	-0,025	0,078
-305,080	359,656	0,024	0,036
-304,066	168,986	-0,104	-0,108
-303,051	-200,000	-0,001	0,085
-302,037	-200,000	-0,029	0,157
-301,022	-155,164	0,145	0,007
-300,008	29,347	0,063	0,039
-298,993	162,243	0,070	-0,071
-297,978	151,880	-0,062	-0,061
-296,964	-72,861	-0,099	0,026
-295,949	260,300	0,048	0,060
-294,935	422,028	-0,065	-0,101
-293,920	-102,695	0,057	-0,010
-292,905	-73,901	0,053	-0,014
-291,891	420,577	0,007	0,010
-290,876	-63,667	-0,005	-0,001
-289,862	-188,806	-0,124	0,001
-288,847	-200,000	-0,009	-0,059
-287,832	386,489	-0,040	0,061
-286,818	-200,000	-0,009	0,204
-285,803	61,142	0,040	-0,029
-284,789	-200,000	0,025	0,126
-283,774	800,000	-0,006	-0,016
-282,759	351,343	-0,054	-0,077
-281,745	182,307	0,074	0,079
-280,730	158,416	-0,027	0,027
-279,716	-96,836	0,053	-0,010
-278,701	-35,250	0,061	0,024
-277,686	-54,303	0,030	0,010
-276,672	800,000	-0,043	0,126
-275,657	273,900	-0,059	-0,076
-274,643	-28,676	-0,099	0,041
-273,628	800,000	-0,042	-0,124
-272,613	35,624	-0,090	0,057
-271,599	-138,835	0,063	-0,005
-270,584	-192,315	0,092	0,001
-269,570	13,883	-0,080	-0,045
-268,555	-45,787	0,084	0,030
-267,540	-18,766	-0,093	-0,042
-266,526	25,959	-0,093	-0,056
-265,511	-163,197	0,140	-0,005
-264,497	-200,000	0,013	0,067
-263,482	26,042	-0,007	0,004
-262,467	-200,000	0,000	0,091
-261,453	-200,000	0,009	0,041
-260,438	55,896	-0,075	0,052
-259,424	-20,030	-0,060	-0,027
-258,409	-200,000	-0,013	-0,089
-257,395	-126,392	0,066	0,007
-256,380	743,146	-0,040	0,078
-255,365	-51,188	0,133	0,045
-254,351	44,974	-0,093	-0,062
-253,336	-200,000	-0,006	0,059
-252,322	116,712	0,089	-0,079
-251,307	-4,863	-0,075	-0,037
-250,292	91,732	0,079	0,064
-249,278	38,743	0,054	0,035
-248,263	-200,000	-0,014	0,202
-247,249	259,825	0,049	0,062
-246,234	-175,107	-0,107	-0,002
-245,219	800,000	0,028	0,089
-244,205	367,553	-0,036	0,053
-243,190	-200,000	0,005	0,045
-242,176	800,000	0,020	0,057
-241,161	-12,975	-0,056	-0,026
-240,146	-64,253	0,052	0,015
-239,132	287,354	-0,058	0,076
-238,117	527,993	-0,043	0,074
-237,103	-81,772	0,090	0,021
-236,088	-155,252	-0,097	-0,004
-235,073	-200,000	-0,002	-0,056
-234,059	307,367	0,108	0,145
-233,044	269,825	0,040	0,051
-232,030	-178,033	-0,157	-0,003
-231,015	15,949	-0,053	0,030
-230,000	-3,478	0,147	-0,073
-228,986	437,205	-0,020	-0,032
-227,971	124,845	0,094	0,085
-226,957	-200,000	-0,006	-0,085
-225,942	-167,735	0,018	0,001
-224,927	-200,000	0,102	0,000
-223,913	-32,829	0,070	0,028
-222,898	82,665	-0,158	-0,124
-221,884	224,781	0,044	-0,052
-220,869	369,344	-0,048	0,070
-219,855	800,000	0,035	-0,084
-218,840	5,745	-0,078	0,041
-217,825	-169,422	0,053	0,001
-216,811	161,387	0,039	-0,040
-215,796	365,290	-0,001	-0,002
-214,782	-30,446	-0,063	0,026
-213,767	248,776	0,093	0,113
-212,752	800,000	-0,058	0,120
-211,738	-61,464	0,077	0,023
-210,723	95,026	0,041	0,034
-209,709	800,000	-0,050	-0,150
-208,694	-200,000	-0,007	-0,065
-207,679	37,726	-0,081	0,052
-206,665	-200,000	-0,004	-0,033
-205,650	35,144	0,076	-0,048
-204,636	-162,172	0,060	0,002
-203,621	-20,041	-0,072	-0,032
-202,606	-200,000	-0,025	-0,090
-201,592	736,126	-0,074	0,144
-200,577	64,670	0,157	-0,114
-199,563	18,794	0,030	-0,017
-198,548	-126,626	-0,134	0,014
-197,533	228,507	-0,091	0,107
-196,519	200,633	-0,051	0,056
-195,504	553,018	-0,022	0,039
-194,490	293,952	-0,085	-0,113
-193,475	647,565	-0,013	-0,025
-192,460	800,000	-0,024	-0,057
-191,446	-200,000	0,043	-0,178
-190,431	204,727	0,051	0,057
-189,417	-76,718	-0,009	0,002
-188,402	-200,000	0,007	0,101
-187,387	-173,851	-0,085	-0,002
-186,373	-200,000	0,014	-0,058
-185,358	-0,845	0,044	0,022
-184,344	-99,158	-0,145	-0,026
-183,329	-159,102	0,169	0,007
-182,315	156,805	-0,026	-0,026
-181,300	-140,285	0,040	0,003
-180,285	61,795	-0,070	-0,050
-179,271	23,467	0,097	-0,057
-178,256	-67,867	-0,114	-0,032
-177,242	-167,434	0,067	0,002
-176,227	73,982	-0,018	0,014
-175,212	-200,000	-0,004	-0,131
-174,198	-200,000	-0,039	0,131
-173,183	-200,000	-0,076	0,000
-172,169	202,045	-0,028	-0,031
-171,154	-63,428	0,086	-0,025
-170,139	-200,000	0,003	0,067
-169,125	-58,293	-0,200	-0,062
-168,110	-200,000	-0,008	-0,082
-167,096	140,815	0,026	-0,025
-166,081	-200,000	-0,016	0,106
-165,066	56,961	-0,167	-0,117
-164,052	28,090	0,153	-0,093
-163,037	800,000	-0,025	0,067
-162,023	-200,000	0,020	0,114
-161,008	-200,000	-0,026	0,126
-159,993	-82,782	-0,087	-0,020
-158,979	85,338	-0,112	-0,088
-157,964	26,358	0,056	-0,034
-156,950	-87,894	0,101	-0,022
-155,935	380,847	-0,019	-0,029
-154,920	-176,329	0,080	0,001
-153,906	340,945	-0,024	-0,033
-152,891	-75,811	0,061	0,015
-151,877	233,785	-0,033	-0,039
-150,862	240,853	0,053	-0,063
-149,847	800,000	-0,042	-0,126
-148,833	-189,903	0,132	0,001
-147,818	800,000	-0,033	-0,072
-146,804	-112,523	0,114	0,016
-145,789	620,920	0,028	0,052
-144,775	11,499	-0,065	-0,036
-143,760	-65,037	-0,050	0,015
-142,745	-147,970	-0,142	-0,008
-141,731	-48,886	0,045	0,015
-140,716	-151,333	-0,130	0,007
-139,702	-200,000	-0,004	-0,086
-138,687	552,638	0,022	0,038
-137,672	800,000	-0,099	0,198
-136,658	-54,520	-0,059	-0,019
-135,643	176,541	-0,091	0,095
-134,629	-146,721	-0,082	-0,005
-133,614	14,918	-0,073	0,041
-132,599	-200,000	-0,005	0,084
-131,585	39,518	0,099	0,064
-130,570	-130,434	-0,152	0,015
-129,556	-134,122	0,006	0,001
-128,541	-96,278	-0,043	0,008
-127,526	499,141	-0,053	-0,089
-126,512	-200,000	0,009	0,080
-125,497	-200,000	0,005	-0,093
-124,483	-143,030	0,053	-0,004
-123,468	800,000	-0,033	0,071
-122,453	-13,794	-0,036	0,016
-121,439	291,792	-0,077	-0,102
-120,424	184,947	0,074	-0,079
-119,410	109,944	0,064	0,055
-118,395	-5,142	0,155	0,076
-117,380	62,348	-0,059	0,042
-116,366	-200,000	-0,012	0,108
-115,351	-200,000	0,027	0,098
-114,337	29,586	-0,124	-0,076
-113,322	-5,798	-0,054	0,027
-112,307	-200,000	-0,025	0,159
-111,293	381,574	0,052	0,077
-110,278	101,311	0,116	0,097
-109,264	-200,000	0,006	0,065
-108,249	-78,990	0,076	-0,018
-107,234	212,862	-0,098	-0,112
-106,220	-200,000	0,012	-0,229
-105,205	-200,000	-0,023	-0,098
-104,191	-43,174	0,121	-0,044
-103,176	800,000	-0,049	-0,116
-102,162	-200,000	0,010	0,054
-101,147	250,136	-0,029	-0,036
-100,132	562,780	-0,058	-0,102
-99,118	800,000	0,031	-0,082
-98,103	746,039	0,027	0,053
-97,089	800,000	-0,045	0,102
-96,074	-200,000	-0,001	0,109
-95,059	329,339	-0,041	0,056
-94,045	312,565	0,086	0,117
-93,030	800,000	-0,010	0,020
-92,016	-200,000	-0,010	-0,042
-91,001	209,897	0,101	-0,114
-89,986	-92,965	0,084	-0,017
-88,972	263,524	0,023	0,029
-87,957	-192,725	0,074	-0,000
-86,943	-200,000	-0,005	-0,038
-85,928	221,258	0,073	-0,085
-84,913	-107,154	-0,044	-0,007
-83,899	242,285	-0,060	-0,073
-82,884	16,982	0,209	-0,119
-81,870	-101,238	0,160	0,028
-80,855	328,827	0,119	-0,165
-79,840	285,932	0,070	0,091
-78,826	-200,000	0,002	-0,041
-77,811	-200,000	-0,014	-0,099
-76,797	6,154	0,111	0,059
-75,782	800,000	0,037	-0,084
-74,767	37,987	0,083	0,053
-73,753	585,344	0,083	-0,148
-72,738	-200,000	-0,003	0,038
-71,724	-125,160	-0,144	-0,016
-70,709	-200,000	0,008	-0,031
-69,694	38,058	-0,111	-0,070
-68,680	61,234	-0,025	-0,018
-67,665	10,031	0,046	0,025
-66,651	-200,000	-0,035	0,139
-65,636	800,000	0,042	0,123
-64,622	-200,000	0,004	-0,055
-63,607	-12,358	-0,063	0,029
-62,592	-138,092	0,089	0,007
-61,578	42,330	0,051	0,033
-60,563	-200,000	-0,013	0,125
-59,549	-55,265	-0,094	-0,030
-58,534	72,956	-2,737	-2,050
-57,519	126,558	0,329	-0,299
-56,505	-200,000	-1,706	-5,556
-55,490	719,771	1,085	2,080
-54,476	800,000	5,296	11,380
-53,461	-200,000	22,545	348,847
-52,446	800,000	763,412	2280,729
-51,432	505,200	1645,082	2744,531
-50,417	94,931	1604,255	1309,422
-49,403	63,150	1261,432	905,717
-48,388	22,109	1014,011	592,308
-47,373	19,081	981,282	563,213
-46,359	12,427	968,329	534,071
-45,344	8,234	965,152	518,611
-44,330	8,625	963,242	518,841
-43,315	7,690	961,395	514,778
-42,300	7,636	960,265	513,979
-41,286	7,577	959,536	513,378
-40,271	7,534	958,458	512,639
-39,257	7,613	957,322	512,267
-38,242	7,569	956,504	511,668
-37,227	7,581	955,777	511,296
-36,213	7,541	954,903	510,678
-35,198	7,578	954,060	510,327
-34,184	7,643	953,083	509,995
-33,169	7,597	952,170	509,337
-32,154	7,631	951,328	508,977
-31,140	7,629	950,690	508,609
-30,125	7,688	949,801	508,302
-29,111	7,622	949,114	507,703
-28,096	7,626	948,457	507,344
-27,082	7,685	947,654	507,083
-26,067	7,621	947,072	506,547
-25,052	7,563	946,202	505,876
-24,038	7,617	945,577	505,693
-23,023	7,561	944,889	505,127
-22,009	7,584	944,289	504,862
-20,994	7,612	943,710	504,619
-19,979	7,558	943,136	504,120
-18,965	7,568	942,351	503,714
-17,950	7,561	941,872	503,415
-16,936	7,557	941,170	503,007
-15,921	7,543	940,582	502,628
-14,906	7,500	939,779	502,042
-13,892	7,545	939,228	501,871
-12,877	7,396	938,934	501,218
-11,863	7,476	937,930	500,917
-10,848	7,460	937,470	500,600
-9,833	7,567	936,829	500,577
-8,819	7,515	936,311	500,118
-7,804	7,478	935,602	499,600
-6,790	7,466	935,023	499,236
-5,775	7,509	934,550	499,099
-4,760	7,493	934,022	498,745
-3,746	7,528	933,274	498,439
-2,731	7,395	932,808	497,748
-1,717	7,368	931,965	497,194
-0,702	7,344	931,433	496,814
0,313	7,231	930,757	496,849
1,327	10,499	928,304	505,764
2,342	18,982	776,314	445,093
3,356	13,814	445,235	247,514
4,371	-12,145	310,598	145,222
5,386	-15,870	293,297	133,375
6,400	-17,859	287,148	128,608
7,415	-18,052	284,647	127,288
8,429	-18,822	282,832	125,718
9,444	-18,828	281,856	125,267
10,459	-18,611	281,238	125,191
11,473	-18,871	280,794	124,732
12,488	-18,718	280,164	124,587
13,502	-18,828	279,744	124,284
14,517	-18,762	279,310	124,144
15,531	-18,643	278,865	124,049
16,546	-18,495	278,591	124,057
17,561	-18,537	278,110	123,792
18,575	-18,399	277,849	123,796
19,590	-18,421	277,282	123,511
20,604	-18,488	277,253	123,424
21,619	-18,452	276,879	123,281
22,634	-18,428	276,426	123,091
23,648	-18,538	276,186	122,868
24,663	-18,421	275,966	122,871
25,677	-18,411	275,570	122,692
26,692	-18,397	275,454	122,643
27,707	-18,455	275,058	122,402
28,721	-18,232	274,764	122,469
29,736	-18,302	274,454	122,255
30,750	-18,456	274,260	122,013
31,765	-18,508	274,010	121,842
32,780	-18,593	273,747	121,634
33,794	-18,493	273,700	121,696
34,809	-18,471	273,353	121,552
35,823	-18,485	273,068	121,401
36,838	-18,606	272,830	121,171
37,853	-18,539	272,555	121,101
38,867	-18,413	272,379	121,129
39,882	-18,363	272,053	121,020
40,896	-18,374	271,745	120,862
41,911	-18,539	271,632	120,648
42,926	-18,510	271,361	120,544
43,940	-18,407	271,047	120,489
44,955	-18,517	270,917	120,319
45,969	-18,306	270,632	120,376
46,984	-18,280	270,482	120,323
47,999	-18,271	270,339	120,257
49,013	-18,179	270,137	120,241
50,028	-18,271	269,860	120,023
51,042	-18,170	269,474	119,933
52,057	-18,160	269,270	119,841
53,071	-18,383	269,260	119,620
54,086	-18,166	268,911	119,654
55,101	-18,176	268,777	119,574
56,115	-18,392	268,462	119,225
57,130	-18,572	268,203	118,935
58,144	-18,426	267,852	118,903
59,159	-18,521	267,691	118,734
60,174	-18,483	267,432	118,643
61,188	-18,402	267,194	118,600
62,203	-18,471	266,941	118,415
63,217	-18,271	266,703	118,481
64,232	-18,283	266,429	118,337
65,247	-18,450	266,232	118,088
66,261	-18,495	265,958	117,914
67,276	-18,372	265,936	118,007
68,290	-18,535	265,603	117,700
69,305	-18,304	265,484	117,846
70,320	-18,249	265,197	117,758
71,334	-18,268	264,986	117,636
72,349	-18,366	264,709	117,415
73,363	-18,337	264,393	117,290
74,378	-18,238	264,207	117,287
75,393	-18,393	264,179	117,124
76,407	-18,269	263,804	117,058
77,422	-18,421	263,584	116,814
78,436	-18,319	263,229	116,738
79,451	-18,507	263,146	116,522
80,466	-18,374	262,819	116,486
81,480	-18,364	262,638	116,404
82,495	-18,287	262,466	116,386
83,509	-18,192	262,201	116,344
84,524	-18,239	262,022	116,212
85,539	-18,382	261,934	116,034
86,553	-18,224	261,597	116,016
87,568	-18,325	261,459	115,854
88,582	-18,379	261,217	115,689
89,597	-18,133	260,833	115,727
90,611	-18,343	260,827	115,527
91,626	-18,307	260,634	115,464
92,641	-18,327	260,350	115,310
93,655	-18,265	260,164	115,272
94,670	-18,336	260,024	115,137
95,684	-18,314	259,756	115,028
96,699	-18,435	259,555	114,821
97,714	-18,290	259,483	114,908
98,728	-18,313	259,211	114,756
99,743	-18,327	259,162	114,712
100,757	-18,355	258,874	114,549
101,772	-18,247	258,515	114,475
102,787	-18,430	258,297	114,208
103,801	-18,418	258,159	114,147
104,816	-18,429	257,999	114,056
105,830	-18,409	257,906	114,023
106,845	-18,450	257,735	113,901
107,860	-18,398	257,333	113,759
108,874	-18,320	257,120	113,723
109,889	-18,200	256,883	113,712
110,903	-18,594	256,729	113,291
111,918	-18,356	256,600	113,432
112,933	-18,487	256,393	113,216
113,947	-18,207	256,114	113,325
114,962	-18,300	255,986	113,178
115,976	-18,315	255,771	113,060
116,991	-18,254	255,507	112,986
118,006	-18,329	255,321	112,829
119,020	-18,427	255,112	112,641
120,035	-18,345	255,097	112,696
121,049	-18,336	254,677	112,508
122,064	-18,357	254,593	112,443
123,079	-18,339	254,316	112,326
124,093	-18,298	254,127	112,267
125,108	-18,344	253,878	112,108
126,122	-18,212	253,811	112,183
127,137	-18,010	253,470	112,196
128,151	-18,134	253,370	112,034
129,166	-18,401	253,178	111,710
130,181	-18,317	252,959	111,675
131,195	-18,407	252,713	111,480
132,210	-18,393	252,530	111,401
133,224	-18,320	252,281	111,344
134,239	-18,430	252,168	111,190
135,254	-18,306	251,960	111,195
136,268	-18,250	251,732	111,132
137,283	-18,282	251,487	110,986
138,297	-18,094	251,317	111,062
139,312	-18,157	251,181	110,938
140,327	-18,359	251,012	110,681
141,341	-18,416	250,825	110,541
142,356	-18,090	250,447	110,641
143,370	-18,243	250,288	110,432
144,385	-18,291	250,256	110,366
145,400	-18,495	249,986	110,064
146,414	-18,198	249,806	110,227
147,429	-18,246	249,624	110,096
148,443	-18,174	249,489	110,088
149,458	-18,376	249,223	109,790
150,473	-18,326	249,075	109,757
151,487	-18,419	248,912	109,597
152,502	-18,209	248,745	109,691
153,516	-18,265	248,525	109,537
154,531	-18,311	248,351	109,411
155,546	-18,399	248,037	109,190
156,560	-18,182	247,899	109,301
157,575	-18,222	247,843	109,233
158,589	-18,282	247,540	109,040
159,604	-18,414	247,526	108,913
160,619	-18,293	247,084	108,811
161,633	-18,144	246,962	108,872
162,648	-18,148	246,840	108,805
163,662	-18,291	246,691	108,611
164,677	-18,259	246,507	108,546
165,692	-18,216	246,353	108,504
166,706	-18,307	246,201	108,352
167,721	-18,039	245,911	108,437
168,735	-18,104	245,827	108,337
169,750	-18,155	245,528	108,153
170,764	-18,329	245,589	108,026
171,779	-18,119	245,192	108,015
172,794	-18,072	245,158	108,030
173,808	-18,270	245,049	107,808
174,823	-18,122	244,890	107,851
175,837	-17,918	244,594	107,880
176,852	-18,209	244,555	107,612
177,867	-17,928	244,194	107,676
178,881	-18,143	244,108	107,451
179,896	-18,186	244,034	107,374
180,910	-18,205	243,629	107,170
181,925	-18,319	243,655	107,078
182,940	-18,349	243,413	106,937
183,954	-18,316	243,202	106,862
184,969	-18,206	243,085	106,892
185,983	-18,301	242,964	106,751
186,998	-18,219	242,791	106,733
188,013	-18,371	242,480	106,462
189,027	-18,135	242,354	106,590
190,042	-18,192	242,232	106,480
191,056	-18,306	242,010	106,281
192,071	-18,442	241,918	106,119
193,086	-18,278	241,693	106,145
194,100	-18,322	241,361	105,954
195,115	-18,172	241,295	106,038
196,129	-18,094	241,071	105,993
197,144	-18,387	240,799	105,626
198,159	-18,436	240,733	105,548
199,173	-18,032	240,497	105,762
200,188	-18,321	240,333	105,446
201,202	-18,208	240,234	105,486
202,217	-18,073	240,024	105,493
203,232	-18,002	239,762	105,426
204,246	-18,345	239,625	105,080
205,261	-18,492	239,360	104,835
206,275	-17,087	239,773	106,143
207,290	-12,713	241,634	110,516
208,304	-5,937	243,476	116,895
209,319	-2,195	244,624	120,505
210,334	-1,066	244,775	121,494
211,348	-0,058	244,962	122,402
212,363	0,166	244,952	122,569
213,377	0,245	244,893	122,594
214,392	0,527	244,806	122,769
215,407	0,974	244,672	123,057
216,421	1,069	244,520	123,047
217,436	1,261	244,290	123,077
218,450	1,323	244,311	123,127
219,465	1,398	244,059	123,050
220,480	1,164	244,185	122,912
221,494	1,008	243,650	122,506
222,509	0,743	243,507	122,206
223,523	0,877	243,169	122,135
224,538	0,489	243,014	121,731
225,553	0,452	242,959	121,663
226,567	0,469	242,715	121,544
227,582	0,483	242,643	121,508
228,596	0,462	242,424	121,371
229,611	0,607	242,288	121,409
230,626	0,478	242,050	121,175
231,640	0,552	242,007	121,202
232,655	0,369	241,819	120,950
233,669	0,619	241,514	120,988
234,684	0,414	241,507	120,808
235,699	0,468	241,283	120,729
236,713	0,441	241,143	120,626
237,728	0,625	241,011	120,698
238,742	0,118	240,837	120,192
239,757	0,453	240,668	120,367
240,772	0,575	240,427	120,333
241,786	0,468	240,376	120,211
242,801	0,715	240,124	120,272
243,815	0,459	240,047	120,018
244,830	0,480	239,901	119,951
245,844	0,544	239,721	119,901
246,859	0,595	239,639	119,890
247,874	0,550	239,419	119,733
248,888	0,465	239,200	119,545
249,903	0,355	239,266	119,480
250,917	0,628	238,957	119,532
251,932	0,477	238,850	119,349
252,947	0,737	238,573	119,406
253,961	0,492	238,569	119,198
254,976	0,560	238,249	119,082
255,990	0,656	238,126	119,086
257,005	0,756	237,968	119,075
258,020	0,318	237,931	118,699
259,034	0,629	237,561	118,750
260,049	0,729	237,471	118,774
261,063	0,573	237,308	118,558
262,078	0,274	237,310	118,313
263,093	0,360	237,107	118,269
264,107	0,549	236,970	118,338
265,122	0,439	236,854	118,183
266,136	0,535	236,699	118,171
267,151	0,644	236,335	118,064
268,166	0,410	236,325	117,865
269,180	0,453	236,173	117,813
270,195	0,542	235,875	117,723
271,209	0,587	235,892	117,757
272,224	0,693	235,676	117,721
273,239	0,451	235,520	117,444
274,253	0,444	235,502	117,418
275,268	0,499	235,300	117,350
276,282	0,454	235,132	117,221
277,297	0,409	234,961	117,090
278,312	0,516	234,702	117,034
279,326	0,769	234,510	117,125
280,341	0,608	234,497	116,982
281,355	0,671	234,285	116,915
282,370	0,650	234,155	116,824
283,384	0,884	233,969	116,903
284,399	0,631	233,944	116,683
285,414	0,438	233,688	116,395
286,428	0,788	233,615	116,620
287,443	0,489	233,372	116,257
288,457	0,441	233,467	116,256
289,472	0,708	233,095	116,267
290,487	0,667	233,018	116,187
291,501	0,616	232,852	116,054
292,516	0,588	232,717	115,955
293,530	0,661	232,627	115,956
294,545	0,745	232,523	115,959
295,560	0,795	232,263	115,858
296,574	0,668	232,127	115,682
297,589	0,679	231,942	115,587
298,603	0,559	231,766	115,397
299,618	0,728	231,725	115,496
300,633	0,838	231,437	115,426
301,647	0,882	231,377	115,420
302,662	0,676	231,366	115,246
303,676	0,797	231,093	115,193
304,691	0,892	231,000	115,209
305,706	0,842	230,700	115,011
306,720	0,877	230,633	114,994
307,735	0,842	230,536	114,909
308,749	0,763	230,512	114,826
309,764	0,861	230,322	114,796
310,779	0,743	230,030	114,551
311,793	0,618	230,057	114,459
312,808	0,777	229,766	114,424
313,822	0,717	229,582	114,277
314,837	0,976	229,466	114,406
315,852	0,718	229,323	114,128
316,866	0,866	229,293	114,215
317,881	0,688	229,080	113,964
318,895	0,874	228,891	114,001
319,910	0,946	228,746	113,973
320,925	0,902	228,540	113,827
321,939	0,741	228,563	113,707
322,954	0,724	228,313	113,559
323,968	0,665	228,145	113,421
324,983	1,162	227,922	113,675
325,997	0,680	227,853	113,267
327,012	0,892	227,660	113,320
328,027	0,698	227,674	113,172
329,041	0,881	227,431	113,178
330,056	0,925	227,311	113,141
331,070	0,819	227,225	113,009
332,085	1,052	226,958	113,041
333,100	0,773	226,817	112,751
334,114	0,802	226,701	112,706
335,129	0,747	226,468	112,538
336,143	0,820	226,435	112,566
337,158	0,990	226,325	112,629
338,173	0,801	226,135	112,383
339,187	0,872	226,156	112,436
340,202	0,708	226,017	112,235
341,216	0,885	225,759	112,229
342,231	1,039	225,463	112,186
343,246	0,848	225,481	112,043
344,260	0,954	225,273	112,009
345,275	1,046	225,059	111,960
346,289	0,836	225,065	111,798
347,304	0,907	224,915	111,766
348,319	1,132	224,756	111,844
349,333	0,792	224,493	111,450
350,348	0,821	224,468	111,451
351,362	1,043	224,399	111,570
352,377	0,882	224,255	111,369
353,392	0,867	224,097	111,270
354,406	1,109	223,848	111,315
355,421	192,051	1311,272	1376,284
356,435	153,786	1443,605	1376,120
