DTS Sentinel unit serial number:	SN410029Multiplexer serial number:	ORYXHardware model number:	OX2-SRSoftware version number:	ORYX F/W v4,00 Oryx Data Collector v3.7.2.0data status	okinstallation	B5 Nyhavnadifferential loss correction	single-endedforward channel	channel 2reverse channel	N/Adate	2023/12/12time	05:52:13forward acquisition time	300,00reverse acquisition time	0,00gamma	499,1914k internal	0,3157k external	0,3157temperature offset calibration	1,0000default loss term (dB/km)	0,3820temperature slope calibration	1,0000multiplexer offset coefficient	1,0000multiplexer slope coefficient	1,0000fibre end	0,00T internal ref (°C)	15,31T ext. ref 1 (°C)	-1,08T ext. ref 2 (°C)	-1,38length (m)	temperature (°C)	Stokes	anti-Stokes-744,400	800,000	0,023	-0,064
-743,385	-77,031	-0,331	-0,085
-742,371	-200,000	-0,013	0,143
-741,356	-96,123	-0,220	0,043
-740,342	194,628	-0,025	-0,027
-739,327	-104,529	-0,273	-0,046
-738,312	-161,187	0,147	-0,006
-737,298	-130,938	-0,319	-0,031
-736,283	195,631	0,093	0,105
-735,269	-60,885	-0,302	0,094
-734,254	-200,000	0,034	0,114
-733,239	-107,539	-0,500	-0,080
-732,225	-27,425	0,295	0,126
-731,210	-71,875	-0,063	0,017
-730,196	543,801	0,011	-0,020
-729,181	-12,726	-0,043	-0,020
-728,167	85,427	-0,046	0,037
-727,152	38,220	-0,075	-0,049
-726,137	-122,457	-0,145	0,017
-725,123	-200,000	0,001	0,090
-724,108	-23,897	-0,051	-0,022
-723,094	-200,000	-0,039	-0,170
-722,079	115,011	-0,132	0,119
-721,064	667,281	-0,046	-0,088
-720,050	-75,379	0,074	0,019
-719,035	-9,102	0,082	-0,040
-718,021	800,000	-0,025	-0,061
-717,006	-27,878	-0,097	0,041
-715,991	664,828	-0,078	-0,149
-714,977	-12,184	-0,075	0,036
-713,962	800,000	-0,026	-0,065
-712,948	-200,000	0,015	-0,063
-711,933	91,846	0,118	0,098
-710,918	-105,440	-0,068	-0,011
-709,904	203,422	-0,103	0,118
-708,889	-142,883	-0,012	-0,001
-707,875	-69,104	-0,123	-0,035
-706,860	118,819	0,047	-0,043
-705,845	-114,965	0,076	-0,011
-704,831	-83,987	0,072	0,017
-703,816	361,004	-0,063	-0,093
-702,802	563,585	0,041	-0,073
-701,787	-164,067	-0,060	-0,002
-700,772	742,975	-0,104	-0,206
-699,758	96,842	0,075	-0,063
-698,743	-107,921	0,072	-0,011
-697,729	-200,000	0,016	-0,068
-696,714	-13,538	0,044	-0,021
-695,699	-139,081	-0,090	-0,007
-694,685	75,937	-0,029	0,023
-693,670	-200,000	0,029	0,128
-692,656	-22,443	0,068	-0,030
-691,641	-200,000	-0,011	0,071
-690,627	599,050	-0,034	0,062
-689,612	-200,000	0,014	0,066
-688,597	-111,637	-0,029	-0,004
-687,583	-200,000	-0,054	-0,234
-686,568	800,000	-0,058	-0,150
-685,554	-200,000	0,004	-0,094
-684,539	-109,843	0,051	-0,008
-683,524	557,402	-0,077	-0,138
-682,510	297,869	0,079	-0,108
-681,495	-200,000	0,000	0,081
-680,481	-200,000	-0,022	-0,273
-679,466	800,000	-0,058	-0,142
-678,451	650,183	0,059	-0,112
-677,437	-200,000	-0,004	-0,076
-676,422	179,968	-0,086	0,093
-675,408	800,000	0,031	0,081
-674,393	84,971	0,069	0,056
-673,378	13,394	-0,038	-0,021
-672,364	-200,000	-0,018	-0,153
-671,349	225,528	-0,110	-0,132
-670,335	-76,670	0,077	-0,020
-669,320	-200,000	-0,001	0,027
-668,305	-92,277	-0,051	-0,010
-667,291	-200,000	0,002	0,049
-666,276	800,000	-0,046	0,116
-665,262	116,661	-0,059	-0,053
-664,247	-77,521	0,007	-0,002
-663,232	-200,000	0,004	0,107
-662,218	-200,000	0,012	-0,157
-661,203	211,650	-0,072	0,083
-660,189	-7,239	0,093	0,046
-659,174	59,136	-0,101	0,073
-658,159	-109,259	0,047	-0,007
-657,145	49,331	-0,077	0,053
-656,130	15,545	0,106	0,061
-655,116	-200,000	0,001	0,029
-654,101	-200,000	0,014	0,088
-653,086	-200,000	0,001	-0,038
-652,072	-21,251	-0,126	0,056
-651,057	666,829	-0,070	-0,134
-650,043	182,792	0,078	-0,085
-649,028	-200,000	-0,020	0,070
-648,014	164,263	-0,067	-0,069
-646,999	-200,000	0,018	-0,115
-645,984	535,063	-0,052	-0,090
-644,970	-123,834	-0,052	-0,006
-643,955	-200,000	-0,005	-0,102
-642,941	-32,923	-0,184	-0,075
-641,926	-200,000	-0,015	0,073
-640,911	60,459	0,039	0,028
-639,897	-200,000	0,005	-0,018
-638,882	342,841	0,028	0,040
-637,868	119,012	-0,043	0,039
-636,853	70,595	-0,156	-0,119
-635,838	-49,088	-0,067	0,023
-634,824	170,346	-0,032	0,033
-633,809	-200,000	0,016	0,069
-632,795	-172,026	0,216	0,005
-631,780	156,907	-0,029	0,029
-630,765	312,347	-0,079	-0,109
-629,751	1,495	-0,157	-0,083
-628,736	-200,000	-0,009	-0,034
-627,722	-66,453	0,027	-0,008
-626,707	-200,000	0,028	0,186
-625,692	-113,961	-0,036	0,005
-624,678	109,635	0,112	0,099
-623,663	-30,162	0,117	0,049
-622,649	424,999	-0,069	-0,110
-621,634	72,377	0,106	-0,081
-620,619	-200,000	-0,024	-0,085
-619,605	429,343	0,038	-0,060
-618,590	200,547	-0,017	-0,019
-617,576	697,073	0,063	0,123
-616,561	147,760	-0,111	-0,110
-615,546	-150,795	-0,131	-0,007
-614,532	26,254	-0,045	0,027
-613,517	-10,270	-0,058	-0,028
-612,503	451,569	0,063	0,103
-611,488	-200,000	0,005	-0,034
-610,474	-200,000	0,009	-0,111
-609,459	800,000	-0,028	0,062
-608,444	800,000	-0,062	-0,145
-607,430	800,000	0,056	-0,147
-606,415	-200,000	0,024	-0,098
-605,401	800,000	-0,016	0,041
-604,386	-5,774	-0,076	0,038
-603,371	163,959	-0,008	-0,008
-602,357	400,909	0,032	0,049
-601,342	207,241	-0,103	0,118
-600,328	-16,206	0,027	-0,012
-599,313	800,000	0,028	-0,070
-598,298	800,000	-0,042	-0,097
-597,284	180,616	-0,071	0,077
-596,269	51,827	0,196	0,136
-595,255	-200,000	0,020	-0,067
-594,240	151,219	-0,048	-0,048
-593,225	30,771	-0,082	0,052
-592,211	60,688	-0,094	0,068
-591,196	-120,136	0,074	-0,009
-590,182	305,413	0,062	0,085
-589,167	-14,704	0,124	0,058
-588,152	800,000	-0,010	-0,027
-587,138	237,172	0,045	-0,054
-586,123	-11,632	-0,078	-0,037
-585,109	54,003	0,078	0,055
-584,094	-57,302	-0,115	-0,037
-583,079	54,217	0,020	-0,014
-582,065	-132,936	0,055	0,005
-581,050	41,284	0,038	-0,025
-580,036	611,298	0,036	0,067
-579,021	-141,791	-0,071	-0,005
-578,006	-82,605	-0,150	0,035
-576,992	-61,895	-0,080	-0,024
-575,977	266,341	0,062	0,079
-574,963	17,301	-0,067	0,039
-573,948	800,000	-0,034	-0,098
-572,934	32,769	-0,073	0,046
-571,919	-200,000	-0,044	-0,157
-570,904	-200,000	0,014	-0,057
-569,890	-101,794	-0,056	-0,010
-568,875	-66,309	0,049	-0,014
-567,861	-3,330	0,111	-0,056
-566,846	800,000	0,042	0,124
-565,831	21,232	0,015	0,009
-564,817	11,416	0,024	-0,013
-563,802	85,699	-0,071	-0,057
-562,788	92,626	-0,104	-0,086
-561,773	105,971	-0,088	-0,076
-560,758	-1,729	0,074	0,038
-559,744	76,014	0,054	-0,042
-558,729	-200,000	-0,029	0,098
-557,715	733,849	0,035	0,068
-556,700	277,234	-0,027	-0,035
-555,685	-200,000	0,025	-0,186
-554,671	-24,899	-0,029	-0,012
-553,656	-110,550	0,202	-0,030
-552,642	7,916	0,061	-0,034
-551,627	800,000	0,040	-0,085
-550,612	800,000	0,005	0,012
-549,598	800,000	-0,054	-0,156
-548,583	-65,827	0,039	0,011
-547,569	-200,000	-0,058	-0,202
-546,554	-22,090	0,038	0,017
-545,539	-47,162	-0,061	-0,022
-544,525	-200,000	0,018	-0,068
-543,510	-200,000	0,007	-0,028
-542,496	36,237	-0,140	-0,090
-541,481	52,840	0,084	-0,058
-540,466	161,272	0,067	0,068
-539,452	-200,000	-0,029	0,134
-538,437	-200,000	0,013	0,057
-537,423	800,000	-0,055	0,152
-536,408	56,368	0,051	-0,036
-535,393	379,681	0,045	-0,068
-534,379	265,529	-0,147	0,188
-533,364	800,000	0,058	-0,123
-532,350	-184,262	-0,015	-0,000
-531,335	-57,822	-0,034	0,011
-530,321	-200,000	-0,034	0,122
-529,306	146,197	-0,076	-0,074
-528,291	-200,000	-0,014	0,069
-527,277	800,000	0,013	0,040
-526,262	51,496	0,110	-0,076
-525,248	25,673	0,103	-0,063
-524,233	3,051	0,119	-0,063
-523,218	77,061	0,067	-0,052
-522,204	52,473	0,056	0,039
-521,189	44,944	0,102	-0,069
-520,175	-104,774	-0,082	0,014
-519,160	-40,446	-0,064	-0,024
-518,145	31,817	0,069	0,043
-517,131	-200,000	0,016	0,000
-516,116	88,956	0,073	0,059
-515,102	-108,214	0,071	0,011
-514,087	127,160	-0,139	-0,129
-513,072	56,526	0,163	-0,115
-512,058	38,473	-0,117	-0,076
-511,043	356,893	-0,055	-0,080
-510,029	122,008	-0,070	-0,063
-509,014	-200,000	-0,013	0,052
-507,999	-75,712	-0,045	-0,012
-506,985	343,883	-0,051	-0,073
-505,970	239,634	-0,079	0,096
-504,956	-114,916	0,190	0,026
-503,941	-84,974	0,088	0,020
-502,926	-12,182	0,161	0,077
-501,912	-200,000	-0,027	-0,175
-500,897	-200,000	-0,016	0,070
-499,883	800,000	0,050	-0,131
-498,868	70,092	-0,149	0,112
-497,853	-15,460	0,080	-0,037
-496,839	164,023	-0,063	-0,065
-495,824	800,000	0,025	-0,077
-494,810	-200,000	0,019	-0,108
-493,795	-33,102	0,134	0,054
-492,781	-107,734	-0,022	0,004
-491,766	89,630	-0,026	-0,021
-490,751	-200,000	0,053	-0,174
-489,737	-200,000	-0,009	-0,063
-488,722	68,087	-0,022	-0,016
-487,708	9,324	0,030	0,016
-486,693	-200,000	-0,008	0,056
-485,678	-136,641	-0,184	0,015
-484,664	-60,802	0,040	-0,012
-483,649	-200,000	0,026	-0,232
-482,635	223,116	-0,053	0,063
-481,620	-200,000	0,000	0,013
-480,605	-46,885	0,119	0,042
-479,591	-58,017	0,072	0,023
-478,576	800,000	-0,024	0,072
-477,562	-200,000	-0,018	0,095
-476,547	-200,000	-0,002	-0,048
-475,532	800,000	-0,025	0,075
-474,518	800,000	-0,022	0,060
-473,503	-92,795	0,160	0,032
-472,489	309,866	0,023	-0,032
-471,474	-200,000	0,007	-0,045
-470,459	-200,000	0,008	-0,101
-469,445	-27,254	0,160	-0,068
-468,430	800,000	0,036	-0,073
-467,416	671,867	0,038	-0,073
-466,401	-200,000	0,042	0,157
-465,386	-110,120	0,070	0,011
-464,372	108,001	0,049	0,042
-463,357	77,597	-0,057	-0,044
-462,343	-121,731	0,104	-0,012
-461,328	-21,487	-0,135	-0,060
-460,313	104,825	-0,089	-0,077
-459,299	-76,447	-0,038	-0,010
-458,284	458,773	-0,134	0,218
-457,270	-200,000	0,035	0,129
-456,255	120,240	0,014	0,013
-455,241	-90,549	-0,096	-0,020
-454,226	-200,000	0,019	-0,074
-453,211	-63,710	-0,047	-0,014
-452,197	125,754	0,070	0,064
-451,182	-200,000	0,004	-0,056
-450,168	314,978	-0,063	-0,087
-449,153	-200,000	0,002	-0,079
-448,138	-10,239	0,059	0,028
-447,124	16,887	0,020	-0,011
-446,109	800,000	-0,011	-0,030
-445,095	800,000	-0,054	0,154
-444,080	143,058	-0,074	0,072
-443,065	183,604	0,096	-0,103
-442,051	47,315	0,055	-0,038
-441,036	100,397	-0,093	0,079
-440,022	32,249	-0,213	-0,134
-439,007	420,766	-0,032	-0,050
-437,992	-141,180	0,060	-0,004
-436,978	-145,810	0,114	0,007
-435,963	800,000	0,037	0,114
-434,949	64,391	-0,097	0,071
-433,934	-46,337	0,102	-0,036
-432,919	-200,000	0,009	-0,054
-431,905	-80,089	-0,103	0,025
-430,890	344,895	0,011	-0,015
-429,876	611,522	0,019	-0,035
-428,861	-200,000	-0,022	0,154
-427,846	800,000	0,037	0,093
-426,832	-61,251	-0,042	0,013
-425,817	223,649	-0,058	-0,068
-424,803	800,000	-0,037	-0,112
-423,788	348,090	0,042	0,061
-422,773	-81,078	0,099	-0,024
-421,759	-200,000	-0,036	0,125
-420,744	188,518	-0,086	0,094
-419,730	-200,000	-0,043	0,155
-418,715	-200,000	0,012	0,098
-417,701	-69,925	-0,047	0,013
-416,686	793,008	0,095	-0,192
-415,671	-41,765	0,065	0,024
-414,657	12,770	0,136	0,076
-413,642	-200,000	-0,019	-0,205
-412,628	800,000	0,015	-0,039
-411,613	-186,569	-0,069	-0,001
-410,598	-200,000	-0,003	-0,122
-409,584	227,148	-0,061	0,072
-408,569	800,000	-0,050	0,128
-407,555	800,000	0,031	0,065
-406,540	236,720	-0,084	0,101
-405,525	-200,000	0,002	-0,066
-404,511	-200,000	-0,004	-0,038
-403,496	-82,085	-0,017	0,004
-402,482	-200,000	-0,034	-0,115
-401,467	800,000	0,034	-0,080
-400,452	-75,208	0,063	-0,016
-399,438	-149,450	0,058	-0,003
-398,423	513,024	0,064	-0,109
-397,409	28,298	-0,106	0,065
-396,394	-200,000	0,011	-0,083
-395,379	800,000	-0,056	0,113
-394,365	90,385	0,115	0,093
-393,350	-200,000	0,005	-0,025
-392,336	-91,001	0,102	0,021
-391,321	-131,869	-0,077	0,007
-390,306	-165,710	-0,104	-0,003
-389,292	800,000	0,012	0,033
-388,277	683,846	-0,027	-0,052
-387,263	-200,000	-0,021	0,096
-386,248	800,000	0,038	-0,102
-385,233	-200,000	0,029	0,111
-384,219	-136,060	0,019	-0,002
-383,204	231,383	-0,023	0,027
-382,190	-200,000	-0,010	-0,053
-381,175	303,539	-0,036	-0,049
-380,160	-200,000	-0,008	0,047
-379,146	610,376	0,044	-0,081
-378,131	80,425	-0,098	0,077
-377,117	-200,000	0,014	-0,054
-376,102	-200,000	-0,025	-0,091
-375,088	800,000	-0,044	-0,108
-374,073	124,915	-0,047	0,043
-373,058	800,000	0,012	-0,031
-372,044	-40,322	0,063	-0,024
-371,029	218,881	-0,036	0,042
-370,015	-200,000	-0,002	0,035
-369,000	-200,000	0,011	0,052
-367,985	-200,000	-0,008	-0,036
-366,971	-48,049	0,056	-0,019
-365,956	-158,510	0,048	0,002
-364,942	24,543	0,071	-0,043
-363,927	186,391	-0,062	0,067
-362,912	267,258	0,052	0,066
-361,898	452,755	-0,035	-0,056
-360,883	-200,000	-0,023	-0,108
-359,869	800,000	-0,010	0,026
-358,854	800,000	-0,048	0,115
-357,839	800,000	0,020	0,053
-356,825	-67,126	-0,042	0,012
-355,810	168,814	-0,075	0,077
-354,796	-41,771	-0,125	0,046
-353,781	-40,575	-0,071	0,027
-352,766	-200,000	0,014	0,064
-351,752	-200,000	-0,022	-0,141
-350,737	-158,135	0,030	0,001
-349,723	-200,000	0,042	0,195
-348,708	-53,364	0,045	0,015
-347,693	-23,030	0,031	-0,013
-346,679	81,427	-0,107	0,084
-345,664	800,000	0,056	-0,138
-344,650	189,627	0,089	-0,096
-343,635	800,000	0,051	0,124
-342,620	-106,782	-0,101	0,016
-341,606	6,368	-0,148	0,080
-340,591	800,000	-0,041	0,102
-339,577	141,651	-0,019	0,019
-338,562	179,256	0,142	-0,151
-337,548	-29,022	0,096	0,040
-336,533	-200,000	0,014	-0,086
-335,518	551,306	0,044	-0,077
-334,504	-165,317	-0,129	-0,004
-333,489	515,513	0,047	0,080
-332,475	-200,000	0,030	-0,118
-331,460	255,443	-0,038	0,048
-330,445	533,232	-0,028	-0,048
-329,431	-109,961	0,125	-0,019
-328,416	800,000	-0,036	-0,108
-327,402	800,000	-0,044	0,120
-326,387	-200,000	0,009	0,053
-325,372	-50,158	0,050	0,017
-324,358	-113,755	-0,053	0,007
-323,343	-200,000	-0,010	-0,037
-322,329	-43,135	-0,121	0,044
-321,314	-200,000	0,007	0,115
-320,299	-141,501	0,102	0,007
-319,285	-138,999	-0,136	0,011
-318,270	45,154	-0,060	0,040
-317,256	-200,000	-0,036	-0,234
-316,241	233,221	0,090	-0,107
-315,226	-89,226	-0,081	0,017
-314,212	65,478	0,035	0,026
-313,197	413,586	0,066	0,103
-312,183	-200,000	-0,037	0,126
-311,168	35,668	0,118	-0,075
-310,153	-200,000	-0,019	-0,192
-309,139	-200,000	0,003	-0,049
-308,124	-135,651	0,054	-0,005
-307,110	48,606	-0,082	0,056
-306,095	-200,000	-0,006	-0,069
-305,080	-200,000	-0,005	0,031
-304,066	-200,000	-0,001	-0,054
-303,051	279,366	-0,040	-0,052
-302,037	-62,297	-0,096	-0,029
-301,022	-200,000	0,003	0,010
-300,008	800,000	0,051	0,108
-298,993	-200,000	-0,014	0,124
-297,978	83,541	0,125	0,098
-296,964	-200,000	0,003	-0,018
-295,949	87,118	-0,023	-0,019
-294,935	-30,684	-0,065	-0,026
-293,920	-200,000	-0,001	0,009
-292,905	128,445	0,046	-0,043
-291,891	-117,516	0,047	0,006
-290,876	244,831	0,046	0,057
-289,862	175,202	-0,086	0,090
-288,847	-200,000	0,020	0,121
-287,832	-159,277	-0,015	-0,001
-286,818	800,000	0,049	0,138
-285,803	89,105	0,083	0,067
-284,789	68,038	0,086	-0,064
-283,774	800,000	0,043	0,103
-282,759	110,657	0,083	0,072
-281,745	-57,492	-0,097	-0,031
-280,730	471,135	0,068	-0,111
-279,716	61,871	-0,059	-0,043
-278,701	-200,000	0,017	0,195
-277,686	-61,066	0,158	0,048
-276,672	89,770	0,113	-0,091
-275,657	-128,520	0,082	-0,008
-274,643	343,676	0,025	0,035
-273,628	17,606	0,036	-0,021
-272,613	525,865	0,086	-0,147
-271,599	-4,396	-0,060	-0,030
-270,584	-88,180	-0,035	0,008
-269,570	0,467	0,060	-0,031
-268,555	-46,424	0,033	0,012
-267,540	-200,000	-0,001	0,061
-266,526	-112,459	-0,108	-0,015
-265,511	232,609	-0,083	-0,099
-264,497	-20,898	0,127	0,056
-263,482	116,169	0,050	0,044
-262,467	-200,000	0,016	-0,053
-261,453	800,000	-0,008	0,020
-260,438	-121,445	-0,137	-0,016
-259,424	49,368	0,064	0,044
-258,409	218,818	-0,084	-0,097
-257,395	800,000	0,006	0,018
-256,380	800,000	-0,006	-0,016
-255,365	-200,000	0,035	-0,144
-254,351	800,000	-0,031	0,088
-253,336	360,179	0,123	0,179
-252,322	-200,000	0,008	-0,032
-251,307	-200,000	0,005	0,123
-250,292	800,000	-0,057	-0,118
-249,278	320,679	-0,015	-0,021
-248,263	-189,828	0,113	0,001
-247,249	714,870	-0,016	-0,031
-246,234	-138,614	-0,076	-0,006
-245,219	-69,668	-0,100	-0,028
-244,205	-200,000	-0,019	0,062
-243,190	-200,000	0,010	0,090
-242,176	-200,000	0,010	-0,061
-241,161	288,196	0,061	0,080
-240,146	227,133	0,034	-0,040
-239,132	-200,000	0,023	0,133
-238,117	230,792	-0,063	-0,074
-237,103	587,263	-0,031	-0,055
-236,088	-200,000	0,009	0,075
-235,073	800,000	-0,007	-0,020
-234,059	800,000	-0,041	0,106
-233,044	-200,000	-0,012	0,043
-232,030	800,000	-0,044	-0,109
-231,015	541,425	-0,054	-0,093
-230,000	-200,000	-0,049	-0,205
-228,986	-54,792	0,069	0,022
-227,971	707,068	-0,023	-0,045
-226,957	161,522	-0,075	0,076
-225,942	39,492	0,032	0,021
-224,927	96,318	0,064	0,053
-223,913	186,027	-0,043	0,046
-222,898	800,000	-0,045	-0,106
-221,884	800,000	0,003	-0,007
-220,869	35,086	0,028	0,017
-219,855	800,000	-0,040	0,090
-218,840	800,000	0,072	0,165
-217,825	-165,672	-0,122	-0,004
-216,811	29,748	0,103	-0,063
-215,796	-94,937	-0,117	-0,023
-214,782	49,124	-0,079	-0,054
-213,767	-200,000	0,028	-0,089
-212,752	800,000	0,056	0,143
-211,738	800,000	0,049	0,119
-210,723	87,759	-0,149	0,119
-209,709	159,011	-0,052	0,052
-208,694	800,000	-0,017	0,036
-207,679	-40,027	0,079	0,030
-206,665	-200,000	-0,008	-0,058
-205,650	360,327	0,045	0,065
-204,636	273,124	-0,030	0,039
-203,621	-132,323	-0,057	-0,005
-202,606	223,601	-0,111	0,129
-201,592	686,283	-0,046	0,087
-200,577	-200,000	-0,003	0,043
-199,563	406,965	-0,063	0,097
-198,548	-121,163	0,137	-0,016
-197,533	109,100	0,067	0,058
-196,519	-96,755	-0,043	0,008
-195,504	253,577	0,030	-0,037
-194,490	-200,000	-0,043	0,219
-193,475	-87,226	-0,112	-0,024
-192,460	-200,000	0,003	0,033
-191,446	154,872	-0,056	0,056
-190,431	718,554	0,042	-0,081
-189,417	-136,485	0,123	0,010
-188,402	520,068	-0,079	-0,134
-187,387	692,112	0,100	-0,189
-186,373	800,000	0,048	-0,097
-185,358	800,000	0,014	0,041
-184,344	-200,000	-0,004	0,062
-183,329	-200,000	-0,003	0,157
-182,315	-29,302	-0,166	0,068
-181,300	579,264	0,036	0,064
-180,285	-13,635	0,119	0,055
-179,271	-200,000	0,028	-0,098
-178,256	75,151	0,097	-0,074
-177,242	-200,000	0,097	0,000
-176,227	800,000	-0,024	0,055
-175,212	27,943	0,029	-0,017
-174,198	-200,000	-0,014	0,079
-173,183	-155,556	-0,039	-0,002
-172,169	-200,000	0,001	-0,059
-171,154	-102,267	0,063	-0,011
-170,139	-200,000	-0,024	-0,078
-169,125	-11,398	-0,069	-0,033
-168,110	-84,719	0,180	-0,040
-167,096	800,000	-0,011	-0,028
-166,081	800,000	0,025	-0,063
-165,066	-200,000	0,015	-0,052
-164,052	-80,985	-0,152	-0,036
-163,037	-76,864	0,099	0,025
-162,023	98,588	0,072	0,060
-161,008	800,000	0,025	0,056
-159,993	-200,000	-0,035	0,142
-158,979	43,667	0,045	0,029
-157,964	74,905	-0,066	0,050
-156,950	-67,724	-0,066	0,018
-155,935	-200,000	-0,030	0,110
-154,920	-41,805	0,062	-0,023
-153,906	52,395	0,172	0,118
-152,891	44,137	-0,095	0,062
-151,877	-200,000	0,002	0,060
-150,862	800,000	0,043	-0,113
-149,847	-200,000	0,013	0,096
-148,833	614,032	0,017	-0,030
-147,818	75,421	0,042	0,032
-146,804	639,012	0,026	0,049
-145,789	614,399	0,033	-0,059
-144,775	59,929	-0,045	-0,032
-143,760	10,332	0,019	0,010
-142,745	-200,000	0,008	0,076
-141,731	-21,847	0,139	0,061
-140,716	-200,000	0,022	-0,089
-139,702	-200,000	0,004	0,048
-138,687	423,050	-0,061	-0,095
-137,672	-200,000	-0,001	-0,121
-136,658	1,880	-0,070	-0,036
-135,643	-200,000	0,017	0,118
-134,629	800,000	0,062	-0,189
-133,614	-200,000	0,015	0,087
-132,599	-200,000	-0,012	0,077
-131,585	452,944	-0,045	0,071
-130,570	-70,346	-0,100	-0,027
-129,556	-200,000	-0,001	-0,076
-128,541	-200,000	-0,000	0,051
-127,526	621,739	-0,030	0,055
-126,512	371,489	0,086	0,126
-125,497	800,000	-0,043	0,108
-124,483	115,382	-0,079	-0,070
-123,468	-200,000	0,004	-0,087
-122,453	800,000	0,057	-0,159
-121,439	59,932	-0,081	-0,057
-120,424	-63,232	0,007	0,002
-119,410	-122,830	0,127	-0,015
-118,395	92,503	0,041	-0,033
-117,380	15,399	-0,076	0,043
-116,366	208,518	0,071	0,080
-115,351	-70,538	-0,050	0,014
-114,337	-94,699	-0,079	-0,015
-113,322	800,000	0,007	0,018
-112,307	523,476	0,056	-0,096
-111,293	-26,449	0,140	-0,059
-110,278	-200,000	-0,004	-0,136
-109,264	-188,166	-0,151	0,001
-108,249	317,061	0,029	-0,039
-107,234	372,206	0,106	-0,155
-106,220	-200,000	0,025	-0,131
-105,205	-200,000	0,016	0,067
-104,191	510,866	-0,037	-0,063
-103,176	-200,000	-0,025	0,121
-102,162	-200,000	0,027	0,108
-101,147	-127,131	-0,137	-0,014
-100,132	-55,844	0,101	0,032
-99,118	-10,139	-0,032	-0,015
-98,103	79,983	0,100	0,077
-97,089	-200,000	0,025	-0,111
-96,074	201,068	-0,087	-0,097
-95,059	-156,556	0,051	0,002
-94,045	195,455	-0,040	-0,043
-93,030	-200,000	0,007	0,031
-92,016	149,854	-0,034	0,033
-91,001	-80,422	-0,039	0,009
-89,986	-77,602	0,114	-0,028
-88,972	272,522	0,116	0,148
-87,957	18,366	0,063	0,036
-86,943	59,424	-0,088	-0,063
-85,928	800,000	0,048	-0,111
-84,913	-50,384	0,146	0,049
-83,899	-98,013	-0,063	0,012
-82,884	-200,000	-0,024	-0,104
-81,870	-200,000	0,003	-0,013
-80,855	-200,000	0,024	0,112
-79,840	-96,510	-0,110	-0,021
-78,826	-200,000	-0,013	0,068
-77,811	171,022	-0,095	-0,098
-76,797	-123,466	0,036	-0,004
-75,782	24,413	-0,081	0,048
-74,767	-200,000	0,006	0,096
-73,753	800,000	0,051	0,131
-72,738	800,000	0,041	0,120
-71,724	161,692	-0,007	-0,007
-70,709	800,000	-0,024	0,066
-69,694	-110,835	0,133	-0,020
-68,680	800,000	0,025	-0,072
-67,665	163,825	0,027	-0,027
-66,651	-200,000	-0,013	0,078
-65,636	-200,000	0,032	-0,119
-64,622	-200,000	0,009	-0,051
-63,607	-200,000	0,000	-0,124
-62,592	-27,701	-0,079	-0,033
-61,578	525,702	0,070	-0,119
-60,563	-96,873	-0,096	-0,018
-59,549	800,000	-0,009	0,023
-58,534	12,559	-1,893	-1,045
-57,519	-200,000	-0,205	-0,971
-56,505	-200,000	-1,227	-4,923
-55,490	8,835	0,851	0,459
-54,476	800,000	5,523	12,251
-53,461	-200,000	17,702	283,965
-52,446	800,000	727,361	2215,957
-51,432	535,310	1643,667	2808,937
-50,417	110,185	1634,514	1408,335
-49,403	75,760	1286,875	975,072
-48,388	32,139	1027,499	634,574
-47,373	20,174	989,524	571,667
-46,359	18,533	977,372	559,246
-45,344	15,638	973,451	547,503
-44,330	15,877	972,058	547,480
-43,315	15,343	970,139	544,635
-42,300	15,340	968,870	543,892
-41,286	15,280	968,119	543,253
-40,271	15,314	966,931	542,674
-39,257	15,368	965,909	542,255
-38,242	15,316	965,322	541,734
-37,227	15,411	964,390	541,500
-36,213	15,359	963,685	540,913
-35,198	15,307	962,666	540,151
-34,184	15,348	961,983	539,878
-33,169	15,247	961,214	539,098
-32,154	15,361	959,979	538,754
-31,140	15,390	959,234	538,407
-30,125	15,349	958,379	537,775
-29,111	15,293	957,807	537,253
-28,096	15,399	956,833	537,025
-27,082	15,354	956,372	536,599
-26,067	15,340	955,524	536,059
-25,052	15,311	954,863	535,574
-24,038	15,367	953,999	535,246
-23,023	15,319	953,538	534,814
-22,009	15,365	952,827	534,542
-20,994	15,359	952,171	534,133
-19,979	15,342	951,580	533,725
-18,965	15,389	950,804	533,420
-17,950	15,356	950,217	532,964
-16,936	15,285	949,676	532,411
-15,921	15,296	948,882	531,980
-14,906	15,206	948,312	531,352
-13,892	15,308	947,389	531,139
-12,877	15,206	946,768	530,446
-11,863	15,204	946,324	530,168
-10,848	15,228	945,774	529,916
-9,833	15,279	945,357	529,823
-8,819	15,324	944,499	529,465
-7,804	15,256	944,040	528,972
-6,790	15,260	943,437	528,626
-5,775	15,267	942,863	528,303
-4,760	15,269	942,316	527,981
-3,746	15,211	941,802	527,492
-2,731	15,170	940,789	526,773
-1,717	15,112	940,367	526,331
-0,702	15,117	939,493	525,837
0,313	14,949	938,975	525,811
1,327	18,125	936,763	534,531
2,342	27,021	794,375	476,857
3,356	23,502	459,773	270,581
4,371	-3,500	315,080	156,659
5,386	-7,418	296,893	143,630
6,400	-9,514	290,938	138,650
7,415	-9,921	288,461	137,055
8,429	-9,988	286,913	136,241
9,444	-10,060	285,944	135,698
10,459	-10,077	285,590	135,502
11,473	-10,068	284,779	135,114
12,488	-10,031	284,324	134,922
13,502	-10,061	283,783	134,624
14,517	-9,946	283,371	134,528
15,531	-9,887	282,846	134,324
16,546	-9,954	282,505	134,085
17,561	-10,025	282,100	133,812
18,575	-9,905	281,771	133,761
19,590	-9,854	281,290	133,569
20,604	-9,809	281,093	133,507
21,619	-9,887	280,676	133,222
22,634	-9,940	280,438	133,046
23,648	-9,926	280,001	132,841
24,663	-9,896	279,736	132,732
25,677	-9,910	279,521	132,605
26,692	-9,850	279,213	132,504
27,707	-9,955	278,941	132,263
28,721	-9,838	278,722	132,259
29,736	-9,946	278,472	132,025
30,750	-10,049	278,177	131,776
31,765	-10,040	278,046	131,711
32,780	-9,887	277,543	131,606
33,794	-10,040	277,510	131,433
34,809	-9,908	277,057	131,332
35,823	-9,907	276,865	131,230
36,838	-10,120	276,784	130,979
37,853	-10,136	276,420	130,780
38,867	-10,040	276,177	130,744
39,882	-10,030	275,939	130,629
40,896	-9,886	275,586	130,585
41,911	-10,058	275,447	130,346
42,926	-10,059	275,168	130,201
43,940	-10,036	274,833	130,053
44,955	-9,975	274,645	130,010
45,969	-10,156	274,400	129,713
46,984	-10,196	274,252	129,594
47,999	-10,267	273,963	129,380
49,013	-10,544	273,692	128,982
50,028	-10,547	273,393	128,826
51,042	-10,592	273,107	128,638
52,057	-10,759	272,904	128,375
53,071	-10,693	272,712	128,335
54,086	-10,572	272,571	128,369
55,101	-10,474	272,285	128,315
56,115	-10,278	272,200	128,445
57,130	-9,855	272,076	128,767
58,144	-9,973	271,801	128,516
59,159	-9,841	271,552	128,509
60,174	-9,884	271,486	128,427
61,188	-9,770	271,161	128,367
62,203	-9,932	271,015	128,136
63,217	-9,943	270,898	128,060
64,232	-9,886	270,469	127,898
65,247	-9,665	270,122	127,926
66,261	-9,922	270,087	127,661
67,276	-10,111	269,878	127,378
68,290	-10,105	269,474	127,181
69,305	-10,320	269,335	126,906
70,320	-10,244	269,043	126,828
71,334	-10,060	268,928	126,931
72,349	-9,757	268,693	127,086
73,363	-9,847	268,512	126,907
74,378	-9,876	268,250	126,745
75,393	-9,891	268,166	126,680
76,407	-10,024	267,899	126,421
77,422	-9,842	267,534	126,403
78,436	-9,893	267,500	126,330
79,451	-9,924	267,212	126,154
80,466	-9,940	267,076	126,064
81,480	-10,131	266,886	125,790
82,495	-10,204	266,695	125,622
83,509	-9,855	266,304	125,743
84,524	-10,054	266,125	125,467
85,539	-10,128	265,828	125,249
86,553	-10,110	265,759	125,222
87,568	-10,287	265,562	124,958
88,582	-10,003	265,289	125,075
89,597	-10,050	265,124	124,943
90,611	-9,881	264,989	125,021
91,626	-9,956	264,897	124,899
92,641	-9,901	264,587	124,791
93,655	-9,873	264,393	124,714
94,670	-10,030	264,248	124,493
95,684	-9,908	264,012	124,480
96,699	-9,993	263,751	124,270
97,714	-9,813	263,491	124,298
98,728	-10,040	263,216	123,954
99,743	-10,026	262,987	123,847
100,757	-10,209	262,902	123,632
101,772	-10,138	262,733	123,606
102,787	-10,174	262,485	123,446
103,801	-10,014	262,266	123,474
104,816	-9,865	262,162	123,547
105,830	-9,785	262,027	123,543
106,845	-9,896	261,833	123,342
107,860	-9,905	261,576	123,202
108,874	-9,857	261,371	123,137
109,889	-9,840	261,138	123,032
110,903	-9,882	260,848	122,846
111,918	-10,222	260,779	122,502
112,933	-10,010	260,523	122,559
113,947	-9,965	260,591	122,619
114,962	-9,856	260,153	122,498
115,976	-9,896	260,093	122,424
116,991	-9,839	259,810	122,330
118,006	-9,896	259,717	122,225
119,020	-9,903	259,478	122,096
120,035	-9,722	259,367	122,192
121,049	-10,001	259,101	121,811
122,064	-9,643	259,042	122,086
123,079	-9,847	258,798	121,781
124,093	-9,903	258,590	121,624
125,108	-10,192	258,323	121,234
126,122	-10,242	257,974	121,016
127,137	-10,435	257,810	120,760
128,151	-10,294	257,821	120,877
129,166	-10,115	257,579	120,909
130,181	-10,235	257,395	120,708
131,195	-10,478	257,314	120,447
132,210	-9,942	256,827	120,674
133,224	-9,992	256,759	120,588
134,239	-9,847	256,572	120,616
135,254	-10,046	256,562	120,427
136,268	-9,952	256,029	120,248
137,283	-10,287	255,869	119,872
138,297	-10,257	255,800	119,855
139,312	-10,410	255,548	119,594
140,327	-10,017	255,336	119,824
141,341	-9,736	255,247	120,013
142,356	-9,724	255,130	119,959
143,370	-9,777	255,066	119,872
144,385	-9,726	254,772	119,767
145,400	-9,594	254,601	119,789
146,414	-9,711	254,336	119,553
147,429	-9,764	254,271	119,467
148,443	-9,678	254,037	119,420
149,458	-9,819	253,936	119,241
150,473	-9,787	253,799	119,194
151,487	-9,816	253,475	119,005
152,502	-9,705	253,354	119,033
153,516	-9,608	253,219	119,042
154,531	-9,646	252,844	118,823
155,546	-9,868	252,914	118,655
156,560	-9,852	252,660	118,540
157,575	-9,920	252,342	118,322
158,589	-9,763	252,113	118,337
159,604	-9,644	251,947	118,350
160,619	-9,862	251,759	118,066
161,633	-9,825	251,781	118,097
162,648	-9,743	251,540	118,043
163,662	-9,787	251,404	117,931
164,677	-9,735	251,198	117,868
165,692	-9,720	250,989	117,773
166,706	-9,647	250,924	117,794
167,721	-9,911	250,727	117,467
168,735	-9,574	250,576	117,670
169,750	-9,501	250,329	117,606
170,764	-9,686	250,232	117,394
171,779	-9,677	249,960	117,263
172,794	-9,580	249,780	117,250
173,808	-9,876	249,634	116,922
174,823	-10,140	249,324	116,544
175,837	-10,300	249,072	116,282
176,852	-9,924	249,122	116,610
177,867	-9,703	248,993	116,726
178,881	-9,821	248,872	116,559
179,896	-9,685	248,817	116,637
180,910	-9,715	248,468	116,438
181,925	-9,783	248,293	116,288
182,940	-9,726	248,215	116,290
183,954	-9,787	248,115	116,181
184,969	-9,464	247,793	116,289
185,983	-9,860	247,744	115,926
186,998	-9,653	247,516	115,982
188,013	-9,648	247,260	115,855
189,027	-9,679	247,113	115,751
190,042	-9,669	247,090	115,738
191,056	-9,771	246,834	115,522
192,071	-9,711	246,693	115,496
193,086	-9,731	246,349	115,308
194,100	-9,691	246,246	115,283
195,115	-9,685	246,053	115,187
196,129	-9,583	245,833	115,158
197,144	-9,582	245,720	115,096
198,159	-9,687	245,409	114,853
199,173	-9,818	245,353	114,709
200,188	-9,929	245,249	114,558
201,202	-10,103	244,819	114,204
202,217	-10,168	244,604	114,040
203,232	-10,261	244,429	113,871
204,246	-9,624	244,433	114,387
205,261	-9,479	244,318	114,442
206,275	-10,486	243,806	113,366
207,290	-7,745	245,136	116,234
208,304	-0,715	247,375	123,117
209,319	3,385	248,456	127,049
210,334	3,636	248,457	127,247
211,348	4,029	248,339	127,500
212,363	4,255	248,149	127,579
213,377	4,399	247,909	127,563
214,392	4,039	247,911	127,255
215,407	4,041	247,692	127,133
216,421	4,050	247,356	126,957
217,436	4,336	247,366	127,186
218,450	4,265	247,369	127,118
219,465	4,132	246,878	126,745
220,480	3,964	246,790	126,550
221,494	3,747	246,665	126,297
222,509	3,727	246,529	126,199
223,523	3,743	246,263	126,065
224,538	3,438	245,969	125,653
225,553	3,677	245,933	125,819
226,567	3,650	245,854	125,746
227,582	3,618	245,747	125,653
228,596	3,929	245,429	125,734
229,611	3,646	245,268	125,409
230,626	3,570	245,008	125,202
231,640	3,663	244,914	125,220
232,655	3,859	244,814	125,317
233,669	3,621	244,634	125,020
234,684	3,262	244,475	124,635
235,699	3,797	244,403	125,022
236,713	4,004	244,236	125,094
237,728	3,509	243,997	124,558
238,742	3,368	243,782	124,323
239,757	3,519	243,575	124,329
240,772	3,388	243,534	124,191
241,786	3,605	243,276	124,224
242,801	3,703	243,197	124,252
243,815	3,392	242,967	123,872
244,830	3,431	242,914	123,865
245,844	3,695	242,793	124,006
246,859	3,509	242,561	123,726
247,874	3,332	242,408	123,495
248,888	3,584	242,051	123,504
249,903	3,664	242,139	123,602
250,917	3,709	242,073	123,595
251,932	3,968	241,731	123,616
252,947	3,870	241,608	123,464
253,961	3,568	241,452	123,131
254,976	3,623	241,399	123,137
255,990	3,656	241,307	123,106
257,005	3,469	240,978	122,777
258,020	3,413	240,771	122,616
259,034	3,416	240,803	122,624
260,049	3,654	240,547	122,673
261,063	3,340	240,362	122,316
262,078	3,542	240,109	122,338
263,093	3,808	240,073	122,521
264,107	3,734	240,105	122,467
265,122	3,489	239,775	122,093
266,136	3,606	239,716	122,145
267,151	3,845	239,559	122,245
268,166	3,543	239,186	121,803
269,180	3,413	239,146	121,669
270,195	4,000	239,144	122,123
271,209	4,159	238,932	122,130
272,224	3,846	238,686	121,745
273,239	3,217	238,528	121,156
274,253	3,487	238,324	121,255
275,268	3,535	238,272	121,256
276,282	3,642	238,082	121,233
277,297	3,541	237,780	120,989
278,312	3,603	237,661	120,966
279,326	3,591	237,581	120,905
280,341	3,624	237,522	120,890
281,355	3,586	237,474	120,825
282,370	3,830	237,273	120,904
283,384	3,500	237,121	120,557
284,399	3,453	236,792	120,341
285,414	3,342	236,577	120,135
286,428	3,670	236,422	120,302
287,443	3,521	236,456	120,191
288,457	3,698	236,269	120,225
289,472	3,958	236,134	120,349
290,487	3,819	235,812	120,065
291,501	3,371	235,836	119,717
292,516	3,107	235,636	119,398
293,530	3,228	235,379	119,352
294,545	3,726	235,310	119,695
295,560	3,700	235,163	119,589
296,574	3,425	234,954	119,257
297,589	3,297	234,878	119,109
298,603	3,870	234,843	119,526
299,618	3,873	234,581	119,385
300,633	3,699	234,560	119,229
301,647	3,696	234,357	119,112
302,662	4,092	234,507	119,485
303,676	4,047	234,190	119,278
304,691	3,849	234,088	119,062
305,706	4,148	233,759	119,115
306,720	4,079	233,570	118,955
307,735	3,675	233,630	118,663
308,749	3,757	233,349	118,573
309,764	3,561	233,055	118,262
310,779	3,428	232,974	118,107
311,793	3,220	232,827	117,863
312,808	3,498	232,472	117,886
313,822	3,412	232,476	117,811
314,837	3,462	232,195	117,696
315,852	3,355	232,166	117,589
316,866	3,827	231,980	117,847
317,881	4,065	231,997	118,027
318,895	3,884	231,904	117,831
319,910	3,972	231,819	117,844
320,925	3,760	231,420	117,469
321,939	3,504	231,288	117,196
322,954	3,748	231,177	117,316
323,968	3,422	230,952	116,942
324,983	3,340	230,671	116,727
325,997	3,945	230,819	117,253
327,012	4,088	230,631	117,256
328,027	3,630	230,383	116,770
329,041	3,664	230,533	116,862
330,056	4,069	230,334	117,059
331,070	4,231	230,118	117,061
332,085	4,182	230,123	117,017
333,100	4,130	229,910	116,858
334,114	3,886	229,653	116,533
335,129	3,958	229,584	116,541
336,143	3,789	229,433	116,326
337,158	4,001	229,219	116,368
338,173	3,937	229,159	116,279
339,187	3,911	228,910	116,123
340,202	4,103	228,828	116,215
341,216	3,915	228,728	116,012
342,231	3,792	228,512	115,800
343,246	3,639	228,468	115,652
344,260	3,912	228,270	115,747
345,275	4,021	228,188	115,776
346,289	3,970	228,080	115,674
347,304	4,002	227,852	115,572
348,319	4,209	227,671	115,625
349,333	4,142	227,401	115,427
350,348	3,835	227,283	115,127
351,362	3,758	227,288	115,062
352,377	3,655	227,046	114,851
353,392	3,696	226,749	114,722
354,406	3,620	226,737	114,649
355,421	194,795	1321,536	1396,048
356,435	156,131	1454,912	1396,024
