DTS Sentinel unit serial number:	SN410029Multiplexer serial number:	ORYXHardware model number:	OX2-SRSoftware version number:	ORYX F/W v4,00 Oryx Data Collector v3.7.2.0data status	okinstallation	B5 Nyhavnadifferential loss correction	single-endedforward channel	channel 2reverse channel	N/Adate	2023/12/11time	19:52:13forward acquisition time	300,00reverse acquisition time	0,00gamma	499,1914k internal	0,3159k external	0,3159temperature offset calibration	1,0000default loss term (dB/km)	0,3820temperature slope calibration	1,0000multiplexer offset coefficient	1,0000multiplexer slope coefficient	1,0000fibre end	0,00T internal ref (°C)	15,79T ext. ref 1 (°C)	0,05T ext. ref 2 (°C)	-0,18length (m)	temperature (°C)	Stokes	anti-Stokes-744,400	-168,120	0,124	0,003
-743,385	-128,453	-0,214	0,022
-742,371	-191,356	0,145	-0,001
-741,356	-84,036	-0,286	0,066
-740,342	143,553	0,143	0,140
-739,327	-110,068	-0,263	0,040
-738,312	-200,000	-0,003	0,044
-737,298	-84,615	-0,378	0,087
-736,283	800,000	0,014	-0,038
-735,269	143,963	-0,096	0,094
-734,254	-78,602	0,164	0,041
-733,239	-12,552	-0,396	-0,190
-732,225	-116,426	0,224	-0,030
-731,210	159,633	-0,091	-0,093
-730,196	71,062	-0,073	-0,056
-729,181	194,072	0,052	0,058
-728,167	188,929	-0,033	-0,036
-727,152	275,960	0,034	-0,045
-726,137	-34,429	-0,188	-0,075
-725,123	800,000	0,039	-0,115
-724,108	106,011	-0,189	-0,165
-723,094	-138,308	-0,059	-0,005
-722,079	-82,716	-0,135	-0,032
-721,064	-200,000	0,004	-0,013
-720,050	19,982	-0,040	-0,024
-719,035	172,751	-0,017	0,019
-718,021	253,030	-0,056	0,070
-717,006	-96,533	0,071	-0,014
-715,991	81,844	-0,062	-0,050
-714,977	32,223	-0,090	-0,057
-713,962	233,312	0,075	-0,091
-712,948	800,000	0,017	-0,050
-711,933	800,000	-0,040	0,111
-710,918	31,749	0,114	-0,072
-709,904	-47,450	-0,052	0,018
-708,889	800,000	-0,040	-0,099
-707,875	338,484	-0,089	-0,127
-706,860	210,044	0,033	-0,038
-705,845	32,212	0,108	0,068
-704,831	334,671	0,097	0,138
-703,816	-200,000	0,011	-0,049
-702,802	27,129	-0,119	-0,073
-701,787	581,392	-0,045	0,082
-700,772	800,000	0,049	-0,116
-699,758	-69,438	0,090	0,025
-698,743	-27,603	0,112	0,047
-697,729	-165,370	-0,153	-0,005
-696,714	800,000	-0,045	-0,092
-695,699	-200,000	0,015	-0,099
-694,685	-200,000	0,017	-0,159
-693,670	-200,000	-0,007	-0,154
-692,656	-133,046	0,055	0,005
-691,641	184,666	0,059	0,065
-690,627	-36,500	0,048	-0,019
-689,612	33,449	0,038	0,024
-688,597	800,000	-0,061	0,193
-687,583	-193,030	0,122	0,001
-686,568	280,913	-0,071	-0,093
-685,554	-35,945	-0,047	0,019
-684,539	-86,616	0,123	0,027
-683,524	-22,835	0,122	-0,054
-682,510	-162,864	0,043	0,001
-681,495	-124,186	-0,099	0,011
-680,481	-117,979	-0,082	-0,011
-679,466	479,296	0,012	-0,020
-678,451	754,064	-0,057	-0,114
-677,437	-111,399	0,078	-0,012
-676,422	-17,144	0,037	-0,017
-675,408	800,000	-0,007	-0,020
-674,393	423,727	-0,030	-0,047
-673,378	13,767	-0,018	-0,010
-672,364	216,371	-0,103	-0,121
-671,349	-200,000	-0,038	-0,178
-670,335	258,532	0,064	-0,082
-669,320	-37,200	0,070	0,027
-668,305	16,011	0,039	0,022
-667,291	35,961	-0,113	-0,073
-666,276	334,495	-0,058	-0,083
-665,262	-200,000	0,035	0,154
-664,247	196,945	0,041	-0,046
-663,232	36,297	-0,039	-0,025
-662,218	-37,932	0,050	-0,019
-661,203	800,000	0,061	0,126
-660,189	-200,000	-0,003	-0,110
-659,174	197,114	0,055	-0,061
-658,159	-200,000	0,009	0,033
-657,145	-200,000	-0,002	-0,050
-656,130	800,000	0,066	0,153
-655,116	-22,945	0,055	-0,024
-654,101	-128,386	-0,015	-0,002
-653,086	-44,480	-0,049	0,018
-652,072	26,323	-0,073	-0,045
-651,057	-104,742	-0,062	0,010
-650,043	17,398	-0,056	0,033
-649,028	-200,000	0,024	0,112
-648,014	-47,246	-0,028	-0,010
-646,999	-200,000	-0,010	-0,134
-645,984	405,110	-0,071	-0,110
-644,970	-99,341	-0,069	0,013
-643,955	-71,806	-0,051	-0,014
-642,941	390,545	-0,066	-0,101
-641,926	21,938	-0,024	-0,014
-640,911	-200,000	0,008	0,112
-639,897	9,187	0,052	0,028
-638,882	-200,000	-0,154	0,000
-637,868	-200,000	-0,014	0,144
-636,853	83,696	0,129	-0,103
-635,838	-200,000	0,031	-0,119
-634,824	-53,045	0,159	-0,053
-633,809	19,833	0,033	-0,019
-632,795	38,962	-0,040	0,026
-631,780	-25,325	-0,050	-0,022
-630,765	-200,000	-0,005	-0,035
-629,751	122,342	-0,117	-0,107
-628,736	650,306	-0,041	-0,076
-627,722	235,892	-0,026	-0,031
-626,707	-200,000	-0,105	-0,000
-625,692	482,353	-0,067	0,113
-624,678	514,999	-0,074	0,127
-623,663	262,367	-0,045	0,057
-622,649	-75,085	-0,118	-0,031
-621,634	54,896	-0,108	-0,076
-620,619	474,709	0,029	-0,048
-619,605	800,000	-0,060	0,126
-618,590	402,238	-0,007	-0,011
-617,576	45,478	-0,115	0,078
-616,561	185,754	-0,096	0,105
-615,546	800,000	-0,020	-0,045
-614,532	-200,000	0,005	-0,048
-613,517	104,385	-0,064	-0,055
-612,503	201,007	0,020	-0,022
-611,488	-138,037	0,080	0,006
-610,474	285,151	-0,084	0,111
-609,459	25,668	0,167	0,102
-608,444	55,807	0,072	-0,051
-607,430	-100,097	0,181	0,033
-606,415	800,000	-0,033	-0,072
-605,401	-90,740	0,061	-0,013
-604,386	-200,000	0,016	0,068
-603,371	107,702	-0,067	-0,058
-602,357	-2,445	0,089	-0,046
-601,342	2,305	0,088	-0,046
-600,328	800,000	0,017	-0,043
-599,313	-200,000	0,011	-0,169
-598,298	-200,000	0,007	-0,070
-597,284	-141,920	-0,096	0,007
-596,269	349,655	-0,048	0,069
-595,255	9,061	0,130	0,072
-594,240	-86,655	-0,066	0,015
-593,225	-48,334	0,049	0,017
-592,211	320,552	-0,046	0,064
-591,196	800,000	0,043	-0,105
-590,182	800,000	0,004	0,010
-589,167	-200,000	0,008	-0,027
-588,152	221,880	0,054	0,064
-587,138	-153,955	-0,044	0,002
-586,123	-200,000	0,004	0,129
-585,109	-134,831	0,098	0,009
-584,094	-200,000	0,011	0,063
-583,079	-200,000	-0,007	0,023
-582,065	-200,000	0,012	0,057
-581,050	-2,538	0,129	0,066
-580,036	-97,241	-0,169	-0,032
-579,021	132,297	0,089	0,084
-578,006	378,535	0,033	-0,049
-576,992	-105,628	0,062	-0,010
-575,977	248,171	0,040	0,050
-574,963	800,000	-0,017	0,037
-573,948	-7,192	0,067	0,033
-572,934	-111,392	-0,038	-0,006
-571,919	526,008	-0,015	0,026
-570,904	10,633	-0,081	-0,045
-569,890	158,811	0,106	0,108
-568,875	246,011	-0,034	0,042
-567,861	-200,000	-0,001	0,055
-566,846	150,542	-0,107	0,107
-565,831	235,583	-0,021	-0,026
-564,817	-200,000	-0,028	-0,095
-563,802	-200,000	-0,020	0,066
-562,788	-92,597	-0,047	-0,010
-561,773	197,902	0,008	0,009
-560,758	-200,000	0,004	0,039
-559,744	-6,014	0,053	-0,027
-558,729	800,000	0,033	0,081
-557,715	-200,000	0,012	-0,123
-556,700	-200,000	-0,017	-0,149
-555,685	542,851	-0,066	-0,115
-554,671	-200,000	-0,028	-0,127
-553,656	-200,000	0,032	-0,136
-552,642	-31,228	0,186	0,076
-551,627	-180,759	-0,065	-0,001
-550,612	458,830	-0,028	0,046
-549,598	800,000	0,039	-0,117
-548,583	-57,921	0,114	-0,036
-547,569	-32,866	-0,140	0,057
-546,554	85,925	-0,046	-0,037
-545,539	40,468	0,118	-0,078
-544,525	-62,765	-0,094	0,028
-543,510	42,557	0,038	-0,025
-542,496	500,423	-0,053	-0,090
-541,481	199,286	0,102	-0,115
-540,466	8,868	-0,048	-0,026
-539,452	-20,255	0,037	0,017
-538,437	46,099	0,134	0,091
-537,423	-93,190	0,076	0,015
-536,408	-11,166	-0,055	0,026
-535,393	-12,188	-0,119	0,057
-534,379	414,050	-0,032	0,050
-533,364	-39,367	0,074	0,028
-532,350	-95,912	-0,095	0,018
-531,335	73,186	0,058	0,044
-530,321	800,000	-0,030	-0,096
-529,306	-49,817	0,013	-0,005
-528,291	-8,073	-0,066	0,032
-527,277	-3,943	-0,202	-0,102
-526,262	14,330	0,016	0,009
-525,248	800,000	-0,052	0,118
-524,233	-138,623	0,089	0,007
-523,218	60,403	0,135	-0,098
-522,204	94,342	0,082	0,068
-521,189	587,102	-0,015	-0,027
-520,175	140,915	0,010	0,010
-519,160	-96,547	-0,046	-0,009
-518,145	296,233	0,084	-0,113
-517,131	-63,510	-0,051	-0,015
-516,116	319,261	-0,058	0,081
-515,102	757,901	0,078	-0,155
-514,087	90,333	-0,101	-0,083
-513,072	-9,856	-0,116	-0,056
-512,058	198,710	-0,054	0,061
-511,043	-200,000	-0,002	-0,162
-510,029	10,734	0,181	0,101
-509,014	732,542	0,054	0,106
-507,999	-200,000	-0,013	0,063
-506,985	437,897	-0,071	-0,113
-505,970	-200,000	-0,011	-0,072
-504,956	-99,298	-0,084	0,015
-503,941	-200,000	0,002	-0,047
-502,926	130,682	0,090	0,084
-501,912	-200,000	0,016	0,060
-500,897	520,916	0,068	-0,118
-499,883	-53,856	-0,113	-0,037
-498,868	-114,640	-0,078	0,011
-497,853	60,887	-0,054	-0,039
-496,839	-172,601	0,085	-0,002
-495,824	800,000	0,025	0,051
-494,810	800,000	-0,056	0,128
-493,795	319,958	0,039	0,054
-492,781	-38,119	0,131	-0,050
-491,766	-89,765	-0,030	0,006
-490,751	-200,000	0,002	0,012
-489,737	71,157	0,061	0,046
-488,722	800,000	0,008	0,020
-487,708	525,388	0,035	0,060
-486,693	485,130	0,005	0,009
-485,678	-105,976	-0,041	-0,007
-484,664	-200,000	0,032	0,126
-483,649	-104,625	-0,042	-0,007
-482,635	800,000	-0,032	0,073
-481,620	-0,504	-0,096	0,049
-480,605	60,326	-0,042	0,030
-479,591	60,805	0,146	0,105
-478,576	421,015	-0,090	-0,141
-477,562	-200,000	-0,000	-0,055
-476,547	264,390	-0,106	0,134
-475,532	-200,000	0,009	0,121
-474,518	294,475	0,082	0,110
-473,503	247,867	0,044	-0,054
-472,489	82,721	0,118	0,094
-471,474	-30,885	-0,110	-0,045
-470,459	-200,000	-0,001	0,022
-469,445	-0,458	-0,091	-0,047
-468,430	-200,000	0,007	0,036
-467,416	-200,000	0,021	0,081
-466,401	-99,131	-0,125	0,023
-465,386	23,881	-0,065	-0,039
-464,372	-31,749	-0,076	0,031
-463,357	181,369	-0,071	0,076
-462,343	-62,317	-0,051	-0,015
-461,328	14,940	-0,173	-0,098
-460,313	-194,370	0,109	-0,001
-459,299	800,000	-0,044	0,106
-458,284	-8,652	-0,063	0,031
-457,270	-200,000	-0,026	0,095
-456,255	-200,000	0,020	0,152
-455,241	-10,976	-0,095	0,045
-454,226	800,000	0,018	-0,038
-453,211	-61,002	0,031	-0,010
-452,197	363,559	-0,014	-0,020
-451,182	-171,110	0,044	0,001
-450,168	-116,774	0,045	0,006
-449,153	113,834	0,063	-0,056
-448,138	132,021	-0,062	-0,058
-447,124	-94,450	-0,093	-0,018
-446,109	-133,746	0,062	-0,006
-445,095	-11,560	0,011	-0,005
-444,080	170,669	0,013	0,014
-443,065	-200,000	0,017	-0,108
-442,051	-91,530	-0,087	-0,018
-441,036	-75,809	-0,097	0,025
-440,022	-200,000	-0,023	-0,173
-439,007	-97,397	-0,045	0,009
-437,992	288,069	0,015	0,019
-436,978	-27,466	0,086	0,036
-435,963	-76,503	-0,087	0,022
-434,949	706,345	0,033	-0,064
-433,934	-124,926	-0,086	-0,009
-432,919	800,000	-0,042	-0,114
-431,905	-47,713	-0,056	0,020
-430,890	245,764	-0,063	-0,077
-429,876	-184,837	0,069	0,001
-428,861	-105,354	-0,022	-0,004
-427,846	-4,952	0,076	-0,038
-426,832	-94,271	-0,090	-0,018
-425,817	-12,566	-0,074	0,035
-424,803	-200,000	-0,010	-0,061
-423,788	-200,000	0,007	0,026
-422,773	0,977	0,106	0,055
-421,759	-36,868	-0,052	-0,020
-420,744	-37,647	0,109	0,042
-419,730	212,046	0,066	-0,076
-418,715	-21,672	0,135	-0,060
-417,701	-178,038	0,011	-0,000
-416,686	800,000	-0,003	0,009
-415,671	-58,484	0,176	-0,055
-414,657	76,589	0,130	0,100
-413,642	-200,000	0,003	-0,095
-412,628	-37,776	-0,125	-0,048
-411,613	79,999	-0,053	0,041
-410,598	-200,000	0,018	-0,091
-409,584	256,686	0,086	0,108
-408,569	354,816	-0,050	0,073
-407,555	388,322	-0,044	0,066
-406,540	-200,000	0,004	-0,132
-405,525	-200,000	0,012	-0,145
-404,511	44,442	-0,067	-0,045
-403,496	-72,672	-0,135	-0,036
-402,482	-146,119	0,135	0,009
-401,467	763,885	-0,027	0,054
-400,452	-200,000	-0,016	0,175
-399,438	-101,490	0,146	0,026
-398,423	241,844	0,088	-0,107
-397,409	31,499	0,084	-0,052
-396,394	169,315	0,074	0,077
-395,379	147,858	0,102	-0,100
-394,365	90,338	0,098	0,080
-393,350	-200,000	0,003	0,115
-392,336	-200,000	0,010	-0,061
-391,321	-96,103	-0,118	0,023
-390,306	174,901	-0,099	-0,105
-389,292	71,173	-0,078	-0,059
-388,277	-200,000	-0,012	-0,147
-387,263	-109,185	-0,108	0,016
-386,248	-200,000	0,028	0,140
-385,233	-102,193	-0,051	0,009
-384,219	800,000	0,024	0,049
-383,204	189,283	0,048	-0,052
-382,190	185,658	0,031	-0,033
-381,175	-85,941	-0,093	0,021
-380,160	-137,478	0,151	-0,012
-379,146	19,615	0,104	0,061
-378,131	104,471	-0,133	0,114
-377,117	-191,881	0,075	-0,001
-376,102	-200,000	-0,028	-0,097
-375,088	-200,000	0,010	-0,051
-374,073	-107,458	-0,105	0,017
-373,058	-200,000	-0,009	-0,086
-372,044	335,789	0,047	0,066
-371,029	-136,352	0,077	0,006
-370,015	243,074	0,016	0,019
-369,000	-200,000	0,003	0,030
-367,985	800,000	-0,054	-0,160
-366,971	-96,819	-0,193	0,037
-365,956	77,930	-0,034	0,026
-364,942	534,547	0,024	0,042
-363,927	201,623	-0,016	-0,018
-362,912	274,659	0,107	0,138
-361,898	-200,000	-0,005	-0,078
-360,883	-78,941	-0,114	-0,028
-359,869	194,637	0,045	-0,050
-358,854	180,321	-0,065	0,070
-357,839	32,178	0,124	0,077
-356,825	55,345	0,101	-0,071
-355,810	-9,648	-0,236	0,114
-354,796	-110,146	0,071	0,011
-353,781	9,930	0,070	-0,038
-352,766	490,528	0,022	0,036
-351,752	-117,114	0,078	0,010
-350,737	118,502	0,118	-0,106
-349,723	297,392	0,186	0,249
-348,708	-66,523	-0,093	0,027
-347,693	-55,376	-0,144	0,047
-346,679	800,000	0,017	-0,038
-345,664	132,445	-0,037	-0,034
-344,650	-68,993	0,052	-0,014
-343,635	-200,000	0,017	0,071
-342,620	-200,000	-0,008	0,048
-341,606	350,566	0,032	-0,046
-340,591	204,122	0,042	0,047
-339,577	-200,000	-0,003	-0,099
-338,562	-200,000	-0,004	-0,209
-337,548	800,000	0,027	-0,082
-336,533	555,588	0,028	-0,049
-335,518	-106,052	0,067	-0,011
-334,504	331,925	-0,021	0,030
-333,489	800,000	-0,027	0,062
-332,475	82,399	-0,057	0,045
-331,460	139,075	0,021	-0,020
-330,445	31,173	0,048	-0,030
-329,431	78,140	0,118	-0,091
-328,416	800,000	0,046	0,112
-327,402	684,762	0,030	0,057
-326,387	800,000	0,009	0,028
-325,372	-75,273	0,033	0,009
-324,358	108,403	0,067	-0,058
-323,343	-29,065	-0,026	-0,011
-322,329	-44,858	-0,099	0,035
-321,314	163,133	0,055	0,056
-320,299	-200,000	0,013	0,091
-319,285	-200,000	0,020	0,072
-318,270	-58,577	-0,068	0,021
-317,256	-11,814	0,040	0,019
-316,241	-44,544	0,062	0,022
-315,226	21,435	0,052	-0,031
-314,212	-54,900	0,114	-0,037
-313,197	-200,000	-0,004	0,014
-312,183	139,676	0,064	0,061
-311,168	-157,659	0,079	-0,003
-310,153	-53,725	0,029	-0,010
-309,139	371,687	-0,010	-0,015
-308,124	-200,000	-0,043	0,149
-307,110	158,533	0,030	0,030
-306,095	16,577	0,054	0,031
-305,080	507,037	0,007	-0,012
-304,066	87,471	-0,007	-0,006
-303,051	-47,910	-0,230	-0,080
-302,037	583,987	-0,073	-0,130
-301,022	-86,528	-0,065	-0,014
-300,008	49,293	0,069	0,047
-298,993	-200,000	-0,008	-0,033
-297,978	-118,202	-0,205	-0,026
-296,964	183,461	-0,070	-0,075
-295,949	800,000	0,069	-0,160
-294,935	365,135	-0,016	0,024
-293,920	356,675	0,050	0,072
-292,905	800,000	0,049	0,132
-291,891	-64,941	0,079	0,023
-290,876	-50,429	-0,024	-0,008
-289,862	180,259	-0,050	0,053
-288,847	119,386	-0,116	-0,104
-287,832	198,812	0,036	-0,040
-286,818	800,000	-0,044	0,112
-285,803	38,387	0,109	0,070
-284,789	550,394	-0,038	-0,066
-283,774	25,377	-0,088	-0,053
-282,759	-200,000	-0,023	0,140
-281,745	-29,852	-0,100	-0,041
-280,730	238,042	-0,113	-0,135
-279,716	29,629	0,032	0,020
-278,701	18,658	0,138	0,079
-277,686	-99,653	0,047	0,008
-276,672	60,515	0,081	0,058
-275,657	8,791	0,117	-0,064
-274,643	432,358	-0,060	0,094
-273,628	223,536	0,033	0,038
-272,613	-76,666	0,066	0,017
-271,599	800,000	-0,039	-0,113
-270,584	411,737	-0,046	-0,071
-269,570	5,194	0,066	-0,035
-268,555	-200,000	-0,004	-0,133
-267,540	18,162	-0,044	0,026
-266,526	-63,660	-0,160	-0,047
-265,511	45,108	-0,058	-0,038
-264,497	29,620	0,066	-0,041
-263,482	211,685	0,018	0,020
-262,467	-143,347	-0,028	0,002
-261,453	-89,188	-0,086	-0,018
-260,438	22,913	-0,093	0,055
-259,424	327,399	-0,028	-0,038
-258,409	800,000	-0,060	-0,123
-257,395	-46,627	0,048	0,017
-256,380	12,078	0,110	0,061
-255,365	80,996	0,104	-0,081
-254,351	-200,000	-0,034	0,189
-253,336	225,221	0,077	0,091
-252,322	305,010	-0,035	-0,047
-251,307	-200,000	0,052	0,198
-250,292	126,519	0,112	-0,103
-249,278	21,960	0,043	0,025
-248,263	800,000	0,025	-0,080
-247,249	800,000	-0,027	0,077
-246,234	-143,868	-0,116	-0,008
-245,219	-200,000	0,015	-0,080
-244,205	-136,237	-0,224	-0,019
-243,190	-200,000	0,032	0,157
-242,176	-200,000	-0,011	-0,065
-241,161	-200,000	0,043	0,140
-240,146	386,568	-0,021	0,032
-239,132	-112,092	-0,021	-0,003
-238,117	800,000	0,026	-0,065
-237,103	87,070	-0,090	0,072
-236,088	96,296	-0,084	-0,070
-235,073	31,826	-0,017	-0,011
-234,059	-97,130	0,112	0,021
-233,044	-200,000	-0,002	0,062
-232,030	-178,399	-0,071	0,001
-231,015	-200,000	-0,018	-0,067
-230,000	78,445	0,062	-0,048
-228,986	-122,311	-0,053	0,006
-227,971	295,458	0,013	-0,018
-226,957	138,633	-0,086	0,082
-225,942	134,479	0,055	0,052
-224,927	-151,678	0,045	-0,002
-223,913	-63,229	0,130	0,038
-222,898	-53,467	-0,045	-0,015
-221,884	-6,170	0,069	-0,034
-220,869	800,000	-0,045	0,098
-219,855	740,239	0,019	0,037
-218,840	-200,000	-0,003	-0,148
-217,825	48,644	-0,094	0,063
-216,811	670,681	-0,064	-0,121
-215,796	103,507	0,045	0,038
-214,782	-200,000	-0,019	-0,095
-213,767	-66,216	0,044	-0,012
-212,752	-23,458	0,147	0,064
-211,738	28,600	0,117	0,071
-210,723	24,305	-0,033	-0,019
-209,709	317,965	0,070	-0,096
-208,694	-122,767	-0,048	-0,006
-207,679	-108,496	0,143	-0,022
-206,665	800,000	-0,077	-0,190
-205,650	52,450	0,030	0,021
-204,636	-78,560	0,080	-0,020
-203,621	-19,754	0,038	0,017
-202,606	-106,454	-0,090	0,014
-201,592	-200,000	0,019	0,076
-200,577	44,811	0,057	0,038
-199,563	-133,821	0,070	-0,006
-198,548	-200,000	0,018	0,065
-197,533	800,000	0,050	-0,109
-196,519	-79,685	-0,153	0,037
-195,504	-200,000	0,016	0,073
-194,490	686,178	0,040	-0,076
-193,475	800,000	-0,046	0,144
-192,460	-200,000	0,001	-0,057
-191,446	-200,000	0,016	-0,108
-190,431	115,136	-0,022	0,020
-189,417	-200,000	-0,044	0,176
-188,402	384,466	-0,011	0,016
-187,387	44,323	0,103	0,068
-186,373	-89,878	-0,064	-0,013
-185,358	-200,000	0,001	-0,008
-184,344	-129,168	-0,024	-0,002
-183,329	800,000	-0,047	-0,099
-182,315	-59,761	-0,055	0,017
-181,300	-30,418	-0,089	0,036
-180,285	764,484	0,044	-0,086
-179,271	678,455	-0,020	0,037
-178,256	800,000	0,060	-0,129
-177,242	385,782	-0,066	-0,099
-176,227	-140,884	-0,017	-0,001
-175,212	800,000	0,034	0,107
-174,198	-200,000	-0,031	0,126
-173,183	800,000	0,029	0,063
-172,169	50,369	0,056	0,038
-171,154	114,190	0,063	-0,055
-170,139	65,802	-0,040	0,029
-169,125	-200,000	0,002	-0,089
-168,110	50,743	0,023	-0,016
-167,096	114,118	0,076	-0,067
-166,081	45,753	0,024	0,016
-165,066	323,727	-0,094	-0,130
-164,052	-200,000	0,006	-0,090
-163,037	3,099	-0,053	0,028
-162,023	58,032	0,035	0,025
-161,008	-200,000	0,018	-0,094
-159,993	273,126	0,049	-0,063
-158,979	167,179	-0,068	0,070
-157,964	800,000	0,012	0,026
-156,950	113,411	-0,051	-0,044
-155,935	-41,052	0,055	0,021
-154,920	-200,000	0,019	0,113
-153,906	-86,343	0,110	0,024
-152,891	25,563	0,068	-0,041
-151,877	237,454	-0,020	0,024
-150,862	-103,144	-0,108	0,018
-149,847	77,218	0,075	0,057
-148,833	-200,000	-0,008	-0,066
-147,818	-73,160	0,182	0,048
-146,804	503,358	0,015	-0,026
-145,789	-66,657	-0,184	0,052
-144,775	-14,023	0,098	0,046
-143,760	800,000	-0,063	-0,145
-142,745	540,949	0,072	0,124
-141,731	-52,785	0,161	0,053
-140,716	-200,000	0,002	0,067
-139,702	101,462	-0,021	0,017
-138,687	-200,000	-0,019	0,069
-137,672	-200,000	0,003	0,041
-136,658	83,712	-0,107	-0,084
-135,643	-47,880	0,152	0,053
-134,629	48,329	0,130	-0,087
-133,614	-192,100	-0,093	-0,001
-132,599	-51,940	0,204	-0,068
-131,585	-98,701	0,162	0,030
-130,570	114,998	-0,154	-0,135
-129,556	-156,019	-0,162	0,007
-128,541	-200,000	0,001	-0,010
-127,526	318,191	-0,060	0,082
-126,512	-82,029	0,001	0,000
-125,497	561,524	-0,039	0,068
-124,483	441,184	0,084	0,133
-123,468	800,000	0,045	-0,104
-122,453	628,058	-0,041	0,074
-121,439	-200,000	0,033	0,114
-120,424	107,220	0,063	0,054
-119,410	-200,000	-0,000	0,083
-118,395	800,000	0,037	0,111
-117,380	-200,000	-0,001	-0,018
-116,366	243,661	-0,032	-0,039
-115,351	501,033	-0,019	-0,031
-114,337	-42,968	-0,018	0,006
-113,322	-28,377	0,075	0,031
-112,307	-100,223	-0,160	0,028
-111,293	-76,451	0,176	0,044
-110,278	224,839	-0,083	0,097
-109,264	-200,000	-0,025	0,152
-108,249	261,911	0,017	-0,021
-107,234	800,000	0,026	-0,062
-106,220	261,481	-0,110	-0,137
-105,205	800,000	0,016	0,046
-104,191	444,451	0,013	0,020
-103,176	591,483	0,045	0,080
-102,162	189,306	0,067	0,073
-101,147	-200,000	0,043	0,147
-100,132	15,658	0,010	-0,006
-99,118	-200,000	0,035	0,176
-98,103	40,043	-0,019	-0,012
-97,089	-66,829	-0,043	0,012
-96,074	-200,000	-0,034	0,132
-95,059	-200,000	-0,003	0,155
-94,045	620,917	-0,072	-0,131
-93,030	-200,000	-0,010	-0,113
-92,016	-86,820	-0,090	-0,020
-91,001	-21,203	0,045	0,020
-89,986	148,829	-0,027	0,026
-88,972	507,692	0,108	0,180
-87,957	-200,000	0,021	0,077
-86,943	-42,979	0,103	0,037
-85,928	-40,886	-0,125	-0,046
-84,913	-200,000	0,011	0,082
-83,899	0,759	0,055	0,028
-82,884	464,987	0,086	0,138
-81,870	-30,472	0,147	-0,059
-80,855	-30,720	0,091	-0,037
-79,840	-131,030	-0,178	-0,017
-78,826	631,157	-0,035	0,063
-77,811	81,311	-0,019	0,015
-76,797	84,093	0,054	0,043
-75,782	-86,023	0,017	-0,004
-74,767	464,956	-0,060	0,096
-73,753	63,383	0,095	-0,069
-72,738	48,513	-0,085	0,057
-71,724	301,075	-0,034	0,045
-70,709	800,000	-0,033	-0,105
-69,694	152,158	-0,011	0,011
-68,680	800,000	0,054	-0,124
-67,665	-200,000	-0,033	-0,147
-66,651	-200,000	0,017	0,131
-65,636	-200,000	0,003	0,257
-64,622	-3,112	-0,140	0,070
-63,607	127,665	0,014	0,013
-62,592	-15,945	-0,181	-0,082
-61,578	800,000	-0,064	-0,138
-60,563	446,374	0,075	-0,119
-59,549	-200,000	-0,019	0,072
-58,534	1,227	-1,986	-1,020
-57,519	-200,000	-0,207	-0,902
-56,505	-200,000	-1,188	-4,940
-55,490	-94,997	0,773	0,149
-54,476	800,000	5,356	12,068
-53,461	-200,000	17,418	283,428
-52,446	800,000	723,619	2222,464
-51,432	539,762	1639,725	2810,448
-50,417	111,547	1631,632	1411,723
-49,403	75,731	1286,228	974,035
-48,388	32,668	1028,348	636,616
-47,373	20,209	990,164	571,900
-46,359	18,642	978,332	559,906
-45,344	16,090	974,368	549,259
-44,330	16,279	972,893	549,025
-43,315	15,854	971,070	546,585
-42,300	15,817	970,010	545,847
-41,286	15,801	968,889	545,144
-40,271	15,818	967,857	544,596
-39,257	15,779	967,122	544,032
-38,242	15,794	966,162	543,522
-37,227	15,842	965,237	543,134
-36,213	15,832	964,498	542,666
-35,198	15,794	963,754	542,101
-34,184	15,877	962,884	541,859
-33,169	15,833	961,979	541,185
-32,154	15,860	960,941	540,669
-31,140	15,824	960,129	540,076
-30,125	15,853	959,457	539,767
-29,111	15,871	958,422	539,222
-28,096	15,828	958,011	538,832
-27,082	15,867	957,271	538,518
-26,067	15,812	956,499	537,886
-25,052	15,858	955,671	537,546
-24,038	15,832	955,095	537,118
-23,023	15,826	954,366	536,669
-22,009	15,824	953,569	536,192
-20,994	15,851	953,166	536,031
-19,979	15,803	952,588	535,529
-18,965	15,800	951,937	535,134
-17,950	15,800	951,446	534,837
-16,936	15,780	950,663	534,311
-15,921	15,778	949,874	533,839
-14,906	15,750	949,358	533,439
-13,892	15,661	948,677	532,752
-12,877	15,714	948,013	532,526
-11,863	15,662	947,429	532,014
-10,848	15,673	946,907	531,734
-9,833	15,827	946,464	531,952
-8,819	15,749	945,719	531,265
-7,804	15,702	945,067	530,729
-6,790	15,664	944,598	530,325
-5,775	15,705	943,972	530,081
-4,760	15,759	943,312	529,860
-3,746	15,703	942,586	529,254
-2,731	15,604	942,074	528,631
-1,717	15,570	941,374	528,113
-0,702	15,554	940,550	527,579
0,313	15,399	939,981	527,565
1,327	18,426	937,742	535,800
2,342	27,253	795,040	477,657
3,356	24,059	458,923	270,816
4,371	-2,578	313,475	156,779
5,386	-6,369	295,211	143,811
6,400	-8,276	289,224	138,996
7,415	-8,925	286,787	137,177
8,429	-9,185	285,451	136,271
9,444	-9,109	284,573	135,914
10,459	-9,297	283,921	135,408
11,473	-9,229	283,268	135,151
12,488	-9,220	282,746	134,898
13,502	-9,182	282,035	134,583
14,517	-9,337	281,828	134,324
15,531	-9,442	281,300	133,959
16,546	-9,434	281,031	133,826
17,561	-9,382	280,577	133,648
18,575	-9,347	280,135	133,459
19,590	-9,443	279,772	133,183
20,604	-9,231	279,528	133,258
21,619	-9,471	279,143	132,832
22,634	-9,440	278,876	132,723
23,648	-9,403	278,409	132,524
24,663	-9,300	278,297	132,557
25,677	-9,352	278,050	132,378
26,692	-9,390	277,744	132,184
27,707	-9,395	277,409	132,009
28,721	-9,320	277,027	131,886
29,736	-9,464	276,981	131,717
30,750	-9,495	276,619	131,503
31,765	-9,574	276,500	131,361
32,780	-9,406	276,022	131,279
33,794	-9,365	275,791	131,197
34,809	-9,286	275,499	131,121
35,823	-9,555	275,517	130,865
36,838	-9,470	275,182	130,774
37,853	-9,546	274,860	130,537
38,867	-9,488	274,674	130,492
39,882	-9,441	274,384	130,386
40,896	-9,538	274,187	130,191
41,911	-9,358	273,899	130,211
42,926	-9,471	273,656	129,978
43,940	-9,671	273,367	129,643
44,955	-9,588	273,222	129,639
45,969	-9,455	272,902	129,600
46,984	-9,729	272,827	129,298
47,999	-9,771	272,358	129,025
49,013	-10,175	272,329	128,625
50,028	-10,063	271,774	128,455
51,042	-10,093	271,779	128,418
52,057	-10,263	271,465	128,101
53,071	-10,176	271,312	128,097
54,086	-10,014	270,998	128,088
55,101	-9,909	270,879	128,116
56,115	-9,738	270,867	128,258
57,130	-9,408	270,677	128,461
58,144	-9,288	270,531	128,491
59,159	-9,201	270,218	128,410
60,174	-9,242	270,001	128,258
61,188	-9,347	269,829	128,068
62,203	-9,301	269,498	127,942
63,217	-9,409	269,297	127,736
64,232	-9,211	269,028	127,778
65,247	-9,306	268,882	127,611
66,261	-9,301	268,691	127,513
67,276	-9,695	268,429	127,018
68,290	-9,643	268,108	126,902
69,305	-9,624	267,862	126,791
70,320	-9,479	267,633	126,804
71,334	-9,490	267,506	126,722
72,349	-9,354	267,320	126,746
73,363	-9,268	267,243	126,777
74,378	-9,471	266,872	126,406
75,393	-9,420	266,755	126,385
76,407	-9,309	266,521	126,364
77,422	-9,404	266,269	126,147
78,436	-9,296	266,077	126,142
79,451	-9,182	265,785	126,095
80,466	-9,335	265,455	125,790
81,480	-9,387	265,204	125,613
82,495	-9,399	265,081	125,532
83,509	-9,436	264,986	125,443
84,524	-9,661	264,683	125,086
85,539	-9,794	264,391	124,817
86,553	-9,770	264,220	124,747
87,568	-9,543	264,085	124,876
88,582	-9,547	263,925	124,785
89,597	-9,298	263,500	124,796
90,611	-9,427	263,527	124,682
91,626	-9,375	263,429	124,671
92,641	-9,334	263,158	124,569
93,655	-9,490	262,946	124,318
94,670	-9,450	262,735	124,243
95,684	-9,342	262,488	124,211
96,699	-9,372	262,185	124,030
97,714	-9,409	262,172	123,980
98,728	-9,550	261,890	123,710
99,743	-9,573	261,614	123,548
100,757	-9,628	261,462	123,417
101,772	-9,729	261,310	123,244
102,787	-9,599	261,080	123,240
103,801	-9,632	261,046	123,184
104,816	-9,308	260,753	123,322
105,830	-9,421	260,700	123,186
106,845	-9,351	260,523	123,153
107,860	-9,278	260,193	123,050
108,874	-9,449	259,960	122,777
109,889	-9,348	259,883	122,819
110,903	-9,475	259,651	122,587
111,918	-9,412	259,491	122,556
112,933	-9,234	259,116	122,525
113,947	-9,154	259,103	122,577
114,962	-9,342	258,896	122,304
115,976	-9,397	258,694	122,149
116,991	-9,254	258,476	122,161
118,006	-9,261	258,274	122,048
119,020	-9,268	258,138	121,967
120,035	-9,183	257,944	121,939
121,049	-9,443	257,919	121,688
122,064	-9,273	257,662	121,705
123,079	-9,180	257,420	121,661
124,093	-9,178	257,104	121,502
125,108	-9,518	257,041	121,166
126,122	-9,660	256,689	120,866
127,137	-9,733	256,620	120,759
128,151	-9,677	256,288	120,641
129,166	-9,325	256,161	120,875
130,181	-9,621	255,985	120,525
131,195	-9,539	255,786	120,491
132,210	-9,247	255,506	120,602
133,224	-9,149	255,562	120,701
134,239	-9,253	255,352	120,502
135,254	-9,270	255,166	120,389
136,268	-9,425	254,888	120,114
137,283	-9,555	254,568	119,840
138,297	-9,792	254,369	119,532
139,312	-9,657	254,114	119,517
140,327	-9,500	254,100	119,635
141,341	-8,965	254,083	120,075
142,356	-9,089	253,818	119,833
143,370	-9,299	253,808	119,638
144,385	-9,062	253,477	119,674
145,400	-9,058	253,378	119,620
146,414	-9,173	253,087	119,374
147,429	-9,158	252,831	119,255
148,443	-9,130	252,831	119,269
149,458	-9,357	252,625	118,967
150,473	-9,262	252,540	118,997
151,487	-9,246	252,170	118,826
152,502	-9,125	252,021	118,848
153,516	-9,207	251,911	118,716
154,531	-9,107	251,604	118,646
155,546	-9,030	251,479	118,641
156,560	-9,074	251,152	118,440
157,575	-9,276	250,991	118,182
158,589	-9,330	250,959	118,111
159,604	-9,145	250,701	118,135
160,619	-9,088	250,527	118,091
161,633	-9,165	250,392	117,951
162,648	-9,089	250,263	117,945
163,662	-9,175	250,045	117,758
164,677	-9,174	249,858	117,661
165,692	-9,136	249,733	117,624
166,706	-9,199	249,592	117,493
167,721	-9,170	249,411	117,422
168,735	-8,965	249,203	117,486
169,750	-9,115	249,174	117,336
170,764	-9,229	249,052	117,173
171,779	-8,876	248,749	117,315
172,794	-8,969	248,630	117,170
173,808	-9,285	248,440	116,806
174,823	-9,459	248,039	116,462
175,837	-9,662	247,871	116,203
176,852	-9,181	247,875	116,596
177,867	-8,912	247,744	116,749
178,881	-9,173	247,716	116,507
179,896	-9,050	247,387	116,444
180,910	-9,038	247,146	116,331
181,925	-9,098	247,042	116,222
182,940	-8,991	246,878	116,223
183,954	-8,999	246,736	116,140
184,969	-9,029	246,707	116,090
185,983	-8,912	246,471	116,066
186,998	-8,999	246,209	115,861
188,013	-9,007	246,061	115,773
189,027	-9,031	246,004	115,717
190,042	-9,076	245,794	115,571
191,056	-8,777	245,490	115,663
192,071	-8,677	245,302	115,647
193,086	-9,015	245,268	115,342
194,100	-8,877	245,247	115,436
195,115	-8,915	244,894	115,228
196,129	-8,957	244,565	115,029
197,144	-8,875	244,512	115,061
198,159	-9,138	244,416	114,789
199,173	-9,066	244,185	114,730
200,188	-9,111	244,023	114,606
201,202	-9,275	243,693	114,307
202,217	-9,458	243,358	113,989
203,232	-9,517	243,090	113,806
204,246	-9,059	243,111	114,180
205,261	-8,413	243,214	114,746
206,275	-9,156	242,791	113,930
207,290	-6,758	243,811	116,362
208,304	-1,625	245,493	121,379
209,319	1,393	245,957	124,080
210,334	1,595	246,135	124,325
211,348	1,963	246,096	124,596
212,363	2,114	246,142	124,733
213,377	2,455	246,027	124,944
214,392	2,517	245,839	124,888
215,407	2,181	245,753	124,557
216,421	2,541	245,407	124,666
217,436	2,718	245,129	124,658
218,450	2,597	245,139	124,553
219,465	2,271	244,961	124,186
220,480	2,300	244,721	124,076
221,494	2,207	244,592	123,924
222,509	2,603	244,528	124,203
223,523	2,567	244,432	124,114
224,538	2,000	244,066	123,456
225,553	2,097	243,907	123,443
226,567	2,282	243,623	123,439
227,582	2,386	243,572	123,487
228,596	2,199	243,494	123,284
229,611	2,134	243,215	123,079
230,626	2,018	243,103	122,918
231,640	2,167	243,095	123,023
232,655	2,370	242,869	123,062
233,669	2,068	242,595	122,668
234,684	2,145	242,568	122,706
235,699	2,669	242,268	122,966
236,713	2,412	242,419	122,824
237,728	2,198	242,088	122,473
238,742	2,190	241,943	122,382
239,757	2,024	241,599	122,064
240,772	2,098	241,533	122,079
241,786	2,458	241,350	122,266
242,801	2,054	241,016	121,761
243,815	1,793	241,166	121,617
244,830	2,225	240,949	121,842
245,844	2,322	240,839	121,854
246,859	2,200	240,623	121,636
247,874	2,187	240,375	121,489
248,888	2,183	240,289	121,432
249,903	2,392	240,122	121,503
250,917	2,395	240,113	121,490
251,932	2,632	239,891	121,556
252,947	2,277	239,775	121,204
253,961	2,201	239,374	120,929
254,976	2,213	239,317	120,899
255,990	2,514	239,189	121,064
257,005	2,204	238,907	120,664
258,020	1,926	238,906	120,431
259,034	1,993	238,698	120,369
260,049	2,284	238,671	120,576
261,063	2,090	238,201	120,174
262,078	1,778	238,408	120,020
263,093	2,317	238,206	120,335
264,107	2,355	238,029	120,264
265,122	2,271	237,723	120,033
266,136	2,013	237,701	119,808
267,151	2,500	237,547	120,103
268,166	2,269	237,252	119,761
269,180	2,067	237,075	119,502
270,195	2,529	237,325	119,982
271,209	2,879	237,063	120,114
272,224	2,428	236,588	119,509
273,239	1,915	236,545	119,073
274,253	2,098	236,363	119,115
275,268	2,367	236,066	119,165
276,282	2,139	236,061	118,973
277,297	2,192	235,819	118,882
278,312	2,031	235,859	118,766
279,326	2,402	235,680	118,955
280,341	2,502	235,472	118,918
281,355	2,302	235,535	118,783
282,370	2,498	235,249	118,781
283,384	2,291	235,111	118,539
284,399	2,150	234,842	118,283
285,414	1,906	234,710	118,016
286,428	2,157	234,654	118,173
287,443	2,444	234,499	118,307
288,457	2,543	234,420	118,333
289,472	2,377	234,232	118,099
290,487	2,443	233,976	118,011
291,501	2,235	233,669	117,685
292,516	2,005	233,471	117,397
293,530	1,751	233,450	117,179
294,545	2,002	233,443	117,359
295,560	2,165	233,206	117,355
296,574	1,884	233,128	117,088
297,589	2,113	232,943	117,162
298,603	2,631	232,802	117,480
299,618	2,396	232,763	117,268
300,633	2,255	232,607	117,071
301,647	2,418	232,598	117,182
302,662	2,704	232,462	117,323
303,676	2,786	232,294	117,290
304,691	2,811	232,066	117,184
305,706	2,592	231,853	116,898
306,720	2,613	231,768	116,861
307,735	2,319	231,642	116,562
308,749	2,421	231,471	116,543
309,764	2,145	231,204	116,188
310,779	1,989	231,014	115,963
311,793	1,885	230,822	115,777
312,808	2,026	230,634	115,779
313,822	1,800	230,389	115,473
314,837	2,036	230,325	115,611
315,852	1,873	230,182	115,405
316,866	2,281	230,079	115,653
317,881	2,365	230,037	115,686
318,895	2,753	230,046	115,975
319,910	2,773	229,862	115,888
320,925	2,546	229,624	115,585
321,939	2,168	229,455	115,203
322,954	2,457	229,394	115,381
323,968	2,407	229,320	115,296
324,983	2,367	229,103	115,146
325,997	2,525	228,830	115,118
327,012	2,480	228,709	115,012
328,027	2,192	228,402	114,631
329,041	2,333	228,379	114,715
330,056	2,777	228,440	115,071
331,070	3,302	228,421	115,447
332,085	2,938	228,244	115,073
333,100	2,607	227,981	114,681
334,114	2,695	227,754	114,622
335,129	2,703	227,501	114,491
336,143	2,549	227,439	114,334
337,158	2,826	227,255	114,439
338,173	2,595	227,288	114,272
339,187	2,657	227,060	114,194
340,202	2,831	226,741	114,154
341,216	2,610	226,750	113,982
342,231	2,568	226,551	113,841
343,246	2,580	226,461	113,794
344,260	2,453	226,507	113,712
345,275	2,595	226,328	113,718
346,289	2,811	226,167	113,789
347,304	2,865	226,024	113,747
348,319	2,786	225,978	113,655
349,333	2,706	225,718	113,454
350,348	2,286	225,505	113,024
351,362	2,576	225,259	113,106
352,377	2,471	225,061	112,919
353,392	2,209	225,054	112,711
354,406	2,401	224,984	112,809
355,421	197,104	1319,620	1400,726
356,435	158,037	1452,978	1400,733
