DTS Sentinel unit serial number:	SN410029Multiplexer serial number:	ORYXHardware model number:	OX2-SRSoftware version number:	ORYX F/W v4,00 Oryx Data Collector v3.7.2.0data status	okinstallation	B5 Nyhavnadifferential loss correction	single-endedforward channel	channel 2reverse channel	N/Adate	2023/12/13time	12:37:13forward acquisition time	300,00reverse acquisition time	0,00gamma	499,1914k internal	0,3161k external	0,3161temperature offset calibration	1,0000default loss term (dB/km)	0,3820temperature slope calibration	1,0000multiplexer offset coefficient	1,0000multiplexer slope coefficient	1,0000fibre end	0,00T internal ref (°C)	14,18T ext. ref 1 (°C)	-1,62T ext. ref 2 (°C)	-1,94length (m)	temperature (°C)	Stokes	anti-Stokes-744,400	35,407	0,049	-0,032
-743,385	-122,122	-0,326	-0,039
-742,371	-105,118	0,087	-0,014
-741,356	3,770	-0,305	0,163
-740,342	-119,476	0,098	-0,012
-739,327	-106,265	-0,154	-0,025
-738,312	-83,316	0,141	-0,033
-737,298	-158,151	-0,250	0,011
-736,283	31,201	0,120	0,075
-735,269	-92,466	-0,319	0,065
-734,254	-155,112	0,089	0,004
-733,239	-32,597	-0,492	-0,201
-732,225	-156,708	0,169	0,008
-731,210	308,753	-0,026	0,035
-730,196	800,000	0,022	0,068
-729,181	-132,342	-0,086	-0,008
-728,167	51,414	0,077	-0,054
-727,152	695,769	-0,080	-0,156
-726,137	24,547	-0,142	-0,086
-725,123	800,000	0,040	-0,092
-724,108	800,000	-0,061	0,161
-723,094	21,133	-0,182	-0,108
-722,079	337,281	0,020	0,029
-721,064	-200,000	0,011	-0,047
-720,050	800,000	-0,028	0,086
-719,035	-200,000	-0,020	0,097
-718,021	-200,000	-0,043	-0,209
-717,006	-61,699	-0,039	-0,012
-715,991	800,000	-0,034	-0,104
-714,977	110,564	0,042	0,037
-713,962	-56,744	-0,157	-0,051
-712,948	-200,000	0,003	0,035
-711,933	69,351	0,123	0,093
-710,918	-200,000	-0,000	0,132
-709,904	-71,438	-0,139	-0,038
-708,889	-200,000	-0,003	0,000
-707,875	-200,000	-0,010	-0,053
-706,860	273,056	0,003	0,003
-705,845	22,170	-0,052	-0,031
-704,831	115,135	-0,038	-0,034
-703,816	-6,541	-0,039	0,020
-702,802	339,446	-0,068	-0,098
-701,787	45,000	-0,168	-0,113
-700,772	-82,730	0,070	-0,016
-699,758	277,199	0,050	0,065
-698,743	188,171	-0,032	0,035
-697,729	588,635	0,026	-0,047
-696,714	62,819	0,034	-0,025
-695,699	-55,995	0,066	0,022
-694,685	504,352	-0,043	-0,073
-693,670	-51,042	-0,075	-0,026
-692,656	-200,000	0,018	-0,187
-691,641	-132,948	-0,131	-0,012
-690,627	89,598	0,026	0,021
-689,612	577,286	0,076	-0,136
-688,597	-61,767	-0,082	0,025
-687,583	-200,000	-0,051	-0,191
-686,568	75,515	0,070	-0,054
-685,554	-200,000	-0,025	0,105
-684,539	40,590	0,048	-0,032
-683,524	214,142	-0,132	0,154
-682,510	800,000	0,047	0,124
-681,495	-200,000	0,002	0,010
-680,481	800,000	0,005	-0,011
-679,466	-24,346	-0,066	-0,029
-678,451	800,000	0,011	-0,024
-677,437	-71,727	0,056	0,015
-676,422	-69,620	0,094	-0,026
-675,408	800,000	0,039	-0,083
-674,393	800,000	0,033	-0,083
-673,378	91,568	0,023	-0,019
-672,364	62,548	-0,065	0,047
-671,349	-200,000	0,017	-0,120
-670,335	693,100	0,061	-0,117
-669,320	114,027	-0,077	0,069
-668,305	38,789	-0,172	-0,112
-667,291	-99,425	-0,051	0,009
-666,276	800,000	0,028	0,081
-665,262	201,091	-0,046	0,052
-664,247	-85,323	-0,044	0,010
-663,232	134,091	-0,078	-0,075
-662,218	161,356	-0,034	-0,035
-661,203	800,000	-0,024	-0,065
-660,189	-200,000	-0,009	-0,063
-659,174	263,571	-0,058	-0,074
-658,159	-200,000	-0,016	-0,092
-657,145	-145,106	0,052	0,003
-656,130	800,000	-0,012	0,029
-655,116	800,000	0,060	-0,148
-654,101	-200,000	0,016	-0,198
-653,086	-81,712	-0,099	-0,024
-652,072	382,727	0,058	-0,088
-651,057	-129,648	-0,082	0,008
-650,043	-118,618	-0,130	0,017
-649,028	800,000	0,023	-0,048
-648,014	344,923	0,015	-0,022
-646,999	387,241	-0,032	0,049
-645,984	486,222	0,011	-0,019
-644,970	18,421	-0,102	-0,060
-643,955	-200,000	0,002	0,060
-642,941	-62,966	-0,181	-0,054
-641,926	517,825	0,029	0,050
-640,911	-200,000	0,022	0,082
-639,897	0,383	-0,018	0,009
-638,882	800,000	-0,031	0,066
-637,868	64,642	-0,059	0,044
-636,853	800,000	-0,034	-0,108
-635,838	208,347	0,121	-0,139
-634,824	800,000	0,041	-0,104
-633,809	-83,201	-0,097	-0,023
-632,795	-113,589	0,012	-0,002
-631,780	-173,802	-0,168	-0,004
-630,765	424,681	-0,077	-0,122
-629,751	-81,740	0,184	-0,044
-628,736	5,834	-0,020	-0,011
-627,722	52,720	-0,115	-0,081
-626,707	-200,000	-0,028	0,140
-625,692	-200,000	0,009	0,064
-624,678	-41,212	-0,138	-0,052
-623,663	131,576	0,046	0,044
-622,649	-200,000	-0,020	0,125
-621,634	9,247	-0,059	0,033
-620,619	800,000	-0,022	-0,046
-619,605	800,000	-0,064	-0,156
-618,590	-92,253	0,066	0,013
-617,576	-25,806	0,154	-0,066
-616,561	359,245	-0,043	0,063
-615,546	98,016	-0,051	0,043
-614,532	765,882	-0,034	-0,067
-613,517	187,817	-0,022	-0,024
-612,503	172,007	-0,061	-0,065
-611,488	-200,000	0,019	0,064
-610,474	32,206	0,042	-0,026
-609,459	-200,000	0,016	-0,124
-608,444	-200,000	-0,007	-0,093
-607,430	4,194	-0,147	-0,079
-606,415	415,392	0,048	-0,076
-605,401	463,092	-0,043	-0,071
-604,386	777,034	-0,084	0,169
-603,371	304,984	0,097	0,132
-602,357	228,172	0,045	-0,053
-601,342	800,000	-0,050	-0,117
-600,328	800,000	-0,059	-0,129
-599,313	-200,000	0,012	0,041
-598,298	161,624	0,056	0,058
-597,284	17,370	0,104	0,060
-596,269	351,426	-0,061	-0,088
-595,255	590,710	-0,076	-0,139
-594,240	-3,891	0,027	0,014
-593,225	141,520	0,059	-0,057
-592,211	424,484	-0,052	-0,083
-591,196	-200,000	-0,024	-0,154
-590,182	253,237	0,061	0,076
-589,167	-29,169	-0,108	0,045
-588,152	69,404	-0,106	-0,080
-587,138	-138,705	0,088	-0,007
-586,123	767,617	-0,031	0,061
-585,109	-76,524	-0,114	-0,029
-584,094	476,379	0,080	-0,133
-583,079	-173,060	0,112	0,002
-582,065	-200,000	0,010	0,094
-581,050	-94,748	0,027	0,005
-580,036	629,556	-0,055	-0,102
-579,021	-145,303	-0,099	0,006
-578,006	32,407	-0,110	-0,070
-576,992	-63,805	0,147	0,044
-575,977	250,177	0,041	0,051
-574,963	-73,488	0,050	-0,013
-573,948	-17,772	0,077	-0,035
-572,934	-200,000	0,003	0,068
-571,919	98,153	-0,088	0,074
-570,904	-24,638	0,098	-0,043
-569,890	200,943	0,103	0,116
-568,875	-200,000	0,016	0,110
-567,861	-7,978	0,041	-0,020
-566,846	60,884	0,108	-0,079
-565,831	76,701	-0,213	0,165
-564,817	800,000	0,047	0,099
-563,802	185,351	-0,063	-0,068
-562,788	20,669	0,059	-0,035
-561,773	71,884	-0,017	-0,013
-560,758	-200,000	-0,028	0,257
-559,744	108,036	0,045	0,039
-558,729	103,399	-0,136	0,117
-557,715	409,648	-0,083	-0,129
-556,700	-83,817	0,080	-0,019
-555,685	-200,000	-0,019	-0,063
-554,671	104,839	0,125	-0,108
-553,656	-48,844	0,105	-0,037
-552,642	43,185	-0,127	0,085
-551,627	-200,000	-0,014	0,141
-550,612	-200,000	0,020	0,184
-549,598	-200,000	-0,000	-0,033
-548,583	21,423	-0,091	-0,054
-547,569	-200,000	0,005	-0,078
-546,554	-116,901	0,012	-0,002
-545,539	-147,311	-0,127	-0,008
-544,525	282,219	-0,030	-0,039
-543,510	339,487	0,037	0,053
-542,496	-57,409	-0,106	-0,034
-541,481	-200,000	0,002	0,059
-540,466	133,292	-0,065	0,062
-539,452	32,496	0,050	0,031
-538,437	648,980	0,004	0,007
-537,423	800,000	0,032	0,087
-536,408	-200,000	-0,018	-0,068
-535,393	-123,663	-0,164	-0,019
-534,379	800,000	0,036	-0,109
-533,364	562,227	-0,018	0,031
-532,350	8,520	-0,058	0,032
-531,335	181,071	-0,060	0,065
-530,321	-200,000	0,009	0,067
-529,306	732,945	0,045	0,088
-528,291	-37,212	-0,071	0,028
-527,277	-200,000	0,036	-0,280
-526,262	189,918	-0,071	-0,078
-525,248	240,564	-0,078	-0,095
-524,233	800,000	0,022	-0,057
-523,218	-200,000	-0,012	-0,060
-522,204	349,922	0,123	-0,178
-521,189	705,235	-0,043	-0,083
-520,175	43,060	0,092	-0,061
-519,160	-54,014	0,023	0,008
-518,145	-55,555	0,090	0,029
-517,131	-200,000	-0,015	-0,075
-516,116	-200,000	-0,001	0,051
-515,102	800,000	-0,047	0,103
-514,087	-106,271	-0,123	0,020
-513,072	305,661	0,040	-0,054
-512,058	800,000	-0,018	-0,041
-511,043	130,547	-0,059	-0,055
-510,029	44,720	0,061	0,041
-509,014	800,000	0,022	-0,048
-507,999	68,923	0,067	-0,050
-506,985	79,180	-0,029	-0,022
-505,970	-200,000	-0,012	-0,101
-504,956	-200,000	-0,008	0,128
-503,941	-200,000	0,000	-0,093
-502,926	-39,453	0,133	-0,051
-501,912	222,898	-0,099	-0,117
-500,897	1,770	-0,070	0,037
-499,883	179,463	0,074	0,079
-498,868	-89,879	0,108	0,023
-497,853	18,320	-0,105	-0,061
-496,839	528,678	0,028	-0,048
-495,824	-200,000	-0,002	0,153
-494,810	653,328	0,055	0,104
-493,795	754,779	-0,046	0,092
-492,781	-200,000	-0,026	-0,141
-491,766	222,825	0,083	-0,098
-490,751	-86,042	-0,083	0,019
-489,737	797,814	-0,022	-0,045
-488,722	-177,724	-0,288	0,005
-487,708	141,426	0,046	0,044
-486,693	27,070	-0,140	0,086
-485,678	-200,000	0,036	-0,142
-484,664	59,323	0,090	-0,064
-483,649	-72,541	-0,131	-0,035
-482,635	-200,000	-0,009	-0,097
-481,620	800,000	0,030	-0,065
-480,605	-200,000	0,006	0,116
-479,591	317,785	-0,051	0,070
-478,576	800,000	0,006	0,018
-477,562	164,162	0,017	0,018
-476,547	-200,000	0,015	-0,136
-475,532	598,444	0,040	0,072
-474,518	-54,481	-0,008	-0,002
-473,503	-200,000	-0,038	0,165
-472,489	284,950	0,045	0,060
-471,474	-200,000	0,004	0,056
-470,459	-36,421	-0,055	-0,022
-469,445	800,000	0,033	0,101
-468,430	27,767	0,049	0,030
-467,416	-200,000	-0,021	-0,085
-466,401	800,000	0,027	0,085
-465,386	12,524	-0,100	0,056
-464,372	-200,000	0,042	0,145
-463,357	475,880	-0,105	-0,173
-462,343	212,936	0,139	-0,160
-461,328	800,000	0,028	-0,083
-460,313	184,477	0,053	0,057
-459,299	800,000	0,040	0,101
-458,284	-27,663	0,045	0,019
-457,270	-200,000	-0,015	0,234
-456,255	-92,023	0,080	-0,016
-455,241	-88,858	-0,112	-0,024
-454,226	-108,954	0,133	0,020
-453,211	-200,000	-0,008	0,062
-452,197	-32,088	0,123	0,050
-451,182	-25,460	0,098	0,042
-450,168	800,000	-0,011	0,035
-449,153	-114,005	-0,203	0,028
-448,138	-200,000	0,048	-0,170
-447,124	43,597	0,077	0,051
-446,109	800,000	-0,062	-0,173
-445,095	-73,669	0,195	0,051
-444,080	-140,575	0,211	-0,016
-443,065	-44,692	0,107	0,039
-442,051	800,000	0,030	-0,075
-441,036	-51,370	0,091	-0,031
-440,022	315,199	-0,073	-0,101
-439,007	-200,000	-0,002	-0,104
-437,992	-42,688	0,096	-0,036
-436,978	21,141	0,075	0,044
-435,963	800,000	-0,037	0,113
-434,949	800,000	-0,028	-0,062
-433,934	-0,817	0,071	0,037
-432,919	-200,000	0,014	-0,049
-431,905	-157,216	-0,065	-0,003
-430,890	597,266	-0,013	-0,024
-429,876	61,258	0,083	-0,060
-428,861	800,000	-0,033	0,101
-427,846	-15,346	0,043	-0,020
-426,832	329,183	0,031	0,043
-425,817	-200,000	-0,016	-0,071
-424,803	-200,000	0,058	-0,249
-423,788	767,248	0,062	0,124
-422,773	-47,535	0,124	0,044
-421,759	-99,956	-0,034	0,006
-420,744	-101,207	-0,034	-0,006
-419,730	104,942	0,041	0,035
-418,715	219,587	0,057	0,066
-417,701	93,492	-0,084	-0,069
-416,686	-200,000	0,000	-0,028
-415,671	-70,832	0,079	0,021
-414,657	800,000	-0,046	-0,106
-413,642	800,000	-0,008	-0,018
-412,628	78,198	0,086	0,067
-411,613	-200,000	0,002	0,011
-410,598	65,562	-0,134	0,098
-409,584	182,224	0,135	0,145
-408,569	134,938	-0,053	0,051
-407,555	10,746	0,132	-0,073
-406,540	-80,000	-0,023	0,006
-405,525	-42,940	-0,185	-0,068
-404,511	-175,893	-0,057	-0,001
-403,496	-163,384	0,152	0,005
-402,482	58,512	0,060	-0,043
-401,467	-200,000	-0,005	0,096
-400,452	-200,000	0,032	0,128
-399,438	74,291	-0,070	0,053
-398,423	-86,582	0,075	-0,017
-397,409	800,000	0,044	-0,129
-396,394	-129,544	-0,063	-0,006
-395,379	-200,000	0,014	0,050
-394,365	291,081	0,091	0,120
-393,350	32,630	0,091	0,057
-392,336	-104,534	0,096	0,016
-391,321	-78,790	-0,117	-0,029
-390,306	173,401	0,057	-0,060
-389,292	197,763	-0,074	-0,082
-388,277	28,132	0,022	0,014
-387,263	-62,828	0,065	0,020
-386,248	-9,772	-0,130	0,062
-385,233	114,416	-0,095	-0,084
-384,219	-200,000	0,002	0,023
-383,204	325,981	0,022	0,031
-382,190	-117,486	0,048	-0,006
-381,175	-200,000	0,021	-0,078
-380,160	-9,209	0,143	-0,069
-379,146	148,437	0,094	-0,092
-378,131	800,000	0,050	0,104
-377,117	-112,369	0,020	-0,003
-376,102	496,903	0,052	-0,087
-375,088	125,806	-0,102	-0,094
-374,073	113,470	-0,117	-0,103
-373,058	-6,876	-0,040	-0,020
-372,044	-200,000	-0,011	-0,060
-371,029	567,075	0,005	0,009
-370,015	-35,417	0,094	-0,037
-369,000	143,229	-0,138	-0,133
-367,985	-185,747	-0,113	-0,001
-366,971	-10,643	-0,056	-0,027
-365,956	37,339	-0,062	-0,040
-364,942	329,066	0,052	-0,073
-363,927	762,311	-0,035	0,069
-362,912	800,000	0,017	0,054
-361,898	298,215	-0,037	0,049
-360,883	-78,618	0,078	-0,019
-359,869	-109,141	-0,090	-0,014
-358,854	25,478	-0,080	-0,048
-357,839	279,140	-0,058	-0,076
-356,825	675,632	0,089	0,168
-355,810	-200,000	0,001	-0,099
-354,796	105,955	-0,032	-0,028
-353,781	-200,000	0,016	-0,141
-352,766	93,883	-0,060	0,050
-351,752	-194,481	-0,059	-0,000
-350,737	108,211	0,103	-0,089
-349,723	-82,003	-0,067	0,016
-348,708	-2,714	-0,102	0,052
-347,693	-125,859	-0,057	-0,006
-346,679	-84,111	-0,087	-0,020
-345,664	202,561	0,024	0,027
-344,650	73,099	-0,042	-0,032
-343,635	-4,973	0,060	0,030
-342,620	-186,842	0,141	0,001
-341,606	800,000	0,034	0,105
-340,591	-73,261	0,042	-0,011
-339,577	144,413	-0,083	-0,081
-338,562	85,511	-0,156	-0,124
-337,548	34,206	0,076	-0,048
-336,533	84,854	0,070	0,056
-335,518	152,667	-0,042	0,042
-334,504	800,000	0,054	0,122
-333,489	-11,074	0,090	0,043
-332,475	-87,845	-0,132	0,029
-331,460	391,595	-0,075	-0,113
-330,445	726,382	-0,029	0,057
-329,431	381,979	0,054	0,080
-328,416	236,150	0,177	0,212
-327,402	789,332	0,042	0,084
-326,387	-200,000	-0,009	0,031
-325,372	-101,702	-0,096	0,017
-324,358	800,000	-0,039	-0,094
-323,343	-200,000	0,034	-0,188
-322,329	-200,000	-0,037	-0,136
-321,314	-131,499	-0,103	-0,010
-320,299	-88,929	-0,052	-0,011
-319,285	18,497	0,016	0,009
-318,270	21,992	-0,070	0,041
-317,256	81,936	-0,150	-0,118
-316,241	-200,000	0,030	0,000
-315,226	800,000	-0,039	0,124
-314,212	621,557	-0,056	0,102
-313,197	-200,000	0,013	0,063
-312,183	-200,000	-0,009	0,094
-311,168	-125,612	0,056	0,006
-310,153	800,000	-0,002	-0,004
-309,139	-36,478	-0,158	-0,061
-308,124	753,611	-0,085	0,167
-307,110	-200,000	0,008	0,171
-306,095	800,000	0,013	0,042
-305,080	193,259	0,059	-0,065
-304,066	65,927	-0,141	0,103
-303,051	58,441	0,031	-0,022
-302,037	625,041	0,029	0,053
-301,022	-135,081	0,066	0,006
-300,008	106,294	0,094	0,081
-298,993	-157,879	0,111	-0,005
-297,978	-200,000	-0,002	0,078
-296,964	-126,101	-0,093	0,010
-295,949	-86,115	-0,077	0,017
-294,935	-27,671	0,046	0,019
-293,920	-4,406	-0,084	-0,042
-292,905	-4,267	-0,093	0,046
-291,891	800,000	0,029	0,083
-290,876	-36,057	0,033	-0,013
-289,862	-12,620	-0,028	0,013
-288,847	-12,683	-0,071	-0,033
-287,832	87,884	-0,075	0,060
-286,818	-20,542	0,063	-0,028
-285,803	-56,611	0,085	0,027
-284,789	-14,275	-0,036	0,017
-283,774	94,281	0,114	0,094
-282,759	-103,643	0,150	-0,025
-281,745	-77,317	0,074	-0,019
-280,730	800,000	0,046	-0,094
-279,716	-18,322	-0,053	0,024
-278,701	800,000	-0,022	-0,063
-277,686	27,076	0,114	0,069
-276,672	-28,576	0,085	0,035
-275,657	-200,000	0,000	0,065
-274,643	-69,421	0,064	-0,018
-273,628	293,576	-0,055	0,073
-272,613	-200,000	0,001	0,157
-271,599	-15,811	0,099	0,046
-270,584	205,884	-0,037	-0,042
-269,570	36,448	0,087	-0,055
-268,555	-200,000	0,009	0,107
-267,540	800,000	-0,051	-0,120
-266,526	-33,808	-0,137	-0,054
-265,511	-200,000	-0,019	0,103
-264,497	-200,000	-0,033	0,131
-263,482	-119,687	0,070	0,009
-262,467	-200,000	-0,002	-0,037
-261,453	-81,751	0,047	-0,011
-260,438	61,999	-0,054	0,039
-259,424	800,000	0,016	-0,052
-258,409	46,788	-0,043	-0,029
-257,395	-18,505	0,092	-0,041
-256,380	-2,979	0,026	0,013
-255,365	61,878	-0,047	0,034
-254,351	-161,161	-0,044	0,002
-253,336	-200,000	-0,001	-0,007
-252,322	71,020	0,024	0,018
-251,307	-89,732	0,048	-0,010
-250,292	483,998	-0,031	0,051
-249,278	-25,834	0,058	-0,024
-248,263	86,939	-0,066	0,052
-247,249	462,441	-0,031	-0,050
-246,234	48,999	-0,018	-0,012
-245,219	317,002	0,016	-0,022
-244,205	121,552	-0,145	-0,131
-243,190	176,376	-0,050	0,053
-242,176	20,574	0,054	0,031
-241,161	-55,200	0,207	0,067
-240,146	728,605	0,074	0,143
-239,132	-34,880	-0,051	0,020
-238,117	49,783	-0,073	0,049
-237,103	357,654	0,050	0,072
-236,088	-200,000	-0,001	0,066
-235,073	800,000	0,033	-0,086
-234,059	113,196	0,067	0,059
-233,044	800,000	0,086	0,228
-232,030	-200,000	0,005	0,058
-231,015	168,828	-0,013	0,013
-230,000	-200,000	-0,011	-0,125
-228,986	800,000	0,057	-0,139
-227,971	800,000	-0,045	-0,117
-226,957	47,243	-0,084	0,057
-225,942	-200,000	-0,016	0,190
-224,927	210,790	0,031	-0,035
-223,913	-200,000	-0,023	-0,165
-222,898	-200,000	0,004	-0,180
-221,884	6,865	-0,063	-0,034
-220,869	800,000	0,058	-0,138
-219,855	2,638	0,068	-0,035
-218,840	-32,123	0,047	-0,019
-217,825	-200,000	-0,004	-0,157
-216,811	785,290	0,027	-0,053
-215,796	-200,000	0,004	-0,078
-214,782	-200,000	0,006	0,092
-213,767	-57,495	0,115	0,036
-212,752	800,000	0,041	0,129
-211,738	232,944	0,053	0,063
-210,723	800,000	0,065	-0,159
-209,709	-200,000	0,029	-0,107
-208,694	-37,281	-0,102	-0,039
-207,679	74,714	-0,049	-0,037
-206,665	124,778	0,042	0,038
-205,650	-200,000	-0,012	0,077
-204,636	-10,427	0,089	-0,042
-203,621	238,375	0,041	0,050
-202,606	-200,000	-0,036	0,000
-201,592	41,971	-0,035	0,023
-200,577	-72,991	-0,116	0,030
-199,563	-48,092	0,023	0,008
-198,548	-160,243	-0,116	-0,004
-197,533	800,000	0,023	0,064
-196,519	419,628	0,062	0,095
-195,504	-200,000	-0,002	-0,096
-194,490	260,071	-0,094	0,118
-193,475	-200,000	0,007	0,048
-192,460	136,518	0,036	-0,033
-191,446	-200,000	0,021	0,075
-190,431	-200,000	-0,007	0,039
-189,417	-200,000	-0,003	0,107
-188,402	506,824	0,050	-0,084
-187,387	-200,000	0,033	-0,108
-186,373	59,589	-0,033	0,023
-185,358	-31,619	-0,132	0,053
-184,344	-116,492	0,131	0,017
-183,329	237,171	0,053	-0,063
-182,315	111,702	0,068	0,059
-181,300	-129,690	0,058	-0,006
-180,285	800,000	-0,003	0,008
-179,271	-156,726	-0,059	0,003
-178,256	-200,000	0,027	0,087
-177,242	249,285	-0,056	-0,069
-176,227	275,608	-0,095	0,122
-175,212	111,527	0,073	0,063
-174,198	-200,000	0,001	-0,012
-173,183	-74,646	-0,041	-0,010
-172,169	624,502	0,036	0,066
-171,154	345,607	-0,046	0,065
-170,139	4,200	-0,073	-0,039
-169,125	-50,556	0,027	0,009
-168,110	-200,000	-0,004	-0,033
-167,096	198,860	0,090	0,099
-166,081	-200,000	0,004	0,032
-165,066	-200,000	0,006	-0,162
-164,052	-200,000	0,012	0,093
-163,037	-200,000	0,010	0,117
-162,023	169,326	-0,071	-0,073
-161,008	96,516	0,117	0,096
-159,993	-200,000	0,031	-0,139
-158,979	157,814	0,023	-0,023
-157,964	6,620	-0,086	0,046
-156,950	-25,914	-0,044	-0,018
-155,935	-106,464	0,026	0,004
-154,920	201,348	0,057	0,063
-153,906	101,624	0,036	-0,030
-152,891	293,330	-0,069	-0,091
-151,877	-172,438	0,140	0,003
-150,862	176,139	-0,197	-0,206
-149,847	-52,813	-0,167	-0,055
-148,833	266,505	0,092	-0,116
-147,818	800,000	0,058	0,140
-146,804	-200,000	0,028	0,123
-145,789	-200,000	-0,010	0,158
-144,775	800,000	0,046	-0,123
-143,760	-8,933	0,103	0,049
-142,745	-148,984	-0,087	-0,005
-141,731	0,083	-0,068	-0,035
-140,716	-200,000	-0,000	0,038
-139,702	67,388	-0,036	0,027
-138,687	-99,386	0,031	-0,006
-137,672	800,000	-0,027	-0,061
-136,658	-126,136	0,051	-0,005
-135,643	238,328	0,025	0,030
-134,629	-200,000	-0,011	-0,038
-133,614	-200,000	-0,003	-0,035
-132,599	122,673	0,051	0,046
-131,585	-119,145	0,070	0,009
-130,570	-4,592	-0,089	0,044
-129,556	269,675	0,043	0,054
-128,541	-85,458	-0,131	-0,029
-127,526	800,000	0,042	-0,122
-126,512	-200,000	-0,023	-0,111
-125,497	-200,000	0,029	-0,104
-124,483	-5,341	0,052	0,026
-123,468	101,859	-0,087	0,073
-122,453	-200,000	0,015	-0,109
-121,439	-200,000	0,012	-0,078
-120,424	-12,980	-0,177	-0,083
-119,410	-11,102	0,025	0,012
-118,395	-75,366	0,083	0,021
-117,380	-31,151	0,141	0,057
-116,366	-62,843	0,032	0,009
-115,351	1,618	-0,108	0,056
-114,337	-53,591	-0,017	-0,006
-113,322	206,480	-0,071	0,080
-112,307	375,371	0,029	-0,042
-111,293	-200,000	-0,046	-0,210
-110,278	488,535	0,091	0,150
-109,264	168,703	-0,054	0,056
-108,249	-200,000	0,033	0,119
-107,234	-25,716	-0,100	0,042
-106,220	-46,344	-0,113	-0,040
-105,205	800,000	-0,040	-0,090
-104,191	345,769	0,065	-0,092
-103,176	800,000	0,048	0,118
-102,162	163,674	-0,081	0,082
-101,147	-200,000	-0,003	0,039
-100,132	800,000	-0,015	0,040
-99,118	-77,213	-0,043	-0,011
-98,103	42,226	-0,005	0,003
-97,089	115,205	-0,032	-0,028
-96,074	29,114	0,068	-0,041
-95,059	-64,216	-0,034	-0,010
-94,045	-200,000	-0,006	-0,076
-93,030	306,675	-0,041	-0,055
-92,016	52,122	-0,051	-0,035
-91,001	800,000	0,024	0,059
-89,986	201,413	-0,054	0,060
-88,972	412,167	0,074	0,114
-87,957	-59,207	-0,180	-0,055
-86,943	32,642	-0,103	0,064
-85,928	-200,000	0,027	-0,089
-84,913	-23,548	-0,080	-0,034
-83,899	-68,853	-0,148	0,041
-82,884	800,000	-0,030	0,077
-81,870	56,976	-0,043	0,030
-80,855	796,030	0,089	0,177
-79,840	177,596	0,147	-0,154
-78,826	800,000	-0,042	0,097
-77,811	-111,529	-0,052	0,007
-76,797	-90,833	0,161	-0,033
-75,782	672,014	-0,019	0,035
-74,767	800,000	-0,059	0,171
-73,753	572,064	-0,082	0,144
-72,738	139,065	-0,039	-0,037
-71,724	102,332	-0,110	0,093
-70,709	435,357	0,075	-0,118
-69,694	181,027	0,030	0,032
-68,680	225,714	0,092	-0,108
-67,665	198,723	0,028	0,030
-66,651	41,397	-0,084	0,054
-65,636	80,018	0,035	0,027
-64,622	535,882	-0,057	-0,098
-63,607	326,528	-0,075	-0,103
-62,592	-46,829	-0,067	-0,023
-61,578	-200,000	-0,005	0,018
-60,563	-64,316	0,084	0,024
-59,549	800,000	-0,069	0,137
-58,534	12,405	-2,116	-1,166
-57,519	-200,000	-0,151	-0,890
-56,505	-200,000	-1,363	-5,178
-55,490	94,126	0,761	0,619
-54,476	800,000	5,292	12,009
-53,461	-200,000	18,400	304,337
-52,446	800,000	736,638	2286,162
-51,432	548,216	1652,791	2848,337
-50,417	109,946	1638,904	1409,127
-49,403	74,215	1288,975	969,197
-48,388	30,688	1029,450	630,010
-47,373	19,995	991,806	571,641
-46,359	17,784	979,411	557,218
-45,344	14,570	975,488	544,428
-44,330	14,873	973,887	544,506
-43,315	14,275	972,168	541,567
-42,300	14,195	970,940	540,599
-41,286	14,196	970,153	540,145
-40,271	14,209	969,201	539,635
-39,257	14,212	968,465	539,212
-38,242	14,206	967,377	538,565
-37,227	14,206	966,509	538,063
-36,213	14,208	965,669	537,579
-35,198	14,168	964,782	536,934
-34,184	14,212	963,969	536,605
-33,169	14,099	963,168	535,769
-32,154	14,297	961,969	535,724
-31,140	14,255	961,158	535,115
-30,125	14,206	960,738	534,699
-29,111	14,159	959,751	533,979
-28,096	14,255	959,044	533,872
-27,082	14,287	958,205	533,488
-26,067	14,188	957,699	532,865
-25,052	14,234	956,615	532,391
-24,038	14,205	956,261	532,079
-23,023	14,215	955,420	531,622
-22,009	14,245	954,747	531,322
-20,994	14,245	954,152	530,971
-19,979	14,244	953,447	530,553
-18,965	14,215	952,936	530,157
-17,950	14,253	952,301	529,902
-16,936	14,191	951,702	529,349
-15,921	14,178	951,009	528,903
-14,906	14,104	950,230	528,211
-13,892	14,093	949,648	527,832
-12,877	14,065	948,976	527,347
-11,863	14,068	948,249	526,932
-10,848	14,108	947,892	526,840
-9,833	14,223	947,541	526,991
-8,819	14,160	946,745	526,326
-7,804	14,140	946,151	525,913
-6,790	14,085	945,538	525,375
-5,775	14,188	945,009	525,387
-4,760	14,170	944,360	524,951
-3,746	14,166	943,674	524,535
-2,731	13,886	943,185	523,356
-1,717	13,990	942,399	523,226
-0,702	13,942	941,632	522,630
0,313	13,782	941,071	522,601
1,327	16,986	938,856	531,437
2,342	26,074	794,264	473,666
3,356	22,729	459,927	269,133
4,371	-3,897	317,261	157,107
5,386	-7,654	298,987	144,212
6,400	-9,716	293,022	139,258
7,415	-10,066	290,211	137,562
8,429	-10,580	288,716	136,334
9,444	-10,565	287,757	135,884
10,459	-10,370	287,105	135,755
11,473	-10,520	286,561	135,339
12,488	-10,392	286,200	135,282
13,502	-10,635	285,685	134,789
14,517	-10,673	285,118	134,472
15,531	-10,678	284,684	134,251
16,546	-10,829	284,301	133,912
17,561	-10,814	283,894	133,722
18,575	-10,675	283,455	133,639
19,590	-10,794	283,088	133,338
20,604	-10,769	282,922	133,273
21,619	-10,865	282,479	132,959
22,634	-10,697	281,929	132,850
23,648	-10,818	281,794	132,659
24,663	-10,917	281,644	132,481
25,677	-10,773	281,273	132,432
26,692	-10,860	281,047	132,231
27,707	-10,787	280,696	132,124
28,721	-10,686	280,399	132,069
29,736	-10,844	280,224	131,824
30,750	-10,788	279,788	131,661
31,765	-10,769	279,604	131,580
32,780	-10,708	279,456	131,557
33,794	-10,872	279,266	131,300
34,809	-10,656	278,860	131,302
35,823	-10,801	278,613	131,037
36,838	-10,658	278,183	130,958
37,853	-10,824	278,123	130,762
38,867	-10,880	277,810	130,549
39,882	-10,901	277,746	130,488
40,896	-10,971	277,371	130,234
41,911	-10,908	277,064	130,137
42,926	-10,857	276,901	130,097
43,940	-10,982	276,771	129,907
44,955	-10,890	276,447	129,829
45,969	-10,928	276,141	129,638
46,984	-10,957	275,885	129,480
47,999	-11,296	275,664	129,046
49,013	-11,403	275,361	128,792
50,028	-11,452	274,970	128,552
51,042	-11,623	274,838	128,318
52,057	-11,764	274,475	128,006
53,071	-11,561	274,380	128,140
54,086	-11,428	274,045	128,096
55,101	-11,345	274,014	128,148
56,115	-11,156	273,761	128,194
57,130	-10,814	273,976	128,603
58,144	-10,502	273,566	128,689
59,159	-10,617	273,259	128,426
60,174	-10,580	272,963	128,310
61,188	-10,578	272,838	128,241
62,203	-10,545	272,470	128,088
63,217	-10,666	272,419	127,940
64,232	-10,677	272,186	127,809
65,247	-10,642	272,000	127,744
66,261	-10,640	271,817	127,647
67,276	-10,952	271,453	127,177
68,290	-11,017	271,182	126,979
69,305	-11,103	270,916	126,763
70,320	-11,102	270,842	126,719
71,334	-10,906	270,671	126,808
72,349	-10,445	270,267	127,030
73,363	-10,421	270,146	126,985
74,378	-10,346	270,086	127,014
75,393	-10,562	269,739	126,641
76,407	-10,738	269,599	126,403
77,422	-10,566	269,236	126,379
78,436	-10,506	269,090	126,355
79,451	-10,620	268,847	126,124
80,466	-10,582	268,522	125,995
81,480	-10,845	268,386	125,680
82,495	-10,850	268,080	125,522
83,509	-10,813	268,075	125,542
84,524	-10,781	267,547	125,312
85,539	-11,111	267,472	124,966
86,553	-10,965	267,291	125,004
87,568	-10,908	267,059	124,935
88,582	-10,763	266,820	124,944
89,597	-10,831	266,749	124,837
90,611	-10,727	266,663	124,880
91,626	-10,803	266,491	124,720
92,641	-10,791	266,265	124,614
93,655	-10,778	265,960	124,472
94,670	-10,834	265,766	124,320
95,684	-10,777	265,553	124,260
96,699	-10,693	265,408	124,257
97,714	-10,899	265,256	123,989
98,728	-10,965	264,893	123,749
99,743	-11,032	264,613	123,548
100,757	-10,943	264,372	123,503
101,772	-10,964	264,238	123,411
102,787	-10,881	264,074	123,398
103,801	-10,752	263,898	123,419
104,816	-10,788	263,855	123,356
105,830	-10,744	263,804	123,361
106,845	-10,656	263,306	123,195
107,860	-10,654	263,268	123,169
108,874	-10,602	263,044	123,100
109,889	-10,518	262,871	123,082
110,903	-10,795	262,743	122,764
111,918	-10,577	262,275	122,729
112,933	-10,737	262,254	122,566
113,947	-10,626	261,946	122,509
114,962	-10,527	261,711	122,476
115,976	-10,590	261,443	122,284
116,991	-10,788	261,367	122,062
118,006	-10,762	261,356	122,069
119,020	-10,676	261,156	122,041
120,035	-10,624	260,989	121,998
121,049	-10,503	260,803	122,008
122,064	-10,548	260,703	121,910
123,079	-10,624	260,434	121,706
124,093	-10,864	260,235	121,391
125,108	-10,891	259,981	121,238
126,122	-11,044	259,517	120,877
127,137	-11,178	259,287	120,641
128,151	-10,892	259,267	120,872
129,166	-11,081	259,205	120,666
130,181	-11,079	258,932	120,530
131,195	-10,763	258,645	120,663
132,210	-10,907	258,418	120,420
133,224	-10,739	258,260	120,482
134,239	-10,663	258,259	120,537
135,254	-10,489	258,050	120,581
136,268	-10,547	257,651	120,334
137,283	-11,070	257,471	119,783
138,297	-11,105	257,283	119,655
139,312	-10,870	256,991	119,712
140,327	-10,771	257,029	119,805
141,341	-10,502	256,803	119,923
142,356	-10,309	256,786	120,071
143,370	-10,583	256,562	119,718
144,385	-10,349	256,311	119,793
145,400	-10,483	256,049	119,544
146,414	-10,570	255,985	119,429
147,429	-10,526	255,941	119,435
148,443	-10,471	255,599	119,313
149,458	-10,563	255,366	119,114
150,473	-10,593	255,294	119,044
151,487	-10,536	255,116	118,999
152,502	-10,563	254,873	118,852
153,516	-10,541	254,540	118,705
154,531	-10,561	254,519	118,668
155,546	-10,421	254,295	118,673
156,560	-10,235	254,033	118,700
157,575	-10,542	253,787	118,311
158,589	-10,487	253,801	118,354
159,604	-10,190	253,438	118,428
160,619	-10,482	253,322	118,114
161,633	-10,657	253,225	117,908
162,648	-10,358	253,126	118,107
163,662	-10,265	253,018	118,126
164,677	-10,520	252,886	117,836
165,692	-10,413	252,749	117,853
166,706	-10,498	252,594	117,697
167,721	-10,558	252,255	117,478
168,735	-10,453	252,101	117,485
169,750	-10,399	251,877	117,416
170,764	-10,444	251,864	117,362
171,779	-10,272	251,697	117,419
172,794	-10,340	251,486	117,252
173,808	-10,469	251,262	117,028
174,823	-10,908	250,909	116,483
175,837	-11,058	250,645	116,223
176,852	-10,628	250,614	116,561
177,867	-10,508	250,586	116,639
178,881	-10,457	250,292	116,535
179,896	-10,370	250,259	116,583
180,910	-10,322	250,156	116,564
181,925	-10,214	249,880	116,516
182,940	-10,370	249,746	116,312
183,954	-10,166	249,413	116,318
184,969	-10,430	249,484	116,119
185,983	-10,329	249,021	115,978
186,998	-10,189	248,857	116,009
188,013	-10,431	248,884	115,808
189,027	-10,350	248,832	115,842
190,042	-10,408	248,575	115,663
191,056	-10,115	248,371	115,803
192,071	-10,291	248,319	115,620
193,086	-10,357	248,073	115,441
194,100	-10,158	247,800	115,470
195,115	-10,103	247,578	115,401
196,129	-10,169	247,311	115,212
197,144	-10,249	247,321	115,140
198,159	-10,242	247,124	115,044
199,173	-10,131	246,857	115,001
200,188	-10,182	246,630	114,843
201,202	-10,527	246,400	114,440
202,217	-10,687	246,140	114,177
203,232	-10,899	245,901	113,880
204,246	-10,340	246,022	114,388
205,261	-9,613	245,965	114,952
206,275	-10,283	245,637	114,236
207,290	-5,917	247,521	118,729
208,304	1,568	249,731	126,032
209,319	4,424	250,491	128,790
210,334	4,930	250,530	129,220
211,348	5,181	250,343	129,322
212,363	5,256	250,476	129,441
213,377	5,374	250,360	129,469
214,392	5,205	250,020	129,140
215,407	5,078	249,945	128,984
216,421	5,184	249,635	128,901
217,436	5,457	249,564	129,080
218,450	5,438	249,597	129,069
219,465	5,182	249,175	128,627
220,480	5,136	248,965	128,470
221,494	4,854	248,958	128,221
222,509	4,942	248,753	128,177
223,523	4,863	248,389	127,912
224,538	4,646	248,126	127,586
225,553	4,568	248,198	127,548
226,567	4,950	247,975	127,737
227,582	4,823	247,945	127,605
228,596	4,724	247,747	127,410
229,611	4,716	247,451	127,240
230,626	4,495	247,189	126,913
231,640	4,601	247,064	126,925
232,655	4,746	247,023	127,011
233,669	4,576	246,744	126,717
234,684	4,411	246,469	126,429
235,699	4,771	246,622	126,792
236,713	4,998	246,568	126,938
237,728	4,499	246,017	126,236
238,742	4,387	245,951	126,099
239,757	4,358	245,804	125,989
240,772	4,507	245,576	125,981
241,786	4,673	245,498	126,066
242,801	4,481	245,359	125,827
243,815	4,293	245,120	125,540
244,830	4,661	245,141	125,839
245,844	4,780	245,016	125,860
246,859	4,608	244,700	125,548
247,874	4,763	244,379	125,497
248,888	4,502	244,445	125,308
249,903	4,658	244,315	125,357
250,917	4,888	244,074	125,408
251,932	5,089	243,998	125,520
252,947	4,856	243,953	125,298
253,961	4,737	243,589	125,004
254,976	4,771	243,326	124,884
255,990	4,941	243,218	124,955
257,005	4,578	243,207	124,645
258,020	4,662	242,921	124,555
259,034	4,642	242,733	124,432
260,049	4,646	242,583	124,348
261,063	4,562	242,393	124,172
262,078	4,474	242,249	124,016
263,093	4,935	242,182	124,340
264,107	4,716	242,069	124,096
265,122	4,473	241,850	123,778
266,136	4,776	241,787	123,978
267,151	4,618	241,651	123,770
268,166	4,489	241,366	123,510
269,180	4,229	241,245	123,229
270,195	5,001	241,344	123,886
271,209	5,234	241,104	123,937
272,224	4,652	240,811	123,311
273,239	4,275	240,515	122,849
274,253	4,348	240,378	122,826
275,268	4,666	240,285	123,020
276,282	4,883	240,038	123,055
277,297	4,336	240,014	122,598
278,312	4,594	239,709	122,635
279,326	4,747	239,650	122,716
280,341	4,397	239,619	122,411
281,355	4,573	239,435	122,446
282,370	4,732	239,260	122,472
283,384	4,640	239,124	122,318
284,399	4,303	238,893	121,923
285,414	4,501	238,713	121,976
286,428	4,351	238,685	121,833
287,443	4,577	238,464	121,887
288,457	4,744	238,403	121,977
289,472	4,828	238,283	121,971
290,487	4,574	238,111	121,672
291,501	4,462	237,826	121,427
292,516	4,428	237,528	121,238
293,530	4,290	237,511	121,110
294,545	4,560	237,556	121,334
295,560	4,735	237,245	121,302
296,574	4,232	237,184	120,865
297,589	4,222	237,057	120,782
298,603	4,969	236,963	121,309
299,618	5,082	236,743	121,273
300,633	4,788	236,557	120,938
301,647	4,720	236,579	120,885
302,662	5,097	236,441	121,098
303,676	4,965	236,217	120,869
304,691	4,957	236,094	120,789
305,706	5,400	235,787	120,966
306,720	5,210	235,557	120,690
307,735	4,993	235,458	120,460
308,749	4,667	235,364	120,148
309,764	4,574	235,183	119,972
310,779	4,441	234,921	119,725
311,793	4,145	234,756	119,401
312,808	4,212	234,554	119,339
313,822	4,295	234,374	119,301
314,837	4,574	234,513	119,577
315,852	4,646	234,374	119,551
316,866	4,840	234,365	119,686
317,881	4,695	234,245	119,502
318,895	4,890	233,940	119,486
319,910	5,001	233,760	119,469
320,925	4,586	233,450	118,980
321,939	4,437	233,183	118,719
322,954	4,529	233,222	118,799
323,968	4,478	233,021	118,647
324,983	4,595	233,030	118,731
325,997	4,928	233,018	118,970
327,012	5,065	232,717	118,911
328,027	4,669	232,589	118,531
329,041	5,008	232,401	118,684
330,056	5,128	232,567	118,851
331,070	5,539	232,290	119,013
332,085	5,085	232,110	118,563
333,100	4,723	231,804	118,120
334,114	5,006	231,542	118,191
335,129	4,935	231,629	118,172
336,143	5,008	231,552	118,177
337,158	5,096	231,425	118,168
338,173	4,898	231,023	117,803
339,187	4,662	230,894	117,547
340,202	4,572	230,899	117,471
341,216	4,777	230,557	117,442
342,231	4,569	230,536	117,263
343,246	4,567	230,565	117,265
344,260	4,851	230,257	117,314
345,275	4,948	230,198	117,347
346,289	5,286	229,993	117,487
347,304	4,915	229,941	117,169
348,319	5,073	229,761	117,187
349,333	4,783	229,588	116,869
350,348	4,833	229,345	116,773
351,362	4,734	229,220	116,624
352,377	4,452	228,898	116,238
353,392	4,435	228,766	116,147
354,406	4,473	228,841	116,203
355,421	195,867	1318,860	1394,799
356,435	157,118	1451,629	1394,765
