DTS Sentinel unit serial number:	SN410029Multiplexer serial number:	ORYXHardware model number:	OX2-SRSoftware version number:	ORYX F/W v4,00 Oryx Data Collector v3.7.2.0data status	okinstallation	B5 Nyhavnadifferential loss correction	single-endedforward channel	channel 2reverse channel	N/Adate	2023/12/12time	07:07:13forward acquisition time	300,00reverse acquisition time	0,00gamma	499,1914k internal	0,3158k external	0,3158temperature offset calibration	1,0000default loss term (dB/km)	0,3820temperature slope calibration	1,0000multiplexer offset coefficient	1,0000multiplexer slope coefficient	1,0000fibre end	0,00T internal ref (°C)	15,18T ext. ref 1 (°C)	-1,13T ext. ref 2 (°C)	-1,43length (m)	temperature (°C)	Stokes	anti-Stokes-744,400	600,870	0,078	0,144
-743,385	-33,296	-0,322	0,131
-742,371	77,639	0,138	0,109
-741,356	-177,261	-0,333	-0,006
-740,342	-200,000	0,021	0,102
-739,327	-119,243	-0,287	0,036
-738,312	-135,965	0,109	-0,009
-737,298	-109,348	-0,294	0,045
-736,283	-200,000	0,070	-0,239
-735,269	-112,708	-0,356	-0,052
-734,254	99,028	0,047	0,040
-733,239	-32,452	-0,470	-0,192
-732,225	-154,469	0,201	-0,010
-731,210	169,494	-0,064	-0,068
-730,196	790,316	0,057	0,116
-729,181	-200,000	0,004	-0,161
-728,167	-200,000	-0,007	-0,181
-727,152	-138,198	-0,109	0,009
-726,137	-0,876	0,062	-0,032
-725,123	198,248	0,079	-0,090
-724,108	-200,000	0,006	-0,038
-723,094	-9,638	-0,065	-0,032
-722,079	-45,737	-0,087	0,032
-721,064	800,000	-0,060	-0,143
-720,050	317,427	-0,061	0,085
-719,035	192,483	0,068	-0,076
-718,021	18,089	-0,060	0,035
-717,006	-152,384	-0,139	0,007
-715,991	800,000	0,024	0,052
-714,977	-200,000	0,017	-0,123
-713,962	-18,807	-0,036	0,017
-712,948	800,000	0,019	-0,061
-711,933	147,827	-0,107	-0,106
-710,918	800,000	0,043	0,122
-709,904	-76,793	-0,105	0,027
-708,889	197,110	-0,061	-0,068
-707,875	20,584	-0,110	-0,065
-706,860	800,000	-0,006	0,020
-705,845	-29,151	-0,128	0,054
-704,831	307,973	0,103	0,142
-703,816	-79,172	-0,053	-0,013
-702,802	-200,000	-0,016	0,102
-701,787	-84,065	-0,164	-0,038
-700,772	-66,969	-0,132	0,038
-699,758	-17,463	-0,088	0,041
-698,743	-200,000	-0,014	0,084
-697,729	-200,000	0,003	0,047
-696,714	192,976	-0,093	0,104
-695,699	-131,616	0,041	0,004
-694,685	-200,000	-0,004	-0,049
-693,670	-169,327	-0,143	-0,004
-692,656	791,578	0,020	0,041
-691,641	-139,782	-0,040	0,003
-690,627	-39,454	0,096	0,037
-689,612	-96,294	-0,188	-0,036
-688,597	-82,970	-0,124	0,029
-687,583	-200,000	0,006	-0,114
-686,568	-112,336	0,068	-0,010
-685,554	-61,048	-0,084	0,026
-684,539	-200,000	-0,003	0,235
-683,524	-79,016	-0,113	0,028
-682,510	-200,000	0,009	-0,039
-681,495	337,798	0,054	0,077
-680,481	216,403	-0,101	-0,119
-679,466	62,191	-0,077	-0,056
-678,451	-142,469	0,029	-0,002
-677,437	-200,000	0,030	0,149
-676,422	-200,000	0,002	0,156
-675,408	-200,000	0,002	0,068
-674,393	-100,447	-0,068	0,012
-673,378	720,200	-0,040	-0,079
-672,364	-37,097	0,052	0,021
-671,349	800,000	-0,019	-0,038
-670,335	327,065	-0,006	0,008
-669,320	-200,000	0,007	0,059
-668,305	-130,393	0,153	0,015
-667,291	-200,000	0,000	0,028
-666,276	55,000	0,037	-0,026
-665,262	384,882	-0,092	-0,140
-664,247	-79,333	0,059	-0,015
-663,232	800,000	0,023	-0,062
-662,218	193,640	-0,074	-0,082
-661,203	165,694	-0,171	0,178
-660,189	800,000	-0,063	-0,152
-659,174	93,947	-0,125	-0,104
-658,159	8,503	0,124	-0,069
-657,145	56,188	-0,136	-0,097
-656,130	-81,487	-0,106	-0,025
-655,116	150,001	0,041	-0,040
-654,101	-149,516	0,107	0,006
-653,086	-200,000	-0,002	-0,046
-652,072	-134,047	-0,088	-0,008
-651,057	45,155	-0,054	-0,036
-650,043	108,308	0,076	-0,066
-649,028	226,215	-0,043	-0,052
-648,014	-76,059	0,125	-0,032
-646,999	336,829	-0,003	-0,004
-645,984	-45,717	-0,035	-0,013
-644,970	-96,742	-0,073	-0,014
-643,955	-200,000	0,009	-0,061
-642,941	-200,000	-0,007	-0,098
-641,926	92,207	-0,052	-0,043
-640,911	800,000	0,009	-0,024
-639,897	-200,000	-0,005	-0,074
-638,882	242,907	-0,031	-0,038
-637,868	297,387	-0,041	-0,055
-636,853	-176,634	-0,030	-0,001
-635,838	-200,000	-0,007	-0,075
-634,824	-150,381	-0,057	-0,003
-633,809	414,270	0,105	0,165
-632,795	433,674	-0,050	0,080
-631,780	800,000	-0,028	-0,067
-630,765	-200,000	0,055	-0,212
-629,751	800,000	0,048	-0,142
-628,736	94,348	0,123	-0,102
-627,722	-42,898	-0,101	-0,037
-626,707	800,000	0,034	-0,080
-625,692	-77,375	0,078	0,020
-624,678	-200,000	-0,012	-0,078
-623,663	-41,368	0,051	0,019
-622,649	-200,000	-0,050	0,164
-621,634	436,538	-0,077	-0,123
-620,619	223,417	-0,122	-0,145
-619,605	800,000	0,035	-0,106
-618,590	-200,000	0,008	-0,029
-617,576	5,793	-0,051	0,028
-616,561	96,819	-0,070	0,059
-615,546	107,574	0,155	-0,136
-614,532	-67,751	-0,109	0,031
-613,517	-60,119	-0,110	0,034
-612,503	573,687	0,025	-0,044
-611,488	630,448	0,037	0,069
-610,474	-200,000	-0,025	-0,132
-609,459	69,235	-0,104	-0,079
-608,444	-62,993	-0,023	-0,007
-607,430	101,447	-0,147	-0,126
-606,415	129,772	-0,078	-0,073
-605,401	18,952	0,072	0,042
-604,386	-2,079	0,093	-0,048
-603,371	-167,732	0,027	-0,001
-602,357	800,000	0,054	-0,169
-601,342	-200,000	0,018	-0,128
-600,328	-191,299	0,042	0,000
-599,313	-40,388	-0,146	-0,055
-598,298	664,038	-0,086	-0,163
-597,284	-170,910	0,022	0,001
-596,269	244,183	0,046	-0,056
-595,255	107,090	-0,054	0,047
-594,240	702,070	-0,025	0,048
-593,225	24,862	0,094	-0,057
-592,211	-200,000	-0,023	0,102
-591,196	258,454	-0,042	0,053
-590,182	-1,032	0,045	-0,023
-589,167	1,455	0,113	0,059
-588,152	-44,840	0,073	0,027
-587,138	-83,015	0,041	0,010
-586,123	-95,242	-0,161	-0,032
-585,109	-200,000	0,004	0,072
-584,094	417,995	-0,035	0,055
-583,079	-62,535	-0,084	-0,025
-582,065	266,556	-0,043	0,055
-581,050	-3,113	-0,079	0,040
-580,036	-105,962	0,061	0,010
-579,021	800,000	0,043	-0,106
-578,006	800,000	0,023	-0,047
-576,992	87,806	-0,074	-0,060
-575,977	-200,000	-0,000	-0,053
-574,963	98,424	-0,057	-0,048
-573,948	50,056	0,023	-0,016
-572,934	-56,512	-0,087	0,028
-571,919	-200,000	0,008	-0,152
-570,904	403,273	-0,033	-0,050
-569,890	127,966	-0,063	0,059
-568,875	-200,000	-0,014	0,066
-567,861	-200,000	0,003	-0,038
-566,846	320,574	-0,062	0,086
-565,831	38,925	-0,063	0,041
-564,817	187,065	-0,080	0,088
-563,802	-159,113	-0,104	-0,004
-562,788	-200,000	0,008	0,059
-561,773	-120,477	0,048	0,006
-560,758	-10,349	-0,069	-0,034
-559,744	-170,063	0,073	-0,002
-558,729	-82,372	0,102	-0,024
-557,715	-200,000	0,023	0,097
-556,700	-42,913	-0,116	-0,043
-555,685	638,498	-0,056	0,104
-554,671	-57,543	-0,048	-0,015
-553,656	-200,000	-0,005	-0,067
-552,642	800,000	-0,043	0,120
-551,627	312,181	-0,060	0,082
-550,612	-200,000	0,000	-0,006
-549,598	88,045	-0,027	-0,022
-548,583	147,531	0,038	0,038
-547,569	800,000	0,019	-0,057
-546,554	151,737	-0,099	-0,098
-545,539	800,000	-0,060	0,123
-544,525	-200,000	0,162	-0,000
-543,510	194,314	-0,061	0,067
-542,496	705,824	-0,085	-0,164
-541,481	-200,000	-0,004	-0,033
-540,466	22,441	0,045	0,027
-539,452	48,492	-0,050	0,034
-538,437	-200,000	0,005	0,170
-537,423	-200,000	0,057	-0,000
-536,408	-52,512	0,064	0,021
-535,393	193,502	-0,056	-0,063
-534,379	-32,434	0,062	0,025
-533,364	-200,000	-0,017	0,073
-532,350	144,292	0,142	0,139
-531,335	198,151	0,035	0,039
-530,321	-166,391	0,065	-0,002
-529,306	800,000	-0,044	0,128
-528,291	651,634	-0,040	0,074
-527,277	-107,514	0,078	-0,012
-526,262	800,000	0,060	-0,159
-525,248	-200,000	-0,004	-0,100
-524,233	78,796	0,146	0,114
-523,218	-200,000	-0,036	-0,128
-522,204	515,065	0,064	-0,110
-521,189	-200,000	0,006	-0,030
-520,175	124,619	-0,115	-0,106
-519,160	293,340	0,016	0,022
-518,145	74,019	-0,028	-0,022
-517,131	156,275	0,023	-0,023
-516,116	173,108	-0,045	0,048
-515,102	800,000	-0,012	0,033
-514,087	704,393	0,074	-0,143
-513,072	140,091	0,058	0,056
-512,058	-200,000	-0,036	0,131
-511,043	-200,000	0,019	-0,082
-510,029	-58,458	0,090	0,028
-509,014	-200,000	0,002	-0,033
-507,999	-15,294	-0,161	0,075
-506,985	-200,000	0,000	-0,084
-505,970	301,982	0,064	-0,087
-504,956	800,000	-0,041	-0,102
-503,941	-200,000	0,017	-0,111
-502,926	-200,000	0,008	0,098
-501,912	64,661	-0,117	0,086
-500,897	800,000	-0,072	0,193
-499,883	-200,000	-0,004	0,021
-498,868	25,738	-0,084	0,051
-497,853	-13,965	0,168	0,079
-496,839	-200,000	-0,004	0,021
-495,824	184,623	0,085	0,093
-494,810	800,000	0,038	0,095
-493,795	-18,030	0,108	-0,049
-492,781	800,000	0,028	0,066
-491,766	-2,242	-0,092	-0,047
-490,751	2,940	-0,081	-0,043
-489,737	800,000	-0,025	0,067
-488,722	-158,102	0,088	-0,004
-487,708	-72,788	0,066	0,017
-486,693	-200,000	-0,009	-0,033
-485,678	-200,000	0,009	-0,033
-484,664	183,073	-0,095	-0,102
-483,649	-151,210	0,209	0,011
-482,635	225,226	-0,118	0,140
-481,620	254,882	0,020	0,025
-480,605	699,756	0,040	0,078
-479,591	-120,373	0,038	-0,005
-478,576	-200,000	0,004	0,017
-477,562	-200,000	-0,002	0,023
-476,547	800,000	0,052	-0,106
-475,532	136,820	-0,058	-0,055
-474,518	-52,988	0,134	-0,045
-473,503	135,704	0,017	-0,016
-472,489	-200,000	-0,019	0,198
-471,474	-72,312	0,117	0,031
-470,459	310,594	-0,009	0,013
-469,445	-200,000	0,005	-0,131
-468,430	-54,234	-0,101	-0,033
-467,416	-200,000	-0,033	-0,141
-466,401	-36,461	0,039	-0,015
-465,386	240,570	-0,033	-0,040
-464,372	355,702	0,077	-0,113
-463,357	164,482	0,034	-0,035
-462,343	800,000	0,034	-0,087
-461,328	-0,219	-0,139	0,072
-460,313	365,613	-0,061	-0,090
-459,299	227,030	-0,083	0,099
-458,284	59,842	-0,083	0,059
-457,270	-200,000	-0,022	0,093
-456,255	25,609	0,026	0,016
-455,241	-200,000	-0,045	0,000
-454,226	84,747	0,032	-0,025
-453,211	800,000	0,045	-0,132
-452,197	224,711	0,049	0,058
-451,182	-131,647	0,051	-0,005
-450,168	-200,000	-0,024	-0,081
-449,153	-200,000	-0,018	0,091
-448,138	521,569	-0,010	-0,018
-447,124	-196,319	-0,043	0,000
-446,109	262,494	0,003	0,004
-445,095	-127,267	0,086	0,009
-444,080	207,157	0,035	0,040
-443,065	-7,917	0,079	-0,039
-442,051	-200,000	0,025	0,107
-441,036	-53,852	-0,058	-0,019
-440,022	35,175	-0,065	0,041
-439,007	-200,000	-0,029	0,094
-437,992	6,929	-0,135	0,073
-436,978	-200,000	0,049	0,195
-435,963	33,821	0,051	0,032
-434,949	800,000	0,050	0,109
-433,934	-125,068	0,148	0,016
-432,919	598,351	-0,083	0,150
-431,905	-167,658	-0,133	0,004
-430,890	96,319	0,114	0,095
-429,876	64,032	0,030	0,022
-428,861	-71,406	-0,090	-0,024
-427,846	298,174	-0,100	-0,135
-426,832	800,000	0,034	0,073
-425,817	-200,000	-0,001	-0,004
-424,803	252,211	-0,016	0,020
-423,788	-200,000	0,003	0,081
-422,773	-200,000	0,026	-0,102
-421,759	800,000	-0,062	0,132
-420,744	-200,000	0,000	0,076
-419,730	800,000	-0,024	-0,068
-418,715	494,909	0,025	-0,042
-417,701	-17,454	-0,075	-0,034
-416,686	414,522	-0,059	0,092
-415,671	-127,058	0,133	0,014
-414,657	-200,000	0,022	-0,144
-413,642	-200,000	-0,014	0,057
-412,628	381,541	0,043	0,065
-411,613	-157,366	-0,070	0,003
-410,598	110,846	-0,085	-0,075
-409,584	-34,409	0,053	0,021
-408,569	137,767	0,044	-0,042
-407,555	300,904	0,121	0,163
-406,540	-200,000	0,022	0,166
-405,525	-117,635	-0,028	-0,004
-404,511	-200,000	-0,012	-0,064
-403,496	-35,271	0,067	-0,026
-402,482	800,000	-0,032	0,077
-401,467	-200,000	0,015	-0,098
-400,452	681,384	0,034	-0,066
-399,438	210,820	-0,019	0,022
-398,423	48,360	-0,060	-0,041
-397,409	1,959	-0,060	0,032
-396,394	-43,979	0,129	-0,047
-395,379	800,000	0,028	0,069
-394,365	132,956	0,078	-0,073
-393,350	800,000	0,023	-0,066
-392,336	-160,990	-0,210	0,008
-391,321	83,199	-0,053	0,042
-390,306	-115,410	-0,120	0,016
-389,292	800,000	0,025	-0,074
-388,277	-200,000	-0,001	0,148
-387,263	421,880	0,065	-0,102
-386,248	-200,000	-0,018	0,090
-385,233	-200,000	-0,015	0,102
-384,219	-1,406	0,073	-0,037
-383,204	128,925	-0,043	0,040
-382,190	24,499	0,061	-0,036
-381,175	750,004	-0,020	-0,039
-380,160	-189,873	-0,068	-0,001
-379,146	-52,695	0,102	0,034
-378,131	-200,000	-0,002	-0,132
-377,117	-12,546	-0,056	-0,026
-376,102	95,563	-0,078	-0,065
-375,088	-200,000	0,010	-0,216
-374,073	680,571	-0,019	-0,036
-373,058	-171,620	0,091	0,002
-372,044	749,332	-0,057	0,112
-371,029	-196,757	0,050	-0,000
-370,015	58,830	0,111	0,079
-369,000	-200,000	-0,012	-0,077
-367,985	436,236	-0,013	0,020
-366,971	3,582	0,173	-0,091
-365,956	145,498	0,069	0,067
-364,942	-18,386	0,091	0,041
-363,927	800,000	0,036	0,106
-362,912	-200,000	0,046	0,169
-361,898	-200,000	0,021	-0,071
-360,883	-200,000	0,004	-0,072
-359,869	29,907	0,041	-0,026
-358,854	468,795	0,060	-0,098
-357,839	-2,306	0,133	0,068
-356,825	178,087	-0,109	-0,116
-355,810	250,143	-0,039	-0,048
-354,796	-68,924	0,049	0,014
-353,781	557,419	0,020	0,035
-352,766	-200,000	-0,029	-0,146
-351,752	-115,917	-0,062	-0,008
-350,737	625,485	0,070	0,128
-349,723	-51,632	0,047	-0,016
-348,708	70,326	-0,132	0,099
-347,693	-155,717	0,038	-0,002
-346,679	800,000	-0,018	0,043
-345,664	-8,946	0,082	-0,040
-344,650	-30,113	-0,056	0,023
-343,635	293,225	0,026	-0,034
-342,620	65,328	0,019	-0,014
-341,606	34,454	0,015	-0,010
-340,591	266,167	0,087	0,111
-339,577	106,090	-0,081	0,069
-338,562	111,450	-0,098	0,086
-337,548	-39,325	-0,034	0,013
-336,533	-130,868	0,044	-0,004
-335,518	800,000	0,047	0,106
-334,504	-160,506	-0,077	-0,003
-333,489	783,710	-0,061	0,121
-332,475	409,287	0,009	0,014
-331,460	710,415	-0,064	0,123
-330,445	139,984	-0,087	0,084
-329,431	348,310	-0,052	0,074
-328,416	-47,803	0,092	0,032
-327,402	411,447	-0,086	0,133
-326,387	-200,000	-0,002	-0,013
-325,372	-200,000	0,021	0,136
-324,358	-49,243	0,033	-0,011
-323,343	-127,733	-0,040	-0,004
-322,329	690,712	0,063	0,120
-321,314	86,447	0,124	0,099
-320,299	34,858	0,179	0,113
-319,285	-200,000	0,046	0,148
-318,270	236,643	-0,111	-0,133
-317,256	63,167	0,037	-0,027
-316,241	-200,000	0,019	-0,070
-315,226	132,407	0,129	0,121
-314,212	-16,630	0,119	0,055
-313,197	-81,472	0,070	-0,017
-312,183	-44,063	0,028	-0,010
-311,168	81,962	-0,105	-0,083
-310,153	800,000	-0,026	-0,059
-309,139	800,000	-0,018	0,044
-308,124	-200,000	0,001	-0,043
-307,110	800,000	0,044	0,092
-306,095	-200,000	0,013	0,127
-305,080	-78,136	0,079	-0,020
-304,066	-200,000	-0,013	0,131
-303,051	255,520	0,060	-0,075
-302,037	460,078	0,022	-0,036
-301,022	-200,000	-0,000	0,082
-300,008	11,417	0,035	-0,020
-298,993	396,166	0,066	0,099
-297,978	8,731	-0,154	0,084
-296,964	-133,560	-0,151	-0,014
-295,949	-200,000	0,014	0,113
-294,935	368,215	-0,054	-0,079
-293,920	363,470	0,098	0,143
-292,905	674,591	-0,036	0,069
-291,891	122,947	0,121	0,110
-290,876	-61,270	0,082	-0,025
-289,862	286,487	-0,025	-0,033
-288,847	-200,000	-0,003	-0,080
-287,832	-200,000	0,021	-0,110
-286,818	6,513	-0,146	-0,078
-285,803	-51,818	0,255	0,085
-284,789	125,800	0,096	-0,088
-283,774	-5,752	0,075	-0,037
-282,759	-200,000	-0,015	-0,143
-281,745	800,000	-0,077	-0,175
-280,730	230,559	0,034	-0,040
-279,716	101,326	-0,088	-0,075
-278,701	-126,081	-0,062	0,007
-277,686	-19,408	-0,068	0,031
-276,672	108,740	-0,053	-0,046
-275,657	128,100	0,025	-0,023
-274,643	-31,000	-0,115	-0,047
-273,628	-200,000	0,002	-0,101
-272,613	765,648	-0,015	-0,029
-271,599	315,397	0,066	-0,091
-270,584	800,000	-0,047	-0,100
-269,570	89,907	-0,035	0,029
-268,555	644,401	-0,057	-0,106
-267,540	22,955	0,068	-0,040
-266,526	-4,856	-0,093	-0,046
-265,511	134,437	0,032	-0,030
-264,497	154,226	0,013	-0,013
-263,482	-200,000	-0,036	0,142
-262,467	-200,000	-0,037	0,184
-261,453	-200,000	0,037	0,186
-260,438	-200,000	-0,005	0,053
-259,424	-151,552	-0,024	0,001
-258,409	-62,981	-0,121	0,036
-257,395	-200,000	0,018	-0,073
-256,380	-140,441	0,096	-0,007
-255,365	-109,528	0,121	0,018
-254,351	-115,526	-0,040	-0,005
-253,336	687,819	0,051	-0,097
-252,322	493,760	0,001	-0,002
-251,307	65,791	-0,043	-0,032
-250,292	-127,115	0,073	0,008
-249,278	-200,000	0,004	0,049
-248,263	800,000	0,050	0,123
-247,249	28,063	0,006	0,004
-246,234	-7,656	-0,042	-0,020
-245,219	-169,840	-0,119	-0,003
-244,205	453,952	0,076	0,122
-243,190	800,000	0,048	0,111
-242,176	207,401	0,130	0,147
-241,161	488,821	-0,050	0,084
-240,146	-157,319	-0,116	-0,005
-239,132	-30,847	0,059	-0,024
-238,117	136,228	-0,053	-0,050
-237,103	211,646	-0,076	0,086
-236,088	569,631	0,050	0,088
-235,073	244,282	0,069	-0,084
-234,059	364,108	-0,034	0,050
-233,044	112,529	0,099	0,087
-232,030	800,000	0,013	0,029
-231,015	-4,309	0,018	0,009
-230,000	-200,000	0,002	0,117
-228,986	800,000	0,015	-0,040
-227,971	-78,122	0,104	-0,026
-226,957	108,901	0,067	0,058
-225,942	-31,860	0,055	-0,022
-224,927	-200,000	-0,018	0,116
-223,913	800,000	-0,040	-0,115
-222,898	647,579	-0,019	-0,035
-221,884	-96,029	-0,117	-0,022
-220,869	800,000	0,053	-0,125
-219,855	309,826	0,081	-0,109
-218,840	23,685	-0,093	-0,055
-217,825	-200,000	0,005	-0,017
-216,811	48,878	-0,189	0,128
-215,796	234,304	-0,024	-0,029
-214,782	800,000	0,011	0,025
-213,767	303,459	-0,093	0,124
-212,752	-3,531	0,097	-0,049
-211,738	-91,687	-0,079	-0,016
-210,723	119,163	-0,110	0,098
-209,709	112,081	-0,083	-0,072
-208,694	-60,499	-0,121	0,037
-207,679	100,992	0,058	-0,049
-206,665	188,308	-0,037	-0,040
-205,650	800,000	0,027	-0,083
-204,636	-92,863	0,206	-0,041
-203,621	-1,183	-0,113	0,057
-202,606	87,446	-0,121	-0,097
-201,592	167,324	0,055	-0,056
-200,577	800,000	-0,026	-0,065
-199,563	61,071	-0,032	-0,023
-198,548	83,570	0,119	0,094
-197,533	-200,000	-0,003	-0,045
-196,519	18,699	-0,043	0,024
-195,504	-167,533	-0,069	0,002
-194,490	222,980	-0,045	0,053
-193,475	287,438	-0,067	-0,087
-192,460	-200,000	-0,031	0,115
-191,446	286,040	0,069	0,090
-190,431	-200,000	0,003	0,046
-189,417	-15,566	0,144	0,066
-188,402	289,645	-0,148	-0,194
-187,387	-200,000	-0,001	-0,052
-186,373	214,279	-0,043	0,049
-185,358	27,645	0,125	-0,075
-184,344	-136,437	0,124	0,010
-183,329	148,125	0,074	0,072
-182,315	-200,000	0,009	-0,070
-181,300	800,000	-0,062	0,131
-180,285	204,229	-0,059	-0,066
-179,271	22,416	-0,178	-0,104
-178,256	22,720	0,113	0,066
-177,242	24,489	0,063	-0,037
-176,227	-200,000	-0,015	-0,103
-175,212	-114,760	-0,064	0,009
-174,198	-200,000	0,016	0,129
-173,183	-200,000	-0,012	-0,122
-172,169	7,596	-0,035	0,019
-171,154	-112,658	-0,110	-0,016
-170,139	33,394	0,107	-0,067
-169,125	4,361	0,085	-0,045
-168,110	278,347	-0,008	0,011
-167,096	766,093	0,078	-0,154
-166,081	6,115	-0,178	-0,095
-165,066	-200,000	-0,003	0,039
-164,052	322,442	0,077	0,106
-163,037	-155,385	0,127	0,006
-162,023	800,000	-0,014	0,039
-161,008	-200,000	0,026	-0,112
-159,993	-200,000	0,021	-0,110
-158,979	800,000	-0,046	-0,093
-157,964	-200,000	-0,016	-0,140
-156,950	-200,000	-0,024	-0,118
-155,935	-200,000	0,012	0,052
-154,920	161,618	0,024	0,025
-153,906	-137,518	0,075	0,006
-152,891	261,382	-0,071	-0,089
-151,877	580,468	0,059	-0,105
-150,862	800,000	-0,012	0,037
-149,847	-200,000	0,007	-0,130
-148,833	636,847	-0,037	0,069
-147,818	-79,168	-0,009	0,002
-146,804	-128,267	0,136	-0,014
-145,789	251,158	0,033	0,041
-144,775	207,231	0,053	0,059
-143,760	422,049	-0,051	0,080
-142,745	800,000	-0,037	-0,077
-141,731	800,000	0,015	0,032
-140,716	-39,075	-0,109	0,041
-139,702	-200,000	0,042	0,154
-138,687	800,000	0,026	0,071
-137,672	386,441	0,034	-0,051
-136,658	-200,000	-0,016	-0,070
-135,643	-84,033	0,097	-0,022
-134,629	-200,000	0,035	0,160
-133,614	-6,739	-0,065	-0,032
-132,599	562,930	-0,074	0,130
-131,585	-198,800	-0,061	-0,000
-130,570	167,531	0,028	0,028
-129,556	-81,423	-0,110	0,026
-128,541	29,845	-0,050	0,030
-127,526	-25,642	-0,036	0,015
-126,512	416,296	-0,134	0,206
-125,497	8,822	-0,014	0,008
-124,483	47,764	-0,071	-0,048
-123,468	-86,438	-0,097	0,021
-122,453	800,000	-0,023	-0,060
-121,439	-200,000	-0,002	-0,026
-120,424	310,477	0,044	0,060
-119,410	213,717	-0,082	-0,094
-118,395	-200,000	-0,005	-0,082
-117,380	47,537	0,012	0,008
-116,366	404,911	0,059	0,090
-115,351	800,000	-0,019	0,043
-114,337	800,000	0,020	0,044
-113,322	147,405	-0,104	-0,100
-112,307	63,890	-0,027	0,019
-111,293	800,000	-0,053	0,131
-110,278	29,456	0,138	-0,084
-109,264	-200,000	0,002	-0,032
-108,249	37,282	0,069	0,044
-107,234	-200,000	0,023	-0,082
-106,220	800,000	-0,018	-0,038
-105,205	-140,128	0,052	0,004
-104,191	-116,621	0,131	-0,017
-103,176	-200,000	-0,001	0,018
-102,162	60,755	-0,079	-0,057
-101,147	-172,513	-0,112	-0,003
-100,132	307,487	0,081	0,109
-99,118	800,000	0,046	-0,095
-98,103	-200,000	-0,003	0,033
-97,089	22,313	-0,102	0,060
-96,074	-134,719	0,114	0,010
-95,059	-31,165	-0,069	0,028
-94,045	-200,000	0,009	-0,071
-93,030	-26,442	0,105	-0,044
-92,016	-117,495	-0,127	-0,016
-91,001	-102,712	-0,062	-0,010
-89,986	-39,497	-0,034	-0,013
-88,972	-156,029	-0,061	-0,003
-87,957	104,106	0,067	0,057
-86,943	203,605	0,041	0,045
-85,928	-57,471	-0,210	-0,066
-84,913	73,211	0,073	-0,055
-83,899	-200,000	0,007	0,040
-82,884	-170,235	0,101	-0,003
-81,870	-125,009	-0,005	0,001
-80,855	455,906	0,066	0,106
-79,840	-3,116	-0,095	-0,047
-78,826	-58,668	0,219	0,068
-77,811	-14,771	0,028	0,013
-76,797	-136,206	0,039	0,003
-75,782	47,312	-0,126	0,084
-74,767	800,000	0,075	0,172
-73,753	-109,390	-0,037	-0,006
-72,738	88,347	-0,080	0,064
-71,724	-200,000	0,006	0,050
-70,709	800,000	0,012	0,028
-69,694	800,000	0,003	0,008
-68,680	-0,063	-0,156	0,080
-67,665	204,450	0,040	-0,044
-66,651	660,014	0,057	0,106
-65,636	-200,000	-0,032	0,112
-64,622	800,000	0,022	-0,047
-63,607	-74,497	-0,136	0,035
-62,592	800,000	0,011	-0,032
-61,578	-168,859	0,077	0,002
-60,563	111,941	-0,073	-0,063
-59,549	225,073	-0,154	0,179
-58,534	3,694	-1,985	-1,037
-57,519	-200,000	-0,122	-0,841
-56,505	-200,000	-1,220	-5,043
-55,490	-12,300	0,738	0,345
-54,476	800,000	5,237	12,127
-53,461	-200,000	17,538	285,153
-52,446	800,000	727,720	2221,193
-51,432	536,830	1643,998	2812,451
-50,417	110,060	1635,045	1408,042
-49,403	75,969	1287,156	976,014
-48,388	31,997	1027,437	633,984
-47,373	20,207	989,171	571,510
-46,359	18,373	977,086	558,493
-45,344	15,492	973,103	546,772
-44,330	15,782	971,565	546,832
-43,315	15,230	969,724	543,974
-42,300	15,214	968,612	543,277
-41,286	15,145	967,545	542,432
-40,271	15,223	966,385	542,013
-39,257	15,200	965,676	541,519
-38,242	15,194	964,868	541,024
-37,227	15,198	963,931	540,492
-36,213	15,246	963,005	540,105
-35,198	15,204	962,105	539,443
-34,184	15,299	961,399	539,334
-33,169	15,207	960,303	538,400
-32,154	15,206	959,525	537,941
-31,140	15,247	958,698	537,588
-30,125	15,204	957,909	536,985
-29,111	15,227	957,207	536,642
-28,096	15,235	956,504	536,253
-27,082	15,196	955,829	535,728
-26,067	15,247	954,950	535,380
-25,052	15,201	954,164	534,769
-24,038	15,170	953,711	534,395
-23,023	15,157	953,208	534,049
-22,009	15,213	952,500	533,811
-20,994	15,212	951,726	533,353
-19,979	15,266	951,053	533,129
-18,965	15,253	950,369	532,680
-17,950	15,175	949,788	532,086
-16,936	15,226	949,118	531,853
-15,921	15,116	948,637	531,210
-14,906	15,102	947,821	530,688
-13,892	15,139	947,065	530,360
-12,877	15,077	946,516	529,837
-11,863	15,014	946,123	529,393
-10,848	15,062	945,362	529,098
-9,833	15,167	944,991	529,203
-8,819	15,159	944,158	528,692
-7,804	15,195	943,507	528,419
-6,790	15,089	943,148	527,862
-5,775	15,206	942,326	527,753
-4,760	15,075	941,967	527,117
-3,746	15,059	941,460	526,759
-2,731	15,002	940,630	526,096
-1,717	14,942	939,789	525,413
-0,702	14,913	939,312	525,033
0,313	14,775	938,573	524,980
1,327	18,083	936,404	534,135
2,342	27,209	793,755	476,927
3,356	24,135	458,341	270,677
4,371	-3,476	314,213	156,237
5,386	-7,457	295,752	143,022
6,400	-9,480	289,621	138,040
7,415	-9,767	287,093	136,542
8,429	-10,112	285,708	135,533
9,444	-10,187	284,933	135,080
10,459	-10,175	284,249	134,756
11,473	-10,040	283,642	134,587
12,488	-9,948	283,184	134,447
13,502	-10,026	282,629	134,096
14,517	-10,042	282,321	133,922
15,531	-10,089	281,673	133,557
16,546	-10,070	281,386	133,428
17,561	-10,097	280,991	133,202
18,575	-9,880	280,516	133,174
19,590	-10,173	280,242	132,752
20,604	-9,921	279,958	132,846
21,619	-10,117	279,590	132,472
22,634	-10,056	279,219	132,342
23,648	-10,189	278,994	132,098
24,663	-10,113	278,706	132,022
25,677	-10,033	278,424	131,953
26,692	-10,137	278,234	131,752
27,707	-10,187	277,934	131,551
28,721	-10,077	277,615	131,493
29,736	-10,238	277,355	131,205
30,750	-10,319	277,111	131,001
31,765	-10,129	276,873	131,056
32,780	-10,033	276,427	130,924
33,794	-10,011	276,431	130,935
34,809	-9,862	275,940	130,831
35,823	-10,030	275,713	130,554
36,838	-10,078	275,610	130,448
37,853	-10,252	275,439	130,192
38,867	-10,371	275,262	129,986
39,882	-10,081	274,848	130,050
40,896	-9,972	274,558	130,003
41,911	-10,194	274,442	129,729
42,926	-10,062	274,150	129,703
43,940	-10,180	273,721	129,379
44,955	-10,188	273,707	129,352
45,969	-10,045	273,275	129,270
46,984	-10,249	273,131	129,000
47,999	-10,537	272,812	128,571
49,013	-10,514	272,571	128,467
50,028	-10,599	272,306	128,252
51,042	-10,802	271,988	127,901
52,057	-10,804	271,838	127,818
53,071	-10,856	271,774	127,728
54,086	-10,756	271,543	127,701
55,101	-10,552	271,417	127,819
56,115	-10,254	271,077	127,923
57,130	-10,077	270,953	128,016
58,144	-10,065	270,858	127,971
59,159	-10,086	270,575	127,807
60,174	-10,125	270,362	127,659
61,188	-9,961	270,107	127,678
62,203	-10,090	269,942	127,470
63,217	-10,014	269,806	127,464
64,232	-10,164	269,539	127,189
65,247	-9,981	269,237	127,203
66,261	-10,164	269,038	126,930
67,276	-10,164	268,539	126,683
68,290	-10,306	268,408	126,480
69,305	-10,251	268,167	126,406
70,320	-10,185	267,926	126,341
71,334	-10,261	267,864	126,232
72,349	-9,829	267,575	126,477
73,363	-10,052	267,450	126,204
74,378	-9,902	267,061	126,146
75,393	-10,052	267,058	125,996
76,407	-10,175	266,800	125,752
77,422	-9,948	266,496	125,803
78,436	-9,953	266,282	125,686
79,451	-10,016	266,239	125,598
80,466	-9,989	265,787	125,398
81,480	-9,973	265,618	125,321
82,495	-10,333	265,429	124,897
83,509	-10,002	265,258	125,103
84,524	-10,013	264,922	124,924
85,539	-10,454	264,742	124,430
86,553	-10,423	264,613	124,387
87,568	-10,371	264,509	124,374
88,582	-10,327	264,157	124,236
89,597	-10,157	263,836	124,227
90,611	-10,120	263,862	124,261
91,626	-9,912	263,640	124,332
92,641	-10,048	263,477	124,122
93,655	-10,157	263,230	123,897
94,670	-10,076	262,768	123,741
95,684	-10,169	262,835	123,679
96,699	-10,045	262,502	123,621
97,714	-10,127	262,432	123,504
98,728	-10,303	262,191	123,223
99,743	-10,189	261,850	123,153
100,757	-10,347	261,886	123,019
101,772	-10,383	261,715	122,895
102,787	-10,147	261,371	122,932
103,801	-10,102	261,208	122,885
104,816	-10,006	261,159	122,935
105,830	-9,999	260,943	122,829
106,845	-9,947	260,507	122,659
107,860	-10,095	260,534	122,530
108,874	-10,000	260,308	122,496
109,889	-10,122	260,020	122,243
110,903	-9,863	259,678	122,299
111,918	-10,083	259,740	122,123
112,933	-9,962	259,474	122,094
113,947	-10,010	259,280	121,949
114,962	-10,096	259,045	121,752
115,976	-10,098	258,782	121,617
116,991	-10,134	258,751	121,559
118,006	-9,865	258,431	121,634
119,020	-10,021	258,380	121,463
120,035	-9,846	258,275	121,555
121,049	-10,168	258,127	121,193
122,064	-10,016	257,898	121,208
123,079	-10,076	257,698	121,050
124,093	-10,152	257,427	120,846
125,108	-10,072	257,120	120,761
126,122	-10,306	256,851	120,420
127,137	-10,733	256,852	120,038
128,151	-10,281	256,491	120,252
129,166	-10,284	256,449	120,219
130,181	-10,089	256,118	120,222
131,195	-10,281	256,025	120,002
132,210	-10,005	255,829	120,137
133,224	-9,968	255,667	120,083
134,239	-10,149	255,464	119,820
135,254	-10,146	255,367	119,766
136,268	-10,122	255,118	119,660
137,283	-10,305	254,856	119,369
138,297	-10,474	254,637	119,110
139,312	-10,285	254,338	119,122
140,327	-10,131	254,323	119,237
141,341	-10,035	254,287	119,292
142,356	-9,851	253,942	119,277
143,370	-9,929	253,930	119,194
144,385	-9,866	253,699	119,130
145,400	-9,901	253,547	119,017
146,414	-9,857	253,402	118,976
147,429	-9,824	253,131	118,867
148,443	-9,860	252,979	118,754
149,458	-9,944	252,820	118,597
150,473	-9,894	252,676	118,562
151,487	-9,835	252,395	118,469
152,502	-10,043	252,240	118,209
153,516	-9,857	252,052	118,269
154,531	-9,910	252,038	118,207
155,546	-9,826	251,778	118,145
156,560	-9,887	251,480	117,943
157,575	-9,909	251,244	117,803
158,589	-9,767	251,023	117,810
159,604	-9,873	250,906	117,654
160,619	-9,698	250,757	117,722
161,633	-9,772	250,654	117,600
162,648	-9,829	250,481	117,460
163,662	-9,870	250,363	117,360
164,677	-9,896	250,090	117,200
165,692	-9,622	249,868	117,316
166,706	-9,852	249,752	117,057
167,721	-9,864	249,557	116,946
168,735	-9,914	249,498	116,865
169,750	-9,849	249,321	116,827
170,764	-9,554	249,110	116,965
171,779	-9,840	248,965	116,646
172,794	-9,653	248,753	116,694
173,808	-9,897	248,608	116,411
174,823	-10,237	248,334	115,987
175,837	-10,296	248,151	115,842
176,852	-9,845	247,924	116,103
177,867	-9,745	247,889	116,160
178,881	-9,675	247,747	116,141
179,896	-9,761	247,566	115,974
180,910	-9,778	247,361	115,854
181,925	-9,560	247,158	115,930
182,940	-9,731	247,152	115,775
183,954	-9,727	246,945	115,670
184,969	-9,923	246,782	115,421
185,983	-9,659	246,718	115,600
186,998	-9,702	246,465	115,436
188,013	-9,867	246,333	115,226
189,027	-9,748	245,992	115,155
190,042	-9,527	245,865	115,268
191,056	-9,677	245,662	115,039
192,071	-9,693	245,474	114,928
193,086	-9,985	245,415	114,648
194,100	-9,762	245,287	114,762
195,115	-9,705	245,033	114,681
196,129	-9,791	244,851	114,514
197,144	-9,773	244,736	114,465
198,159	-9,750	244,426	114,329
199,173	-9,800	244,251	114,195
200,188	-9,993	244,248	114,025
201,202	-10,136	243,674	113,630
202,217	-10,222	243,565	113,498
203,232	-10,365	243,336	113,264
204,246	-9,930	243,422	113,651
205,261	-9,317	243,325	114,097
206,275	-10,339	242,973	113,087
207,290	-7,039	244,295	116,402
208,304	-0,213	246,637	123,151
209,319	3,210	247,346	126,324
210,334	3,839	247,362	126,840
211,348	4,113	247,273	127,009
212,363	4,182	247,141	126,986
213,377	4,224	247,102	126,990
214,392	4,105	246,705	126,676
215,407	4,122	246,495	126,571
216,421	4,186	246,468	126,599
217,436	4,317	246,372	126,646
218,450	4,599	246,111	126,732
219,465	4,169	245,931	126,275
220,480	3,905	245,765	125,962
221,494	3,781	245,666	125,799
222,509	3,906	245,432	125,770
223,523	3,867	245,209	125,613
224,538	3,373	244,945	125,064
225,553	3,547	244,802	125,121
226,567	3,749	244,785	125,266
227,582	3,813	244,578	125,201
228,596	3,836	244,488	125,162
229,611	3,481	244,100	124,664
230,626	3,627	243,970	124,706
231,640	3,583	243,843	124,593
232,655	3,753	243,756	124,676
233,669	3,806	243,484	124,569
234,684	3,604	243,327	124,314
235,699	3,679	243,460	124,431
236,713	3,948	243,388	124,601
237,728	3,813	242,762	124,160
238,742	3,332	242,682	123,720
239,757	3,361	242,636	123,709
240,772	3,544	242,434	123,742
241,786	3,560	242,508	123,782
242,801	3,394	242,109	123,434
243,815	3,413	241,993	123,379
244,830	3,661	241,820	123,480
245,844	3,689	241,674	123,416
246,859	3,594	241,517	123,249
247,874	3,464	241,360	123,053
248,888	3,555	241,291	123,080
249,903	3,778	241,194	123,198
250,917	3,797	241,017	123,112
251,932	4,186	240,765	123,284
252,947	3,826	240,642	122,922
253,961	3,581	240,476	122,630
254,976	3,720	240,296	122,638
255,990	3,612	240,235	122,510
257,005	3,576	239,947	122,324
258,020	3,489	239,687	122,111
259,034	3,457	239,731	122,097
260,049	3,639	239,501	122,113
261,063	3,371	239,264	121,769
262,078	3,411	239,095	121,704
263,093	3,770	239,163	122,013
264,107	3,856	238,905	121,939
265,122	3,654	238,668	121,647
266,136	3,721	238,630	121,669
267,151	4,018	238,516	121,835
268,166	3,415	238,301	121,238
269,180	3,525	238,089	121,206
270,195	3,961	238,155	121,574
271,209	4,255	238,127	121,781
272,224	3,886	237,588	121,204
273,239	3,515	237,529	120,870
274,253	3,473	237,487	120,805
275,268	3,675	237,330	120,873
276,282	3,802	237,096	120,843
277,297	3,582	236,782	120,500
278,312	3,514	236,740	120,414
279,326	3,644	236,669	120,469
280,341	3,792	236,435	120,456
281,355	3,661	236,461	120,356
282,370	3,802	236,266	120,356
283,384	3,749	236,099	120,218
284,399	3,652	235,751	119,954
285,414	3,477	235,615	119,739
286,428	3,506	235,366	119,624
287,443	3,766	235,259	119,761
288,457	3,889	235,183	119,808
289,472	3,906	235,114	119,775
290,487	3,617	234,965	119,464
291,501	3,400	234,832	119,217
292,516	3,252	234,630	118,988
293,530	3,325	234,371	118,903
294,545	3,553	234,357	119,062
295,560	3,679	234,152	119,045
296,574	3,219	233,938	118,570
297,589	3,345	233,845	118,609
298,603	3,745	233,843	118,907
299,618	3,719	233,695	118,802
300,633	3,621	233,509	118,621
301,647	3,895	233,440	118,787
302,662	3,962	233,474	118,845
303,676	4,315	233,035	118,883
304,691	3,955	233,036	118,596
305,706	4,165	232,953	118,705
306,720	4,095	232,620	118,471
307,735	3,939	232,573	118,315
308,749	3,883	232,282	118,114
309,764	3,708	232,013	117,832
310,779	3,428	232,000	117,600
311,793	3,653	231,564	117,542
312,808	3,483	231,497	117,367
313,822	3,644	231,289	117,374
314,837	3,555	231,231	117,266
315,852	3,404	231,144	117,096
316,866	3,974	230,923	117,409
317,881	3,964	230,901	117,380
318,895	4,077	230,881	117,445
319,910	4,031	230,765	117,341
320,925	3,785	230,525	117,020
321,939	3,638	230,240	116,754
322,954	3,567	230,172	116,655
323,968	3,215	230,093	116,337
324,983	3,367	229,960	116,375
325,997	4,001	229,815	116,772
327,012	3,656	229,766	116,475
328,027	3,581	229,440	116,242
329,041	3,694	229,392	116,293
330,056	4,020	229,383	116,525
331,070	4,342	229,324	116,729
332,085	4,032	229,012	116,325
333,100	3,946	228,827	116,156
334,114	3,916	228,785	116,102
335,129	3,838	228,677	115,978
336,143	4,070	228,376	115,989
337,158	4,109	228,395	116,018
338,173	3,845	228,176	115,698
339,187	4,071	227,845	115,690
340,202	3,974	227,792	115,580
341,216	3,808	227,746	115,421
342,231	3,753	227,402	115,196
343,246	3,608	227,313	115,031
344,260	4,121	227,228	115,362
345,275	4,052	227,188	115,280
346,289	4,372	226,808	115,317
347,304	4,081	226,859	115,114
348,319	4,124	226,702	115,056
349,333	3,839	226,451	114,706
350,348	3,913	226,355	114,702
351,362	3,860	226,305	114,627
352,377	3,599	226,179	114,359
353,392	3,377	225,914	114,049
354,406	3,542	225,812	114,110
355,421	194,257	1321,038	1393,658
356,435	155,658	1454,471	1393,657
