DTS Sentinel unit serial number:	SN410029Multiplexer serial number:	ORYXHardware model number:	OX2-SRSoftware version number:	ORYX F/W v4,00 Oryx Data Collector v3.7.2.0data status	okinstallation	B5 Nyhavnadifferential loss correction	single-endedforward channel	channel 2reverse channel	N/Adate	2023/12/11time	15:47:13forward acquisition time	300,00reverse acquisition time	0,00gamma	499,1914k internal	0,3166k external	0,3166temperature offset calibration	1,0000default loss term (dB/km)	0,3820temperature slope calibration	1,0000multiplexer offset coefficient	1,0000multiplexer slope coefficient	1,0000fibre end	0,00T internal ref (°C)	13,54T ext. ref 1 (°C)	-1,59T ext. ref 2 (°C)	-1,69length (m)	temperature (°C)	Stokes	anti-Stokes-744,400	-103,142	0,207	0,036
-743,385	-175,041	-0,341	0,007
-742,371	18,396	0,206	0,121
-741,356	-136,502	-0,271	-0,023
-740,342	-4,233	0,175	0,089
-739,327	-129,900	-0,303	0,030
-738,312	-17,183	0,084	-0,039
-737,298	-91,256	-0,274	0,057
-736,283	132,787	0,012	-0,011
-735,269	46,749	-0,262	0,179
-734,254	-179,331	0,157	0,002
-733,239	-13,773	-0,466	-0,221
-732,225	10,273	0,125	0,070
-731,210	155,620	-0,045	0,045
-730,196	800,000	0,018	-0,045
-729,181	225,604	-0,050	0,059
-728,167	-127,825	-0,081	-0,009
-727,152	87,400	0,044	-0,036
-726,137	148,506	-0,057	-0,057
-725,123	800,000	-0,078	-0,184
-724,108	800,000	-0,030	-0,068
-723,094	800,000	-0,033	-0,086
-722,079	37,783	-0,110	-0,071
-721,064	571,045	-0,041	0,074
-720,050	72,042	-0,082	-0,062
-719,035	-78,534	-0,088	-0,022
-718,021	447,235	-0,084	-0,136
-717,006	184,399	-0,042	-0,046
-715,991	-63,494	-0,161	0,048
-714,977	-110,245	0,065	0,010
-713,962	-200,000	0,021	-0,137
-712,948	-142,658	-0,121	0,009
-711,933	-200,000	0,032	-0,125
-710,918	800,000	0,025	-0,054
-709,904	5,614	-0,046	-0,025
-708,889	-178,858	-0,158	-0,003
-707,875	-200,000	-0,002	-0,042
-706,860	-37,088	-0,051	-0,020
-705,845	195,439	0,058	0,065
-704,831	800,000	0,020	0,045
-703,816	559,739	-0,096	-0,171
-702,802	-81,841	0,088	0,021
-701,787	123,497	-0,106	0,097
-700,772	-200,000	-0,001	-0,067
-699,758	226,589	0,069	-0,082
-698,743	-200,000	-0,028	-0,170
-697,729	296,556	0,072	-0,098
-696,714	-200,000	-0,014	0,066
-695,699	-89,001	-0,084	0,018
-694,685	800,000	0,067	-0,168
-693,670	513,191	-0,119	-0,205
-692,656	-93,372	0,072	0,015
-691,641	-63,441	-0,129	-0,039
-690,627	10,252	0,040	-0,022
-689,612	28,541	0,113	0,070
-688,597	-157,385	0,096	-0,004
-687,583	19,135	-0,046	0,027
-686,568	-200,000	-0,004	-0,063
-685,554	800,000	-0,035	-0,075
-684,539	-200,000	-0,012	-0,133
-683,524	203,820	0,118	-0,134
-682,510	-200,000	-0,004	0,045
-681,495	63,466	-0,136	-0,100
-680,481	43,002	0,115	-0,077
-679,466	-61,688	0,030	-0,009
-678,451	-72,715	-0,234	-0,063
-677,437	-27,850	0,020	0,008
-676,422	800,000	-0,052	0,112
-675,408	188,754	-0,023	-0,026
-674,393	82,616	-0,126	-0,100
-673,378	800,000	-0,038	-0,090
-672,364	800,000	-0,021	-0,061
-671,349	800,000	-0,035	-0,096
-670,335	-200,000	0,003	0,013
-669,320	-200,000	-0,010	0,063
-668,305	33,081	-0,077	-0,049
-667,291	-17,538	-0,141	0,065
-666,276	21,734	0,079	-0,047
-665,262	627,130	-0,084	-0,157
-664,247	57,551	-0,114	0,081
-663,232	-16,823	-0,178	0,082
-662,218	-136,902	0,121	0,010
-661,203	-200,000	0,023	-0,102
-660,189	-110,494	-0,065	-0,010
-659,174	-107,343	-0,062	-0,010
-658,159	75,384	-0,088	-0,068
-657,145	800,000	-0,023	-0,059
-656,130	-116,640	0,116	-0,015
-655,116	800,000	0,031	-0,064
-654,101	-200,000	0,008	-0,136
-653,086	-19,022	-0,112	-0,051
-652,072	326,616	-0,054	-0,075
-651,057	-200,000	-0,006	-0,068
-650,043	129,354	0,057	-0,053
-649,028	657,883	-0,033	-0,063
-648,014	-69,076	0,020	0,006
-646,999	79,006	0,052	0,041
-645,984	-200,000	0,029	0,132
-644,970	3,959	0,077	-0,041
-643,955	800,000	-0,015	-0,041
-642,941	83,192	-0,051	-0,041
-641,926	-154,573	-0,128	-0,006
-640,911	-200,000	-0,005	0,016
-639,897	-45,777	-0,075	-0,027
-638,882	800,000	0,020	-0,046
-637,868	800,000	-0,024	-0,057
-636,853	-1,928	-0,123	-0,063
-635,838	236,769	0,024	-0,029
-634,824	-43,342	-0,046	0,017
-633,809	91,361	0,056	0,046
-632,795	716,599	-0,039	-0,076
-631,780	-45,534	-0,046	0,017
-630,765	-43,418	0,087	0,032
-629,751	-200,000	0,005	-0,038
-628,736	-200,000	-0,010	0,084
-627,722	-200,000	-0,015	-0,068
-626,707	296,875	0,099	0,134
-625,692	103,204	-0,154	0,132
-624,678	40,393	0,108	0,071
-623,663	-175,596	0,094	-0,002
-622,649	-151,217	-0,044	-0,002
-621,634	28,100	-0,172	-0,106
-620,619	800,000	0,060	0,131
-619,605	800,000	-0,078	-0,188
-618,590	48,752	0,032	-0,022
-617,576	142,693	0,081	-0,079
-616,561	146,767	-0,031	-0,031
-615,546	136,917	-0,032	-0,031
-614,532	-200,000	0,023	-0,080
-613,517	-200,000	-0,006	-0,034
-612,503	60,533	-0,099	0,071
-611,488	-56,336	0,090	0,029
-610,474	151,692	-0,061	0,061
-609,459	126,024	0,082	0,076
-608,444	-146,896	0,061	0,004
-607,430	23,153	0,069	-0,042
-606,415	-21,929	0,029	-0,013
-605,401	-151,377	0,083	0,004
-604,386	99,202	-0,039	0,033
-603,371	261,457	-0,074	0,094
-602,357	800,000	0,023	-0,054
-601,342	240,995	0,051	-0,063
-600,328	0,608	-0,200	-0,105
-599,313	75,780	0,094	-0,073
-598,298	800,000	0,017	0,046
-597,284	-200,000	0,018	0,077
-596,269	-162,400	-0,128	0,005
-595,255	40,116	0,082	-0,054
-594,240	-58,480	-0,069	0,022
-593,225	109,507	-0,056	-0,049
-592,211	291,998	-0,055	-0,074
-591,196	-86,339	0,183	-0,041
-590,182	-37,337	0,011	-0,004
-589,167	-200,000	-0,002	-0,105
-588,152	-200,000	-0,012	-0,067
-587,138	657,209	0,052	-0,099
-586,123	-19,747	0,083	0,037
-585,109	-200,000	-0,007	-0,152
-584,094	137,991	0,138	0,133
-583,079	205,756	0,026	-0,030
-582,065	-11,225	0,079	-0,038
-581,050	-56,603	-0,041	0,013
-580,036	-200,000	0,003	-0,098
-579,021	-94,109	-0,158	-0,031
-578,006	21,935	-0,068	-0,040
-576,992	-200,000	-0,011	0,044
-575,977	800,000	0,022	0,054
-574,963	-200,000	-0,023	-0,132
-573,948	800,000	-0,028	0,065
-572,934	-74,229	0,067	0,018
-571,919	800,000	-0,047	-0,107
-570,904	138,483	-0,061	-0,058
-569,890	450,621	-0,069	-0,111
-568,875	-79,674	-0,050	-0,012
-567,861	89,834	-0,056	0,046
-566,846	-153,171	0,140	0,007
-565,831	-200,000	-0,006	-0,126
-564,817	-21,557	-0,069	0,031
-563,802	435,652	-0,032	-0,051
-562,788	346,603	-0,038	-0,055
-561,773	-21,431	0,105	-0,047
-560,758	-125,979	-0,030	-0,003
-559,744	-200,000	0,004	-0,021
-558,729	-166,973	0,025	-0,001
-557,715	-200,000	0,012	-0,174
-556,700	463,533	0,033	-0,053
-555,685	800,000	0,008	-0,024
-554,671	-42,433	0,045	-0,017
-553,656	-51,062	0,071	-0,024
-552,642	6,500	0,077	-0,042
-551,627	-11,902	-0,094	0,045
-550,612	92,606	-0,012	-0,010
-549,598	295,689	-0,064	-0,086
-548,583	218,797	0,040	0,047
-547,569	-62,938	0,148	-0,044
-546,554	-90,761	0,156	0,033
-545,539	800,000	0,035	0,087
-544,525	800,000	-0,042	0,101
-543,510	106,232	-0,144	0,125
-542,496	193,283	0,023	0,025
-541,481	64,180	-0,067	-0,049
-540,466	-200,000	0,012	0,128
-539,452	143,469	0,052	0,050
-538,437	-200,000	0,102	0,000
-537,423	-81,937	0,165	0,039
-536,408	132,100	0,022	0,020
-535,393	24,489	-0,045	-0,027
-534,379	142,886	0,089	-0,086
-533,364	800,000	-0,035	-0,073
-532,350	800,000	0,038	0,089
-531,335	800,000	0,037	-0,089
-530,321	-200,000	0,021	0,124
-529,306	-142,214	0,132	-0,009
-528,291	-84,680	-0,027	-0,006
-527,277	365,080	-0,059	-0,087
-526,262	-105,425	0,239	-0,039
-525,248	800,000	0,007	-0,017
-524,233	183,699	0,073	0,079
-523,218	-200,000	0,017	0,066
-522,204	-200,000	0,008	-0,069
-521,189	546,617	0,027	-0,048
-520,175	-28,601	0,049	-0,020
-519,160	146,441	-0,087	-0,086
-518,145	262,352	0,060	-0,076
-517,131	-166,614	-0,077	0,002
-516,116	85,273	-0,035	0,028
-515,102	-200,000	-0,006	-0,151
-514,087	-63,755	-0,072	0,021
-513,072	303,723	-0,117	-0,159
-512,058	43,819	-0,143	0,095
-511,043	-102,821	0,133	0,023
-510,029	696,995	0,026	0,050
-509,014	800,000	0,050	0,109
-507,999	-189,901	-0,057	0,000
-506,985	370,926	0,014	-0,021
-505,970	-124,679	-0,014	-0,002
-504,956	95,431	-0,071	0,059
-503,941	-200,000	-0,012	0,104
-502,926	-200,000	-0,010	0,144
-501,912	-200,000	-0,001	0,068
-500,897	-193,221	0,158	0,001
-499,883	53,780	-0,063	0,044
-498,868	-153,243	-0,067	0,003
-497,853	34,832	-0,118	-0,075
-496,839	38,013	0,052	-0,034
-495,824	-92,194	-0,103	0,021
-494,810	240,532	0,089	0,108
-493,795	800,000	-0,086	0,181
-492,781	58,302	0,044	-0,031
-491,766	-25,181	-0,106	0,045
-490,751	119,682	0,035	-0,032
-489,737	-17,861	-0,051	-0,023
-488,722	-70,080	-0,132	0,036
-487,708	175,609	-0,066	-0,070
-486,693	550,375	-0,056	0,098
-485,678	293,851	-0,036	-0,048
-484,664	-79,072	-0,101	-0,025
-483,649	800,000	0,030	0,063
-482,635	91,478	-0,182	0,149
-481,620	484,169	-0,099	-0,165
-480,605	489,020	0,046	0,077
-479,591	-106,292	0,035	-0,006
-478,576	88,480	-0,092	-0,074
-477,562	-29,516	0,099	-0,041
-476,547	-10,600	-0,064	-0,031
-475,532	58,376	-0,058	0,041
-474,518	-87,554	0,202	-0,044
-473,503	-200,000	-0,009	0,108
-472,489	105,694	0,050	-0,043
-471,474	64,018	-0,043	-0,031
-470,459	-53,650	-0,073	-0,024
-469,445	240,877	0,077	0,093
-468,430	-200,000	0,006	-0,084
-467,416	800,000	0,034	0,093
-466,401	27,900	-0,044	0,027
-465,386	341,586	0,108	0,154
-464,372	-127,194	-0,129	-0,014
-463,357	113,150	0,072	0,063
-462,343	20,697	-0,087	-0,051
-461,328	208,094	0,072	0,082
-460,313	-200,000	0,004	0,094
-459,299	800,000	0,036	0,079
-458,284	800,000	-0,012	0,025
-457,270	61,267	-0,048	-0,034
-456,255	131,050	0,061	0,057
-455,241	9,305	0,033	0,018
-454,226	-200,000	-0,018	0,152
-453,211	-41,963	0,046	0,017
-452,197	800,000	-0,032	-0,072
-451,182	800,000	-0,069	0,148
-450,168	479,658	-0,087	-0,144
-449,153	-90,312	0,055	-0,012
-448,138	268,373	-0,142	0,181
-447,124	26,893	0,044	-0,027
-446,109	-169,122	0,237	0,006
-445,095	-4,411	0,084	-0,042
-444,080	-150,725	0,159	0,009
-443,065	-200,000	-0,028	0,098
-442,051	800,000	-0,026	-0,059
-441,036	300,186	-0,037	-0,050
-440,022	-116,682	-0,201	0,027
-439,007	645,858	0,027	0,051
-437,992	139,619	-0,026	0,025
-436,978	-200,000	0,021	0,087
-435,963	-111,528	0,152	-0,022
-434,949	-68,324	-0,221	-0,062
-433,934	-200,000	0,004	-0,148
-432,919	70,637	-0,045	0,034
-431,905	-127,897	0,056	0,006
-430,890	-75,446	-0,081	-0,021
-429,876	-57,281	0,091	-0,029
-428,861	800,000	-0,004	0,010
-427,846	-200,000	0,015	-0,078
-426,832	0,181	0,097	-0,050
-425,817	-200,000	-0,009	0,045
-424,803	78,144	-0,042	-0,033
-423,788	800,000	-0,025	-0,073
-422,773	-54,625	-0,160	0,052
-421,759	774,596	-0,037	-0,074
-420,744	169,127	-0,074	0,077
-419,730	-200,000	0,007	0,115
-418,715	121,527	-0,031	-0,028
-417,701	-79,765	-0,026	0,006
-416,686	-1,062	-0,067	0,034
-415,671	-119,022	0,149	-0,019
-414,657	592,418	-0,042	-0,075
-413,642	-200,000	-0,007	-0,102
-412,628	800,000	0,040	-0,092
-411,613	31,475	-0,045	-0,028
-410,598	28,856	0,110	-0,068
-409,584	243,515	0,101	0,123
-408,569	-129,081	0,034	-0,003
-407,555	87,567	-0,101	0,081
-406,540	-82,216	-0,096	0,023
-405,525	-1,821	-0,086	-0,044
-404,511	166,412	-0,081	-0,084
-403,496	-97,931	-0,079	-0,015
-402,482	370,715	0,056	-0,083
-401,467	-68,239	0,073	0,020
-400,452	109,288	0,129	-0,112
-399,438	20,958	0,058	0,034
-398,423	-60,925	0,016	0,005
-397,409	-5,309	-0,113	-0,056
-396,394	121,292	0,041	-0,037
-395,379	800,000	-0,029	0,066
-394,365	14,142	0,099	0,056
-393,350	-39,742	-0,176	0,066
-392,336	-133,937	0,020	-0,002
-391,321	-190,145	-0,057	0,000
-390,306	-158,469	-0,029	0,001
-389,292	800,000	0,062	-0,183
-388,277	-97,354	-0,090	-0,017
-387,263	528,302	0,015	0,026
-386,248	-77,491	-0,047	-0,012
-385,233	0,943	-0,130	0,067
-384,219	-57,653	0,200	0,063
-383,204	-200,000	-0,001	-0,035
-382,190	-156,345	-0,071	0,003
-381,175	194,934	0,055	0,060
-380,160	-200,000	-0,011	-0,097
-379,146	-149,325	0,072	0,004
-378,131	800,000	0,052	0,115
-377,117	81,615	0,075	-0,059
-376,102	-200,000	-0,012	0,065
-375,088	-200,000	-0,031	-0,135
-374,073	-200,000	0,004	-0,114
-373,058	-10,456	-0,123	-0,059
-372,044	143,542	0,082	0,080
-371,029	800,000	0,034	0,086
-370,015	208,933	-0,080	0,091
-369,000	-200,000	0,021	0,089
-367,985	3,211	-0,115	0,061
-366,971	347,923	-0,040	-0,057
-365,956	142,524	0,035	0,034
-364,942	220,153	-0,048	0,056
-363,927	190,889	-0,079	0,086
-362,912	-144,944	0,101	-0,007
-361,898	-200,000	0,005	0,110
-360,883	6,704	0,076	0,041
-359,869	800,000	0,040	0,120
-358,854	-200,000	-0,016	-0,173
-357,839	216,023	0,059	0,068
-356,825	-200,000	0,004	-0,066
-355,810	-200,000	-0,007	-0,061
-354,796	-87,508	-0,092	-0,020
-353,781	-200,000	0,013	-0,111
-352,766	56,076	-0,105	-0,073
-351,752	800,000	0,007	0,019
-350,737	-200,000	0,009	0,125
-349,723	-108,923	0,070	-0,011
-348,708	800,000	0,059	0,158
-347,693	800,000	-0,024	0,070
-346,679	800,000	0,023	-0,047
-345,664	-200,000	0,020	0,112
-344,650	-200,000	-0,021	0,093
-343,635	220,123	0,033	0,039
-342,620	-155,015	0,026	0,001
-341,606	800,000	0,005	-0,013
-340,591	-200,000	0,022	-0,099
-339,577	429,006	-0,108	-0,169
-338,562	204,099	0,108	-0,122
-337,548	-200,000	0,014	-0,151
-336,533	-200,000	0,037	0,129
-335,518	-135,377	0,052	-0,004
-334,504	367,679	-0,073	0,106
-333,489	19,742	-0,084	0,049
-332,475	-200,000	0,001	-0,072
-331,460	504,982	0,067	-0,113
-330,445	-200,000	0,001	-0,098
-329,431	-200,000	0,011	0,145
-328,416	800,000	0,043	0,120
-327,402	-200,000	0,016	0,122
-326,387	800,000	-0,009	-0,026
-325,372	76,149	0,014	0,011
-324,358	-200,000	-0,028	0,147
-323,343	494,990	-0,025	-0,041
-322,329	-80,060	0,163	-0,039
-321,314	-173,928	0,165	-0,003
-320,299	718,278	-0,037	0,071
-319,285	723,427	0,023	-0,044
-318,270	-11,408	-0,089	0,042
-317,256	-112,272	0,035	-0,005
-316,241	800,000	0,042	-0,116
-315,226	41,978	-0,099	-0,065
-314,212	-98,737	0,073	-0,013
-313,197	-112,673	-0,066	0,009
-312,183	-178,702	-0,140	-0,002
-311,168	652,602	-0,016	-0,030
-310,153	-55,465	0,071	-0,023
-309,139	-38,558	-0,090	0,034
-308,124	440,500	-0,039	-0,062
-307,110	-200,000	-0,000	0,012
-306,095	55,461	0,155	0,108
-305,080	800,000	-0,043	0,089
-304,066	329,965	-0,090	-0,125
-303,051	217,776	-0,067	0,077
-302,037	370,572	-0,082	0,121
-301,022	-200,000	0,004	-0,046
-300,008	-132,807	0,109	-0,010
-298,993	374,224	-0,011	0,016
-297,978	-45,296	0,105	0,038
-296,964	-200,000	-0,004	0,065
-295,949	-104,402	0,142	-0,024
-294,935	11,452	0,145	-0,080
-293,920	-200,000	0,012	0,089
-292,905	-200,000	0,044	-0,166
-291,891	800,000	0,049	0,109
-290,876	800,000	0,012	0,026
-289,862	274,515	0,104	0,133
-288,847	-138,763	0,084	-0,007
-287,832	26,420	-0,033	-0,020
-286,818	-136,543	0,102	0,008
-285,803	-88,921	-0,221	0,047
-284,789	-74,102	0,096	0,025
-283,774	-200,000	0,019	0,078
-282,759	-200,000	0,004	0,052
-281,745	800,000	0,028	0,067
-280,730	123,095	-0,122	-0,111
-279,716	-93,891	0,146	-0,029
-278,701	228,890	0,034	0,040
-277,686	276,124	-0,081	-0,103
-276,672	62,781	-0,109	0,079
-275,657	800,000	-0,036	-0,073
-274,643	-119,461	-0,075	-0,009
-273,628	800,000	0,023	0,055
-272,613	239,290	-0,066	0,079
-271,599	144,950	0,087	0,084
-270,584	277,436	0,028	0,036
-269,570	117,664	-0,075	-0,067
-268,555	800,000	-0,015	-0,030
-267,540	2,697	-0,137	-0,072
-266,526	27,251	0,032	-0,019
-265,511	-200,000	-0,026	-0,158
-264,497	-200,000	0,024	0,110
-263,482	38,907	-0,088	-0,056
-262,467	-71,313	-0,083	-0,022
-261,453	72,707	0,056	-0,042
-260,438	800,000	0,016	0,038
-259,424	-98,308	-0,101	-0,019
-258,409	63,216	-0,107	-0,078
-257,395	521,885	0,027	0,047
-256,380	157,767	-0,026	-0,026
-255,365	800,000	-0,037	0,089
-254,351	800,000	-0,059	-0,131
-253,336	-56,741	0,003	0,001
-252,322	-114,016	-0,105	-0,015
-251,307	410,464	0,035	0,054
-250,292	479,439	0,056	-0,091
-249,278	62,345	0,225	0,162
-248,263	-143,552	-0,046	-0,003
-247,249	667,603	-0,015	-0,029
-246,234	111,489	-0,077	-0,067
-245,219	-200,000	-0,010	-0,066
-244,205	-84,881	-0,140	0,032
-243,190	-200,000	-0,010	-0,176
-242,176	-175,289	-0,088	-0,002
-241,161	-200,000	0,016	0,116
-240,146	152,253	-0,053	0,053
-239,132	800,000	-0,011	0,027
-238,117	-200,000	-0,005	-0,119
-237,103	320,601	-0,048	-0,065
-236,088	-62,154	0,061	-0,018
-235,073	-109,399	0,052	0,008
-234,059	35,566	0,086	0,054
-233,044	-134,759	-0,025	-0,002
-232,030	644,316	0,034	0,063
-231,015	-16,409	-0,032	0,014
-230,000	269,251	0,089	-0,113
-228,986	-85,190	-0,128	0,029
-227,971	398,580	-0,021	0,031
-226,957	-77,545	-0,091	-0,023
-225,942	396,740	0,050	0,076
-224,927	233,547	-0,058	0,069
-223,913	389,729	0,040	-0,059
-222,898	13,901	-0,026	0,015
-221,884	40,714	-0,041	0,027
-220,869	-200,000	0,002	-0,006
-219,855	108,784	-0,081	0,070
-218,840	14,938	0,094	-0,053
-217,825	-15,990	-0,094	0,043
-216,811	45,531	0,019	-0,013
-215,796	800,000	-0,065	-0,152
-214,782	217,017	-0,051	-0,059
-213,767	49,197	-0,074	0,050
-212,752	-56,906	0,114	0,036
-211,738	-200,000	-0,018	-0,078
-210,723	407,535	0,058	-0,088
-209,709	800,000	-0,024	-0,051
-208,694	-200,000	0,011	-0,085
-207,679	-200,000	-0,019	-0,090
-206,665	192,118	0,078	-0,085
-205,650	123,955	-0,046	-0,042
-204,636	554,341	0,043	-0,074
-203,621	-91,613	-0,035	0,007
-202,606	800,000	-0,022	0,068
-201,592	145,401	0,078	-0,075
-200,577	715,801	0,007	-0,013
-199,563	-200,000	-0,034	-0,120
-198,548	-89,630	0,074	-0,015
-197,533	645,092	0,094	-0,174
-196,519	800,000	-0,008	-0,017
-195,504	104,625	-0,126	0,107
-194,490	138,457	-0,016	0,016
-193,475	800,000	-0,031	0,063
-192,460	39,966	0,069	0,044
-191,446	16,173	0,112	-0,063
-190,431	22,466	0,101	0,059
-189,417	9,841	0,070	-0,038
-188,402	63,555	-0,127	-0,092
-187,387	278,804	-0,041	-0,052
-186,373	-200,000	0,028	-0,117
-185,358	-200,000	-0,008	-0,028
-184,344	-67,244	0,037	-0,010
-183,329	-183,211	0,115	0,001
-182,315	-200,000	-0,006	0,076
-181,300	-200,000	-0,007	0,147
-180,285	157,887	-0,071	-0,071
-179,271	77,895	-0,060	-0,046
-178,256	72,365	0,155	0,116
-177,242	316,693	0,049	0,067
-176,227	-200,000	-0,012	0,108
-175,212	57,843	-0,049	0,034
-174,198	258,933	-0,104	0,129
-173,183	323,365	0,030	-0,042
-172,169	6,262	-0,108	0,057
-171,154	365,943	-0,009	0,013
-170,139	275,485	0,037	0,047
-169,125	-3,693	0,180	0,089
-168,110	45,498	0,081	0,054
-167,096	-200,000	-0,000	0,128
-166,081	230,161	0,065	0,076
-165,066	-76,787	0,153	-0,038
-164,052	800,000	0,022	0,056
-163,037	652,034	-0,054	-0,100
-162,023	36,172	0,047	-0,030
-161,008	-96,722	0,194	0,036
-159,993	23,111	0,080	0,047
-158,979	255,152	-0,102	-0,125
-157,964	165,511	-0,093	0,094
-156,950	114,335	-0,060	-0,053
-155,935	-156,065	-0,039	0,002
-154,920	36,481	0,112	0,071
-153,906	456,886	0,034	0,054
-152,891	800,000	-0,043	0,103
-151,877	800,000	0,025	0,053
-150,862	-19,551	0,030	0,013
-149,847	800,000	0,037	0,098
-148,833	-53,642	-0,167	0,054
-147,818	293,903	-0,024	-0,032
-146,804	800,000	0,040	0,088
-145,789	800,000	-0,044	0,114
-144,775	-0,442	-0,074	0,037
-143,760	143,507	-0,032	-0,030
-142,745	171,009	0,035	0,036
-141,731	13,364	0,134	0,075
-140,716	219,314	-0,074	-0,086
-139,702	769,925	0,053	0,103
-138,687	-200,000	0,004	0,074
-137,672	-50,345	0,095	0,032
-136,658	-200,000	0,020	0,102
-135,643	-129,952	-0,039	0,004
-134,629	-200,000	-0,033	-0,156
-133,614	147,266	0,057	0,055
-132,599	800,000	-0,040	-0,095
-131,585	-4,415	0,131	-0,065
-130,570	-85,191	0,034	0,008
-129,556	190,973	0,066	0,071
-128,541	-200,000	-0,008	0,129
-127,526	-103,174	0,051	0,009
-126,512	667,480	0,030	0,055
-125,497	800,000	-0,066	-0,152
-124,483	-0,697	-0,064	0,033
-123,468	-88,014	0,078	0,017
-122,453	49,538	-0,067	-0,045
-121,439	-200,000	0,014	-0,078
-120,424	-200,000	0,023	-0,134
-119,410	44,812	0,060	-0,040
-118,395	-200,000	0,004	0,043
-117,380	42,071	0,021	0,014
-116,366	-129,710	0,010	0,001
-115,351	800,000	0,031	0,088
-114,337	72,974	-0,077	-0,058
-113,322	315,740	0,042	0,058
-112,307	-103,625	-0,038	-0,006
-111,293	-200,000	0,001	0,017
-110,278	43,772	0,068	0,045
-109,264	5,727	-0,063	0,033
-108,249	-11,391	0,125	-0,059
-107,234	-6,391	-0,085	-0,041
-106,220	121,730	-0,082	-0,073
-105,205	25,261	0,059	0,035
-104,191	533,580	0,111	0,189
-103,176	18,168	0,083	-0,048
-102,162	-155,919	-0,078	0,003
-101,147	609,825	0,053	-0,096
-100,132	30,338	-0,144	-0,088
-99,118	-59,646	-0,135	-0,041
-98,103	13,058	-0,033	0,018
-97,089	25,609	0,086	-0,051
-96,074	-200,000	0,026	0,100
-95,059	6,730	-0,043	0,023
-94,045	564,644	0,053	-0,093
-93,030	29,193	0,118	-0,072
-92,016	-200,000	0,017	-0,175
-91,001	-108,965	0,114	-0,017
-89,986	-77,075	0,045	-0,011
-88,972	-200,000	0,001	-0,013
-87,957	422,525	-0,022	-0,035
-86,943	27,087	-0,013	-0,008
-85,928	-7,631	-0,139	-0,067
-84,913	-59,045	-0,129	-0,040
-83,899	-200,000	0,019	0,067
-82,884	60,747	0,042	0,030
-81,870	625,564	-0,023	-0,041
-80,855	-200,000	-0,008	0,079
-79,840	-107,932	0,124	0,019
-78,826	-44,251	0,108	0,038
-77,811	166,482	-0,049	0,050
-76,797	9,399	0,130	0,070
-75,782	-200,000	0,000	-0,075
-74,767	432,797	-0,068	0,106
-73,753	-196,719	0,075	0,000
-72,738	-144,388	-0,031	-0,002
-71,724	800,000	-0,049	0,112
-70,709	-200,000	-0,036	-0,143
-69,694	362,477	-0,071	-0,103
-68,680	-156,460	-0,051	-0,002
-67,665	-15,649	0,137	-0,062
-66,651	111,494	0,054	-0,047
-65,636	187,584	-0,046	-0,050
-64,622	-200,000	0,012	-0,107
-63,607	-50,256	-0,112	-0,038
-62,592	80,722	-0,057	-0,044
-61,578	-200,000	0,038	-0,144
-60,563	-94,494	-0,160	0,031
-59,549	119,923	-0,138	0,123
-58,534	8,066	-2,206	-1,182
-57,519	-200,000	-0,120	-0,727
-56,505	-200,000	-1,412	-5,255
-55,490	108,473	0,746	0,637
-54,476	800,000	5,442	12,254
-53,461	-200,000	18,634	317,579
-52,446	800,000	740,134	2329,022
-51,432	556,118	1656,168	2866,897
-50,417	110,769	1640,427	1412,493
-49,403	74,240	1290,605	969,229
-48,388	29,990	1031,005	627,739
-47,373	19,783	993,624	571,222
-46,359	17,280	981,320	555,900
-45,344	13,905	977,612	542,698
-44,330	14,201	976,089	542,805
-43,315	13,658	973,941	539,809
-42,300	13,547	973,064	538,937
-41,286	13,564	971,887	538,321
-40,271	13,564	971,120	537,876
-39,257	13,556	970,209	537,322
-38,242	13,590	969,317	536,919
-37,227	13,580	968,453	536,386
-36,213	13,606	967,573	535,961
-35,198	13,514	966,707	535,161
-34,184	13,556	965,968	534,869
-33,169	13,508	964,898	534,099
-32,154	13,659	963,872	533,997
-31,140	13,583	963,104	533,304
-30,125	13,601	962,358	532,929
-29,111	13,591	961,569	532,441
-28,096	13,564	960,978	532,002
-27,082	13,544	960,267	531,525
-26,067	13,580	959,525	531,210
-25,052	13,570	958,722	530,713
-24,038	13,551	958,215	530,347
-23,023	13,570	957,475	529,978
-22,009	13,582	957,000	529,732
-20,994	13,581	956,234	529,286
-19,979	13,608	955,452	528,919
-18,965	13,569	954,913	528,475
-17,950	13,606	954,362	528,266
-16,936	13,584	953,623	527,764
-15,921	13,524	952,926	527,166
-14,906	13,477	952,208	526,598
-13,892	13,448	951,781	526,249
-12,877	13,446	951,026	525,804
-11,863	13,504	950,240	525,533
-10,848	13,487	949,690	525,153
-9,833	13,506	949,326	524,993
-8,819	13,541	948,564	524,662
-7,804	13,495	947,941	524,149
-6,790	13,446	947,636	523,805
-5,775	13,508	946,862	523,552
-4,760	13,563	946,208	523,344
-3,746	13,494	945,738	522,845
-2,731	13,341	945,035	521,950
-1,717	13,335	944,208	521,454
-0,702	13,283	943,581	520,923
0,313	13,077	943,078	520,779
1,327	16,583	940,465	530,363
2,342	25,959	794,636	472,951
3,356	22,480	458,493	267,554
4,371	-4,489	315,549	155,416
5,386	-8,372	297,504	142,577
6,400	-10,235	291,299	137,738
7,415	-11,070	288,778	135,710
8,429	-11,493	287,167	134,525
9,444	-11,351	286,073	134,140
10,459	-11,405	285,440	133,779
11,473	-11,547	284,784	133,321
12,488	-11,314	284,418	133,364
13,502	-11,453	283,867	132,960
14,517	-11,401	283,275	132,720
15,531	-11,553	282,901	132,387
16,546	-11,614	282,621	132,185
17,561	-11,527	282,099	132,013
18,575	-11,555	281,874	131,868
19,590	-11,451	281,358	131,716
20,604	-11,386	281,183	131,685
21,619	-11,680	280,767	131,196
22,634	-11,519	280,426	131,179
23,648	-11,620	280,224	130,976
24,663	-11,558	279,756	130,805
25,677	-11,374	279,617	130,904
26,692	-11,636	279,546	130,610
27,707	-11,619	279,059	130,387
28,721	-11,616	278,907	130,307
29,736	-11,458	278,470	130,241
30,750	-11,557	278,195	130,007
31,765	-11,423	278,020	130,040
32,780	-11,717	277,789	129,642
33,794	-11,765	277,653	129,522
34,809	-11,535	277,175	129,505
35,823	-11,486	276,956	129,437
36,838	-11,669	276,875	129,214
37,853	-11,648	276,519	129,057
38,867	-11,602	276,133	128,908
39,882	-11,583	275,835	128,776
40,896	-11,568	275,635	128,685
41,911	-11,585	275,491	128,591
42,926	-11,559	275,216	128,475
43,940	-11,553	275,078	128,405
44,955	-11,527	274,852	128,312
45,969	-11,554	274,512	128,116
46,984	-11,613	274,327	127,964
47,999	-11,571	274,073	127,873
49,013	-11,767	273,872	127,585
50,028	-11,846	273,730	127,434
51,042	-11,720	273,363	127,369
52,057	-11,895	273,140	127,091
53,071	-11,831	272,920	127,037
54,086	-11,691	272,777	127,089
55,101	-11,762	272,570	126,915
56,115	-11,756	272,317	126,792
57,130	-11,512	272,147	126,927
58,144	-11,580	271,803	126,693
59,159	-11,397	271,613	126,762
60,174	-11,431	271,278	126,563
61,188	-11,433	271,192	126,509
62,203	-11,431	270,902	126,365
63,217	-11,534	270,803	126,212
64,232	-11,394	270,533	126,204
65,247	-11,350	270,164	126,061
66,261	-11,428	269,975	125,890
67,276	-11,498	269,818	125,741
68,290	-11,715	269,634	125,446
69,305	-11,597	269,436	125,451
70,320	-11,606	269,145	125,295
71,334	-11,487	268,888	125,273
72,349	-11,289	268,659	125,336
73,363	-11,407	268,496	125,141
74,378	-11,651	268,272	124,803
75,393	-11,360	267,848	124,860
76,407	-11,451	267,826	124,755
77,422	-11,451	267,403	124,548
78,436	-11,493	267,320	124,460
79,451	-11,489	267,100	124,350
80,466	-11,477	266,707	124,166
81,480	-11,578	266,568	123,999
82,495	-11,656	266,575	123,921
83,509	-11,709	266,339	123,752
84,524	-11,537	266,123	123,797
85,539	-11,593	265,805	123,587
86,553	-11,578	265,567	123,478
87,568	-11,456	265,398	123,499
88,582	-11,580	265,198	123,284
89,597	-11,581	265,006	123,182
90,611	-11,574	264,803	123,083
91,626	-11,556	264,627	123,007
92,641	-11,486	264,357	122,933
93,655	-11,527	264,166	122,796
94,670	-11,609	263,979	122,625
95,684	-11,510	263,688	122,567
96,699	-11,762	263,698	122,336
97,714	-11,407	263,347	122,479
98,728	-11,599	263,130	122,196
99,743	-11,570	263,012	122,156
100,757	-11,692	262,858	121,965
101,772	-11,519	262,448	121,918
102,787	-11,612	262,412	121,807
103,801	-11,557	262,087	121,695
104,816	-11,445	262,046	121,764
105,830	-11,230	261,764	121,813
106,845	-11,520	261,678	121,505
107,860	-11,564	261,473	121,360
108,874	-11,557	261,254	121,253
109,889	-11,425	260,990	121,237
110,903	-11,411	260,741	121,123
111,918	-11,408	260,685	121,089
112,933	-11,380	260,568	121,048
113,947	-11,357	260,235	120,903
114,962	-11,488	260,052	120,691
115,976	-11,422	259,779	120,613
116,991	-11,610	259,763	120,429
118,006	-11,570	259,367	120,270
119,020	-11,310	259,282	120,448
120,035	-11,433	259,165	120,275
121,049	-11,528	259,041	120,123
122,064	-11,391	258,828	120,134
123,079	-11,374	258,565	120,016
124,093	-11,493	258,367	119,809
125,108	-11,270	258,011	119,827
126,122	-11,375	257,878	119,664
127,137	-11,560	257,649	119,386
128,151	-11,532	257,497	119,329
129,166	-11,525	257,453	119,304
130,181	-11,528	257,243	119,194
131,195	-11,553	257,029	119,063
132,210	-11,458	256,710	118,986
133,224	-11,407	256,645	118,990
134,239	-11,446	256,592	118,921
135,254	-11,328	256,146	118,806
136,268	-11,231	255,997	118,809
137,283	-11,536	255,839	118,462
138,297	-11,530	255,697	118,391
139,312	-11,621	255,459	118,192
140,327	-11,641	255,313	118,096
141,341	-11,386	255,180	118,244
142,356	-11,462	254,998	118,084
143,370	-11,297	254,665	118,061
144,385	-11,240	254,442	117,996
145,400	-11,399	254,356	117,809
146,414	-11,421	254,140	117,679
147,429	-11,493	253,989	117,537
148,443	-11,377	253,736	117,509
149,458	-11,436	253,659	117,413
150,473	-11,375	253,373	117,322
151,487	-11,390	253,229	117,232
152,502	-11,261	253,069	117,258
153,516	-11,436	253,041	117,085
154,531	-11,356	252,749	117,008
155,546	-11,482	252,480	116,766
156,560	-11,415	252,385	116,768
157,575	-11,369	252,085	116,658
158,589	-11,419	252,034	116,581
159,604	-11,475	251,710	116,374
160,619	-11,227	251,565	116,507
161,633	-11,146	251,269	116,427
162,648	-11,515	251,264	116,102
163,662	-11,251	251,039	116,211
164,677	-11,377	250,989	116,072
165,692	-11,504	250,798	115,865
166,706	-11,097	250,597	116,105
167,721	-11,285	250,352	115,824
168,735	-11,182	250,234	115,845
169,750	-11,178	250,012	115,736
170,764	-11,147	249,930	115,713
171,779	-11,289	249,751	115,500
172,794	-11,248	249,591	115,450
173,808	-11,490	249,563	115,224
174,823	-11,370	249,192	115,144
175,837	-11,588	248,903	114,817
176,852	-11,358	248,896	114,996
177,867	-11,479	248,881	114,877
178,881	-11,352	248,468	114,783
179,896	-11,459	248,555	114,723
180,910	-11,111	248,059	114,774
181,925	-11,234	248,079	114,671
182,940	-11,020	247,743	114,683
183,954	-11,076	247,662	114,589
184,969	-11,316	247,586	114,344
185,983	-11,119	247,412	114,417
186,998	-10,829	247,163	114,534
188,013	-11,274	246,936	114,048
189,027	-11,236	246,798	114,006
190,042	-11,241	246,757	113,972
191,056	-11,161	246,492	113,907
192,071	-11,168	246,204	113,757
193,086	-11,304	246,185	113,625
194,100	-11,306	246,031	113,543
195,115	-11,161	245,768	113,531
196,129	-11,284	245,736	113,405
197,144	-11,361	245,396	113,174
198,159	-11,317	245,133	113,080
199,173	-11,225	245,058	113,110
200,188	-11,091	244,827	113,104
201,202	-11,247	244,687	112,901
202,217	-11,331	244,351	112,667
203,232	-11,370	244,182	112,547
204,246	-10,825	244,248	113,014
205,261	-10,143	244,350	113,610
206,275	-10,068	244,351	113,662
207,290	-8,317	244,825	115,310
208,304	-5,528	245,682	117,999
209,319	-3,327	246,087	119,995
210,334	-2,540	246,337	120,754
211,348	-1,644	246,331	121,477
212,363	-1,208	246,552	121,935
213,377	-0,684	246,508	122,333
214,392	-0,637	246,378	122,296
215,407	-0,636	246,305	122,249
216,421	-0,620	246,043	122,122
217,436	-0,474	245,882	122,150
218,450	-0,648	245,594	121,854
219,465	-0,568	245,468	121,846
220,480	-0,520	245,475	121,878
221,494	-0,654	245,319	121,680
222,509	-0,657	244,930	121,474
223,523	-0,633	244,812	121,424
224,538	-0,800	244,664	121,204
225,553	-0,874	244,453	121,029
226,567	-0,630	244,274	121,127
227,582	-0,829	244,254	120,945
228,596	-0,982	244,187	120,776
229,611	-0,746	243,974	120,852
230,626	-0,700	243,811	120,798
231,640	-0,779	243,581	120,609
232,655	-0,770	243,448	120,539
233,669	-0,609	243,170	120,522
234,684	-0,837	243,144	120,313
235,699	-0,747	242,912	120,261
236,713	-0,651	242,713	120,229
237,728	-0,676	242,519	120,102
238,742	-0,681	242,367	120,012
239,757	-0,594	242,201	119,990
240,772	-0,604	241,991	119,866
241,786	-0,742	241,993	119,746
242,801	-0,818	241,790	119,573
243,815	-0,594	241,700	119,698
244,830	-0,600	241,407	119,538
245,844	-0,537	241,240	119,495
246,859	-0,731	241,118	119,268
247,874	-0,698	240,975	119,213
248,888	-0,710	240,754	119,084
249,903	-0,737	240,590	118,971
250,917	-0,672	240,472	118,954
251,932	-0,742	240,442	118,872
252,947	-0,666	240,144	118,774
253,961	-0,686	239,989	118,672
254,976	-0,647	239,879	118,638
255,990	-0,768	239,627	118,406
257,005	-0,821	239,570	118,325
258,020	-0,581	239,365	118,405
259,034	-0,693	239,169	118,208
260,049	-0,646	239,160	118,230
261,063	-0,567	238,914	118,161
262,078	-0,601	238,636	117,986
263,093	-0,603	238,638	117,975
264,107	-0,801	238,417	117,698
265,122	-0,731	238,436	117,753
266,136	-0,675	238,185	117,662
267,151	-0,652	238,111	117,633
268,166	-0,617	237,856	117,525
269,180	-0,770	237,674	117,303
270,195	-0,751	237,601	117,272
271,209	-0,527	237,373	117,325
272,224	-0,618	237,271	117,193
273,239	-0,696	237,178	117,075
274,253	-0,844	237,124	116,922
275,268	-0,693	236,898	116,918
276,282	-0,611	236,422	116,737
277,297	-0,856	236,484	116,565
278,312	-0,415	236,264	116,792
279,326	-0,853	236,299	116,456
280,341	-0,569	236,062	116,551
281,355	-0,766	236,004	116,358
282,370	-0,525	235,774	116,422
283,384	-0,527	235,563	116,306
284,399	-0,547	235,457	116,228
285,414	-0,497	235,277	116,167
286,428	-0,676	235,161	115,961
287,443	-0,558	235,029	115,977
288,457	-0,452	234,829	115,950
289,472	-0,500	234,710	115,844
290,487	-0,507	234,585	115,767
291,501	-0,608	234,458	115,615
292,516	-0,501	234,237	115,579
293,530	-0,832	234,339	115,362
294,545	-0,620	234,077	115,387
295,560	-0,473	233,926	115,416
296,574	-0,363	233,625	115,342
297,589	-0,752	233,608	115,023
298,603	-0,482	233,344	115,092
299,618	-0,446	233,181	115,028
300,633	-0,577	233,154	114,904
301,647	-0,328	232,814	114,918
302,662	-0,489	232,804	114,779
303,676	-0,468	232,697	114,732
304,691	-0,295	232,476	114,746
305,706	-0,537	232,351	114,487
306,720	-0,583	232,250	114,392
307,735	-0,585	232,137	114,325
308,749	-0,291	231,854	114,401
309,764	-0,400	231,785	114,273
310,779	-0,325	231,525	114,192
311,793	-0,196	231,466	114,252
312,808	-0,498	231,296	113,927
313,822	-0,419	231,176	113,918
314,837	-0,304	230,988	113,902
315,852	-0,360	230,841	113,777
316,866	-0,531	230,920	113,675
317,881	-0,263	230,506	113,666
318,895	-0,425	230,247	113,404
319,910	-0,509	230,205	113,310
320,925	-0,430	230,030	113,274
321,939	-0,305	229,956	113,322
322,954	-0,237	229,783	113,278
323,968	-0,515	229,811	113,071
324,983	-0,303	229,617	113,126
325,997	-0,120	229,368	113,132
327,012	-0,349	229,223	112,878
328,027	-0,158	229,147	112,974
329,041	-0,187	228,986	112,863
330,056	-0,284	228,813	112,695
331,070	-0,263	228,781	112,684
332,085	-0,162	228,370	112,548
333,100	-0,296	228,382	112,443
334,114	-0,144	228,169	112,443
335,129	0,074	227,901	112,464
336,143	-0,030	227,803	112,328
337,158	0,026	227,812	112,365
338,173	-0,034	227,654	112,231
339,187	-0,339	227,621	111,976
340,202	0,036	227,417	112,147
341,216	-0,065	227,348	112,027
342,231	-0,220	227,129	111,793
343,246	-0,177	226,980	111,742
344,260	-0,116	226,857	111,717
345,275	-0,077	226,816	111,716
346,289	-0,078	226,674	111,636
347,304	-0,204	226,625	111,507
348,319	-0,114	226,273	111,391
349,333	0,027	226,056	111,380
350,348	-0,170	226,028	111,209
351,362	-0,226	225,768	111,030
352,377	-0,141	225,811	111,104
353,392	0,051	225,528	111,097
354,406	0,405	225,409	111,292
355,421	196,062	1317,644	1392,266
356,435	157,179	1450,683	1392,225
