DTS Sentinel unit serial number:	SN410029Multiplexer serial number:	ORYXHardware model number:	OX2-SRSoftware version number:	ORYX F/W v4,00 Oryx Data Collector v3.7.2.0data status	okinstallation	B5 Nyhavnadifferential loss correction	single-endedforward channel	channel 2reverse channel	N/Adate	2023/12/14time	07:52:13forward acquisition time	300,00reverse acquisition time	0,00gamma	499,1914k internal	0,3159k external	0,3159temperature offset calibration	1,0000default loss term (dB/km)	0,3820temperature slope calibration	1,0000multiplexer offset coefficient	1,0000multiplexer slope coefficient	1,0000fibre end	0,00T internal ref (°C)	7,07T ext. ref 1 (°C)	-9,25T ext. ref 2 (°C)	-9,32length (m)	temperature (°C)	Stokes	anti-Stokes-744,400	-31,925	0,140	-0,058
-743,385	-69,962	-0,420	-0,117
-742,371	17,748	0,227	0,133
-741,356	-54,683	-0,447	-0,148
-740,342	190,294	0,112	0,124
-739,327	-121,499	-0,463	-0,056
-738,312	-57,302	0,190	0,061
-737,298	-106,652	-0,557	-0,090
-736,283	458,196	0,130	0,213
-735,269	-81,511	-0,459	-0,110
-734,254	-118,441	0,272	0,035
-733,239	-33,567	-0,656	-0,266
-732,225	264,962	0,123	0,158
-731,210	12,059	0,067	0,038
-730,196	-200,000	0,004	-0,073
-729,181	31,482	-0,121	-0,077
-728,167	89,941	-0,049	-0,040
-727,152	-200,000	-0,003	-0,125
-726,137	139,554	-0,068	-0,066
-725,123	116,745	-0,031	-0,028
-724,108	800,000	0,037	-0,093
-723,094	-92,979	-0,168	0,034
-722,079	800,000	0,039	-0,088
-721,064	-88,465	0,093	0,020
-720,050	441,667	-0,036	0,059
-719,035	31,321	0,151	-0,095
-718,021	-200,000	-0,013	-0,066
-717,006	-53,379	-0,053	0,018
-715,991	-200,000	-0,000	-0,024
-714,977	-200,000	0,009	0,038
-713,962	363,272	-0,085	0,126
-712,948	355,057	-0,075	0,110
-711,933	-83,910	0,057	-0,013
-710,918	-163,362	-0,064	0,002
-709,904	412,380	0,022	-0,034
-708,889	-5,253	-0,098	0,050
-707,875	-200,000	0,002	-0,206
-706,860	49,782	-0,075	-0,052
-705,845	-111,848	0,120	0,018
-704,831	14,405	-0,031	-0,018
-703,816	154,921	-0,064	-0,065
-702,802	44,722	-0,028	-0,019
-701,787	-126,155	-0,087	-0,009
-700,772	800,000	0,052	-0,115
-699,758	-200,000	-0,013	-0,056
-698,743	94,547	0,037	-0,031
-697,729	1,217	-0,032	0,017
-696,714	671,814	-0,037	-0,071
-695,699	31,065	-0,097	-0,061
-694,685	359,679	-0,073	-0,108
-693,670	-200,000	-0,001	-0,008
-692,656	-125,011	-0,031	0,004
-691,641	-115,538	-0,036	0,005
-690,627	198,881	0,034	-0,038
-689,612	-62,415	0,064	-0,019
-688,597	225,377	0,037	-0,044
-687,583	168,683	-0,051	-0,054
-686,568	-200,000	0,011	-0,086
-685,554	192,055	-0,088	-0,097
-684,539	-55,721	0,062	0,020
-683,524	-65,430	0,025	0,007
-682,510	530,726	0,104	0,182
-681,495	-200,000	-0,012	-0,096
-680,481	73,549	0,009	-0,007
-679,466	-123,296	-0,116	0,013
-678,451	-200,000	0,014	0,100
-677,437	-91,377	-0,090	-0,019
-676,422	-177,968	0,155	-0,003
-675,408	-200,000	-0,020	0,080
-674,393	99,534	0,075	-0,064
-673,378	-200,000	-0,004	-0,024
-672,364	-16,152	-0,036	-0,017
-671,349	-13,816	-0,097	-0,046
-670,335	25,008	-0,068	-0,041
-669,320	-200,000	0,031	-0,140
-668,305	800,000	0,052	-0,107
-667,291	-200,000	-0,001	-0,025
-666,276	57,866	0,123	-0,089
-665,262	169,168	-0,106	-0,111
-664,247	270,192	-0,073	-0,094
-663,232	290,441	-0,025	-0,034
-662,218	-30,723	0,071	0,029
-661,203	32,513	-0,053	0,033
-660,189	-80,829	-0,039	0,009
-659,174	151,368	-0,040	-0,040
-658,159	-80,397	-0,104	0,025
-657,145	258,891	0,065	-0,082
-656,130	175,120	0,012	0,012
-655,116	-200,000	-0,000	-0,071
-654,101	65,248	0,033	-0,025
-653,086	2,080	0,040	-0,021
-652,072	-200,000	0,022	-0,093
-651,057	259,521	-0,016	-0,021
-650,043	-200,000	0,041	-0,141
-649,028	-200,000	0,007	-0,050
-648,014	-39,465	-0,076	0,029
-646,999	65,395	0,031	0,023
-645,984	-34,265	0,165	-0,066
-644,970	16,345	-0,119	-0,069
-643,955	276,901	-0,013	0,017
-642,941	-200,000	0,053	-0,180
-641,926	-120,308	-0,029	0,004
-640,911	-48,572	-0,100	-0,035
-639,897	-200,000	-0,023	0,112
-638,882	171,878	-0,056	0,059
-637,868	522,835	0,020	-0,035
-636,853	-200,000	0,017	-0,204
-635,838	800,000	0,037	-0,080
-634,824	-22,498	0,119	0,052
-633,809	-8,542	0,021	-0,010
-632,795	28,321	0,043	-0,027
-631,780	-77,525	0,111	0,028
-630,765	-199,214	0,092	0,000
-629,751	-79,140	-0,097	-0,024
-628,736	100,980	-0,166	-0,141
-627,722	95,623	-0,081	0,067
-626,707	445,123	0,070	-0,113
-625,692	-200,000	-0,022	0,176
-624,678	-200,000	0,007	-0,064
-623,663	-200,000	0,038	0,146
-622,649	639,090	0,040	-0,075
-621,634	-200,000	-0,025	-0,151
-620,619	761,883	0,059	0,117
-619,605	-200,000	-0,054	0,189
-618,590	800,000	-0,067	0,179
-617,576	-33,834	-0,128	0,052
-616,561	800,000	-0,029	0,066
-615,546	-48,944	0,131	-0,046
-614,532	800,000	0,042	-0,115
-613,517	-14,257	-0,179	-0,084
-612,503	-200,000	0,029	0,163
-611,488	-200,000	0,005	0,094
-610,474	-118,931	-0,030	-0,004
-609,459	122,477	0,076	-0,070
-608,444	-200,000	-0,011	-0,043
-607,430	800,000	-0,021	-0,065
-606,415	160,804	0,015	-0,015
-605,401	-21,037	-0,063	-0,028
-604,386	32,961	0,101	0,064
-603,371	-62,296	0,146	0,044
-602,357	-102,770	0,048	-0,008
-601,342	-200,000	-0,000	-0,178
-600,328	107,006	-0,124	-0,108
-599,313	100,254	0,093	-0,079
-598,298	800,000	-0,041	-0,109
-597,284	-52,948	0,175	-0,059
-596,269	-21,383	-0,072	-0,032
-595,255	-200,000	-0,019	-0,089
-594,240	259,078	-0,053	0,068
-593,225	571,460	0,028	0,051
-592,211	-21,268	-0,145	0,065
-591,196	-82,004	-0,055	0,013
-590,182	62,382	0,060	-0,043
-589,167	177,938	-0,079	0,085
-588,152	800,000	0,038	0,094
-587,138	-118,524	-0,048	-0,006
-586,123	800,000	-0,049	-0,115
-585,109	800,000	-0,042	0,127
-584,094	-24,688	-0,036	0,016
-583,079	345,363	0,043	-0,062
-582,065	31,081	0,140	0,088
-581,050	-64,129	-0,102	-0,030
-580,036	-102,592	-0,083	-0,014
-579,021	-63,524	-0,070	0,021
-578,006	-200,000	0,022	0,115
-576,992	800,000	-0,009	0,026
-575,977	-200,000	0,017	0,077
-574,963	131,744	0,086	0,081
-573,948	15,055	0,127	-0,073
-572,934	-200,000	0,005	-0,092
-571,919	417,798	-0,148	-0,233
-570,904	306,081	0,080	-0,109
-569,890	800,000	-0,031	-0,080
-568,875	4,555	0,089	-0,048
-567,861	-67,975	0,163	0,046
-566,846	-87,431	0,030	0,007
-565,831	-86,074	-0,030	0,007
-564,817	-46,453	-0,109	-0,039
-563,802	-200,000	-0,020	-0,067
-562,788	-200,000	-0,000	0,070
-561,773	156,570	-0,075	0,076
-560,758	-117,727	-0,113	-0,015
-559,744	-67,851	-0,050	0,014
-558,729	40,899	-0,111	0,073
-557,715	-200,000	-0,016	0,125
-556,700	-68,313	-0,055	-0,016
-555,685	-200,000	0,000	0,071
-554,671	-200,000	-0,027	0,119
-553,656	69,162	0,100	0,075
-552,642	80,190	0,044	-0,035
-551,627	-94,427	0,052	-0,010
-550,612	352,158	0,053	-0,077
-549,598	283,314	-0,071	-0,093
-548,583	481,899	-0,011	0,018
-547,569	800,000	-0,040	0,106
-546,554	-200,000	-0,001	-0,039
-545,539	22,158	0,086	0,051
-544,525	223,543	-0,054	0,063
-543,510	53,117	0,063	-0,044
-542,496	-16,691	-0,143	-0,066
-541,481	-173,582	0,059	-0,001
-540,466	800,000	0,039	0,088
-539,452	800,000	-0,008	0,021
-538,437	800,000	-0,032	0,069
-537,423	-177,360	-0,042	-0,001
-536,408	-84,905	-0,047	-0,011
-535,393	66,392	0,099	-0,074
-534,379	-200,000	-0,006	0,039
-533,364	-101,175	0,036	0,006
-532,350	299,947	-0,075	0,101
-531,335	89,239	0,115	-0,094
-530,321	-50,585	0,042	0,015
-529,306	482,267	-0,025	0,041
-528,291	-71,271	-0,170	-0,046
-527,277	800,000	0,004	0,009
-526,262	800,000	-0,045	-0,105
-525,248	115,166	-0,088	-0,078
-524,233	259,947	0,034	-0,043
-523,218	-65,509	-0,090	0,026
-522,204	369,397	0,027	-0,040
-521,189	633,004	-0,052	-0,096
-520,175	-200,000	-0,011	0,040
-519,160	-200,000	-0,008	-0,142
-518,145	12,534	-0,089	-0,050
-517,131	25,245	-0,071	0,043
-516,116	-100,332	-0,070	-0,013
-515,102	-98,377	-0,120	-0,022
-514,087	647,405	-0,061	0,114
-513,072	174,371	-0,041	0,043
-512,058	303,020	0,033	-0,045
-511,043	-156,965	0,106	0,005
-510,029	-200,000	0,002	-0,035
-509,014	-76,298	-0,022	0,006
-507,999	20,248	0,072	-0,042
-506,985	-67,930	-0,039	0,011
-505,970	240,924	0,113	-0,137
-504,956	189,715	-0,065	0,071
-503,941	180,810	-0,093	-0,100
-502,926	656,841	-0,032	0,060
-501,912	35,172	-0,027	0,018
-500,897	-122,631	-0,086	-0,010
-499,883	90,137	0,067	0,054
-498,868	30,211	-0,067	-0,042
-497,853	-136,703	-0,178	-0,015
-496,839	-178,982	0,257	0,004
-495,824	745,571	-0,027	0,053
-494,810	-200,000	0,007	0,077
-493,795	-200,000	0,001	0,041
-492,781	-149,093	-0,073	0,004
-491,766	372,045	0,065	0,097
-490,751	48,032	-0,164	0,111
-489,737	-200,000	0,008	0,131
-488,722	-200,000	0,027	-0,091
-487,708	-200,000	0,020	-0,069
-486,693	-200,000	-0,022	0,159
-485,678	-79,076	0,072	0,018
-484,664	95,771	-0,094	-0,078
-483,649	8,778	-0,126	-0,069
-482,635	-200,000	0,003	0,066
-481,620	-37,814	0,177	0,068
-480,605	208,541	-0,010	0,011
-479,591	-200,000	-0,027	0,087
-478,576	748,062	-0,052	0,102
-477,562	-200,000	0,018	-0,084
-476,547	102,490	-0,027	0,023
-475,532	346,604	0,046	-0,067
-474,518	668,887	-0,021	-0,040
-473,503	176,119	0,074	0,078
-472,489	-120,900	0,069	-0,008
-471,474	253,148	-0,113	0,141
-470,459	342,560	0,058	0,082
-469,445	-41,954	0,059	-0,022
-468,430	550,555	-0,078	0,137
-467,416	83,946	-0,026	0,021
-466,401	-100,325	0,155	-0,028
-465,386	788,820	-0,053	0,107
-464,372	-151,844	0,024	-0,001
-463,357	800,000	-0,011	-0,023
-462,343	-200,000	0,004	-0,114
-461,328	-200,000	0,003	0,016
-460,313	285,152	0,070	0,092
-459,299	-56,645	-0,146	0,047
-458,284	-122,867	0,081	-0,009
-457,270	-200,000	-0,010	0,041
-456,255	800,000	0,026	-0,083
-455,241	286,254	-0,075	-0,099
-454,226	800,000	-0,008	0,016
-453,211	-200,000	-0,052	0,236
-452,197	659,833	0,100	0,188
-451,182	224,915	-0,072	0,085
-450,168	-99,076	-0,138	-0,025
-449,153	265,887	0,110	-0,140
-448,138	65,461	0,150	-0,111
-447,124	304,186	-0,004	0,006
-446,109	697,325	0,059	0,114
-445,095	-35,835	0,057	0,022
-444,080	247,639	0,027	0,034
-443,065	315,200	-0,042	-0,058
-442,051	-200,000	0,019	-0,105
-441,036	-17,751	-0,096	-0,044
-440,022	17,468	-0,058	0,033
-439,007	-37,752	-0,141	0,054
-437,992	-136,398	-0,091	0,008
-436,978	-22,667	0,023	0,010
-435,963	337,239	0,048	0,069
-434,949	400,450	-0,004	0,007
-433,934	-200,000	0,008	-0,053
-432,919	-200,000	0,008	-0,169
-431,905	-200,000	-0,029	0,126
-430,890	102,923	0,110	0,094
-429,876	19,473	0,053	0,031
-428,861	275,535	0,032	-0,042
-427,846	-200,000	0,000	-0,025
-426,832	-100,907	-0,146	-0,026
-425,817	-200,000	0,002	0,122
-424,803	-159,021	0,119	0,005
-423,788	281,433	0,112	0,147
-422,773	133,795	0,060	-0,056
-421,759	-200,000	-0,037	0,180
-420,744	-163,362	-0,072	-0,002
-419,730	-85,664	-0,031	-0,007
-418,715	69,419	-0,145	-0,108
-417,701	800,000	-0,033	-0,071
-416,686	154,003	0,069	0,069
-415,671	-95,106	0,054	-0,010
-414,657	-156,228	-0,105	-0,005
-413,642	-47,260	-0,055	0,019
-412,628	-44,530	0,032	-0,012
-411,613	-54,321	-0,139	-0,046
-410,598	57,452	0,041	-0,029
-409,584	586,481	-0,028	0,051
-408,569	-200,000	0,011	0,126
-407,555	800,000	0,041	0,095
-406,540	189,258	-0,068	-0,074
-405,525	-21,657	0,013	-0,006
-404,511	-118,937	-0,098	0,012
-403,496	-62,551	-0,094	-0,028
-402,482	-200,000	-0,015	-0,141
-401,467	-144,214	0,109	0,007
-400,452	-137,617	0,097	0,008
-399,438	-200,000	-0,033	0,119
-398,423	27,670	-0,064	-0,039
-397,409	273,465	0,052	-0,066
-396,394	5,946	0,083	-0,045
-395,379	800,000	0,057	0,136
-394,365	-200,000	0,011	0,057
-393,350	-200,000	-0,012	-0,058
-392,336	-200,000	-0,016	0,060
-391,321	-47,751	-0,082	-0,029
-390,306	34,302	0,075	0,047
-389,292	29,162	-0,055	-0,034
-388,277	-27,413	0,045	0,019
-387,263	1,533	-0,058	0,030
-386,248	114,405	0,102	-0,090
-385,233	-200,000	-0,006	-0,051
-384,219	361,722	-0,038	0,056
-383,204	194,634	0,135	-0,149
-382,190	800,000	0,055	-0,130
-381,175	800,000	0,030	-0,079
-380,160	-200,000	-0,007	0,073
-379,146	800,000	-0,028	0,070
-378,131	-200,000	-0,001	0,019
-377,117	545,910	-0,018	0,032
-376,102	351,055	-0,027	0,039
-375,088	62,317	-0,107	-0,078
-374,073	-160,384	-0,125	0,005
-373,058	-136,621	0,120	0,010
-372,044	50,007	0,055	-0,037
-371,029	205,468	-0,034	0,038
-370,015	-121,510	0,107	0,013
-369,000	-5,231	-0,087	-0,043
-367,985	-200,000	0,018	-0,127
-366,971	169,880	-0,054	0,057
-365,956	330,210	-0,023	-0,032
-364,942	-178,485	-0,104	-0,002
-363,927	673,665	0,015	-0,027
-362,912	211,440	0,062	0,071
-361,898	-123,045	-0,077	0,009
-360,883	-200,000	0,006	0,043
-359,869	101,620	-0,069	-0,058
-358,854	586,385	-0,045	-0,080
-357,839	-23,579	0,071	-0,031
-356,825	-79,527	0,065	-0,016
-355,810	-127,609	-0,129	-0,013
-354,796	-130,904	-0,036	-0,003
-353,781	28,218	-0,078	-0,048
-352,766	-200,000	-0,005	-0,025
-351,752	-3,660	0,111	0,056
-350,737	-38,587	0,025	-0,010
-349,723	-127,847	0,176	-0,018
-348,708	-86,301	0,080	0,018
-347,693	800,000	0,050	0,116
-346,679	-113,161	-0,066	-0,009
-345,664	40,373	-0,042	0,028
-344,650	-132,589	0,074	-0,007
-343,635	-54,234	0,049	-0,016
-342,620	0,630	0,088	0,045
-341,606	-61,049	0,129	-0,039
-340,591	-200,000	0,003	0,028
-339,577	-200,000	-0,035	-0,177
-338,562	800,000	-0,034	-0,090
-337,548	-200,000	-0,042	0,194
-336,533	800,000	-0,020	-0,043
-335,518	-83,661	0,103	-0,024
-334,504	267,980	-0,051	-0,065
-333,489	-200,000	-0,019	0,112
-332,475	-55,854	0,031	0,010
-331,460	-34,103	-0,169	-0,067
-330,445	-171,888	-0,010	0,000
-329,431	-200,000	0,011	-0,103
-328,416	800,000	0,081	0,175
-327,402	-200,000	0,022	-0,079
-326,387	-31,710	-0,087	-0,035
-325,372	800,000	0,043	-0,094
-324,358	800,000	-0,027	-0,067
-323,343	170,032	0,072	0,074
-322,329	-105,211	0,079	-0,013
-321,314	580,268	0,022	-0,039
-320,299	229,047	0,049	0,057
-319,285	-200,000	-0,008	-0,045
-318,270	109,143	-0,051	0,045
-317,256	-3,254	-0,060	-0,030
-316,241	244,877	0,136	-0,166
-315,226	86,627	-0,039	-0,031
-314,212	218,643	0,102	0,118
-313,197	800,000	-0,017	0,054
-312,183	-26,713	0,079	-0,033
-311,168	800,000	-0,054	-0,121
-310,153	149,091	-0,100	-0,098
-309,139	-200,000	0,044	-0,177
-308,124	800,000	0,056	0,179
-307,110	104,252	-0,026	0,022
-306,095	122,831	0,045	-0,040
-305,080	795,696	0,033	-0,067
-304,066	138,177	0,078	0,075
-303,051	243,761	-0,017	-0,021
-302,037	13,672	-0,027	-0,015
-301,022	467,911	0,034	0,056
-300,008	-200,000	-0,025	0,103
-298,993	-139,965	-0,048	-0,004
-297,978	187,616	-0,023	0,025
-296,964	-200,000	0,000	0,070
-295,949	-121,427	-0,157	0,019
-294,935	284,471	0,048	-0,063
-293,920	-107,935	-0,136	0,021
-292,905	-81,558	0,103	0,024
-291,891	9,125	-0,058	-0,032
-290,876	-110,678	0,094	0,014
-289,862	41,698	-0,101	0,066
-288,847	-200,000	-0,012	-0,095
-287,832	-200,000	0,016	0,115
-286,818	38,736	0,192	-0,124
-285,803	800,000	0,053	-0,113
-284,789	230,962	0,074	0,088
-283,774	-200,000	0,013	0,051
-282,759	-200,000	0,006	-0,040
-281,745	325,723	-0,022	0,031
-280,730	800,000	-0,043	-0,115
-279,716	-102,443	-0,081	-0,014
-278,701	800,000	-0,046	-0,092
-277,686	478,504	0,060	0,099
-276,672	800,000	-0,024	0,066
-275,657	183,717	-0,062	0,066
-274,643	800,000	0,034	0,099
-273,628	-200,000	0,007	-0,090
-272,613	80,661	-0,126	-0,098
-271,599	800,000	0,033	0,076
-270,584	277,234	-0,041	0,053
-269,570	800,000	0,063	0,155
-268,555	800,000	0,010	-0,027
-267,540	-133,634	-0,040	-0,004
-266,526	172,049	-0,032	-0,034
-265,511	-27,033	0,072	0,030
-264,497	100,545	0,115	0,097
-263,482	-200,000	0,049	0,000
-262,467	-200,000	0,007	0,107
-261,453	-200,000	-0,018	-0,080
-260,438	-200,000	0,009	0,170
-259,424	-30,300	-0,161	-0,066
-258,409	800,000	0,040	-0,098
-257,395	-161,730	0,065	-0,002
-256,380	-200,000	0,041	-0,195
-255,365	239,839	0,072	0,086
-254,351	-200,000	-0,004	0,141
-253,336	-200,000	0,011	-0,142
-252,322	391,257	0,083	-0,124
-251,307	-200,000	-0,023	-0,079
-250,292	-57,417	0,056	-0,018
-249,278	-115,623	0,181	0,024
-248,263	-51,133	0,049	0,016
-247,249	-200,000	0,012	0,100
-246,234	800,000	-0,043	0,099
-245,219	25,809	-0,146	-0,088
-244,205	-200,000	-0,013	-0,086
-243,190	478,016	-0,053	0,087
-242,176	-93,205	0,055	0,011
-241,161	57,741	0,006	0,004
-240,146	-133,209	0,196	0,018
-239,132	563,928	0,013	-0,023
-238,117	161,634	0,046	-0,046
-237,103	-200,000	0,012	-0,047
-236,088	800,000	-0,025	0,065
-235,073	-36,344	0,048	-0,019
-234,059	-200,000	0,030	0,151
-233,044	6,398	0,036	0,019
-232,030	149,014	0,101	0,099
-231,015	103,027	0,037	-0,031
-230,000	-200,000	0,007	-0,095
-228,986	800,000	0,040	-0,101
-227,971	193,264	0,062	-0,068
-226,957	800,000	0,027	0,073
-225,942	498,654	0,042	0,070
-224,927	-200,000	0,047	-0,158
-223,913	800,000	-0,026	0,055
-222,898	228,746	-0,048	0,057
-221,884	800,000	-0,019	0,044
-220,869	-15,362	0,025	0,012
-219,855	146,602	0,088	0,085
-218,840	145,641	0,102	-0,099
-217,825	781,169	-0,054	0,107
-216,811	800,000	0,005	-0,010
-215,796	127,597	-0,088	-0,081
-214,782	86,634	0,003	0,002
-213,767	-200,000	0,001	0,071
-212,752	-200,000	0,016	0,064
-211,738	-41,586	-0,022	-0,008
-210,723	230,083	-0,007	-0,008
-209,709	-95,479	0,042	-0,008
-208,694	62,110	-0,039	-0,028
-207,679	696,234	-0,055	0,106
-206,665	349,546	-0,015	-0,022
-205,650	401,943	-0,100	0,152
-204,636	-125,997	0,043	-0,005
-203,621	-200,000	-0,008	-0,052
-202,606	800,000	0,015	-0,035
-201,592	738,312	0,019	-0,036
-200,577	-76,955	-0,152	-0,038
-199,563	62,085	0,053	-0,038
-198,548	800,000	0,057	-0,164
-197,533	290,464	-0,142	0,186
-196,519	-92,124	-0,088	-0,018
-195,504	-200,000	-0,077	0,000
-194,490	254,608	-0,078	-0,097
-193,475	-38,751	0,084	-0,032
-192,460	61,844	0,080	-0,057
-191,446	-20,735	0,151	-0,067
-190,431	81,086	0,026	-0,020
-189,417	-200,000	0,006	-0,114
-188,402	-200,000	-0,010	-0,074
-187,387	-200,000	0,006	-0,055
-186,373	55,391	0,076	-0,053
-185,358	800,000	-0,047	0,132
-184,344	-66,164	0,109	-0,031
-183,329	800,000	0,042	-0,092
-182,315	-59,297	0,110	-0,034
-181,300	114,411	-0,112	-0,098
-180,285	470,039	-0,062	-0,101
-179,271	-29,147	-0,198	0,081
-178,256	291,007	0,033	-0,044
-177,242	351,271	0,043	0,061
-176,227	-200,000	0,016	-0,141
-175,212	280,744	0,041	-0,054
-174,198	-200,000	-0,014	0,139
-173,183	58,949	-0,042	0,030
-172,169	800,000	-0,031	-0,095
-171,154	-200,000	-0,024	-0,105
-170,139	675,224	-0,024	0,045
-169,125	518,063	0,107	0,182
-168,110	84,638	0,017	0,014
-167,096	1,677	0,014	-0,007
-166,081	800,000	-0,020	-0,042
-165,066	35,105	-0,099	-0,062
-164,052	800,000	0,039	0,085
-163,037	-200,000	-0,003	0,040
-162,023	108,363	0,069	0,059
-161,008	-200,000	-0,004	0,045
-159,993	-104,608	-0,065	-0,011
-158,979	-66,977	0,099	-0,028
-157,964	-91,410	-0,144	-0,029
-156,950	-200,000	0,003	0,062
-155,935	410,707	-0,058	0,089
-154,920	800,000	-0,007	-0,021
-153,906	-200,000	0,008	-0,032
-152,891	-136,274	0,153	-0,013
-151,877	-200,000	-0,031	-0,148
-150,862	19,076	-0,113	-0,065
-149,847	-76,933	-0,120	-0,030
-148,833	32,348	0,149	-0,093
-147,818	13,064	0,032	-0,018
-146,804	18,481	-0,045	-0,026
-145,789	163,763	0,061	0,062
-144,775	172,076	-0,070	-0,072
-143,760	162,085	-0,095	-0,096
-142,745	35,284	0,088	-0,056
-141,731	-175,838	-0,027	-0,001
-140,716	-31,879	0,154	-0,062
-139,702	616,343	-0,047	0,085
-138,687	-48,704	-0,046	-0,016
-137,672	-38,627	-0,037	-0,014
-136,658	162,478	0,054	-0,054
-135,643	-92,957	-0,189	-0,038
-134,629	-49,497	0,100	-0,034
-133,614	-46,771	0,083	-0,029
-132,599	-200,000	0,031	0,125
-131,585	-200,000	0,020	0,163
-130,570	248,348	-0,023	0,028
-129,556	58,290	-0,041	-0,029
-128,541	-94,264	-0,061	0,012
-127,526	-23,327	0,033	0,014
-126,512	-200,000	0,014	-0,065
-125,497	27,387	-0,035	-0,021
-124,483	-200,000	-0,021	-0,107
-123,468	-200,000	-0,004	-0,127
-122,453	800,000	-0,015	-0,039
-121,439	-125,395	-0,045	0,005
-120,424	525,440	-0,065	-0,111
-119,410	21,281	0,122	0,071
-118,395	800,000	0,046	0,135
-117,380	-79,303	0,033	-0,008
-116,366	-68,838	0,059	-0,016
-115,351	103,757	-0,028	-0,023
-114,337	-200,000	-0,026	0,138
-113,322	-158,414	-0,151	0,006
-112,307	-200,000	-0,009	0,088
-111,293	800,000	0,053	0,116
-110,278	-200,000	0,006	-0,045
-109,264	-19,849	-0,123	-0,054
-108,249	156,519	-0,062	0,062
-107,234	-73,949	-0,119	0,031
-106,220	-39,194	-0,097	-0,036
-105,205	84,607	0,029	-0,023
-104,191	213,108	-0,126	0,143
-103,176	400,111	0,043	0,065
-102,162	44,075	0,099	0,065
-101,147	109,216	-0,073	0,063
-100,132	-200,000	-0,007	-0,080
-99,118	-200,000	0,021	-0,092
-98,103	-10,653	0,089	-0,042
-97,089	-200,000	0,015	-0,052
-96,074	183,579	-0,051	-0,055
-95,059	42,153	0,094	-0,061
-94,045	-152,075	-0,104	0,005
-93,030	-17,719	0,061	-0,027
-92,016	-200,000	-0,006	-0,045
-91,001	-200,000	-0,017	-0,072
-89,986	-200,000	-0,004	0,029
-88,972	-14,758	-0,120	0,055
-87,957	-200,000	0,007	0,066
-86,943	86,440	-0,070	0,055
-85,928	666,063	0,050	-0,094
-84,913	800,000	-0,035	0,095
-83,899	800,000	-0,053	-0,128
-82,884	-9,241	0,067	0,032
-81,870	-200,000	-0,006	-0,024
-80,855	800,000	-0,029	0,068
-79,840	-4,655	-0,109	-0,054
-78,826	-200,000	0,009	0,034
-77,811	-124,654	0,066	0,007
-76,797	641,302	-0,047	0,087
-75,782	267,353	0,047	0,059
-74,767	154,329	0,078	0,077
-73,753	-200,000	0,014	-0,055
-72,738	-200,000	-0,010	-0,055
-71,724	-38,379	0,076	-0,029
-70,709	106,673	-0,081	-0,069
-69,694	461,507	0,082	-0,132
-68,680	-77,707	-0,073	0,018
-67,665	24,505	0,078	-0,046
-66,651	800,000	0,020	0,040
-65,636	-200,000	-0,047	0,220
-64,622	205,579	0,034	0,038
-63,607	-139,056	0,019	0,001
-62,592	-75,874	-0,127	-0,032
-61,578	9,673	0,040	-0,022
-60,563	-200,000	-0,019	0,108
-59,549	97,948	-0,089	0,073
-58,534	91,033	-2,718	-2,186
-57,519	-74,576	0,560	-0,144
-56,505	800,000	-1,844	-5,492
-55,490	561,005	1,138	1,980
-54,476	800,000	5,135	11,154
-53,461	-200,000	22,999	347,478
-52,446	800,000	765,278	2263,674
-51,432	497,043	1643,248	2721,428
-50,417	93,238	1599,613	1296,766
-49,403	61,038	1254,670	891,963
-48,388	21,180	1007,015	584,770
-47,373	18,372	974,776	556,855
-46,359	11,828	961,776	528,223
-45,344	7,713	958,491	513,060
-44,330	8,083	956,271	513,050
-43,315	7,223	954,340	509,213
-42,300	7,134	953,174	508,283
-41,286	7,142	952,219	507,782
-40,271	7,181	951,343	507,419
-39,257	7,090	950,488	506,649
-38,242	7,014	949,736	505,984
-37,227	7,101	948,985	505,843
-36,213	7,064	948,096	505,231
-35,198	7,056	947,109	504,660
-34,184	7,107	946,407	504,428
-33,169	7,086	945,467	503,840
-32,154	7,161	944,695	503,647
-31,140	7,102	943,862	502,997
-30,125	7,158	943,146	502,772
-29,111	7,139	942,283	502,232
-28,096	7,136	941,547	501,811
-27,082	7,141	941,177	501,609
-26,067	7,093	940,275	500,955
-25,052	7,116	939,518	500,605
-24,038	7,090	938,742	500,091
-23,023	7,045	938,195	499,637
-22,009	7,074	937,614	499,400
-20,994	7,164	936,987	499,330
-19,979	7,061	936,449	498,697
-18,965	7,118	935,578	498,396
-17,950	7,158	935,082	498,237
-16,936	7,035	934,565	497,552
-15,921	7,099	933,848	497,353
-14,906	7,013	932,972	496,596
-13,892	6,984	932,540	496,254
-12,877	6,913	932,124	495,791
-11,863	6,954	931,431	495,529
-10,848	6,995	930,841	495,324
-9,833	7,113	930,192	495,333
-8,819	7,027	929,569	494,712
-7,804	7,037	928,950	494,394
-6,790	6,999	928,323	493,920
-5,775	7,032	927,933	493,797
-4,760	7,006	927,055	493,228
-3,746	7,035	926,468	492,989
-2,731	6,884	925,756	492,118
-1,717	6,865	925,086	491,682
-0,702	6,872	924,572	491,410
0,313	6,698	924,063	491,337
1,327	10,114	921,581	500,627
2,342	18,623	770,349	440,505
3,356	13,619	442,242	245,425
4,371	-12,309	309,290	144,357
5,386	-16,161	292,293	132,555
6,400	-18,216	286,015	127,681
7,415	-18,385	283,429	126,351
8,429	-19,062	281,621	124,880
9,444	-19,031	280,555	124,426
10,459	-19,070	280,113	124,182
11,473	-19,057	279,480	123,902
12,488	-19,011	279,147	123,787
13,502	-19,027	278,648	123,540
14,517	-18,906	278,117	123,409
15,531	-18,957	277,796	123,207
16,546	-18,887	277,415	123,093
17,561	-18,824	276,795	122,867
18,575	-18,771	276,693	122,861
19,590	-18,815	276,204	122,592
20,604	-18,804	276,009	122,504
21,619	-18,805	275,641	122,330
22,634	-18,670	275,147	122,226
23,648	-18,867	274,908	121,923
24,663	-18,865	274,717	121,830
25,677	-18,884	274,519	121,714
26,692	-18,793	274,226	121,658
27,707	-18,578	273,898	121,704
28,721	-18,623	273,539	121,491
29,736	-18,768	273,315	121,244
30,750	-18,916	273,082	120,992
31,765	-18,689	272,644	121,000
32,780	-18,852	272,682	120,853
33,794	-18,777	272,303	120,745
34,809	-18,664	271,942	120,679
35,823	-18,847	271,793	120,431
36,838	-18,720	271,655	120,478
37,853	-18,658	271,236	120,339
38,867	-18,867	271,133	120,089
39,882	-18,673	270,876	120,144
40,896	-18,620	270,602	120,061
41,911	-18,641	270,298	119,896
42,926	-18,711	270,132	119,746
43,940	-18,728	269,793	119,570
44,955	-18,802	269,595	119,403
45,969	-18,716	269,414	119,392
46,984	-18,857	269,326	119,213
47,999	-18,549	269,033	119,355
49,013	-18,487	268,825	119,309
50,028	-18,626	268,664	119,099
51,042	-18,546	268,526	119,101
52,057	-18,603	267,971	118,792
53,071	-18,672	268,028	118,744
54,086	-18,660	267,785	118,637
55,101	-18,615	267,653	118,608
56,115	-18,929	267,374	118,188
57,130	-18,803	267,104	118,173
58,144	-18,778	266,609	117,966
59,159	-18,739	266,463	117,926
60,174	-18,817	266,121	117,694
61,188	-18,804	265,985	117,634
62,203	-18,778	265,934	117,625
63,217	-18,790	265,674	117,489
64,232	-18,666	265,203	117,382
65,247	-18,710	265,069	117,273
66,261	-18,786	264,807	117,077
67,276	-18,653	264,576	117,086
68,290	-18,782	264,414	116,887
69,305	-18,587	264,269	116,988
70,320	-18,486	263,886	116,899
71,334	-18,630	263,892	116,762
72,349	-18,783	263,479	116,431
73,363	-18,898	263,337	116,255
74,378	-18,760	263,038	116,236
75,393	-18,670	262,759	116,183
76,407	-18,649	262,760	116,192
77,422	-18,642	262,301	115,984
78,436	-18,565	261,978	115,900
79,451	-18,733	261,902	115,707
80,466	-18,644	261,665	115,671
81,480	-18,653	261,394	115,533
82,495	-18,560	261,117	115,483
83,509	-18,650	261,082	115,376
84,524	-18,629	260,890	115,301
85,539	-18,555	260,785	115,309
86,553	-18,681	260,602	115,106
87,568	-18,634	260,206	114,963
88,582	-18,693	260,101	114,854
89,597	-18,702	259,852	114,726
90,611	-18,680	259,463	114,563
91,626	-18,472	259,528	114,765
92,641	-18,710	259,257	114,425
93,655	-18,658	258,912	114,308
94,670	-18,723	258,840	114,210
95,684	-18,624	258,510	114,141
96,699	-18,661	258,489	114,089
97,714	-18,743	258,228	113,891
98,728	-18,663	258,057	113,876
99,743	-18,722	257,894	113,743
100,757	-18,696	257,714	113,675
101,772	-18,589	257,218	113,540
102,787	-18,453	257,010	113,557
103,801	-18,608	256,891	113,359
104,816	-18,516	256,808	113,393
105,830	-18,681	256,649	113,168
106,845	-18,558	256,346	113,132
107,860	-18,507	256,085	113,051
108,874	-18,616	255,984	112,901
109,889	-18,440	255,762	112,946
110,903	-18,611	255,438	112,645
111,918	-18,767	255,495	112,524
112,933	-18,578	255,005	112,463
113,947	-18,582	255,002	112,448
114,962	-18,664	254,696	112,232
115,976	-18,794	254,702	112,111
116,991	-18,732	254,265	111,964
118,006	-18,720	254,164	111,918
119,020	-18,488	253,906	111,995
120,035	-18,664	253,973	111,863
121,049	-18,487	253,604	111,842
122,064	-18,888	253,533	111,456
123,079	-18,758	253,227	111,424
124,093	-18,526	253,081	111,548
125,108	-18,633	252,874	111,356
126,122	-18,291	252,675	111,551
127,137	-18,299	252,405	111,415
128,151	-18,236	252,163	111,353
129,166	-18,466	252,029	111,087
130,181	-18,472	251,881	111,007
131,195	-18,574	251,635	110,801
132,210	-18,551	251,440	110,726
133,224	-18,649	251,148	110,504
134,239	-18,873	251,104	110,283
135,254	-18,727	250,852	110,287
136,268	-18,667	250,716	110,269
137,283	-18,576	250,501	110,241
138,297	-18,459	250,172	110,186
139,312	-18,590	250,061	110,016
140,327	-18,475	249,782	109,981
141,341	-18,594	249,566	109,775
142,356	-18,580	249,478	109,739
143,370	-18,581	249,278	109,640
144,385	-18,492	249,101	109,627
145,400	-18,541	248,663	109,384
146,414	-18,459	248,650	109,437
147,429	-18,445	248,489	109,368
148,443	-18,495	248,315	109,240
149,458	-18,640	248,200	109,058
150,473	-18,585	247,902	108,963
151,487	-18,574	247,803	108,919
152,502	-18,398	247,530	108,938
153,516	-18,636	247,274	108,616
154,531	-18,567	247,267	108,661
155,546	-18,584	247,097	108,562
156,560	-18,578	246,747	108,404
157,575	-18,506	246,599	108,389
158,589	-18,524	246,445	108,297
159,604	-18,442	246,171	108,235
160,619	-18,560	246,023	108,062
161,633	-18,490	245,776	108,002
162,648	-18,619	245,808	107,899
163,662	-18,387	245,474	107,935
164,677	-18,394	245,447	107,908
165,692	-18,397	245,258	107,813
166,706	-18,433	245,049	107,681
167,721	-18,556	244,924	107,515
168,735	-18,642	244,728	107,348
169,750	-18,632	244,614	107,297
170,764	-18,513	244,476	107,326
171,779	-18,465	244,321	107,288
172,794	-18,512	244,117	107,150
173,808	-18,396	243,864	107,124
174,823	-18,498	243,839	107,020
175,837	-18,450	243,627	106,957
176,852	-18,533	243,308	106,739
177,867	-18,564	243,185	106,650
178,881	-18,351	243,167	106,807
179,896	-18,482	243,028	106,629
180,910	-18,474	242,717	106,490
181,925	-18,584	242,540	106,313
182,940	-18,566	242,263	106,196
183,954	-18,352	242,159	106,316
184,969	-18,449	242,175	106,234
185,983	-18,361	241,970	106,207
186,998	-18,403	241,576	105,990
188,013	-18,460	241,566	105,930
189,027	-18,444	241,372	105,849
190,042	-18,616	240,987	105,531
191,056	-18,642	240,905	105,465
192,071	-18,551	240,828	105,495
193,086	-18,676	240,645	105,305
194,100	-18,425	240,288	105,342
195,115	-18,511	240,226	105,235
196,129	-18,432	239,926	105,159
197,144	-18,662	239,784	104,901
198,159	-18,751	239,610	104,743
199,173	-18,456	239,303	104,838
200,188	-18,586	239,395	104,765
201,202	-18,303	239,064	104,838
202,217	-18,543	238,964	104,592
203,232	-18,324	238,943	104,749
204,246	-18,600	238,650	104,389
205,261	-18,644	238,348	104,213
206,275	-17,147	238,786	105,599
207,290	-12,422	240,557	110,199
208,304	-5,776	242,564	116,524
209,319	-2,147	243,547	119,948
210,334	-1,344	243,817	120,725
211,348	-0,339	243,900	121,575
212,363	0,112	243,880	121,923
213,377	0,309	243,893	122,078
214,392	0,612	243,771	122,253
215,407	0,923	243,692	122,456
216,421	0,985	243,524	122,411
217,436	0,775	243,528	122,231
218,450	1,077	243,177	122,289
219,465	1,047	243,219	122,275
220,480	1,176	242,985	122,251
221,494	0,977	242,882	122,027
222,509	0,594	242,561	121,545
223,523	0,529	242,284	121,343
224,538	0,542	242,008	121,204
225,553	0,285	241,923	120,943
226,567	0,443	241,746	120,971
227,582	0,365	241,651	120,850
228,596	0,588	241,417	120,902
229,611	0,463	241,317	120,741
230,626	0,361	241,204	120,591
231,640	0,236	240,953	120,355
232,655	0,499	240,809	120,483
233,669	0,301	240,653	120,235
234,684	0,482	240,512	120,299
235,699	0,577	240,248	120,233
236,713	0,486	240,219	120,134
237,728	0,515	240,006	120,041
238,742	0,535	239,799	119,942
239,757	0,583	239,665	119,903
240,772	0,423	239,630	119,747
241,786	0,597	239,392	119,756
242,801	0,513	239,128	119,546
243,815	0,353	239,119	119,404
244,830	0,396	238,906	119,321
245,844	0,569	238,789	119,389
246,859	0,441	238,511	119,139
247,874	0,432	238,514	119,122
248,888	0,617	238,206	119,104
249,903	0,536	238,139	118,996
250,917	0,557	238,113	118,989
251,932	0,431	237,853	118,748
252,947	0,434	237,708	118,668
253,961	0,430	237,449	118,525
254,976	0,521	237,273	118,499
255,990	0,663	237,134	118,530
257,005	0,346	237,123	118,264
258,020	0,578	237,033	118,392
259,034	0,507	236,713	118,166
260,049	0,532	236,568	118,102
261,063	0,644	236,376	118,084
262,078	0,393	236,293	117,835
263,093	0,383	236,046	117,693
264,107	0,398	235,989	117,666
265,122	0,593	235,800	117,715
266,136	0,494	235,666	117,559
267,151	0,743	235,429	117,626
268,166	0,695	235,294	117,511
269,180	0,370	235,110	117,154
270,195	0,375	234,951	117,068
271,209	0,601	234,824	117,171
272,224	0,531	234,779	117,083
273,239	0,633	234,518	117,022
274,253	0,543	234,490	116,927
275,268	0,529	234,168	116,745
276,282	0,385	234,124	116,601
277,297	0,414	234,055	116,579
278,312	0,453	233,925	116,534
279,326	0,444	233,675	116,392
280,341	0,379	233,609	116,298
281,355	0,529	233,424	116,312
282,370	0,637	233,232	116,290
283,384	0,296	233,151	115,975
284,399	0,435	232,936	115,965
285,414	0,502	232,775	115,927
286,428	0,560	232,617	115,882
287,443	0,614	232,452	115,831
288,457	0,461	232,398	115,676
289,472	0,418	232,310	115,589
290,487	0,598	232,020	115,573
291,501	0,293	231,967	115,302
292,516	0,530	231,802	115,391
293,530	0,760	231,515	115,415
294,545	0,663	231,446	115,296
295,560	0,823	231,287	115,329
296,574	0,659	231,149	115,124
297,589	0,680	231,069	115,090
298,603	0,561	230,852	114,881
299,618	0,766	230,705	114,954
300,633	0,687	230,613	114,838
301,647	0,725	230,535	114,817
302,662	0,659	230,287	114,634
303,676	0,608	230,058	114,471
304,691	0,744	229,988	114,529
305,706	0,577	229,799	114,297
306,720	0,530	229,918	114,311
307,735	0,771	229,572	114,311
308,749	0,708	229,430	114,183
309,764	0,618	229,338	114,059
310,779	0,831	229,085	114,084
311,793	0,740	228,957	113,942
312,808	0,442	228,897	113,676
313,822	0,868	228,686	113,883
314,837	0,760	228,503	113,700
315,852	0,717	228,357	113,585
316,866	0,843	228,226	113,604
317,881	0,884	228,067	113,546
318,895	0,955	227,931	113,522
319,910	0,744	227,768	113,272
320,925	0,872	227,705	113,327
321,939	0,621	227,548	113,050
322,954	1,050	227,380	113,278
323,968	0,933	227,337	113,159
324,983	0,856	227,125	112,986
325,997	0,799	227,054	112,898
327,012	0,958	226,854	112,907
328,027	0,853	226,625	112,705
329,041	0,741	226,596	112,596
330,056	0,884	226,387	112,589
331,070	1,075	226,164	112,611
332,085	0,810	226,075	112,359
333,100	0,830	225,943	112,298
334,114	0,860	225,795	112,237
335,129	0,916	225,603	112,173
336,143	0,780	225,458	111,990
337,158	0,863	225,253	111,940
338,173	1,105	225,200	112,083
339,187	1,023	225,150	111,987
340,202	0,981	224,971	111,858
341,216	0,743	224,821	111,596
342,231	0,595	224,742	111,437
343,246	1,191	224,475	111,737
344,260	0,892	224,410	111,472
345,275	1,172	224,197	111,564
346,289	0,965	224,169	111,387
347,304	1,144	223,883	111,367
348,319	1,224	223,750	111,350
349,333	1,020	223,635	111,133
350,348	0,811	223,471	110,887
351,362	0,882	223,459	110,924
352,377	0,906	223,236	110,821
353,392	1,207	223,116	110,973
354,406	1,218	222,903	110,865
355,421	191,032	1312,223	1373,291
356,435	152,892	1444,777	1373,112
