DTS Sentinel unit serial number:	SN410029Multiplexer serial number:	ORYXHardware model number:	OX2-SRSoftware version number:	ORYX F/W v4,00 Oryx Data Collector v3.7.2.0data status	okinstallation	B5 Nyhavnadifferential loss correction	single-endedforward channel	channel 2reverse channel	N/Adate	2023/12/14time	05:27:13forward acquisition time	300,00reverse acquisition time	0,00gamma	499,1914k internal	0,3157k external	0,3157temperature offset calibration	1,0000default loss term (dB/km)	0,3820temperature slope calibration	1,0000multiplexer offset coefficient	1,0000multiplexer slope coefficient	1,0000fibre end	0,00T internal ref (°C)	7,78T ext. ref 1 (°C)	-8,70T ext. ref 2 (°C)	-8,82length (m)	temperature (°C)	Stokes	anti-Stokes-744,400	292,563	0,129	0,174
-743,385	46,832	-0,255	-0,175
-742,371	-91,989	0,092	-0,019
-741,356	-32,251	-0,359	-0,147
-740,342	-57,663	0,169	0,054
-739,327	-119,737	-0,354	-0,044
-738,312	75,531	0,129	0,100
-737,298	-130,537	-0,453	-0,044
-736,283	-56,928	0,230	0,075
-735,269	-111,213	-0,222	-0,033
-734,254	48,954	0,055	0,038
-733,239	27,520	-0,632	-0,391
-732,225	103,367	0,178	0,154
-731,210	-200,000	0,019	-0,066
-730,196	11,587	0,084	0,047
-729,181	-200,000	0,024	-0,109
-728,167	-60,361	0,041	0,013
-727,152	-200,000	-0,008	0,047
-726,137	800,000	-0,042	-0,118
-725,123	-90,447	-0,125	0,026
-724,108	800,000	-0,015	-0,044
-723,094	-41,052	-0,088	0,033
-722,079	-200,000	-0,019	-0,061
-721,064	-62,746	0,117	0,036
-720,050	213,580	0,075	-0,087
-719,035	800,000	-0,049	-0,143
-718,021	800,000	-0,046	0,112
-717,006	-189,778	-0,145	0,001
-715,991	481,550	0,068	-0,114
-714,977	211,452	0,064	-0,074
-713,962	-98,105	-0,073	-0,014
-712,948	228,379	0,102	0,123
-711,933	-200,000	-0,004	0,185
-710,918	420,443	0,012	0,020
-709,904	-200,000	0,050	-0,192
-708,889	-200,000	-0,002	-0,117
-707,875	-83,191	-0,034	-0,008
-706,860	-130,416	-0,072	0,007
-705,845	-200,000	0,035	0,136
-704,831	167,277	0,092	-0,096
-703,816	243,268	-0,060	0,074
-702,802	800,000	-0,008	0,023
-701,787	-11,605	-0,109	-0,052
-700,772	65,708	0,061	0,046
-699,758	170,495	-0,046	-0,048
-698,743	1,951	0,065	0,034
-697,729	459,322	0,076	0,125
-696,714	-61,036	0,101	0,031
-695,699	75,752	-0,055	0,043
-694,685	-200,000	0,000	-0,004
-693,670	147,900	-0,024	-0,024
-692,656	800,000	-0,031	-0,085
-691,641	43,728	0,059	0,040
-690,627	-96,546	0,039	0,007
-689,612	326,617	0,052	0,073
-688,597	-58,710	0,074	-0,024
-687,583	-91,752	-0,123	-0,025
-686,568	-27,688	-0,148	-0,063
-685,554	32,685	0,029	-0,018
-684,539	-146,123	0,064	-0,004
-683,524	-72,309	-0,110	0,030
-682,510	75,249	0,068	-0,053
-681,495	-200,000	0,004	0,040
-680,481	-114,762	-0,100	-0,014
-679,466	133,833	-0,104	-0,099
-678,451	600,311	0,016	0,029
-677,437	-200,000	0,005	-0,054
-676,422	-104,447	0,133	0,022
-675,408	-160,694	-0,187	-0,007
-674,393	-119,930	0,133	-0,017
-673,378	370,052	-0,060	-0,090
-672,364	-200,000	-0,001	0,005
-671,349	-26,763	-0,153	0,066
-670,335	97,363	0,052	-0,044
-669,320	86,926	-0,048	0,039
-668,305	-159,784	0,044	-0,002
-667,291	800,000	0,028	0,069
-666,276	97,949	-0,036	0,031
-665,262	602,147	-0,108	-0,198
-664,247	800,000	-0,025	0,075
-663,232	233,602	0,037	0,045
-662,218	224,383	0,042	-0,051
-661,203	331,167	0,070	-0,100
-660,189	800,000	-0,033	0,100
-659,174	-63,645	-0,067	0,020
-658,159	69,053	-0,098	-0,074
-657,145	18,839	0,056	-0,033
-656,130	169,089	-0,003	-0,003
-655,116	-99,722	-0,075	0,014
-654,101	-55,247	0,130	-0,043
-653,086	293,417	-0,082	-0,110
-652,072	-163,226	-0,190	0,007
-651,057	37,364	-0,036	-0,023
-650,043	-200,000	-0,021	-0,120
-649,028	50,636	0,064	0,045
-648,014	-103,795	0,017	0,003
-646,999	800,000	-0,034	-0,107
-645,984	-26,908	-0,030	0,013
-644,970	-86,678	-0,052	-0,012
-643,955	60,870	-0,055	-0,040
-642,941	-200,000	-0,027	-0,222
-641,926	329,549	0,055	0,078
-640,911	-73,070	-0,069	-0,019
-639,897	30,510	0,099	0,062
-638,882	251,931	0,036	-0,046
-637,868	47,947	0,040	0,027
-636,853	-200,000	0,013	0,043
-635,838	-95,883	-0,038	-0,007
-634,824	800,000	-0,099	-0,211
-633,809	-200,000	0,005	-0,075
-632,795	800,000	-0,025	0,082
-631,780	25,693	0,047	0,029
-630,765	-110,695	-0,133	0,020
-629,751	-200,000	-0,007	-0,076
-628,736	655,945	-0,028	0,054
-627,722	800,000	-0,031	0,084
-626,707	54,546	0,077	0,054
-625,692	-32,669	0,104	0,042
-624,678	-200,000	-0,007	0,050
-623,663	275,305	0,039	0,051
-622,649	800,000	-0,055	0,119
-621,634	-71,320	0,057	-0,016
-620,619	-200,000	0,026	0,089
-619,605	-200,000	-0,016	0,156
-618,590	800,000	0,054	0,130
-617,576	-41,756	0,059	-0,022
-616,561	375,055	0,073	0,110
-615,546	61,287	-0,063	-0,046
-614,532	-99,826	-0,213	0,039
-613,517	239,561	0,053	-0,064
-612,503	58,182	-0,044	0,031
-611,488	-200,000	0,013	0,052
-610,474	82,944	-0,025	0,020
-609,459	600,223	-0,023	0,042
-608,444	180,748	-0,042	0,045
-607,430	295,674	0,035	-0,047
-606,415	800,000	0,016	-0,045
-605,401	-200,000	-0,031	-0,143
-604,386	286,663	0,007	-0,009
-603,371	109,065	0,021	0,019
-602,357	-89,970	0,065	-0,014
-601,342	266,303	0,058	0,075
-600,328	800,000	-0,039	0,114
-599,313	-200,000	0,040	-0,167
-598,298	-200,000	-0,006	-0,088
-597,284	-200,000	0,014	0,071
-596,269	800,000	-0,033	0,104
-595,255	-200,000	0,007	0,044
-594,240	124,020	0,027	-0,024
-593,225	-200,000	-0,019	-0,095
-592,211	-200,000	-0,025	-0,081
-591,196	111,980	0,035	0,031
-590,182	-200,000	-0,008	-0,073
-589,167	16,615	-0,154	0,089
-588,152	-10,077	0,018	0,009
-587,138	71,142	0,140	0,106
-586,123	26,356	-0,078	-0,047
-585,109	-200,000	-0,006	0,059
-584,094	-200,000	0,008	0,064
-583,079	-52,989	-0,067	-0,022
-582,065	-200,000	-0,016	0,085
-581,050	-44,159	0,062	-0,023
-580,036	-200,000	0,027	-0,099
-579,021	2,171	0,124	-0,065
-578,006	359,626	0,041	-0,060
-576,992	800,000	0,051	-0,155
-575,977	158,160	-0,041	0,042
-574,963	-36,810	0,095	-0,037
-573,948	-164,398	-0,140	0,005
-572,934	-100,037	0,057	0,010
-571,919	365,393	0,043	0,064
-570,904	-44,665	-0,133	0,048
-569,890	-200,000	0,000	0,054
-568,875	194,873	-0,042	-0,047
-567,861	-16,210	-0,059	-0,027
-566,846	-200,000	0,018	0,115
-565,831	-110,694	0,046	0,007
-564,817	-200,000	-0,001	-0,027
-563,802	-122,504	-0,049	-0,006
-562,788	231,510	0,062	0,074
-561,773	-51,047	0,067	0,023
-560,758	-129,340	-0,147	0,015
-559,744	-181,090	0,042	-0,001
-558,729	77,368	0,072	0,056
-557,715	45,901	-0,104	-0,070
-556,700	-200,000	-0,009	-0,043
-555,685	800,000	-0,018	0,048
-554,671	688,549	0,057	-0,110
-553,656	-200,000	0,001	-0,041
-552,642	800,000	0,076	0,159
-551,627	398,047	0,009	0,014
-550,612	-200,000	-0,008	-0,068
-549,598	-200,000	0,042	-0,234
-548,583	-31,370	-0,011	0,005
-547,569	-200,000	-0,008	-0,034
-546,554	-41,450	0,064	0,024
-545,539	608,867	-0,105	-0,193
-544,525	-63,889	-0,070	0,021
-543,510	378,646	0,078	0,117
-542,496	-85,265	-0,137	0,031
-541,481	38,883	-0,047	0,031
-540,466	800,000	0,015	-0,041
-539,452	800,000	-0,042	0,097
-538,437	-97,222	0,095	0,018
-537,423	47,714	0,031	-0,021
-536,408	-200,000	-0,008	0,040
-535,393	423,293	-0,052	-0,082
-534,379	411,511	-0,089	-0,138
-533,364	466,358	-0,038	-0,063
-532,350	43,331	0,136	0,091
-531,335	-28,810	0,104	0,043
-530,321	-114,621	-0,030	-0,004
-529,306	-200,000	0,000	0,002
-528,291	195,536	-0,087	-0,097
-527,277	-200,000	0,001	-0,080
-526,262	800,000	0,032	0,065
-525,248	-177,414	0,169	0,003
-524,233	32,898	-0,080	-0,051
-523,218	52,421	0,061	-0,042
-522,204	-98,058	-0,243	0,045
-521,189	-115,197	0,073	-0,010
-520,175	-59,083	-0,030	-0,009
-519,160	800,000	0,025	0,058
-518,145	123,907	0,027	0,025
-517,131	800,000	-0,069	-0,171
-516,116	-200,000	0,001	-0,206
-515,102	-200,000	-0,011	-0,078
-514,087	132,311	0,041	-0,039
-513,072	800,000	0,040	-0,124
-512,058	-200,000	0,002	0,014
-511,043	-200,000	0,021	-0,157
-510,029	-100,300	0,172	0,031
-509,014	510,158	-0,036	-0,061
-507,999	228,607	0,057	-0,068
-506,985	800,000	0,036	-0,101
-505,970	-98,813	-0,035	-0,006
-504,956	-119,161	0,093	0,012
-503,941	-20,273	0,068	-0,030
-502,926	63,314	-0,104	0,076
-501,912	-200,000	-0,008	-0,057
-500,897	44,514	0,071	-0,047
-499,883	800,000	-0,033	-0,081
-498,868	-200,000	-0,018	-0,064
-497,853	-40,399	-0,108	-0,041
-496,839	-200,000	-0,007	-0,103
-495,824	116,714	0,052	0,047
-494,810	295,427	0,034	0,046
-493,795	192,056	0,046	-0,051
-492,781	-114,617	-0,126	0,017
-491,766	-81,460	-0,109	-0,026
-490,751	800,000	-0,040	0,106
-489,737	77,351	-0,061	0,047
-488,722	478,745	0,075	0,125
-487,708	800,000	-0,024	-0,049
-486,693	-200,000	0,020	0,077
-485,678	628,452	0,022	0,042
-484,664	-30,578	-0,100	0,041
-483,649	-200,000	0,000	0,041
-482,635	-200,000	0,008	-0,072
-481,620	-177,599	0,087	-0,002
-480,605	287,660	-0,054	0,072
-479,591	-22,453	0,086	0,038
-478,576	800,000	0,030	0,093
-477,562	32,514	0,040	-0,025
-476,547	35,901	0,103	-0,066
-475,532	607,945	0,067	0,122
-474,518	261,579	-0,045	0,058
-473,503	800,000	0,008	-0,016
-472,489	326,703	-0,031	0,043
-471,474	18,990	0,026	0,015
-470,459	-91,273	0,041	0,008
-469,445	-200,000	0,009	-0,136
-468,430	800,000	-0,018	0,053
-467,416	800,000	0,063	0,134
-466,401	800,000	-0,009	-0,029
-465,386	-200,000	0,002	-0,006
-464,372	370,243	-0,038	0,057
-463,357	-159,096	-0,144	-0,006
-462,343	-200,000	-0,007	0,041
-461,328	-200,000	0,013	-0,097
-460,313	-136,291	-0,084	0,007
-459,299	-30,545	0,129	0,053
-458,284	-18,545	0,036	0,016
-457,270	-6,343	0,069	0,034
-456,255	-64,785	-0,102	-0,030
-455,241	-200,000	-0,027	0,096
-454,226	-87,702	-0,036	-0,008
-453,211	77,287	-0,078	0,060
-452,197	10,493	-0,093	-0,052
-451,182	286,944	-0,059	0,078
-450,168	29,021	0,065	-0,040
-449,153	-200,000	-0,019	-0,075
-448,138	-16,499	-0,108	0,050
-447,124	-200,000	-0,004	-0,024
-446,109	-200,000	-0,000	0,008
-445,095	-29,385	0,073	-0,030
-444,080	800,000	-0,023	0,066
-443,065	-55,570	-0,129	-0,042
-442,051	-200,000	-0,001	0,008
-441,036	131,601	-0,020	0,019
-440,022	-200,000	-0,027	-0,188
-439,007	-91,132	0,191	-0,040
-437,992	0,335	0,081	0,042
-436,978	87,406	-0,132	0,107
-435,963	138,406	0,148	-0,141
-434,949	-102,929	-0,215	0,037
-433,934	-15,171	-0,055	-0,026
-432,919	158,315	-0,059	-0,060
-431,905	-3,230	0,035	0,018
-430,890	-2,430	0,121	-0,061
-429,876	-200,000	0,007	0,040
-428,861	-155,006	0,057	0,003
-427,846	-200,000	-0,032	-0,136
-426,832	-138,443	0,097	0,008
-425,817	-114,691	-0,092	-0,013
-424,803	-30,758	0,101	0,041
-423,788	-124,534	0,105	0,012
-422,773	416,275	-0,054	0,084
-421,759	173,334	-0,035	-0,036
-420,744	-153,518	0,102	0,005
-419,730	77,926	-0,014	0,011
-418,715	458,346	-0,030	-0,048
-417,701	100,157	0,078	0,066
-416,686	-54,229	0,075	0,025
-415,671	-200,000	-0,012	-0,061
-414,657	74,647	0,097	0,074
-413,642	-200,000	-0,090	-0,000
-412,628	-19,083	-0,135	-0,061
-411,613	-43,233	-0,043	0,016
-410,598	77,781	0,076	0,059
-409,584	-151,665	0,142	0,008
-408,569	355,053	0,071	0,103
-407,555	-200,000	0,007	0,029
-406,540	5,980	-0,032	0,017
-405,525	-200,000	-0,035	0,175
-404,511	-200,000	-0,024	-0,132
-403,496	-200,000	0,010	0,074
-402,482	780,927	0,052	-0,104
-401,467	405,336	-0,041	0,062
-400,452	-200,000	-0,020	-0,096
-399,438	800,000	-0,031	0,084
-398,423	-113,886	0,121	0,017
-397,409	-200,000	-0,019	0,091
-396,394	800,000	-0,026	-0,055
-395,379	-103,331	-0,112	-0,019
-394,365	67,171	0,052	-0,039
-393,350	136,169	0,045	-0,043
-392,336	-3,805	-0,035	0,017
-391,321	-185,294	-0,054	0,001
-390,306	45,294	-0,077	-0,052
-389,292	80,663	-0,180	-0,141
-388,277	800,000	0,037	0,099
-387,263	-154,398	-0,037	0,002
-386,248	703,201	0,068	0,131
-385,233	-200,000	-0,004	-0,021
-384,219	-45,426	0,046	0,017
-383,204	-200,000	0,012	-0,127
-382,190	191,967	-0,148	-0,163
-381,175	212,161	-0,058	0,067
-380,160	-200,000	-0,007	-0,052
-379,146	75,123	0,146	0,112
-378,131	-200,000	0,001	0,089
-377,117	77,422	-0,051	-0,039
-376,102	74,003	-0,059	0,045
-375,088	442,014	-0,022	-0,035
-374,073	800,000	-0,031	-0,082
-373,058	242,599	0,129	0,157
-372,044	-180,400	0,213	-0,003
-371,029	-200,000	-0,014	0,093
-370,015	-200,000	0,015	-0,078
-369,000	126,642	-0,076	0,070
-367,985	637,872	0,032	-0,059
-366,971	126,612	-0,023	0,021
-365,956	305,889	0,109	-0,147
-364,942	15,833	0,061	0,035
-363,927	-164,919	-0,068	-0,002
-362,912	-200,000	0,029	0,135
-361,898	-200,000	-0,009	-0,062
-360,883	-98,785	-0,142	-0,026
-359,869	-81,755	0,049	-0,012
-358,854	-43,157	0,049	-0,018
-357,839	800,000	0,018	0,038
-356,825	800,000	-0,059	0,159
-355,810	-200,000	0,021	0,075
-354,796	800,000	-0,052	0,141
-353,781	800,000	-0,028	0,070
-352,766	492,345	-0,074	-0,124
-351,752	-110,747	-0,095	-0,014
-350,737	-200,000	-0,018	0,074
-349,723	43,096	0,123	0,081
-348,708	800,000	-0,072	0,171
-347,693	7,981	-0,032	-0,017
-346,679	177,350	0,029	0,030
-345,664	-156,444	-0,078	0,003
-344,650	178,161	0,060	-0,063
-343,635	-96,195	0,094	0,018
-342,620	-200,000	0,000	0,005
-341,606	120,475	-0,058	-0,052
-340,591	-200,000	-0,045	-0,227
-339,577	6,827	0,051	-0,028
-338,562	605,317	0,031	-0,056
-337,548	714,049	0,017	-0,033
-336,533	800,000	0,070	-0,178
-335,518	-200,000	0,004	0,039
-334,504	55,646	-0,110	-0,077
-333,489	-71,706	0,110	-0,030
-332,475	125,625	-0,014	0,013
-331,460	75,504	0,021	0,016
-330,445	430,164	-0,021	-0,034
-329,431	-200,000	0,001	0,038
-328,416	56,857	-0,086	-0,061
-327,402	800,000	-0,020	0,060
-326,387	-37,627	-0,110	-0,042
-325,372	232,657	-0,062	-0,074
-324,358	619,660	-0,016	-0,029
-323,343	73,768	0,045	-0,035
-322,329	-38,325	0,055	-0,021
-321,314	-200,000	0,028	0,119
-320,299	138,147	0,075	0,071
-319,285	-71,457	0,124	-0,033
-318,270	69,140	0,111	-0,082
-317,256	-184,126	-0,074	-0,001
-316,241	215,138	0,051	-0,059
-315,226	800,000	0,049	0,120
-314,212	800,000	0,071	0,165
-313,197	-20,531	0,070	-0,031
-312,183	-119,491	0,044	0,005
-311,168	164,517	-0,057	-0,058
-310,153	250,191	-0,036	-0,045
-309,139	-101,178	-0,017	-0,003
-308,124	-163,614	0,134	-0,004
-307,110	103,177	-0,072	0,061
-306,095	800,000	0,012	0,032
-305,080	-63,522	-0,107	0,032
-304,066	225,888	0,076	0,089
-303,051	-35,026	-0,092	-0,036
-302,037	4,367	0,147	-0,078
-301,022	-200,000	-0,039	-0,139
-300,008	800,000	-0,040	0,096
-298,993	40,775	0,121	0,079
-297,978	408,640	-0,102	0,158
-296,964	800,000	-0,043	0,110
-295,949	70,578	-0,034	0,025
-294,935	-11,372	-0,054	0,026
-293,920	13,822	0,149	0,084
-292,905	-200,000	-0,001	0,006
-291,891	-171,563	-0,145	0,003
-290,876	800,000	-0,032	0,094
-289,862	395,358	0,085	-0,129
-288,847	-53,058	-0,161	0,053
-287,832	72,109	0,104	-0,078
-286,818	800,000	-0,004	-0,009
-285,803	-97,494	-0,027	0,005
-284,789	435,906	0,054	-0,085
-283,774	800,000	0,053	0,141
-282,759	31,928	0,128	0,080
-281,745	-68,189	-0,058	-0,016
-280,730	800,000	0,041	-0,091
-279,716	-200,000	0,034	-0,123
-278,701	-123,149	-0,143	0,016
-277,686	-69,623	0,149	0,041
-276,672	-200,000	-0,048	0,159
-275,657	522,205	-0,030	-0,051
-274,643	800,000	-0,065	-0,193
-273,628	-200,000	0,019	0,066
-272,613	16,660	-0,102	-0,058
-271,599	800,000	0,049	0,122
-270,584	-200,000	-0,012	-0,098
-269,570	155,859	-0,039	-0,039
-268,555	139,025	-0,056	0,053
-267,540	527,938	0,081	-0,138
-266,526	84,924	0,060	-0,047
-265,511	362,986	-0,029	-0,042
-264,497	-157,030	0,060	-0,003
-263,482	-114,736	0,117	-0,016
-262,467	800,000	0,046	0,096
-261,453	-200,000	0,025	0,114
-260,438	104,215	-0,044	-0,037
-259,424	-200,000	0,040	0,194
-258,409	785,753	-0,026	-0,052
-257,395	-147,444	0,067	0,004
-256,380	-200,000	0,037	-0,118
-255,365	-200,000	-0,005	0,134
-254,351	33,906	-0,085	-0,054
-253,336	-73,940	0,050	0,013
-252,322	-72,417	-0,043	0,011
-251,307	-200,000	-0,005	-0,145
-250,292	16,591	-0,049	-0,028
-249,278	-114,886	0,049	0,007
-248,263	441,216	0,027	-0,042
-247,249	146,650	-0,104	0,102
-246,234	2,323	-0,078	0,041
-245,219	-200,000	-0,019	-0,082
-244,205	35,350	0,065	-0,041
-243,190	295,797	-0,058	-0,078
-242,176	-200,000	0,003	0,073
-241,161	-61,290	-0,141	0,043
-240,146	-22,941	-0,066	0,029
-239,132	-0,281	-0,043	-0,022
-238,117	297,920	-0,031	0,042
-237,103	-200,000	0,015	-0,050
-236,088	800,000	-0,007	0,017
-235,073	-49,482	0,079	0,027
-234,059	31,931	-0,164	0,102
-233,044	-148,815	0,061	-0,004
-232,030	-132,763	-0,078	-0,007
-231,015	-132,865	0,018	-0,002
-230,000	-200,000	-0,010	0,048
-228,986	-0,105	0,043	-0,022
-227,971	469,767	0,055	0,090
-226,957	461,450	-0,053	0,085
-225,942	800,000	0,038	-0,112
-224,927	45,101	-0,109	-0,073
-223,913	-200,000	-0,007	-0,025
-222,898	-100,835	0,067	0,012
-221,884	137,754	0,092	0,087
-220,869	201,522	0,085	0,095
-219,855	-200,000	0,001	0,142
-218,840	-200,000	-0,010	0,074
-217,825	800,000	-0,043	-0,091
-216,811	-25,335	-0,102	0,044
-215,796	38,129	-0,088	-0,057
-214,782	-40,722	0,070	-0,026
-213,767	-116,134	0,044	-0,006
-212,752	800,000	-0,048	0,125
-211,738	-200,000	-0,008	0,046
-210,723	800,000	0,011	-0,032
-209,709	198,809	0,098	0,109
-208,694	-200,000	-0,009	-0,079
-207,679	-49,793	-0,116	-0,040
-206,665	-200,000	-0,010	0,117
-205,650	-49,505	0,053	-0,018
-204,636	-200,000	-0,025	0,084
-203,621	-169,277	0,120	0,003
-202,606	-200,000	-0,011	-0,164
-201,592	555,304	0,057	0,099
-200,577	6,882	-0,061	0,033
-199,563	-200,000	0,001	-0,067
-198,548	35,047	-0,018	-0,011
-197,533	-200,000	-0,017	0,075
-196,519	138,759	0,081	-0,077
-195,504	-66,260	0,067	-0,019
-194,490	-107,514	0,166	-0,026
-193,475	-28,198	-0,132	0,055
-192,460	-20,562	0,135	0,060
-191,446	-33,823	-0,154	0,061
-190,431	-92,334	0,180	-0,036
-189,417	416,677	0,048	0,074
-188,402	-200,000	0,009	0,047
-187,387	505,756	-0,058	0,097
-186,373	-119,446	0,156	-0,019
-185,358	16,360	-0,052	0,030
-184,344	-59,927	0,127	-0,039
-183,329	-200,000	-0,015	0,058
-182,315	-70,128	-0,055	-0,015
-181,300	416,424	0,061	-0,094
-180,285	13,012	-0,050	-0,028
-179,271	775,587	0,002	-0,005
-178,256	-23,094	-0,074	-0,032
-177,242	-141,936	0,033	0,002
-176,227	-69,521	-0,045	0,012
-175,212	66,152	0,088	-0,064
-174,198	-200,000	-0,016	-0,086
-173,183	-2,194	-0,111	-0,056
-172,169	482,312	-0,088	-0,144
-171,154	259,507	-0,066	-0,083
-170,139	800,000	0,083	-0,188
-169,125	798,779	-0,041	0,082
-168,110	-31,076	0,164	0,066
-167,096	2,185	-0,112	-0,058
-166,081	102,642	-0,053	-0,045
-165,066	-126,299	-0,056	0,006
-164,052	800,000	0,027	-0,055
-163,037	-122,722	-0,121	-0,014
-162,023	-200,000	0,006	-0,055
-161,008	18,733	0,050	0,029
-159,993	32,317	-0,057	0,035
-158,979	-134,887	-0,041	0,004
-157,964	8,591	-0,051	-0,028
-156,950	-200,000	-0,030	-0,116
-155,935	-41,373	0,044	-0,016
-154,920	-200,000	-0,003	-0,030
-153,906	-200,000	-0,007	0,189
-152,891	-200,000	-0,035	-0,117
-151,877	20,499	0,137	0,080
-150,862	259,101	-0,030	0,037
-149,847	9,604	0,097	0,053
-148,833	318,623	0,066	-0,091
-147,818	83,240	0,052	0,041
-146,804	-54,768	0,078	0,025
-145,789	-114,227	-0,111	-0,015
-144,775	-17,335	-0,122	0,055
-143,760	68,779	0,054	-0,040
-142,745	583,116	-0,034	-0,060
-141,731	782,610	0,027	0,053
-140,716	-149,704	-0,035	0,002
-139,702	-93,010	0,005	-0,001
-138,687	-110,583	-0,049	0,007
-137,672	215,354	0,026	0,030
-136,658	800,000	0,028	-0,077
-135,643	-124,141	-0,210	-0,023
-134,629	46,117	0,030	0,020
-133,614	-21,150	-0,072	0,032
-132,599	800,000	0,040	0,091
-131,585	20,592	0,008	-0,005
-130,570	406,656	-0,036	-0,055
-129,556	-200,000	0,001	-0,032
-128,541	142,648	-0,135	-0,129
-127,526	800,000	-0,050	-0,151
-126,512	76,791	0,134	-0,102
-125,497	-200,000	-0,015	0,066
-124,483	-74,186	0,068	0,017
-123,468	-85,497	-0,148	-0,033
-122,453	-200,000	0,037	-0,126
-121,439	-22,214	-0,018	0,008
-120,424	800,000	-0,020	0,058
-119,410	-79,133	0,112	0,027
-118,395	186,831	0,023	0,025
-117,380	-93,834	0,198	-0,039
-116,366	74,636	-0,136	-0,103
-115,351	76,814	-0,043	-0,033
-114,337	800,000	-0,042	0,114
-113,322	-32,112	-0,049	0,020
-112,307	-148,087	0,101	-0,006
-111,293	-94,391	0,163	0,032
-110,278	800,000	0,028	0,057
-109,264	-104,057	0,027	0,004
-108,249	-200,000	-0,036	-0,121
-107,234	124,196	0,031	0,028
-106,220	800,000	0,011	-0,031
-105,205	243,867	-0,096	0,116
-104,191	137,970	-0,068	0,064
-103,176	-200,000	-0,013	0,143
-102,162	-200,000	0,011	-0,093
-101,147	673,889	0,034	0,064
-100,132	205,163	-0,061	-0,068
-99,118	-74,107	0,047	0,012
-98,103	-93,189	-0,053	-0,010
-97,089	-116,568	0,033	0,004
-96,074	31,496	0,086	0,053
-95,059	604,367	-0,043	-0,077
-94,045	800,000	0,028	-0,056
-93,030	-61,037	-0,071	0,022
-92,016	800,000	0,046	0,103
-91,001	-200,000	-0,007	0,071
-89,986	-200,000	0,001	-0,010
-88,972	-200,000	0,005	0,017
-87,957	712,417	-0,031	-0,060
-86,943	-13,537	0,127	-0,059
-85,928	-200,000	-0,017	-0,056
-84,913	135,049	0,025	0,024
-83,899	195,630	-0,107	-0,117
-82,884	-200,000	-0,003	0,038
-81,870	117,916	0,030	0,026
-80,855	-85,656	0,073	-0,016
-79,840	206,076	0,022	0,025
-78,826	86,577	-0,100	-0,079
-77,811	-200,000	0,026	-0,132
-76,797	800,000	-0,049	-0,103
-75,782	4,416	0,066	0,034
-74,767	178,757	-0,033	0,034
-73,753	46,169	0,059	0,039
-72,738	-58,288	0,076	0,023
-71,724	24,293	-0,030	-0,018
-70,709	-13,315	-0,158	0,073
-69,694	200,429	0,094	-0,104
-68,680	-200,000	0,024	-0,083
-67,665	241,842	-0,035	-0,042
-66,651	152,807	0,064	0,063
-65,636	247,518	0,121	0,147
-64,622	242,400	-0,043	-0,051
-63,607	688,226	-0,052	-0,098
-62,592	-200,000	0,025	-0,114
-61,578	-42,059	-0,047	0,017
-60,563	-200,000	0,001	0,024
-59,549	647,284	-0,021	0,039
-58,534	91,344	-2,657	-2,141
-57,519	39,469	0,517	-0,332
-56,505	800,000	-1,770	-5,389
-55,490	472,983	1,176	1,910
-54,476	800,000	5,253	11,386
-53,461	-200,000	22,432	348,370
-52,446	800,000	760,984	2289,446
-51,432	510,706	1644,300	2756,643
-50,417	96,324	1605,743	1317,846
-49,403	64,252	1262,799	911,444
-48,388	22,719	1015,626	595,546
-47,373	19,472	983,403	565,931
-46,359	12,772	970,436	536,563
-45,344	8,474	967,073	520,623
-44,330	8,921	965,028	520,965
-43,315	7,955	963,273	516,843
-42,300	7,879	962,092	515,940
-41,286	7,844	961,139	515,295
-40,271	7,828	960,084	514,659
-39,257	7,854	959,370	514,338
-38,242	7,805	958,573	513,734
-37,227	7,806	957,611	513,201
-36,213	7,775	956,953	512,726
-35,198	7,794	955,749	512,121
-34,184	7,855	955,205	512,009
-33,169	7,772	954,329	511,250
-32,154	7,839	953,479	510,990
-31,140	7,826	952,315	510,306
-30,125	7,825	951,773	509,992
-29,111	7,850	950,815	509,536
-28,096	7,899	950,434	509,471
-27,082	7,830	949,831	508,906
-26,067	7,855	948,933	508,484
-25,052	7,810	948,185	507,920
-24,038	7,775	947,498	507,418
-23,023	7,782	946,775	507,033
-22,009	7,787	946,175	506,707
-20,994	7,787	945,596	506,376
-19,979	7,837	944,954	506,175
-18,965	7,808	944,374	505,752
-17,950	7,830	943,561	505,364
-16,936	7,797	943,017	504,947
-15,921	7,763	942,348	504,462
-14,906	7,737	941,603	503,961
-13,892	7,734	941,004	503,611
-12,877	7,655	940,514	503,076
-11,863	7,629	939,786	502,585
-10,848	7,720	939,271	502,578
-9,833	7,820	938,722	502,583
-8,819	7,797	938,177	502,197
-7,804	7,725	937,542	501,610
-6,790	7,701	936,913	501,176
-5,775	7,729	936,473	501,010
-4,760	7,763	935,615	500,640
-3,746	7,726	935,313	500,341
-2,731	7,614	934,330	499,439
-1,717	7,581	933,641	498,947
-0,702	7,608	933,215	498,784
0,313	7,389	932,470	498,450
1,327	10,872	930,071	508,088
2,342	19,544	777,986	447,686
3,356	14,384	446,256	249,031
4,371	-11,772	311,109	145,912
5,386	-15,700	293,508	133,692
6,400	-17,936	287,635	128,798
7,415	-17,750	284,847	127,720
8,429	-18,689	283,168	126,044
9,444	-18,811	282,276	125,518
10,459	-18,617	281,711	125,442
11,473	-18,633	281,016	125,107
12,488	-18,459	280,481	125,024
13,502	-18,457	280,085	124,839
14,517	-18,470	279,793	124,685
15,531	-18,519	279,256	124,388
16,546	-18,351	278,926	124,391
17,561	-18,366	278,640	124,237
18,575	-18,407	278,367	124,065
19,590	-18,497	277,702	123,673
20,604	-18,115	277,461	123,917
21,619	-18,160	277,039	123,675
22,634	-18,219	276,901	123,546
23,648	-18,300	276,387	123,230
24,663	-18,337	276,338	123,161
25,677	-18,541	276,098	122,851
26,692	-18,132	275,592	123,001
27,707	-18,296	275,446	122,770
28,721	-18,350	275,195	122,597
29,736	-18,309	274,835	122,463
30,750	-18,379	274,744	122,346
31,765	-18,364	274,425	122,207
32,780	-18,398	274,124	122,031
33,794	-18,199	273,817	122,070
34,809	-18,224	273,502	121,895
35,823	-18,462	273,491	121,656
36,838	-18,322	273,125	121,613
37,853	-18,288	272,832	121,504
38,867	-18,345	272,784	121,418
39,882	-18,166	272,442	121,422
40,896	-18,408	272,274	121,111
41,911	-18,311	271,889	121,019
42,926	-18,358	271,747	120,901
43,940	-18,100	271,324	120,942
44,955	-18,171	271,206	120,813
45,969	-18,201	270,881	120,629
46,984	-18,330	270,767	120,448
47,999	-17,989	270,570	120,665
49,013	-18,065	270,587	120,593
50,028	-18,093	270,110	120,343
51,042	-18,103	269,903	120,231
52,057	-18,045	269,724	120,194
53,071	-18,191	269,496	119,947
54,086	-17,984	269,184	119,988
55,101	-18,045	269,083	119,876
56,115	-18,091	268,757	119,678
57,130	-18,136	268,471	119,499
58,144	-18,191	268,180	119,308
59,159	-18,337	268,047	119,104
60,174	-18,303	267,784	119,008
61,188	-18,410	267,511	118,778
62,203	-18,200	267,373	118,898
63,217	-18,145	267,165	118,845
64,232	-18,294	266,937	118,597
65,247	-18,339	266,715	118,448
66,261	-18,297	266,403	118,336
67,276	-18,406	266,351	118,203
68,290	-18,093	265,923	118,287
69,305	-18,113	265,785	118,197
70,320	-18,255	265,611	117,980
71,334	-18,084	265,386	118,025
72,349	-18,347	265,199	117,693
73,363	-18,164	264,799	117,671
74,378	-18,281	264,595	117,464
75,393	-18,182	264,406	117,459
76,407	-18,141	264,093	117,346
77,422	-18,056	263,939	117,344
78,436	-18,297	263,739	117,027
79,451	-18,387	263,509	116,834
80,466	-18,118	263,222	116,938
81,480	-18,209	263,190	116,832
82,495	-18,146	262,806	116,707
83,509	-18,054	262,760	116,759
84,524	-18,157	262,538	116,558
85,539	-18,095	262,331	116,511
86,553	-18,178	262,088	116,319
87,568	-18,166	261,760	116,173
88,582	-18,135	261,589	116,115
89,597	-18,178	261,447	116,003
90,611	-18,206	261,174	115,846
91,626	-18,172	261,068	115,820
92,641	-18,278	260,809	115,600
93,655	-18,139	260,522	115,586
94,670	-18,229	260,309	115,401
95,684	-18,269	260,157	115,288
96,699	-18,185	259,852	115,217
97,714	-18,179	259,743	115,163
98,728	-18,148	259,640	115,136
99,743	-17,994	259,425	115,166
100,757	-18,034	259,190	115,016
101,772	-18,084	258,941	114,850
102,787	-18,383	258,869	114,545
103,801	-18,216	258,677	114,597
104,816	-18,143	258,388	114,523
105,830	-18,181	258,175	114,385
106,845	-18,246	257,950	114,218
107,860	-18,241	257,745	114,122
108,874	-18,084	257,555	114,165
109,889	-18,187	257,294	113,949
110,903	-18,226	257,092	113,815
111,918	-18,204	256,964	113,767
112,933	-18,167	256,842	113,736
113,947	-18,030	256,391	113,645
114,962	-18,172	256,320	113,479
115,976	-18,195	256,216	113,404
116,991	-18,396	255,820	113,043
118,006	-18,322	255,785	113,082
119,020	-18,250	255,561	113,036
120,035	-18,021	255,478	113,187
121,049	-18,163	255,206	112,934
122,064	-18,093	254,951	112,871
123,079	-18,283	255,008	112,722
124,093	-18,227	254,718	112,632
125,108	-18,082	254,324	112,574
126,122	-18,257	254,287	112,396
127,137	-18,081	253,980	112,402
128,151	-18,041	253,792	112,343
129,166	-18,043	253,491	112,198
130,181	-18,080	253,319	112,080
131,195	-18,212	253,246	111,924
132,210	-18,149	253,040	111,878
133,224	-18,082	252,701	111,775
134,239	-18,022	252,547	111,748
135,254	-18,296	252,393	111,436
136,268	-18,076	252,190	111,524
137,283	-18,088	252,000	111,420
138,297	-18,069	251,741	111,312
139,312	-18,024	251,506	111,237
140,327	-18,089	251,383	111,116
141,341	-18,243	251,190	110,891
142,356	-18,304	251,088	110,783
143,370	-18,158	250,686	110,720
144,385	-18,099	250,579	110,713
145,400	-18,156	250,592	110,661
146,414	-18,245	250,239	110,419
147,429	-18,220	250,098	110,369
148,443	-18,074	249,947	110,416
149,458	-18,186	249,749	110,224
150,473	-18,078	249,515	110,202
151,487	-18,082	249,331	110,108
152,502	-18,024	249,105	110,047
153,516	-18,193	248,968	109,834
154,531	-17,981	248,669	109,871
155,546	-18,104	248,532	109,697
156,560	-18,019	248,348	109,678
157,575	-18,129	248,156	109,491
158,589	-17,989	247,990	109,525
159,604	-18,228	247,935	109,290
160,619	-18,195	247,615	109,167
161,633	-18,010	247,342	109,192
162,648	-18,197	247,410	109,055
163,662	-18,255	247,246	108,925
164,677	-18,079	247,020	108,963
165,692	-18,177	246,873	108,807
166,706	-18,211	246,572	108,636
167,721	-18,038	246,375	108,684
168,735	-17,961	246,298	108,704
169,750	-18,108	246,051	108,463
170,764	-18,022	245,970	108,489
171,779	-18,026	245,671	108,344
172,794	-17,938	245,509	108,336
173,808	-17,992	245,405	108,236
174,823	-18,044	245,409	108,185
175,837	-17,787	245,006	108,211
176,852	-18,144	244,954	107,882
177,867	-18,158	244,830	107,806
178,881	-18,159	244,646	107,715
179,896	-18,177	244,414	107,588
180,910	-17,981	244,369	107,720
181,925	-17,991	243,826	107,463
182,940	-18,165	243,846	107,320
183,954	-18,200	243,620	107,182
184,969	-17,935	243,535	107,352
185,983	-18,082	243,361	107,146
186,998	-18,042	243,132	107,068
188,013	-18,084	242,970	106,952
189,027	-18,270	242,933	106,774
190,042	-18,157	242,653	106,734
191,056	-18,008	242,552	106,802
192,071	-18,197	242,387	106,566
193,086	-18,045	241,978	106,501
194,100	-18,393	241,934	106,187
195,115	-18,146	241,742	106,295
196,129	-18,056	241,529	106,265
197,144	-18,099	241,331	106,133
198,159	-17,996	240,955	106,043
199,173	-18,140	240,885	105,885
200,188	-18,078	240,769	105,876
201,202	-18,073	240,576	105,785
202,217	-18,087	240,601	105,775
203,232	-17,840	240,305	105,836
204,246	-18,163	240,075	105,464
205,261	-18,176	239,893	105,364
206,275	-16,972	240,302	106,509
207,290	-12,524	241,733	110,757
208,304	-6,123	243,964	117,021
209,319	-2,144	244,912	120,733
210,334	-0,943	245,066	121,784
211,348	-0,355	245,373	122,409
212,363	0,047	245,350	122,717
213,377	0,363	245,289	122,934
214,392	0,789	245,170	123,213
215,407	0,797	245,298	123,273
216,421	1,091	245,002	123,353
217,436	1,016	244,913	123,236
218,450	1,373	244,661	123,390
219,465	1,093	244,436	123,038
220,480	1,351	244,411	123,225
221,494	1,039	244,234	122,869
222,509	0,947	244,025	122,679
223,523	0,479	243,749	122,148
224,538	0,525	243,489	122,044
225,553	0,453	243,232	121,846
226,567	0,500	243,047	121,781
227,582	0,582	243,027	121,826
228,596	0,522	242,806	121,656
229,611	0,603	242,755	121,685
230,626	0,571	242,382	121,462
231,640	0,629	242,465	121,539
232,655	0,401	242,207	121,215
233,669	0,489	241,935	121,139
234,684	0,430	241,836	121,031
235,699	0,529	241,756	121,060
236,713	0,085	241,720	120,673
237,728	0,665	241,306	120,922
238,742	0,497	241,145	120,696
239,757	0,533	241,043	120,663
240,772	0,441	240,981	120,547
241,786	0,465	240,754	120,442
242,801	0,415	240,645	120,337
243,815	0,423	240,494	120,257
244,830	0,555	240,173	120,191
245,844	0,596	240,063	120,158
246,859	0,425	240,094	120,027
247,874	0,364	239,819	119,830
248,888	0,636	239,647	119,950
249,903	0,473	239,555	119,763
250,917	0,649	239,408	119,819
251,932	0,637	239,246	119,718
252,947	0,520	239,178	119,580
253,961	0,477	238,980	119,436
254,976	0,570	238,752	119,386
255,990	0,578	238,584	119,297
257,005	0,531	238,411	119,163
258,020	0,623	238,343	119,192
259,034	0,611	238,166	119,082
260,049	0,697	237,913	119,013
261,063	0,360	237,826	118,693
262,078	0,648	237,526	118,760
263,093	0,366	237,624	118,576
264,107	0,267	237,374	118,362
265,122	0,554	237,146	118,464
266,136	0,636	236,891	118,391
267,151	0,572	236,849	118,309
268,166	0,520	236,831	118,248
269,180	0,627	236,437	118,125
270,195	0,500	236,386	117,989
271,209	0,369	236,367	117,866
272,224	0,525	236,048	117,820
273,239	0,569	235,949	117,794
274,253	0,743	235,704	117,798
275,268	0,384	235,781	117,544
276,282	0,630	235,498	117,585
277,297	0,327	235,344	117,260
278,312	0,525	235,141	117,304
279,326	0,437	235,144	117,226
280,341	0,538	235,040	117,243
281,355	0,583	234,814	117,154
282,370	0,641	234,694	117,129
283,384	0,553	234,673	117,040
284,399	0,521	234,232	116,784
285,414	0,592	234,070	116,749
286,428	0,477	233,986	116,606
287,443	0,549	233,900	116,610
288,457	0,628	233,638	116,530
289,472	0,587	233,619	116,478
290,487	0,628	233,410	116,396
291,501	0,445	233,271	116,174
292,516	0,793	232,994	116,295
293,530	0,622	232,953	116,132
294,545	0,622	232,905	116,097
295,560	0,707	232,780	116,091
296,574	0,842	232,478	116,034
297,589	0,717	232,310	115,844
298,603	0,624	232,245	115,729
299,618	0,823	232,065	115,782
300,633	0,438	232,053	115,469
301,647	0,657	231,869	115,536
302,662	0,857	231,729	115,609
303,676	0,940	231,621	115,609
304,691	0,698	231,374	115,290
305,706	0,694	231,235	115,208
306,720	0,769	231,295	115,285
307,735	0,838	230,994	115,177
308,749	0,915	230,922	115,190
309,764	0,755	230,646	114,919
310,779	0,858	230,429	114,880
311,793	0,916	230,363	114,881
312,808	0,725	230,208	114,648
313,822	0,754	230,130	114,621
314,837	1,018	229,833	114,664
315,852	0,826	229,662	114,422
316,866	0,976	229,587	114,488
317,881	0,672	229,480	114,194
318,895	0,587	229,354	114,056
319,910	0,868	229,060	114,113
320,925	0,880	229,060	114,112
321,939	0,741	228,938	113,936
322,954	0,777	228,909	113,938
323,968	0,875	228,645	113,871
324,983	1,043	228,323	113,828
325,997	0,695	228,439	113,612
327,012	0,769	228,298	113,588
328,027	0,612	228,069	113,345
329,041	0,756	227,956	113,387
330,056	0,928	227,893	113,476
331,070	1,055	227,577	113,404
332,085	0,711	227,376	113,035
333,100	0,957	227,376	113,210
334,114	0,877	227,084	112,994
335,129	0,732	226,992	112,830
336,143	0,915	226,866	112,894
337,158	1,079	226,679	112,914
338,173	1,019	226,510	112,774
339,187	0,890	226,583	112,704
340,202	0,826	226,358	112,534
341,216	0,722	225,998	112,268
342,231	0,907	226,039	112,416
343,246	0,935	225,851	112,334
344,260	1,098	225,781	112,411
345,275	0,805	225,735	112,159
346,289	0,925	225,529	112,136
347,304	1,010	225,296	112,074
348,319	1,050	225,140	112,016
349,333	0,967	225,130	111,939
350,348	1,031	224,753	111,789
351,362	0,915	224,718	111,676
352,377	1,055	224,554	111,688
353,392	0,888	224,621	111,588
354,406	1,230	224,177	111,610
355,421	191,279	1311,637	1374,728
356,435	153,143	1443,978	1374,564
