DTS Sentinel unit serial number:	SN410029Multiplexer serial number:	ORYXHardware model number:	OX2-SRSoftware version number:	ORYX F/W v4,00 Oryx Data Collector v3.7.2.0data status	okinstallation	B5 Nyhavnadifferential loss correction	single-endedforward channel	channel 2reverse channel	N/Adate	2023/12/13time	03:47:13forward acquisition time	300,00reverse acquisition time	0,00gamma	499,1914k internal	0,3160k external	0,3160temperature offset calibration	1,0000default loss term (dB/km)	0,3820temperature slope calibration	1,0000multiplexer offset coefficient	1,0000multiplexer slope coefficient	1,0000fibre end	0,00T internal ref (°C)	13,95T ext. ref 1 (°C)	-2,44T ext. ref 2 (°C)	-2,75length (m)	temperature (°C)	Stokes	anti-Stokes-744,400	800,000	-0,035	-0,108
-743,385	-37,844	-0,308	-0,120
-742,371	209,851	0,147	0,170
-741,356	-18,504	-0,204	-0,093
-740,342	22,723	0,118	-0,071
-739,327	-106,691	-0,421	-0,068
-738,312	113,840	0,188	0,168
-737,298	-103,326	-0,334	-0,058
-736,283	-91,112	0,216	0,045
-735,269	-58,293	-0,264	0,084
-734,254	-141,212	0,082	-0,006
-733,239	49,246	-0,414	-0,287
-732,225	-94,503	0,129	0,026
-731,210	239,694	0,047	0,057
-730,196	41,308	-0,133	0,089
-729,181	136,073	-0,027	-0,026
-728,167	-140,434	-0,111	0,008
-727,152	-200,000	0,015	0,069
-726,137	800,000	0,010	-0,028
-725,123	-200,000	0,018	-0,120
-724,108	-200,000	-0,015	-0,072
-723,094	618,280	-0,043	-0,079
-722,079	132,427	-0,075	0,071
-721,064	-11,766	-0,076	-0,037
-720,050	219,156	-0,017	-0,021
-719,035	281,138	-0,084	-0,110
-718,021	143,649	-0,092	-0,091
-717,006	-81,778	0,024	-0,006
-715,991	-7,363	-0,070	-0,035
-714,977	160,069	0,083	-0,085
-713,962	461,773	-0,068	0,113
-712,948	102,550	-0,073	-0,063
-711,933	-200,000	0,033	0,117
-710,918	-126,306	0,132	0,014
-709,904	-63,144	-0,229	-0,069
-708,889	557,494	-0,071	-0,126
-707,875	-12,890	0,040	0,019
-706,860	257,395	0,092	-0,116
-705,845	119,015	0,092	0,083
-704,831	-51,718	-0,020	0,007
-703,816	43,358	0,061	-0,041
-702,802	618,997	-0,077	0,144
-701,787	800,000	-0,029	-0,086
-700,772	28,617	-0,078	-0,049
-699,758	-96,868	-0,075	0,014
-698,743	648,831	0,037	0,069
-697,729	296,921	-0,055	0,074
-696,714	663,269	-0,032	-0,060
-695,699	201,061	-0,093	-0,105
-694,685	-13,534	-0,079	0,038
-693,670	-200,000	-0,021	-0,136
-692,656	-27,181	0,007	-0,003
-691,641	-37,567	-0,103	0,040
-690,627	31,092	0,152	0,095
-689,612	55,665	-0,035	-0,025
-688,597	800,000	-0,016	0,037
-687,583	800,000	0,026	-0,063
-686,568	-200,000	-0,022	-0,125
-685,554	-56,771	-0,085	0,027
-684,539	-200,000	0,040	-0,198
-683,524	-20,028	-0,064	-0,029
-682,510	-51,998	-0,064	0,022
-681,495	-87,481	-0,085	-0,019
-680,481	80,642	-0,161	-0,127
-679,466	387,395	0,032	0,049
-678,451	418,249	-0,046	-0,072
-677,437	-133,021	-0,022	-0,002
-676,422	27,994	-0,003	0,002
-675,408	-107,623	-0,083	-0,013
-674,393	-117,139	0,101	-0,013
-673,378	225,733	0,081	-0,097
-672,364	183,681	-0,004	0,005
-671,349	-110,853	-0,036	0,005
-670,335	-121,522	0,083	0,010
-669,320	52,612	0,056	-0,039
-668,305	-169,446	0,028	-0,001
-667,291	-200,000	0,012	-0,082
-666,276	-1,298	-0,028	-0,014
-665,262	800,000	-0,037	-0,106
-664,247	507,886	-0,013	-0,023
-663,232	130,201	0,085	0,080
-662,218	-68,375	-0,021	-0,006
-661,203	537,099	0,022	0,039
-660,189	800,000	0,034	-0,073
-659,174	-52,555	-0,132	-0,045
-658,159	636,103	-0,015	-0,028
-657,145	-200,000	-0,012	-0,075
-656,130	-51,456	-0,019	0,007
-655,116	47,179	0,079	0,054
-654,101	-115,444	0,034	-0,005
-653,086	239,670	0,021	-0,025
-652,072	-94,210	-0,104	-0,021
-651,057	-83,314	-0,178	-0,042
-650,043	254,725	0,155	-0,195
-649,028	96,093	0,095	0,080
-648,014	-200,000	0,007	0,068
-646,999	-200,000	-0,024	-0,109
-645,984	32,674	-0,069	-0,043
-644,970	-200,000	-0,009	-0,101
-643,955	47,511	0,124	-0,084
-642,941	-92,092	-0,109	-0,022
-641,926	738,329	-0,070	0,137
-640,911	187,881	0,074	-0,082
-639,897	-81,698	0,102	0,024
-638,882	86,882	-0,069	-0,056
-637,868	-53,271	-0,013	-0,004
-636,853	-104,242	-0,116	-0,020
-635,838	-200,000	-0,012	-0,232
-634,824	128,690	-0,059	-0,055
-633,809	-155,704	0,059	0,003
-632,795	-200,000	0,021	0,088
-631,780	519,090	-0,014	-0,024
-630,765	-9,361	0,054	-0,026
-629,751	-95,890	-0,105	-0,020
-628,736	-169,368	0,082	0,002
-627,722	77,937	0,025	0,020
-626,707	236,799	0,059	0,072
-625,692	80,906	0,110	-0,087
-624,678	-70,236	-0,041	-0,011
-623,663	-14,540	0,111	-0,052
-622,649	-51,464	-0,054	0,018
-621,634	736,306	-0,043	0,085
-620,619	365,971	-0,087	0,130
-619,605	46,651	0,060	-0,041
-618,590	-200,000	-0,026	-0,096
-617,576	62,987	-0,116	-0,085
-616,561	3,217	0,073	-0,039
-615,546	2,081	0,086	-0,045
-614,532	316,605	-0,041	-0,057
-613,517	52,004	0,034	-0,024
-612,503	-200,000	-0,005	-0,051
-611,488	497,750	0,019	0,032
-610,474	800,000	-0,027	-0,072
-609,459	173,383	0,025	-0,026
-608,444	481,951	0,042	0,071
-607,430	-45,702	-0,058	-0,021
-606,415	-200,000	-0,008	-0,159
-605,401	-172,515	0,058	0,001
-604,386	-200,000	0,012	0,067
-603,371	175,696	0,060	-0,064
-602,357	-61,407	-0,112	-0,034
-601,342	-88,782	-0,035	0,008
-600,328	62,210	0,059	0,043
-599,313	-97,822	-0,021	-0,004
-598,298	-51,249	-0,111	-0,038
-597,284	-68,621	0,030	0,008
-596,269	391,454	0,088	0,134
-595,255	194,595	-0,075	-0,083
-594,240	-67,365	-0,068	0,019
-593,225	36,153	0,018	-0,012
-592,211	121,913	-0,122	-0,112
-591,196	-200,000	0,018	0,061
-590,182	90,609	-0,062	0,051
-589,167	800,000	0,041	0,106
-588,152	323,848	-0,022	0,030
-587,138	176,465	0,018	0,019
-586,123	-200,000	0,023	-0,142
-585,109	-200,000	0,009	-0,104
-584,094	-200,000	-0,003	0,134
-583,079	39,619	-0,062	0,041
-582,065	96,847	0,056	0,047
-581,050	-200,000	-0,004	-0,056
-580,036	-200,000	-0,126	0,000
-579,021	-200,000	-0,005	0,028
-578,006	91,299	-0,128	-0,105
-576,992	66,510	0,004	-0,003
-575,977	185,801	0,114	-0,124
-574,963	-200,000	-0,005	0,094
-573,948	-20,076	0,097	-0,044
-572,934	240,863	0,038	0,047
-571,919	-19,561	-0,175	-0,079
-570,904	728,234	-0,038	0,075
-569,890	618,908	-0,025	-0,047
-568,875	-200,000	0,052	-0,184
-567,861	359,400	0,073	-0,106
-566,846	137,537	0,077	0,074
-565,831	-85,426	-0,093	-0,021
-564,817	-95,542	0,115	0,022
-563,802	-32,565	-0,056	-0,023
-562,788	133,712	0,073	0,070
-561,773	-12,565	0,064	-0,030
-560,758	348,800	0,007	-0,010
-559,744	77,505	0,012	0,009
-558,729	2,116	-0,105	0,055
-557,715	-20,029	-0,117	-0,052
-556,700	-43,402	-0,073	-0,027
-555,685	-200,000	-0,021	-0,121
-554,671	-200,000	-0,057	-0,205
-553,656	-200,000	-0,001	0,052
-552,642	-200,000	-0,016	0,082
-551,627	800,000	0,049	0,105
-550,612	-54,684	-0,141	-0,046
-549,598	-200,000	0,009	0,087
-548,583	265,777	-0,078	-0,100
-547,569	-200,000	0,012	0,151
-546,554	-200,000	-0,058	0,198
-545,539	303,187	0,013	0,017
-544,525	525,786	0,031	0,053
-543,510	800,000	0,009	-0,022
-542,496	70,347	-0,074	-0,056
-541,481	-117,316	0,150	-0,020
-540,466	-32,633	0,068	0,028
-539,452	-108,652	-0,143	-0,022
-538,437	605,486	-0,026	0,047
-537,423	212,946	0,068	0,079
-536,408	800,000	0,036	-0,073
-535,393	-89,023	-0,104	-0,022
-534,379	-128,515	-0,090	0,009
-533,364	-2,891	0,075	0,038
-532,350	-76,555	-0,078	0,020
-531,335	-49,650	-0,061	-0,021
-530,321	298,525	0,046	0,062
-529,306	-69,926	-0,026	-0,007
-528,291	227,383	0,028	-0,033
-527,277	230,399	-0,099	-0,119
-526,262	-200,000	-0,009	0,067
-525,248	115,051	0,036	-0,032
-524,233	117,261	0,058	0,052
-523,218	-137,654	0,111	0,009
-522,204	24,131	0,094	-0,056
-521,189	126,074	-0,134	-0,124
-520,175	800,000	-0,020	0,062
-519,160	494,483	0,068	-0,114
-518,145	61,818	-0,128	-0,093
-517,131	-200,000	0,007	-0,087
-516,116	149,267	-0,029	-0,029
-515,102	-41,836	-0,106	0,039
-514,087	-166,944	-0,139	-0,004
-513,072	67,955	0,102	-0,076
-512,058	-200,000	0,002	0,054
-511,043	-115,066	0,159	0,022
-510,029	-200,000	-0,018	0,132
-509,014	-60,539	-0,050	-0,015
-507,999	387,974	-0,074	-0,112
-506,985	-166,189	0,043	0,001
-505,970	205,070	-0,087	-0,099
-504,956	78,233	-0,064	-0,050
-503,941	93,412	0,064	-0,052
-502,926	57,973	0,156	-0,111
-501,912	501,230	-0,016	0,028
-500,897	294,052	0,132	-0,176
-499,883	791,813	-0,009	-0,017
-498,868	48,295	0,048	0,033
-497,853	355,357	-0,126	-0,184
-496,839	-109,430	-0,222	0,034
-495,824	86,748	0,077	0,062
-494,810	234,500	0,051	0,061
-493,795	-30,051	-0,032	0,013
-492,781	123,441	0,020	-0,018
-491,766	38,667	0,051	0,033
-490,751	172,039	0,148	-0,156
-489,737	-200,000	-0,007	0,086
-488,722	472,544	-0,044	0,073
-487,708	400,743	0,062	0,095
-486,693	-59,456	0,026	0,008
-485,678	-114,715	-0,195	0,027
-484,664	800,000	-0,055	0,128
-483,649	-15,943	0,018	0,008
-482,635	65,030	-0,123	-0,091
-481,620	-56,088	-0,158	0,051
-480,605	633,541	0,064	0,118
-479,591	193,161	0,058	0,064
-478,576	-98,139	0,100	0,019
-477,562	22,803	0,137	0,082
-476,547	12,404	-0,118	-0,066
-475,532	97,574	0,093	0,078
-474,518	-200,000	-0,014	0,159
-473,503	406,551	0,072	-0,112
-472,489	31,603	-0,026	-0,016
-471,474	-25,058	0,087	0,038
-470,459	-200,000	0,014	-0,063
-469,445	-200,000	-0,028	-0,094
-468,430	24,969	0,135	0,081
-467,416	-19,319	-0,091	0,041
-466,401	227,551	-0,062	-0,073
-465,386	-200,000	0,007	0,073
-464,372	216,695	-0,050	0,058
-463,357	-200,000	-0,042	-0,146
-462,343	22,170	-0,131	-0,078
-461,328	-200,000	-0,028	-0,172
-460,313	435,654	0,064	-0,101
-459,299	-52,971	0,127	-0,042
-458,284	27,230	-0,050	-0,031
-457,270	-110,728	-0,058	0,009
-456,255	193,934	-0,046	-0,051
-455,241	51,022	-0,097	-0,067
-454,226	2,355	0,068	-0,036
-453,211	800,000	0,026	0,068
-452,197	-200,000	0,006	0,032
-451,182	-70,961	-0,150	-0,041
-450,168	-35,435	0,066	-0,026
-449,153	-63,404	-0,161	0,048
-448,138	-200,000	-0,026	-0,115
-447,124	-200,000	-0,001	0,083
-446,109	32,876	-0,046	0,029
-445,095	35,318	0,076	0,048
-444,080	-22,346	0,085	0,037
-443,065	349,037	0,035	-0,051
-442,051	751,618	0,012	-0,024
-441,036	-1,761	-0,153	-0,078
-440,022	32,816	0,106	-0,066
-439,007	-200,000	-0,043	-0,219
-437,992	300,186	0,024	-0,033
-436,978	-181,394	0,103	0,001
-435,963	205,698	0,123	0,140
-434,949	-25,717	0,040	0,017
-433,934	504,369	0,074	-0,125
-432,919	-200,000	-0,005	0,046
-431,905	185,676	0,042	0,045
-430,890	156,123	0,024	0,024
-429,876	19,300	0,062	-0,036
-428,861	-102,112	-0,031	0,005
-427,846	-112,561	-0,062	-0,009
-426,832	-199,523	0,215	0,001
-425,817	-112,850	-0,101	0,014
-424,803	-88,743	-0,063	-0,013
-423,788	800,000	0,043	0,131
-422,773	800,000	-0,050	0,114
-421,759	-200,000	-0,001	0,134
-420,744	633,433	-0,084	-0,155
-419,730	91,667	-0,122	-0,100
-418,715	-147,370	-0,136	0,008
-417,701	-154,908	-0,101	-0,005
-416,686	-90,138	0,039	0,008
-415,671	268,075	0,107	-0,136
-414,657	98,704	-0,133	-0,111
-413,642	686,890	-0,031	0,060
-412,628	34,390	-0,092	0,058
-411,613	144,378	0,083	-0,080
-410,598	-57,700	-0,059	-0,019
-409,584	56,380	-0,060	0,042
-408,569	-24,629	0,078	-0,034
-407,555	72,349	0,098	0,074
-406,540	68,823	-0,046	-0,035
-405,525	-200,000	0,008	0,048
-404,511	149,085	0,027	0,027
-403,496	5,088	-0,129	-0,069
-402,482	-71,750	0,125	-0,034
-401,467	-8,417	0,145	0,071
-400,452	97,433	-0,032	0,026
-399,438	800,000	0,051	0,118
-398,423	-200,000	-0,031	-0,143
-397,409	800,000	0,069	-0,167
-396,394	800,000	0,015	-0,035
-395,379	269,889	0,066	-0,084
-394,365	-36,218	0,149	0,058
-393,350	-200,000	-0,001	0,120
-392,336	-90,362	-0,056	0,012
-391,321	-29,972	-0,112	0,046
-390,306	642,672	-0,074	-0,138
-389,292	-200,000	-0,005	-0,199
-388,277	-200,000	-0,016	0,053
-387,263	-200,000	-0,015	-0,091
-386,248	61,122	0,100	0,072
-385,233	131,078	-0,115	-0,107
-384,219	-200,000	0,021	-0,089
-383,204	800,000	0,031	0,080
-382,190	-69,352	0,089	-0,025
-381,175	600,679	-0,061	-0,111
-380,160	-200,000	0,018	-0,094
-379,146	261,268	-0,043	-0,054
-378,131	-34,240	0,201	0,080
-377,117	78,059	0,006	0,005
-376,102	-4,126	-0,148	0,074
-375,088	48,740	-0,078	0,053
-374,073	-22,738	0,079	-0,035
-373,058	555,497	-0,045	-0,079
-372,044	245,706	0,057	0,069
-371,029	105,795	-0,062	0,053
-370,015	800,000	0,023	-0,049
-369,000	800,000	0,064	-0,169
-367,985	-67,618	0,027	-0,008
-366,971	-200,000	0,008	-0,146
-365,956	8,982	0,069	-0,038
-364,942	-200,000	-0,010	0,047
-363,927	-138,096	0,156	-0,012
-362,912	-82,937	0,171	0,040
-361,898	-200,000	-0,030	0,102
-360,883	-63,763	-0,074	-0,022
-359,869	451,335	0,032	0,051
-358,854	89,215	-0,087	0,070
-357,839	800,000	0,026	-0,059
-356,825	159,251	0,098	-0,099
-355,810	800,000	0,025	0,079
-354,796	68,050	-0,064	0,047
-353,781	148,262	-0,097	-0,095
-352,766	800,000	-0,022	0,055
-351,752	-200,000	-0,029	0,218
-350,737	-200,000	0,001	-0,016
-349,723	698,532	-0,032	0,062
-348,708	799,580	0,069	0,139
-347,693	800,000	-0,072	0,168
-346,679	-200,000	0,030	0,113
-345,664	-200,000	-0,016	-0,091
-344,650	147,980	0,061	-0,059
-343,635	-28,169	-0,133	0,055
-342,620	63,749	0,173	0,126
-341,606	363,907	-0,115	0,168
-340,591	-200,000	-0,011	0,098
-339,577	560,897	0,065	-0,114
-338,562	-136,084	-0,131	0,011
-337,548	-200,000	-0,016	-0,073
-336,533	-3,059	0,077	0,039
-335,518	266,609	0,072	0,091
-334,504	713,528	0,026	0,050
-333,489	22,357	-0,167	-0,099
-332,475	-26,457	-0,050	-0,021
-331,460	206,904	-0,112	-0,126
-330,445	-200,000	-0,001	-0,047
-329,431	241,475	0,067	0,082
-328,416	-200,000	0,016	0,077
-327,402	57,592	-0,015	-0,010
-326,387	-77,621	0,024	0,006
-325,372	89,948	0,028	0,023
-324,358	141,093	-0,037	-0,036
-323,343	-4,985	-0,068	-0,034
-322,329	110,142	-0,086	0,075
-321,314	-200,000	0,020	-0,131
-320,299	-92,107	-0,127	0,026
-319,285	152,290	0,079	-0,079
-318,270	-48,896	0,036	-0,012
-317,256	-87,004	-0,092	-0,020
-316,241	40,636	0,089	-0,058
-315,226	536,680	0,076	0,132
-314,212	81,700	0,082	0,064
-313,197	282,176	0,092	-0,119
-312,183	-200,000	-0,025	0,099
-311,168	-59,970	-0,039	-0,012
-310,153	-141,832	-0,077	0,006
-309,139	66,764	-0,099	0,073
-308,124	-129,735	0,064	-0,006
-307,110	-144,224	0,116	-0,008
-306,095	-178,197	0,084	-0,001
-305,080	304,362	0,079	0,107
-304,066	243,210	-0,022	0,027
-303,051	-92,017	0,124	-0,025
-302,037	-200,000	0,019	-0,101
-301,022	-200,000	0,021	-0,106
-300,008	-30,590	0,095	0,039
-298,993	-200,000	0,003	-0,064
-297,978	66,301	0,032	0,024
-296,964	-200,000	0,086	-0,000
-295,949	-140,050	-0,109	-0,008
-294,935	20,436	0,049	0,028
-293,920	-200,000	0,012	0,095
-292,905	-200,000	0,010	0,092
-291,891	47,398	0,140	0,094
-290,876	-37,000	-0,049	0,019
-289,862	-78,066	-0,112	0,028
-288,847	113,143	-0,044	-0,039
-287,832	-200,000	-0,002	-0,113
-286,818	510,817	-0,026	0,044
-285,803	-200,000	-0,018	0,074
-284,789	691,048	0,094	0,178
-283,774	109,213	0,070	0,061
-282,759	-46,694	0,047	-0,016
-281,745	187,349	0,137	-0,148
-280,730	108,710	-0,100	0,086
-279,716	-200,000	0,002	-0,013
-278,701	-136,920	-0,182	-0,015
-277,686	88,296	0,011	-0,009
-276,672	49,474	-0,043	-0,029
-275,657	800,000	-0,036	-0,072
-274,643	464,425	-0,031	0,051
-273,628	198,968	-0,091	-0,101
-272,613	550,098	-0,029	-0,051
-271,599	-200,000	0,038	0,231
-270,584	-200,000	-0,125	0,000
-269,570	800,000	-0,023	0,065
-268,555	92,818	-0,063	0,052
-267,540	86,805	-0,054	0,043
-266,526	-32,443	-0,064	0,026
-265,511	-200,000	0,037	-0,132
-264,497	-200,000	0,008	-0,072
-263,482	-15,218	0,052	0,024
-262,467	-64,173	0,087	0,025
-261,453	-1,951	0,026	0,013
-260,438	-157,794	-0,047	0,002
-259,424	-96,524	-0,051	0,010
-258,409	595,982	-0,061	-0,110
-257,395	-200,000	0,008	0,066
-256,380	-200,000	0,029	0,096
-255,365	288,886	0,121	0,159
-254,351	-109,103	0,153	-0,023
-253,336	-127,951	0,142	0,015
-252,322	417,533	-0,008	-0,012
-251,307	412,095	0,075	0,115
-250,292	-200,000	0,036	-0,118
-249,278	507,179	-0,043	-0,072
-248,263	31,674	0,140	-0,087
-247,249	-76,019	0,145	0,037
-246,234	-25,487	0,035	0,015
-245,219	-161,002	-0,096	-0,004
-244,205	800,000	-0,033	-0,095
-243,190	-200,000	0,009	-0,045
-242,176	127,779	0,016	0,015
-241,161	-17,967	-0,093	0,042
-240,146	-200,000	0,002	0,108
-239,132	36,063	-0,086	-0,055
-238,117	144,121	0,036	0,035
-237,103	537,199	-0,061	-0,105
-236,088	-200,000	0,005	-0,044
-235,073	-200,000	0,014	0,084
-234,059	800,000	0,062	0,159
-233,044	-200,000	0,020	0,082
-232,030	800,000	-0,008	0,020
-231,015	-131,856	-0,066	0,006
-230,000	-19,089	-0,075	0,034
-228,986	580,932	0,105	0,186
-227,971	-50,430	0,125	0,042
-226,957	135,229	-0,076	0,072
-225,942	-60,531	-0,006	0,002
-224,927	-97,021	-0,112	0,021
-223,913	-42,319	-0,065	-0,024
-222,898	-75,346	0,074	0,019
-221,884	416,138	0,018	0,027
-220,869	-200,000	-0,038	0,155
-219,855	-135,979	0,045	0,004
-218,840	-200,000	-0,012	0,123
-217,825	247,066	0,062	0,076
-216,811	82,422	-0,122	-0,096
-215,796	-114,505	-0,105	0,014
-214,782	58,199	0,026	0,018
-213,767	-200,000	0,005	-0,138
-212,752	105,984	-0,098	-0,083
-211,738	154,398	0,106	-0,105
-210,723	-91,745	-0,065	0,013
-209,709	276,772	-0,010	-0,013
-208,694	458,609	-0,054	0,087
-207,679	8,103	0,173	-0,093
-206,665	-200,000	-0,034	-0,121
-205,650	156,244	0,043	-0,042
-204,636	62,689	-0,061	0,044
-203,621	194,085	0,063	0,069
-202,606	111,376	0,130	-0,113
-201,592	-80,610	0,045	-0,011
-200,577	-200,000	-0,005	0,093
-199,563	150,812	-0,011	-0,011
-198,548	172,198	0,068	-0,071
-197,533	240,891	0,081	0,097
-196,519	83,655	-0,096	0,075
-195,504	36,297	0,133	0,084
-194,490	90,566	-0,026	0,021
-193,475	-12,755	-0,053	-0,025
-192,460	344,472	-0,035	0,049
-191,446	800,000	-0,048	0,152
-190,431	476,899	0,044	0,072
-189,417	-200,000	-0,016	-0,084
-188,402	-135,004	-0,155	-0,013
-187,387	535,682	0,024	0,041
-186,373	208,925	0,070	0,079
-185,358	502,626	0,033	0,056
-184,344	-200,000	0,007	0,040
-183,329	-18,216	-0,117	0,053
-182,315	-4,788	0,115	-0,057
-181,300	337,701	-0,030	-0,042
-180,285	-200,000	0,008	-0,179
-179,271	526,608	-0,087	-0,148
-178,256	-200,000	-0,002	0,047
-177,242	800,000	-0,008	-0,022
-176,227	247,722	-0,115	0,140
-175,212	174,382	-0,097	0,101
-174,198	2,229	0,110	0,057
-173,183	407,014	0,065	0,099
-172,169	-130,027	-0,093	0,009
-171,154	-34,721	0,059	-0,023
-170,139	-200,000	0,002	-0,102
-169,125	800,000	0,057	0,173
-168,110	199,319	0,072	-0,079
-167,096	-63,598	-0,124	0,037
-166,081	23,010	0,081	0,048
-165,066	-49,498	0,070	0,024
-164,052	12,775	-0,082	0,045
-163,037	-200,000	-0,020	-0,075
-162,023	-23,713	-0,072	0,031
-161,008	-58,841	-0,091	0,028
-159,993	-200,000	0,002	0,154
-158,979	40,358	-0,106	-0,069
-157,964	22,498	0,067	-0,040
-156,950	34,091	0,083	-0,052
-155,935	-159,034	0,275	0,011
-154,920	800,000	0,035	0,079
-153,906	-200,000	0,001	0,146
-152,891	22,776	0,081	0,048
-151,877	800,000	0,046	-0,108
-150,862	20,580	-0,153	-0,089
-149,847	-200,000	-0,018	-0,177
-148,833	-200,000	-0,001	-0,012
-147,818	185,473	0,046	-0,050
-146,804	-200,000	0,001	-0,068
-145,789	239,295	-0,138	-0,165
-144,775	272,600	-0,052	0,066
-143,760	800,000	-0,037	-0,108
-142,745	-200,000	-0,027	0,106
-141,731	-200,000	0,017	0,094
-140,716	230,516	0,099	0,117
-139,702	800,000	0,051	0,141
-138,687	-200,000	-0,016	0,069
-137,672	-200,000	-0,011	0,156
-136,658	0,398	-0,101	0,052
-135,643	421,658	0,045	0,070
-134,629	198,804	-0,068	0,075
-133,614	87,770	-0,188	0,150
-132,599	-72,365	-0,121	-0,032
-131,585	104,112	0,066	0,056
-130,570	-21,496	-0,098	0,043
-129,556	11,677	-0,014	-0,008
-128,541	-143,479	0,135	-0,009
-127,526	-7,607	-0,060	0,029
-126,512	-24,459	0,118	-0,051
-125,497	-200,000	-0,024	0,280
-124,483	634,012	-0,020	0,037
-123,468	274,123	-0,064	-0,082
-122,453	484,384	0,038	0,063
-121,439	-200,000	-0,028	-0,124
-120,424	800,000	0,039	0,099
-119,410	-200,000	0,002	-0,041
-118,395	800,000	-0,023	-0,071
-117,380	140,254	-0,030	-0,028
-116,366	-83,501	0,051	0,012
-115,351	-200,000	-0,026	-0,088
-114,337	-56,384	-0,089	-0,028
-113,322	385,395	-0,082	-0,122
-112,307	232,712	0,026	0,031
-111,293	-82,860	0,067	-0,015
-110,278	299,314	0,063	0,084
-109,264	800,000	-0,020	0,053
-108,249	-110,194	-0,077	0,011
-107,234	800,000	-0,028	-0,070
-106,220	800,000	0,034	0,090
-105,205	-200,000	0,007	0,035
-104,191	-53,885	-0,021	-0,007
-103,176	-200,000	0,003	0,177
-102,162	-23,950	0,074	-0,032
-101,147	-72,888	-0,155	-0,041
-100,132	167,001	0,074	0,075
-99,118	71,627	-0,039	0,029
-98,103	-200,000	-0,012	-0,038
-97,089	-200,000	0,024	0,090
-96,074	11,214	0,110	0,060
-95,059	-200,000	0,009	0,046
-94,045	-81,870	0,081	-0,019
-93,030	-200,000	-0,003	0,037
-92,016	-153,072	0,055	0,003
-91,001	-107,475	-0,035	-0,006
-89,986	117,284	0,044	-0,039
-88,972	800,000	-0,062	0,151
-87,957	800,000	0,013	-0,033
-86,943	75,670	-0,114	-0,087
-85,928	681,351	-0,048	-0,090
-84,913	-9,419	0,057	0,027
-83,899	-35,464	-0,055	0,021
-82,884	-48,288	-0,039	0,013
-81,870	197,892	0,065	-0,072
-80,855	-11,341	0,044	0,021
-79,840	-4,414	0,018	0,009
-78,826	176,103	-0,052	0,054
-77,811	61,989	-0,105	-0,075
-76,797	-200,000	0,002	0,010
-75,782	575,460	-0,088	0,155
-74,767	-19,443	0,086	0,038
-73,753	-101,942	-0,119	0,020
-72,738	800,000	0,038	-0,077
-71,724	-200,000	-0,002	0,025
-70,709	12,256	0,052	0,029
-69,694	-47,165	-0,030	0,010
-68,680	-64,602	0,163	0,047
-67,665	-200,000	0,036	0,132
-66,651	314,876	0,087	0,118
-65,636	173,260	0,085	0,088
-64,622	800,000	-0,022	0,057
-63,607	-64,866	0,056	-0,016
-62,592	24,820	-0,133	0,079
-61,578	0,944	0,229	0,117
-60,563	800,000	0,026	0,070
-59,549	129,425	-0,006	-0,006
-58,534	9,427	-2,092	-1,133
-57,519	-200,000	-0,175	-0,800
-56,505	-200,000	-1,397	-4,967
-55,490	166,947	0,663	0,675
-54,476	800,000	5,252	12,042
-53,461	-200,000	18,583	311,484
-52,446	800,000	739,985	2318,578
-51,432	556,878	1656,336	2874,021
-50,417	110,830	1640,181	1415,157
-49,403	75,007	1290,314	973,861
-48,388	30,548	1030,819	630,679
-47,373	19,941	993,435	572,684
-46,359	17,658	981,120	558,051
-45,344	14,344	977,116	544,861
-44,330	14,662	975,492	544,979
-43,315	14,048	973,679	541,933
-42,300	13,962	972,794	541,134
-41,286	13,999	971,668	540,607
-40,271	13,930	970,791	539,873
-39,257	13,994	969,810	539,515
-38,242	13,985	968,944	538,982
-37,227	13,982	968,419	538,661
-36,213	13,969	967,369	538,012
-35,198	13,998	966,298	537,491
-34,184	13,945	965,783	537,009
-33,169	13,899	964,811	536,298
-32,154	13,981	963,699	535,926
-31,140	13,974	962,814	535,389
-30,125	13,986	962,276	535,106
-29,111	13,952	961,329	534,451
-28,096	13,992	960,587	534,144
-27,082	13,988	959,780	533,663
-26,067	14,012	959,054	533,315
-25,052	13,996	958,584	532,979
-24,038	13,894	957,814	532,202
-23,023	13,982	957,034	532,030
-22,009	13,952	956,693	531,725
-20,994	13,985	955,870	531,353
-19,979	13,981	955,210	530,950
-18,965	14,007	954,537	530,639
-17,950	13,983	954,023	530,256
-16,936	13,938	953,213	529,640
-15,921	13,944	952,528	529,257
-14,906	13,882	951,917	528,700
-13,892	13,854	951,213	528,196
-12,877	13,812	950,769	527,794
-11,863	13,852	949,873	527,406
-10,848	13,874	949,412	527,199
-9,833	14,010	948,885	527,318
-8,819	13,996	948,297	526,925
-7,804	13,901	947,695	526,267
-6,790	13,889	947,126	525,893
-5,775	13,951	946,513	525,728
-4,760	13,880	946,072	525,237
-3,746	13,902	945,318	524,867
-2,731	13,760	944,653	524,027
-1,717	13,667	944,157	523,434
-0,702	13,671	943,398	523,006
0,313	13,529	942,708	522,964
1,327	16,732	940,386	531,762
2,342	25,600	795,758	473,536
3,356	22,085	460,365	268,532
4,371	-4,585	317,174	156,397
5,386	-8,693	299,168	143,308
6,400	-10,485	292,976	138,533
7,415	-10,917	290,497	136,920
8,429	-11,163	288,774	135,853
9,444	-11,315	288,022	135,336
10,459	-11,226	287,463	135,150
11,473	-11,316	286,777	134,727
12,488	-11,204	286,262	134,582
13,502	-11,221	285,728	134,303
14,517	-11,312	285,292	133,998
15,531	-11,205	284,760	133,840
16,546	-11,134	284,364	133,711
17,561	-11,072	284,142	133,655
18,575	-10,959	283,623	133,508
19,590	-11,234	283,332	133,093
20,604	-10,935	283,129	133,275
21,619	-11,381	282,949	132,747
22,634	-11,130	282,331	132,688
23,648	-11,320	281,978	132,327
24,663	-11,202	281,748	132,321
25,677	-11,221	281,505	132,176
26,692	-11,122	281,243	132,137
27,707	-11,155	280,865	131,916
28,721	-11,292	280,595	131,645
29,736	-11,326	280,296	131,461
30,750	-11,230	280,082	131,441
31,765	-11,152	279,895	131,415
32,780	-11,183	279,580	131,227
33,794	-11,073	279,208	131,145
34,809	-11,231	279,005	130,888
35,823	-11,342	278,844	130,695
36,838	-10,964	278,409	130,839
37,853	-11,323	278,246	130,409
38,867	-11,118	277,936	130,447
39,882	-11,194	277,921	130,356
40,896	-11,264	277,664	130,158
41,911	-11,272	277,388	130,009
42,926	-10,997	277,051	130,099
43,940	-11,119	276,674	129,796
44,955	-11,365	276,528	129,484
45,969	-11,351	276,280	129,369
46,984	-11,598	276,174	129,075
47,999	-11,676	276,024	128,920
49,013	-11,914	275,504	128,442
50,028	-11,685	275,220	128,513
51,042	-11,985	274,912	128,077
52,057	-12,065	274,723	127,903
53,071	-11,966	274,657	127,953
54,086	-11,755	274,425	128,031
55,101	-11,618	274,227	128,055
56,115	-11,443	274,041	128,120
57,130	-11,355	273,776	128,066
58,144	-10,986	273,626	128,329
59,159	-11,131	273,465	128,107
60,174	-11,340	273,430	127,885
61,188	-11,074	273,095	127,964
62,203	-11,173	272,739	127,694
63,217	-11,113	272,626	127,685
64,232	-11,142	272,373	127,528
65,247	-10,897	272,050	127,593
66,261	-11,164	271,812	127,223
67,276	-11,267	271,605	127,019
68,290	-11,508	271,322	126,653
69,305	-11,521	271,066	126,510
70,320	-11,342	270,965	126,617
71,334	-11,369	270,720	126,466
72,349	-11,195	270,601	126,560
73,363	-11,104	270,371	126,524
74,378	-10,999	270,053	126,461
75,393	-11,309	270,046	126,162
76,407	-10,969	269,616	126,262
77,422	-11,046	269,324	126,043
78,436	-11,144	269,190	125,879
79,451	-11,248	269,010	125,689
80,466	-11,096	268,725	125,683
81,480	-11,247	268,552	125,454
82,495	-11,486	268,354	125,132
83,509	-11,307	268,032	125,133
84,524	-11,252	267,798	125,063
85,539	-11,382	267,613	124,847
86,553	-11,488	267,345	124,615
87,568	-11,287	267,114	124,678
88,582	-11,322	266,955	124,561
89,597	-11,297	266,750	124,477
90,611	-11,244	266,679	124,481
91,626	-11,202	266,599	124,470
92,641	-11,031	266,328	124,487
93,655	-11,285	266,145	124,161
94,670	-11,226	265,750	124,019
95,684	-11,222	265,596	123,940
96,699	-11,186	265,491	123,913
97,714	-11,156	265,148	123,768
98,728	-11,358	265,026	123,518
99,743	-11,448	264,690	123,270
100,757	-11,496	264,535	123,144
101,772	-11,501	264,306	123,022
102,787	-11,271	264,338	123,232
103,801	-11,299	264,083	123,077
104,816	-11,278	263,931	123,014
105,830	-11,105	263,740	123,069
106,845	-11,108	263,495	122,941
107,860	-11,104	263,285	122,835
108,874	-11,253	263,085	122,598
109,889	-11,150	262,896	122,591
110,903	-11,132	262,590	122,453
111,918	-11,159	262,397	122,329
112,933	-11,287	262,279	122,149
113,947	-11,143	262,214	122,236
114,962	-11,136	261,844	122,059
115,976	-11,157	261,589	121,910
116,991	-11,197	261,476	121,811
118,006	-11,159	261,277	121,741
119,020	-11,188	261,060	121,603
120,035	-11,072	261,037	121,684
121,049	-11,078	260,880	121,596
122,064	-10,848	260,377	121,552
123,079	-11,171	260,341	121,240
124,093	-11,335	260,145	120,994
125,108	-11,395	260,077	120,899
126,122	-11,509	259,761	120,640
127,137	-11,463	259,377	120,492
128,151	-11,479	259,307	120,434
129,166	-11,327	259,133	120,476
130,181	-11,427	258,924	120,281
131,195	-11,426	258,621	120,130
132,210	-11,179	258,530	120,294
133,224	-11,145	258,383	120,244
134,239	-11,039	258,125	120,205
135,254	-11,210	257,993	119,984
136,268	-11,270	257,657	119,765
137,283	-11,636	257,673	119,443
138,297	-11,453	257,372	119,452
139,312	-11,621	257,100	119,169
140,327	-11,303	256,981	119,379
141,341	-10,958	256,881	119,622
142,356	-11,082	256,687	119,413
143,370	-11,088	256,593	119,354
144,385	-11,040	256,429	119,309
145,400	-10,934	256,145	119,258
146,414	-10,943	256,105	119,220
147,429	-11,134	255,976	118,985
148,443	-11,022	255,602	118,897
149,458	-10,979	255,447	118,851
150,473	-10,831	255,321	118,909
151,487	-11,091	255,024	118,537
152,502	-11,078	254,883	118,472
153,516	-11,051	254,853	118,471
154,531	-11,059	254,454	118,268
155,546	-10,966	254,204	118,221
156,560	-10,908	253,972	118,152
157,575	-11,164	253,838	117,860
158,589	-10,926	253,712	117,995
159,604	-11,036	253,629	117,851
160,619	-10,813	253,291	117,874
161,633	-11,042	253,177	117,615
162,648	-10,911	253,067	117,665
163,662	-10,822	252,884	117,646
164,677	-10,888	252,735	117,510
165,692	-10,860	252,528	117,427
166,706	-10,902	252,294	117,272
167,721	-11,049	252,096	117,045
168,735	-10,937	252,044	117,105
169,750	-10,866	251,912	117,093
170,764	-10,715	251,708	117,116
171,779	-10,715	251,532	117,025
172,794	-10,880	251,440	116,831
173,808	-10,870	251,187	116,712
174,823	-11,207	250,821	116,246
175,837	-11,514	250,736	115,937
176,852	-10,975	250,568	116,304
177,867	-10,867	250,459	116,334
178,881	-10,803	250,331	116,318
179,896	-10,714	250,188	116,316
180,910	-10,789	249,958	116,136
181,925	-10,887	249,909	116,020
182,940	-10,929	249,893	115,967
183,954	-11,051	249,512	115,678
184,969	-10,882	249,457	115,784
185,983	-11,014	249,251	115,567
186,998	-10,797	248,902	115,577
188,013	-10,657	248,816	115,644
189,027	-10,813	248,643	115,422
190,042	-10,691	248,348	115,378
191,056	-10,932	248,309	115,147
192,071	-10,861	248,093	115,096
193,086	-10,861	247,883	114,989
194,100	-11,067	247,863	114,797
195,115	-10,757	247,587	114,917
196,129	-10,705	247,271	114,804
197,144	-10,956	247,228	114,565
198,159	-10,851	246,980	114,527
199,173	-10,920	246,795	114,374
200,188	-11,074	246,694	114,189
201,202	-11,308	246,426	113,861
202,217	-11,406	245,983	113,564
203,232	-11,480	246,019	113,510
204,246	-10,973	246,030	113,924
205,261	-10,666	245,660	113,996
206,275	-11,645	245,394	113,055
207,290	-7,724	246,884	116,984
208,304	0,367	249,659	125,056
209,319	4,230	250,578	128,736
210,334	4,705	250,627	129,147
211,348	4,667	250,513	129,044
212,363	4,850	250,484	129,171
213,377	5,240	250,359	129,419
214,392	5,055	250,143	129,142
215,407	4,767	249,963	128,798
216,421	4,772	249,690	128,650
217,436	5,030	249,769	128,894
218,450	5,209	249,444	128,863
219,465	4,819	249,224	128,415
220,480	4,692	249,002	128,184
221,494	4,740	248,842	128,130
222,509	4,667	248,823	128,049
223,523	4,832	248,507	128,011
224,538	4,138	248,286	127,312
225,553	4,314	248,162	127,382
226,567	4,722	247,863	127,554
227,582	4,666	247,957	127,544
228,596	4,642	247,678	127,371
229,611	4,104	247,354	126,750
230,626	4,155	247,178	126,690
231,640	4,402	246,963	126,771
232,655	4,474	246,977	126,826
233,669	4,251	246,706	126,493
234,684	4,308	246,528	126,437
235,699	4,430	246,690	126,609
236,713	4,731	246,353	126,671
237,728	4,398	246,246	126,332
238,742	4,167	246,010	126,011
239,757	3,905	245,969	125,765
240,772	4,161	245,704	125,827
241,786	4,382	245,532	125,908
242,801	4,248	245,290	125,663
243,815	4,185	245,179	125,545
244,830	4,552	245,009	125,744
245,844	4,433	244,750	125,503
246,859	4,476	244,735	125,520
247,874	4,327	244,471	125,252
248,888	4,426	244,395	125,282
249,903	4,347	244,299	125,158
250,917	4,612	244,104	125,261
251,932	4,523	244,230	125,243
252,947	4,691	243,872	125,184
253,961	4,533	243,675	124,945
254,976	4,469	243,598	124,842
255,990	4,617	243,274	124,784
257,005	4,406	243,153	124,541
258,020	4,114	243,021	124,226
259,034	4,171	242,829	124,164
260,049	4,468	242,643	124,296
261,063	4,342	242,497	124,109
262,078	4,225	242,395	123,951
263,093	4,653	242,181	124,175
264,107	4,772	241,942	124,137
265,122	4,374	241,809	123,738
266,136	4,415	241,803	123,757
267,151	4,563	241,739	123,832
268,166	4,337	241,335	123,432
269,180	4,256	241,360	123,370
270,195	4,838	241,380	123,835
271,209	5,004	241,214	123,871
272,224	4,496	240,832	123,259
273,239	4,073	240,555	122,769
274,253	4,164	240,333	122,716
275,268	4,331	240,384	122,865
276,282	4,405	240,239	122,839
277,297	4,127	239,931	122,449
278,312	4,178	239,899	122,463
279,326	4,258	239,923	122,527
280,341	4,308	239,654	122,419
281,355	4,407	239,430	122,372
282,370	4,539	239,170	122,333
283,384	4,371	239,046	122,126
284,399	4,298	238,868	121,966
285,414	4,199	238,690	121,786
286,428	4,217	238,605	121,746
287,443	4,292	238,411	121,695
288,457	4,420	238,336	121,747
289,472	4,405	238,390	121,753
290,487	4,295	238,047	121,479
291,501	4,246	237,759	121,283
292,516	4,199	237,620	121,164
293,530	4,095	237,379	120,949
294,545	4,359	237,281	121,096
295,560	4,188	237,323	120,971
296,574	4,225	237,021	120,836
297,589	4,089	236,967	120,691
298,603	4,503	236,974	121,008
299,618	4,434	236,841	120,876
300,633	4,509	236,676	120,839
301,647	4,506	236,638	120,807
302,662	4,948	236,448	121,045
303,676	4,737	236,180	120,731
304,691	4,736	236,100	120,680
305,706	4,847	235,998	120,703
306,720	5,008	235,662	120,646
307,735	4,550	235,757	120,327
308,749	4,558	235,326	120,102
309,764	4,306	235,156	119,809
310,779	4,205	234,916	119,598
311,793	4,027	234,673	119,325
312,808	4,092	234,576	119,316
313,822	4,092	234,394	119,213
314,837	4,131	234,243	119,155
315,852	4,102	234,140	119,070
316,866	4,120	234,067	119,036
317,881	4,393	233,989	119,197
318,895	4,378	233,641	118,997
319,910	4,424	233,775	119,090
320,925	4,466	233,625	119,036
321,939	4,516	233,477	118,988
322,954	4,612	233,344	118,984
323,968	4,486	233,227	118,817
324,983	4,437	232,956	118,630
325,997	4,518	233,094	118,752
327,012	4,542	232,893	118,658
328,027	4,404	232,603	118,394
329,041	4,492	232,609	118,454
330,056	5,214	232,582	118,983
331,070	5,092	232,453	118,813
332,085	4,738	232,012	118,306
333,100	4,761	231,809	118,209
334,114	4,602	231,712	118,028
335,129	4,647	231,658	118,025
336,143	4,873	231,493	118,102
337,158	4,663	231,447	117,908
338,173	4,324	231,293	117,561
339,187	4,272	231,005	117,364
340,202	4,514	230,847	117,458
341,216	4,459	230,688	117,324
342,231	4,233	230,408	117,000
343,246	4,428	230,271	117,068
344,260	4,588	230,166	117,126
345,275	4,754	230,226	117,271
346,289	4,664	230,101	117,129
347,304	4,625	229,945	117,010
348,319	4,813	229,722	117,028
349,333	4,792	229,390	116,833
350,348	4,333	229,444	116,503
351,362	4,395	229,219	116,425
352,377	4,250	228,938	116,163
353,392	4,272	228,705	116,051
354,406	4,282	228,690	116,041
355,421	196,551	1318,175	1396,924
356,435	157,690	1450,887	1396,889
