DTS Sentinel unit serial number:	SN410029Multiplexer serial number:	ORYXHardware model number:	OX2-SRSoftware version number:	ORYX F/W v4,00 Oryx Data Collector v3.7.2.0data status	okinstallation	B5 Nyhavnadifferential loss correction	single-endedforward channel	channel 2reverse channel	N/Adate	2023/12/14time	11:27:13forward acquisition time	300,00reverse acquisition time	0,00gamma	499,1914k internal	0,3159k external	0,3159temperature offset calibration	1,0000default loss term (dB/km)	0,3820temperature slope calibration	1,0000multiplexer offset coefficient	1,0000multiplexer slope coefficient	1,0000fibre end	0,00T internal ref (°C)	7,40T ext. ref 1 (°C)	-8,02T ext. ref 2 (°C)	-8,05length (m)	temperature (°C)	Stokes	anti-Stokes-744,400	-200,000	0,033	0,192
-743,385	14,264	-0,381	-0,218
-742,371	119,849	0,167	0,152
-741,356	-49,898	-0,393	-0,137
-740,342	145,391	0,246	0,243
-739,327	-121,891	-0,493	-0,059
-738,312	277,285	0,135	0,177
-737,298	-122,191	-0,319	-0,038
-736,283	800,000	0,036	0,100
-735,269	-56,904	-0,219	0,071
-734,254	63,638	0,219	0,162
-733,239	-52,621	-0,629	-0,213
-732,225	50,857	0,169	0,118
-731,210	800,000	0,018	0,054
-730,196	275,409	-0,024	0,031
-729,181	132,760	-0,030	-0,028
-728,167	-131,086	-0,067	0,007
-727,152	396,199	-0,109	-0,168
-726,137	-198,636	-0,209	-0,001
-725,123	348,847	0,031	-0,046
-724,108	158,301	-0,090	-0,092
-723,094	-128,832	-0,080	-0,008
-722,079	800,000	-0,048	-0,127
-721,064	249,719	0,150	-0,187
-720,050	501,563	-0,013	-0,022
-719,035	800,000	-0,030	-0,095
-718,021	70,951	-0,146	-0,111
-717,006	-200,000	0,021	-0,082
-715,991	800,000	-0,038	-0,087
-714,977	800,000	-0,066	-0,143
-713,962	800,000	0,078	-0,207
-712,948	735,584	0,031	-0,061
-711,933	-75,818	-0,108	0,028
-710,918	-200,000	-0,014	0,074
-709,904	50,456	0,087	0,061
-708,889	490,893	0,093	-0,157
-707,875	-63,730	-0,084	0,025
-706,860	331,417	-0,019	0,027
-705,845	144,202	0,019	-0,018
-704,831	2,212	0,059	-0,031
-703,816	-56,521	-0,077	0,025
-702,802	23,855	-0,093	0,056
-701,787	-122,819	-0,085	-0,010
-700,772	800,000	-0,014	-0,042
-699,758	-200,000	-0,000	-0,056
-698,743	-174,740	-0,034	-0,001
-697,729	43,506	-0,022	-0,014
-696,714	332,084	0,086	-0,123
-695,699	289,911	0,059	-0,079
-694,685	309,438	0,025	-0,035
-693,670	594,609	-0,047	-0,085
-692,656	-200,000	0,015	0,088
-691,641	800,000	0,023	0,059
-690,627	308,580	0,049	0,067
-689,612	103,520	0,030	0,026
-688,597	31,517	0,033	-0,021
-687,583	37,009	-0,083	-0,054
-686,568	33,582	0,073	-0,046
-685,554	800,000	-0,019	-0,041
-684,539	-121,416	0,103	-0,012
-683,524	415,517	-0,075	0,117
-682,510	-119,258	-0,032	-0,004
-681,495	-91,874	-0,100	0,021
-680,481	292,065	0,061	-0,082
-679,466	-14,388	-0,056	-0,027
-678,451	-96,007	0,058	-0,011
-677,437	30,389	-0,105	-0,066
-676,422	-14,240	-0,117	0,055
-675,408	-200,000	0,025	0,122
-674,393	-200,000	-0,018	0,105
-673,378	93,890	-0,082	-0,069
-672,364	-3,642	0,054	0,028
-671,349	-200,000	-0,043	-0,167
-670,335	332,693	0,023	-0,033
-669,320	-200,000	0,012	0,060
-668,305	-183,782	-0,075	-0,001
-667,291	-160,046	-0,133	0,005
-666,276	265,882	-0,038	0,048
-665,262	224,481	-0,032	-0,038
-664,247	800,000	0,027	0,083
-663,232	-25,877	-0,115	-0,050
-662,218	800,000	-0,024	0,064
-661,203	-200,000	0,011	-0,068
-660,189	222,448	-0,018	0,021
-659,174	800,000	-0,011	-0,026
-658,159	-136,009	-0,045	0,004
-657,145	-200,000	-0,009	0,058
-656,130	271,949	0,113	-0,147
-655,116	102,419	-0,040	-0,034
-654,101	-200,000	-0,002	-0,154
-653,086	363,210	-0,053	0,079
-652,072	203,054	-0,056	-0,063
-651,057	57,730	-0,077	-0,055
-650,043	220,851	0,039	-0,046
-649,028	592,175	0,053	-0,096
-648,014	-200,000	-0,002	0,047
-646,999	-200,000	-0,001	0,042
-645,984	-200,000	-0,019	0,114
-644,970	154,490	-0,044	-0,044
-643,955	-200,000	0,051	-0,202
-642,941	80,932	0,045	0,035
-641,926	-200,000	-0,006	-0,114
-640,911	781,203	0,039	0,079
-639,897	-179,141	0,024	0,000
-638,882	-144,522	-0,035	-0,002
-637,868	-200,000	-0,031	-0,120
-636,853	-200,000	0,026	-0,154
-635,838	180,228	-0,069	0,074
-634,824	245,293	0,137	-0,169
-633,809	-200,000	-0,015	0,093
-632,795	-200,000	-0,008	-0,151
-631,780	800,000	-0,046	0,103
-630,765	-170,301	-0,112	0,003
-629,751	-98,489	-0,137	0,025
-628,736	800,000	-0,048	-0,114
-627,722	-200,000	-0,017	-0,095
-626,707	800,000	-0,035	0,080
-625,692	215,794	0,107	0,124
-624,678	350,428	-0,045	0,066
-623,663	-55,503	-0,052	0,017
-622,649	-200,000	-0,017	-0,171
-621,634	-135,974	-0,004	-0,000
-620,619	800,000	-0,042	-0,104
-619,605	-200,000	-0,022	-0,098
-618,590	316,186	-0,058	0,080
-617,576	96,083	0,055	-0,046
-616,561	-200,000	-0,006	-0,051
-615,546	-142,446	-0,220	0,016
-614,532	492,893	0,060	-0,101
-613,517	-4,033	0,059	0,030
-612,503	150,644	-0,065	0,065
-611,488	-200,000	-0,023	-0,157
-610,474	-200,000	0,042	0,152
-609,459	-151,205	0,069	-0,004
-608,444	133,539	-0,018	-0,017
-607,430	349,157	-0,032	0,047
-606,415	161,934	-0,205	0,210
-605,401	162,793	-0,031	0,032
-604,386	25,768	0,078	0,047
-603,371	800,000	-0,045	-0,091
-602,357	-76,311	0,079	-0,020
-601,342	-58,208	0,032	0,010
-600,328	16,912	0,068	0,040
-599,313	-62,427	0,095	0,029
-598,298	-81,967	-0,040	-0,009
-597,284	-38,132	0,163	0,063
-596,269	112,717	-0,089	0,079
-595,255	-149,939	-0,074	-0,004
-594,240	-42,785	-0,177	0,066
-593,225	-41,319	0,125	-0,047
-592,211	800,000	-0,026	-0,080
-591,196	800,000	-0,057	-0,134
-590,182	-200,000	-0,003	-0,087
-589,167	-1,700	0,061	-0,031
-588,152	67,757	0,030	-0,022
-587,138	-73,826	-0,047	0,012
-586,123	-178,216	-0,082	-0,001
-585,109	-28,788	-0,044	0,019
-584,094	-200,000	0,007	0,087
-583,079	606,844	0,066	0,122
-582,065	800,000	-0,018	0,055
-581,050	211,903	-0,065	0,075
-580,036	-200,000	0,011	-0,087
-579,021	-118,000	-0,147	0,019
-578,006	-200,000	-0,052	-0,192
-576,992	164,972	-0,026	0,027
-575,977	54,003	0,046	0,032
-574,963	-122,114	-0,015	-0,002
-573,948	269,090	0,030	-0,039
-572,934	203,508	-0,005	0,006
-571,919	-115,270	-0,095	-0,013
-570,904	-200,000	-0,032	-0,120
-569,890	51,660	-0,045	0,031
-568,875	-3,994	0,104	-0,052
-567,861	-200,000	-0,015	-0,080
-566,846	75,290	0,092	-0,071
-565,831	-159,985	-0,116	0,005
-564,817	-53,466	-0,065	0,022
-563,802	38,389	-0,058	0,038
-562,788	-200,000	0,002	-0,066
-561,773	67,730	-0,103	-0,077
-560,758	25,841	0,071	-0,043
-559,744	147,338	0,086	0,085
-558,729	86,098	0,121	0,098
-557,715	-26,279	-0,093	0,040
-556,700	-136,782	-0,099	0,008
-555,685	-10,965	0,144	-0,069
-554,671	97,095	-0,029	0,024
-553,656	26,545	-0,138	0,084
-552,642	42,856	0,181	-0,120
-551,627	-200,000	0,010	0,172
-550,612	-200,000	-0,009	-0,070
-549,598	-164,652	0,046	-0,001
-548,583	393,569	-0,069	-0,106
-547,569	-200,000	-0,003	-0,081
-546,554	-200,000	-0,001	0,012
-545,539	-200,000	-0,001	-0,026
-544,525	-28,386	0,157	0,066
-543,510	-200,000	0,008	-0,089
-542,496	-74,178	0,115	-0,030
-541,481	498,509	-0,035	-0,059
-540,466	-134,808	0,181	-0,016
-539,452	-7,696	-0,054	0,026
-538,437	-200,000	0,009	0,036
-537,423	60,637	0,069	0,050
-536,408	-200,000	-0,005	0,060
-535,393	365,554	-0,080	-0,119
-534,379	-200,000	-0,032	0,167
-533,364	-80,589	0,028	-0,007
-532,350	-71,535	0,122	-0,033
-531,335	-28,974	0,084	-0,035
-530,321	-200,000	-0,038	0,185
-529,306	-200,000	-0,011	-0,064
-528,291	800,000	0,025	-0,072
-527,277	-200,000	-0,025	-0,131
-526,262	-200,000	0,030	0,157
-525,248	800,000	0,038	0,110
-524,233	-200,000	-0,015	0,102
-523,218	75,105	-0,111	0,085
-522,204	-200,000	-0,011	-0,085
-521,189	-135,100	-0,031	0,003
-520,175	32,111	-0,119	0,075
-519,160	-99,165	-0,137	-0,025
-518,145	-33,896	-0,090	-0,036
-517,131	108,000	0,111	-0,097
-516,116	-200,000	-0,002	0,009
-515,102	-104,528	-0,065	0,011
-514,087	-200,000	-0,019	-0,134
-513,072	800,000	0,007	0,015
-512,058	-48,431	0,085	-0,030
-511,043	-161,651	-0,176	-0,006
-510,029	-200,000	0,020	0,130
-509,014	700,374	0,024	0,046
-507,999	-85,600	-0,055	0,012
-506,985	142,582	-0,029	0,028
-505,970	0,520	-0,107	-0,056
-504,956	778,744	-0,065	-0,131
-503,941	-200,000	0,012	-0,129
-502,926	-200,000	0,029	0,109
-501,912	-137,743	0,055	0,004
-500,897	-119,859	-0,018	0,002
-499,883	-200,000	0,005	-0,088
-498,868	145,129	0,033	-0,032
-497,853	40,395	0,048	0,031
-496,839	-1,994	0,109	0,056
-495,824	154,252	-0,023	0,023
-494,810	247,621	0,060	-0,074
-493,795	-200,000	-0,027	0,176
-492,781	63,818	-0,125	0,092
-491,766	237,265	0,086	-0,104
-490,751	335,243	-0,043	-0,061
-489,737	242,717	0,027	-0,033
-488,722	-141,825	-0,117	0,008
-487,708	800,000	0,036	0,107
-486,693	-135,160	0,075	0,007
-485,678	800,000	-0,017	-0,047
-484,664	192,662	-0,055	-0,061
-483,649	800,000	-0,036	-0,113
-482,635	-148,146	0,101	-0,006
-481,620	800,000	-0,039	0,102
-480,605	-32,123	0,061	0,025
-479,591	-91,266	-0,054	0,011
-478,576	644,507	-0,019	-0,035
-477,562	-162,951	-0,058	0,002
-476,547	800,000	0,024	-0,058
-475,532	-69,607	-0,089	-0,025
-474,518	-62,423	-0,031	-0,009
-473,503	-200,000	-0,030	0,154
-472,489	-113,541	0,205	-0,029
-471,474	317,032	0,036	-0,049
-470,459	-200,000	-0,011	0,093
-469,445	598,319	0,011	-0,021
-468,430	-200,000	0,024	0,153
-467,416	264,206	-0,035	0,045
-466,401	169,955	-0,050	0,052
-465,386	379,677	-0,064	0,096
-464,372	491,500	0,057	0,096
-463,357	-59,969	0,091	0,028
-462,343	406,011	-0,098	0,151
-461,328	-60,510	0,024	0,008
-460,313	147,650	0,056	-0,055
-459,299	742,243	0,028	0,056
-458,284	94,299	0,084	0,069
-457,270	-200,000	0,012	-0,101
-456,255	18,366	-0,046	0,027
-455,241	-74,815	-0,084	0,022
-454,226	-200,000	-0,002	0,073
-453,211	-200,000	0,013	-0,046
-452,197	184,905	-0,083	0,090
-451,182	-200,000	0,031	0,111
-450,168	234,972	0,068	0,082
-449,153	60,702	-0,111	-0,080
-448,138	32,703	-0,077	-0,049
-447,124	800,000	0,061	-0,187
-446,109	-200,000	0,041	-0,132
-445,095	-200,000	0,009	0,113
-444,080	-121,358	0,091	-0,011
-443,065	-87,432	-0,074	0,016
-442,051	-200,000	-0,005	0,044
-441,036	-15,242	-0,148	-0,069
-440,022	-200,000	0,022	-0,103
-439,007	151,199	0,044	-0,044
-437,992	800,000	0,075	0,170
-436,978	-100,255	0,105	-0,019
-435,963	221,790	0,089	0,105
-434,949	-200,000	-0,029	0,222
-433,934	57,058	0,062	-0,044
-432,919	104,156	0,045	-0,039
-431,905	-57,728	-0,143	-0,045
-430,890	-64,411	-0,108	0,032
-429,876	290,170	0,034	-0,045
-428,861	-200,000	0,001	0,074
-427,846	-70,685	-0,101	0,027
-426,832	800,000	0,006	0,013
-425,817	-28,235	-0,121	-0,051
-424,803	-200,000	-0,001	-0,008
-423,788	-10,637	-0,055	0,027
-422,773	-39,853	0,035	-0,013
-421,759	574,981	-0,060	0,107
-420,744	238,631	0,047	0,057
-419,730	202,578	-0,041	-0,046
-418,715	31,705	0,036	0,022
-417,701	800,000	0,018	-0,041
-416,686	-200,000	0,005	-0,037
-415,671	-124,166	-0,059	-0,007
-414,657	168,575	0,166	0,172
-413,642	48,965	-0,076	0,052
-412,628	347,684	-0,017	-0,025
-411,613	-200,000	-0,004	-0,062
-410,598	-64,800	0,090	-0,026
-409,584	277,109	0,107	0,139
-408,569	-62,501	0,088	-0,026
-407,555	62,681	0,105	0,076
-406,540	-200,000	-0,007	0,051
-405,525	145,192	0,031	0,030
-404,511	305,917	0,079	-0,108
-403,496	-92,036	-0,114	0,023
-402,482	-42,336	0,089	-0,033
-401,467	800,000	-0,011	-0,026
-400,452	243,059	0,050	-0,061
-399,438	-141,772	0,053	0,004
-398,423	-200,000	-0,004	-0,165
-397,409	-53,942	-0,118	0,039
-396,394	800,000	0,014	-0,031
-395,379	-200,000	0,093	0,000
-394,365	-100,931	-0,041	0,007
-393,350	-56,079	0,044	0,014
-392,336	-200,000	-0,011	0,081
-391,321	800,000	0,066	-0,155
-390,306	800,000	-0,069	-0,153
-389,292	20,688	-0,083	0,049
-388,277	-200,000	0,001	-0,033
-387,263	227,910	-0,018	-0,021
-386,248	153,518	0,037	-0,037
-385,233	-200,000	0,026	0,168
-384,219	8,863	0,059	-0,032
-383,204	-20,071	-0,051	-0,023
-382,190	590,682	-0,042	-0,075
-381,175	800,000	0,028	-0,070
-380,160	7,654	0,096	0,052
-379,146	-120,797	-0,077	-0,009
-378,131	800,000	-0,031	0,067
-377,117	180,959	-0,073	-0,078
-376,102	-200,000	0,035	-0,117
-375,088	-16,899	-0,056	-0,026
-374,073	-200,000	0,008	-0,041
-373,058	-200,000	-0,011	-0,141
-372,044	176,053	0,040	0,042
-371,029	-200,000	0,008	0,096
-370,015	267,295	0,010	0,012
-369,000	478,890	-0,103	-0,169
-367,985	-200,000	-0,003	0,018
-366,971	282,321	-0,064	-0,083
-365,956	-200,000	0,017	-0,062
-364,942	-192,487	0,061	-0,000
-363,927	493,138	0,031	0,052
-362,912	-32,392	-0,103	0,041
-361,898	-200,000	0,001	-0,091
-360,883	-80,862	-0,126	0,030
-359,869	-109,172	0,108	0,016
-358,854	-200,000	0,016	0,124
-357,839	27,130	-0,061	0,037
-356,825	95,828	-0,097	0,080
-355,810	-49,856	-0,102	0,035
-354,796	394,070	0,046	0,070
-353,781	-87,832	-0,104	-0,023
-352,766	-69,028	0,099	-0,028
-351,752	-180,875	-0,087	-0,001
-350,737	92,410	0,109	0,089
-349,723	-160,463	0,055	0,002
-348,708	-107,546	-0,118	0,018
-347,693	49,261	-0,078	-0,053
-346,679	81,334	0,176	-0,138
-345,664	-46,811	0,082	-0,029
-344,650	141,768	-0,061	-0,058
-343,635	716,816	0,014	0,027
-342,620	800,000	0,059	0,135
-341,606	530,040	-0,020	-0,034
-340,591	128,103	0,043	0,040
-339,577	-141,598	-0,128	0,009
-338,562	800,000	-0,017	0,041
-337,548	305,419	0,036	0,048
-336,533	74,243	0,139	0,106
-335,518	800,000	-0,031	0,076
-334,504	-57,868	-0,095	-0,030
-333,489	222,948	-0,021	0,025
-332,475	207,026	0,015	0,017
-331,460	-200,000	-0,002	-0,172
-330,445	33,192	0,016	0,010
-329,431	-47,262	-0,103	-0,036
-328,416	-200,000	0,046	0,167
-327,402	-200,000	-0,012	-0,142
-326,387	444,499	0,054	-0,087
-325,372	-103,505	-0,195	-0,033
-324,358	-42,962	0,042	-0,016
-323,343	-160,022	0,051	0,002
-322,329	-27,559	0,098	-0,041
-321,314	-191,450	0,023	0,000
-320,299	800,000	0,028	0,061
-319,285	542,914	0,030	0,051
-318,270	-118,789	0,115	0,014
-317,256	800,000	0,023	-0,050
-316,241	180,179	-0,036	-0,039
-315,226	-92,113	-0,103	0,021
-314,212	571,142	-0,065	0,116
-313,197	-84,582	-0,123	-0,028
-312,183	14,242	0,128	-0,072
-311,168	2,096	-0,060	0,031
-310,153	400,906	-0,104	-0,158
-309,139	800,000	-0,029	0,060
-308,124	-155,850	0,026	-0,001
-307,110	396,003	0,109	0,165
-306,095	-18,389	-0,125	-0,056
-305,080	-71,769	0,101	0,027
-304,066	-37,130	0,052	0,020
-303,051	-50,442	-0,078	-0,027
-302,037	-15,607	0,149	0,068
-301,022	-99,706	0,116	0,021
-300,008	-200,000	0,014	-0,054
-298,993	800,000	0,027	-0,066
-297,978	686,469	0,028	-0,053
-296,964	40,410	0,044	-0,028
-295,949	215,142	-0,127	-0,146
-294,935	180,218	0,071	-0,076
-293,920	-200,000	0,001	-0,081
-292,905	1,284	0,062	0,032
-291,891	568,179	-0,073	0,129
-290,876	307,003	0,028	0,038
-289,862	59,247	-0,071	-0,051
-288,847	529,260	0,023	0,040
-287,832	-200,000	-0,011	0,078
-286,818	474,406	0,034	-0,056
-285,803	-24,037	-0,103	0,044
-284,789	352,636	-0,075	-0,108
-283,774	-200,000	0,044	0,183
-282,759	157,448	-0,020	0,020
-281,745	-60,635	-0,109	0,033
-280,730	800,000	-0,041	-0,085
-279,716	-200,000	0,027	-0,128
-278,701	3,975	0,032	0,017
-277,686	-61,250	0,049	0,015
-276,672	800,000	-0,021	0,052
-275,657	223,585	0,097	-0,113
-274,643	-137,836	-0,103	-0,008
-273,628	17,115	0,023	-0,013
-272,613	-77,566	-0,071	0,018
-271,599	15,364	-0,037	-0,021
-270,584	-200,000	0,079	0,296
-269,570	341,181	-0,099	0,141
-268,555	800,000	0,026	0,070
-267,540	-18,351	-0,093	-0,042
-266,526	-18,376	0,074	0,033
-265,511	133,089	-0,079	0,074
-264,497	800,000	0,096	0,246
-263,482	548,081	-0,039	0,068
-262,467	155,886	0,060	0,060
-261,453	-200,000	0,010	0,097
-260,438	157,933	-0,054	0,054
-259,424	268,272	0,021	0,026
-258,409	-86,764	0,119	-0,026
-257,395	800,000	0,028	-0,059
-256,380	-79,917	0,072	0,017
-255,365	797,920	0,062	0,124
-254,351	-64,944	0,076	-0,022
-253,336	800,000	0,062	-0,135
-252,322	68,834	-0,162	-0,120
-251,307	-74,867	0,077	-0,020
-250,292	-140,367	0,050	-0,004
-249,278	351,641	0,037	-0,053
-248,263	800,000	-0,021	-0,063
-247,249	22,931	0,152	0,090
-246,234	-200,000	0,023	0,094
-245,219	375,020	-0,074	-0,109
-244,205	-125,176	-0,045	-0,005
-243,190	331,772	-0,008	-0,011
-242,176	12,631	-0,113	0,063
-241,161	-128,025	0,036	0,004
-240,146	60,728	0,012	-0,008
-239,132	-43,505	0,119	0,043
-238,117	800,000	-0,037	0,083
-237,103	3,431	-0,036	-0,019
-236,088	26,942	0,092	0,056
-235,073	324,847	-0,061	-0,085
-234,059	16,893	-0,063	-0,036
-233,044	-96,611	-0,038	0,007
-232,030	609,658	0,050	-0,090
-231,015	90,097	0,039	-0,032
-230,000	27,499	-0,100	0,061
-228,986	263,280	0,047	-0,060
-227,971	263,468	-0,034	0,042
-226,957	-87,212	-0,068	0,015
-225,942	-200,000	0,023	-0,081
-224,927	-76,034	-0,023	0,006
-223,913	7,308	-0,119	-0,064
-222,898	-200,000	-0,021	-0,124
-221,884	-98,420	0,132	0,024
-220,869	400,214	0,069	0,105
-219,855	95,179	-0,097	0,080
-218,840	225,563	0,067	0,079
-217,825	-200,000	-0,017	0,078
-216,811	104,375	-0,095	-0,081
-215,796	-148,577	0,070	-0,004
-214,782	253,195	0,050	0,062
-213,767	56,121	-0,065	0,045
-212,752	800,000	0,013	-0,041
-211,738	-200,000	0,013	-0,083
-210,723	800,000	-0,042	0,085
-209,709	-78,715	-0,020	-0,005
-208,694	86,699	-0,021	-0,017
-207,679	28,439	-0,087	-0,053
-206,665	-33,679	0,068	-0,027
-205,650	169,910	0,042	0,043
-204,636	-130,547	0,197	0,019
-203,621	227,208	-0,042	-0,049
-202,606	-200,000	0,082	0,000
-201,592	800,000	-0,050	-0,119
-200,577	-69,167	-0,085	0,023
-199,563	242,985	0,119	-0,144
-198,548	11,663	0,189	-0,104
-197,533	-200,000	-0,005	0,090
-196,519	-95,825	-0,050	-0,010
-195,504	759,074	0,037	0,072
-194,490	-200,000	0,009	-0,062
-193,475	33,887	0,136	-0,085
-192,460	-52,917	-0,038	0,013
-191,446	96,264	0,116	0,096
-190,431	-117,142	0,155	0,020
-189,417	-200,000	-0,005	-0,036
-188,402	97,342	-0,039	0,032
-187,387	-175,665	0,088	-0,002
-186,373	800,000	-0,003	0,008
-185,358	228,040	-0,108	-0,127
-184,344	67,964	0,052	-0,038
-183,329	-93,108	-0,032	-0,006
-182,315	103,504	0,028	0,024
-181,300	271,247	0,061	-0,077
-180,285	-93,458	-0,125	-0,025
-179,271	800,000	-0,052	-0,153
-178,256	800,000	0,105	-0,222
-177,242	375,339	-0,044	0,064
-176,227	800,000	0,053	0,150
-175,212	22,639	-0,063	0,037
-174,198	-200,000	0,002	0,037
-173,183	146,053	-0,068	-0,065
-172,169	295,610	-0,040	-0,052
-171,154	135,036	0,043	-0,041
-170,139	22,694	0,095	0,056
-169,125	523,130	0,025	0,042
-168,110	167,995	0,122	0,125
-167,096	800,000	-0,046	0,100
-166,081	-200,000	-0,014	-0,135
-165,066	247,983	-0,084	-0,103
-164,052	171,380	0,057	0,059
-163,037	-167,306	-0,078	-0,002
-162,023	-13,780	0,199	-0,092
-161,008	-62,890	-0,135	0,040
-159,993	-118,054	0,026	0,003
-158,979	-200,000	-0,002	0,067
-157,964	524,738	-0,072	-0,123
-156,950	-34,581	-0,112	-0,044
-155,935	800,000	0,022	0,055
-154,920	-6,508	0,024	0,012
-153,906	-21,889	0,135	0,059
-152,891	800,000	0,065	0,141
-151,877	-110,343	-0,121	0,018
-150,862	-200,000	-0,001	-0,024
-149,847	-28,499	-0,116	0,048
-148,833	164,977	0,091	0,093
-147,818	419,761	0,042	-0,065
-146,804	9,221	0,034	0,019
-145,789	-200,000	0,007	-0,054
-144,775	59,802	0,031	0,022
-143,760	-200,000	-0,009	0,060
-142,745	195,471	-0,071	-0,077
-141,731	-73,634	-0,028	-0,007
-140,716	511,846	-0,057	0,096
-139,702	-200,000	-0,038	0,263
-138,687	48,827	-0,079	0,053
-137,672	800,000	-0,055	0,154
-136,658	-134,352	-0,102	0,009
-135,643	-127,962	0,104	0,011
-134,629	384,072	0,071	-0,106
-133,614	440,506	0,017	-0,026
-132,599	-200,000	0,000	0,001
-131,585	-200,000	-0,022	0,084
-130,570	68,596	-0,078	0,058
-129,556	-200,000	0,009	-0,154
-128,541	503,722	-0,020	-0,034
-127,526	74,174	-0,084	-0,064
-126,512	-61,688	0,098	-0,029
-125,497	-200,000	-0,043	0,179
-124,483	427,141	-0,032	0,050
-123,468	441,446	0,009	-0,014
-122,453	287,483	-0,071	-0,092
-121,439	800,000	-0,018	0,054
-120,424	619,108	-0,013	0,024
-119,410	-2,515	0,019	-0,009
-118,395	-79,218	0,047	0,011
-117,380	-87,111	-0,069	0,015
-116,366	677,035	0,028	-0,052
-115,351	5,132	-0,174	-0,092
-114,337	-200,000	0,017	-0,065
-113,322	52,566	-0,075	0,051
-112,307	-8,937	0,048	0,023
-111,293	328,450	-0,057	0,079
-110,278	290,494	-0,067	-0,087
-109,264	-5,283	-0,054	-0,027
-108,249	425,578	0,039	-0,060
-107,234	-200,000	-0,007	-0,153
-106,220	321,345	0,025	-0,034
-105,205	-200,000	-0,020	0,070
-104,191	764,968	0,041	0,080
-103,176	-200,000	0,023	0,343
-102,162	-200,000	-0,007	-0,058
-101,147	-200,000	0,018	0,113
-100,132	72,943	-0,097	-0,073
-99,118	-21,139	-0,128	-0,056
-98,103	-14,791	0,127	-0,058
-97,089	-200,000	-0,007	0,125
-96,074	-200,000	-0,014	0,095
-95,059	-200,000	0,018	0,161
-94,045	58,057	0,117	-0,083
-93,030	696,931	-0,060	0,114
-92,016	-200,000	-0,007	0,067
-91,001	401,298	-0,037	-0,056
-89,986	800,000	0,049	0,147
-88,972	800,000	0,021	-0,053
-87,957	7,786	0,030	-0,016
-86,943	-200,000	0,011	-0,050
-85,928	-200,000	0,008	-0,065
-84,913	-121,892	-0,070	0,008
-83,899	-200,000	-0,047	0,159
-82,884	-40,841	-0,079	-0,029
-81,870	559,302	-0,059	0,102
-80,855	-65,900	-0,070	0,020
-79,840	-77,476	-0,089	0,022
-78,826	-200,000	-0,007	0,115
-77,811	134,636	-0,104	0,097
-76,797	469,714	-0,015	-0,024
-75,782	-50,460	0,046	0,016
-74,767	-200,000	0,010	-0,039
-73,753	-200,000	-0,022	-0,091
-72,738	-200,000	0,011	-0,036
-71,724	253,829	-0,021	0,026
-70,709	-200,000	-0,015	0,076
-69,694	-42,685	-0,045	0,016
-68,680	-119,138	0,086	0,011
-67,665	-152,783	0,070	0,004
-66,651	-200,000	0,012	0,082
-65,636	4,564	-0,095	0,050
-64,622	-200,000	-0,048	-0,218
-63,607	800,000	0,034	-0,070
-62,592	494,817	0,084	-0,138
-61,578	-50,546	-0,040	-0,013
-60,563	-200,000	-0,006	-0,020
-59,549	-175,649	-0,128	-0,002
-58,534	94,105	-2,718	-2,212
-57,519	23,694	0,506	-0,298
-56,505	800,000	-1,733	-5,471
-55,490	488,373	1,267	2,084
-54,476	800,000	5,253	11,345
-53,461	-200,000	22,635	348,359
-52,446	800,000	763,713	2275,749
-51,432	502,565	1645,718	2738,332
-50,417	94,421	1604,839	1306,821
-49,403	62,771	1261,563	903,869
-48,388	21,889	1013,582	591,032
-47,373	18,817	981,123	561,991
-46,359	12,201	968,230	533,029
-45,344	8,041	964,980	517,647
-44,330	8,479	962,694	517,827
-43,315	7,512	960,853	513,670
-42,300	7,425	959,993	512,906
-41,286	7,507	958,902	512,569
-40,271	7,436	958,003	511,837
-39,257	7,432	957,051	511,296
-38,242	7,443	956,035	510,767
-37,227	7,371	955,423	510,188
-36,213	7,395	954,615	509,814
-35,198	7,441	953,664	509,433
-34,184	7,448	953,015	509,092
-33,169	7,358	952,180	508,334
-32,154	7,482	951,143	508,159
-31,140	7,479	950,245	507,649
-30,125	7,460	949,483	507,161
-29,111	7,472	948,748	506,786
-28,096	7,514	948,192	506,606
-27,082	7,489	947,374	506,068
-26,067	7,436	946,782	505,561
-25,052	7,399	945,991	504,999
-24,038	7,430	945,154	504,632
-23,023	7,304	944,602	503,915
-22,009	7,451	943,716	503,893
-20,994	7,435	943,519	503,717
-19,979	7,430	942,814	503,304
-18,965	7,401	942,228	502,877
-17,950	7,441	941,476	502,585
-16,936	7,396	940,744	502,029
-15,921	7,421	940,065	501,726
-14,906	7,381	939,277	501,159
-13,892	7,306	938,969	500,736
-12,877	7,270	938,368	500,283
-11,863	7,296	937,709	499,994
-10,848	7,263	937,249	499,624
-9,833	7,374	936,615	499,618
-8,819	7,392	935,875	499,262
-7,804	7,358	935,254	498,801
-6,790	7,298	934,761	498,330
-5,775	7,375	934,232	498,271
-4,760	7,406	933,642	498,034
-3,746	7,375	933,003	497,575
-2,731	7,260	932,268	496,802
-1,717	7,198	931,689	496,278
-0,702	7,178	931,068	495,864
0,313	7,002	930,441	495,723
1,327	10,398	928,110	505,105
2,342	19,227	775,894	445,279
3,356	14,602	444,760	248,314
4,371	-11,387	310,386	145,860
5,386	-14,987	292,866	134,002
6,400	-17,227	286,911	129,064
7,415	-17,407	284,162	127,640
8,429	-18,142	282,110	125,997
9,444	-18,400	281,396	125,417
10,459	-18,313	280,757	125,205
11,473	-18,369	280,006	124,805
12,488	-18,436	279,594	124,547
13,502	-18,211	278,925	124,452
14,517	-18,175	278,544	124,305
15,531	-18,538	278,313	123,846
16,546	-18,452	277,693	123,640
17,561	-18,637	277,368	123,309
18,575	-18,451	277,057	123,336
19,590	-18,501	276,621	123,084
20,604	-18,320	276,338	123,118
21,619	-18,502	276,125	122,840
22,634	-18,538	275,820	122,660
23,648	-18,386	275,256	122,541
24,663	-18,455	275,228	122,452
25,677	-18,469	274,782	122,229
26,692	-18,371	274,638	122,247
27,707	-18,408	274,294	122,048
28,721	-18,404	274,003	121,912
29,736	-18,505	273,586	121,621
30,750	-18,270	273,417	121,755
31,765	-18,318	273,012	121,518
32,780	-18,414	272,972	121,400
33,794	-18,647	272,779	121,087
34,809	-18,530	272,392	121,012
35,823	-18,616	272,316	120,888
36,838	-18,398	271,869	120,881
37,853	-18,307	271,636	120,852
38,867	-18,481	271,528	120,632
39,882	-18,509	271,271	120,480
40,896	-18,348	270,843	120,429
41,911	-18,535	270,795	120,223
42,926	-18,322	270,430	120,248
43,940	-18,517	270,238	119,971
44,955	-18,493	269,897	119,831
45,969	-18,363	269,695	119,851
46,984	-18,395	269,592	119,765
47,999	-18,462	269,447	119,628
49,013	-18,439	269,162	119,512
50,028	-18,459	268,920	119,375
51,042	-18,326	268,598	119,344
52,057	-18,579	268,507	119,061
53,071	-18,387	268,256	119,115
54,086	-18,301	267,900	119,025
55,101	-18,420	267,892	118,902
56,115	-18,297	267,572	118,862
57,130	-18,346	267,277	118,675
58,144	-18,427	267,051	118,491
59,159	-18,331	266,834	118,471
60,174	-18,229	266,605	118,452
61,188	-18,277	266,436	118,323
62,203	-18,408	266,169	118,074
63,217	-18,326	265,956	118,043
64,232	-18,407	265,745	117,866
65,247	-18,172	265,333	117,886
66,261	-18,207	265,174	117,773
67,276	-18,551	265,081	117,410
68,290	-18,177	264,649	117,546
69,305	-18,333	264,563	117,356
70,320	-18,211	264,382	117,375
71,334	-18,375	264,241	117,155
72,349	-18,357	263,864	116,993
73,363	-18,469	263,709	116,813
74,378	-18,343	263,439	116,797
75,393	-18,360	263,275	116,698
76,407	-18,202	262,929	116,676
77,422	-18,265	262,797	116,551
78,436	-18,278	262,476	116,386
79,451	-18,305	262,284	116,266
80,466	-18,283	262,021	116,159
81,480	-18,296	261,768	116,025
82,495	-18,502	261,681	115,792
83,509	-18,212	261,376	115,906
84,524	-18,144	261,195	115,876
85,539	-18,369	261,195	115,665
86,553	-18,288	260,774	115,540
87,568	-18,369	260,519	115,345
88,582	-18,239	260,335	115,368
89,597	-18,244	260,205	115,296
90,611	-18,374	259,993	115,077
91,626	-18,249	259,719	115,055
92,641	-18,338	259,715	114,965
93,655	-18,250	259,425	114,904
94,670	-18,377	259,083	114,630
95,684	-18,406	258,913	114,520
96,699	-18,464	258,909	114,456
97,714	-18,046	258,589	114,672
98,728	-18,436	258,609	114,328
99,743	-18,376	258,267	114,219
100,757	-18,214	257,750	114,122
101,772	-18,307	257,788	114,048
102,787	-18,595	257,565	113,686
103,801	-18,342	257,380	113,816
104,816	-18,263	257,261	113,822
105,830	-18,357	256,977	113,605
106,845	-18,280	256,802	113,585
107,860	-18,333	256,641	113,457
108,874	-18,356	256,309	113,280
109,889	-18,159	256,213	113,399
110,903	-18,447	256,019	113,052
111,918	-18,221	255,821	113,151
112,933	-18,147	255,462	113,047
113,947	-18,193	255,333	112,939
114,962	-18,206	255,112	112,821
115,976	-18,335	255,191	112,734
116,991	-18,305	254,793	112,574
118,006	-18,282	254,542	112,473
119,020	-18,229	254,383	112,438
120,035	-18,116	254,391	112,529
121,049	-18,184	254,132	112,346
122,064	-18,426	254,044	112,088
123,079	-18,269	253,731	112,075
124,093	-18,165	253,378	111,999
125,108	-18,309	253,195	111,784
126,122	-18,268	253,038	111,740
127,137	-18,348	253,010	111,649
128,151	-18,354	252,843	111,560
129,166	-17,964	252,490	111,729
130,181	-18,308	252,279	111,331
131,195	-18,303	251,995	111,199
132,210	-18,347	251,894	111,108
133,224	-18,057	251,666	111,245
134,239	-18,226	251,487	111,012
135,254	-18,192	251,323	110,958
136,268	-18,064	251,085	110,953
137,283	-18,342	250,958	110,650
138,297	-18,132	250,643	110,680
139,312	-18,328	250,375	110,385
140,327	-18,361	250,308	110,318
141,341	-18,076	250,087	110,452
142,356	-18,240	250,026	110,276
143,370	-18,162	249,761	110,216
144,385	-18,082	249,511	110,163
145,400	-18,147	249,243	109,980
146,414	-18,233	249,185	109,872
147,429	-18,244	248,886	109,721
148,443	-18,248	248,844	109,689
149,458	-18,102	248,619	109,703
150,473	-17,911	248,320	109,722
151,487	-18,229	248,246	109,412
152,502	-18,084	248,007	109,419
153,516	-18,075	247,773	109,313
154,531	-18,149	247,712	109,215
155,546	-18,108	247,418	109,110
156,560	-18,055	247,259	109,074
157,575	-18,106	247,237	109,012
158,589	-18,256	246,808	108,689
159,604	-18,172	246,683	108,694
160,619	-18,136	246,599	108,676
161,633	-18,209	246,477	108,552
162,648	-18,017	246,247	108,602
163,662	-18,050	246,096	108,498
164,677	-18,067	245,951	108,410
165,692	-18,007	245,671	108,327
166,706	-18,145	245,622	108,181
167,721	-17,986	245,265	108,145
168,735	-18,190	245,253	107,962
169,750	-18,103	245,135	107,972
170,764	-17,879	244,833	108,015
171,779	-17,914	244,556	107,855
172,794	-17,985	244,566	107,790
173,808	-17,982	244,350	107,688
174,823	-18,151	244,155	107,453
175,837	-18,307	244,186	107,328
176,852	-18,135	243,882	107,327
177,867	-18,146	243,716	107,236
178,881	-18,193	243,675	107,169
179,896	-18,132	243,425	107,099
180,910	-17,849	243,090	107,175
181,925	-18,099	242,957	106,902
182,940	-18,218	242,847	106,746
183,954	-18,238	242,751	106,678
184,969	-17,994	242,451	106,736
185,983	-17,876	242,433	106,815
186,998	-17,844	242,145	106,706
188,013	-17,907	241,817	106,500
189,027	-17,833	241,783	106,536
190,042	-18,000	241,555	106,290
191,056	-17,934	241,333	106,236
192,071	-18,067	241,203	106,062
193,086	-18,166	241,085	105,920
194,100	-17,947	240,835	105,978
195,115	-18,026	240,704	105,847
196,129	-17,936	240,370	105,763
197,144	-17,866	240,277	105,770
198,159	-18,112	240,150	105,505
199,173	-18,120	240,167	105,497
200,188	-17,931	239,836	105,495
201,202	-18,088	239,694	105,296
202,217	-18,012	239,303	105,176
203,232	-18,015	239,221	105,129
204,246	-18,049	239,189	105,078
205,261	-17,616	238,856	105,271
206,275	-15,992	239,555	106,880
207,290	-10,814	241,469	111,932
208,304	-4,847	243,215	117,604
209,319	-2,686	243,586	119,537
210,334	-2,236	243,784	119,990
211,348	-1,385	243,811	120,687
212,363	-0,900	244,014	121,173
213,377	-0,232	243,891	121,646
214,392	0,368	244,050	122,203
215,407	0,740	243,962	122,452
216,421	0,721	244,064	122,476
217,436	0,726	243,745	122,310
218,450	0,826	243,498	122,256
219,465	0,992	243,341	122,301
220,480	0,693	243,176	121,964
221,494	1,018	243,058	122,158
222,509	0,638	242,803	121,711
223,523	0,463	242,675	121,494
224,538	0,465	242,497	121,396
225,553	0,388	242,203	121,176
226,567	0,415	242,052	121,111
227,582	0,481	241,933	121,094
228,596	0,477	241,654	120,941
229,611	0,424	241,594	120,857
230,626	0,322	241,525	120,730
231,640	0,412	241,299	120,678
232,655	0,342	241,128	120,526
233,669	0,503	240,994	120,577
234,684	0,404	240,784	120,382
235,699	0,267	240,633	120,186
236,713	0,430	240,374	120,177
237,728	0,384	240,346	120,115
238,742	0,404	240,089	119,991
239,757	0,097	240,092	119,737
240,772	0,522	239,816	119,929
241,786	0,287	239,712	119,678
242,801	0,162	239,445	119,434
243,815	0,469	239,429	119,660
244,830	0,346	239,196	119,435
245,844	0,273	238,973	119,255
246,859	0,286	238,810	119,174
247,874	0,287	238,768	119,143
248,888	0,404	238,590	119,136
249,903	0,024	238,294	118,676
250,917	0,455	238,402	119,062
251,932	0,288	238,191	118,813
252,947	0,402	237,963	118,779
253,961	0,262	237,819	118,586
254,976	0,144	237,750	118,447
255,990	0,483	237,460	118,560
257,005	0,250	237,462	118,367
258,020	0,416	237,263	118,388
259,034	0,482	237,081	118,339
260,049	0,441	236,901	118,206
261,063	0,313	236,660	117,974
262,078	0,273	236,668	117,936
263,093	0,409	236,373	117,886
264,107	0,177	236,445	117,728
265,122	0,258	236,175	117,647
266,136	0,430	235,935	117,652
267,151	0,508	235,830	117,651
268,166	0,566	235,615	117,578
269,180	0,250	235,433	117,230
270,195	0,496	235,233	117,312
271,209	0,371	235,104	117,139
272,224	0,488	234,924	117,130
273,239	0,310	234,857	116,948
274,253	0,374	234,542	116,830
275,268	0,133	234,598	116,660
276,282	0,692	234,390	116,982
277,297	0,285	234,324	116,621
278,312	0,085	234,377	116,481
279,326	0,326	234,070	116,506
280,341	0,489	234,040	116,608
281,355	0,512	233,690	116,441
282,370	0,539	233,556	116,384
283,384	0,205	233,462	116,068
284,399	0,558	233,123	116,162
285,414	0,347	233,050	115,953
286,428	0,402	232,949	115,935
287,443	0,383	232,870	115,870
288,457	0,570	232,625	115,882
289,472	0,578	232,437	115,784
290,487	0,588	232,390	115,758
291,501	0,395	232,233	115,521
292,516	0,511	232,182	115,575
293,530	0,440	231,932	115,385
294,545	0,413	231,811	115,295
295,560	0,361	231,668	115,173
296,574	0,194	231,641	115,020
297,589	0,365	231,473	115,058
298,603	0,516	231,255	115,055
299,618	0,480	231,036	114,908
300,633	0,390	230,965	114,794
301,647	0,553	230,835	114,844
302,662	0,648	230,585	114,782
303,676	0,571	230,431	114,637
304,691	0,477	230,566	114,622
305,706	0,629	230,277	114,584
306,720	0,538	230,237	114,484
307,735	0,608	229,970	114,395
308,749	0,415	229,942	114,223
309,764	0,670	229,628	114,251
310,779	0,749	229,457	114,216
311,793	0,513	229,292	113,945
312,808	0,658	229,061	113,930
313,822	0,712	229,006	113,933
314,837	0,538	228,828	113,702
315,852	0,684	228,742	113,760
316,866	0,533	228,729	113,630
317,881	0,602	228,500	113,558
318,895	0,777	228,340	113,600
319,910	0,556	228,146	113,326
320,925	0,638	227,887	113,249
321,939	0,786	227,830	113,323
322,954	0,648	227,745	113,166
323,968	0,775	227,531	113,146
324,983	0,807	227,460	113,124
325,997	0,749	227,196	112,939
327,012	0,656	227,177	112,850
328,027	0,657	226,981	112,743
329,041	0,668	226,877	112,690
330,056	0,602	226,695	112,540
331,070	0,726	226,673	112,612
332,085	0,676	226,512	112,485
333,100	0,611	226,351	112,346
334,114	0,575	226,130	112,199
335,129	0,631	225,903	112,118
336,143	0,730	225,736	112,099
337,158	1,012	225,677	112,270
338,173	1,017	225,455	112,153
339,187	0,945	225,377	112,051
340,202	0,842	225,360	111,956
341,216	0,611	225,133	111,662
342,231	0,610	225,079	111,623
343,246	0,655	225,071	111,644
344,260	0,920	224,719	111,656
345,275	0,797	224,607	111,499
346,289	0,840	224,461	111,448
347,304	1,067	224,303	111,528
348,319	0,704	224,176	111,186
349,333	0,983	223,968	111,279
350,348	0,882	223,838	111,130
351,362	0,857	223,814	111,090
352,377	0,904	223,556	110,986
353,392	0,785	223,519	110,870
354,406	1,023	223,328	110,941
355,421	190,222	1311,804	1370,381
356,435	152,223	1444,265	1370,205
