DTS Sentinel unit serial number:	SN410029Multiplexer serial number:	ORYXHardware model number:	OX2-SRSoftware version number:	ORYX F/W v4,00 Oryx Data Collector v3.7.2.0data status	okinstallation	B5 Nyhavnadifferential loss correction	single-endedforward channel	channel 2reverse channel	N/Adate	2023/12/14time	00:02:13forward acquisition time	300,00reverse acquisition time	0,00gamma	499,1914k internal	0,3155k external	0,3155temperature offset calibration	1,0000default loss term (dB/km)	0,3820temperature slope calibration	1,0000multiplexer offset coefficient	1,0000multiplexer slope coefficient	1,0000fibre end	0,00T internal ref (°C)	8,74T ext. ref 1 (°C)	-7,54T ext. ref 2 (°C)	-7,55length (m)	temperature (°C)	Stokes	anti-Stokes-744,400	-200,000	-0,013	0,074
-743,385	-154,919	-0,368	-0,018
-742,371	-102,094	0,113	0,020
-741,356	-190,669	-0,410	0,003
-740,342	216,027	0,070	0,082
-739,327	-110,378	-0,260	-0,039
-738,312	8,466	0,095	0,052
-737,298	-117,139	-0,395	-0,052
-736,283	18,232	0,239	0,140
-735,269	-63,580	-0,307	-0,093
-734,254	-45,637	0,142	0,051
-733,239	-94,281	-0,514	-0,103
-732,225	137,665	0,163	0,158
-731,210	-2,729	0,090	-0,046
-730,196	121,684	-0,116	-0,106
-729,181	-72,852	0,059	0,016
-728,167	-200,000	-0,014	-0,083
-727,152	800,000	0,020	0,044
-726,137	81,326	-0,130	-0,103
-725,123	-33,641	0,134	0,054
-724,108	-19,916	-0,144	0,065
-723,094	-147,865	-0,107	0,006
-722,079	800,000	0,024	-0,057
-721,064	224,009	-0,026	-0,031
-720,050	-126,182	-0,082	0,009
-719,035	-141,847	-0,099	-0,007
-718,021	800,000	-0,006	-0,016
-717,006	219,519	-0,067	-0,079
-715,991	-106,690	-0,101	-0,016
-714,977	-138,520	-0,192	-0,015
-713,962	73,981	0,132	-0,102
-712,948	-200,000	0,006	0,077
-711,933	-26,499	-0,102	0,044
-710,918	-200,000	-0,012	0,125
-709,904	800,000	-0,035	-0,071
-708,889	-29,852	-0,038	0,016
-707,875	800,000	0,031	-0,065
-706,860	-13,452	-0,059	-0,028
-705,845	-200,000	0,012	0,153
-704,831	-153,158	0,130	0,007
-703,816	800,000	0,009	-0,021
-702,802	-113,688	-0,153	0,022
-701,787	-200,000	-0,035	0,113
-700,772	-66,359	0,084	-0,024
-699,758	-131,743	-0,086	0,008
-698,743	446,793	-0,040	0,065
-697,729	-46,390	-0,119	0,043
-696,714	207,544	-0,087	0,100
-695,699	24,721	-0,139	0,085
-694,685	-57,178	-0,047	-0,015
-693,670	-200,000	-0,029	0,107
-692,656	800,000	0,033	-0,077
-691,641	-200,000	-0,015	0,067
-690,627	275,473	-0,066	-0,087
-689,612	-118,333	-0,048	-0,006
-688,597	800,000	-0,046	0,100
-687,583	-36,584	-0,104	0,041
-686,568	176,668	-0,055	0,059
-685,554	637,915	-0,048	-0,091
-684,539	-119,924	0,192	0,024
-683,524	634,694	0,007	0,013
-682,510	800,000	0,052	0,118
-681,495	-141,728	0,084	0,006
-680,481	-200,000	-0,006	0,085
-679,466	-68,403	-0,134	0,038
-678,451	-200,000	0,020	-0,119
-677,437	-200,000	0,032	-0,274
-676,422	96,151	0,070	0,059
-675,408	-200,000	-0,001	-0,102
-674,393	783,513	-0,013	-0,026
-673,378	80,583	-0,076	-0,060
-672,364	-40,159	-0,105	0,040
-671,349	54,356	0,089	0,063
-670,335	-122,201	-0,103	-0,012
-669,320	-108,418	-0,133	0,021
-668,305	-105,017	-0,098	0,016
-667,291	800,000	0,015	-0,032
-666,276	-91,204	0,060	-0,013
-665,262	-85,184	-0,176	-0,040
-664,247	364,623	0,071	-0,106
-663,232	309,425	0,023	0,031
-662,218	253,465	0,048	-0,061
-661,203	-93,193	-0,152	-0,031
-660,189	-55,481	0,030	-0,010
-659,174	-66,889	-0,203	0,059
-658,159	517,176	0,074	-0,128
-657,145	428,520	-0,080	0,128
-656,130	800,000	0,010	0,028
-655,116	446,933	0,031	0,050
-654,101	89,617	-0,050	0,041
-653,086	295,545	0,006	0,008
-652,072	171,901	-0,099	-0,105
-651,057	335,033	-0,054	0,077
-650,043	669,748	-0,065	-0,124
-649,028	74,981	-0,078	-0,061
-648,014	149,867	-0,030	0,030
-646,999	-172,782	0,120	-0,003
-645,984	800,000	0,012	-0,028
-644,970	654,823	0,040	-0,076
-643,955	-112,419	-0,197	-0,029
-642,941	-146,333	-0,082	0,005
-641,926	428,454	0,054	-0,086
-640,911	448,679	-0,026	-0,042
-639,897	800,000	0,055	0,128
-638,882	26,440	0,097	-0,059
-637,868	800,000	0,021	-0,061
-636,853	-66,603	-0,043	-0,012
-635,838	137,105	-0,141	0,135
-634,824	-200,000	0,026	0,092
-633,809	69,965	0,048	-0,036
-632,795	380,567	-0,018	0,027
-631,780	-200,000	-0,012	0,066
-630,765	290,567	-0,083	-0,111
-629,751	-200,000	0,000	-0,047
-628,736	-200,000	-0,012	-0,139
-627,722	171,977	0,027	0,028
-626,707	299,159	0,121	0,164
-625,692	-51,775	-0,125	-0,043
-624,678	-146,421	0,070	-0,004
-623,663	109,125	0,043	-0,038
-622,649	800,000	0,007	-0,018
-621,634	682,485	0,034	-0,066
-620,619	520,847	-0,041	-0,072
-619,605	-3,614	-0,058	0,029
-618,590	800,000	0,087	0,196
-617,576	-35,280	0,015	0,006
-616,561	-200,000	0,002	0,123
-615,546	-76,668	-0,047	-0,012
-614,532	-78,923	-0,073	0,018
-613,517	-200,000	0,004	-0,136
-612,503	162,520	-0,046	-0,047
-611,488	-89,734	0,130	-0,028
-610,474	-67,126	0,043	0,012
-609,459	127,913	0,090	-0,084
-608,444	46,801	-0,086	-0,059
-607,430	383,698	-0,059	-0,089
-606,415	-98,920	-0,199	0,037
-605,401	-107,060	0,166	0,027
-604,386	-121,063	0,189	-0,023
-603,371	39,497	0,067	0,044
-602,357	-86,531	-0,059	-0,013
-601,342	-200,000	0,004	-0,080
-600,328	800,000	0,037	-0,113
-599,313	-110,559	-0,054	-0,008
-598,298	-111,906	0,184	-0,027
-597,284	592,456	-0,029	0,053
-596,269	124,424	-0,055	0,051
-595,255	-200,000	0,023	0,105
-594,240	-103,110	-0,080	0,014
-593,225	332,309	-0,036	-0,052
-592,211	91,884	-0,090	-0,074
-591,196	429,572	-0,035	0,056
-590,182	0,666	0,068	-0,035
-589,167	41,635	0,030	0,020
-588,152	-200,000	0,012	0,051
-587,138	-92,980	0,102	-0,021
-586,123	-200,000	-0,010	-0,071
-585,109	-90,127	-0,038	0,008
-584,094	-45,359	-0,204	0,074
-583,079	-153,836	0,057	-0,003
-582,065	800,000	-0,045	0,134
-581,050	-34,392	-0,082	-0,033
-580,036	24,472	-0,120	-0,073
-579,021	-142,302	0,117	0,008
-578,006	98,187	-0,073	-0,061
-576,992	-34,164	0,081	0,033
-575,977	64,230	-0,089	0,065
-574,963	-128,372	0,121	0,012
-573,948	663,436	0,044	0,084
-572,934	256,256	0,030	0,038
-571,919	-93,572	-0,073	0,015
-570,904	679,798	0,121	-0,232
-569,890	231,083	-0,108	0,130
-568,875	800,000	-0,030	0,090
-567,861	-94,840	0,154	0,030
-566,846	344,709	-0,097	-0,139
-565,831	-200,000	-0,006	-0,176
-564,817	450,700	-0,019	0,031
-563,802	-108,794	-0,052	0,008
-562,788	-50,708	0,121	-0,041
-561,773	140,032	-0,042	-0,040
-560,758	457,389	0,011	0,018
-559,744	-107,466	-0,030	-0,005
-558,729	-200,000	0,002	0,012
-557,715	-9,466	-0,047	0,023
-556,700	-49,622	-0,082	0,029
-555,685	800,000	0,023	-0,047
-554,671	-37,839	-0,093	0,036
-553,656	800,000	-0,076	0,168
-552,642	-200,000	-0,006	-0,110
-551,627	75,540	-0,100	0,077
-550,612	-15,852	-0,086	0,040
-549,598	784,441	-0,064	-0,128
-548,583	800,000	0,054	-0,171
-547,569	198,251	-0,063	-0,071
-546,554	-111,166	0,095	-0,014
-545,539	-17,718	0,096	-0,044
-544,525	-51,829	-0,049	0,017
-543,510	105,551	-0,083	0,072
-542,496	-200,000	-0,007	0,082
-541,481	-54,303	-0,070	-0,023
-540,466	130,363	0,084	-0,079
-539,452	559,791	0,014	-0,025
-538,437	-86,443	-0,081	0,018
-537,423	32,518	-0,116	-0,073
-536,408	-1,337	0,090	0,046
-535,393	107,496	-0,079	-0,069
-534,379	210,494	-0,091	-0,105
-533,364	-200,000	-0,018	0,063
-532,350	800,000	-0,038	-0,099
-531,335	-119,441	0,150	0,019
-530,321	-200,000	-0,003	0,046
-529,306	800,000	0,010	-0,026
-528,291	62,645	-0,039	-0,029
-527,277	-160,244	-0,067	0,003
-526,262	57,632	0,067	-0,048
-525,248	13,821	0,010	-0,006
-524,233	800,000	-0,038	0,079
-523,218	800,000	0,010	-0,023
-522,204	-91,706	-0,030	0,006
-521,189	-116,047	-0,009	-0,001
-520,175	624,576	-0,093	-0,173
-519,160	-200,000	-0,040	-0,221
-518,145	800,000	0,016	0,033
-517,131	160,862	0,043	0,044
-516,116	361,758	0,015	0,023
-515,102	-72,991	0,141	-0,038
-514,087	133,301	0,020	-0,019
-513,072	270,650	-0,072	0,093
-512,058	800,000	-0,039	-0,105
-511,043	122,207	0,047	-0,043
-510,029	51,278	0,056	0,039
-509,014	-59,751	0,225	0,070
-507,999	-56,486	-0,034	-0,011
-506,985	-5,493	0,065	-0,032
-505,970	-76,226	-0,012	0,003
-504,956	160,760	0,134	-0,137
-503,941	-132,861	-0,137	-0,013
-502,926	-145,021	0,160	0,010
-501,912	121,700	-0,038	0,034
-500,897	310,535	-0,041	0,057
-499,883	156,607	0,116	0,117
-498,868	119,593	0,077	0,069
-497,853	-118,474	-0,104	-0,013
-496,839	181,522	0,032	0,035
-495,824	8,895	0,137	0,075
-494,810	-200,000	-0,022	0,101
-493,795	63,159	0,053	0,039
-492,781	800,000	0,017	0,044
-491,766	-42,822	-0,091	-0,033
-490,751	73,788	0,075	0,058
-489,737	800,000	-0,069	-0,171
-488,722	340,868	-0,016	-0,023
-487,708	-200,000	0,010	0,057
-486,693	800,000	0,026	0,068
-485,678	647,179	0,041	0,077
-484,664	-200,000	-0,015	-0,080
-483,649	-27,983	-0,085	0,036
-482,635	197,690	-0,101	-0,113
-481,620	-85,889	0,135	-0,030
-480,605	149,692	0,046	0,045
-479,591	-163,409	-0,069	-0,002
-478,576	-56,273	-0,085	-0,027
-477,562	143,867	0,054	0,053
-476,547	-200,000	0,008	-0,048
-475,532	370,846	0,030	0,045
-474,518	142,050	0,059	0,057
-473,503	-93,960	0,161	0,032
-472,489	-7,862	-0,024	-0,012
-471,474	-100,647	0,076	-0,014
-470,459	123,249	-0,081	-0,074
-469,445	-200,000	0,019	0,066
-468,430	571,770	-0,036	0,064
-467,416	800,000	0,043	-0,138
-466,401	-33,617	0,184	-0,074
-465,386	156,464	-0,080	0,081
-464,372	-200,000	0,003	-0,117
-463,357	-200,000	0,006	0,058
-462,343	-18,704	0,120	0,054
-461,328	-138,624	-0,155	-0,012
-460,313	-143,547	0,046	0,003
-459,299	685,820	0,046	0,088
-458,284	0,018	-0,024	-0,012
-457,270	184,837	-0,056	-0,060
-456,255	37,128	0,038	-0,024
-455,241	-40,691	-0,091	0,034
-454,226	-59,678	-0,155	-0,048
-453,211	-200,000	0,004	0,098
-452,197	-200,000	0,007	0,157
-451,182	-148,584	0,109	-0,006
-450,168	-8,165	-0,083	-0,041
-449,153	-136,119	-0,078	-0,007
-448,138	557,599	-0,017	0,029
-447,124	800,000	0,019	-0,060
-446,109	-200,000	0,049	0,160
-445,095	-33,395	0,091	0,037
-444,080	800,000	-0,005	0,015
-443,065	-44,077	0,209	0,076
-442,051	623,056	-0,063	0,117
-441,036	-132,788	-0,155	-0,014
-440,022	800,000	-0,057	0,120
-439,007	41,134	-0,166	0,109
-437,992	-200,000	0,006	-0,077
-436,978	-200,000	0,026	0,175
-435,963	-200,000	0,009	0,097
-434,949	800,000	0,035	0,088
-433,934	-200,000	-0,008	-0,059
-432,919	-165,229	0,083	0,003
-431,905	43,921	-0,057	-0,038
-430,890	-190,974	0,100	-0,001
-429,876	-200,000	-0,014	0,115
-428,861	-59,047	-0,023	-0,007
-427,846	51,273	-0,118	-0,081
-426,832	-21,837	-0,048	-0,021
-425,817	-16,025	0,074	0,034
-424,803	21,423	-0,097	-0,057
-423,788	-19,669	-0,092	-0,041
-422,773	-186,053	0,053	0,001
-421,759	421,906	0,055	0,086
-420,744	97,308	0,015	-0,013
-419,730	800,000	-0,034	-0,078
-418,715	432,324	-0,013	-0,020
-417,701	800,000	-0,017	0,050
-416,686	-200,000	0,008	-0,091
-415,671	-147,953	0,114	0,007
-414,657	168,194	-0,109	0,113
-413,642	-200,000	0,007	0,050
-412,628	-26,118	-0,025	0,011
-411,613	139,815	-0,068	-0,065
-410,598	140,779	0,058	0,056
-409,584	-15,155	0,084	0,039
-408,569	-146,836	0,058	0,004
-407,555	35,368	-0,042	0,027
-406,540	560,550	0,031	-0,054
-405,525	783,151	0,024	-0,047
-404,511	-165,888	-0,109	-0,003
-403,496	9,927	0,021	0,012
-402,482	653,829	-0,057	0,108
-401,467	25,055	0,100	-0,060
-400,452	-200,000	-0,033	0,108
-399,438	352,067	-0,085	0,123
-398,423	-200,000	0,012	-0,095
-397,409	24,355	0,044	0,026
-396,394	93,649	-0,024	-0,020
-395,379	-200,000	-0,010	0,067
-394,365	800,000	-0,008	-0,021
-393,350	-33,175	0,061	-0,025
-392,336	-200,000	-0,005	-0,049
-391,321	-160,791	-0,006	-0,000
-390,306	-200,000	0,009	0,093
-389,292	-200,000	-0,001	-0,109
-388,277	420,655	0,061	-0,095
-387,263	84,220	-0,153	0,122
-386,248	-0,775	0,135	0,069
-385,233	286,687	-0,074	-0,097
-384,219	-11,803	-0,066	0,031
-383,204	-135,527	-0,114	-0,010
-382,190	-131,489	0,153	-0,014
-381,175	-200,000	0,024	-0,106
-380,160	-18,327	0,083	0,037
-379,146	-130,323	0,190	0,019
-378,131	294,574	-0,025	0,033
-377,117	-86,872	0,070	0,015
-376,102	272,817	-0,022	0,028
-375,088	-200,000	-0,040	-0,168
-374,073	-47,536	-0,043	-0,015
-373,058	748,497	0,047	0,093
-372,044	-117,827	-0,040	0,005
-371,029	-137,858	-0,123	-0,010
-370,015	-27,705	-0,045	0,019
-369,000	254,875	0,111	-0,138
-367,985	-200,000	-0,002	0,028
-366,971	465,854	-0,022	-0,036
-365,956	-200,000	-0,015	-0,106
-364,942	-200,000	-0,006	0,030
-363,927	-63,851	-0,055	0,016
-362,912	22,852	0,044	0,026
-361,898	-39,563	-0,069	0,026
-360,883	-200,000	0,022	-0,080
-359,869	-200,000	0,005	0,122
-358,854	-52,542	0,113	-0,038
-357,839	241,655	-0,089	-0,108
-356,825	800,000	-0,013	-0,028
-355,810	523,575	-0,062	0,107
-354,796	138,318	0,075	0,072
-353,781	211,912	0,020	-0,023
-352,766	257,960	-0,029	0,036
-351,752	-200,000	0,007	-0,134
-350,737	-95,676	0,095	0,018
-349,723	123,126	-0,089	0,081
-348,708	481,673	0,052	0,086
-347,693	217,894	-0,167	-0,194
-346,679	-200,000	0,011	0,046
-345,664	-200,000	-0,025	-0,130
-344,650	22,707	0,070	-0,041
-343,635	-200,000	-0,032	0,131
-342,620	-90,849	0,032	-0,007
-341,606	-200,000	0,004	-0,015
-340,591	204,698	-0,102	0,115
-339,577	-200,000	-0,011	0,037
-338,562	404,868	-0,044	-0,067
-337,548	-131,547	0,009	0,001
-336,533	284,003	0,082	0,107
-335,518	800,000	0,029	0,059
-334,504	-121,528	0,106	-0,013
-333,489	-139,364	-0,107	0,008
-332,475	541,889	-0,080	-0,139
-331,460	256,371	0,126	-0,157
-330,445	-99,235	0,166	0,030
-329,431	-17,391	0,073	-0,033
-328,416	-89,163	-0,105	-0,022
-327,402	158,012	-0,079	0,080
-326,387	445,156	-0,036	0,058
-325,372	67,855	0,157	-0,116
-324,358	247,403	0,049	-0,060
-323,343	-117,477	-0,054	0,007
-322,329	176,375	0,037	-0,039
-321,314	534,012	-0,037	-0,063
-320,299	220,781	0,052	0,061
-319,285	-200,000	0,038	0,199
-318,270	-200,000	0,004	-0,105
-317,256	-200,000	0,012	0,065
-316,241	-97,270	0,042	0,008
-315,226	800,000	-0,035	0,074
-314,212	800,000	-0,056	0,114
-313,197	19,329	0,095	-0,055
-312,183	304,869	-0,041	0,055
-311,168	-61,297	-0,077	0,023
-310,153	-160,304	-0,163	-0,006
-309,139	101,836	0,073	-0,062
-308,124	586,115	0,028	0,049
-307,110	-188,534	0,026	0,000
-306,095	-14,728	0,030	-0,014
-305,080	800,000	-0,043	0,089
-304,066	-106,179	0,166	0,027
-303,051	-200,000	0,004	-0,134
-302,037	-200,000	-0,042	-0,217
-301,022	241,396	0,095	0,115
-300,008	-200,000	0,036	0,235
-298,993	-200,000	-0,026	0,091
-297,978	800,000	0,059	0,131
-296,964	138,865	0,072	-0,069
-295,949	-200,000	-0,002	0,040
-294,935	-74,007	0,074	-0,019
-293,920	-200,000	0,018	-0,165
-292,905	568,012	-0,036	0,063
-291,891	-200,000	-0,009	0,083
-290,876	-200,000	0,019	-0,098
-289,862	155,118	-0,048	-0,048
-288,847	39,906	0,065	-0,043
-287,832	77,625	0,046	-0,035
-286,818	-43,903	-0,105	-0,038
-285,803	-200,000	0,008	0,032
-284,789	-114,462	0,009	-0,001
-283,774	-200,000	-0,015	-0,070
-282,759	800,000	-0,041	-0,113
-281,745	-200,000	0,037	-0,124
-280,730	-200,000	-0,014	-0,051
-279,716	3,735	-0,075	0,039
-278,701	-20,349	-0,092	0,041
-277,686	-200,000	0,022	-0,111
-276,672	46,632	0,073	0,049
-275,657	44,984	-0,007	0,005
-274,643	92,089	-0,065	-0,053
-273,628	-200,000	-0,003	0,097
-272,613	-200,000	-0,011	0,055
-271,599	342,867	-0,086	-0,122
-270,584	1,617	-0,035	-0,018
-269,570	800,000	0,027	0,062
-268,555	800,000	0,066	0,134
-267,540	153,827	-0,082	-0,082
-266,526	-96,311	-0,127	0,024
-265,511	800,000	0,026	-0,053
-264,497	448,923	-0,029	-0,046
-263,482	-16,488	0,099	0,045
-262,467	172,650	0,067	0,070
-261,453	-200,000	0,020	0,151
-260,438	-90,343	-0,122	-0,025
-259,424	-80,284	-0,064	0,015
-258,409	-200,000	-0,022	-0,106
-257,395	-59,720	0,088	-0,027
-256,380	800,000	0,030	0,093
-255,365	-115,115	0,147	0,020
-254,351	-123,621	0,067	0,008
-253,336	-200,000	0,007	-0,042
-252,322	-139,648	-0,054	0,004
-251,307	-62,576	-0,042	0,012
-250,292	7,795	-0,034	-0,019
-249,278	340,970	-0,083	0,117
-248,263	-200,000	0,005	-0,016
-247,249	-200,000	-0,012	-0,077
-246,234	-125,876	-0,090	-0,010
-245,219	-176,327	0,070	0,001
-244,205	800,000	0,070	-0,157
-243,190	-92,996	0,100	-0,020
-242,176	-31,809	-0,094	-0,038
-241,161	-63,707	-0,060	0,018
-240,146	-30,753	0,097	0,039
-239,132	-200,000	0,003	0,022
-238,117	140,284	0,053	0,051
-237,103	251,555	-0,041	-0,051
-236,088	-200,000	-0,010	0,057
-235,073	-200,000	0,001	-0,004
-234,059	-88,708	0,081	0,017
-233,044	417,873	-0,037	0,057
-232,030	184,550	-0,082	0,088
-231,015	800,000	-0,047	0,133
-230,000	-44,501	-0,059	-0,021
-228,986	-200,000	-0,032	-0,112
-227,971	800,000	-0,040	-0,101
-226,957	-53,645	0,009	0,003
-225,942	219,908	0,109	0,126
-224,927	-200,000	-0,065	0,000
-223,913	59,930	-0,036	-0,026
-222,898	-79,766	0,129	0,031
-221,884	49,385	-0,089	-0,060
-220,869	57,117	-0,035	-0,024
-219,855	-200,000	0,032	0,138
-218,840	157,730	0,047	0,047
-217,825	-98,604	-0,047	-0,009
-216,811	54,566	-0,093	-0,064
-215,796	184,337	0,174	-0,186
-214,782	186,910	-0,026	-0,028
-213,767	800,000	0,055	-0,118
-212,752	117,791	0,074	0,066
-211,738	428,984	0,022	-0,034
-210,723	131,206	-0,086	-0,080
-209,709	-200,000	-0,045	-0,174
-208,694	330,027	0,071	0,100
-207,679	161,803	-0,009	-0,009
-206,665	333,066	0,053	-0,074
-205,650	-64,655	-0,058	-0,017
-204,636	-77,646	-0,065	0,016
-203,621	-200,000	0,010	0,060
-202,606	-104,642	-0,090	-0,015
-201,592	11,631	0,043	-0,024
-200,577	270,526	-0,066	-0,083
-199,563	103,200	-0,053	0,045
-198,548	19,312	0,113	-0,065
-197,533	-63,493	-0,081	0,024
-196,519	-200,000	0,044	0,168
-195,504	800,000	0,036	-0,098
-194,490	-37,830	-0,188	-0,072
-193,475	-24,029	0,040	-0,017
-192,460	800,000	0,010	-0,029
-191,446	-113,842	0,103	0,014
-190,431	35,712	-0,021	-0,014
-189,417	-11,268	0,061	-0,029
-188,402	266,735	0,064	-0,081
-187,387	-200,000	-0,011	0,037
-186,373	800,000	-0,053	-0,135
-185,358	800,000	0,014	0,043
-184,344	-200,000	0,012	0,082
-183,329	313,461	-0,053	-0,072
-182,315	-77,992	-0,069	-0,017
-181,300	-3,615	-0,127	0,063
-180,285	-35,572	0,062	0,024
-179,271	15,439	-0,206	-0,116
-178,256	-16,772	0,103	-0,047
-177,242	13,125	0,134	0,075
-176,227	105,839	-0,062	-0,053
-175,212	800,000	0,036	0,108
-174,198	244,832	-0,033	0,040
-173,183	156,819	-0,090	0,090
-172,169	101,485	-0,082	-0,069
-171,154	-28,551	0,143	0,059
-170,139	95,020	0,048	0,039
-169,125	-100,348	0,077	0,014
-168,110	800,000	-0,018	0,044
-167,096	-200,000	-0,003	0,055
-166,081	-200,000	0,005	-0,021
-165,066	-188,840	-0,115	0,001
-164,052	-106,926	-0,120	0,019
-163,037	-0,665	0,077	0,039
-162,023	-183,221	0,070	-0,001
-161,008	800,000	0,022	0,054
-159,993	800,000	0,036	0,077
-158,979	-200,000	-0,022	0,121
-157,964	-200,000	0,022	0,128
-156,950	-200,000	0,001	0,006
-155,935	800,000	0,004	0,014
-154,920	58,376	0,159	-0,112
-153,906	-90,603	0,039	-0,008
-152,891	-36,929	0,027	-0,010
-151,877	63,709	-0,120	0,087
-150,862	58,596	-0,039	0,028
-149,847	224,067	0,056	0,066
-148,833	215,906	-0,015	0,017
-147,818	-160,403	-0,037	-0,001
-146,804	214,106	-0,097	0,111
-145,789	-200,000	0,033	0,147
-144,775	-119,431	-0,117	-0,014
-143,760	61,382	0,028	0,020
-142,745	-133,962	-0,226	0,020
-141,731	-200,000	0,018	0,212
-140,716	-200,000	0,016	0,189
-139,702	28,922	-0,072	-0,044
-138,687	-28,081	-0,076	0,032
-137,672	-200,000	0,011	-0,087
-136,658	287,054	0,063	-0,082
-135,643	292,838	-0,071	-0,093
-134,629	-121,037	0,054	0,006
-133,614	146,322	-0,034	0,033
-132,599	346,727	0,116	0,164
-131,585	-16,125	0,069	0,032
-130,570	-200,000	0,007	-0,139
-129,556	-75,734	-0,121	0,031
-128,541	108,184	-0,039	-0,034
-127,526	800,000	-0,055	0,146
-126,512	-200,000	0,010	0,126
-125,497	-58,749	0,092	-0,029
-124,483	576,238	-0,051	-0,091
-123,468	665,847	0,079	0,148
-122,453	206,877	-0,028	-0,031
-121,439	-46,316	-0,063	-0,022
-120,424	30,733	-0,165	0,102
-119,410	-1,444	-0,068	-0,035
-118,395	48,641	0,050	-0,034
-117,380	105,670	0,025	0,021
-116,366	600,706	-0,010	0,019
-115,351	-200,000	-0,011	-0,077
-114,337	-116,126	-0,120	0,016
-113,322	800,000	0,073	0,166
-112,307	800,000	0,063	0,140
-111,293	-21,703	0,085	-0,037
-110,278	-200,000	0,008	-0,051
-109,264	14,209	-0,024	0,013
-108,249	486,298	0,024	-0,040
-107,234	-200,000	-0,007	-0,040
-106,220	6,736	0,048	0,025
-105,205	130,071	-0,092	0,085
-104,191	292,884	0,082	0,108
-103,176	94,362	0,114	0,093
-102,162	293,465	-0,104	-0,136
-101,147	-200,000	0,037	0,131
-100,132	481,576	-0,022	-0,037
-99,118	800,000	0,036	-0,107
-98,103	800,000	-0,037	-0,101
-97,089	-9,005	0,081	0,039
-96,074	41,383	-0,081	-0,053
-95,059	104,000	0,055	-0,046
-94,045	-81,981	0,127	-0,030
-93,030	800,000	0,037	0,075
-92,016	282,914	0,106	-0,138
-91,001	385,921	0,036	0,054
-89,986	800,000	0,057	-0,142
-88,972	-142,108	0,092	-0,006
-87,957	-102,696	0,091	-0,016
-86,943	-200,000	0,023	-0,156
-85,928	-200,000	0,006	-0,040
-84,913	-94,742	-0,064	0,012
-83,899	-200,000	0,018	-0,122
-82,884	260,388	0,047	0,058
-81,870	11,642	0,072	-0,039
-80,855	312,246	0,030	0,041
-79,840	800,000	-0,020	-0,056
-78,826	800,000	0,004	-0,011
-77,811	633,690	-0,036	-0,066
-76,797	220,347	-0,066	-0,076
-75,782	-200,000	0,006	0,105
-74,767	800,000	0,041	0,094
-73,753	-200,000	0,018	0,064
-72,738	-200,000	-0,003	0,074
-71,724	34,717	-0,078	-0,049
-70,709	64,649	-0,056	0,041
-69,694	132,256	-0,079	0,073
-68,680	-200,000	-0,013	-0,072
-67,665	-128,251	0,135	-0,014
-66,651	-200,000	-0,000	0,015
-65,636	-54,304	0,185	0,060
-64,622	7,182	0,090	0,048
-63,607	487,431	-0,021	0,034
-62,592	-200,000	-0,004	0,014
-61,578	302,374	0,111	-0,148
-60,563	66,895	0,123	0,090
-59,549	-200,000	0,011	0,134
-58,534	91,489	-2,469	-1,992
-57,519	-37,534	0,391	-0,149
-56,505	-200,000	-1,654	-5,446
-55,490	383,404	1,176	1,744
-54,476	800,000	5,370	11,547
-53,461	-200,000	21,885	343,985
-52,446	800,000	760,717	2310,814
-51,432	519,185	1652,345	2790,831
-50,417	104,044	1617,632	1365,689
-49,403	73,683	1273,309	957,361
-48,388	25,477	1021,961	609,055
-47,373	19,298	988,296	568,529
-46,359	13,542	975,707	542,357
-45,344	9,377	972,402	526,801
-44,330	9,884	970,392	527,357
-43,315	8,877	968,500	523,005
-42,300	8,782	967,319	522,035
-41,286	8,789	966,107	521,380
-40,271	8,802	965,296	520,965
-39,257	8,806	964,093	520,309
-38,242	8,709	963,665	519,742
-37,227	8,825	962,580	519,515
-36,213	8,688	962,054	518,761
-35,198	8,747	961,176	518,459
-34,184	8,826	960,316	518,232
-33,169	8,705	959,424	517,337
-32,154	8,818	958,573	517,224
-31,140	8,746	957,630	516,462
-30,125	8,817	956,764	516,203
-29,111	8,794	955,820	515,601
-28,096	8,799	955,580	515,468
-27,082	8,844	954,664	515,096
-26,067	8,786	954,030	514,546
-25,052	8,743	953,094	513,883
-24,038	8,743	952,403	513,491
-23,023	8,736	951,884	513,167
-22,009	8,810	951,252	513,045
-20,994	8,836	950,498	512,702
-19,979	8,819	949,978	512,347
-18,965	8,784	949,376	511,890
-17,950	8,725	949,012	511,483
-16,936	8,734	948,239	511,075
-15,921	8,763	947,434	510,713
-14,906	8,676	946,601	509,965
-13,892	8,650	946,040	509,561
-12,877	8,648	945,360	509,168
-11,863	8,608	944,857	508,747
-10,848	8,643	944,185	508,476
-9,833	8,722	943,928	508,573
-8,819	8,712	943,128	508,087
-7,804	8,662	942,283	507,453
-6,790	8,655	941,831	507,166
-5,775	8,646	941,388	506,880
-4,760	8,689	940,668	506,610
-3,746	8,639	940,034	506,088
-2,731	8,549	939,318	505,397
-1,717	8,505	938,837	504,978
-0,702	8,534	938,067	504,637
0,313	8,355	937,419	504,482
1,327	11,748	935,065	513,907
2,342	20,409	783,765	453,568
3,356	15,431	450,585	253,196
4,371	-11,018	313,427	147,902
5,386	-14,579	295,765	135,943
6,400	-16,704	289,687	131,025
7,415	-16,871	287,191	129,720
8,429	-17,597	285,341	128,162
9,444	-17,514	284,538	127,870
10,459	-17,369	283,849	127,690
11,473	-17,509	283,228	127,264
12,488	-17,084	282,557	127,363
13,502	-17,251	282,198	127,028
14,517	-17,408	281,906	126,733
15,531	-17,331	281,333	126,539
16,546	-17,256	280,957	126,431
17,561	-17,314	280,520	126,167
18,575	-17,047	280,131	126,238
19,590	-17,109	279,859	126,043
20,604	-17,057	279,579	125,957
21,619	-17,398	279,272	125,480
22,634	-17,253	278,844	125,416
23,648	-17,196	278,595	125,347
24,663	-17,149	278,388	125,287
25,677	-17,109	277,991	125,135
26,692	-17,114	277,715	124,995
27,707	-17,119	277,360	124,820
28,721	-17,076	277,237	124,794
29,736	-17,097	276,700	124,522
30,750	-17,089	276,667	124,503
31,765	-17,079	276,275	124,325
32,780	-17,191	276,246	124,195
33,794	-17,249	275,909	123,977
34,809	-17,135	275,760	124,007
35,823	-17,089	275,322	123,843
36,838	-17,250	275,225	123,637
37,853	-17,211	274,804	123,473
38,867	-17,200	274,585	123,374
39,882	-17,283	274,605	123,294
40,896	-17,011	274,126	123,323
41,911	-16,981	273,947	123,259
42,926	-17,102	273,683	123,016
43,940	-16,947	273,387	123,017
44,955	-17,214	273,282	122,710
45,969	-17,142	272,964	122,623
46,984	-17,276	272,955	122,483
47,999	-17,086	272,556	122,470
49,013	-17,037	272,377	122,424
50,028	-16,981	272,175	122,375
51,042	-16,962	271,936	122,274
52,057	-17,122	271,878	122,088
53,071	-16,989	271,550	122,053
54,086	-16,895	271,206	121,975
55,101	-17,167	270,998	121,619
56,115	-17,169	270,800	121,518
57,130	-17,074	270,454	121,439
58,144	-17,001	270,227	121,394
59,159	-17,013	269,898	121,224
60,174	-17,097	269,836	121,108
61,188	-17,077	269,508	120,968
62,203	-17,290	269,461	120,741
63,217	-17,107	269,238	120,797
64,232	-17,104	268,823	120,604
65,247	-16,997	268,606	120,593
66,261	-17,062	268,390	120,426
67,276	-17,061	268,284	120,369
68,290	-17,069	267,942	120,198
69,305	-17,102	267,873	120,126
70,320	-17,031	267,524	120,023
71,334	-16,958	267,240	119,951
72,349	-17,059	266,994	119,739
73,363	-17,026	266,759	119,653
74,378	-17,168	266,524	119,408
75,393	-17,102	266,353	119,380
76,407	-17,036	266,155	119,341
77,422	-16,969	265,891	119,272
78,436	-17,262	265,739	118,928
79,451	-17,336	265,542	118,762
80,466	-17,042	265,354	118,934
81,480	-17,013	264,890	118,742
82,495	-17,061	264,916	118,699
83,509	-17,021	264,716	118,635
84,524	-16,991	264,419	118,519
85,539	-17,026	264,356	118,448
86,553	-16,958	264,083	118,376
87,568	-17,030	263,908	118,223
88,582	-17,051	263,585	118,049
89,597	-16,998	263,349	117,979
90,611	-17,109	263,300	117,847
91,626	-17,064	262,904	117,700
92,641	-17,053	262,740	117,626
93,655	-16,926	262,570	117,653
94,670	-16,940	262,227	117,477
95,684	-16,940	262,162	117,437
96,699	-17,093	262,040	117,235
97,714	-16,967	261,795	117,228
98,728	-16,806	261,555	117,253
99,743	-16,863	261,415	117,129
100,757	-16,935	261,168	116,944
101,772	-16,849	261,044	116,954
102,787	-17,016	260,710	116,646
103,801	-17,041	260,534	116,535
104,816	-17,091	260,255	116,355
105,830	-16,987	260,223	116,423
106,845	-17,111	259,890	116,153
107,860	-17,011	259,738	116,163
108,874	-17,080	259,552	116,009
109,889	-16,954	259,317	116,005
110,903	-17,060	259,039	115,777
111,918	-17,059	258,892	115,701
112,933	-16,982	258,734	115,689
113,947	-17,072	258,533	115,510
114,962	-16,934	258,330	115,530
115,976	-16,991	258,116	115,374
116,991	-17,071	257,948	115,218
118,006	-17,117	257,732	115,071
119,020	-17,052	257,504	115,015
120,035	-16,959	257,264	114,980
121,049	-17,097	257,323	114,875
122,064	-16,951	257,082	114,885
123,079	-16,812	256,583	114,773
124,093	-16,916	256,506	114,638
125,108	-17,116	256,344	114,381
126,122	-16,904	256,221	114,500
127,137	-16,833	256,063	114,481
128,151	-16,834	255,856	114,377
129,166	-16,884	255,692	114,250
130,181	-16,769	255,273	114,152
131,195	-16,878	255,140	113,989
132,210	-16,984	255,052	113,847
133,224	-17,024	254,755	113,670
134,239	-17,079	254,627	113,555
135,254	-16,985	254,334	113,496
136,268	-16,949	254,094	113,410
137,283	-16,811	253,992	113,473
138,297	-16,874	253,843	113,342
139,312	-16,879	253,497	113,173
140,327	-16,881	253,404	113,120
141,341	-16,941	253,191	112,963
142,356	-16,935	252,946	112,849
143,370	-17,013	252,793	112,703
144,385	-16,877	252,571	112,711
145,400	-17,096	252,393	112,433
146,414	-16,958	252,181	112,448
147,429	-17,098	252,233	112,341
148,443	-16,893	251,777	112,303
149,458	-16,792	251,525	112,267
150,473	-16,879	251,401	112,127
151,487	-17,039	251,303	111,937
152,502	-16,977	251,153	111,913
153,516	-16,956	250,975	111,842
154,531	-16,766	250,588	111,820
155,546	-16,937	250,574	111,659
156,560	-16,890	250,435	111,627
157,575	-16,999	250,082	111,368
158,589	-16,878	250,013	111,429
159,604	-16,907	249,867	111,330
160,619	-16,967	249,586	111,144
161,633	-16,967	249,319	111,015
162,648	-16,939	249,266	111,006
163,662	-16,881	249,057	110,951
164,677	-16,930	248,776	110,774
165,692	-17,020	248,734	110,671
166,706	-17,014	248,656	110,631
167,721	-16,960	248,453	110,576
168,735	-16,826	248,183	110,558
169,750	-16,762	248,013	110,526
170,764	-16,857	247,881	110,378
171,779	-16,969	247,763	110,222
172,794	-16,971	247,656	110,163
173,808	-16,870	247,323	110,089
174,823	-16,900	247,209	110,004
175,837	-17,006	247,087	109,851
176,852	-17,066	246,805	109,666
177,867	-17,022	246,686	109,640
178,881	-16,884	246,585	109,700
179,896	-16,835	246,470	109,680
180,910	-16,977	246,311	109,482
181,925	-16,859	245,985	109,425
182,940	-16,914	245,837	109,303
183,954	-16,992	245,684	109,161
184,969	-17,022	245,462	109,028
185,983	-16,843	245,283	109,087
186,998	-16,888	245,132	108,973
188,013	-16,819	244,962	108,944
189,027	-16,760	244,643	108,842
190,042	-16,976	244,606	108,638
191,056	-16,947	244,269	108,502
192,071	-17,069	244,286	108,399
193,086	-16,915	243,901	108,345
194,100	-17,090	243,741	108,121
195,115	-16,828	243,741	108,326
196,129	-16,902	243,387	108,099
197,144	-17,010	243,267	107,947
198,159	-17,014	243,222	107,914
199,173	-16,958	242,926	107,819
200,188	-16,993	242,757	107,706
201,202	-16,953	242,528	107,627
202,217	-16,961	242,558	107,624
203,232	-17,058	242,330	107,435
204,246	-17,065	242,055	107,298
205,261	-17,177	241,758	107,064
206,275	-15,751	242,111	108,376
207,290	-10,623	244,184	113,514
208,304	-4,299	246,024	119,590
209,319	-1,755	246,661	121,994
210,334	-0,701	247,036	123,041
211,348	0,262	247,145	123,881
212,363	0,793	247,087	124,281
213,377	1,242	247,125	124,660
214,392	1,481	247,153	124,859
215,407	1,806	247,055	125,068
216,421	1,878	246,894	125,035
217,436	1,970	246,814	125,058
218,450	1,906	246,519	124,845
219,465	1,972	246,331	124,793
220,480	1,924	246,158	124,655
221,494	1,891	245,850	124,461
222,509	1,350	245,621	123,890
223,523	1,093	245,430	123,571
224,538	1,015	245,218	123,390
225,553	0,831	245,027	123,132
226,567	0,911	244,956	123,152
227,582	0,796	244,753	122,944
228,596	0,890	244,541	122,904
229,611	1,002	244,385	122,905
230,626	0,791	244,261	122,660
231,640	0,926	243,918	122,587
232,655	0,622	244,022	122,380
233,669	0,893	243,699	122,428
234,684	0,946	243,668	122,444
235,699	0,946	243,446	122,322
236,713	0,915	243,255	122,190
237,728	0,932	243,150	122,140
238,742	1,116	242,842	122,124
239,757	0,900	242,989	122,012
240,772	0,879	242,653	121,815
241,786	1,052	242,505	121,870
242,801	1,018	242,430	121,794
243,815	0,861	242,279	121,580
244,830	0,840	242,002	121,413
245,844	0,849	241,855	121,336
246,859	0,927	241,657	121,289
247,874	0,920	241,623	121,255
248,888	0,807	241,371	121,027
249,903	0,934	241,311	121,089
250,917	0,805	241,142	120,889
251,932	1,157	240,922	121,051
252,947	1,066	240,753	120,882
253,961	1,110	240,617	120,838
254,976	0,945	240,364	120,568
255,990	0,956	240,349	120,559
257,005	0,942	240,287	120,506
258,020	0,930	240,031	120,357
259,034	0,951	239,840	120,267
260,049	0,930	239,720	120,179
261,063	0,911	239,588	120,087
262,078	0,815	239,362	119,887
263,093	1,076	239,249	120,028
264,107	1,048	239,037	119,888
265,122	0,906	238,854	119,673
266,136	0,946	238,822	119,678
267,151	0,880	238,705	119,556
268,166	0,823	238,458	119,377
269,180	0,793	238,337	119,281
270,195	1,002	238,050	119,293
271,209	1,071	238,009	119,316
272,224	0,947	237,807	119,106
273,239	0,902	237,760	119,036
274,253	0,864	237,480	118,855
275,268	1,031	237,294	118,883
276,282	1,063	237,065	118,783
277,297	0,860	236,974	118,568
278,312	0,983	236,983	118,659
279,326	1,045	236,797	118,603
280,341	1,057	236,651	118,529
281,355	1,062	236,397	118,395
282,370	1,015	236,380	118,339
283,384	1,089	236,118	118,255
284,399	0,881	236,028	118,037
285,414	0,928	235,934	118,016
286,428	0,888	235,762	117,888
287,443	1,016	235,619	117,907
288,457	0,926	235,325	117,678
289,472	0,906	235,182	117,581
290,487	0,814	234,979	117,397
291,501	1,124	234,896	117,587
292,516	0,951	234,789	117,388
293,530	0,916	234,652	117,282
294,545	1,081	234,460	117,304
295,560	0,977	234,420	117,193
296,574	1,196	234,250	117,267
297,589	0,995	234,051	117,001
298,603	1,115	233,792	116,954
299,618	1,188	233,811	117,010
300,633	1,113	233,686	116,879
301,647	1,196	233,448	116,814
302,662	1,081	233,417	116,698
303,676	1,207	233,290	116,722
304,691	1,155	233,130	116,592
305,706	1,181	232,955	116,514
306,720	1,293	232,761	116,493
307,735	1,262	232,599	116,377
308,749	1,104	232,445	116,169
309,764	1,124	232,291	116,096
310,779	1,132	232,108	116,000
311,793	1,170	231,901	115,916
312,808	1,101	231,905	115,855
313,822	1,142	231,663	115,755
314,837	1,052	231,604	115,646
315,852	1,188	231,550	115,714
316,866	1,386	231,291	115,725
317,881	1,324	231,207	115,625
318,895	0,920	231,007	115,205
319,910	1,139	230,825	115,272
320,925	1,205	230,553	115,176
321,939	1,204	230,483	115,130
322,954	1,140	230,364	115,011
323,968	1,082	230,225	114,888
324,983	1,012	230,049	114,737
325,997	1,195	229,830	114,756
327,012	1,154	229,805	114,703
328,027	0,951	229,708	114,490
329,041	1,054	229,436	114,422
330,056	1,276	229,395	114,560
331,070	1,176	229,175	114,364
332,085	1,251	228,928	114,288
333,100	1,171	228,977	114,241
334,114	1,030	228,780	114,025
335,129	1,217	228,511	114,023
336,143	1,196	228,523	114,003
337,158	1,248	228,322	113,932
338,173	1,285	228,216	113,897
339,187	1,329	228,083	113,853
340,202	1,288	227,972	113,757
341,216	1,190	227,727	113,551
342,231	1,399	227,514	113,592
343,246	1,480	227,413	113,592
344,260	1,471	227,160	113,449
345,275	1,248	227,227	113,304
346,289	1,349	226,970	113,243
347,304	1,342	226,974	113,228
348,319	1,534	226,695	113,223
349,333	1,278	226,595	112,971
350,348	1,352	226,356	112,898
351,362	1,385	226,304	112,886
352,377	1,410	226,305	112,895
353,392	1,495	226,081	112,837
354,406	1,516	225,822	112,713
355,421	191,317	1311,983	1376,079
356,435	153,226	1444,187	1375,944
