DTS Sentinel unit serial number:	SN410029Multiplexer serial number:	ORYXHardware model number:	OX2-SRSoftware version number:	ORYX F/W v4,00 Oryx Data Collector v3.7.2.0data status	okinstallation	B5 Nyhavnadifferential loss correction	single-endedforward channel	channel 2reverse channel	N/Adate	2023/12/11time	20:22:13forward acquisition time	300,00reverse acquisition time	0,00gamma	499,1914k internal	0,3158k external	0,3158temperature offset calibration	1,0000default loss term (dB/km)	0,3820temperature slope calibration	1,0000multiplexer offset coefficient	1,0000multiplexer slope coefficient	1,0000fibre end	0,00T internal ref (°C)	15,94T ext. ref 1 (°C)	0,17T ext. ref 2 (°C)	-0,07length (m)	temperature (°C)	Stokes	anti-Stokes-744,400	346,062	-0,059	-0,086
-743,385	-185,779	-0,217	-0,002
-742,371	-166,334	0,026	-0,001
-741,356	-86,179	-0,193	0,044
-740,342	167,355	0,047	0,049
-739,327	-29,589	-0,248	-0,104
-738,312	769,687	0,052	-0,106
-737,298	-71,780	-0,236	0,064
-736,283	-58,120	0,102	-0,032
-735,269	32,294	-0,190	0,120
-734,254	-106,258	0,114	0,019
-733,239	-123,563	-0,442	-0,051
-732,225	-98,523	0,231	0,043
-731,210	-200,000	-0,001	0,216
-730,196	-13,889	-0,075	0,035
-729,181	38,440	-0,083	-0,055
-728,167	-200,000	0,002	0,014
-727,152	800,000	-0,043	-0,141
-726,137	262,387	0,019	0,024
-725,123	-121,594	-0,083	0,010
-724,108	-76,929	-0,127	-0,032
-723,094	152,209	-0,078	-0,078
-722,079	130,676	-0,135	-0,127
-721,064	154,644	-0,003	-0,003
-720,050	-30,071	-0,102	0,043
-719,035	-200,000	-0,003	0,060
-718,021	-147,136	-0,075	-0,005
-717,006	-5,203	-0,086	0,043
-715,991	50,551	-0,113	-0,078
-714,977	301,023	-0,038	-0,052
-713,962	-65,343	-0,026	-0,008
-712,948	-105,040	0,051	0,009
-711,933	-200,000	0,010	-0,084
-710,918	-200,000	0,009	0,109
-709,904	800,000	-0,062	-0,168
-708,889	800,000	-0,042	-0,088
-707,875	46,058	0,058	0,039
-706,860	479,723	-0,092	-0,154
-705,845	-68,612	0,089	-0,025
-704,831	-200,000	0,022	0,114
-703,816	800,000	0,035	0,084
-702,802	261,570	-0,116	-0,149
-701,787	212,229	-0,048	-0,056
-700,772	42,646	-0,073	0,049
-699,758	129,816	0,037	0,035
-698,743	268,089	-0,056	0,072
-697,729	-146,113	0,067	0,004
-696,714	-125,748	0,082	-0,009
-695,699	-170,654	-0,057	-0,001
-694,685	-3,134	-0,044	0,023
-693,670	8,258	-0,150	-0,083
-692,656	-91,468	-0,065	-0,014
-691,641	195,546	0,024	-0,026
-690,627	800,000	-0,022	0,065
-689,612	73,934	-0,107	0,083
-688,597	223,533	0,043	-0,052
-687,583	-200,000	-0,043	-0,203
-686,568	-9,266	0,205	-0,100
-685,554	-11,844	0,156	-0,075
-684,539	-200,000	-0,034	0,161
-683,524	4,527	0,016	-0,009
-682,510	800,000	-0,036	0,094
-681,495	-71,093	-0,128	-0,035
-680,481	-31,162	-0,171	-0,070
-679,466	-13,560	-0,129	-0,061
-678,451	800,000	-0,042	-0,093
-677,437	380,953	-0,003	0,005
-676,422	84,932	-0,083	0,067
-675,408	-9,761	-0,046	0,023
-674,393	-0,296	0,030	-0,015
-673,378	271,004	-0,046	-0,060
-672,364	141,852	0,096	0,094
-671,349	-200,000	-0,011	-0,049
-670,335	757,756	0,013	0,027
-669,320	-200,000	-0,002	-0,116
-668,305	800,000	-0,065	0,142
-667,291	-200,000	-0,010	0,076
-666,276	669,051	-0,031	-0,060
-665,262	-124,729	-0,125	-0,014
-664,247	-46,570	-0,100	-0,036
-663,232	-200,000	0,019	-0,070
-662,218	347,261	-0,032	-0,046
-661,203	-13,985	-0,132	-0,062
-660,189	-137,929	0,099	0,008
-659,174	-40,828	-0,133	-0,050
-658,159	-200,000	0,009	-0,048
-657,145	149,157	-0,100	-0,099
-656,130	356,690	0,018	0,026
-655,116	800,000	-0,043	-0,090
-654,101	800,000	0,063	0,180
-653,086	800,000	-0,072	0,192
-652,072	472,683	-0,062	-0,103
-651,057	24,755	-0,031	-0,019
-650,043	-163,790	0,101	-0,003
-649,028	-200,000	-0,001	-0,035
-648,014	316,194	0,049	-0,068
-646,999	-200,000	-0,019	-0,097
-645,984	4,494	0,023	0,013
-644,970	-200,000	0,001	0,176
-643,955	609,034	-0,072	-0,132
-642,941	800,000	0,038	-0,089
-641,926	-200,000	-0,003	0,083
-640,911	800,000	-0,010	0,032
-639,897	411,860	0,074	0,116
-638,882	12,373	0,030	0,017
-637,868	-1,777	0,097	0,050
-636,853	-55,194	-0,102	0,033
-635,838	-200,000	0,029	-0,095
-634,824	-200,000	0,007	-0,136
-633,809	54,497	0,024	-0,017
-632,795	-65,922	0,087	0,025
-631,780	-137,296	-0,004	0,000
-630,765	220,662	-0,054	0,064
-629,751	28,029	0,046	-0,028
-628,736	656,395	-0,066	-0,125
-627,722	36,788	0,119	-0,077
-626,707	-200,000	-0,012	0,055
-625,692	542,428	0,053	0,093
-624,678	800,000	0,013	-0,038
-623,663	-49,071	-0,194	-0,068
-622,649	81,203	0,047	-0,037
-621,634	-200,000	-0,026	-0,119
-620,619	-200,000	-0,002	0,093
-619,605	800,000	0,006	0,016
-618,590	11,567	-0,096	-0,054
-617,576	800,000	0,067	0,175
-616,561	28,936	0,032	-0,020
-615,546	113,070	-0,117	-0,104
-614,532	-39,246	0,074	-0,028
-613,517	-200,000	0,035	-0,120
-612,503	-11,082	-0,055	0,027
-611,488	-125,280	-0,084	0,009
-610,474	257,919	-0,053	0,067
-609,459	99,697	-0,081	0,069
-608,444	-20,548	0,101	-0,045
-607,430	183,811	0,059	0,064
-606,415	-200,000	0,010	0,046
-605,401	-200,000	0,001	0,084
-604,386	-200,000	-0,018	0,078
-603,371	45,878	-0,061	0,041
-602,357	82,847	-0,117	-0,093
-601,342	-25,908	0,146	-0,063
-600,328	307,921	-0,027	0,037
-599,313	-200,000	0,001	-0,107
-598,298	-62,589	0,087	-0,026
-597,284	-161,270	-0,068	0,003
-596,269	76,551	0,034	-0,027
-595,255	800,000	0,010	0,023
-594,240	520,361	-0,079	-0,137
-593,225	-28,399	-0,157	0,066
-592,211	800,000	-0,024	0,054
-591,196	800,000	-0,031	-0,090
-590,182	800,000	0,022	0,071
-589,167	197,104	-0,056	0,063
-588,152	-95,514	0,103	-0,020
-587,138	680,917	-0,052	-0,100
-586,123	10,651	-0,025	0,014
-585,109	132,513	-0,051	-0,048
-584,094	-36,434	0,057	0,022
-583,079	32,420	0,078	0,049
-582,065	70,979	0,035	0,027
-581,050	-62,422	-0,032	0,010
-580,036	125,018	0,074	-0,069
-579,021	-1,122	-0,136	-0,070
-578,006	273,407	-0,085	0,110
-576,992	76,622	0,077	-0,060
-575,977	28,682	-0,097	0,060
-574,963	-200,000	-0,045	0,192
-573,948	530,131	0,014	-0,024
-572,934	800,000	-0,034	0,097
-571,919	330,567	0,019	-0,027
-570,904	800,000	-0,029	0,069
-569,890	752,355	-0,026	0,051
-568,875	-20,226	-0,161	0,072
-567,861	-95,488	0,135	0,026
-566,846	800,000	0,017	0,041
-565,831	266,336	0,063	-0,081
-564,817	199,898	-0,017	0,019
-563,802	262,856	0,081	-0,104
-562,788	800,000	0,036	0,092
-561,773	800,000	0,048	0,134
-560,758	-86,406	-0,065	0,015
-559,744	-86,153	-0,093	0,021
-558,729	-123,740	0,029	0,003
-557,715	166,381	-0,014	0,014
-556,700	263,456	-0,061	-0,078
-555,685	237,846	-0,081	0,099
-554,671	-117,584	0,190	-0,025
-553,656	-200,000	0,011	0,121
-552,642	65,839	0,091	0,068
-551,627	67,813	-0,077	0,057
-550,612	800,000	-0,018	-0,054
-549,598	-148,177	-0,079	0,005
-548,583	-92,742	-0,168	-0,034
-547,569	-200,000	0,007	-0,096
-546,554	-119,688	-0,019	0,002
-545,539	-200,000	0,023	0,089
-544,525	254,077	-0,034	0,043
-543,510	170,806	0,044	-0,046
-542,496	-83,018	-0,143	0,034
-541,481	-200,000	-0,012	0,153
-540,466	-5,724	-0,103	-0,052
-539,452	131,952	0,043	0,041
-538,437	232,797	0,130	0,156
-537,423	-94,020	0,086	-0,017
-536,408	198,845	0,095	-0,107
-535,393	-200,000	0,011	-0,068
-534,379	-200,000	0,008	-0,061
-533,364	777,050	-0,059	0,118
-532,350	-200,000	0,012	0,051
-531,335	800,000	-0,034	-0,068
-530,321	1,265	-0,077	0,040
-529,306	-200,000	-0,017	-0,099
-528,291	528,396	-0,026	-0,045
-527,277	734,271	0,040	0,079
-526,262	17,906	-0,100	-0,058
-525,248	-200,000	-0,033	-0,121
-524,233	78,028	0,096	0,075
-523,218	308,882	0,049	-0,067
-522,204	-200,000	-0,058	-0,247
-521,189	-152,163	-0,054	-0,003
-520,175	-139,094	0,080	0,006
-519,160	404,963	0,061	0,094
-518,145	800,000	-0,031	0,071
-517,131	-172,380	0,063	-0,001
-516,116	-200,000	-0,009	0,038
-515,102	170,047	-0,059	-0,062
-514,087	-13,451	0,085	0,040
-513,072	98,890	-0,065	-0,054
-512,058	800,000	0,009	0,024
-511,043	-200,000	-0,004	0,015
-510,029	-175,624	0,081	0,002
-509,014	179,048	-0,097	-0,103
-507,999	10,582	-0,090	-0,050
-506,985	226,425	-0,053	-0,062
-505,970	95,852	0,039	0,033
-504,956	139,058	0,001	0,001
-503,941	800,000	0,049	-0,130
-502,926	192,491	0,084	-0,093
-501,912	479,182	0,032	0,054
-500,897	352,121	0,018	-0,025
-499,883	-200,000	0,001	-0,142
-498,868	-200,000	0,006	-0,071
-497,853	714,776	-0,030	-0,058
-496,839	-200,000	0,003	0,045
-495,824	800,000	0,042	0,099
-494,810	-24,093	-0,057	-0,025
-493,795	-176,926	-0,034	-0,001
-492,781	-200,000	0,011	0,096
-491,766	-20,119	-0,089	0,040
-490,751	17,951	-0,068	-0,040
-489,737	-7,651	0,012	0,006
-488,722	41,007	-0,150	0,099
-487,708	20,939	0,013	-0,008
-486,693	800,000	0,062	0,131
-485,678	-97,098	-0,088	0,017
-484,664	-200,000	-0,036	-0,145
-483,649	23,186	-0,170	-0,102
-482,635	490,400	-0,011	0,018
-481,620	800,000	0,033	-0,105
-480,605	-200,000	0,011	-0,055
-479,591	-200,000	-0,013	0,092
-478,576	322,650	-0,030	0,042
-477,562	699,910	0,033	-0,064
-476,547	151,486	-0,033	-0,032
-475,532	800,000	0,015	-0,037
-474,518	800,000	-0,047	-0,103
-473,503	-94,511	0,062	0,012
-472,489	-129,163	-0,103	-0,010
-471,474	36,994	0,020	-0,013
-470,459	-100,298	-0,081	0,014
-469,445	25,605	0,105	-0,064
-468,430	-200,000	0,018	-0,112
-467,416	-56,771	0,066	0,021
-466,401	800,000	0,032	0,084
-465,386	320,607	0,039	-0,055
-464,372	-200,000	-0,005	0,060
-463,357	-54,462	-0,100	-0,033
-462,343	-200,000	-0,021	-0,179
-461,328	-150,268	0,032	-0,002
-460,313	130,343	0,051	0,048
-459,299	-18,099	0,048	0,022
-458,284	132,993	0,015	-0,014
-457,270	0,757	-0,044	0,023
-456,255	15,228	-0,197	0,112
-455,241	55,810	0,057	-0,040
-454,226	6,308	0,127	-0,068
-453,211	-200,000	-0,006	-0,049
-452,197	-200,000	0,013	0,072
-451,182	-200,000	-0,012	-0,045
-450,168	-200,000	0,027	0,192
-449,153	-126,615	-0,135	-0,014
-448,138	800,000	-0,079	-0,162
-447,124	-188,635	0,104	0,001
-446,109	-200,000	-0,004	-0,014
-445,095	288,331	-0,047	0,062
-444,080	87,658	0,078	0,063
-443,065	86,588	-0,052	-0,042
-442,051	354,781	-0,041	0,060
-441,036	163,603	-0,030	0,030
-440,022	230,103	0,048	-0,057
-439,007	800,000	0,030	0,093
-437,992	341,945	-0,016	-0,023
-436,978	-81,750	0,272	0,064
-435,963	228,153	-0,097	-0,115
-434,949	-64,890	-0,065	0,019
-433,934	-200,000	0,010	-0,141
-432,919	-200,000	-0,017	-0,199
-431,905	182,977	0,079	-0,085
-430,890	-200,000	-0,021	0,073
-429,876	-200,000	-0,033	0,125
-428,861	800,000	0,059	0,144
-427,846	237,341	-0,036	0,043
-426,832	-143,065	0,094	0,007
-425,817	-34,700	0,053	-0,021
-424,803	184,527	0,062	-0,067
-423,788	-200,000	-0,030	0,100
-422,773	19,990	0,066	-0,039
-421,759	-114,473	-0,042	-0,006
-420,744	-64,105	-0,044	0,013
-419,730	800,000	-0,024	-0,057
-418,715	142,797	-0,044	0,042
-417,701	-59,530	-0,039	0,012
-416,686	686,256	0,065	-0,124
-415,671	41,936	-0,011	-0,007
-414,657	-120,626	0,120	0,015
-413,642	-200,000	0,005	-0,146
-412,628	41,977	-0,036	0,024
-411,613	-200,000	0,019	-0,088
-410,598	401,522	0,112	-0,172
-409,584	-200,000	-0,006	0,027
-408,569	-22,220	0,022	0,010
-407,555	352,772	0,027	0,039
-406,540	800,000	-0,052	0,113
-405,525	33,148	-0,124	-0,078
-404,511	800,000	-0,087	-0,200
-403,496	572,480	-0,051	-0,091
-402,482	109,881	-0,039	0,034
-401,467	-27,248	-0,069	0,029
-400,452	-200,000	-0,004	0,080
-399,438	-200,000	-0,017	0,217
-398,423	-200,000	0,021	0,084
-397,409	800,000	0,035	0,076
-396,394	-200,000	-0,023	0,172
-395,379	506,069	0,024	0,041
-394,365	533,401	0,030	0,052
-393,350	800,000	0,044	0,097
-392,336	-11,866	0,157	0,074
-391,321	-195,111	-0,016	0,000
-390,306	-200,000	0,001	-0,097
-389,292	-16,623	0,019	-0,009
-388,277	203,156	0,098	-0,110
-387,263	413,499	0,078	0,120
-386,248	-121,878	0,095	0,011
-385,233	-76,250	-0,061	-0,016
-384,219	-123,907	0,039	-0,004
-383,204	181,724	0,102	-0,109
-382,190	800,000	-0,034	-0,074
-381,175	800,000	-0,023	0,061
-380,160	-200,000	0,025	0,133
-379,146	8,256	0,018	0,010
-378,131	-154,333	0,035	-0,002
-377,117	-183,770	-0,097	0,001
-376,102	-15,519	-0,060	-0,028
-375,088	-34,249	-0,006	-0,002
-374,073	31,593	0,045	-0,028
-373,058	-200,000	-0,030	0,159
-372,044	-37,921	0,057	0,022
-371,029	-200,000	0,019	0,097
-370,015	-134,807	0,045	0,004
-369,000	800,000	0,065	-0,154
-367,985	27,144	0,122	-0,074
-366,971	-200,000	-0,002	-0,076
-365,956	-200,000	0,013	-0,166
-364,942	-74,828	-0,091	-0,024
-363,927	-169,960	0,206	0,005
-362,912	18,529	-0,053	-0,031
-361,898	329,622	-0,018	-0,025
-360,883	-114,750	-0,009	0,001
-359,869	542,928	-0,033	-0,057
-358,854	242,124	-0,059	0,071
-357,839	119,297	0,111	0,100
-356,825	-200,000	-0,004	0,056
-355,810	-22,755	-0,127	0,055
-354,796	-200,000	-0,014	-0,059
-353,781	10,120	0,067	0,037
-352,766	-200,000	-0,025	-0,180
-351,752	44,594	-0,038	0,025
-350,737	-160,419	0,157	0,006
-349,723	69,120	0,052	0,039
-348,708	-35,782	-0,054	-0,021
-347,693	800,000	0,025	0,052
-346,679	-1,878	-0,046	0,024
-345,664	-67,523	0,035	0,010
-344,650	30,738	0,192	-0,119
-343,635	206,387	-0,035	0,040
-342,620	185,914	0,150	0,162
-341,606	545,572	0,021	-0,036
-340,591	800,000	-0,025	-0,070
-339,577	-200,000	0,006	-0,062
-338,562	-51,580	0,048	-0,016
-337,548	57,635	0,035	-0,025
-336,533	477,489	0,070	0,115
-335,518	112,414	0,119	0,104
-334,504	554,885	0,088	-0,154
-333,489	-200,000	-0,017	0,056
-332,475	67,704	0,070	-0,052
-331,460	-4,933	0,070	-0,035
-330,445	-200,000	-0,030	0,134
-329,431	25,886	0,089	0,054
-328,416	800,000	0,046	0,114
-327,402	-200,000	0,005	0,084
-326,387	59,260	-0,136	0,097
-325,372	225,290	0,031	-0,037
-324,358	-119,961	-0,075	0,009
-323,343	-24,611	-0,025	0,011
-322,329	241,978	-0,075	-0,092
-321,314	-182,016	0,116	0,002
-320,299	-200,000	0,030	0,131
-319,285	800,000	-0,036	0,073
-318,270	91,050	-0,020	0,017
-317,256	-200,000	-0,008	-0,140
-316,241	-200,000	-0,005	0,113
-315,226	-87,797	0,038	0,008
-314,212	-135,176	0,082	-0,007
-313,197	800,000	-0,052	0,131
-312,183	-8,711	0,033	0,016
-311,168	-200,000	0,025	-0,088
-310,153	-200,000	-0,003	-0,086
-309,139	32,320	0,115	-0,072
-308,124	-24,848	0,088	0,038
-307,110	-200,000	-0,076	-0,000
-306,095	30,270	0,119	0,074
-305,080	800,000	0,030	0,084
-304,066	-100,881	-0,184	-0,033
-303,051	-200,000	-0,035	-0,135
-302,037	45,528	-0,126	-0,084
-301,022	800,000	-0,062	-0,138
-300,008	299,648	0,108	0,145
-298,993	360,137	0,058	-0,084
-297,978	252,658	-0,026	0,032
-296,964	-200,000	0,005	-0,022
-295,949	800,000	0,060	-0,187
-294,935	490,574	0,029	0,048
-293,920	-135,726	-0,082	-0,007
-292,905	-200,000	0,046	0,158
-291,891	800,000	0,061	0,136
-290,876	235,672	-0,086	0,104
-289,862	-200,000	-0,006	-0,058
-288,847	-8,123	-0,096	0,047
-287,832	-26,658	-0,027	-0,011
-286,818	97,944	-0,057	0,048
-285,803	-53,590	0,178	0,059
-284,789	-200,000	-0,020	-0,067
-283,774	155,772	-0,051	-0,051
-282,759	-38,871	-0,055	-0,021
-281,745	0,541	-0,100	-0,051
-280,730	-90,154	-0,103	-0,022
-279,716	-76,560	-0,085	0,021
-278,701	-200,000	0,014	-0,119
-277,686	481,507	0,055	-0,090
-276,672	800,000	-0,032	-0,077
-275,657	800,000	0,050	0,151
-274,643	427,317	-0,075	0,118
-273,628	134,370	-0,007	-0,006
-272,613	800,000	-0,015	-0,032
-271,599	494,465	0,040	-0,067
-270,584	-13,857	-0,026	-0,012
-269,570	644,645	-0,039	0,072
-268,555	3,007	0,038	0,020
-267,540	800,000	0,025	-0,059
-266,526	-184,693	-0,053	-0,001
-265,511	800,000	0,059	-0,129
-264,497	647,468	0,054	0,100
-263,482	800,000	0,041	0,094
-262,467	206,313	0,056	0,064
-261,453	-200,000	0,001	-0,008
-260,438	535,015	-0,019	0,033
-259,424	-91,655	0,110	-0,022
-258,409	621,926	-0,007	-0,013
-257,395	-200,000	-0,008	-0,032
-256,380	-70,160	0,035	0,010
-255,365	310,673	0,028	0,038
-254,351	-200,000	-0,014	-0,083
-253,336	800,000	-0,076	-0,153
-252,322	-200,000	0,004	0,055
-251,307	-200,000	-0,012	0,179
-250,292	146,810	-0,042	-0,041
-249,278	99,691	-0,030	0,025
-248,263	-200,000	-0,000	0,128
-247,249	-30,382	-0,100	0,041
-246,234	-200,000	-0,005	0,047
-245,219	-14,992	0,128	-0,059
-244,205	490,801	-0,091	-0,151
-243,190	336,361	0,084	-0,118
-242,176	-200,000	0,007	0,134
-241,161	-50,989	0,110	-0,037
-240,146	113,807	0,159	0,140
-239,132	800,000	0,008	0,021
-238,117	800,000	-0,027	-0,070
-237,103	-25,185	0,119	-0,051
-236,088	69,204	-0,107	-0,079
-235,073	800,000	0,035	0,109
-234,059	296,274	0,024	0,032
-233,044	-7,296	-0,101	0,049
-232,030	6,147	0,021	0,011
-231,015	22,993	-0,042	-0,025
-230,000	-96,982	-0,154	0,029
-228,986	367,286	0,075	0,109
-227,971	250,948	0,109	0,135
-226,957	437,742	0,051	-0,081
-225,942	-110,326	-0,008	-0,001
-224,927	9,921	0,070	0,038
-223,913	800,000	-0,003	-0,008
-222,898	-62,187	-0,042	-0,012
-221,884	71,878	-0,023	-0,017
-220,869	-172,893	0,075	-0,002
-219,855	-113,198	0,064	0,009
-218,840	85,443	0,078	-0,061
-217,825	-78,412	-0,125	-0,031
-216,811	-63,453	-0,043	0,013
-215,796	-200,000	0,011	-0,092
-214,782	-200,000	0,001	-0,076
-213,767	800,000	-0,053	-0,127
-212,752	-57,390	0,105	0,033
-211,738	800,000	0,027	0,064
-210,723	-200,000	-0,043	-0,163
-209,709	346,736	0,100	-0,142
-208,694	83,024	-0,081	-0,064
-207,679	12,332	-0,117	0,065
-206,665	-1,858	-0,039	-0,020
-205,650	-46,263	0,073	-0,026
-204,636	-83,487	-0,107	-0,025
-203,621	203,238	-0,028	-0,031
-202,606	5,348	0,237	-0,126
-201,592	714,280	0,061	-0,117
-200,577	224,384	-0,037	-0,043
-199,563	66,134	-0,089	0,065
-198,548	379,938	0,039	0,058
-197,533	4,274	-0,065	0,034
-196,519	66,800	-0,026	0,019
-195,504	192,468	-0,047	0,051
-194,490	-200,000	-0,034	-0,112
-193,475	-200,000	0,016	-0,114
-192,460	-155,463	-0,142	-0,007
-191,446	-133,377	-0,063	-0,006
-190,431	-28,658	0,088	0,036
-189,417	179,906	-0,021	-0,022
-188,402	-12,628	-0,036	-0,017
-187,387	-80,659	-0,084	-0,020
-186,373	702,035	0,032	-0,061
-185,358	-150,453	-0,047	-0,003
-184,344	-200,000	-0,022	-0,077
-183,329	-97,863	0,064	-0,012
-182,315	-200,000	0,008	0,123
-181,300	423,577	0,041	0,063
-180,285	96,468	0,019	0,015
-179,271	800,000	-0,030	-0,091
-178,256	-110,315	0,078	0,012
-177,242	-200,000	-0,032	-0,160
-176,227	-200,000	-0,026	-0,112
-175,212	190,946	-0,044	0,048
-174,198	-200,000	-0,070	0,231
-173,183	17,233	-0,109	-0,062
-172,169	93,491	-0,081	0,066
-171,154	-88,381	0,039	-0,008
-170,139	-111,756	0,064	-0,009
-169,125	800,000	0,033	0,086
-168,110	-1,189	0,079	-0,040
-167,096	405,241	-0,071	0,109
-166,081	69,744	0,024	0,018
-165,066	-141,405	-0,157	-0,011
-164,052	29,662	-0,140	-0,086
-163,037	315,880	-0,039	0,054
-162,023	736,876	0,052	0,101
-161,008	800,000	0,022	0,046
-159,993	-200,000	-0,009	0,115
-158,979	-28,862	-0,080	0,033
-157,964	-78,714	-0,079	-0,019
-156,950	-45,098	0,065	0,023
-155,935	210,960	0,050	0,056
-154,920	-45,133	0,035	0,013
-153,906	94,570	-0,077	0,063
-152,891	800,000	-0,070	0,142
-151,877	-101,532	-0,135	-0,023
-150,862	-68,168	-0,113	-0,031
-149,847	36,427	-0,032	-0,021
-148,833	169,692	-0,065	0,067
-147,818	-16,488	0,040	-0,018
-146,804	-200,000	-0,004	0,037
-145,789	49,058	0,039	-0,026
-144,775	108,492	0,090	-0,077
-143,760	-200,000	0,006	0,068
-142,745	800,000	-0,086	-0,246
-141,731	-52,439	0,148	0,049
-140,716	225,012	0,017	0,020
-139,702	-200,000	0,010	-0,044
-138,687	-200,000	-0,020	-0,107
-137,672	-63,215	-0,092	0,027
-136,658	800,000	0,040	-0,094
-135,643	198,731	-0,090	0,100
-134,629	-200,000	0,018	-0,212
-133,614	-78,732	0,063	-0,015
-132,599	-200,000	0,004	0,084
-131,585	347,495	0,019	-0,027
-130,570	-200,000	-0,003	-0,076
-129,556	509,055	-0,056	0,093
-128,541	-200,000	-0,013	-0,097
-127,526	-200,000	0,001	-0,010
-126,512	-134,854	-0,032	0,003
-125,497	-55,412	0,231	0,074
-124,483	334,139	-0,059	-0,082
-123,468	800,000	0,018	0,055
-122,453	223,291	-0,079	0,091
-121,439	32,216	0,049	0,031
-120,424	800,000	-0,047	-0,142
-119,410	145,064	0,138	0,133
-118,395	233,180	0,062	0,073
-117,380	505,306	0,047	0,078
-116,366	-45,565	0,067	-0,024
-115,351	240,347	-0,078	-0,094
-114,337	73,889	0,112	-0,084
-113,322	-200,000	0,012	-0,092
-112,307	162,392	0,033	-0,033
-111,293	-50,983	0,053	-0,018
-110,278	-200,000	0,035	0,161
-109,264	209,487	-0,019	-0,021
-108,249	667,831	0,048	-0,090
-107,234	-200,000	0,020	-0,147
-106,220	-200,000	-0,008	-0,213
-105,205	216,841	-0,018	0,021
-104,191	800,000	-0,032	0,081
-103,176	-32,703	-0,093	-0,037
-102,162	-88,195	0,113	0,024
-101,147	-157,134	-0,186	0,008
-100,132	192,672	-0,057	0,062
-99,118	102,915	-0,153	0,129
-98,103	800,000	0,010	-0,022
-97,089	360,511	-0,032	0,046
-96,074	-13,800	0,032	0,015
-95,059	28,605	-0,066	-0,040
-94,045	-148,847	-0,057	0,003
-93,030	-84,615	0,058	0,013
-92,016	800,000	0,030	0,062
-91,001	608,713	0,058	-0,105
-89,986	-200,000	0,007	0,098
-88,972	519,702	-0,018	-0,030
-87,957	37,182	-0,139	-0,088
-86,943	19,331	-0,136	-0,078
-85,928	800,000	0,079	-0,164
-84,913	-200,000	-0,008	-0,098
-83,899	-200,000	0,006	-0,022
-82,884	-69,314	0,102	0,028
-81,870	-200,000	-0,005	0,042
-80,855	-200,000	0,019	0,153
-79,840	-64,114	0,042	-0,012
-78,826	-107,145	-0,222	-0,035
-77,811	800,000	-0,022	-0,056
-76,797	800,000	-0,034	-0,074
-75,782	-65,003	-0,113	0,032
-74,767	-5,520	0,118	0,058
-73,753	-200,000	0,008	0,028
-72,738	-44,318	0,066	0,024
-71,724	247,140	0,012	-0,014
-70,709	-12,519	-0,007	0,003
-69,694	-194,534	0,148	-0,001
-68,680	372,613	-0,114	0,167
-67,665	800,000	0,065	0,152
-66,651	-67,628	0,068	-0,019
-65,636	-16,659	-0,087	0,040
-64,622	-200,000	0,012	0,085
-63,607	487,844	0,050	0,083
-62,592	800,000	-0,038	-0,082
-61,578	127,652	0,105	0,096
-60,563	-173,986	0,130	0,003
-59,549	-120,918	-0,149	0,018
-58,534	7,995	-1,845	-0,991
-57,519	-200,000	-0,265	-0,902
-56,505	-200,000	-1,252	-4,966
-55,490	-36,032	0,810	0,313
-54,476	800,000	5,242	11,994
-53,461	-200,000	17,114	282,561
-52,446	800,000	721,545	2224,975
-51,432	543,172	1637,854	2815,347
-50,417	112,258	1631,034	1415,041
-49,403	76,215	1286,770	976,689
-48,388	32,967	1028,990	638,234
-47,373	20,229	990,670	572,442
-46,359	18,733	978,706	560,595
-45,344	16,165	975,165	550,131
-44,330	16,407	973,566	550,000
-43,315	16,006	971,754	547,642
-42,300	15,960	970,591	546,816
-41,286	16,026	969,464	546,375
-40,271	15,941	968,550	545,559
-39,257	15,964	967,764	545,170
-38,242	15,998	966,706	544,664
-37,227	15,982	966,054	544,222
-36,213	15,989	965,158	543,720
-35,198	15,948	964,209	543,031
-34,184	16,014	963,458	542,799
-33,169	15,930	962,405	541,913
-32,154	15,993	961,527	541,601
-31,140	16,017	960,478	541,066
-30,125	16,010	959,904	540,697
-29,111	15,961	959,241	540,145
-28,096	16,021	958,414	539,850
-27,082	16,019	957,903	539,537
-26,067	16,031	956,941	539,012
-25,052	15,884	956,585	538,316
-24,038	16,001	955,522	538,071
-23,023	15,930	955,071	537,568
-22,009	16,007	954,288	537,354
-20,994	16,018	953,708	537,042
-19,979	16,002	953,254	536,713
-18,965	15,993	952,538	536,259
-17,950	15,979	951,951	535,864
-16,936	15,882	951,322	535,177
-15,921	15,912	950,476	534,777
-14,906	15,910	949,922	534,438
-13,892	15,926	949,004	533,950
-12,877	15,809	948,615	533,338
-11,863	15,863	947,863	533,065
-10,848	15,810	947,494	532,668
-9,833	15,913	946,985	532,688
-8,819	15,926	946,237	532,289
-7,804	15,894	945,705	531,866
-6,790	15,819	945,206	531,326
-5,775	15,879	944,313	530,992
-4,760	15,874	943,846	530,694
-3,746	15,871	943,232	530,317
-2,731	15,707	942,753	529,507
-1,717	15,722	941,891	529,051
-0,702	15,701	941,330	528,647
0,313	15,510	940,563	528,412
1,327	18,606	938,365	536,892
2,342	27,216	796,179	478,395
3,356	23,978	460,190	271,525
4,371	-2,797	314,442	157,077
5,386	-6,433	295,980	144,166
6,400	-8,307	289,958	139,362
7,415	-9,055	287,462	137,416
8,429	-9,156	285,981	136,596
9,444	-9,269	285,082	136,044
10,459	-9,287	284,550	135,760
11,473	-9,171	283,892	135,548
12,488	-9,221	283,373	135,239
13,502	-9,383	282,946	134,867
14,517	-9,319	282,436	134,673
15,531	-9,273	281,920	134,460
16,546	-9,370	281,577	134,191
17,561	-9,325	281,125	134,007
18,575	-9,293	280,754	133,849
19,590	-9,386	280,347	133,553
20,604	-9,364	280,146	133,467
21,619	-9,405	279,749	133,226
22,634	-9,432	279,280	132,965
23,648	-9,354	278,952	132,872
24,663	-9,440	278,735	132,675
25,677	-9,403	278,598	132,633
26,692	-9,380	278,426	132,562
27,707	-9,328	277,953	132,374
28,721	-9,422	277,738	132,170
29,736	-9,436	277,536	132,049
30,750	-9,467	277,214	131,855
31,765	-9,572	277,186	131,730
32,780	-9,551	276,807	131,558
33,794	-9,563	276,583	131,428
34,809	-9,459	276,251	131,357
35,823	-9,493	276,016	131,202
36,838	-9,396	275,817	131,187
37,853	-9,357	275,423	131,024
38,867	-9,421	275,335	130,910
39,882	-9,361	274,992	130,793
40,896	-9,444	274,721	130,574
41,911	-9,667	274,572	130,283
42,926	-9,472	274,321	130,334
43,940	-9,499	274,039	130,163
44,955	-9,471	273,756	130,043
45,969	-9,528	273,658	129,932
46,984	-9,546	273,432	129,797
47,999	-9,826	273,037	129,337
49,013	-9,937	272,900	129,157
50,028	-10,109	272,572	128,830
51,042	-10,096	272,244	128,676
52,057	-10,075	271,975	128,556
53,071	-10,215	271,833	128,348
54,086	-10,018	271,643	128,430
55,101	-9,895	271,563	128,495
56,115	-9,702	271,415	128,591
57,130	-9,487	271,309	128,728
58,144	-9,153	271,071	128,912
59,159	-9,295	270,831	128,656
60,174	-9,248	270,677	128,614
61,188	-9,299	270,421	128,435
62,203	-9,432	270,103	128,149
63,217	-9,339	269,864	128,111
64,232	-9,280	269,659	128,056
65,247	-9,162	269,591	128,120
66,261	-9,209	269,104	127,834
67,276	-9,465	268,939	127,510
68,290	-9,533	268,595	127,274
69,305	-9,653	268,594	127,152
70,320	-9,650	268,224	126,968
71,334	-9,331	268,015	127,149
72,349	-9,389	267,927	127,043
73,363	-9,282	267,776	127,057
74,378	-9,386	267,487	126,815
75,393	-9,253	267,351	126,860
76,407	-9,284	267,072	126,687
77,422	-9,338	266,781	126,490
78,436	-9,564	266,673	126,222
79,451	-9,359	266,372	126,254
80,466	-9,342	266,280	126,214
81,480	-9,559	265,834	125,796
82,495	-9,563	265,637	125,687
83,509	-9,739	265,544	125,474
84,524	-9,617	265,350	125,481
85,539	-9,635	265,108	125,339
86,553	-9,655	264,949	125,234
87,568	-9,660	264,794	125,146
88,582	-9,533	264,514	125,116
89,597	-9,521	264,297	125,013
90,611	-9,546	264,084	124,879
91,626	-9,273	263,943	125,046
92,641	-9,378	263,858	124,900
93,655	-9,473	263,535	124,652
94,670	-9,444	263,385	124,595
95,684	-9,447	263,083	124,439
96,699	-9,389	262,919	124,401
97,714	-9,379	262,716	124,304
98,728	-9,682	262,637	123,985
99,743	-9,598	262,236	123,859
100,757	-9,728	262,128	123,681
101,772	-9,657	261,905	123,629
102,787	-9,287	261,629	123,816
103,801	-9,442	261,605	123,656
104,816	-9,517	261,461	123,510
105,830	-9,264	261,203	123,601
106,845	-9,308	261,025	123,466
107,860	-9,318	260,900	123,388
108,874	-9,258	260,585	123,281
109,889	-9,249	260,308	123,147
110,903	-9,330	260,187	123,007
111,918	-9,393	259,984	122,845
112,933	-9,251	259,692	122,821
113,947	-9,333	259,532	122,662
114,962	-9,175	259,391	122,724
115,976	-9,488	259,295	122,392
116,991	-9,211	258,978	122,475
118,006	-9,196	258,794	122,390
119,020	-9,326	258,667	122,205
120,035	-9,418	258,792	122,172
121,049	-9,356	258,541	122,097
122,064	-9,296	258,255	122,004
123,079	-9,486	258,241	121,820
124,093	-9,397	257,759	121,659
125,108	-9,603	257,594	121,391
126,122	-9,806	257,269	121,050
127,137	-9,734	256,928	120,942
128,151	-9,503	256,787	121,066
129,166	-9,469	256,712	121,049
130,181	-9,647	256,533	120,799
131,195	-9,510	256,208	120,754
132,210	-9,548	256,156	120,686
133,224	-9,302	256,095	120,859
134,239	-9,317	255,963	120,774
135,254	-9,416	255,778	120,590
136,268	-9,449	255,471	120,405
137,283	-9,723	255,123	119,994
138,297	-9,787	255,055	119,896
139,312	-9,679	254,703	119,814
140,327	-9,513	254,750	119,968
141,341	-9,196	254,621	120,169
142,356	-9,171	254,453	120,100
143,370	-9,134	254,344	120,070
144,385	-9,118	254,164	119,989
145,400	-9,054	254,073	119,990
146,414	-9,089	253,749	119,796
147,429	-9,151	253,448	119,590
148,443	-9,089	253,264	119,546
149,458	-9,265	253,150	119,331
150,473	-9,156	252,893	119,292
151,487	-9,282	252,681	119,074
152,502	-9,247	252,562	119,037
153,516	-9,086	252,434	119,104
154,531	-9,183	252,379	118,984
155,546	-9,202	252,279	118,911
156,560	-9,124	251,924	118,798
157,575	-9,381	251,677	118,453
158,589	-9,202	251,441	118,484
159,604	-9,195	251,397	118,459
160,619	-8,988	251,153	118,508
161,633	-9,217	251,034	118,247
162,648	-9,105	250,729	118,188
163,662	-9,060	250,605	118,157
164,677	-9,143	250,483	118,019
165,692	-9,226	250,362	117,881
166,706	-9,120	250,256	117,910
167,721	-8,967	249,863	117,844
168,735	-9,067	249,906	117,769
169,750	-9,202	249,907	117,645
170,764	-9,026	249,579	117,629
171,779	-8,979	249,458	117,601
172,794	-8,914	249,222	117,533
173,808	-9,187	249,090	117,231
174,823	-9,274	248,612	116,923
175,837	-9,507	248,363	116,601
176,852	-9,319	248,469	116,797
177,867	-9,025	248,356	116,979
178,881	-9,017	248,320	116,959
179,896	-8,921	248,055	116,904
180,910	-9,040	247,904	116,723
181,925	-9,047	247,595	116,562
182,940	-9,174	247,501	116,401
183,954	-9,057	247,295	116,391
184,969	-8,997	247,157	116,366
185,983	-8,988	247,071	116,323
186,998	-9,045	246,863	116,166
188,013	-8,798	246,653	116,263
189,027	-8,985	246,472	116,012
190,042	-8,927	246,285	115,961
191,056	-8,923	246,032	115,836
192,071	-8,973	245,995	115,766
193,086	-9,338	246,020	115,465
194,100	-8,966	245,625	115,577
195,115	-8,705	245,493	115,720
196,129	-8,932	245,300	115,431
197,144	-8,995	245,065	115,259
198,159	-9,006	244,955	115,188
199,173	-9,109	244,846	115,041
200,188	-8,847	244,436	115,054
201,202	-9,183	244,243	114,676
202,217	-9,487	243,829	114,223
203,232	-9,539	243,724	114,121
204,246	-9,008	243,742	114,554
205,261	-8,473	243,834	115,026
206,275	-8,995	243,491	114,427
207,290	-6,459	244,538	116,992
208,304	-1,356	245,985	121,883
209,319	1,123	246,621	124,232
210,334	1,649	246,778	124,734
211,348	2,072	246,617	124,990
212,363	2,166	246,568	125,031
213,377	2,434	246,691	125,304
214,392	2,493	246,268	125,125
215,407	2,416	246,193	125,014
216,421	2,362	246,014	124,867
217,436	2,638	246,058	125,105
218,450	2,650	245,735	124,939
219,465	2,382	245,513	124,596
220,480	2,374	245,329	124,484
221,494	2,424	245,209	124,454
222,509	2,647	245,215	124,628
223,523	2,644	244,860	124,434
224,538	2,181	244,520	123,873
225,553	2,189	244,366	123,790
226,567	2,133	244,286	123,693
227,582	2,254	244,383	123,830
228,596	2,478	244,004	123,809
229,611	2,163	243,863	123,470
230,626	2,203	243,656	123,386
231,640	2,397	243,508	123,458
232,655	2,403	243,377	123,385
233,669	2,198	243,166	123,101
234,684	2,121	242,879	122,883
235,699	2,486	243,156	123,308
236,713	2,442	242,980	123,172
237,728	2,344	242,630	122,904
238,742	2,203	242,439	122,683
239,757	2,089	242,234	122,476
240,772	2,048	241,969	122,298
241,786	2,300	242,016	122,514
242,801	1,872	241,820	122,059
243,815	1,827	241,589	121,895
244,830	2,111	241,569	122,103
245,844	2,326	241,398	122,179
246,859	2,154	241,141	121,900
247,874	2,157	240,924	121,781
248,888	2,231	240,966	121,851
249,903	2,355	240,813	121,862
250,917	2,359	240,747	121,821
251,932	2,620	240,559	121,924
252,947	2,350	240,256	121,544
253,961	2,055	239,975	121,156
254,976	2,402	239,909	121,388
255,990	2,539	239,825	121,444
257,005	1,972	239,702	120,919
258,020	1,984	239,393	120,762
259,034	2,086	239,381	120,826
260,049	2,317	239,160	120,888
261,063	2,050	239,026	120,597
262,078	2,162	238,762	120,541
263,093	2,334	238,754	120,663
264,107	2,408	238,602	120,635
265,122	2,188	238,452	120,373
266,136	2,324	238,194	120,340
267,151	2,523	238,183	120,481
268,166	2,242	237,976	120,144
269,180	2,295	237,760	120,065
270,195	2,499	237,941	120,307
271,209	2,789	237,633	120,370
272,224	2,266	237,244	119,750
273,239	1,943	237,150	119,438
274,253	1,946	237,004	119,356
275,268	2,270	236,863	119,529
276,282	2,374	236,720	119,529
277,297	2,026	236,482	119,124
278,312	2,235	236,340	119,206
279,326	2,519	236,281	119,389
280,341	2,176	236,129	119,032
281,355	2,262	236,053	119,051
282,370	2,538	235,867	119,162
283,384	2,469	235,672	118,999
284,399	1,927	235,598	118,527
285,414	2,011	235,345	118,455
286,428	2,210	235,173	118,513
287,443	2,167	235,115	118,439
288,457	2,420	235,033	118,585
289,472	2,656	234,862	118,672
290,487	2,244	234,643	118,230
291,501	2,094	234,424	117,993
292,516	1,770	234,259	117,648
293,530	1,835	233,999	117,557
294,545	2,338	233,967	117,921
295,560	2,257	234,021	117,875
296,574	2,126	233,638	117,570
297,589	1,959	233,617	117,419
298,603	2,481	233,592	117,800
299,618	2,439	233,297	117,608
300,633	2,316	233,231	117,470
301,647	2,567	233,106	117,590
302,662	2,703	233,016	117,639
303,676	2,701	232,891	117,564
304,691	2,717	232,626	117,432
305,706	2,836	232,620	117,510
306,720	2,675	232,395	117,262
307,735	2,616	232,135	117,075
308,749	2,474	231,966	116,871
309,764	2,242	231,807	116,602
310,779	2,090	231,546	116,344
311,793	2,217	231,302	116,308
312,808	2,175	231,130	116,179
313,822	2,249	230,951	116,136
314,837	2,209	230,803	116,019
315,852	1,866	230,821	115,756
316,866	2,124	230,904	115,985
317,881	2,617	230,713	116,255
318,895	2,846	230,598	116,361
319,910	2,788	230,461	116,237
320,925	2,464	230,166	115,832
321,939	2,314	230,094	115,671
322,954	2,438	229,877	115,646
323,968	2,473	229,895	115,671
324,983	2,355	229,793	115,520
325,997	2,802	229,444	115,673
327,012	2,304	229,287	115,206
328,027	2,071	229,104	114,928
329,041	2,286	228,944	115,000
330,056	2,891	229,096	115,524
331,070	3,268	228,949	115,725
332,085	2,916	228,752	115,349
333,100	2,754	228,508	115,094
334,114	2,640	228,363	114,924
335,129	2,540	228,292	114,803
336,143	2,493	228,257	114,740
337,158	2,818	228,000	114,845
338,173	2,750	227,889	114,727
339,187	2,681	227,651	114,545
340,202	2,617	227,547	114,435
341,216	2,700	227,346	114,386
342,231	2,482	227,260	114,169
343,246	2,606	227,142	114,192
344,260	2,754	226,912	114,177
345,275	2,976	226,703	114,228
346,289	2,755	226,831	114,117
347,304	2,851	226,565	114,045
348,319	2,711	226,397	113,845
349,333	2,627	226,129	113,638
350,348	2,658	225,800	113,485
351,362	2,649	225,856	113,496
352,377	2,546	225,628	113,296
353,392	2,487	225,521	113,188
354,406	2,740	225,310	113,260
355,421	195,256	1322,633	1398,503
356,435	156,474	1456,341	1398,518
