DTS Sentinel unit serial number:	SN410029Multiplexer serial number:	ORYXHardware model number:	OX2-SRSoftware version number:	ORYX F/W v4,00 Oryx Data Collector v3.7.2.0data status	okinstallation	B5 Nyhavnadifferential loss correction	single-endedforward channel	channel 2reverse channel	N/Adate	2023/12/13time	20:12:13forward acquisition time	300,00reverse acquisition time	0,00gamma	499,1914k internal	0,3158k external	0,3158temperature offset calibration	1,0000default loss term (dB/km)	0,3820temperature slope calibration	1,0000multiplexer offset coefficient	1,0000multiplexer slope coefficient	1,0000fibre end	0,00T internal ref (°C)	11,02T ext. ref 1 (°C)	-6,04T ext. ref 2 (°C)	-6,12length (m)	temperature (°C)	Stokes	anti-Stokes-744,400	87,584	0,047	0,039
-743,385	-114,002	-0,291	-0,041
-742,371	-90,472	0,263	0,056
-741,356	-71,463	-0,419	-0,115
-740,342	-200,000	-0,014	0,166
-739,327	-23,328	-0,318	-0,140
-738,312	-154,929	0,209	0,010
-737,298	-130,269	-0,473	0,047
-736,283	-0,360	0,117	0,061
-735,269	-55,696	-0,365	0,119
-734,254	259,567	0,107	0,136
-733,239	-10,871	-0,516	-0,250
-732,225	32,675	0,151	0,096
-731,210	26,636	0,047	0,029
-730,196	210,933	-0,061	0,070
-729,181	188,704	0,019	0,021
-728,167	118,617	-0,083	0,075
-727,152	183,645	-0,059	-0,064
-726,137	-93,767	-0,099	0,020
-725,123	-94,669	-0,090	0,018
-724,108	-200,000	-0,029	-0,108
-723,094	800,000	-0,073	-0,153
-722,079	-108,378	-0,209	-0,033
-721,064	-73,890	0,073	0,019
-720,050	-159,236	0,171	0,007
-719,035	800,000	-0,047	-0,133
-718,021	800,000	-0,007	-0,016
-717,006	-9,626	-0,075	0,037
-715,991	60,357	-0,125	-0,091
-714,977	288,264	-0,078	-0,104
-713,962	-200,000	0,021	-0,135
-712,948	-200,000	-0,014	0,113
-711,933	-142,337	-0,026	0,002
-710,918	108,820	-0,204	-0,179
-709,904	-200,000	-0,012	-0,052
-708,889	40,060	-0,162	-0,107
-707,875	58,643	0,087	-0,062
-706,860	521,358	-0,046	-0,080
-705,845	83,070	-0,028	-0,022
-704,831	-78,427	0,177	-0,044
-703,816	113,177	-0,048	0,043
-702,802	-200,000	-0,004	-0,036
-701,787	-200,000	-0,020	-0,109
-700,772	23,033	-0,059	-0,036
-699,758	-31,187	-0,124	0,051
-698,743	800,000	0,043	0,125
-697,729	100,316	-0,072	0,061
-696,714	-11,400	-0,127	0,061
-695,699	-60,949	-0,032	0,010
-694,685	294,673	-0,029	0,039
-693,670	80,575	-0,023	-0,019
-692,656	22,895	-0,083	-0,050
-691,641	453,140	0,051	0,083
-690,627	186,495	0,030	-0,033
-689,612	-83,077	-0,092	-0,022
-688,597	-181,092	-0,109	-0,002
-687,583	-132,973	-0,143	-0,013
-686,568	672,312	0,021	-0,040
-685,554	246,225	-0,036	-0,045
-684,539	233,120	-0,070	-0,085
-683,524	800,000	0,017	0,044
-682,510	-163,572	-0,103	0,004
-681,495	157,197	-0,066	-0,067
-680,481	-166,994	-0,028	-0,001
-679,466	800,000	0,071	0,147
-678,451	-83,399	0,045	0,011
-677,437	403,528	0,029	-0,045
-676,422	147,382	-0,075	-0,074
-675,408	40,012	0,042	0,027
-674,393	152,625	-0,139	-0,140
-673,378	800,000	-0,039	-0,125
-672,364	-91,215	-0,109	-0,023
-671,349	106,022	-0,113	0,098
-670,335	21,818	-0,032	0,019
-669,320	6,386	-0,036	0,019
-668,305	221,064	-0,114	-0,135
-667,291	-200,000	0,044	0,000
-666,276	126,491	-0,009	-0,008
-665,262	621,841	-0,038	-0,071
-664,247	-200,000	0,000	-0,073
-663,232	-15,641	-0,008	0,004
-662,218	-200,000	0,002	0,026
-661,203	-5,018	-0,201	-0,101
-660,189	-131,767	0,107	-0,010
-659,174	135,082	0,050	-0,048
-658,159	-40,537	-0,129	-0,049
-657,145	374,567	-0,083	-0,125
-656,130	156,892	-0,063	0,064
-655,116	-200,000	0,032	0,126
-654,101	785,612	-0,024	0,048
-653,086	-156,477	0,068	0,003
-652,072	135,694	-0,083	-0,080
-651,057	-134,498	-0,109	0,010
-650,043	-68,444	-0,177	-0,050
-649,028	79,928	0,041	0,032
-648,014	640,065	-0,055	0,103
-646,999	-88,931	0,050	-0,011
-645,984	24,845	-0,055	-0,033
-644,970	-200,000	0,021	-0,140
-643,955	-200,000	-0,002	-0,041
-642,941	-92,456	-0,085	-0,017
-641,926	-200,000	0,023	0,092
-640,911	-26,999	0,080	-0,034
-639,897	-105,009	-0,017	0,003
-638,882	800,000	-0,009	-0,024
-637,868	-200,000	0,005	0,027
-636,853	800,000	-0,054	-0,123
-635,838	800,000	0,018	-0,051
-634,824	-89,230	-0,089	0,019
-633,809	800,000	0,043	-0,122
-632,795	60,344	0,088	-0,064
-631,780	-200,000	0,002	-0,158
-630,765	800,000	0,004	0,013
-629,751	144,174	-0,083	0,081
-628,736	-13,300	-0,077	-0,037
-627,722	130,588	-0,047	-0,044
-626,707	546,652	-0,036	0,064
-625,692	-22,168	0,057	0,025
-624,678	211,091	-0,051	0,059
-623,663	-200,000	-0,006	0,130
-622,649	684,630	0,055	-0,107
-621,634	46,786	-0,113	0,077
-620,619	531,173	-0,080	0,139
-619,605	194,676	0,008	0,009
-618,590	158,423	0,023	0,024
-617,576	800,000	0,013	-0,032
-616,561	280,039	-0,077	0,101
-615,546	800,000	-0,101	-0,242
-614,532	800,000	0,030	-0,064
-613,517	388,606	0,085	0,129
-612,503	39,373	-0,073	-0,048
-611,488	336,045	0,055	0,078
-610,474	156,242	0,080	-0,081
-609,459	-23,946	-0,191	0,084
-608,444	57,153	-0,060	-0,043
-607,430	-63,369	-0,092	-0,027
-606,415	-200,000	0,023	-0,124
-605,401	-86,256	0,093	0,021
-604,386	47,745	-0,023	-0,016
-603,371	-42,116	0,103	0,038
-602,357	-99,294	-0,104	0,019
-601,342	44,853	0,113	0,076
-600,328	245,188	-0,111	-0,137
-599,313	-200,000	-0,001	0,042
-598,298	800,000	0,027	-0,077
-597,284	-176,765	0,115	0,002
-596,269	59,693	-0,016	0,011
-595,255	800,000	-0,037	-0,098
-594,240	50,111	-0,106	0,073
-593,225	257,838	0,060	-0,075
-592,211	-59,362	0,137	-0,043
-591,196	-200,000	-0,020	0,108
-590,182	-37,656	0,073	-0,028
-589,167	-169,171	-0,035	-0,001
-588,152	-186,470	-0,006	0,000
-587,138	684,959	-0,039	0,076
-586,123	276,212	-0,042	-0,055
-585,109	199,106	-0,011	0,012
-584,094	-95,022	0,186	-0,036
-583,079	800,000	-0,004	0,013
-582,065	-200,000	-0,012	-0,125
-581,050	84,065	0,055	-0,044
-580,036	247,368	0,076	-0,095
-579,021	-200,000	-0,003	-0,082
-578,006	-81,956	-0,058	0,014
-576,992	-56,109	-0,140	-0,045
-575,977	15,124	0,061	0,035
-574,963	-200,000	-0,005	-0,019
-573,948	382,569	-0,032	0,049
-572,934	800,000	-0,024	0,072
-571,919	-160,826	-0,050	-0,002
-570,904	413,244	-0,061	-0,095
-569,890	800,000	-0,013	0,041
-568,875	-200,000	0,017	-0,106
-567,861	100,679	0,024	-0,020
-566,846	-105,419	0,087	0,014
-565,831	87,072	-0,063	0,051
-564,817	-37,656	-0,048	0,019
-563,802	168,368	-0,064	0,067
-562,788	673,802	-0,021	-0,039
-561,773	-44,845	-0,073	-0,027
-560,758	-78,704	0,095	0,023
-559,744	120,642	-0,089	0,081
-558,729	-200,000	-0,002	0,034
-557,715	116,429	-0,073	0,065
-556,700	557,145	0,070	-0,124
-555,685	177,499	0,015	-0,016
-554,671	-76,566	0,054	0,014
-553,656	101,992	-0,120	-0,103
-552,642	-16,405	-0,109	-0,050
-551,627	490,947	0,112	0,189
-550,612	180,291	-0,099	-0,107
-549,598	-200,000	-0,028	-0,171
-548,583	-49,840	-0,117	0,040
-547,569	4,712	0,108	-0,058
-546,554	260,520	-0,098	0,125
-545,539	163,303	0,056	-0,058
-544,525	-20,925	-0,046	0,021
-543,510	800,000	0,056	0,124
-542,496	-200,000	0,008	-0,100
-541,481	-200,000	0,025	0,089
-540,466	-92,465	0,082	0,017
-539,452	766,228	0,057	0,114
-538,437	0,463	0,101	0,053
-537,423	800,000	-0,020	0,043
-536,408	102,733	-0,048	0,041
-535,393	-200,000	-0,023	0,145
-534,379	-67,204	0,051	-0,015
-533,364	55,976	-0,106	0,075
-532,350	169,171	-0,050	-0,052
-531,335	437,744	-0,056	0,090
-530,321	-200,000	0,037	0,182
-529,306	800,000	-0,041	-0,087
-528,291	472,714	-0,046	0,076
-527,277	17,938	0,058	-0,034
-526,262	-200,000	0,021	0,078
-525,248	-200,000	-0,033	-0,153
-524,233	59,978	0,063	-0,046
-523,218	-23,452	0,072	-0,032
-522,204	56,639	-0,143	-0,101
-521,189	-115,072	0,080	-0,011
-520,175	-127,852	-0,119	-0,012
-519,160	11,966	0,063	-0,035
-518,145	-106,236	0,111	0,018
-517,131	-160,214	0,074	-0,003
-516,116	16,711	0,059	-0,034
-515,102	-122,879	-0,035	0,004
-514,087	334,270	-0,062	-0,088
-513,072	468,550	-0,056	0,092
-512,058	-200,000	-0,016	-0,110
-511,043	800,000	0,033	0,088
-510,029	800,000	-0,054	0,121
-509,014	289,383	0,074	0,098
-507,999	57,791	-0,142	-0,102
-506,985	-200,000	0,003	-0,019
-505,970	800,000	-0,041	-0,123
-504,956	-200,000	0,002	0,013
-503,941	-200,000	-0,010	0,060
-502,926	-200,000	0,002	-0,026
-501,912	64,519	0,076	0,056
-500,897	-200,000	-0,002	0,097
-499,883	-200,000	-0,004	-0,085
-498,868	-152,909	-0,139	0,007
-497,853	-32,839	0,116	0,047
-496,839	-38,368	-0,038	0,015
-495,824	-88,425	0,194	0,042
-494,810	800,000	0,041	0,096
-493,795	-190,999	-0,182	0,001
-492,781	-200,000	0,031	-0,117
-491,766	-200,000	-0,016	-0,072
-490,751	215,626	0,057	-0,066
-489,737	800,000	-0,031	0,100
-488,722	-200,000	0,028	0,183
-487,708	-200,000	0,007	0,060
-486,693	-10,882	0,086	-0,041
-485,678	-200,000	0,012	0,111
-484,664	237,292	0,080	-0,097
-483,649	-95,487	-0,147	0,028
-482,635	800,000	-0,022	0,047
-481,620	-200,000	-0,030	0,105
-480,605	72,639	-0,049	0,037
-479,591	172,047	-0,042	-0,044
-478,576	800,000	0,002	0,005
-477,562	-136,732	-0,122	0,010
-476,547	-200,000	-0,038	-0,133
-475,532	95,135	0,097	0,081
-474,518	316,915	0,101	-0,140
-473,503	-127,888	0,089	0,009
-472,489	-26,883	0,032	0,014
-471,474	-102,817	-0,087	-0,015
-470,459	-200,000	-0,007	-0,050
-469,445	-200,000	-0,006	0,100
-468,430	-43,483	-0,061	-0,022
-467,416	-200,000	0,011	-0,105
-466,401	-29,844	0,049	0,020
-465,386	-46,411	0,092	0,033
-464,372	-200,000	0,011	0,080
-463,357	33,520	-0,128	-0,081
-462,343	800,000	-0,029	-0,086
-461,328	181,048	-0,021	-0,023
-460,313	-17,862	0,065	-0,029
-459,299	344,638	-0,024	0,035
-458,284	553,890	0,011	0,019
-457,270	96,586	-0,147	0,123
-456,255	170,080	-0,139	-0,145
-455,241	45,229	0,048	-0,032
-454,226	157,683	-0,116	-0,118
-453,211	-200,000	-0,030	0,120
-452,197	429,301	0,044	0,070
-451,182	-200,000	-0,010	0,047
-450,168	99,603	0,076	-0,064
-449,153	-97,809	-0,184	0,034
-448,138	-83,890	-0,059	-0,014
-447,124	-200,000	0,004	-0,178
-446,109	-178,312	0,049	-0,001
-445,095	-58,592	0,057	0,018
-444,080	190,505	-0,091	-0,100
-443,065	-200,000	0,003	-0,017
-442,051	-140,077	-0,068	-0,005
-441,036	-83,361	-0,099	0,023
-440,022	-200,000	-0,001	0,081
-439,007	-200,000	-0,021	-0,098
-437,992	800,000	0,045	-0,091
-436,978	-136,636	0,150	0,012
-435,963	-200,000	-0,042	0,145
-434,949	390,065	0,015	-0,023
-433,934	-173,154	0,136	-0,003
-432,919	165,771	-0,054	-0,055
-431,905	-200,000	0,009	-0,072
-430,890	-200,000	0,014	-0,046
-429,876	-133,821	-0,005	0,000
-428,861	488,733	0,071	0,119
-427,846	82,036	-0,052	-0,041
-426,832	-149,290	-0,024	-0,001
-425,817	-17,581	-0,073	0,033
-424,803	-200,000	-0,007	-0,065
-423,788	-65,581	0,108	0,031
-422,773	-29,046	-0,091	-0,038
-421,759	64,391	0,151	0,111
-420,744	-110,296	-0,104	-0,016
-419,730	671,774	0,055	-0,104
-418,715	-154,178	0,073	-0,004
-417,701	368,137	0,069	0,102
-416,686	164,758	0,088	0,090
-415,671	-108,283	0,052	0,008
-414,657	0,232	0,046	0,024
-413,642	800,000	0,061	0,123
-412,628	800,000	0,030	-0,075
-411,613	-26,311	-0,086	0,036
-410,598	-26,093	-0,081	0,035
-409,584	-113,994	0,034	-0,005
-408,569	218,091	0,020	-0,024
-407,555	-7,394	-0,136	0,067
-406,540	45,357	0,102	-0,069
-405,525	800,000	-0,075	-0,153
-404,511	282,350	-0,078	-0,102
-403,496	-9,873	-0,181	-0,087
-402,482	24,839	0,040	0,024
-401,467	800,000	0,060	0,149
-400,452	268,023	0,076	-0,097
-399,438	24,532	-0,069	-0,041
-398,423	-200,000	-0,028	0,146
-397,409	-139,662	-0,043	-0,003
-396,394	127,238	0,017	-0,016
-395,379	3,923	-0,116	0,062
-394,365	285,870	0,046	-0,061
-393,350	-49,055	0,014	0,005
-392,336	-43,144	-0,078	0,028
-391,321	-200,000	0,012	-0,040
-390,306	41,448	0,132	-0,086
-389,292	-200,000	-0,004	0,019
-388,277	190,402	0,107	-0,117
-387,263	-114,686	-0,088	0,012
-386,248	115,453	0,082	0,073
-385,233	107,768	0,100	0,087
-384,219	-200,000	0,001	-0,072
-383,204	800,000	-0,032	0,090
-382,190	0,806	0,080	0,042
-381,175	440,442	-0,066	0,105
-380,160	427,113	-0,043	0,067
-379,146	-18,514	0,020	-0,009
-378,131	800,000	-0,015	0,039
-377,117	-200,000	-0,003	-0,066
-376,102	-101,800	0,041	0,007
-375,088	-200,000	-0,021	-0,106
-374,073	-200,000	0,005	0,098
-373,058	-124,353	0,114	0,013
-372,044	74,017	0,131	0,100
-371,029	800,000	-0,025	-0,063
-370,015	64,406	0,069	-0,051
-369,000	-28,614	0,133	0,055
-367,985	111,180	0,117	-0,102
-366,971	-200,000	-0,004	-0,081
-365,956	-200,000	0,013	0,082
-364,942	-119,072	0,090	0,011
-363,927	800,000	0,057	0,158
-362,912	-157,004	-0,175	-0,008
-361,898	-200,000	0,001	0,038
-360,883	-11,650	-0,144	0,068
-359,869	-19,748	0,093	-0,042
-358,854	-147,465	-0,047	0,003
-357,839	44,565	0,023	-0,015
-356,825	-200,000	-0,023	0,114
-355,810	-200,000	0,014	-0,057
-354,796	-200,000	-0,003	-0,071
-353,781	-200,000	-0,020	-0,159
-352,766	-200,000	-0,006	-0,078
-351,752	-12,483	0,169	0,080
-350,737	800,000	0,031	0,068
-349,723	800,000	-0,034	0,073
-348,708	481,293	-0,070	-0,116
-347,693	158,628	-0,018	0,018
-346,679	-22,388	-0,106	-0,046
-345,664	-92,164	-0,138	0,028
-344,650	454,150	0,050	0,080
-343,635	143,384	-0,041	-0,039
-342,620	-158,431	0,143	-0,006
-341,606	800,000	-0,036	-0,095
-340,591	104,908	-0,052	0,045
-339,577	104,434	-0,049	-0,042
-338,562	-200,000	-0,005	-0,201
-337,548	-200,000	0,006	-0,116
-336,533	52,169	0,146	0,100
-335,518	-52,576	0,129	0,043
-334,504	21,601	-0,025	-0,015
-333,489	800,000	-0,015	0,038
-332,475	800,000	0,015	-0,030
-331,460	243,578	-0,040	-0,049
-330,445	-0,165	-0,043	-0,022
-329,431	-200,000	0,009	-0,049
-328,416	207,999	0,140	0,159
-327,402	-81,429	-0,101	-0,024
-326,387	-3,923	-0,099	-0,049
-325,372	356,607	0,023	0,034
-324,358	-200,000	0,014	-0,204
-323,343	-37,251	-0,077	0,030
-322,329	-15,840	0,055	0,025
-321,314	-200,000	-0,025	0,200
-320,299	91,800	-0,107	-0,087
-319,285	51,506	0,050	-0,035
-318,270	-200,000	-0,008	-0,028
-317,256	-200,000	-0,020	-0,100
-316,241	-40,896	-0,235	0,088
-315,226	-200,000	0,001	0,034
-314,212	-24,489	0,079	-0,034
-313,197	800,000	-0,038	-0,094
-312,183	-57,336	0,110	-0,035
-311,168	153,148	0,020	0,020
-310,153	61,413	0,102	-0,074
-309,139	112,162	-0,107	-0,093
-308,124	800,000	0,036	0,077
-307,110	624,317	0,043	-0,078
-306,095	800,000	0,027	-0,070
-305,080	-59,600	-0,120	0,037
-304,066	800,000	-0,034	0,095
-303,051	-88,046	-0,047	0,010
-302,037	749,971	-0,047	0,093
-301,022	54,505	-0,070	-0,049
-300,008	129,165	-0,069	0,064
-298,993	-200,000	0,035	0,231
-297,978	-85,539	0,084	-0,019
-296,964	273,168	-0,050	-0,064
-295,949	-88,808	-0,087	-0,019
-294,935	-132,497	0,120	-0,011
-293,920	-200,000	0,022	0,158
-292,905	97,911	0,157	0,131
-291,891	-19,169	0,131	-0,059
-290,876	469,874	-0,044	0,072
-289,862	180,709	-0,030	0,032
-288,847	800,000	-0,061	-0,169
-287,832	-89,734	-0,026	0,006
-286,818	275,288	-0,048	-0,062
-285,803	-200,000	0,012	0,047
-284,789	-116,759	0,002	0,000
-283,774	800,000	0,014	-0,028
-282,759	-24,428	0,132	0,057
-281,745	-141,989	-0,057	0,004
-280,730	-76,962	0,029	0,007
-279,716	-200,000	0,018	-0,277
-278,701	800,000	0,028	-0,084
-277,686	162,885	-0,050	-0,051
-276,672	-42,872	0,103	0,038
-275,657	-43,540	0,033	0,012
-274,643	-200,000	-0,021	-0,073
-273,628	564,277	0,052	-0,092
-272,613	-128,577	-0,104	-0,011
-271,599	94,367	-0,005	-0,004
-270,584	160,978	0,033	0,033
-269,570	800,000	0,029	0,089
-268,555	169,273	-0,100	0,104
-267,540	-200,000	0,004	0,029
-266,526	-200,000	-0,027	-0,152
-265,511	-53,753	0,079	0,026
-264,497	-28,735	0,178	0,074
-263,482	351,077	-0,070	0,100
-262,467	149,270	0,104	0,102
-261,453	-200,000	-0,002	0,044
-260,438	-200,000	0,033	-0,110
-259,424	10,464	-0,109	-0,060
-258,409	-200,000	0,010	-0,076
-257,395	189,648	0,079	0,086
-256,380	800,000	0,023	0,061
-255,365	656,298	0,062	0,117
-254,351	-84,312	-0,095	-0,022
-253,336	-200,000	0,011	-0,040
-252,322	50,574	-0,029	0,020
-251,307	-80,022	-0,127	-0,031
-250,292	-87,248	-0,037	0,008
-249,278	140,027	0,098	0,093
-248,263	478,893	-0,009	0,015
-247,249	800,000	-0,038	0,090
-246,234	-100,876	-0,075	0,013
-245,219	-8,883	0,070	0,034
-244,205	-200,000	-0,023	-0,177
-243,190	-49,415	-0,048	0,017
-242,176	310,978	0,073	-0,099
-241,161	-180,674	0,048	0,001
-240,146	-119,901	-0,168	-0,021
-239,132	-100,219	0,062	-0,011
-238,117	84,843	-0,022	0,017
-237,103	78,166	-0,120	-0,093
-236,088	-132,923	0,141	-0,013
-235,073	-200,000	0,003	-0,030
-234,059	-200,000	0,020	0,076
-233,044	-200,000	-0,002	0,013
-232,030	27,095	0,184	0,111
-231,015	-58,011	0,127	0,040
-230,000	-200,000	0,004	-0,097
-228,986	-117,081	0,112	-0,015
-227,971	-141,202	0,077	-0,006
-226,957	278,955	-0,075	0,097
-225,942	3,915	-0,027	-0,014
-224,927	69,922	0,071	-0,053
-223,913	99,692	-0,132	-0,110
-222,898	322,191	-0,060	-0,082
-221,884	41,552	-0,087	0,057
-220,869	-4,813	0,051	0,025
-219,855	-200,000	-0,043	0,201
-218,840	-14,364	0,095	-0,044
-217,825	-9,722	0,055	0,026
-216,811	-27,462	0,060	-0,025
-215,796	100,004	-0,115	0,097
-214,782	800,000	0,072	-0,170
-213,767	106,312	0,017	-0,015
-212,752	-200,000	-0,003	-0,115
-211,738	132,342	0,164	-0,153
-210,723	75,441	-0,135	-0,103
-209,709	310,078	0,005	0,006
-208,694	800,000	0,027	-0,075
-207,679	-77,648	-0,125	0,031
-206,665	-200,000	0,013	0,072
-205,650	232,092	0,040	0,048
-204,636	-200,000	0,000	0,089
-203,621	-94,292	-0,027	0,005
-202,606	-171,412	0,089	0,002
-201,592	-116,322	-0,076	0,010
-200,577	8,485	-0,069	-0,037
-199,563	12,828	0,118	0,066
-198,548	800,000	-0,045	0,108
-197,533	-200,000	0,019	0,000
-196,519	-25,192	0,021	-0,009
-195,504	-200,000	-0,001	0,105
-194,490	-200,000	0,045	0,180
-193,475	-200,000	0,011	-0,128
-192,460	179,415	0,095	0,100
-191,446	773,750	0,059	0,116
-190,431	132,293	0,091	-0,084
-189,417	88,629	-0,048	0,039
-188,402	-45,674	-0,044	-0,016
-187,387	-80,477	-0,074	0,018
-186,373	21,123	0,055	0,032
-185,358	-200,000	0,001	-0,020
-184,344	800,000	-0,031	-0,078
-183,329	-200,000	-0,006	-0,116
-182,315	800,000	0,028	0,056
-181,300	-200,000	0,030	0,115
-180,285	-200,000	-0,019	0,063
-179,271	-74,519	-0,109	-0,028
-178,256	33,296	0,166	0,104
-177,242	534,377	0,052	-0,089
-176,227	-200,000	0,002	-0,023
-175,212	-21,964	0,140	-0,061
-174,198	161,025	0,055	-0,056
-173,183	785,240	0,057	-0,113
-172,169	-200,000	-0,026	-0,130
-171,154	-111,790	0,102	0,015
-170,139	260,312	-0,040	0,050
-169,125	-50,087	0,067	0,023
-168,110	-200,000	0,013	0,090
-167,096	800,000	0,020	0,058
-166,081	-32,776	-0,154	-0,062
-165,066	-200,000	0,001	-0,063
-164,052	373,695	-0,039	0,057
-163,037	203,370	0,029	0,033
-162,023	73,291	-0,039	-0,029
-161,008	-200,000	0,013	-0,049
-159,993	-200,000	-0,022	0,134
-158,979	-86,611	-0,062	0,014
-157,964	65,886	-0,157	0,114
-156,950	32,880	0,036	0,023
-155,935	800,000	0,033	0,090
-154,920	800,000	0,026	0,074
-153,906	222,702	-0,027	0,031
-152,891	6,963	-0,072	0,038
-151,877	-200,000	0,018	0,063
-150,862	132,315	-0,114	-0,106
-149,847	800,000	-0,010	-0,021
-148,833	147,115	-0,045	-0,043
-147,818	800,000	0,054	0,170
-146,804	-32,030	0,207	0,083
-145,789	800,000	-0,009	-0,026
-144,775	-200,000	0,040	-0,138
-143,760	-68,424	0,051	-0,014
-142,745	-42,069	-0,069	-0,025
-141,731	74,861	0,133	0,101
-140,716	-200,000	0,006	-0,123
-139,702	-200,000	0,012	-0,076
-138,687	6,465	-0,019	0,010
-137,672	-111,411	-0,084	0,012
-136,658	-200,000	0,019	-0,076
-135,643	-88,190	-0,014	-0,003
-134,629	800,000	0,046	-0,107
-133,614	-200,000	0,016	-0,065
-132,599	236,868	0,052	0,062
-131,585	-200,000	-0,022	0,110
-130,570	-2,063	-0,082	-0,041
-129,556	-119,651	0,065	0,008
-128,541	800,000	-0,027	-0,069
-127,526	344,440	0,075	-0,106
-126,512	41,331	-0,128	0,083
-125,497	800,000	-0,023	0,058
-124,483	-74,667	-0,090	-0,023
-123,468	25,044	0,132	0,079
-122,453	-62,373	0,058	-0,017
-121,439	91,954	-0,073	0,059
-120,424	-29,232	-0,080	0,033
-119,410	-200,000	0,023	0,110
-118,395	6,775	0,104	-0,055
-117,380	-119,017	0,114	-0,014
-116,366	632,048	-0,018	-0,033
-115,351	-200,000	0,023	0,082
-114,337	-47,268	-0,087	-0,030
-113,322	9,555	0,063	0,034
-112,307	92,000	-0,054	0,044
-111,293	-20,610	-0,071	-0,031
-110,278	63,258	0,087	-0,063
-109,264	-57,673	0,111	-0,035
-108,249	-200,000	-0,011	0,067
-107,234	800,000	0,041	-0,115
-106,220	-126,643	-0,127	0,013
-105,205	800,000	-0,024	0,077
-104,191	-107,011	-0,077	0,012
-103,176	270,271	0,093	0,118
-102,162	-200,000	0,026	-0,131
-101,147	186,321	-0,078	-0,083
-100,132	-30,624	-0,147	-0,060
-99,118	-92,424	0,120	-0,024
-98,103	-200,000	0,026	-0,134
-97,089	-200,000	-0,034	0,175
-96,074	177,944	-0,056	0,058
-95,059	79,003	0,107	0,082
-94,045	-200,000	0,002	0,021
-93,030	-122,299	-0,090	0,010
-92,016	-200,000	0,031	-0,226
-91,001	99,668	-0,058	-0,049
-89,986	800,000	0,020	0,056
-88,972	198,971	-0,062	0,069
-87,957	-200,000	0,013	-0,054
-86,943	55,955	0,061	0,042
-85,928	-39,669	-0,167	-0,062
-84,913	-200,000	0,005	-0,071
-83,899	-183,413	-0,075	0,001
-82,884	146,785	-0,054	-0,052
-81,870	800,000	-0,029	0,066
-80,855	800,000	-0,048	0,108
-79,840	800,000	0,047	0,104
-78,826	65,141	-0,020	-0,015
-77,811	800,000	-0,052	-0,151
-76,797	-81,198	0,060	0,014
-75,782	-200,000	0,003	0,020
-74,767	672,284	0,031	-0,058
-73,753	-200,000	0,006	-0,086
-72,738	288,972	0,035	-0,045
-71,724	232,435	-0,080	0,095
-70,709	443,563	-0,123	-0,194
-69,694	-34,355	-0,194	-0,076
-68,680	-36,507	0,032	0,012
-67,665	-41,508	0,037	-0,013
-66,651	-200,000	-0,021	0,103
-65,636	153,772	-0,073	0,072
-64,622	-76,909	0,073	0,018
-63,607	-200,000	0,022	-0,173
-62,592	800,000	-0,078	0,162
-61,578	116,358	-0,096	0,084
-60,563	-82,095	0,074	-0,017
-59,549	800,000	-0,083	0,208
-58,534	42,039	-2,335	-1,518
-57,519	-200,000	0,030	-0,588
-56,505	-200,000	-1,518	-5,305
-55,490	221,292	0,910	1,051
-54,476	800,000	5,593	12,181
-53,461	-200,000	20,572	333,329
-52,446	800,000	758,586	2338,369
-51,432	535,822	1666,538	2848,253
-50,417	112,587	1638,962	1423,224
-49,403	81,133	1286,456	995,826
-48,388	29,192	1026,983	624,035
-47,373	20,196	990,248	571,981
-46,359	15,566	977,828	549,580
-45,344	11,592	974,326	534,535
-44,330	12,108	972,197	535,042
-43,315	11,135	970,299	530,786
-42,300	11,128	969,241	530,165
-41,286	11,100	968,301	529,537
-40,271	11,062	967,294	528,839
-39,257	11,033	966,633	528,364
-38,242	11,120	965,562	528,042
-37,227	11,043	965,071	527,501
-36,213	11,026	964,068	526,875
-35,198	10,971	963,154	526,175
-34,184	11,051	962,301	525,950
-33,169	10,986	961,427	525,239
-32,154	11,134	960,457	525,169
-31,140	11,036	959,780	524,461
-30,125	11,091	958,842	524,105
-29,111	11,104	957,824	523,570
-28,096	11,031	957,624	523,203
-27,082	11,113	956,738	522,964
-26,067	11,058	955,935	522,326
-25,052	11,082	955,185	521,972
-24,038	11,039	954,543	521,465
-23,023	11,061	953,655	521,029
-22,009	11,050	953,248	520,751
-20,994	11,061	952,593	520,406
-19,979	11,026	952,135	520,024
-18,965	11,036	951,301	519,581
-17,950	11,044	950,796	519,308
-16,936	10,987	950,086	518,718
-15,921	10,977	949,526	518,359
-14,906	10,974	948,688	517,872
-13,892	10,978	948,011	517,496
-12,877	10,986	947,316	517,120
-11,863	10,919	946,473	516,426
-10,848	10,883	946,371	516,235
-9,833	11,049	945,791	516,427
-8,819	10,979	944,983	515,743
-7,804	10,951	944,507	515,371
-6,790	10,922	943,847	514,899
-5,775	10,986	943,249	514,758
-4,760	11,052	942,616	514,601
-3,746	11,002	941,986	514,079
-2,731	10,889	941,356	513,353
-1,717	10,830	940,621	512,746
-0,702	10,809	940,055	512,351
0,313	10,625	939,281	512,118
1,327	14,148	937,109	522,029
2,342	23,148	787,647	462,506
3,356	18,375	453,946	259,283
4,371	-8,956	314,400	150,412
5,386	-12,780	296,417	137,915
6,400	-15,149	290,682	132,874
7,415	-14,996	288,054	131,813
8,429	-15,509	286,612	130,637
9,444	-15,525	285,549	130,125
10,459	-15,331	285,068	130,083
11,473	-15,532	284,399	129,571
12,488	-15,432	284,020	129,484
13,502	-15,293	283,287	129,273
14,517	-15,202	282,896	129,172
15,531	-15,031	282,662	129,219
16,546	-14,863	282,324	129,215
17,561	-14,891	281,855	128,962
18,575	-14,836	281,638	128,904
19,590	-14,934	281,183	128,590
20,604	-14,814	281,026	128,623
21,619	-14,848	280,470	128,324
22,634	-14,762	280,203	128,273
23,648	-14,829	279,851	128,036
24,663	-14,739	279,616	128,003
25,677	-14,933	279,295	127,659
26,692	-14,865	279,198	127,669
27,707	-14,861	278,860	127,506
28,721	-14,711	278,526	127,485
29,736	-14,825	278,191	127,212
30,750	-14,840	277,874	127,042
31,765	-14,910	277,827	126,942
32,780	-14,664	277,390	126,965
33,794	-14,937	277,414	126,706
34,809	-14,736	277,044	126,715
35,823	-14,572	276,840	126,766
36,838	-14,757	276,465	126,408
37,853	-14,676	276,287	126,392
38,867	-14,800	276,080	126,168
39,882	-14,703	275,632	126,044
40,896	-14,765	275,721	126,016
41,911	-14,737	275,218	125,800
42,926	-14,924	275,057	125,540
43,940	-14,888	274,743	125,419
44,955	-14,706	274,441	125,441
45,969	-14,763	274,303	125,314
46,984	-14,864	274,171	125,147
47,999	-14,569	274,077	125,370
49,013	-14,634	273,724	125,136
50,028	-14,698	273,515	124,969
51,042	-14,545	273,193	124,954
52,057	-14,833	273,070	124,618
53,071	-14,707	272,761	124,583
54,086	-14,771	272,512	124,399
55,101	-14,824	272,237	124,213
56,115	-14,692	272,119	124,271
57,130	-14,452	271,781	124,328
58,144	-14,777	271,415	123,848
59,159	-14,900	271,323	123,681
60,174	-14,747	271,036	123,681
61,188	-14,928	270,724	123,360
62,203	-14,836	270,645	123,398
63,217	-14,721	270,424	123,392
64,232	-14,864	270,125	123,114
65,247	-14,859	269,850	122,982
66,261	-14,800	269,512	122,871
67,276	-14,753	269,492	122,894
68,290	-14,822	269,302	122,733
69,305	-14,905	269,075	122,543
70,320	-14,687	268,813	122,612
71,334	-14,855	268,670	122,382
72,349	-14,714	268,189	122,281
73,363	-14,963	268,107	122,005
74,378	-14,760	267,897	122,084
75,393	-14,842	267,651	121,886
76,407	-14,699	267,554	121,961
77,422	-14,895	267,415	121,708
78,436	-14,832	267,173	121,645
79,451	-14,837	266,798	121,459
80,466	-14,697	266,581	121,477
81,480	-14,775	266,358	121,293
82,495	-14,597	266,057	121,306
83,509	-14,719	265,987	121,154
84,524	-14,789	265,729	120,962
85,539	-14,674	265,736	121,058
86,553	-14,534	265,278	120,965
87,568	-14,646	265,123	120,783
88,582	-14,905	264,843	120,411
89,597	-14,857	264,580	120,324
90,611	-14,707	264,557	120,437
91,626	-14,804	264,314	120,229
92,641	-14,797	264,126	120,139
93,655	-14,681	263,861	120,112
94,670	-14,828	263,707	119,899
95,684	-14,674	263,413	119,892
96,699	-14,654	263,200	119,803
97,714	-14,704	263,049	119,679
98,728	-14,867	262,995	119,498
99,743	-14,527	262,531	119,580
100,757	-14,675	262,463	119,406
101,772	-14,777	262,251	119,208
102,787	-14,699	262,039	119,171
103,801	-14,693	261,833	119,072
104,816	-14,720	261,497	118,884
105,830	-14,890	261,485	118,717
106,845	-14,828	261,333	118,693
107,860	-14,875	261,018	118,498
108,874	-14,826	260,759	118,412
109,889	-14,951	260,631	118,233
110,903	-14,952	260,414	118,124
111,918	-14,819	260,220	118,143
112,933	-14,733	260,058	118,134
113,947	-14,883	259,798	117,873
114,962	-14,890	259,578	117,757
115,976	-14,805	259,418	117,748
116,991	-14,683	259,188	117,741
118,006	-14,875	258,955	117,456
119,020	-14,747	258,900	117,533
120,035	-14,566	258,664	117,574
121,049	-14,822	258,638	117,327
122,064	-14,754	258,341	117,241
123,079	-14,960	258,142	116,960
124,093	-14,757	257,863	117,001
125,108	-14,757	257,520	116,835
126,122	-14,714	257,502	116,854
127,137	-14,647	257,252	116,789
128,151	-14,814	257,155	116,588
129,166	-14,883	256,934	116,418
130,181	-14,597	256,622	116,515
131,195	-14,839	256,547	116,260
132,210	-14,811	256,199	116,116
133,224	-14,929	256,115	115,966
134,239	-14,873	255,889	115,902
135,254	-14,924	255,771	115,794
136,268	-14,602	255,346	115,869
137,283	-14,770	255,354	115,717
138,297	-14,791	255,045	115,549
139,312	-14,762	254,872	115,485
140,327	-14,862	254,832	115,371
141,341	-14,765	254,560	115,320
142,356	-14,980	254,276	114,996
143,370	-14,924	254,011	114,915
144,385	-14,740	254,002	115,058
145,400	-14,725	253,742	114,944
146,414	-14,610	253,446	114,898
147,429	-14,666	253,332	114,788
148,443	-14,733	253,298	114,705
149,458	-14,760	253,126	114,593
150,473	-14,628	252,874	114,582
151,487	-14,990	252,642	114,157
152,502	-14,736	252,464	114,284
153,516	-14,633	252,238	114,259
154,531	-14,644	251,997	114,130
155,546	-14,639	251,818	114,043
156,560	-14,791	251,773	113,883
157,575	-14,759	251,368	113,717
158,589	-14,797	251,293	113,641
159,604	-14,704	251,134	113,638
160,619	-14,705	250,889	113,516
161,633	-14,669	250,778	113,486
162,648	-14,790	250,523	113,258
163,662	-14,731	250,364	113,227
164,677	-14,850	250,282	113,078
165,692	-14,686	250,056	113,105
166,706	-14,605	249,856	113,072
167,721	-14,737	249,818	112,934
168,735	-14,635	249,518	112,874
169,750	-14,831	249,364	112,629
170,764	-14,717	249,276	112,675
171,779	-14,871	249,179	112,492
172,794	-14,654	248,857	112,519
173,808	-14,639	248,634	112,421
174,823	-14,604	248,580	112,416
175,837	-14,730	248,354	112,197
176,852	-14,776	248,189	112,075
177,867	-14,787	248,088	112,009
178,881	-14,850	247,907	111,865
179,896	-14,811	247,544	111,724
180,910	-14,719	247,512	111,777
181,925	-14,619	247,177	111,699
182,940	-14,955	247,172	111,407
183,954	-15,117	247,041	111,202
184,969	-14,879	246,917	111,334
185,983	-14,501	246,645	111,517
186,998	-14,511	246,540	111,451
188,013	-14,630	246,301	111,235
189,027	-14,645	246,046	111,097
190,042	-14,844	245,887	110,850
191,056	-14,917	245,620	110,659
192,071	-14,806	245,344	110,617
193,086	-14,960	245,296	110,458
194,100	-14,806	245,084	110,480
195,115	-14,843	244,833	110,326
196,129	-14,727	244,726	110,364
197,144	-14,744	244,459	110,220
198,159	-14,830	244,252	110,046
199,173	-14,923	244,260	109,963
200,188	-15,034	244,048	109,767
201,202	-15,098	243,826	109,604
202,217	-14,742	243,573	109,773
203,232	-14,852	243,552	109,663
204,246	-15,193	243,163	109,199
205,261	-15,829	242,672	108,449
206,275	-15,294	242,943	108,998
207,290	-11,063	244,347	113,099
208,304	-4,312	246,603	119,723
209,319	-0,199	247,614	123,614
210,334	0,901	247,865	124,641
211,348	1,766	248,044	125,436
212,363	2,062	248,176	125,737
213,377	2,437	248,241	126,069
214,392	3,102	247,966	126,469
215,407	3,019	247,985	126,399
216,421	3,133	247,721	126,347
217,436	2,984	247,687	126,196
218,450	3,007	247,609	126,163
219,465	2,667	247,447	125,789
220,480	2,772	247,089	125,682
221,494	2,628	246,733	125,372
222,509	2,244	246,511	124,932
223,523	2,038	246,286	124,638
224,538	1,633	246,232	124,267
225,553	1,909	245,855	124,291
226,567	1,697	245,620	123,987
227,582	1,830	245,482	124,017
228,596	1,849	245,420	123,990
229,611	1,666	245,343	123,789
230,626	1,525	245,108	123,545
231,640	1,556	244,943	123,476
232,655	1,706	244,714	123,472
233,669	1,495	244,630	123,246
234,684	1,790	244,331	123,325
235,699	1,682	244,245	123,183
236,713	1,916	244,070	123,273
237,728	1,702	243,890	122,998
238,742	1,812	243,770	123,016
239,757	1,705	243,611	122,838
240,772	1,698	243,539	122,785
241,786	1,923	243,251	122,811
242,801	1,693	243,187	122,581
243,815	1,649	242,975	122,428
244,830	1,674	242,874	122,387
245,844	1,803	242,741	122,413
246,859	1,721	242,440	122,183
247,874	1,824	242,372	122,222
248,888	1,774	242,241	122,105
249,903	1,831	242,159	122,098
250,917	2,008	241,926	122,113
251,932	2,005	241,758	122,014
252,947	1,810	241,810	121,872
253,961	1,762	241,432	121,632
254,976	1,947	241,279	121,693
255,990	1,854	241,086	121,511
257,005	1,950	240,989	121,528
258,020	1,790	240,816	121,301
259,034	1,907	240,587	121,269
260,049	1,891	240,475	121,189
261,063	1,760	240,362	121,016
262,078	1,886	240,135	120,992
263,093	1,588	240,042	120,697
264,107	1,742	239,850	120,712
265,122	1,797	239,484	120,561
266,136	1,911	239,471	120,634
267,151	1,872	239,334	120,523
268,166	2,044	239,170	120,567
269,180	1,558	238,998	120,084
270,195	1,872	238,943	120,294
271,209	2,006	238,714	120,275
272,224	1,891	238,682	120,157
273,239	1,728	238,362	119,855
274,253	1,891	238,282	119,934
275,268	1,672	238,112	119,665
276,282	1,841	237,975	119,719
277,297	1,703	237,847	119,535
278,312	1,674	237,797	119,475
279,326	1,833	237,640	119,512
280,341	1,742	237,314	119,265
281,355	1,809	237,162	119,231
282,370	1,819	237,024	119,159
283,384	1,800	236,908	119,075
284,399	1,774	236,708	118,943
285,414	1,784	236,554	118,863
286,428	1,763	236,664	118,891
287,443	1,770	236,243	118,675
288,457	1,732	236,120	118,572
289,472	1,777	235,924	118,499
290,487	1,847	235,818	118,490
291,501	1,945	235,649	118,471
292,516	1,764	235,541	118,265
293,530	1,706	235,320	118,098
294,545	1,799	235,405	118,203
295,560	1,784	235,296	118,126
296,574	1,779	234,907	117,916
297,589	1,953	234,735	117,955
298,603	1,955	234,790	117,973
299,618	2,041	234,385	117,826
300,633	1,824	234,424	117,666
301,647	2,100	234,152	117,734
302,662	1,950	234,277	117,669
303,676	2,158	233,869	117,615
304,691	1,929	233,848	117,417
305,706	2,247	233,486	117,470
306,720	2,054	233,455	117,295
307,735	2,151	233,368	117,316
308,749	2,023	233,235	117,140
309,764	2,004	233,042	117,018
310,779	1,947	232,819	116,851
311,793	1,774	232,744	116,670
312,808	2,119	232,577	116,842
313,822	1,794	232,530	116,558
314,837	1,820	232,406	116,505
315,852	2,038	232,149	116,533
316,866	2,298	231,871	116,583
317,881	1,996	231,803	116,307
318,895	2,090	231,747	116,340
319,910	2,194	231,502	116,286
320,925	2,023	231,368	116,078
321,939	1,889	231,196	115,878
322,954	1,861	231,038	115,768
323,968	1,951	230,980	115,797
324,983	1,863	230,831	115,644
325,997	2,025	230,559	115,621
327,012	2,041	230,463	115,575
328,027	1,948	230,364	115,445
329,041	1,872	230,235	115,311
330,056	1,996	229,990	115,274
331,070	2,118	230,012	115,366
332,085	2,123	229,627	115,167
333,100	1,802	229,554	114,876
334,114	1,876	229,342	114,817
335,129	1,859	229,230	114,738
336,143	1,913	229,101	114,703
337,158	1,966	229,056	114,711
338,173	2,085	228,841	114,683
339,187	2,046	228,726	114,585
340,202	1,977	228,516	114,418
341,216	1,899	228,409	114,295
342,231	1,780	228,310	114,145
343,246	2,047	228,206	114,285
344,260	2,074	227,927	114,155
345,275	2,034	227,919	114,111
346,289	1,983	227,790	113,998
347,304	2,181	227,426	113,954
348,319	2,156	227,328	113,876
349,333	1,964	227,242	113,679
350,348	1,975	227,007	113,559
351,362	1,988	227,014	113,562
352,377	2,096	226,716	113,484
353,392	1,943	226,634	113,319
354,406	1,968	226,426	113,223
355,421	193,453	1313,792	1383,190
356,435	155,036	1446,170	1383,087
