DTS Sentinel unit serial number:	SN410029Multiplexer serial number:	ORYXHardware model number:	OX2-SRSoftware version number:	ORYX F/W v4,00 Oryx Data Collector v3.7.2.0data status	okinstallation	B5 Nyhavnadifferential loss correction	single-endedforward channel	channel 2reverse channel	N/Adate	2023/12/12time	07:27:13forward acquisition time	300,00reverse acquisition time	0,00gamma	499,1914k internal	0,3158k external	0,3158temperature offset calibration	1,0000default loss term (dB/km)	0,3820temperature slope calibration	1,0000multiplexer offset coefficient	1,0000multiplexer slope coefficient	1,0000fibre end	0,00T internal ref (°C)	15,14T ext. ref 1 (°C)	-1,15T ext. ref 2 (°C)	-1,45length (m)	temperature (°C)	Stokes	anti-Stokes-744,400	800,000	0,072	0,169
-743,385	-160,081	-0,291	-0,011
-742,371	28,189	0,136	0,085
-741,356	-125,752	-0,338	-0,037
-740,342	-155,539	0,087	0,004
-739,327	-138,163	-0,272	0,022
-738,312	-200,000	-0,009	0,109
-737,298	-102,747	-0,352	-0,061
-736,283	-25,048	0,133	0,058
-735,269	-95,232	-0,290	0,057
-734,254	-70,775	0,123	0,034
-733,239	12,361	-0,382	-0,217
-732,225	-182,086	0,251	-0,003
-731,210	-200,000	-0,007	0,035
-730,196	391,575	0,062	-0,095
-729,181	424,104	-0,034	-0,054
-728,167	282,642	0,045	-0,059
-727,152	-200,000	0,001	-0,023
-726,137	65,599	-0,071	-0,053
-725,123	-137,586	0,094	0,008
-724,108	69,747	-0,020	0,015
-723,094	679,455	-0,065	-0,125
-722,079	622,596	-0,047	-0,087
-721,064	800,000	-0,005	-0,011
-720,050	-103,855	-0,072	0,012
-719,035	416,948	-0,012	-0,019
-718,021	13,567	-0,149	-0,085
-717,006	181,199	-0,044	-0,047
-715,991	800,000	0,072	-0,152
-714,977	797,428	-0,037	-0,075
-713,962	331,645	-0,022	-0,031
-712,948	-110,927	0,121	0,018
-711,933	-200,000	-0,006	0,124
-710,918	-75,209	-0,079	0,021
-709,904	41,890	-0,111	-0,074
-708,889	103,805	0,121	-0,105
-707,875	-200,000	-0,002	-0,093
-706,860	-13,302	-0,081	-0,039
-705,845	83,533	0,065	-0,052
-704,831	-200,000	-0,010	-0,044
-703,816	-73,290	-0,050	-0,013
-702,802	-146,520	-0,111	-0,007
-701,787	-55,245	-0,123	-0,040
-700,772	141,340	0,046	-0,044
-699,758	249,463	0,017	0,021
-698,743	-12,204	0,042	-0,020
-697,729	-132,409	0,016	0,001
-696,714	800,000	0,054	-0,121
-695,699	248,617	-0,093	0,115
-694,685	-200,000	-0,030	-0,160
-693,670	-192,808	0,191	0,001
-692,656	176,920	-0,101	-0,108
-691,641	260,625	0,038	-0,048
-690,627	433,933	0,021	0,034
-689,612	-126,271	-0,053	-0,006
-688,597	147,001	-0,046	0,046
-687,583	164,700	-0,122	0,126
-686,568	-200,000	-0,001	0,014
-685,554	322,072	-0,035	0,049
-684,539	-200,000	0,010	0,157
-683,524	-200,000	0,002	0,009
-682,510	-175,515	-0,088	0,002
-681,495	-200,000	0,005	-0,065
-680,481	-31,072	-0,154	-0,064
-679,466	-200,000	0,010	-0,176
-678,451	38,709	-0,089	0,058
-677,437	800,000	-0,044	-0,120
-676,422	380,095	0,075	-0,113
-675,408	-106,641	0,112	-0,018
-674,393	-200,000	-0,001	0,075
-673,378	442,847	-0,039	-0,062
-672,364	-44,051	-0,178	0,066
-671,349	296,102	-0,057	0,076
-670,335	-99,384	-0,092	-0,017
-669,320	476,116	0,047	-0,078
-668,305	800,000	-0,045	-0,094
-667,291	643,340	-0,017	0,031
-666,276	25,192	-0,016	-0,010
-665,262	358,745	0,037	0,054
-664,247	210,205	-0,099	-0,115
-663,232	-65,157	-0,057	-0,017
-662,218	707,308	0,030	0,058
-661,203	221,072	-0,107	0,127
-660,189	14,114	0,060	0,034
-659,174	-78,241	-0,210	0,053
-658,159	444,921	-0,068	-0,110
-657,145	-28,384	-0,059	-0,025
-656,130	12,618	-0,045	0,025
-655,116	38,271	-0,043	-0,028
-654,101	800,000	0,073	-0,165
-653,086	-156,337	-0,113	0,005
-652,072	641,521	0,042	-0,078
-651,057	187,955	0,062	-0,068
-650,043	37,292	0,059	0,038
-649,028	485,827	-0,062	0,104
-648,014	524,641	-0,051	0,088
-646,999	-200,000	-0,009	0,148
-645,984	101,333	0,038	0,032
-644,970	43,061	-0,080	-0,054
-643,955	-200,000	-0,055	-0,197
-642,941	-28,354	-0,030	-0,013
-641,926	-94,373	-0,083	-0,017
-640,911	-14,263	-0,028	-0,013
-639,897	233,371	-0,043	-0,052
-638,882	9,590	0,087	-0,048
-637,868	148,429	0,011	0,011
-636,853	-66,483	-0,071	0,021
-635,838	800,000	-0,072	-0,154
-634,824	-200,000	0,034	-0,147
-633,809	-200,000	-0,017	-0,060
-632,795	-7,433	-0,100	-0,050
-631,780	-175,126	0,201	-0,004
-630,765	-200,000	-0,002	0,070
-629,751	-200,000	0,022	-0,084
-628,736	-200,000	-0,022	-0,088
-627,722	113,807	-0,080	0,072
-626,707	-100,195	0,186	0,034
-625,692	396,223	-0,069	0,106
-624,678	-29,890	-0,070	-0,029
-623,663	133,548	-0,043	0,041
-622,649	800,000	0,027	-0,070
-621,634	-26,641	-0,146	0,062
-620,619	413,123	-0,098	0,153
-619,605	-182,692	0,108	0,001
-618,590	-200,000	-0,002	0,047
-617,576	-113,768	0,105	-0,015
-616,561	180,669	0,002	-0,002
-615,546	-126,340	-0,173	-0,019
-614,532	800,000	-0,073	-0,151
-613,517	-119,015	0,053	0,007
-612,503	-200,000	0,007	-0,071
-611,488	54,580	0,153	-0,108
-610,474	-31,698	-0,111	-0,046
-609,459	-90,189	-0,124	-0,026
-608,444	84,659	0,177	-0,142
-607,430	-48,289	-0,159	-0,056
-606,415	-49,326	-0,131	0,046
-605,401	40,158	0,170	-0,112
-604,386	9,505	0,083	-0,046
-603,371	-44,487	0,043	0,016
-602,357	241,945	0,064	-0,079
-601,342	492,937	-0,035	-0,059
-600,328	-200,000	-0,035	-0,151
-599,313	-200,000	0,011	0,079
-598,298	-104,275	0,019	0,003
-597,284	252,224	-0,070	-0,087
-596,269	243,876	0,097	0,119
-595,255	598,494	0,053	-0,097
-594,240	-200,000	-0,003	0,065
-593,225	35,784	-0,081	-0,052
-592,211	800,000	0,034	-0,086
-591,196	-28,709	-0,088	0,037
-590,182	-46,575	0,068	-0,024
-589,167	230,651	-0,058	0,069
-588,152	-200,000	0,004	-0,015
-587,138	-200,000	0,006	-0,077
-586,123	-97,502	-0,056	-0,011
-585,109	-165,275	-0,099	0,003
-584,094	-200,000	-0,001	0,120
-583,079	-135,068	0,067	-0,006
-582,065	127,848	0,015	0,014
-581,050	-52,347	-0,116	0,039
-580,036	-200,000	0,002	0,142
-579,021	241,546	-0,053	-0,065
-578,006	-200,000	0,002	-0,111
-576,992	-132,804	0,070	-0,006
-575,977	442,589	0,086	0,139
-574,963	-12,226	0,040	0,019
-573,948	485,700	0,033	-0,056
-572,934	297,607	-0,084	-0,113
-571,919	800,000	0,019	-0,052
-570,904	168,515	-0,061	-0,063
-569,890	255,606	-0,023	0,029
-568,875	-72,549	0,018	-0,005
-567,861	43,762	-0,113	0,076
-566,846	32,194	-0,072	0,045
-565,831	3,427	-0,038	-0,020
-564,817	109,492	-0,143	-0,126
-563,802	-28,405	-0,111	0,046
-562,788	-69,685	0,099	0,028
-561,773	-200,000	0,014	0,115
-560,758	-88,465	0,208	0,045
-559,744	178,052	0,033	0,036
-558,729	-110,786	0,035	0,005
-557,715	800,000	-0,018	0,047
-556,700	-99,405	-0,071	-0,013
-555,685	41,362	-0,094	-0,062
-554,671	612,332	-0,027	0,050
-553,656	-200,000	-0,011	-0,089
-552,642	-90,971	0,084	-0,017
-551,627	800,000	-0,043	0,116
-550,612	800,000	-0,020	-0,044
-549,598	-200,000	-0,003	-0,055
-548,583	112,088	-0,016	-0,014
-547,569	-70,315	-0,073	-0,020
-546,554	-200,000	0,024	0,122
-545,539	155,259	0,049	0,049
-544,525	800,000	0,066	0,203
-543,510	-45,459	-0,097	0,035
-542,496	248,879	-0,093	-0,115
-541,481	-117,892	-0,067	0,009
-540,466	97,977	-0,090	-0,076
-539,452	104,769	0,089	-0,077
-538,437	-155,703	0,085	-0,004
-537,423	800,000	-0,049	0,113
-536,408	-200,000	0,003	0,111
-535,393	-144,270	-0,167	-0,011
-534,379	-73,553	0,070	-0,019
-533,364	-162,486	-0,193	-0,007
-532,350	-63,575	0,085	-0,025
-531,335	-17,480	0,140	0,064
-530,321	-112,843	-0,096	0,014
-529,306	800,000	0,033	-0,091
-528,291	-54,281	-0,075	-0,025
-527,277	148,388	0,032	-0,032
-526,262	-200,000	-0,007	0,045
-525,248	-165,440	0,071	-0,002
-524,233	-200,000	-0,018	0,100
-523,218	187,590	0,019	0,021
-522,204	96,702	-0,059	0,049
-521,189	-200,000	0,018	0,060
-520,175	134,696	0,035	-0,034
-519,160	613,878	0,069	-0,126
-518,145	800,000	0,083	0,216
-517,131	53,345	0,076	-0,053
-516,116	-128,301	0,053	-0,005
-515,102	-122,288	0,046	0,005
-514,087	-58,821	-0,087	-0,027
-513,072	-121,877	-0,108	-0,013
-512,058	-154,049	0,044	-0,002
-511,043	-200,000	-0,005	-0,064
-510,029	-200,000	-0,037	0,178
-509,014	-200,000	0,019	0,064
-507,999	-200,000	-0,003	0,034
-506,985	800,000	0,058	-0,143
-505,970	-112,599	-0,170	-0,024
-504,956	-200,000	0,064	-0,230
-503,941	70,696	-0,103	-0,078
-502,926	800,000	-0,033	-0,083
-501,912	72,005	0,061	-0,046
-500,897	-200,000	0,017	0,133
-499,883	-120,216	-0,077	-0,010
-498,868	164,677	0,019	-0,019
-497,853	-132,552	-0,043	0,004
-496,839	800,000	0,038	0,091
-495,824	218,507	0,038	-0,044
-494,810	-36,361	-0,108	-0,042
-493,795	-52,593	0,081	-0,027
-492,781	373,170	-0,057	-0,084
-491,766	632,697	-0,038	-0,071
-490,751	-200,000	-0,015	0,051
-489,737	-200,000	-0,029	0,130
-488,722	-34,570	0,178	0,071
-487,708	91,689	-0,100	-0,082
-486,693	-200,000	-0,013	-0,155
-485,678	-200,000	-0,007	-0,087
-484,664	-200,000	0,020	-0,077
-483,649	213,788	-0,086	-0,100
-482,635	-85,034	0,097	-0,022
-481,620	800,000	-0,042	-0,109
-480,605	-200,000	0,003	0,042
-479,591	-46,430	-0,083	-0,029
-478,576	493,520	-0,022	0,038
-477,562	-200,000	0,016	-0,072
-476,547	800,000	-0,019	-0,050
-475,532	39,326	0,018	-0,012
-474,518	-130,171	0,070	0,007
-473,503	530,054	-0,042	0,072
-472,489	117,177	0,123	-0,110
-471,474	46,448	-0,124	0,084
-470,459	-200,000	0,014	0,193
-469,445	800,000	-0,012	0,027
-468,430	800,000	-0,034	-0,087
-467,416	396,226	0,060	-0,092
-466,401	-200,000	0,008	0,129
-465,386	41,993	0,093	0,062
-464,372	32,609	-0,137	-0,086
-463,357	-121,174	0,077	0,009
-462,343	553,447	0,058	-0,103
-461,328	800,000	0,025	-0,068
-460,313	364,265	-0,059	0,087
-459,299	249,306	0,088	0,108
-458,284	-200,000	0,016	0,124
-457,270	-63,899	-0,055	-0,016
-456,255	-81,343	-0,032	-0,008
-455,241	122,011	0,139	0,127
-454,226	-200,000	-0,005	-0,042
-453,211	-124,693	-0,101	0,011
-452,197	6,416	0,088	0,048
-451,182	47,538	0,131	0,089
-450,168	-27,372	0,085	-0,036
-449,153	-74,902	-0,073	0,019
-448,138	-200,000	0,030	0,099
-447,124	-63,753	0,124	0,037
-446,109	-167,138	-0,117	0,003
-445,095	800,000	0,028	0,081
-444,080	-100,191	0,156	-0,028
-443,065	328,734	0,013	0,018
-442,051	-200,000	0,002	-0,035
-441,036	-104,097	-0,110	0,018
-440,022	-36,905	-0,091	-0,035
-439,007	-48,814	-0,083	-0,029
-437,992	-4,078	0,204	-0,103
-436,978	64,736	0,038	-0,028
-435,963	-200,000	-0,017	-0,072
-434,949	-75,775	-0,024	0,006
-433,934	13,805	0,154	-0,087
-432,919	-200,000	0,001	-0,006
-431,905	-200,000	0,039	-0,135
-430,890	1,413	0,027	0,014
-429,876	256,523	0,046	0,058
-428,861	-200,000	-0,014	0,105
-427,846	107,927	-0,035	0,030
-426,832	-47,485	-0,069	-0,024
-425,817	-8,483	-0,108	-0,053
-424,803	-200,000	-0,025	-0,083
-423,788	107,002	0,068	-0,059
-422,773	-200,000	-0,019	-0,102
-421,759	-200,000	0,004	0,117
-420,744	-30,650	0,158	0,065
-419,730	232,411	0,021	-0,025
-418,715	83,419	-0,112	0,088
-417,701	-200,000	-0,009	-0,087
-416,686	800,000	0,045	-0,094
-415,671	-111,095	-0,063	0,009
-414,657	-200,000	0,003	0,126
-413,642	137,626	0,048	0,046
-412,628	-111,506	-0,151	0,022
-411,613	62,794	-0,090	-0,066
-410,598	-23,695	0,032	-0,014
-409,584	-112,872	-0,103	-0,015
-408,569	539,788	0,004	0,007
-407,555	150,858	-0,068	0,067
-406,540	-67,906	0,103	-0,029
-405,525	-200,000	0,015	0,070
-404,511	-200,000	0,006	-0,078
-403,496	-86,715	-0,018	0,004
-402,482	93,260	0,086	-0,070
-401,467	-7,941	0,075	-0,036
-400,452	-200,000	0,007	0,088
-399,438	293,397	0,043	0,058
-398,423	-112,596	-0,167	0,024
-397,409	-200,000	0,014	-0,054
-396,394	27,989	0,066	-0,041
-395,379	297,138	-0,031	-0,041
-394,365	-52,960	-0,020	0,007
-393,350	-161,756	0,073	-0,003
-392,336	587,653	0,066	0,118
-391,321	359,683	-0,059	0,085
-390,306	800,000	-0,041	0,091
-389,292	800,000	0,070	-0,144
-388,277	284,934	0,054	0,071
-387,263	800,000	-0,018	-0,042
-386,248	273,908	-0,028	0,036
-385,233	357,481	-0,039	0,056
-384,219	-179,817	0,120	0,002
-383,204	-18,740	0,050	-0,023
-382,190	-40,199	0,035	-0,013
-381,175	105,801	-0,112	-0,096
-380,160	800,000	0,031	0,081
-379,146	100,627	-0,132	0,111
-378,131	-89,512	0,079	0,017
-377,117	-200,000	-0,005	-0,129
-376,102	800,000	0,009	0,025
-375,088	-200,000	-0,032	-0,145
-374,073	556,636	-0,084	0,148
-373,058	142,354	0,051	0,050
-372,044	215,646	-0,073	0,085
-371,029	54,875	0,076	0,053
-370,015	179,735	-0,056	0,059
-369,000	-200,000	-0,018	-0,097
-367,985	-111,236	0,134	0,020
-366,971	119,524	-0,054	-0,049
-365,956	-99,074	0,081	-0,015
-364,942	203,012	-0,046	-0,051
-363,927	-200,000	0,024	0,104
-362,912	61,360	0,051	0,037
-361,898	-50,378	-0,050	-0,017
-360,883	542,348	-0,029	-0,050
-359,869	-200,000	0,033	-0,206
-358,854	-90,780	-0,135	-0,028
-357,839	-129,707	0,099	0,010
-356,825	-33,709	0,045	0,018
-355,810	-200,000	-0,009	0,130
-354,796	335,297	-0,086	0,121
-353,781	19,449	-0,039	0,022
-352,766	-136,597	0,041	0,003
-351,752	-35,713	0,029	-0,011
-350,737	159,466	0,101	0,102
-349,723	345,932	0,040	0,057
-348,708	446,073	-0,084	-0,135
-347,693	92,333	-0,048	-0,039
-346,679	-12,166	0,126	-0,060
-345,664	198,451	0,097	0,108
-344,650	194,928	-0,067	0,073
-343,635	800,000	-0,024	0,067
-342,620	13,412	0,103	-0,058
-341,606	645,332	-0,032	0,060
-340,591	1,795	-0,028	-0,015
-339,577	241,109	0,080	-0,098
-338,562	-200,000	0,004	0,035
-337,548	152,998	-0,035	0,035
-336,533	-46,113	-0,001	0,000
-335,518	-200,000	0,005	-0,042
-334,504	-41,394	0,051	-0,019
-333,489	800,000	-0,033	0,086
-332,475	-84,531	-0,152	0,035
-331,460	605,714	0,033	-0,060
-330,445	-200,000	0,010	-0,052
-329,431	-54,440	0,033	0,011
-328,416	679,189	0,014	-0,027
-327,402	27,171	-0,040	0,024
-326,387	-200,000	0,004	0,032
-325,372	-130,211	-0,087	0,009
-324,358	800,000	-0,032	0,086
-323,343	-149,904	-0,128	-0,007
-322,329	197,189	-0,015	0,016
-321,314	-1,530	0,135	0,069
-320,299	231,525	0,062	0,074
-319,285	320,998	-0,014	0,019
-318,270	-200,000	0,008	-0,051
-317,256	141,486	-0,042	0,040
-316,241	800,000	-0,029	-0,093
-315,226	274,183	-0,051	0,065
-314,212	303,764	0,056	0,075
-313,197	-100,592	0,191	-0,034
-312,183	82,369	-0,039	-0,030
-311,168	58,651	-0,034	0,025
-310,153	-31,110	-0,099	-0,040
-309,139	-25,058	-0,023	0,010
-308,124	124,464	0,090	-0,082
-307,110	-200,000	0,006	0,049
-306,095	-30,894	0,219	0,089
-305,080	-200,000	0,013	-0,152
-304,066	800,000	-0,040	0,079
-303,051	229,988	0,085	-0,101
-302,037	-30,669	-0,049	-0,020
-301,022	164,478	0,101	0,104
-300,008	-132,721	0,130	-0,012
-298,993	-192,460	0,017	-0,000
-297,978	69,274	0,136	0,102
-296,964	800,000	-0,031	0,094
-295,949	116,981	0,097	-0,086
-294,935	31,752	-0,012	0,007
-293,920	800,000	0,006	-0,019
-292,905	9,763	0,053	0,029
-291,891	88,093	-0,042	0,034
-290,876	13,583	0,059	0,033
-289,862	-200,000	0,026	-0,117
-288,847	76,495	-0,109	-0,083
-287,832	800,000	-0,015	-0,045
-286,818	-90,739	-0,027	-0,006
-285,803	-41,655	0,144	-0,053
-284,789	800,000	0,013	-0,030
-283,774	83,812	0,063	-0,050
-282,759	178,737	0,095	-0,101
-281,745	-144,527	-0,165	-0,011
-280,730	-115,793	-0,044	0,006
-279,716	-77,387	-0,130	0,032
-278,701	-200,000	0,012	-0,042
-277,686	-200,000	0,022	0,089
-276,672	44,829	-0,119	-0,079
-275,657	-65,767	0,107	0,031
-274,643	800,000	-0,041	-0,106
-273,628	-141,070	-0,155	0,011
-272,613	-140,960	0,034	-0,002
-271,599	800,000	0,028	0,058
-270,584	-16,151	0,034	-0,016
-269,570	-28,156	-0,076	0,031
-268,555	160,493	0,022	0,022
-267,540	613,771	-0,096	0,175
-266,526	206,368	-0,061	-0,069
-265,511	-200,000	-0,018	-0,065
-264,497	168,601	-0,063	0,065
-263,482	-74,329	0,191	0,050
-262,467	485,143	-0,071	0,118
-261,453	800,000	0,036	0,113
-260,438	-64,123	0,088	-0,026
-259,424	-104,081	-0,036	-0,006
-258,409	46,367	0,080	-0,053
-257,395	46,899	-0,052	0,035
-256,380	-200,000	-0,014	-0,044
-255,365	-200,000	-0,002	0,205
-254,351	-200,000	0,008	-0,103
-253,336	-119,772	0,148	-0,018
-252,322	367,146	-0,065	0,095
-251,307	374,056	0,033	0,049
-250,292	259,674	0,050	-0,063
-249,278	91,304	0,121	0,098
-248,263	-78,503	0,062	0,015
-247,249	195,881	0,041	0,045
-246,234	-137,070	0,219	0,018
-245,219	616,767	-0,010	0,018
-244,205	-93,403	0,117	-0,023
-243,190	70,469	0,145	-0,108
-242,176	106,693	0,029	0,025
-241,161	-200,000	0,006	0,089
-240,146	-200,000	-0,031	0,118
-239,132	582,577	0,033	-0,059
-238,117	0,986	0,134	-0,069
-237,103	23,236	-0,050	0,030
-236,088	-200,000	0,043	-0,146
-235,073	153,749	0,056	0,056
-234,059	-200,000	-0,003	-0,141
-233,044	-53,669	-0,143	0,047
-232,030	357,453	-0,049	-0,071
-231,015	-200,000	0,004	0,020
-230,000	-75,261	-0,103	-0,026
-228,986	155,373	-0,053	0,053
-227,971	-200,000	-0,004	0,115
-226,957	800,000	0,036	0,081
-225,942	725,586	0,068	0,131
-224,927	346,502	-0,052	-0,074
-223,913	-73,875	0,023	0,006
-222,898	-75,235	0,057	0,015
-221,884	800,000	-0,021	-0,044
-220,869	-200,000	-0,005	0,023
-219,855	634,737	0,073	-0,135
-218,840	-34,105	-0,081	-0,032
-217,825	-154,754	0,115	0,005
-216,811	-15,349	-0,086	0,040
-215,796	58,369	-0,092	-0,065
-214,782	618,460	-0,105	0,191
-213,767	-200,000	0,012	0,074
-212,752	-200,000	-0,007	0,037
-211,738	121,720	0,063	-0,056
-210,723	755,128	-0,035	0,068
-209,709	-40,455	-0,138	-0,052
-208,694	208,392	-0,062	0,070
-207,679	-134,656	-0,126	-0,011
-206,665	-200,000	-0,013	-0,062
-205,650	150,505	0,039	0,038
-204,636	475,322	0,064	-0,104
-203,621	-36,058	-0,078	0,030
-202,606	30,958	0,091	0,056
-201,592	268,776	-0,028	-0,035
-200,577	-74,827	-0,102	0,026
-199,563	701,475	-0,080	-0,153
-198,548	631,976	0,039	-0,072
-197,533	800,000	-0,006	0,012
-196,519	125,952	-0,073	0,067
-195,504	-200,000	0,004	0,061
-194,490	-200,000	-0,007	-0,089
-193,475	-32,353	0,060	0,024
-192,460	800,000	-0,019	0,042
-191,446	-21,312	0,038	0,017
-190,431	-47,547	0,062	-0,022
-189,417	-200,000	0,003	-0,129
-188,402	-107,807	0,039	-0,006
-187,387	-200,000	0,063	-0,203
-186,373	800,000	-0,059	-0,157
-185,358	517,793	-0,035	0,059
-184,344	-98,908	-0,067	0,012
-183,329	289,296	-0,076	0,100
-182,315	-47,099	-0,090	0,032
-181,300	332,749	-0,013	0,018
-180,285	-200,000	0,002	-0,034
-179,271	-200,000	-0,026	0,000
-178,256	125,515	-0,041	0,038
-177,242	-159,450	0,175	-0,007
-176,227	800,000	0,053	0,127
-175,212	330,050	0,014	-0,019
-174,198	-200,000	-0,001	0,092
-173,183	-119,159	-0,022	-0,003
-172,169	800,000	0,025	0,052
-171,154	-200,000	-0,018	0,065
-170,139	800,000	0,065	0,164
-169,125	800,000	-0,068	0,150
-168,110	238,657	-0,080	0,096
-167,096	800,000	0,008	0,019
-166,081	-200,000	0,006	-0,049
-165,066	115,194	-0,011	0,010
-164,052	43,135	-0,022	0,015
-163,037	800,000	0,032	0,079
-162,023	201,236	0,101	-0,112
-161,008	800,000	0,052	-0,151
-159,993	423,513	-0,077	-0,120
-158,979	627,380	-0,005	0,010
-157,964	-200,000	-0,008	-0,031
-156,950	131,923	0,024	-0,022
-155,935	94,631	-0,090	-0,074
-154,920	-65,464	0,082	-0,023
-153,906	582,346	-0,045	0,079
-152,891	564,916	-0,030	-0,052
-151,877	17,073	0,034	-0,019
-150,862	60,695	0,066	0,047
-149,847	800,000	0,038	-0,099
-148,833	-200,000	0,021	-0,100
-147,818	70,126	-0,097	-0,072
-146,804	133,452	0,036	-0,033
-145,789	379,626	-0,029	0,042
-144,775	-200,000	0,002	0,014
-143,760	29,586	-0,103	-0,063
-142,745	800,000	-0,044	-0,127
-141,731	19,469	0,090	0,052
-140,716	538,124	0,034	-0,058
-139,702	800,000	0,022	0,052
-138,687	-200,000	0,007	-0,033
-137,672	120,058	-0,091	0,082
-136,658	153,012	-0,082	-0,081
-135,643	58,053	0,069	0,049
-134,629	-152,930	-0,099	0,005
-133,614	-56,975	0,091	0,029
-132,599	107,760	-0,024	-0,021
-131,585	-160,995	0,033	-0,001
-130,570	-200,000	0,000	-0,074
-129,556	-200,000	0,005	0,173
-128,541	180,653	0,043	0,046
-127,526	800,000	-0,035	-0,099
-126,512	-182,065	0,081	0,001
-125,497	533,459	-0,044	0,075
-124,483	800,000	0,028	0,070
-123,468	800,000	0,056	-0,119
-122,453	3,772	-0,099	0,052
-121,439	-60,229	-0,038	0,012
-120,424	166,799	0,026	0,027
-119,410	43,354	-0,025	-0,016
-118,395	-8,506	-0,075	0,036
-117,380	800,000	0,032	-0,077
-116,366	134,333	-0,057	-0,053
-115,351	-75,747	-0,115	0,029
-114,337	10,995	-0,073	-0,040
-113,322	34,306	0,056	-0,035
-112,307	-17,380	0,029	-0,013
-111,293	361,845	0,046	0,067
-110,278	-144,748	-0,045	0,003
-109,264	384,374	0,073	0,108
-108,249	60,663	-0,029	-0,021
-107,234	-200,000	-0,032	-0,159
-106,220	800,000	-0,043	-0,089
-105,205	108,183	-0,158	0,135
-104,191	41,877	0,068	0,044
-103,176	-200,000	-0,005	0,027
-102,162	-200,000	-0,016	0,125
-101,147	561,104	-0,054	-0,094
-100,132	279,578	-0,050	0,064
-99,118	-18,490	-0,019	0,009
-98,103	-50,126	-0,111	-0,038
-97,089	310,143	0,018	-0,025
-96,074	192,925	0,029	-0,031
-95,059	3,707	-0,057	0,030
-94,045	800,000	-0,059	0,138
-93,030	182,408	-0,046	-0,048
-92,016	-200,000	-0,009	0,084
-91,001	247,816	0,048	0,059
-89,986	-154,218	-0,095	-0,005
-88,972	-200,000	-0,005	0,147
-87,957	122,541	0,057	0,052
-86,943	163,979	0,020	0,020
-85,928	364,436	-0,044	-0,064
-84,913	118,099	0,093	-0,083
-83,899	108,501	0,083	0,071
-82,884	194,889	-0,108	0,118
-81,870	800,000	0,022	0,045
-80,855	800,000	0,010	-0,022
-79,840	-200,000	0,016	-0,123
-78,826	-200,000	-0,005	-0,052
-77,811	-5,277	-0,156	-0,077
-76,797	-19,000	0,080	0,035
-75,782	31,721	-0,034	0,021
-74,767	98,701	0,068	-0,056
-73,753	-200,000	0,012	0,159
-72,738	-199,758	0,199	-0,001
-71,724	800,000	0,021	-0,053
-70,709	800,000	-0,013	-0,036
-69,694	-15,060	-0,135	-0,062
-68,680	-200,000	0,002	-0,032
-67,665	-109,688	0,053	0,008
-66,651	-38,615	-0,107	0,040
-65,636	800,000	-0,019	-0,051
-64,622	800,000	0,006	0,019
-63,607	800,000	0,019	0,048
-62,592	259,589	-0,040	-0,050
-61,578	436,860	-0,021	-0,032
-60,563	800,000	0,040	0,085
-59,549	-5,758	0,102	0,050
-58,534	12,671	-1,959	-1,083
-57,519	-200,000	-0,239	-0,918
-56,505	-200,000	-1,274	-5,043
-55,490	22,605	0,826	0,484
-54,476	800,000	5,267	12,220
-53,461	-200,000	17,738	286,710
-52,446	800,000	728,669	2223,493
-51,432	536,382	1644,531	2812,348
-50,417	109,933	1634,921	1407,298
-49,403	75,922	1287,015	975,701
-48,388	32,011	1027,347	633,963
-47,373	20,112	989,363	571,294
-46,359	18,399	976,927	558,477
-45,344	15,429	973,085	546,544
-44,330	15,664	971,592	546,450
-43,315	15,172	969,797	543,814
-42,300	15,160	968,665	543,118
-41,286	15,149	967,437	542,371
-40,271	15,136	966,639	541,862
-39,257	15,183	965,622	541,422
-38,242	15,140	964,867	540,839
-37,227	15,164	964,177	540,507
-36,213	15,173	963,141	539,934
-35,198	15,155	962,190	539,322
-34,184	15,167	961,641	539,031
-33,169	15,111	960,585	538,237
-32,154	15,185	959,702	537,961
-31,140	15,209	958,673	537,440
-30,125	15,197	957,821	536,901
-29,111	15,196	957,195	536,525
-28,096	15,182	956,703	536,185
-27,082	15,186	955,931	535,744
-26,067	15,235	954,911	535,307
-25,052	15,131	954,538	534,744
-24,038	15,135	953,834	534,341
-23,023	15,146	953,026	533,901
-22,009	15,194	952,485	533,730
-20,994	15,225	951,707	533,372
-19,979	15,168	951,206	532,888
-18,965	15,179	950,336	532,416
-17,950	15,216	949,946	532,293
-16,936	15,067	949,275	531,421
-15,921	15,132	948,593	531,225
-14,906	15,012	947,989	530,484
-13,892	15,062	947,224	530,195
-12,877	15,080	946,483	529,814
-11,863	15,009	945,907	529,247
-10,848	15,062	945,384	529,102
-9,833	15,152	945,003	529,154
-8,819	15,124	944,353	528,680
-7,804	15,100	943,567	528,143
-6,790	15,065	942,992	527,687
-5,775	15,090	942,514	527,480
-4,760	15,151	941,901	527,307
-3,746	15,034	941,365	526,618
-2,731	14,948	940,577	525,882
-1,717	14,852	939,881	525,171
-0,702	14,888	939,318	524,947
0,313	14,658	938,715	524,677
1,327	18,044	936,390	533,993
2,342	27,306	793,214	476,849
3,356	24,021	458,400	270,533
4,371	-3,448	314,246	156,280
5,386	-7,490	296,078	143,143
6,400	-9,451	289,922	138,209
7,415	-9,964	287,535	136,555
8,429	-10,197	285,980	135,576
9,444	-9,989	285,095	135,347
10,459	-10,045	284,438	134,969
11,473	-10,318	283,992	134,481
12,488	-10,034	283,381	134,455
13,502	-10,197	282,878	134,046
14,517	-10,223	282,461	133,811
15,531	-10,116	281,838	133,607
16,546	-10,037	281,589	133,554
17,561	-9,930	281,162	133,442
18,575	-9,899	280,797	133,287
19,590	-10,146	280,606	132,946
20,604	-9,951	280,151	132,906
21,619	-10,119	279,817	132,575
22,634	-10,186	279,610	132,401
23,648	-10,273	279,178	132,102
24,663	-10,179	278,846	132,023
25,677	-10,037	278,634	132,045
26,692	-10,083	278,399	131,879
27,707	-10,113	278,161	131,726
28,721	-10,014	277,782	131,629
29,736	-10,160	277,570	131,378
30,750	-10,223	277,489	131,268
31,765	-10,092	276,946	131,123
32,780	-10,046	276,738	131,057
33,794	-10,115	276,610	130,919
34,809	-10,038	276,280	130,825
35,823	-10,184	276,175	130,625
36,838	-10,029	275,698	130,534
37,853	-10,216	275,675	130,335
38,867	-10,112	275,380	130,282
39,882	-10,146	275,116	130,113
40,896	-10,168	274,882	129,971
41,911	-10,182	274,570	129,798
42,926	-10,204	274,343	129,659
43,940	-10,303	274,136	129,456
44,955	-10,063	273,843	129,531
45,969	-10,155	273,597	129,318
46,984	-10,485	273,447	128,927
47,999	-10,792	273,122	128,476
49,013	-10,580	272,748	128,487
50,028	-10,625	272,483	128,308
51,042	-10,963	272,199	127,849
52,057	-10,866	272,053	127,859
53,071	-10,701	271,854	127,907
54,086	-10,752	271,776	127,811
55,101	-10,567	271,428	127,808
56,115	-10,305	271,253	127,956
57,130	-10,063	271,113	128,102
58,144	-10,095	271,070	128,041
59,159	-10,070	270,748	127,901
60,174	-10,078	270,505	127,767
61,188	-9,973	270,367	127,788
62,203	-10,080	270,206	127,601
63,217	-10,072	269,920	127,462
64,232	-10,050	269,669	127,353
65,247	-10,029	269,383	127,226
66,261	-10,049	269,130	127,076
67,276	-10,236	268,923	126,796
68,290	-10,344	268,707	126,584
69,305	-10,531	268,333	126,225
70,320	-10,363	268,295	126,350
71,334	-10,320	268,218	126,342
72,349	-9,925	267,886	126,534
73,363	-9,921	267,635	126,408
74,378	-10,068	267,385	126,145
75,393	-10,013	267,162	126,079
76,407	-10,054	267,005	125,956
77,422	-10,143	266,803	125,769
78,436	-9,990	266,527	125,766
79,451	-9,946	266,329	125,701
80,466	-10,001	266,010	125,490
81,480	-10,192	265,853	125,232
82,495	-10,169	265,573	125,110
83,509	-10,127	265,503	125,103
84,524	-10,105	265,221	124,979
85,539	-10,316	265,004	124,675
86,553	-10,360	264,894	124,573
87,568	-10,127	264,614	124,640
88,582	-10,201	264,294	124,411
89,597	-10,311	264,230	124,272
90,611	-10,224	264,062	124,260
91,626	-9,928	263,899	124,437
92,641	-10,143	263,712	124,145
93,655	-10,244	263,478	123,933
94,670	-10,159	263,177	123,857
95,684	-10,254	262,962	123,660
96,699	-10,063	262,736	123,713
97,714	-10,075	262,592	123,624
98,728	-10,251	262,351	123,342
99,743	-10,233	262,150	123,253
100,757	-10,519	262,073	122,951
101,772	-10,308	261,752	122,977
102,787	-10,049	261,488	123,072
103,801	-10,201	261,537	122,949
104,816	-10,093	261,345	122,944
105,830	-10,023	261,044	122,853
106,845	-9,894	260,878	122,878
107,860	-9,945	260,759	122,766
108,874	-10,116	260,599	122,528
109,889	-10,174	260,270	122,311
110,903	-10,133	260,076	122,246
111,918	-10,112	259,867	122,155
112,933	-10,056	259,622	122,079
113,947	-10,121	259,636	122,017
114,962	-10,230	259,398	121,798
115,976	-10,020	259,286	121,920
116,991	-10,222	258,949	121,573
118,006	-10,055	258,892	121,682
119,020	-9,943	258,662	121,661
120,035	-10,129	258,595	121,455
121,049	-10,110	258,350	121,346
122,064	-10,105	258,133	121,238
123,079	-10,105	257,839	121,089
124,093	-10,190	257,812	120,991
125,108	-10,157	257,403	120,818
126,122	-10,331	257,277	120,595
127,137	-10,341	256,899	120,399
128,151	-10,463	256,868	120,268
129,166	-10,295	256,652	120,302
130,181	-10,195	256,355	120,239
131,195	-10,213	256,159	120,121
132,210	-10,026	256,049	120,220
133,224	-10,174	255,955	120,037
134,239	-9,988	255,746	120,090
135,254	-9,881	255,486	120,049
136,268	-10,221	255,348	119,680
137,283	-10,062	254,845	119,570
138,297	-10,458	254,819	119,206
139,312	-10,426	254,679	119,158
140,327	-10,088	254,556	119,381
141,341	-9,844	254,390	119,503
142,356	-9,874	254,178	119,366
143,370	-9,947	254,162	119,285
144,385	-9,939	253,987	119,199
145,400	-9,775	253,776	119,230
146,414	-9,926	253,634	119,024
147,429	-9,927	253,440	118,921
148,443	-9,911	253,177	118,801
149,458	-9,834	252,995	118,770
150,473	-9,880	252,867	118,661
151,487	-9,936	252,727	118,536
152,502	-9,796	252,360	118,473
153,516	-9,910	252,202	118,291
154,531	-10,005	252,303	118,248
155,546	-9,982	251,987	118,108
156,560	-9,809	251,609	118,067
157,575	-9,900	251,464	117,911
158,589	-9,939	251,191	117,740
159,604	-9,848	251,095	117,761
160,619	-9,921	250,974	117,632
161,633	-10,004	250,940	117,535
162,648	-9,999	250,585	117,363
163,662	-9,796	250,475	117,473
164,677	-9,957	250,423	117,301
165,692	-10,001	250,269	117,182
166,706	-9,661	249,973	117,320
167,721	-9,925	249,867	117,037
168,735	-10,027	249,717	116,870
169,750	-9,662	249,443	117,039
170,764	-9,804	249,376	116,878
171,779	-9,876	249,290	116,766
172,794	-9,747	249,100	116,775
173,808	-9,924	249,010	116,574
174,823	-10,108	248,472	116,157
175,837	-10,344	248,260	115,851
176,852	-10,034	248,359	116,146
177,867	-9,973	248,341	116,179
178,881	-9,951	248,110	116,078
179,896	-9,597	247,807	116,222
180,910	-9,628	247,639	116,107
181,925	-9,737	247,480	115,931
182,940	-9,628	247,225	115,892
183,954	-9,692	247,208	115,820
184,969	-9,949	247,114	115,552
185,983	-9,943	246,932	115,462
186,998	-9,884	246,726	115,405
188,013	-9,926	246,578	115,290
189,027	-9,794	246,350	115,283
190,042	-9,918	246,239	115,117
191,056	-9,772	245,925	115,082
192,071	-9,732	245,728	115,012
193,086	-9,756	245,605	114,924
194,100	-9,892	245,521	114,762
195,115	-9,993	245,326	114,577
196,129	-9,776	245,064	114,624
197,144	-9,937	244,795	114,355
198,159	-9,860	244,672	114,351
199,173	-9,842	244,507	114,278
200,188	-9,843	244,349	114,193
201,202	-9,995	244,054	113,921
202,217	-10,186	243,781	113,626
203,232	-10,272	243,486	113,408
204,246	-10,018	243,600	113,659
205,261	-9,640	243,514	113,919
206,275	-10,432	243,030	113,035
207,290	-7,289	244,356	116,223
208,304	-0,165	246,741	123,240
209,319	3,366	247,556	126,558
210,334	3,770	247,572	126,888
211,348	3,928	247,405	126,921
212,363	4,058	247,486	127,059
213,377	4,177	247,167	126,982
214,392	4,066	246,992	126,789
215,407	3,977	246,855	126,634
216,421	4,125	246,740	126,686
217,436	4,218	246,742	126,752
218,450	4,380	246,539	126,769
219,465	4,068	246,253	126,355
220,480	3,912	245,992	126,082
221,494	3,848	245,797	125,918
222,509	3,867	245,662	125,854
223,523	3,849	245,370	125,678
224,538	3,515	245,113	125,262
225,553	3,677	245,079	125,366
226,567	3,608	245,007	125,261
227,582	3,764	244,860	125,303
228,596	3,693	244,734	125,170
229,611	3,498	244,460	124,859
230,626	3,553	244,082	124,700
231,640	3,726	244,083	124,830
232,655	3,737	244,089	124,830
233,669	3,571	243,807	124,541
234,684	3,319	243,694	124,267
235,699	3,814	243,627	124,623
236,713	4,034	243,455	124,702
237,728	3,699	243,191	124,285
238,742	3,212	243,002	123,783
239,757	3,530	242,671	123,861
240,772	3,462	242,587	123,752
241,786	3,751	242,425	123,891
242,801	3,627	242,321	123,727
243,815	3,492	242,207	123,549
244,830	3,942	242,077	123,834
245,844	3,688	241,954	123,556
246,859	3,562	241,679	123,303
247,874	3,636	241,508	123,264
248,888	3,480	241,473	123,110
249,903	3,788	241,273	123,244
250,917	3,756	241,199	123,169
251,932	3,915	241,067	123,219
252,947	3,800	240,828	122,993
253,961	3,530	240,676	122,689
254,976	3,739	240,514	122,763
255,990	3,913	240,452	122,859
257,005	3,456	240,195	122,353
258,020	3,492	239,880	122,209
259,034	3,388	239,939	122,146
260,049	3,680	239,883	122,339
261,063	3,468	239,595	122,013
262,078	3,416	239,280	121,800
263,093	3,812	239,273	122,100
264,107	3,840	239,035	121,990
265,122	3,394	238,999	121,607
266,136	3,724	238,820	121,766
267,151	4,053	238,613	121,910
268,166	3,584	238,460	121,450
269,180	3,440	238,348	121,268
270,195	3,995	238,284	121,664
271,209	4,203	238,243	121,797
272,224	3,720	237,912	121,236
273,239	3,325	237,551	120,729
274,253	3,440	237,583	120,825
275,268	3,376	237,486	120,715
276,282	3,616	237,360	120,829
277,297	3,416	237,115	120,536
278,312	3,500	236,976	120,521
279,326	3,588	236,863	120,522
280,341	3,598	236,643	120,407
281,355	3,789	236,579	120,513
282,370	3,851	236,460	120,491
283,384	3,757	236,126	120,236
284,399	3,733	235,968	120,126
285,414	3,403	235,944	119,845
286,428	3,476	235,792	119,815
287,443	3,520	235,633	119,757
288,457	3,562	235,563	119,744
289,472	3,971	235,359	119,948
290,487	3,803	235,114	119,682
291,501	3,627	234,943	119,447
292,516	3,325	234,840	119,149
293,530	3,285	234,600	118,985
294,545	3,714	234,606	119,311
295,560	3,534	234,552	119,134
296,574	3,342	234,263	118,827
297,589	3,599	233,979	118,872
298,603	3,884	234,033	119,109
299,618	3,805	233,937	118,988
300,633	3,414	233,825	118,619
301,647	3,864	233,657	118,870
302,662	4,092	233,671	119,044
303,676	4,104	233,477	118,944
304,691	4,002	233,267	118,747
305,706	4,096	233,171	118,760
306,720	3,805	233,020	118,449
307,735	3,980	232,802	118,461
308,749	3,657	232,662	118,131
309,764	3,595	232,356	117,918
310,779	3,455	232,228	117,735
311,793	3,301	231,925	117,452
312,808	3,270	231,762	117,336
313,822	3,313	231,602	117,277
314,837	3,320	231,373	117,156
315,852	3,427	231,331	117,207
316,866	3,711	231,322	117,408
317,881	3,976	231,338	117,609
318,895	3,965	231,029	117,433
319,910	4,042	230,870	117,400
320,925	3,754	230,718	117,093
321,939	3,517	230,404	116,742
322,954	3,448	230,305	116,630
323,968	3,299	230,294	116,500
324,983	3,788	230,265	116,847
325,997	4,052	230,062	116,934
327,012	3,637	229,931	116,542
328,027	3,524	229,695	116,326
329,041	3,467	229,677	116,263
330,056	4,029	229,674	116,678
331,070	4,453	229,593	116,948
332,085	4,172	229,303	116,577
333,100	3,872	229,007	116,190
334,114	4,017	228,911	116,239
335,129	4,115	228,716	116,204
336,143	4,104	228,535	116,093
337,158	4,147	228,537	116,117
338,173	3,891	228,275	115,780
339,187	3,693	228,231	115,599
340,202	3,903	228,102	115,681
341,216	3,900	227,855	115,543
342,231	3,815	227,708	115,395
343,246	3,719	227,586	115,250
344,260	3,908	227,565	115,372
345,275	4,017	227,471	115,395
346,289	3,839	227,305	115,167
347,304	3,982	227,210	115,215
348,319	4,115	226,941	115,169
349,333	3,928	226,744	114,918
350,348	3,842	226,503	114,722
351,362	3,768	226,459	114,635
352,377	3,806	226,154	114,498
353,392	3,579	226,154	114,318
354,406	3,511	226,026	114,193
355,421	193,394	1323,433	1393,403
356,435	154,923	1457,133	1393,394
