DTS Sentinel unit serial number:	SN410029Multiplexer serial number:	ORYXHardware model number:	OX2-SRSoftware version number:	ORYX F/W v4,00 Oryx Data Collector v3.7.2.0data status	okinstallation	B5 Nyhavnadifferential loss correction	single-endedforward channel	channel 2reverse channel	N/Adate	2023/12/12time	07:37:13forward acquisition time	300,00reverse acquisition time	0,00gamma	499,1914k internal	0,3158k external	0,3158temperature offset calibration	1,0000default loss term (dB/km)	0,3820temperature slope calibration	1,0000multiplexer offset coefficient	1,0000multiplexer slope coefficient	1,0000fibre end	0,00T internal ref (°C)	15,14T ext. ref 1 (°C)	-1,14T ext. ref 2 (°C)	-1,42length (m)	temperature (°C)	Stokes	anti-Stokes-744,400	235,629	0,067	0,082
-743,385	-118,968	-0,393	-0,050
-742,371	-200,000	0,024	0,152
-741,356	-67,446	-0,295	0,085
-740,342	-42,525	0,156	0,058
-739,327	-81,852	-0,260	0,062
-738,312	695,186	0,066	-0,129
-737,298	-158,090	-0,337	-0,014
-736,283	800,000	0,018	0,056
-735,269	-134,355	-0,214	-0,019
-734,254	-6,238	0,129	-0,065
-733,239	-20,478	-0,464	-0,209
-732,225	-58,006	0,104	0,033
-731,210	-200,000	0,005	-0,037
-730,196	62,336	-0,004	0,003
-729,181	-200,000	-0,036	-0,117
-728,167	-200,000	-0,047	-0,233
-727,152	291,805	0,009	0,012
-726,137	56,672	-0,164	-0,118
-725,123	27,529	0,196	-0,121
-724,108	-60,277	-0,191	-0,060
-723,094	800,000	0,042	-0,127
-722,079	523,538	0,080	-0,139
-721,064	536,824	0,014	-0,025
-720,050	800,000	0,063	-0,142
-719,035	27,443	0,053	-0,033
-718,021	-165,870	-0,140	0,004
-717,006	-200,000	-0,003	-0,135
-715,991	95,313	-0,143	-0,120
-714,977	59,551	-0,168	-0,122
-713,962	-77,546	0,063	0,016
-712,948	800,000	-0,065	-0,145
-711,933	800,000	0,078	-0,177
-710,918	-60,176	-0,093	-0,029
-709,904	223,342	0,054	-0,064
-708,889	385,389	-0,007	-0,011
-707,875	183,360	0,092	-0,100
-706,860	-22,080	-0,028	0,012
-705,845	-91,742	0,038	0,008
-704,831	51,189	-0,065	0,045
-703,816	-47,728	0,068	-0,024
-702,802	145,903	-0,128	-0,126
-701,787	-200,000	-0,000	-0,029
-700,772	-200,000	0,003	-0,038
-699,758	17,832	-0,064	-0,037
-698,743	-200,000	0,020	-0,095
-697,729	646,513	-0,060	-0,113
-696,714	-48,888	-0,070	-0,025
-695,699	-200,000	0,016	-0,177
-694,685	-137,305	-0,108	-0,009
-693,670	722,680	0,032	-0,064
-692,656	505,535	-0,034	-0,058
-691,641	176,509	-0,021	0,022
-690,627	-25,860	0,041	0,018
-689,612	800,000	-0,030	-0,085
-688,597	-200,000	-0,007	0,036
-687,583	-171,439	-0,055	0,001
-686,568	800,000	0,024	-0,065
-685,554	-200,000	-0,017	0,175
-684,539	-24,890	0,063	-0,027
-683,524	24,240	0,057	-0,035
-682,510	202,042	0,058	-0,066
-681,495	-6,206	-0,193	-0,097
-680,481	54,274	-0,080	-0,057
-679,466	800,000	0,076	-0,169
-678,451	395,775	-0,056	-0,087
-677,437	-31,745	0,099	-0,041
-676,422	145,085	-0,012	-0,012
-675,408	-108,932	-0,167	0,026
-674,393	800,000	0,045	-0,112
-673,378	-98,632	0,100	-0,019
-672,364	310,801	0,023	-0,032
-671,349	0,008	-0,092	-0,048
-670,335	-36,508	0,043	-0,017
-669,320	-46,724	-0,042	0,015
-668,305	-200,000	0,006	0,035
-667,291	800,000	0,029	0,063
-666,276	-85,060	-0,103	0,024
-665,262	54,504	0,070	0,050
-664,247	216,875	-0,089	-0,105
-663,232	37,940	-0,086	0,056
-662,218	30,325	0,120	0,075
-661,203	238,574	-0,031	-0,038
-660,189	800,000	0,014	0,039
-659,174	317,847	-0,013	0,018
-658,159	-15,107	-0,066	-0,031
-657,145	-165,858	-0,065	-0,002
-656,130	25,019	-0,134	0,081
-655,116	321,093	-0,033	0,046
-654,101	-45,657	-0,115	0,041
-653,086	-200,000	-0,023	-0,115
-652,072	44,239	-0,008	0,005
-651,057	391,596	-0,039	-0,059
-650,043	-70,127	-0,083	-0,023
-649,028	-141,150	-0,055	-0,004
-648,014	639,092	-0,026	0,049
-646,999	9,775	0,082	0,046
-645,984	182,156	-0,065	-0,070
-644,970	-148,694	-0,190	0,011
-643,955	478,417	-0,034	-0,057
-642,941	-124,470	-0,090	0,010
-641,926	-200,000	-0,027	0,113
-640,911	129,701	0,145	0,136
-639,897	800,000	-0,057	0,120
-638,882	800,000	0,047	-0,139
-637,868	-61,720	-0,100	0,031
-636,853	-200,000	0,006	-0,109
-635,838	-200,000	0,007	-0,045
-634,824	144,335	-0,089	-0,087
-633,809	-200,000	-0,007	-0,177
-632,795	-200,000	-0,000	0,043
-631,780	36,575	-0,041	0,026
-630,765	-61,612	0,041	-0,012
-629,751	-52,500	0,039	-0,013
-628,736	170,071	-0,089	-0,094
-627,722	-200,000	-0,013	-0,246
-626,707	-200,000	0,006	-0,082
-625,692	89,551	0,174	0,142
-624,678	-200,000	-0,036	0,127
-623,663	30,185	-0,053	0,033
-622,649	90,893	-0,067	-0,055
-621,634	800,000	0,066	-0,160
-620,619	-101,010	-0,079	-0,014
-619,605	541,912	-0,042	-0,074
-618,590	-63,383	0,094	-0,028
-617,576	-29,149	0,085	0,035
-616,561	-52,570	-0,014	-0,005
-615,546	800,000	-0,020	-0,045
-614,532	333,397	-0,082	-0,116
-613,517	180,326	0,067	0,072
-612,503	-95,717	-0,055	0,011
-611,488	656,562	0,049	-0,092
-610,474	116,722	0,042	0,038
-609,459	800,000	0,005	0,015
-608,444	270,697	0,085	-0,109
-607,430	-200,000	-0,028	-0,118
-606,415	-200,000	0,037	-0,145
-605,401	373,796	0,066	0,099
-604,386	-50,532	0,144	-0,050
-603,371	-156,081	-0,037	-0,002
-602,357	19,187	-0,051	-0,030
-601,342	469,266	-0,071	-0,117
-600,328	13,411	-0,124	0,070
-599,313	800,000	-0,022	0,059
-598,298	-200,000	0,004	0,018
-597,284	-200,000	-0,017	-0,073
-596,269	800,000	0,014	-0,032
-595,255	800,000	-0,022	-0,052
-594,240	800,000	0,058	0,146
-593,225	1,138	0,047	-0,024
-592,211	226,464	-0,081	-0,097
-591,196	-200,000	0,006	0,103
-590,182	582,452	0,031	0,055
-589,167	-200,000	-0,005	0,028
-588,152	-143,740	-0,108	0,007
-587,138	297,616	-0,081	0,110
-586,123	-200,000	-0,019	-0,094
-585,109	-200,000	-0,008	-0,123
-584,094	-113,019	-0,085	0,012
-583,079	618,085	-0,064	0,118
-582,065	615,107	0,018	-0,033
-581,050	-200,000	-0,014	0,065
-580,036	-200,000	0,004	-0,045
-579,021	-24,426	0,055	-0,024
-578,006	-48,262	-0,082	0,029
-576,992	-126,543	-0,070	-0,007
-575,977	-200,000	0,036	0,136
-574,963	800,000	0,068	0,184
-573,948	-86,843	-0,197	0,044
-572,934	-200,000	0,013	0,110
-571,919	-101,220	0,055	-0,010
-570,904	-126,042	-0,047	0,005
-569,890	67,762	-0,097	-0,072
-568,875	-92,276	-0,064	-0,013
-567,861	-20,590	0,149	-0,067
-566,846	-200,000	-0,019	0,121
-565,831	351,043	-0,011	-0,017
-564,817	701,039	-0,070	-0,135
-563,802	82,007	-0,088	0,070
-562,788	-44,469	-0,054	0,020
-561,773	68,007	0,067	0,050
-560,758	-200,000	-0,013	0,113
-559,744	-153,187	0,124	-0,006
-558,729	-20,773	0,069	0,031
-557,715	-110,738	0,119	-0,018
-556,700	-200,000	-0,033	-0,135
-555,685	-200,000	-0,004	0,053
-554,671	-17,054	0,076	-0,035
-553,656	-162,328	0,004	0,000
-552,642	169,188	-0,063	0,066
-551,627	-200,000	-0,010	0,075
-550,612	800,000	0,029	-0,067
-549,598	-200,000	0,004	-0,135
-548,583	-20,848	0,073	-0,033
-547,569	-97,375	-0,106	-0,020
-546,554	-200,000	0,014	0,062
-545,539	764,859	0,072	0,144
-544,525	445,685	-0,047	-0,076
-543,510	72,964	0,005	0,004
-542,496	525,989	-0,074	-0,128
-541,481	379,786	0,061	-0,092
-540,466	24,760	0,070	0,043
-539,452	-200,000	0,004	-0,049
-538,437	765,048	0,005	-0,009
-537,423	-200,000	-0,004	0,111
-536,408	313,518	0,034	-0,047
-535,393	88,126	0,064	-0,052
-534,379	-60,253	0,112	0,035
-533,364	-84,988	-0,111	-0,025
-532,350	-55,765	-0,017	-0,006
-531,335	-96,475	0,142	0,027
-530,321	800,000	-0,019	0,059
-529,306	305,052	0,067	-0,092
-528,291	-96,537	-0,147	-0,028
-527,277	101,281	0,018	0,015
-526,262	-200,000	-0,007	-0,069
-525,248	800,000	-0,036	-0,107
-524,233	-63,866	-0,160	0,048
-523,218	-53,892	0,066	-0,022
-522,204	-149,977	-0,082	-0,005
-521,189	-57,429	-0,122	-0,039
-520,175	-124,851	-0,098	-0,011
-519,160	800,000	0,030	-0,080
-518,145	-113,873	0,088	0,012
-517,131	800,000	-0,035	0,087
-516,116	-112,789	0,086	0,012
-515,102	-200,000	0,036	0,164
-514,087	-68,667	-0,023	0,006
-513,072	24,699	-0,013	-0,008
-512,058	-40,619	-0,059	-0,022
-511,043	655,892	0,046	0,087
-510,029	111,411	0,104	0,092
-509,014	707,608	0,055	0,106
-507,999	178,130	-0,141	0,150
-506,985	1,020	0,118	0,061
-505,970	-93,979	-0,174	-0,035
-504,956	28,847	0,099	-0,061
-503,941	109,998	-0,047	-0,041
-502,926	-200,000	-0,013	0,073
-501,912	-200,000	0,014	0,155
-500,897	-200,000	-0,017	0,078
-499,883	-107,403	-0,051	0,008
-498,868	84,939	-0,063	-0,050
-497,853	-106,116	-0,028	0,004
-496,839	-129,759	0,061	0,006
-495,824	8,736	0,189	-0,104
-494,810	63,524	0,072	0,053
-493,795	-200,000	-0,001	0,018
-492,781	800,000	-0,036	-0,110
-491,766	-118,119	0,007	0,001
-490,751	-80,303	-0,096	-0,023
-489,737	71,009	0,110	0,083
-488,722	-200,000	-0,011	0,103
-487,708	471,260	0,039	0,064
-486,693	462,632	0,068	0,110
-485,678	-200,000	-0,004	0,037
-484,664	-164,982	-0,118	-0,004
-483,649	-62,792	-0,049	-0,015
-482,635	-200,000	0,020	-0,082
-481,620	-200,000	0,038	0,000
-480,605	-100,859	-0,065	0,011
-479,591	-200,000	-0,004	-0,058
-478,576	-57,227	-0,089	0,028
-477,562	686,356	-0,029	-0,056
-476,547	-67,635	-0,041	0,012
-475,532	237,891	-0,074	-0,089
-474,518	-63,767	0,132	0,039
-473,503	142,796	0,101	0,098
-472,489	103,707	0,070	0,060
-471,474	317,152	0,100	-0,138
-470,459	14,937	0,071	-0,040
-469,445	-200,000	0,026	-0,141
-468,430	-200,000	-0,023	-0,092
-467,416	-200,000	0,037	0,141
-466,401	-200,000	-0,021	0,096
-465,386	-30,183	-0,128	-0,053
-464,372	800,000	0,039	0,114
-463,357	-97,017	-0,091	0,017
-462,343	-148,973	-0,133	0,008
-461,328	81,239	-0,050	0,039
-460,313	-56,331	0,089	-0,029
-459,299	17,628	-0,037	0,021
-458,284	-138,854	-0,037	-0,003
-457,270	-106,880	0,123	-0,020
-456,255	-38,932	-0,122	-0,047
-455,241	-200,000	0,001	-0,021
-454,226	-69,886	-0,106	0,029
-453,211	-200,000	-0,022	0,107
-452,197	-88,803	0,100	-0,021
-451,182	86,279	0,043	0,034
-450,168	-101,812	0,153	-0,027
-449,153	248,306	-0,025	0,031
-448,138	152,680	-0,077	0,077
-447,124	110,976	-0,051	-0,045
-446,109	800,000	0,046	0,115
-445,095	800,000	0,047	0,139
-444,080	-116,715	0,151	-0,020
-443,065	800,000	0,041	-0,126
-442,051	88,460	-0,090	-0,073
-441,036	71,862	-0,085	0,064
-440,022	-200,000	-0,012	0,053
-439,007	-200,000	0,011	-0,064
-437,992	800,000	0,017	-0,052
-436,978	67,830	0,030	-0,022
-435,963	-200,000	0,016	-0,122
-434,949	-43,934	0,021	0,008
-433,934	-200,000	0,049	-0,163
-432,919	-93,324	-0,125	-0,025
-431,905	-31,143	-0,168	-0,069
-430,890	-17,475	0,165	0,075
-429,876	100,622	-0,085	0,072
-428,861	74,150	0,106	0,081
-427,846	-128,108	-0,154	-0,016
-426,832	62,234	-0,109	0,079
-425,817	-200,000	-0,022	-0,079
-424,803	-130,986	-0,119	0,011
-423,788	-128,554	0,110	0,011
-422,773	217,502	0,043	0,050
-421,759	800,000	-0,034	0,091
-420,744	-127,172	0,011	0,001
-419,730	-200,000	-0,001	0,037
-418,715	217,423	-0,067	-0,078
-417,701	-200,000	-0,002	-0,096
-416,686	800,000	0,026	-0,058
-415,671	443,188	0,047	0,075
-414,657	213,728	0,076	0,087
-413,642	-200,000	-0,044	0,190
-412,628	-51,423	-0,052	-0,017
-411,613	128,973	-0,053	-0,049
-410,598	-200,000	0,020	-0,114
-409,584	211,242	0,076	0,087
-408,569	609,201	0,039	-0,072
-407,555	-200,000	-0,019	0,098
-406,540	63,525	-0,056	-0,041
-405,525	48,776	-0,052	0,035
-404,511	-80,281	-0,143	-0,035
-403,496	10,999	-0,035	-0,020
-402,482	106,964	-0,129	0,111
-401,467	-135,517	0,112	0,010
-400,452	238,078	0,108	-0,131
-399,438	-20,487	0,049	0,022
-398,423	-1,075	0,051	-0,026
-397,409	-200,000	0,009	0,032
-396,394	60,729	0,012	0,008
-395,379	-59,868	0,066	0,020
-394,365	-43,604	0,103	-0,038
-393,350	-200,000	-0,018	-0,106
-392,336	329,093	-0,047	0,066
-391,321	201,613	-0,101	-0,113
-390,306	35,349	-0,060	0,039
-389,292	-73,993	0,020	-0,005
-388,277	531,059	0,069	-0,118
-387,263	43,488	0,108	0,072
-386,248	800,000	0,072	0,163
-385,233	-82,643	-0,100	-0,023
-384,219	596,329	-0,037	-0,066
-383,204	-200,000	-0,004	0,040
-382,190	-157,276	-0,151	-0,007
-381,175	-184,116	0,094	0,001
-380,160	-133,778	-0,157	0,014
-379,146	-93,389	-0,106	0,021
-378,131	-147,336	0,076	0,005
-377,117	-20,962	-0,078	-0,035
-376,102	197,149	0,050	0,055
-375,088	-200,000	-0,127	-0,000
-374,073	719,154	-0,012	0,024
-373,058	493,959	0,087	0,146
-372,044	-200,000	0,008	0,117
-371,029	-200,000	-0,028	0,169
-370,015	-38,750	-0,036	0,014
-369,000	800,000	-0,083	-0,205
-367,985	-200,000	0,008	-0,099
-366,971	231,108	0,029	0,034
-365,956	22,057	0,025	-0,015
-364,942	-158,808	0,088	0,004
-363,927	563,409	0,019	-0,034
-362,912	17,636	0,033	0,019
-361,898	2,537	-0,042	0,022
-360,883	-200,000	-0,012	-0,214
-359,869	-200,000	-0,014	-0,049
-358,854	800,000	0,091	-0,190
-357,839	-200,000	-0,018	0,100
-356,825	399,541	-0,120	0,183
-355,810	-200,000	-0,000	0,143
-354,796	-200,000	0,040	0,215
-353,781	120,080	-0,041	0,037
-352,766	-200,000	-0,021	-0,109
-351,752	308,636	0,038	-0,051
-350,737	22,952	0,058	0,034
-349,723	-3,646	0,121	0,061
-348,708	800,000	-0,077	0,212
-347,693	-82,135	0,052	-0,012
-346,679	-200,000	0,019	-0,216
-345,664	201,448	0,148	-0,166
-344,650	12,576	0,099	0,055
-343,635	46,141	0,002	0,001
-342,620	799,937	0,008	0,016
-341,606	-200,000	0,009	0,110
-340,591	-169,975	0,065	0,002
-339,577	-153,318	-0,120	-0,006
-338,562	-149,389	-0,013	-0,001
-337,548	-86,340	0,160	0,035
-336,533	-200,000	0,172	0,001
-335,518	204,168	-0,106	0,119
-334,504	5,119	0,029	-0,015
-333,489	800,000	-0,034	0,094
-332,475	-97,305	-0,018	0,003
-331,460	-200,000	-0,004	-0,021
-330,445	-145,803	-0,154	-0,010
-329,431	800,000	0,008	-0,022
-328,416	-200,000	-0,028	-0,092
-327,402	-38,843	0,079	0,030
-326,387	-126,740	-0,014	-0,001
-325,372	-200,000	-0,030	0,097
-324,358	-200,000	0,019	-0,107
-323,343	177,145	-0,065	-0,069
-322,329	-200,000	-0,020	0,079
-321,314	154,314	0,089	-0,089
-320,299	-61,759	-0,117	0,035
-319,285	76,452	-0,071	0,054
-318,270	20,110	-0,090	-0,053
-317,256	152,521	-0,093	-0,092
-316,241	212,573	0,035	-0,040
-315,226	79,818	0,089	0,069
-314,212	-126,223	0,023	0,003
-313,197	-200,000	-0,014	0,128
-312,183	125,114	0,035	0,032
-311,168	800,000	0,042	-0,121
-310,153	-200,000	-0,002	-0,071
-309,139	-129,167	-0,020	0,002
-308,124	287,872	0,060	-0,079
-307,110	-200,000	0,014	0,062
-306,095	-200,000	-0,013	0,047
-305,080	29,583	-0,036	0,022
-304,066	-145,288	0,067	-0,004
-303,051	-200,000	0,004	0,023
-302,037	800,000	-0,023	0,047
-301,022	800,000	0,081	-0,251
-300,008	20,050	-0,037	0,022
-298,993	800,000	0,014	0,032
-297,978	157,440	0,049	-0,049
-296,964	-200,000	-0,007	-0,101
-295,949	227,905	-0,033	-0,039
-294,935	191,347	-0,044	-0,048
-293,920	-200,000	0,006	0,105
-292,905	141,922	0,014	0,014
-291,891	352,416	-0,040	-0,057
-290,876	-200,000	0,047	-0,183
-289,862	143,033	-0,085	0,082
-288,847	-156,886	0,085	-0,004
-287,832	800,000	-0,053	-0,153
-286,818	71,599	0,075	-0,056
-285,803	-137,080	0,072	0,006
-284,789	471,311	-0,038	-0,061
-283,774	70,350	0,082	-0,061
-282,759	-134,873	0,023	-0,002
-281,745	-108,245	-0,063	-0,010
-280,730	31,915	-0,112	-0,070
-279,716	-134,915	0,012	0,001
-278,701	493,966	0,015	-0,024
-277,686	42,329	0,090	0,059
-276,672	78,759	0,086	0,066
-275,657	-200,000	-0,030	0,187
-274,643	270,515	-0,053	0,068
-273,628	259,513	-0,054	-0,068
-272,613	51,744	0,035	0,024
-271,599	-105,635	0,143	0,023
-270,584	-200,000	0,043	0,146
-269,570	-39,342	0,031	-0,012
-268,555	-99,305	0,087	-0,016
-267,540	-154,740	-0,148	-0,007
-266,526	174,564	-0,114	-0,119
-265,511	-200,000	0,004	-0,062
-264,497	171,861	0,055	0,058
-263,482	345,283	0,034	-0,048
-262,467	800,000	0,023	-0,055
-261,453	57,184	0,063	-0,044
-260,438	-200,000	-0,020	0,123
-259,424	-200,000	0,017	-0,054
-258,409	405,146	-0,044	0,067
-257,395	-200,000	-0,003	0,014
-256,380	334,306	0,056	0,078
-255,365	475,095	0,036	-0,059
-254,351	111,439	0,053	0,046
-253,336	140,948	-0,035	-0,033
-252,322	-200,000	-0,032	-0,134
-251,307	-132,873	-0,156	-0,014
-250,292	-77,556	-0,123	-0,030
-249,278	259,203	0,082	0,103
-248,263	-21,256	-0,067	0,029
-247,249	-143,890	0,227	0,015
-246,234	800,000	0,008	0,019
-245,219	-200,000	-0,028	-0,144
-244,205	-200,000	-0,002	-0,010
-243,190	800,000	-0,015	-0,041
-242,176	-142,423	0,043	0,003
-241,161	-31,269	-0,037	-0,015
-240,146	134,247	0,116	0,108
-239,132	-200,000	-0,028	0,187
-238,117	-32,041	-0,140	-0,057
-237,103	-200,000	-0,003	0,038
-236,088	-24,471	-0,064	0,028
-235,073	-26,049	0,138	0,058
-234,059	-86,656	0,062	0,014
-233,044	-200,000	-0,009	-0,124
-232,030	738,791	0,067	-0,131
-231,015	-200,000	-0,008	-0,040
-230,000	210,393	0,109	-0,124
-228,986	7,209	-0,103	0,055
-227,971	583,214	0,072	0,129
-226,957	-23,110	-0,087	0,038
-225,942	-50,088	0,114	0,039
-224,927	485,756	0,012	-0,019
-223,913	170,622	0,150	-0,156
-222,898	-67,792	-0,098	0,028
-221,884	240,603	-0,103	0,125
-220,869	-29,495	-0,095	0,039
-219,855	61,632	0,118	-0,084
-218,840	-200,000	-0,041	0,148
-217,825	800,000	-0,003	-0,011
-216,811	-122,945	-0,065	0,007
-215,796	30,641	-0,104	-0,064
-214,782	-200,000	0,011	-0,046
-213,767	96,582	-0,041	-0,034
-212,752	155,871	0,103	0,103
-211,738	-200,000	-0,042	0,138
-210,723	-14,911	-0,058	0,027
-209,709	-200,000	0,014	0,047
-208,694	249,058	0,099	0,122
-207,679	800,000	-0,036	0,077
-206,665	155,989	-0,069	0,069
-205,650	301,144	0,044	0,059
-204,636	-49,569	-0,017	0,006
-203,621	-85,338	-0,102	0,023
-202,606	-179,091	0,043	0,001
-201,592	537,962	-0,073	-0,125
-200,577	-182,909	0,028	0,000
-199,563	374,548	0,041	-0,061
-198,548	0,779	0,069	0,036
-197,533	-200,000	-0,029	0,177
-196,519	-89,729	0,082	0,017
-195,504	369,799	-0,055	-0,081
-194,490	-200,000	-0,005	-0,057
-193,475	800,000	-0,029	-0,061
-192,460	800,000	-0,019	-0,043
-191,446	-156,432	0,075	0,003
-190,431	800,000	-0,042	-0,091
-189,417	-7,980	0,210	-0,102
-188,402	800,000	0,028	-0,080
-187,387	-200,000	0,010	-0,099
-186,373	-200,000	-0,035	-0,149
-185,358	-5,056	-0,073	0,036
-184,344	-200,000	0,009	-0,084
-183,329	-90,042	0,113	-0,023
-182,315	383,044	-0,082	-0,122
-181,300	-132,796	-0,166	-0,015
-180,285	13,406	-0,113	-0,063
-179,271	-200,000	-0,066	-0,220
-178,256	311,832	0,092	-0,124
-177,242	209,026	0,110	0,124
-176,227	-200,000	-0,017	0,160
-175,212	-29,866	0,027	-0,011
-174,198	223,686	0,110	0,128
-173,183	-200,000	0,001	-0,090
-172,169	137,982	0,040	-0,038
-171,154	-200,000	-0,007	-0,045
-170,139	616,453	0,090	0,163
-169,125	131,914	0,059	0,055
-168,110	800,000	-0,043	0,137
-167,096	168,903	-0,024	0,025
-166,081	-200,000	0,002	-0,046
-165,066	-124,926	0,095	0,010
-164,052	800,000	-0,007	0,015
-163,037	-200,000	0,002	0,021
-162,023	-100,978	0,079	-0,014
-161,008	-200,000	0,004	-0,030
-159,993	-91,018	0,010	-0,002
-158,979	-200,000	0,018	0,186
-157,964	80,758	0,024	0,019
-156,950	-67,636	-0,067	0,019
-155,935	-31,635	0,056	0,023
-154,920	22,377	0,040	-0,024
-153,906	-200,000	0,029	-0,107
-152,891	62,174	0,057	-0,041
-151,877	-83,033	-0,049	0,011
-150,862	-39,815	-0,092	0,035
-149,847	234,793	-0,071	0,084
-148,833	208,869	-0,045	-0,050
-147,818	800,000	0,048	0,128
-146,804	-97,748	0,089	-0,016
-145,789	558,240	0,068	0,119
-144,775	7,140	-0,119	0,064
-143,760	-200,000	0,013	-0,091
-142,745	-200,000	-0,012	-0,045
-141,731	-174,189	-0,041	-0,001
-140,716	800,000	-0,029	0,073
-139,702	-27,886	0,025	0,011
-138,687	-200,000	0,045	0,219
-137,672	800,000	-0,043	0,128
-136,658	225,690	0,040	0,046
-135,643	21,288	-0,083	-0,048
-134,629	-200,000	0,009	0,096
-133,614	4,561	0,114	-0,060
-132,599	-200,000	0,000	0,165
-131,585	800,000	0,051	0,116
-130,570	-135,257	-0,069	-0,006
-129,556	157,503	0,034	0,034
-128,541	-30,035	-0,046	0,019
-127,526	-200,000	-0,036	0,131
-126,512	484,528	-0,032	-0,052
-125,497	800,000	-0,022	0,057
-124,483	12,634	-0,071	0,039
-123,468	385,341	-0,057	0,085
-122,453	288,179	0,012	-0,015
-121,439	-16,539	0,045	0,021
-120,424	-200,000	0,003	-0,093
-119,410	-118,445	0,035	-0,004
-118,395	-71,973	0,036	-0,010
-117,380	-44,108	0,087	0,031
-116,366	800,000	0,022	-0,060
-115,351	-198,862	-0,064	0,000
-114,337	800,000	0,084	-0,180
-113,322	261,748	0,075	0,094
-112,307	12,955	0,095	0,053
-111,293	-200,000	0,009	0,070
-110,278	-77,135	-0,101	-0,025
-109,264	412,487	-0,044	0,068
-108,249	17,357	0,091	-0,052
-107,234	660,896	0,016	0,029
-106,220	-200,000	-0,021	-0,139
-105,205	800,000	-0,033	-0,073
-104,191	800,000	0,039	0,116
-103,176	-200,000	-0,019	0,134
-102,162	-200,000	-0,021	-0,070
-101,147	-51,352	-0,014	-0,005
-100,132	800,000	0,010	-0,023
-99,118	6,830	0,055	-0,029
-98,103	-11,055	0,072	0,034
-97,089	-76,071	0,036	-0,009
-96,074	115,670	0,052	0,046
-95,059	800,000	-0,026	-0,078
-94,045	394,481	-0,069	-0,103
-93,030	-47,368	0,037	-0,013
-92,016	718,390	0,061	-0,117
-91,001	-200,000	0,016	-0,056
-89,986	585,092	-0,029	-0,051
-88,972	23,828	0,126	-0,075
-87,957	72,090	0,145	-0,108
-86,943	-51,972	-0,199	0,066
-85,928	92,693	-0,057	0,046
-84,913	176,885	-0,100	-0,105
-83,899	31,836	-0,043	0,026
-82,884	8,318	0,123	0,066
-81,870	208,548	0,093	0,105
-80,855	40,527	-0,074	0,048
-79,840	10,092	0,038	-0,021
-78,826	64,150	-0,058	-0,042
-77,811	-12,702	-0,069	0,032
-76,797	170,441	-0,031	0,032
-75,782	800,000	-0,048	-0,137
-74,767	52,846	0,109	-0,075
-73,753	-126,984	0,093	-0,010
-72,738	-200,000	0,006	-0,099
-71,724	-33,612	-0,109	0,043
-70,709	64,375	0,025	-0,018
-69,694	800,000	0,016	0,044
-68,680	124,167	-0,005	-0,004
-67,665	-35,877	-0,019	0,007
-66,651	-66,165	0,064	-0,018
-65,636	16,371	0,021	-0,012
-64,622	-140,533	-0,081	0,006
-63,607	-41,971	0,084	-0,031
-62,592	186,182	0,093	-0,100
-61,578	800,000	-0,043	0,096
-60,563	15,471	0,076	0,043
-59,549	-28,271	0,054	0,022
-58,534	3,555	-1,914	-0,998
-57,519	800,000	-0,292	-0,879
-56,505	-200,000	-1,297	-4,964
-55,490	-2,358	0,915	0,459
-54,476	800,000	5,358	12,239
-53,461	-200,000	17,739	286,299
-52,446	800,000	728,185	2223,383
-51,432	536,811	1644,530	2813,083
-50,417	110,003	1635,119	1407,713
-49,403	75,962	1286,916	975,720
-48,388	31,990	1027,532	633,968
-47,373	20,169	989,164	571,333
-46,359	18,384	976,835	558,339
-45,344	15,488	972,934	546,616
-44,330	15,708	971,600	546,564
-43,315	15,242	969,571	543,880
-42,300	15,173	968,518	543,045
-41,286	15,182	967,565	542,515
-40,271	15,133	966,593	541,791
-39,257	15,175	965,572	541,335
-38,242	15,186	964,763	540,893
-37,227	15,241	963,845	540,537
-36,213	15,204	963,129	539,995
-35,198	15,100	962,198	539,113
-34,184	15,233	961,248	538,989
-33,169	15,101	960,525	538,136
-32,154	15,196	959,523	537,862
-31,140	15,234	958,622	537,458
-30,125	15,238	958,026	537,113
-29,111	15,152	957,227	536,367
-28,096	15,216	956,413	536,098
-27,082	15,190	955,736	535,612
-26,067	15,127	955,005	534,978
-25,052	15,178	954,358	534,759
-24,038	15,144	953,721	534,273
-23,023	15,113	953,055	533,778
-22,009	15,181	952,335	533,571
-20,994	15,167	951,629	533,110
-19,979	15,194	950,949	532,794
-18,965	15,112	950,554	532,290
-17,950	15,170	949,877	532,074
-16,936	15,121	949,131	531,478
-15,921	15,089	948,635	531,079
-14,906	15,069	947,676	530,455
-13,892	15,034	947,293	530,109
-12,877	15,041	946,525	529,680
-11,863	15,042	945,801	529,256
-10,848	15,094	945,279	529,111
-9,833	15,181	944,775	529,083
-8,819	15,158	944,064	528,592
-7,804	15,072	943,560	528,014
-6,790	15,073	943,146	527,765
-5,775	15,113	942,260	527,375
-4,760	15,088	941,867	527,056
-3,746	15,103	941,191	526,703
-2,731	14,953	940,551	525,851
-1,717	14,881	939,854	525,214
-0,702	14,889	939,213	524,858
0,313	14,700	938,496	524,654
1,327	18,095	936,255	534,043
2,342	27,228	793,225	476,620
3,356	23,888	458,497	270,369
4,371	-3,441	314,450	156,379
5,386	-7,350	296,202	143,336
6,400	-9,487	290,114	138,256
7,415	-9,890	287,666	136,681
8,429	-10,131	286,104	135,691
9,444	-10,130	285,058	135,184
10,459	-10,033	284,549	135,024
11,473	-10,113	283,945	134,648
12,488	-10,018	283,325	134,434
13,502	-10,229	283,072	134,098
14,517	-10,140	282,621	133,959
15,531	-10,097	282,008	133,698
16,546	-10,185	281,788	133,497
17,561	-10,131	281,274	133,292
18,575	-9,938	280,935	133,306
19,590	-10,100	280,662	133,009
20,604	-9,955	280,285	132,957
21,619	-10,205	279,892	132,520
22,634	-10,083	279,575	132,475
23,648	-10,076	279,244	132,313
24,663	-10,129	278,986	132,128
25,677	-10,222	278,815	131,947
26,692	-10,059	278,585	131,982
27,707	-10,060	278,194	131,783
28,721	-10,135	277,969	131,594
29,736	-10,130	277,589	131,406
30,750	-10,155	277,446	131,304
31,765	-10,127	277,041	131,126
32,780	-10,203	276,990	131,019
33,794	-10,223	276,746	130,874
34,809	-10,222	276,470	130,732
35,823	-10,188	276,069	130,563
36,838	-10,215	275,879	130,436
37,853	-10,161	275,537	130,313
38,867	-10,194	275,493	130,249
39,882	-9,981	275,189	130,294
40,896	-10,119	274,871	130,003
41,911	-10,112	274,616	129,877
42,926	-10,210	274,471	129,705
43,940	-10,123	274,194	129,644
44,955	-10,249	273,927	129,388
45,969	-10,130	273,733	129,397
46,984	-10,345	273,379	129,017
47,999	-10,700	273,232	128,605
49,013	-10,656	272,864	128,462
50,028	-10,765	272,601	128,225
51,042	-10,927	272,457	127,996
52,057	-10,904	272,020	127,800
53,071	-10,715	271,854	127,886
54,086	-10,664	271,806	127,900
55,101	-10,510	271,549	127,909
56,115	-10,277	271,445	128,065
57,130	-10,181	271,266	128,058
58,144	-9,940	270,960	128,124
59,159	-9,999	270,978	128,067
60,174	-9,776	270,632	128,098
61,188	-9,871	270,285	127,834
62,203	-10,189	270,307	127,540
63,217	-10,012	269,938	127,518
64,232	-9,862	269,756	127,559
65,247	-10,067	269,501	127,238
66,261	-10,007	269,299	127,187
67,276	-10,145	269,076	126,944
68,290	-10,273	268,611	126,596
69,305	-10,361	268,510	126,457
70,320	-10,396	268,434	126,378
71,334	-10,311	268,043	126,260
72,349	-10,148	267,941	126,349
73,363	-10,004	267,781	126,394
74,378	-10,011	267,478	126,232
75,393	-10,100	267,229	126,023
76,407	-9,873	267,103	126,159
77,422	-10,221	267,020	125,792
78,436	-10,065	266,662	125,754
79,451	-9,927	266,424	125,755
80,466	-10,242	266,202	125,354
81,480	-10,010	265,739	125,334
82,495	-10,085	265,737	125,255
83,509	-10,380	265,675	124,947
84,524	-10,229	265,363	124,926
85,539	-10,350	265,025	124,647
86,553	-10,543	264,985	124,443
87,568	-10,257	264,793	124,599
88,582	-10,356	264,512	124,367
89,597	-10,298	264,304	124,310
90,611	-10,051	264,052	124,402
91,626	-9,875	263,980	124,514
92,641	-10,062	263,897	124,297
93,655	-10,074	263,614	124,142
94,670	-10,114	263,338	123,965
95,684	-10,054	263,164	123,926
96,699	-10,135	262,990	123,760
97,714	-10,260	262,719	123,510
98,728	-10,124	262,480	123,508
99,743	-10,413	262,403	123,203
100,757	-10,445	262,188	123,063
101,772	-10,259	261,835	123,052
102,787	-10,183	261,538	122,969
103,801	-10,104	261,569	123,042
104,816	-10,117	261,305	122,896
105,830	-10,167	261,271	122,825
106,845	-9,919	261,003	122,907
107,860	-10,035	260,845	122,719
108,874	-10,115	260,623	122,533
109,889	-10,208	260,408	122,338
110,903	-10,054	260,083	122,311
111,918	-9,927	260,026	122,385
112,933	-10,040	259,773	122,155
113,947	-9,972	259,599	122,123
114,962	-10,244	259,513	121,832
115,976	-10,198	259,333	121,777
116,991	-10,221	259,045	121,611
118,006	-10,229	258,994	121,569
119,020	-9,901	258,745	121,729
120,035	-9,976	258,712	121,637
121,049	-10,133	258,435	121,358
122,064	-10,015	258,159	121,321
123,079	-10,191	258,034	121,098
124,093	-10,236	257,866	120,969
125,108	-10,078	257,452	120,901
126,122	-10,447	257,244	120,471
127,137	-10,516	257,039	120,305
128,151	-10,280	256,742	120,361
129,166	-10,242	256,841	120,429
130,181	-10,418	256,538	120,123
131,195	-10,289	256,380	120,150
132,210	-10,034	255,943	120,156
133,224	-9,891	255,809	120,206
134,239	-10,114	255,811	120,003
135,254	-10,002	255,673	120,025
136,268	-10,343	255,524	119,649
137,283	-10,403	255,159	119,415
138,297	-10,593	255,005	119,169
139,312	-10,476	254,665	119,101
140,327	-10,289	254,563	119,203
141,341	-9,733	254,491	119,638
142,356	-9,981	254,307	119,327
143,370	-9,929	254,279	119,348
144,385	-9,919	254,038	119,233
145,400	-9,801	253,750	119,188
146,414	-9,761	253,649	119,164
147,429	-9,877	253,416	118,945
148,443	-9,996	253,342	118,797
149,458	-9,847	253,091	118,797
150,473	-9,741	252,992	118,830
151,487	-10,016	252,726	118,460
152,502	-9,823	252,420	118,470
153,516	-9,762	252,386	118,496
154,531	-9,786	252,132	118,346
155,546	-10,156	252,055	117,985
156,560	-9,931	251,799	118,045
157,575	-9,894	251,596	117,970
158,589	-10,044	251,439	117,759
159,604	-9,919	251,305	117,792
160,619	-9,925	251,050	117,657
161,633	-9,978	250,988	117,572
162,648	-9,969	250,902	117,529
163,662	-9,916	250,747	117,491
164,677	-9,940	250,568	117,377
165,692	-10,034	250,397	117,207
166,706	-9,833	250,200	117,274
167,721	-9,842	249,898	117,114
168,735	-9,995	249,684	116,874
169,750	-9,888	249,628	116,928
170,764	-9,828	249,553	116,933
171,779	-9,940	249,515	116,810
172,794	-9,808	249,155	116,742
173,808	-9,879	248,956	116,579
174,823	-10,221	248,557	116,095
175,837	-10,393	248,424	115,879
176,852	-10,114	248,503	116,139
177,867	-9,783	248,370	116,344
178,881	-9,915	248,158	116,123
179,896	-9,850	247,986	116,087
180,910	-9,812	247,738	115,992
181,925	-9,969	247,706	115,836
182,940	-10,054	247,481	115,649
183,954	-9,713	247,157	115,772
184,969	-9,890	247,126	115,600
185,983	-9,672	246,795	115,615
186,998	-9,712	246,849	115,597
188,013	-9,803	246,656	115,421
189,027	-9,885	246,375	115,211
190,042	-9,643	246,112	115,279
191,056	-9,742	245,941	115,106
192,071	-9,799	246,097	115,122
193,086	-9,835	245,782	114,934
194,100	-9,884	245,509	114,756
195,115	-9,820	245,350	114,724
196,129	-9,782	245,092	114,625
197,144	-9,739	244,905	114,563
198,159	-9,680	244,759	114,532
199,173	-9,674	244,580	114,444
200,188	-9,869	244,510	114,240
201,202	-10,059	244,043	113,856
202,217	-10,278	243,867	113,583
203,232	-10,413	243,683	113,377
204,246	-9,946	243,655	113,737
205,261	-9,411	243,386	114,039
206,275	-10,439	243,184	113,094
207,290	-7,154	244,563	116,425
208,304	-0,214	246,732	123,187
209,319	3,365	247,431	126,484
210,334	3,868	247,684	127,018
211,348	4,264	247,584	127,282
212,363	4,398	247,418	127,296
213,377	4,383	247,238	127,180
214,392	4,295	247,279	127,117
215,407	3,992	246,921	126,673
216,421	4,022	246,856	126,653
217,436	4,186	246,746	126,720
218,450	4,503	246,509	126,847
219,465	4,039	246,367	126,382
220,480	3,922	246,064	126,119
221,494	3,901	245,914	126,014
222,509	3,865	245,753	125,890
223,523	3,664	245,603	125,638
224,538	3,321	245,434	125,260
225,553	3,655	245,215	125,410
226,567	3,834	245,046	125,458
227,582	3,740	245,013	125,353
228,596	3,819	244,722	125,257
229,611	3,577	244,574	124,974
230,626	3,508	244,329	124,781
231,640	3,721	244,152	124,853
232,655	3,894	243,971	124,890
233,669	3,505	243,895	124,524
234,684	3,352	243,631	124,254
235,699	3,894	243,804	124,771
236,713	3,810	243,661	124,618
237,728	3,576	243,358	124,263
238,742	3,645	242,950	124,100
239,757	3,625	242,839	124,016
240,772	3,472	242,749	123,835
241,786	3,537	242,648	123,825
242,801	3,356	242,551	123,618
243,815	3,528	242,398	123,667
244,830	3,684	242,220	123,692
245,844	4,070	241,978	123,867
246,859	3,642	241,933	123,489
247,874	3,641	241,615	123,315
248,888	3,440	241,473	123,070
249,903	3,695	241,312	123,182
250,917	3,685	241,329	123,171
251,932	3,923	241,132	123,250
252,947	3,976	240,897	123,161
253,961	3,577	240,787	122,775
254,976	3,733	240,638	122,813
255,990	3,773	240,458	122,742
257,005	3,565	240,388	122,530
258,020	3,459	240,070	122,272
259,034	3,528	239,971	122,265
260,049	3,687	239,915	122,353
261,063	3,362	239,556	121,900
262,078	3,353	239,467	121,837
263,093	3,862	239,309	122,150
264,107	3,705	239,389	122,056
265,122	3,452	239,150	121,722
266,136	3,684	238,890	121,762
267,151	3,831	238,903	121,875
268,166	3,516	238,655	121,488
269,180	3,529	238,357	121,335
270,195	4,027	238,455	121,769
271,209	4,209	238,441	121,895
272,224	3,707	238,017	121,271
273,239	3,176	237,713	120,686
274,253	3,502	237,568	120,859
275,268	3,569	237,547	120,890
276,282	3,793	237,391	120,977
277,297	3,501	237,181	120,629
278,312	3,666	237,012	120,662
279,326	3,732	236,987	120,690
280,341	3,749	236,839	120,617
281,355	3,829	236,615	120,555
282,370	3,846	236,519	120,509
283,384	3,702	236,351	120,300
284,399	3,442	236,028	119,922
285,414	3,448	235,965	119,883
286,428	3,621	235,929	119,989
287,443	3,542	235,760	119,831
288,457	3,915	235,502	119,980
289,472	3,774	235,471	119,844
290,487	3,756	235,152	119,657
291,501	3,320	235,038	119,249
292,516	3,355	234,831	119,160
293,530	3,283	234,791	119,073
294,545	3,670	234,641	119,288
295,560	3,714	234,538	119,259
296,574	3,292	234,242	118,770
297,589	3,491	234,166	118,875
298,603	3,717	234,205	119,060
299,618	3,778	234,072	119,029
300,633	3,592	233,797	118,734
301,647	3,991	233,737	119,003
302,662	4,136	233,717	119,093
303,676	4,165	233,556	119,023
304,691	4,072	233,268	118,794
305,706	4,182	233,177	118,822
306,720	4,039	233,026	118,624
307,735	3,823	232,817	118,341
308,749	3,657	232,664	118,125
309,764	3,742	232,364	118,027
310,779	3,734	232,226	117,941
311,793	3,420	232,039	117,594
312,808	3,478	231,899	117,557
313,822	3,306	231,752	117,340
314,837	3,540	231,560	117,412
315,852	3,484	231,428	117,291
316,866	3,726	231,327	117,415
317,881	4,140	231,202	117,657
318,895	3,977	231,242	117,543
319,910	3,941	231,100	117,432
320,925	3,680	230,791	117,066
321,939	3,402	230,561	116,727
322,954	3,240	230,580	116,603
323,968	3,419	230,320	116,597
324,983	3,790	230,262	116,839
325,997	3,870	230,210	116,863
327,012	3,844	229,949	116,701
328,027	3,247	229,899	116,212
329,041	3,600	229,582	116,309
330,056	4,371	229,476	116,829
331,070	4,631	229,592	117,074
332,085	4,492	229,405	116,863
333,100	3,819	229,125	116,202
334,114	3,886	228,924	116,139
335,129	3,794	228,931	116,063
336,143	4,031	228,773	116,152
337,158	4,096	228,635	116,120
338,173	3,893	228,450	115,864
339,187	3,799	228,317	115,715
340,202	3,823	228,218	115,672
341,216	4,036	228,015	115,720
342,231	3,716	227,905	115,413
343,246	3,747	227,748	115,346
344,260	3,821	227,577	115,304
345,275	4,049	227,430	115,391
346,289	3,943	227,302	115,236
347,304	3,991	227,284	115,253
348,319	4,186	226,958	115,223
349,333	3,987	226,753	114,960
350,348	3,754	226,760	114,779
351,362	3,856	226,482	114,704
352,377	3,791	226,298	114,553
353,392	3,859	226,120	114,503
354,406	3,421	226,053	114,133
355,421	193,631	1323,648	1394,295
356,435	155,124	1457,368	1394,291
