DTS Sentinel unit serial number:	SN410029Multiplexer serial number:	ORYXHardware model number:	OX2-SRSoftware version number:	ORYX F/W v4,00 Oryx Data Collector v3.7.2.0data status	okinstallation	B5 Nyhavnadifferential loss correction	single-endedforward channel	channel 2reverse channel	N/Adate	2023/12/14time	11:12:13forward acquisition time	300,00reverse acquisition time	0,00gamma	499,1914k internal	0,3160k external	0,3160temperature offset calibration	1,0000default loss term (dB/km)	0,3820temperature slope calibration	1,0000multiplexer offset coefficient	1,0000multiplexer slope coefficient	1,0000fibre end	0,00T internal ref (°C)	7,27T ext. ref 1 (°C)	-8,01T ext. ref 2 (°C)	-8,06length (m)	temperature (°C)	Stokes	anti-Stokes-744,400	111,708	0,121	-0,107
-743,385	-52,413	-0,440	-0,149
-742,371	139,770	0,116	0,113
-741,356	-191,154	-0,343	0,003
-740,342	-25,053	0,306	0,133
-739,327	-26,640	-0,402	-0,173
-738,312	-187,247	0,040	-0,000
-737,298	-97,758	-0,434	0,082
-736,283	-78,118	0,107	0,027
-735,269	-120,290	-0,508	0,063
-734,254	-110,380	0,324	0,049
-733,239	-39,505	-0,688	-0,264
-732,225	-57,609	0,223	0,072
-731,210	-98,809	-0,109	0,020
-730,196	-200,000	0,089	0,000
-729,181	507,035	-0,075	-0,129
-728,167	800,000	0,011	-0,023
-727,152	800,000	0,063	0,152
-726,137	800,000	-0,020	-0,059
-725,123	-57,812	-0,052	-0,017
-724,108	708,047	-0,054	0,105
-723,094	-47,582	-0,133	-0,047
-722,079	-138,836	0,042	0,003
-721,064	-78,550	-0,078	0,019
-720,050	596,508	-0,012	-0,023
-719,035	125,069	0,068	-0,063
-718,021	505,541	-0,036	-0,062
-717,006	146,543	0,006	-0,006
-715,991	-94,666	-0,128	-0,025
-714,977	409,966	0,077	0,120
-713,962	225,343	-0,158	-0,189
-712,948	800,000	-0,053	0,115
-711,933	373,196	0,041	-0,061
-710,918	379,397	-0,024	0,037
-709,904	431,763	-0,088	-0,141
-708,889	-2,459	0,049	0,025
-707,875	-200,000	-0,007	-0,093
-706,860	-100,951	-0,093	-0,017
-705,845	-128,044	0,119	-0,012
-704,831	143,706	0,105	-0,103
-703,816	800,000	0,002	0,005
-702,802	187,614	-0,071	0,078
-701,787	800,000	0,043	-0,106
-700,772	-200,000	-0,007	-0,024
-699,758	-200,000	-0,021	-0,088
-698,743	-200,000	0,026	0,118
-697,729	-200,000	-0,066	-0,214
-696,714	143,994	0,061	-0,060
-695,699	-200,000	-0,023	-0,088
-694,685	-101,193	-0,122	0,022
-693,670	79,122	-0,077	-0,061
-692,656	183,168	-0,048	-0,052
-691,641	-62,554	-0,056	0,017
-690,627	-200,000	0,002	0,124
-689,612	684,497	0,056	0,108
-688,597	-126,223	-0,062	0,007
-687,583	-35,521	0,078	0,031
-686,568	783,918	-0,098	-0,198
-685,554	-19,733	0,096	-0,044
-684,539	85,641	-0,095	-0,077
-683,524	10,349	0,157	0,088
-682,510	800,000	-0,058	0,122
-681,495	138,051	-0,084	0,081
-680,481	-2,131	-0,004	0,002
-679,466	-43,842	-0,096	0,035
-678,451	182,072	-0,025	0,027
-677,437	32,756	-0,061	0,039
-676,422	-138,053	0,028	-0,002
-675,408	-200,000	0,002	-0,098
-674,393	126,788	-0,076	-0,071
-673,378	-200,000	0,007	-0,080
-672,364	118,888	0,070	-0,064
-671,349	137,912	-0,114	-0,110
-670,335	-200,000	0,025	-0,105
-669,320	378,380	0,157	0,237
-668,305	-65,247	0,057	0,017
-667,291	-200,000	0,001	0,032
-666,276	-200,000	0,003	-0,047
-665,262	250,405	-0,030	-0,038
-664,247	-176,107	0,060	0,001
-663,232	322,449	0,012	0,016
-662,218	192,436	0,059	0,066
-661,203	439,029	-0,032	-0,052
-660,189	93,297	-0,071	-0,059
-659,174	-2,106	-0,152	-0,078
-658,159	-125,498	0,137	0,015
-657,145	-44,139	-0,081	0,030
-656,130	-200,000	0,005	0,146
-655,116	-122,752	-0,031	-0,004
-654,101	-47,494	0,121	-0,043
-653,086	-189,995	-0,127	0,001
-652,072	-200,000	-0,028	-0,190
-651,057	-115,659	-0,033	-0,004
-650,043	-200,000	0,008	-0,036
-649,028	800,000	0,025	-0,055
-648,014	-72,986	0,027	0,007
-646,999	71,038	0,122	0,093
-645,984	225,609	-0,088	0,105
-644,970	-97,974	-0,080	-0,015
-643,955	-200,000	-0,024	-0,104
-642,941	192,432	-0,055	0,061
-641,926	-26,927	0,029	-0,012
-640,911	87,575	0,061	0,050
-639,897	244,305	-0,061	0,075
-638,882	-200,000	0,000	0,062
-637,868	-200,000	-0,006	-0,085
-636,853	-200,000	0,006	-0,045
-635,838	296,637	-0,035	0,047
-634,824	436,523	-0,041	0,066
-633,809	638,099	-0,032	-0,061
-632,795	32,805	-0,181	0,115
-631,780	-79,941	-0,119	0,029
-630,765	25,839	-0,008	-0,005
-629,751	-93,432	0,118	-0,024
-628,736	38,874	0,074	-0,049
-627,722	-200,000	0,002	0,011
-626,707	-128,310	0,077	-0,008
-625,692	-200,000	0,017	0,124
-624,678	348,415	-0,034	-0,049
-623,663	-145,260	0,122	-0,008
-622,649	-102,734	-0,079	0,014
-621,634	541,213	-0,085	-0,149
-620,619	-38,436	-0,112	-0,043
-619,605	800,000	-0,029	-0,077
-618,590	-20,209	0,030	0,013
-617,576	47,974	-0,050	-0,034
-616,561	131,315	-0,076	-0,072
-615,546	-200,000	0,007	-0,031
-614,532	-81,627	0,131	0,031
-613,517	800,000	0,023	0,059
-612,503	187,102	0,079	-0,087
-611,488	-8,265	0,110	-0,054
-610,474	-142,309	-0,184	-0,013
-609,459	-142,563	0,085	0,006
-608,444	-27,948	-0,079	0,033
-607,430	-200,000	0,019	-0,214
-606,415	800,000	0,013	-0,035
-605,401	344,474	0,078	-0,112
-604,386	-200,000	-0,010	-0,109
-603,371	-101,246	-0,150	-0,027
-602,357	800,000	0,014	-0,036
-601,342	609,610	-0,065	-0,120
-600,328	-200,000	-0,011	-0,077
-599,313	585,270	-0,060	-0,108
-598,298	-49,625	0,104	0,036
-597,284	-41,490	0,037	0,014
-596,269	366,183	0,023	0,034
-595,255	325,814	0,045	-0,064
-594,240	737,060	-0,019	0,037
-593,225	-10,787	0,160	-0,077
-592,211	-55,956	-0,043	0,014
-591,196	206,051	0,029	-0,034
-590,182	800,000	0,004	-0,009
-589,167	-200,000	-0,031	0,136
-588,152	484,379	-0,027	0,045
-587,138	73,137	0,087	-0,066
-586,123	360,580	-0,073	-0,107
-585,109	211,111	-0,014	-0,016
-584,094	800,000	-0,028	-0,067
-583,079	-160,294	0,104	0,004
-582,065	145,560	-0,046	-0,045
-581,050	63,249	-0,030	-0,022
-580,036	-22,199	-0,111	-0,049
-579,021	85,805	-0,061	0,049
-578,006	-143,253	-0,132	-0,009
-576,992	22,696	0,071	-0,043
-575,977	62,608	-0,080	0,058
-574,963	-200,000	-0,017	0,115
-573,948	-200,000	0,000	0,019
-572,934	800,000	-0,028	-0,079
-571,919	-35,108	0,096	-0,038
-570,904	359,565	-0,044	-0,065
-569,890	9,473	0,123	0,068
-568,875	29,407	-0,078	-0,048
-567,861	87,132	0,010	0,008
-566,846	800,000	0,048	0,118
-565,831	275,841	0,052	-0,068
-564,817	-200,000	0,018	-0,150
-563,802	81,761	-0,091	-0,072
-562,788	116,164	0,118	0,106
-561,773	3,665	0,073	-0,039
-560,758	-90,489	0,070	-0,015
-559,744	-200,000	-0,008	0,056
-558,729	-49,809	0,121	0,042
-557,715	0,254	-0,122	-0,063
-556,700	-119,564	-0,043	0,005
-555,685	92,481	0,037	0,030
-554,671	566,008	0,020	0,036
-553,656	160,556	0,096	-0,098
-552,642	63,898	-0,034	0,025
-551,627	800,000	-0,024	-0,066
-550,612	120,993	-0,153	0,139
-549,598	174,152	-0,039	0,041
-548,583	-149,047	0,107	0,006
-547,569	481,328	0,016	0,026
-546,554	-200,000	0,025	0,175
-545,539	-30,088	0,113	-0,047
-544,525	29,546	0,028	0,017
-543,510	-200,000	-0,008	-0,047
-542,496	8,763	0,180	-0,099
-541,481	-200,000	-0,007	-0,084
-540,466	151,530	0,017	-0,017
-539,452	-22,125	-0,065	-0,029
-538,437	-34,655	-0,047	0,019
-537,423	-200,000	-0,008	0,141
-536,408	130,998	-0,083	0,078
-535,393	17,856	0,089	-0,052
-534,379	800,000	0,057	0,151
-533,364	-200,000	-0,003	-0,028
-532,350	215,806	0,024	-0,028
-531,335	-200,000	-0,021	0,089
-530,321	800,000	0,108	0,260
-529,306	-117,505	-0,020	-0,003
-528,291	621,172	0,057	-0,106
-527,277	224,042	-0,099	-0,117
-526,262	-82,128	0,104	0,025
-525,248	800,000	0,074	0,195
-524,233	-200,000	-0,007	0,065
-523,218	-21,752	-0,047	-0,021
-522,204	-200,000	0,026	0,104
-521,189	212,622	-0,056	0,065
-520,175	-200,000	-0,001	-0,166
-519,160	106,623	0,081	0,070
-518,145	-200,000	0,001	0,040
-517,131	-143,414	-0,026	-0,002
-516,116	-200,000	0,001	0,019
-515,102	800,000	-0,030	0,080
-514,087	-200,000	-0,014	0,055
-513,072	-156,319	0,107	0,005
-512,058	-40,778	0,033	0,012
-511,043	55,386	0,088	-0,062
-510,029	120,316	0,125	-0,114
-509,014	69,905	0,096	0,072
-507,999	-74,835	-0,067	0,017
-506,985	-68,755	-0,120	0,034
-505,970	-200,000	0,012	0,056
-504,956	-200,000	0,005	-0,037
-503,941	-161,020	0,056	0,002
-502,926	-105,508	0,165	-0,027
-501,912	-58,182	0,072	-0,023
-500,897	800,000	-0,026	0,080
-499,883	306,277	-0,087	-0,119
-498,868	275,665	-0,041	-0,054
-497,853	-71,153	0,125	0,034
-496,839	-200,000	-0,005	0,145
-495,824	45,022	-0,017	-0,012
-494,810	125,929	0,079	0,073
-493,795	-200,000	-0,005	0,027
-492,781	-87,414	0,053	0,012
-491,766	-200,000	0,006	0,068
-490,751	-200,000	-0,016	0,098
-489,737	-200,000	-0,009	0,119
-488,722	-126,145	0,102	0,011
-487,708	-69,997	0,053	0,015
-486,693	-19,001	0,089	0,040
-485,678	800,000	-0,019	-0,050
-484,664	-198,422	0,064	0,000
-483,649	-101,831	-0,075	0,013
-482,635	653,128	0,020	-0,037
-481,620	-200,000	0,021	-0,116
-480,605	-97,816	0,084	-0,016
-479,591	608,683	0,046	-0,084
-478,576	-200,000	-0,016	-0,116
-477,562	56,860	-0,050	0,036
-476,547	-39,317	-0,029	-0,011
-475,532	-34,565	-0,059	0,024
-474,518	-66,082	0,098	-0,028
-473,503	238,296	0,153	-0,186
-472,489	-200,000	0,024	0,088
-471,474	-200,000	0,022	-0,080
-470,459	2,822	-0,053	-0,028
-469,445	800,000	-0,079	0,228
-468,430	628,909	0,043	-0,079
-467,416	-200,000	0,008	0,057
-466,401	-200,000	0,003	0,054
-465,386	-104,992	0,075	0,012
-464,372	-200,000	-0,007	-0,043
-463,357	740,568	0,009	0,019
-462,343	-200,000	-0,025	-0,092
-461,328	90,594	0,104	0,085
-460,313	181,037	-0,091	0,098
-459,299	-155,206	0,040	0,002
-458,284	-200,000	-0,000	0,055
-457,270	-165,427	0,092	-0,003
-456,255	188,617	-0,072	-0,079
-455,241	-69,276	-0,089	-0,025
-454,226	-51,590	0,183	0,062
-453,211	-200,000	0,001	0,041
-452,197	625,004	0,036	-0,066
-451,182	800,000	0,030	-0,071
-450,168	63,658	0,128	-0,093
-449,153	-200,000	-0,008	-0,033
-448,138	800,000	0,058	-0,119
-447,124	-200,000	-0,028	0,095
-446,109	-40,730	-0,092	0,035
-445,095	558,741	-0,018	0,033
-444,080	-200,000	0,005	0,026
-443,065	180,464	0,048	0,052
-442,051	30,933	-0,158	-0,098
-441,036	-128,238	0,148	-0,015
-440,022	-200,000	-0,021	-0,076
-439,007	-67,507	0,026	0,007
-437,992	26,800	0,066	-0,040
-436,978	-200,000	-0,039	0,169
-435,963	110,147	-0,080	0,070
-434,949	-124,716	-0,064	0,007
-433,934	-105,524	-0,094	0,015
-432,919	800,000	-0,033	-0,078
-431,905	435,968	0,125	0,199
-430,890	-39,817	0,097	0,037
-429,876	-200,000	-0,010	0,083
-428,861	800,000	0,035	0,095
-427,846	-130,829	-0,174	0,017
-426,832	-94,890	0,145	-0,028
-425,817	88,023	-0,042	0,034
-424,803	-112,082	0,061	0,009
-423,788	-98,509	0,085	0,016
-422,773	693,424	-0,017	0,033
-421,759	306,359	0,061	0,083
-420,744	-64,046	-0,053	-0,016
-419,730	800,000	0,050	-0,125
-418,715	-104,310	-0,090	0,015
-417,701	-87,199	-0,050	0,011
-416,686	-200,000	0,033	0,161
-415,671	-200,000	-0,017	0,134
-414,657	-111,226	0,071	0,010
-413,642	800,000	0,011	0,030
-412,628	116,186	-0,050	-0,044
-411,613	282,687	-0,053	-0,069
-410,598	-200,000	0,002	-0,076
-409,584	188,727	0,062	-0,067
-408,569	800,000	0,065	0,161
-407,555	-200,000	0,008	0,057
-406,540	-74,440	-0,120	0,031
-405,525	-97,761	0,033	0,006
-404,511	-166,437	-0,157	0,005
-403,496	-30,697	-0,040	0,017
-402,482	33,400	-0,083	0,052
-401,467	19,610	0,088	-0,051
-400,452	-106,460	0,110	-0,018
-399,438	-93,457	0,069	0,014
-398,423	-200,000	-0,010	0,157
-397,409	-200,000	-0,008	-0,070
-396,394	170,009	-0,061	-0,063
-395,379	-34,595	0,069	-0,027
-394,365	-38,713	0,059	0,023
-393,350	739,696	-0,026	0,051
-392,336	5,604	0,084	-0,045
-391,321	-153,317	0,122	0,006
-390,306	-49,028	-0,068	-0,024
-389,292	800,000	-0,012	-0,026
-388,277	-200,000	-0,019	-0,137
-387,263	531,713	0,066	0,114
-386,248	643,748	0,056	-0,104
-385,233	630,051	0,053	0,098
-384,219	-185,476	-0,056	-0,001
-383,204	-200,000	0,002	0,062
-382,190	-80,543	0,183	0,044
-381,175	800,000	0,029	-0,091
-380,160	260,371	0,077	0,097
-379,146	74,044	-0,110	0,084
-378,131	559,399	-0,070	0,123
-377,117	54,702	-0,058	-0,040
-376,102	-30,795	-0,140	-0,057
-375,088	-200,000	-0,029	-0,186
-374,073	-90,025	0,060	-0,013
-373,058	-200,000	-0,015	0,157
-372,044	122,135	0,102	0,092
-371,029	-200,000	-0,010	0,043
-370,015	137,401	-0,040	0,038
-369,000	-38,109	0,095	-0,036
-367,985	-200,000	-0,032	-0,159
-366,971	-200,000	0,035	-0,122
-365,956	-89,866	-0,146	0,031
-364,942	64,102	-0,058	0,042
-363,927	83,651	0,090	-0,071
-362,912	361,232	-0,039	0,057
-361,898	-200,000	-0,033	-0,118
-360,883	464,480	-0,081	-0,131
-359,869	800,000	0,056	-0,116
-358,854	-68,547	-0,066	0,019
-357,839	26,707	-0,052	-0,031
-356,825	-200,000	-0,029	0,096
-355,810	33,266	-0,058	0,036
-354,796	-178,771	0,083	0,001
-353,781	-200,000	0,002	-0,043
-352,766	-200,000	-0,017	-0,057
-351,752	-58,251	-0,095	-0,030
-350,737	-169,569	0,035	0,001
-349,723	-200,000	0,010	0,034
-348,708	137,141	0,047	0,044
-347,693	-200,000	-0,005	-0,107
-346,679	45,125	0,085	-0,057
-345,664	274,042	-0,040	-0,051
-344,650	336,818	0,014	0,020
-343,635	-200,000	-0,007	-0,092
-342,620	1,430	-0,155	0,081
-341,606	75,150	0,016	0,012
-340,591	800,000	0,045	-0,125
-339,577	125,333	-0,116	-0,106
-338,562	-49,224	0,066	0,023
-337,548	-30,658	0,153	-0,063
-336,533	85,793	0,147	-0,117
-335,518	275,767	0,128	0,165
-334,504	-29,799	-0,045	-0,018
-333,489	-200,000	0,019	-0,099
-332,475	-97,625	-0,094	-0,017
-331,460	159,599	-0,030	-0,030
-330,445	48,405	-0,045	-0,030
-329,431	63,805	0,076	0,055
-328,416	-200,000	0,005	-0,081
-327,402	19,698	0,105	-0,061
-326,387	-32,411	0,035	0,014
-325,372	124,057	-0,083	-0,075
-324,358	-96,222	0,162	0,031
-323,343	460,956	-0,058	-0,094
-322,329	-30,592	0,045	0,018
-321,314	-62,899	-0,061	0,018
-320,299	12,713	-0,098	-0,055
-319,285	-31,070	-0,057	0,023
-318,270	-121,058	-0,109	0,013
-317,256	-61,422	-0,071	-0,021
-316,241	800,000	-0,077	-0,157
-315,226	331,945	0,042	0,059
-314,212	-200,000	-0,017	0,081
-313,197	-200,000	-0,018	0,145
-312,183	-200,000	-0,004	-0,157
-311,168	240,421	-0,030	-0,036
-310,153	74,064	-0,167	-0,127
-309,139	-68,113	-0,047	0,013
-308,124	31,668	-0,028	-0,018
-307,110	-200,000	-0,006	0,039
-306,095	800,000	0,044	0,097
-305,080	181,686	-0,006	-0,006
-304,066	-75,279	-0,148	0,038
-303,051	-200,000	-0,009	-0,104
-302,037	265,191	-0,106	-0,134
-301,022	314,406	-0,023	0,032
-300,008	-200,000	-0,020	0,123
-298,993	-200,000	-0,006	0,179
-297,978	-200,000	-0,017	0,111
-296,964	800,000	-0,052	0,126
-295,949	-157,085	-0,049	-0,002
-294,935	-30,012	-0,056	0,023
-293,920	61,798	-0,071	-0,051
-292,905	-0,517	-0,111	0,057
-291,891	348,000	0,110	0,157
-290,876	89,782	0,118	0,096
-289,862	-200,000	-0,018	0,100
-288,847	-93,566	0,052	0,010
-287,832	57,656	-0,118	-0,083
-286,818	-200,000	0,001	0,071
-285,803	13,655	0,043	0,024
-284,789	172,541	0,046	0,048
-283,774	181,849	0,095	0,102
-282,759	-41,298	0,058	-0,021
-281,745	800,000	0,048	0,151
-280,730	-200,000	-0,022	-0,100
-279,716	32,006	-0,063	-0,039
-278,701	-200,000	0,009	-0,035
-277,686	-36,062	0,148	0,057
-276,672	-200,000	-0,013	0,073
-275,657	84,753	0,182	0,144
-274,643	-51,573	-0,130	0,044
-273,628	-99,939	-0,016	0,003
-272,613	-200,000	0,001	-0,061
-271,599	-200,000	0,010	0,111
-270,584	-5,345	-0,074	-0,037
-269,570	800,000	-0,024	0,050
-268,555	94,173	-0,019	0,015
-267,540	331,069	-0,023	-0,032
-266,526	40,110	-0,095	-0,062
-265,511	-75,691	0,050	-0,013
-264,497	800,000	0,033	0,089
-263,482	399,178	-0,067	0,102
-262,467	-159,562	0,100	-0,004
-261,453	22,015	-0,025	-0,015
-260,438	215,959	0,044	-0,051
-259,424	88,612	-0,096	-0,077
-258,409	800,000	-0,059	-0,145
-257,395	-141,092	-0,027	0,002
-256,380	630,065	0,048	0,088
-255,365	119,088	-0,028	0,025
-254,351	344,173	-0,016	0,023
-253,336	-5,777	-0,172	-0,085
-252,322	364,232	-0,101	-0,148
-251,307	-63,729	0,037	-0,011
-250,292	8,845	-0,013	-0,007
-249,278	800,000	0,028	-0,078
-248,263	-200,000	-0,001	0,012
-247,249	-200,000	0,016	0,119
-246,234	49,498	-0,068	0,046
-245,219	-11,354	-0,067	-0,032
-244,205	89,330	-0,123	0,099
-243,190	16,442	0,038	-0,022
-242,176	-200,000	0,002	0,016
-241,161	158,594	0,032	-0,032
-240,146	333,389	-0,114	0,160
-239,132	85,961	-0,038	-0,030
-238,117	134,214	-0,060	0,056
-237,103	800,000	0,051	-0,146
-236,088	163,400	-0,097	-0,099
-235,073	800,000	0,044	0,139
-234,059	-102,492	0,090	-0,015
-233,044	-92,098	0,032	-0,006
-232,030	2,746	0,073	-0,038
-231,015	-21,607	-0,055	-0,024
-230,000	758,263	-0,090	-0,177
-228,986	6,090	0,033	-0,018
-227,971	-82,678	0,179	-0,042
-226,957	-200,000	-0,032	-0,103
-225,942	-200,000	0,000	0,006
-224,927	618,603	-0,075	-0,136
-223,913	47,947	-0,030	0,020
-222,898	296,202	-0,114	0,151
-221,884	344,764	0,067	0,095
-220,869	-200,000	0,002	-0,046
-219,855	-134,549	0,072	-0,006
-218,840	7,427	0,190	0,102
-217,825	-49,510	-0,148	0,051
-216,811	800,000	0,018	0,041
-215,796	-200,000	-0,039	-0,151
-214,782	-200,000	-0,034	-0,115
-213,767	800,000	0,020	0,049
-212,752	-95,522	0,080	0,015
-211,738	3,540	-0,060	0,031
-210,723	-188,746	-0,108	-0,001
-209,709	-200,000	-0,037	-0,125
-208,694	120,060	-0,065	-0,058
-207,679	-200,000	-0,008	0,053
-206,665	278,751	-0,052	0,067
-205,650	123,307	0,054	0,049
-204,636	-200,000	-0,006	0,069
-203,621	218,799	-0,032	-0,037
-202,606	102,294	0,014	-0,012
-201,592	-200,000	0,026	-0,193
-200,577	313,272	0,103	-0,140
-199,563	-200,000	0,005	0,019
-198,548	-200,000	-0,004	-0,022
-197,533	57,597	0,033	0,023
-196,519	-92,900	-0,094	0,019
-195,504	48,000	-0,027	0,018
-194,490	10,778	-0,128	-0,070
-193,475	-200,000	0,027	0,135
-192,460	-200,000	-0,020	-0,120
-191,446	377,850	-0,042	0,063
-190,431	-84,353	0,064	-0,014
-189,417	57,444	0,043	0,030
-188,402	-200,000	0,015	0,061
-187,387	782,983	-0,021	-0,042
-186,373	594,459	0,019	-0,035
-185,358	-52,805	-0,228	-0,075
-184,344	-169,458	0,102	0,003
-183,329	800,000	-0,051	-0,105
-182,315	172,206	-0,052	0,053
-181,300	111,559	-0,070	-0,061
-180,285	-4,463	-0,110	-0,055
-179,271	39,103	-0,110	0,071
-178,256	158,012	0,047	0,047
-177,242	-67,930	0,057	0,016
-176,227	-200,000	0,012	0,080
-175,212	-193,435	0,010	0,000
-174,198	92,427	-0,020	0,016
-173,183	84,645	-0,041	-0,033
-172,169	800,000	-0,058	-0,145
-171,154	796,484	-0,064	-0,128
-170,139	16,231	0,069	-0,039
-169,125	800,000	0,048	0,151
-168,110	-200,000	0,023	0,138
-167,096	120,315	-0,115	-0,103
-166,081	-81,578	-0,050	0,012
-165,066	86,903	-0,078	0,062
-164,052	-103,108	0,084	-0,014
-163,037	800,000	0,038	-0,119
-162,023	305,265	0,005	0,007
-161,008	128,664	-0,057	-0,052
-159,993	35,010	0,092	0,058
-158,979	-148,096	-0,091	0,005
-157,964	-177,797	0,074	-0,001
-156,950	633,709	-0,040	-0,074
-155,935	-59,604	0,069	0,021
-154,920	-200,000	0,019	0,159
-153,906	800,000	0,007	-0,020
-152,891	-102,194	0,145	0,025
-151,877	-200,000	-0,005	0,074
-150,862	-141,804	0,089	-0,006
-149,847	800,000	0,037	-0,101
-148,833	-200,000	-0,012	-0,085
-147,818	132,913	-0,038	0,036
-146,804	586,342	-0,036	0,063
-145,789	177,188	0,093	-0,097
-144,775	-161,252	-0,087	0,003
-143,760	800,000	0,024	-0,049
-142,745	-200,000	0,008	-0,128
-141,731	-49,128	0,108	0,037
-140,716	-200,000	0,003	-0,075
-139,702	-200,000	0,027	-0,103
-138,687	-85,337	0,038	0,008
-137,672	75,856	-0,051	0,039
-136,658	-14,084	0,103	0,048
-135,643	-200,000	-0,026	0,147
-134,629	466,075	-0,034	0,055
-133,614	-200,000	-0,002	0,059
-132,599	-58,926	0,109	-0,034
-131,585	342,682	-0,044	-0,062
-130,570	104,933	-0,125	0,106
-129,556	800,000	-0,039	-0,116
-128,541	800,000	-0,045	-0,115
-127,526	618,308	-0,008	0,015
-126,512	800,000	-0,030	0,075
-125,497	-200,000	0,026	-0,134
-124,483	800,000	0,045	-0,136
-123,468	-74,666	-0,092	0,024
-122,453	-73,407	-0,017	0,004
-121,439	50,517	-0,116	0,079
-120,424	-200,000	-0,017	0,103
-119,410	572,420	-0,053	0,094
-118,395	800,000	0,033	0,095
-117,380	-200,000	0,001	-0,003
-116,366	143,328	0,093	0,089
-115,351	-84,428	-0,059	-0,013
-114,337	-200,000	-0,016	0,093
-113,322	-200,000	-0,008	-0,028
-112,307	-143,708	0,139	-0,009
-111,293	71,318	-0,076	0,057
-110,278	97,003	-0,041	-0,034
-109,264	-27,531	-0,053	-0,022
-108,249	-176,119	0,038	-0,001
-107,234	-153,036	-0,170	0,008
-106,220	302,991	0,027	0,036
-105,205	-200,000	-0,009	0,096
-104,191	60,095	0,031	0,022
-103,176	-139,497	0,080	0,006
-102,162	128,952	-0,079	-0,073
-101,147	745,321	0,034	0,065
-100,132	2,969	0,007	0,004
-99,118	-122,533	0,062	-0,007
-98,103	800,000	0,043	0,115
-97,089	234,157	0,094	-0,111
-96,074	16,237	-0,047	0,027
-95,059	-172,005	-0,097	0,002
-94,045	-200,000	0,042	0,141
-93,030	20,101	0,045	-0,026
-92,016	800,000	-0,049	-0,113
-91,001	-49,174	0,059	-0,020
-89,986	371,598	0,104	-0,153
-88,972	62,118	0,196	0,140
-87,957	-136,138	-0,064	0,005
-86,943	-200,000	-0,028	0,146
-85,928	-200,000	-0,009	-0,040
-84,913	-200,000	-0,030	-0,133
-83,899	-200,000	-0,013	0,080
-82,884	430,974	-0,048	0,075
-81,870	326,667	-0,014	-0,020
-80,855	83,250	0,063	-0,049
-79,840	55,848	-0,077	0,053
-78,826	571,600	-0,021	0,036
-77,811	357,130	-0,087	-0,126
-76,797	-200,000	-0,001	0,060
-75,782	56,449	0,041	-0,028
-74,767	-129,794	0,039	-0,004
-73,753	-200,000	-0,007	0,025
-72,738	-200,000	0,016	-0,060
-71,724	85,282	-0,076	0,060
-70,709	800,000	0,034	0,104
-69,694	-200,000	-0,011	0,097
-68,680	-200,000	-0,016	0,098
-67,665	-56,907	0,145	0,046
-66,651	35,502	-0,032	0,020
-65,636	-200,000	-0,009	-0,081
-64,622	800,000	-0,042	0,091
-63,607	-41,241	-0,047	-0,017
-62,592	-200,000	-0,008	-0,037
-61,578	220,117	-0,010	-0,011
-60,563	-24,584	-0,070	0,030
-59,549	-73,462	-0,067	0,017
-58,534	85,927	-2,686	-2,118
-57,519	-69,516	0,370	-0,101
-56,505	800,000	-1,784	-5,414
-55,490	470,861	1,317	2,132
-54,476	800,000	5,087	11,110
-53,461	-200,000	22,738	348,344
-52,446	800,000	764,166	2271,507
-51,432	500,418	1645,436	2732,592
-50,417	93,795	1603,700	1302,689
-49,403	61,889	1259,832	898,980
-48,388	21,542	1011,637	588,643
-47,373	18,731	979,208	560,531
-46,359	12,120	966,195	531,568
-45,344	7,909	963,099	516,133
-44,330	8,305	960,767	516,150
-43,315	7,383	958,991	512,182
-42,300	7,375	957,917	511,561
-41,286	7,287	956,874	510,700
-40,271	7,304	956,108	510,326
-39,257	7,323	955,201	509,883
-38,242	7,379	954,063	509,436
-37,227	7,290	953,483	508,817
-36,213	7,267	952,598	508,251
-35,198	7,317	951,737	507,932
-34,184	7,285	951,115	507,478
-33,169	7,265	950,228	506,922
-32,154	7,373	949,218	506,708
-31,140	7,234	948,577	505,898
-30,125	7,330	947,662	505,701
-29,111	7,322	946,941	505,269
-28,096	7,359	946,299	505,024
-27,082	7,365	945,687	504,698
-26,067	7,330	944,903	504,147
-25,052	7,200	944,146	503,308
-24,038	7,236	943,221	502,911
-23,023	7,232	942,794	502,649
-22,009	7,322	941,895	502,439
-20,994	7,284	941,528	502,100
-19,979	7,319	940,973	501,897
-18,965	7,293	940,380	501,476
-17,950	7,275	939,675	501,024
-16,936	7,321	938,751	500,656
-15,921	7,284	938,259	500,258
-14,906	7,126	937,758	499,471
-13,892	7,179	937,043	499,237
-12,877	7,186	936,432	498,913
-11,863	7,127	935,916	498,434
-10,848	7,112	935,467	498,126
-9,833	7,233	934,849	498,161
-8,819	7,264	934,028	497,800
-7,804	7,226	933,386	497,317
-6,790	7,196	932,869	496,929
-5,775	7,325	932,388	497,059
-4,760	7,209	931,792	496,356
-3,746	7,263	931,243	496,213
-2,731	7,119	930,455	495,323
-1,717	7,076	929,707	494,770
-0,702	7,091	928,904	494,369
0,313	6,896	928,548	494,314
1,327	10,465	926,006	504,097
2,342	19,170	774,543	444,294
3,356	14,580	444,259	247,965
4,371	-11,354	310,277	145,823
5,386	-14,927	292,780	134,005
6,400	-16,888	286,728	129,297
7,415	-17,267	283,975	127,675
8,429	-18,282	282,181	125,875
9,444	-18,123	281,294	125,621
10,459	-18,196	280,501	125,186
11,473	-18,167	280,009	124,983
12,488	-18,315	279,449	124,580
13,502	-18,327	279,025	124,369
14,517	-18,169	278,433	124,244
15,531	-18,491	278,068	123,764
16,546	-18,585	277,676	123,489
17,561	-18,543	277,231	123,320
18,575	-18,387	276,923	123,319
19,590	-18,404	276,545	123,124
20,604	-18,314	276,109	123,004
21,619	-18,619	275,887	122,606
22,634	-18,354	275,455	122,653
23,648	-18,496	275,256	122,419
24,663	-18,466	274,972	122,311
25,677	-18,441	274,719	122,211
26,692	-18,440	274,401	122,060
27,707	-18,340	274,203	122,054
28,721	-18,518	273,832	121,712
29,736	-18,518	273,559	121,579
30,750	-18,462	273,395	121,548
31,765	-18,533	273,228	121,396
32,780	-18,486	272,746	121,215
33,794	-18,436	272,658	121,212
34,809	-18,661	272,385	120,870
35,823	-18,617	272,083	120,767
36,838	-18,424	271,839	120,827
37,853	-18,361	271,468	120,709
38,867	-18,586	271,378	120,450
39,882	-18,541	271,202	120,403
40,896	-18,424	270,876	120,356
41,911	-18,376	270,610	120,271
42,926	-18,329	270,205	120,124
43,940	-18,461	270,198	119,988
44,955	-18,612	269,869	119,692
45,969	-18,455	269,494	119,659
46,984	-18,480	269,573	119,661
47,999	-18,452	269,192	119,507
49,013	-18,441	268,993	119,419
50,028	-18,291	268,699	119,415
51,042	-18,459	268,527	119,173
52,057	-18,350	268,434	119,222
53,071	-18,413	268,087	118,999
54,086	-18,393	267,827	118,891
55,101	-18,382	267,741	118,852
56,115	-18,274	267,436	118,805
57,130	-18,388	267,404	118,677
58,144	-18,444	266,892	118,388
59,159	-18,335	266,769	118,422
60,174	-18,444	266,506	118,195
61,188	-18,333	266,149	118,127
62,203	-18,179	265,974	118,179
63,217	-18,340	265,908	117,993
64,232	-18,319	265,638	117,881
65,247	-18,280	265,370	117,788
66,261	-18,296	265,165	117,672
67,276	-18,276	264,854	117,541
68,290	-18,220	264,616	117,476
69,305	-18,324	264,454	117,299
70,320	-18,346	264,179	117,147
71,334	-18,433	264,088	117,018
72,349	-18,354	263,722	116,917
73,363	-18,222	263,438	116,898
74,378	-18,257	263,379	116,831
75,393	-18,319	263,175	116,674
76,407	-18,441	262,959	116,459
77,422	-18,303	262,638	116,429
78,436	-18,086	262,346	116,484
79,451	-18,150	262,128	116,320
80,466	-18,547	261,937	115,870
81,480	-18,326	261,686	115,946
82,495	-18,402	261,559	115,811
83,509	-18,437	261,453	115,723
84,524	-18,383	261,146	115,624
85,539	-18,358	260,947	115,548
86,553	-18,352	260,684	115,427
87,568	-18,185	260,420	115,448
88,582	-18,387	260,292	115,202
89,597	-18,288	260,159	115,220
90,611	-18,256	259,992	115,165
91,626	-18,425	259,659	114,858
92,641	-18,476	259,481	114,724
93,655	-18,276	259,149	114,742
94,670	-18,343	259,046	114,628
95,684	-18,373	258,883	114,519
96,699	-18,326	258,742	114,488
97,714	-18,300	258,320	114,314
98,728	-18,363	258,234	114,210
99,743	-18,412	258,118	114,106
100,757	-18,237	257,867	114,138
101,772	-18,374	257,748	113,955
102,787	-18,277	257,237	113,804
103,801	-18,280	257,150	113,752
104,816	-18,296	257,057	113,687
105,830	-18,205	256,739	113,616
106,845	-18,258	256,670	113,529
107,860	-18,226	256,407	113,430
108,874	-18,338	256,130	113,200
109,889	-18,431	256,042	113,070
110,903	-18,238	255,744	113,096
111,918	-18,215	255,527	113,010
112,933	-18,335	255,382	112,832
113,947	-18,328	255,264	112,776
114,962	-18,095	254,902	112,807
115,976	-18,245	254,688	112,573
116,991	-18,341	254,580	112,433
118,006	-18,159	254,359	112,482
119,020	-18,437	254,359	112,232
120,035	-18,142	254,138	112,379
121,049	-18,362	253,874	112,062
122,064	-18,298	253,738	112,048
123,079	-18,172	253,541	112,059
124,093	-18,084	253,339	112,035
125,108	-18,394	253,088	111,648
126,122	-18,300	252,801	111,592
127,137	-18,263	252,678	111,560
128,151	-18,193	252,472	111,518
129,166	-18,187	252,296	111,437
130,181	-18,349	252,100	111,201
131,195	-18,341	251,977	111,144
132,210	-18,402	251,686	110,953
133,224	-18,060	251,447	111,130
134,239	-18,134	251,172	110,935
135,254	-18,180	251,046	110,830
136,268	-18,106	250,873	110,808
137,283	-18,032	250,563	110,723
138,297	-18,307	250,533	110,467
139,312	-18,264	250,237	110,363
140,327	-18,275	249,955	110,219
141,341	-18,176	249,914	110,276
142,356	-18,100	249,850	110,302
143,370	-18,049	249,574	110,213
144,385	-18,111	249,316	110,037
145,400	-18,150	249,021	109,864
146,414	-18,060	248,936	109,893
147,429	-18,080	248,780	109,797
148,443	-18,201	248,760	109,677
149,458	-18,372	248,523	109,418
150,473	-18,262	248,321	109,412
151,487	-18,060	247,885	109,380
152,502	-18,239	247,878	109,217
153,516	-18,276	247,726	109,109
154,531	-18,125	247,510	109,131
155,546	-18,121	247,146	108,964
156,560	-18,035	247,238	109,067
157,575	-18,012	246,854	108,906
158,589	-18,228	246,799	108,692
159,604	-18,029	246,501	108,717
160,619	-18,077	246,343	108,598
161,633	-18,258	246,125	108,342
162,648	-18,067	246,048	108,457
163,662	-17,994	245,904	108,445
164,677	-18,099	245,825	108,313
165,692	-17,979	245,505	108,262
166,706	-18,005	245,428	108,196
167,721	-17,994	245,155	108,075
168,735	-18,216	245,160	107,884
169,750	-18,083	244,962	107,898
170,764	-17,939	244,736	107,907
171,779	-18,103	244,665	107,731
172,794	-17,991	244,306	107,656
173,808	-18,108	244,113	107,464
174,823	-18,128	244,044	107,408
175,837	-17,983	243,837	107,427
176,852	-18,065	243,703	107,290
177,867	-18,044	243,686	107,291
178,881	-18,150	243,452	107,091
179,896	-18,003	243,246	107,112
180,910	-18,021	243,067	107,008
181,925	-18,102	242,875	106,848
182,940	-17,920	242,580	106,858
183,954	-17,895	242,446	106,810
184,969	-17,954	242,423	106,742
185,983	-18,124	242,216	106,502
186,998	-18,024	242,020	106,488
188,013	-17,958	241,850	106,457
189,027	-18,005	241,606	106,303
190,042	-18,111	241,581	106,195
191,056	-17,819	241,437	106,361
192,071	-18,057	241,148	106,030
193,086	-17,887	241,031	106,107
194,100	-17,957	240,785	105,933
195,115	-17,808	240,522	105,928
196,129	-17,946	240,436	105,770
197,144	-17,852	240,159	105,715
198,159	-17,996	239,968	105,505
199,173	-17,858	239,867	105,562
200,188	-17,850	239,641	105,460
201,202	-17,694	239,455	105,494
202,217	-17,892	239,275	105,246
203,232	-17,909	239,150	105,168
204,246	-17,940	238,854	105,003
205,261	-17,896	239,012	105,099
206,275	-16,074	239,384	106,722
207,290	-10,965	241,224	111,679
208,304	-4,805	243,165	117,597
209,319	-2,548	243,493	119,587
210,334	-1,897	243,708	120,213
211,348	-1,222	243,820	120,808
212,363	-0,732	243,756	121,165
213,377	-0,175	243,839	121,649
214,392	0,376	243,867	122,101
215,407	0,811	244,007	122,515
216,421	0,824	243,727	122,374
217,436	1,092	243,559	122,497
218,450	0,959	243,437	122,316
219,465	0,825	243,456	122,206
220,480	1,026	243,248	122,254
221,494	0,848	242,916	121,932
222,509	0,595	242,727	121,621
223,523	0,468	242,509	121,398
224,538	0,326	242,334	121,185
225,553	0,343	242,071	121,056
226,567	0,550	241,829	121,091
227,582	0,425	241,777	120,954
228,596	0,338	241,774	120,872
229,611	0,589	241,571	120,961
230,626	0,340	241,334	120,631
231,640	0,433	241,027	120,542
232,655	0,302	241,013	120,419
233,669	0,274	240,783	120,271
234,684	0,474	240,596	120,327
235,699	0,349	240,534	120,185
236,713	0,295	240,468	120,098
237,728	0,507	240,249	120,148
238,742	0,518	239,950	119,996
239,757	0,375	239,859	119,826
240,772	0,478	239,722	119,829
241,786	0,412	239,669	119,739
242,801	0,366	239,452	119,583
243,815	0,374	239,292	119,499
244,830	0,310	239,240	119,411
245,844	0,380	238,848	119,261
246,859	0,257	238,856	119,156
247,874	0,365	238,622	119,115
248,888	0,306	238,498	118,996
249,903	0,418	238,217	118,933
250,917	0,451	238,173	118,927
251,932	0,511	238,077	118,916
252,947	0,520	237,827	118,788
253,961	0,544	237,713	118,739
254,976	0,472	237,535	118,583
255,990	0,407	237,414	118,461
257,005	0,472	237,325	118,457
258,020	0,289	237,241	118,260
259,034	0,525	237,057	118,343
260,049	0,412	236,901	118,166
261,063	0,404	236,689	118,043
262,078	0,562	236,445	118,036
263,093	0,355	236,308	117,794
264,107	0,705	236,104	117,957
265,122	0,493	236,076	117,766
266,136	0,509	235,841	117,650
267,151	0,404	235,845	117,560
268,166	0,643	235,514	117,571
269,180	0,389	235,415	117,313
270,195	0,387	235,313	117,250
271,209	0,305	235,155	117,097
272,224	0,560	234,895	117,156
273,239	0,402	234,866	117,008
274,253	0,403	234,802	116,966
275,268	0,533	234,478	116,895
276,282	0,362	234,341	116,684
277,297	0,641	234,209	116,825
278,312	0,423	234,042	116,561
279,326	0,414	233,985	116,516
280,341	0,418	233,859	116,446
281,355	0,518	233,502	116,335
282,370	0,457	233,518	116,285
283,384	0,561	233,312	116,253
284,399	0,418	233,157	116,055
285,414	0,283	233,192	115,957
286,428	0,550	232,833	115,975
287,443	0,284	232,913	115,799
288,457	0,426	232,552	115,718
289,472	0,803	232,277	115,862
290,487	0,500	232,456	115,707
291,501	0,402	232,172	115,480
292,516	0,451	231,925	115,384
293,530	0,644	231,805	115,463
294,545	0,597	231,712	115,370
295,560	0,578	231,680	115,329
296,574	0,419	231,446	115,081
297,589	0,535	231,313	115,093
298,603	0,490	231,145	114,965
299,618	0,409	231,142	114,891
300,633	0,557	230,965	114,906
301,647	0,686	230,765	114,895
302,662	0,586	230,653	114,752
303,676	0,855	230,413	114,828
304,691	0,624	230,228	114,550
305,706	0,602	230,168	114,493
306,720	0,464	230,077	114,332
307,735	0,739	229,876	114,431
308,749	0,809	229,697	114,385
309,764	0,716	229,476	114,194
310,779	0,570	229,453	114,062
311,793	0,692	229,147	113,992
312,808	0,788	229,220	114,091
313,822	1,004	228,928	114,099
314,837	0,848	228,807	113,910
315,852	0,653	228,685	113,692
316,866	0,575	228,590	113,575
317,881	0,854	228,365	113,665
318,895	0,913	228,214	113,624
319,910	0,896	228,037	113,513
320,925	0,740	228,039	113,386
321,939	0,775	227,782	113,274
322,954	0,942	227,651	113,325
323,968	0,804	227,547	113,159
324,983	0,874	227,412	113,135
325,997	0,787	227,202	112,954
327,012	0,836	227,019	112,890
328,027	1,003	226,998	112,995
329,041	0,619	226,810	112,604
330,056	0,625	226,700	112,544
331,070	0,838	226,484	112,585
332,085	0,853	226,347	112,519
333,100	0,928	226,078	112,431
334,114	0,847	225,930	112,287
335,129	0,828	225,863	112,230
336,143	0,834	225,722	112,154
337,158	0,960	225,614	112,185
338,173	0,865	225,521	112,057
339,187	0,741	225,379	111,884
340,202	0,903	225,040	111,827
341,216	0,813	225,055	111,757
342,231	0,764	224,922	111,644
343,246	0,876	224,858	111,686
344,260	0,959	224,592	111,605
345,275	0,918	224,527	111,533
346,289	0,874	224,400	111,427
347,304	0,984	224,381	111,489
348,319	0,951	223,937	111,235
349,333	1,048	223,833	111,245
350,348	0,867	223,814	111,091
351,362	0,948	223,804	111,136
352,377	0,861	223,527	110,925
353,392	0,995	223,467	110,984
354,406	0,831	223,259	110,749
355,421	191,341	1310,746	1372,641
356,435	153,172	1443,083	1372,472
