DTS Sentinel unit serial number:	SN410029Multiplexer serial number:	ORYXHardware model number:	OX2-SRSoftware version number:	ORYX F/W v4,00 Oryx Data Collector v3.7.2.0data status	okinstallation	B5 Nyhavnadifferential loss correction	single-endedforward channel	channel 2reverse channel	N/Adate	2023/12/13time	04:17:13forward acquisition time	300,00reverse acquisition time	0,00gamma	499,1914k internal	0,3160k external	0,3160temperature offset calibration	1,0000default loss term (dB/km)	0,3820temperature slope calibration	1,0000multiplexer offset coefficient	1,0000multiplexer slope coefficient	1,0000fibre end	0,00T internal ref (°C)	13,94T ext. ref 1 (°C)	-2,44T ext. ref 2 (°C)	-2,75length (m)	temperature (°C)	Stokes	anti-Stokes-744,400	-158,428	0,179	-0,007
-743,385	-121,323	-0,313	0,038
-742,371	-200,000	0,132	0,000
-741,356	-112,618	-0,278	0,040
-740,342	395,027	0,048	-0,074
-739,327	-137,527	-0,333	-0,027
-738,312	800,000	0,021	0,061
-737,298	-122,102	-0,349	-0,042
-736,283	24,792	0,050	0,030
-735,269	-46,489	-0,190	-0,068
-734,254	157,403	0,169	0,173
-733,239	-53,239	-0,531	-0,178
-732,225	34,517	0,264	0,169
-731,210	-200,000	-0,001	-0,006
-730,196	-94,103	0,134	0,027
-729,181	-144,652	-0,119	0,008
-728,167	109,332	0,070	-0,062
-727,152	322,760	0,057	0,080
-726,137	-3,496	-0,092	-0,047
-725,123	15,627	-0,102	-0,059
-724,108	-123,570	-0,120	0,014
-723,094	-78,522	0,042	-0,010
-722,079	-200,000	-0,007	0,088
-721,064	-7,919	0,014	0,007
-720,050	86,839	-0,127	0,103
-719,035	121,591	0,106	-0,097
-718,021	134,050	-0,062	-0,059
-717,006	-49,209	-0,094	-0,033
-715,991	-169,504	0,035	-0,001
-714,977	-73,130	-0,061	-0,016
-713,962	-32,798	-0,055	-0,023
-712,948	-21,393	0,078	0,035
-711,933	734,937	-0,034	0,068
-710,918	258,514	0,040	0,051
-709,904	628,659	-0,077	-0,144
-708,889	132,299	0,070	-0,067
-707,875	86,635	-0,013	-0,010
-706,860	800,000	-0,016	-0,039
-705,845	-115,051	0,072	-0,010
-704,831	28,895	0,074	0,046
-703,816	-94,053	0,055	-0,011
-702,802	-200,000	-0,007	-0,048
-701,787	-67,003	0,021	0,006
-700,772	800,000	0,005	-0,011
-699,758	-200,000	0,019	0,070
-698,743	69,164	0,010	0,008
-697,729	-46,263	0,067	-0,024
-696,714	-157,849	-0,065	-0,003
-695,699	781,144	-0,042	0,085
-694,685	800,000	-0,028	0,081
-693,670	505,949	-0,029	-0,050
-692,656	-160,209	-0,090	0,004
-691,641	-189,815	0,100	0,001
-690,627	-200,000	-0,035	0,143
-689,612	312,644	-0,034	-0,046
-688,597	-200,000	-0,014	-0,052
-687,583	-17,930	0,085	-0,039
-686,568	800,000	-0,021	-0,043
-685,554	-200,000	-0,021	-0,070
-684,539	680,526	0,038	-0,072
-683,524	140,142	-0,008	0,008
-682,510	68,726	-0,104	-0,078
-681,495	-60,738	0,060	0,018
-680,481	-157,617	-0,081	0,004
-679,466	45,146	-0,137	-0,093
-678,451	157,027	-0,062	0,063
-677,437	-200,000	-0,016	-0,115
-676,422	-200,000	-0,011	-0,102
-675,408	171,680	-0,193	-0,204
-674,393	-200,000	0,010	-0,083
-673,378	-200,000	0,020	-0,155
-672,364	-200,000	-0,004	-0,071
-671,349	-55,408	-0,048	-0,016
-670,335	-86,951	0,108	-0,024
-669,320	800,000	0,043	0,104
-668,305	800,000	0,011	-0,027
-667,291	800,000	-0,048	0,118
-666,276	18,566	-0,092	0,054
-665,262	-16,469	-0,131	-0,061
-664,247	-200,000	-0,001	0,050
-663,232	-11,148	-0,092	0,044
-662,218	107,032	0,066	0,057
-661,203	-200,000	0,003	-0,090
-660,189	41,368	-0,044	0,029
-659,174	-131,257	-0,055	0,005
-658,159	800,000	0,026	-0,054
-657,145	-200,000	-0,004	-0,110
-656,130	-45,233	0,136	0,049
-655,116	720,169	-0,006	0,012
-654,101	84,381	0,152	0,122
-653,086	-200,000	-0,001	0,114
-652,072	-200,000	0,020	-0,092
-651,057	-176,200	-0,152	0,003
-650,043	501,148	-0,014	0,023
-649,028	522,819	-0,035	-0,061
-648,014	-200,000	0,023	0,100
-646,999	101,733	-0,063	0,054
-645,984	-111,020	0,037	0,005
-644,970	-26,459	-0,065	0,028
-643,955	-162,804	-0,217	-0,008
-642,941	800,000	-0,079	-0,193
-641,926	792,442	0,031	0,062
-640,911	-79,781	0,105	0,026
-639,897	209,879	-0,027	0,031
-638,882	27,356	-0,040	-0,025
-637,868	117,189	0,060	-0,054
-636,853	-59,360	-0,092	-0,029
-635,838	-38,348	-0,124	0,048
-634,824	-91,955	-0,055	-0,011
-633,809	-99,983	-0,185	0,034
-632,795	800,000	0,025	0,058
-631,780	-75,888	-0,081	-0,021
-630,765	786,052	0,021	-0,043
-629,751	96,776	0,020	-0,017
-628,736	425,490	-0,053	-0,085
-627,722	-157,908	-0,042	0,002
-626,707	131,801	-0,043	0,041
-625,692	-200,000	0,007	-0,055
-624,678	68,172	-0,027	-0,020
-623,663	800,000	-0,017	0,037
-622,649	800,000	-0,013	-0,028
-621,634	-128,934	-0,043	0,004
-620,619	492,447	-0,058	0,097
-619,605	-200,000	-0,020	0,131
-618,590	-52,108	0,090	0,030
-617,576	-200,000	0,018	-0,124
-616,561	-105,592	-0,022	0,004
-615,546	-139,091	-0,059	0,005
-614,532	-200,000	0,015	-0,105
-613,517	-200,000	-0,020	0,086
-612,503	-200,000	0,003	0,011
-611,488	-200,000	0,006	0,040
-610,474	-135,626	-0,071	0,006
-609,459	800,000	-0,015	0,036
-608,444	455,146	-0,041	-0,067
-607,430	-200,000	-0,017	-0,058
-606,415	-46,276	-0,107	-0,038
-605,401	35,300	-0,121	-0,077
-604,386	-137,898	0,133	0,011
-603,371	800,000	0,036	0,107
-602,357	226,461	-0,065	0,078
-601,342	34,012	0,035	-0,022
-600,328	326,995	0,078	-0,110
-599,313	-200,000	0,017	-0,126
-598,298	800,000	0,040	0,088
-597,284	-97,164	-0,051	0,010
-596,269	-200,000	-0,004	0,041
-595,255	800,000	-0,011	-0,026
-594,240	-105,679	0,067	-0,011
-593,225	-36,666	-0,094	-0,037
-592,211	800,000	-0,059	-0,127
-591,196	800,000	-0,029	-0,062
-590,182	36,564	0,087	0,056
-589,167	152,891	-0,100	-0,100
-588,152	-93,839	-0,131	0,026
-587,138	197,966	-0,031	0,035
-586,123	800,000	0,016	0,038
-585,109	800,000	0,064	0,140
-584,094	-200,000	-0,026	0,092
-583,079	23,664	-0,083	-0,050
-582,065	693,373	-0,034	0,065
-581,050	-200,000	0,007	0,077
-580,036	41,159	-0,065	-0,043
-579,021	203,589	-0,070	0,080
-578,006	-200,000	0,001	-0,101
-576,992	18,641	0,032	0,019
-575,977	87,098	-0,082	0,066
-574,963	-200,000	0,042	0,172
-573,948	800,000	0,070	0,143
-572,934	800,000	-0,003	0,007
-571,919	356,572	0,009	0,013
-570,904	-200,000	-0,038	-0,150
-569,890	92,591	0,051	-0,042
-568,875	-7,045	0,088	-0,043
-567,861	-200,000	0,002	0,096
-566,846	173,928	0,092	0,097
-565,831	-32,473	0,079	-0,032
-564,817	-159,686	0,119	-0,005
-563,802	800,000	-0,034	-0,096
-562,788	344,124	-0,010	0,015
-561,773	156,863	0,115	0,116
-560,758	800,000	-0,090	0,198
-559,744	184,185	0,009	-0,010
-558,729	-129,136	0,081	-0,008
-557,715	-200,000	-0,038	-0,136
-556,700	-24,309	-0,078	-0,034
-555,685	-81,212	-0,138	0,033
-554,671	-91,091	0,023	-0,005
-553,656	99,152	-0,032	-0,027
-552,642	-66,352	0,222	-0,064
-551,627	-200,000	-0,033	-0,188
-550,612	-200,000	-0,041	-0,185
-549,598	-53,180	0,128	0,043
-548,583	-60,987	-0,132	0,041
-547,569	-144,280	-0,165	-0,011
-546,554	-85,087	0,135	-0,031
-545,539	800,000	0,032	-0,073
-544,525	-200,000	-0,003	0,098
-543,510	32,775	-0,096	-0,061
-542,496	-200,000	0,000	0,018
-541,481	-200,000	0,014	-0,082
-540,466	98,106	0,077	0,065
-539,452	210,569	0,025	-0,028
-538,437	245,153	0,043	0,053
-537,423	257,561	0,051	0,065
-536,408	272,753	-0,148	0,191
-535,393	-57,186	-0,089	0,028
-534,379	-200,000	0,003	-0,034
-533,364	362,375	-0,035	-0,051
-532,350	514,512	-0,057	0,098
-531,335	800,000	-0,033	-0,089
-530,321	-43,852	0,007	-0,003
-529,306	-10,240	-0,102	-0,050
-528,291	-200,000	0,003	-0,131
-527,277	-13,649	-0,161	-0,076
-526,262	-150,095	0,121	0,007
-525,248	548,648	-0,021	-0,037
-524,233	-200,000	0,006	0,026
-523,218	-200,000	-0,002	0,018
-522,204	800,000	-0,038	0,088
-521,189	107,184	-0,133	0,115
-520,175	-200,000	0,014	-0,073
-519,160	-200,000	-0,030	-0,160
-518,145	436,308	-0,051	-0,082
-517,131	-3,596	0,159	-0,080
-516,116	101,275	-0,097	0,083
-515,102	-200,000	-0,007	0,026
-514,087	289,324	-0,060	0,080
-513,072	800,000	0,011	-0,026
-512,058	-194,080	0,063	0,000
-511,043	-154,335	-0,131	0,006
-510,029	-200,000	-0,016	0,084
-509,014	270,519	-0,097	0,125
-507,999	-2,618	-0,041	0,021
-506,985	82,746	-0,038	0,030
-505,970	-53,085	0,101	-0,034
-504,956	484,012	-0,021	0,034
-503,941	-200,000	0,028	-0,117
-502,926	445,177	-0,009	0,015
-501,912	-200,000	0,010	-0,041
-500,897	800,000	0,007	0,015
-499,883	662,616	-0,029	0,054
-498,868	800,000	-0,015	0,037
-497,853	581,473	-0,035	-0,063
-496,839	7,248	0,129	-0,070
-495,824	800,000	0,032	0,080
-494,810	-179,367	-0,051	-0,001
-493,795	-200,000	0,002	0,043
-492,781	800,000	0,010	-0,027
-491,766	-200,000	-0,016	-0,135
-490,751	-200,000	0,027	-0,093
-489,737	123,853	0,087	0,080
-488,722	442,051	0,015	0,024
-487,708	338,313	0,069	0,098
-486,693	249,909	-0,151	0,188
-485,678	800,000	0,020	-0,046
-484,664	-0,033	-0,061	0,032
-483,649	-73,002	-0,008	0,002
-482,635	-200,000	0,035	0,145
-481,620	-200,000	-0,017	0,114
-480,605	87,411	0,155	0,125
-479,591	800,000	0,024	0,067
-478,576	800,000	-0,055	-0,154
-477,562	-89,676	-0,060	0,013
-476,547	-23,102	0,048	-0,021
-475,532	800,000	0,031	-0,068
-474,518	256,581	0,010	0,012
-473,503	800,000	0,046	0,104
-472,489	-14,964	0,044	0,020
-471,474	-160,598	0,015	0,001
-470,459	-4,457	-0,101	-0,051
-469,445	-200,000	-0,009	-0,030
-468,430	-31,165	-0,068	-0,028
-467,416	439,421	-0,036	-0,058
-466,401	402,508	0,074	0,113
-465,386	21,375	0,018	0,010
-464,372	50,822	0,126	-0,087
-463,357	-200,000	-0,002	-0,046
-462,343	-200,000	-0,002	-0,144
-461,328	145,966	0,081	-0,079
-460,313	-126,380	0,078	0,008
-459,299	505,560	-0,091	-0,154
-458,284	800,000	-0,063	-0,175
-457,270	-35,516	0,043	-0,017
-456,255	-200,000	-0,023	-0,083
-455,241	-113,975	-0,089	0,012
-454,226	-93,630	0,197	0,039
-453,211	800,000	-0,039	-0,092
-452,197	-51,804	0,116	0,039
-451,182	86,691	-0,058	0,047
-450,168	371,954	0,031	-0,046
-449,153	-22,852	0,055	0,024
-448,138	-89,284	-0,112	0,024
-447,124	-200,000	0,017	-0,098
-446,109	-200,000	0,027	0,122
-445,095	166,743	0,046	0,047
-444,080	-200,000	0,000	-0,026
-443,065	231,796	0,024	0,028
-442,051	248,363	-0,074	0,091
-441,036	-200,000	-0,005	0,171
-440,022	80,961	-0,014	0,011
-439,007	-68,703	0,078	-0,022
-437,992	-15,316	-0,059	0,027
-436,978	608,423	0,063	0,116
-435,963	-200,000	-0,016	0,111
-434,949	-200,000	0,022	-0,079
-433,934	41,545	-0,066	0,043
-432,919	800,000	0,049	-0,123
-431,905	263,879	-0,053	0,068
-430,890	43,496	0,025	-0,016
-429,876	419,348	0,029	-0,045
-428,861	308,498	-0,033	-0,045
-427,846	270,685	-0,032	0,041
-426,832	800,000	-0,007	0,016
-425,817	495,786	-0,018	-0,030
-424,803	-200,000	0,009	0,031
-423,788	221,993	-0,042	0,049
-422,773	-130,798	-0,158	-0,015
-421,759	-200,000	0,042	-0,193
-420,744	256,294	0,114	-0,143
-419,730	800,000	0,029	-0,061
-418,715	462,196	-0,029	-0,047
-417,701	-80,610	-0,086	0,021
-416,686	-97,216	0,148	0,028
-415,671	-200,000	-0,035	-0,137
-414,657	-70,931	0,070	0,019
-413,642	-10,051	0,053	-0,026
-412,628	167,187	-0,057	-0,059
-411,613	275,011	0,029	-0,037
-410,598	-88,427	0,072	0,015
-409,584	-94,582	0,075	0,015
-408,569	-200,000	0,002	-0,045
-407,555	-200,000	0,038	-0,143
-406,540	-12,612	-0,120	0,057
-405,525	800,000	-0,008	-0,019
-404,511	220,553	0,085	-0,099
-403,496	-43,722	-0,080	-0,029
-402,482	80,784	0,067	0,053
-401,467	-200,000	-0,002	0,043
-400,452	137,873	0,036	-0,034
-399,438	800,000	-0,054	0,117
-398,423	106,321	0,056	-0,048
-397,409	293,874	0,070	-0,094
-396,394	-200,000	-0,014	-0,051
-395,379	-63,574	0,060	-0,018
-394,365	58,585	0,092	0,066
-393,350	-141,482	-0,014	0,001
-392,336	-200,000	-0,016	-0,058
-391,321	-200,000	-0,008	-0,038
-390,306	-166,155	-0,095	-0,003
-389,292	78,901	-0,023	0,018
-388,277	-200,000	-0,019	-0,066
-387,263	40,156	0,059	-0,038
-386,248	-200,000	-0,016	0,111
-385,233	800,000	-0,036	0,079
-384,219	-32,167	0,137	-0,055
-383,204	420,469	0,058	0,091
-382,190	323,193	-0,098	-0,136
-381,175	-200,000	-0,018	-0,080
-380,160	174,213	0,115	0,121
-379,146	-200,000	-0,009	0,082
-378,131	-200,000	0,012	-0,108
-377,117	-200,000	0,047	-0,177
-376,102	800,000	-0,032	0,082
-375,088	-63,652	-0,176	0,052
-374,073	469,244	-0,113	-0,185
-373,058	115,138	0,064	-0,057
-372,044	17,474	0,054	-0,031
-371,029	800,000	-0,065	0,162
-370,015	-200,000	0,021	0,222
-369,000	275,810	0,031	-0,040
-367,985	352,886	0,118	-0,170
-366,971	233,702	-0,119	-0,142
-365,956	70,401	0,214	0,161
-364,942	-139,904	-0,018	0,001
-363,927	619,530	-0,026	-0,048
-362,912	800,000	0,022	0,059
-361,898	-200,000	-0,007	0,026
-360,883	158,822	-0,032	0,032
-359,869	322,818	0,042	-0,058
-358,854	-85,434	0,142	-0,032
-357,839	-82,088	0,055	0,013
-356,825	222,773	-0,034	-0,040
-355,810	452,384	0,024	-0,038
-354,796	33,858	0,097	-0,061
-353,781	-166,902	-0,105	0,003
-352,766	800,000	0,037	-0,108
-351,752	415,311	0,020	0,031
-350,737	505,785	0,048	0,081
-349,723	-12,742	0,146	-0,069
-348,708	76,593	0,056	0,043
-347,693	103,794	-0,072	-0,061
-346,679	-83,340	-0,105	0,024
-345,664	-118,060	0,062	-0,008
-344,650	-200,000	-0,006	-0,061
-343,635	-3,505	0,165	-0,083
-342,620	70,619	0,040	-0,030
-341,606	92,606	0,070	-0,057
-340,591	-41,115	0,054	0,020
-339,577	800,000	-0,067	-0,189
-338,562	-19,097	-0,184	0,083
-337,548	55,061	-0,103	0,072
-336,533	78,469	-0,041	0,032
-335,518	-200,000	-0,011	0,075
-334,504	21,530	0,055	0,032
-333,489	-200,000	-0,015	0,069
-332,475	-200,000	-0,017	-0,061
-331,460	68,808	-0,026	-0,019
-330,445	-200,000	0,000	0,018
-329,431	477,639	0,106	0,174
-328,416	310,130	0,124	0,169
-327,402	272,889	-0,046	-0,059
-326,387	-127,589	-0,144	0,015
-325,372	580,406	0,040	-0,071
-324,358	-39,246	0,065	0,025
-323,343	-200,000	0,009	0,101
-322,329	2,321	-0,005	0,003
-321,314	-200,000	0,016	0,092
-320,299	-200,000	-0,018	0,072
-319,285	-200,000	0,018	0,145
-318,270	-200,000	-0,015	-0,067
-317,256	218,774	-0,032	0,037
-316,241	-200,000	0,002	-0,143
-315,226	11,276	0,084	0,046
-314,212	31,312	-0,094	0,058
-313,197	315,232	0,023	-0,031
-312,183	336,060	0,049	0,069
-311,168	471,929	-0,016	-0,026
-310,153	494,550	-0,052	-0,086
-309,139	-61,823	-0,079	0,024
-308,124	-200,000	-0,015	0,081
-307,110	-22,313	-0,062	-0,027
-306,095	-40,169	0,054	0,020
-305,080	800,000	0,057	0,140
-304,066	-15,186	-0,028	0,013
-303,051	130,931	0,070	-0,065
-302,037	-13,273	0,081	-0,038
-301,022	333,779	0,017	0,024
-300,008	800,000	-0,058	0,180
-298,993	-200,000	-0,014	0,066
-297,978	-200,000	-0,005	-0,196
-296,964	-116,728	-0,092	-0,012
-295,949	800,000	-0,035	0,085
-294,935	-99,187	-0,079	0,014
-293,920	-200,000	-0,017	0,114
-292,905	-69,829	0,112	0,031
-291,891	228,813	0,107	0,127
-290,876	800,000	0,013	0,033
-289,862	-113,437	0,067	-0,009
-288,847	-56,896	-0,090	-0,029
-287,832	269,191	0,094	0,119
-286,818	52,011	-0,046	0,032
-285,803	-80,267	0,081	-0,019
-284,789	314,730	0,037	-0,051
-283,774	-200,000	0,018	0,063
-282,759	800,000	0,021	0,046
-281,745	134,492	0,029	0,027
-280,730	-140,312	0,086	-0,006
-279,716	-200,000	-0,022	-0,072
-278,701	-26,530	0,282	-0,119
-277,686	350,808	-0,017	-0,024
-276,672	210,516	0,056	0,063
-275,657	-23,592	0,088	0,038
-274,643	-200,000	-0,014	-0,061
-273,628	120,210	-0,067	-0,060
-272,613	800,000	-0,012	0,031
-271,599	-87,488	0,115	0,025
-270,584	-90,047	0,045	0,009
-269,570	-200,000	0,053	0,195
-268,555	141,095	-0,136	-0,130
-267,540	-52,322	-0,028	0,009
-266,526	375,838	-0,043	-0,064
-265,511	-200,000	0,000	0,023
-264,497	-200,000	0,020	0,164
-263,482	-27,992	0,185	0,077
-262,467	33,775	0,136	-0,085
-261,453	33,677	0,100	0,063
-260,438	-54,583	0,051	-0,017
-259,424	-59,350	0,094	0,029
-258,409	-12,428	-0,141	0,066
-257,395	-76,649	-0,055	0,014
-256,380	239,451	-0,139	0,168
-255,365	163,496	0,077	0,078
-254,351	-105,128	0,097	-0,016
-253,336	142,765	0,079	-0,076
-252,322	-91,672	0,049	-0,010
-251,307	-76,435	0,044	-0,011
-250,292	-57,602	-0,074	-0,023
-249,278	-200,000	0,031	0,110
-248,263	-0,461	-0,123	-0,063
-247,249	614,533	-0,029	0,053
-246,234	-200,000	-0,027	-0,198
-245,219	5,831	0,049	-0,026
-244,205	206,333	0,046	0,052
-243,190	-200,000	-0,007	-0,059
-242,176	73,750	0,085	-0,065
-241,161	17,382	0,052	-0,030
-240,146	-111,249	-0,133	0,019
-239,132	-200,000	0,012	-0,040
-238,117	264,343	0,117	-0,147
-237,103	-79,354	0,044	0,011
-236,088	336,800	-0,010	-0,014
-235,073	245,996	0,056	-0,068
-234,059	468,552	0,057	0,092
-233,044	-200,000	-0,024	0,085
-232,030	-200,000	0,001	-0,141
-231,015	-36,999	-0,135	0,052
-230,000	800,000	-0,049	-0,126
-228,986	98,908	-0,038	-0,032
-227,971	173,782	0,061	-0,063
-226,957	-200,000	0,009	-0,124
-225,942	-27,826	-0,019	0,008
-224,927	342,687	0,067	0,096
-223,913	472,765	0,054	0,089
-222,898	170,101	-0,111	0,115
-221,884	76,517	0,015	0,011
-220,869	-200,000	0,021	-0,069
-219,855	-200,000	0,025	0,133
-218,840	-62,493	0,114	-0,034
-217,825	9,782	-0,038	0,021
-216,811	443,950	0,021	0,034
-215,796	183,095	0,091	0,097
-214,782	172,312	0,059	-0,061
-213,767	287,181	-0,035	-0,046
-212,752	800,000	-0,021	0,057
-211,738	-136,210	-0,062	-0,005
-210,723	-136,868	-0,047	0,004
-209,709	-39,728	-0,078	-0,029
-208,694	195,314	-0,100	0,110
-207,679	-58,583	-0,043	0,013
-206,665	-22,986	-0,118	-0,051
-205,650	-49,269	0,124	0,043
-204,636	-200,000	0,019	0,092
-203,621	800,000	0,077	0,172
-202,606	336,531	0,060	-0,084
-201,592	-23,833	-0,232	-0,100
-200,577	284,001	-0,117	-0,152
-199,563	22,303	0,140	0,082
-198,548	-62,205	0,137	0,041
-197,533	-200,000	0,000	-0,079
-196,519	-200,000	0,000	-0,030
-195,504	48,480	-0,130	-0,088
-194,490	-200,000	0,013	-0,070
-193,475	-200,000	0,004	-0,062
-192,460	42,879	0,029	0,019
-191,446	-200,000	0,014	-0,061
-190,431	800,000	-0,041	0,113
-189,417	-137,804	-0,027	-0,002
-188,402	497,994	-0,072	0,120
-187,387	-56,950	0,020	-0,006
-186,373	-200,000	0,002	0,034
-185,358	-128,116	-0,086	-0,009
-184,344	320,403	0,055	-0,075
-183,329	-35,573	-0,122	0,047
-182,315	-150,125	0,034	-0,002
-181,300	140,152	-0,036	-0,034
-180,285	250,070	0,044	-0,054
-179,271	800,000	-0,081	0,194
-178,256	286,960	0,026	-0,033
-177,242	800,000	-0,039	-0,087
-176,227	-200,000	-0,000	0,062
-175,212	800,000	0,011	0,035
-174,198	151,676	0,078	-0,077
-173,183	9,532	-0,122	-0,066
-172,169	-91,695	0,110	-0,022
-171,154	-200,000	-0,013	-0,073
-170,139	51,540	0,076	-0,052
-169,125	-110,067	-0,113	0,017
-168,110	295,826	-0,045	-0,060
-167,096	21,033	-0,035	-0,020
-166,081	-200,000	-0,016	0,078
-165,066	141,790	0,004	0,004
-164,052	-117,135	0,079	0,010
-163,037	-155,478	-0,053	-0,002
-162,023	667,315	-0,092	0,172
-161,008	-9,058	0,050	0,024
-159,993	-153,230	-0,084	0,004
-158,979	179,726	-0,069	0,073
-157,964	-200,000	-0,036	-0,164
-156,950	-200,000	-0,019	-0,154
-155,935	-63,371	0,055	-0,016
-154,920	86,610	0,033	0,027
-153,906	-19,261	0,074	-0,033
-152,891	81,160	0,007	0,006
-151,877	117,807	-0,075	0,066
-150,862	-107,246	-0,024	-0,004
-149,847	-200,000	0,020	-0,141
-148,833	154,703	0,101	-0,100
-147,818	224,654	0,062	0,072
-146,804	-200,000	-0,015	0,118
-145,789	-200,000	-0,009	0,057
-144,775	800,000	0,033	-0,066
-143,760	-69,717	-0,050	-0,014
-142,745	-26,536	0,148	0,062
-141,731	-200,000	-0,024	0,167
-140,716	600,530	-0,040	0,071
-139,702	-5,145	-0,144	0,071
-138,687	-165,386	0,078	0,002
-137,672	-200,000	-0,018	0,096
-136,658	282,865	-0,054	-0,070
-135,643	-71,404	-0,068	-0,018
-134,629	-11,408	-0,021	0,010
-133,614	-200,000	-0,018	-0,060
-132,599	48,006	-0,024	-0,016
-131,585	-200,000	-0,003	-0,087
-130,570	263,024	-0,032	-0,041
-129,556	64,181	-0,064	0,046
-128,541	111,225	-0,051	0,044
-127,526	-86,147	0,134	-0,029
-126,512	106,348	-0,072	0,061
-125,497	800,000	0,047	0,117
-124,483	-102,869	0,098	-0,017
-123,468	382,253	0,091	-0,134
-122,453	-53,449	-0,141	0,046
-121,439	-200,000	-0,008	0,087
-120,424	-200,000	0,029	-0,134
-119,410	800,000	0,051	0,108
-118,395	-200,000	-0,008	-0,120
-117,380	-84,789	-0,043	0,010
-116,366	237,601	-0,066	0,079
-115,351	36,279	-0,025	0,016
-114,337	117,021	-0,081	-0,071
-113,322	-200,000	0,004	0,214
-112,307	204,008	0,004	-0,005
-111,293	-200,000	0,006	-0,025
-110,278	-102,050	0,100	-0,017
-109,264	-200,000	-0,013	-0,046
-108,249	-200,000	-0,019	-0,110
-107,234	-83,844	-0,057	-0,013
-106,220	-83,481	-0,076	-0,017
-105,205	281,876	0,094	0,121
-104,191	-71,132	-0,021	0,006
-103,176	-77,620	0,106	0,026
-102,162	-200,000	-0,000	0,050
-101,147	-16,322	-0,106	-0,048
-100,132	-200,000	-0,003	-0,248
-99,118	-200,000	0,005	0,025
-98,103	329,512	0,047	-0,065
-97,089	800,000	-0,038	0,118
-96,074	93,025	0,008	-0,006
-95,059	308,746	0,040	-0,054
-94,045	-200,000	0,014	0,067
-93,030	344,395	-0,046	-0,065
-92,016	250,125	-0,074	-0,090
-91,001	-100,776	-0,096	0,017
-89,986	-105,147	-0,074	0,012
-88,972	75,766	-0,008	0,006
-87,957	95,301	0,024	-0,020
-86,943	85,359	0,136	0,107
-85,928	58,203	0,028	-0,020
-84,913	-72,889	-0,197	-0,052
-83,899	24,415	0,060	0,036
-82,884	-163,158	0,145	0,005
-81,870	500,573	0,060	-0,099
-80,855	-200,000	0,013	-0,068
-79,840	228,948	-0,121	-0,142
-78,826	545,737	-0,036	-0,063
-77,811	-200,000	-0,018	-0,151
-76,797	-128,201	-0,102	-0,010
-75,782	349,179	0,026	-0,037
-74,767	-200,000	0,006	-0,039
-73,753	800,000	-0,038	-0,096
-72,738	-82,458	0,065	-0,015
-71,724	48,830	0,069	0,047
-70,709	158,134	0,043	-0,043
-69,694	-200,000	-0,001	0,096
-68,680	238,058	0,074	0,088
-67,665	800,000	0,023	-0,071
-66,651	-50,766	0,024	0,008
-65,636	-25,667	-0,058	-0,024
-64,622	0,375	-0,147	0,075
-63,607	11,792	0,053	0,029
-62,592	800,000	0,036	-0,077
-61,578	-137,176	0,060	0,005
-60,563	101,159	0,132	0,110
-59,549	-200,000	-0,050	-0,170
-58,534	3,890	-2,081	-1,087
-57,519	-200,000	-0,185	-0,660
-56,505	-200,000	-1,380	-4,934
-55,490	46,334	0,918	0,609
-54,476	800,000	5,454	12,016
-53,461	-200,000	18,545	313,017
-52,446	800,000	740,093	2321,193
-51,432	556,809	1656,592	2874,436
-50,417	110,853	1640,710	1415,782
-49,403	75,071	1290,392	974,216
-48,388	30,523	1031,088	630,784
-47,373	20,072	993,663	573,273
-46,359	17,642	981,356	558,155
-45,344	14,297	977,456	544,917
-44,330	14,654	975,748	545,118
-43,315	14,020	973,775	541,913
-42,300	13,982	972,701	541,172
-41,286	13,986	972,042	540,795
-40,271	13,921	971,008	539,986
-39,257	13,980	970,065	539,633
-38,242	13,961	969,216	539,076
-37,227	13,942	968,455	538,571
-36,213	13,972	967,592	538,167
-35,198	13,908	966,586	537,377
-34,184	13,968	965,939	537,192
-33,169	13,938	964,884	536,487
-32,154	14,037	963,876	536,225
-31,140	14,031	962,894	535,641
-30,125	13,996	962,506	535,287
-29,111	13,940	961,534	534,547
-28,096	13,984	960,830	534,275
-27,082	13,992	960,184	533,921
-26,067	14,022	959,233	533,469
-25,052	13,985	958,444	532,888
-24,038	13,929	958,093	532,491
-23,023	13,977	957,403	532,241
-22,009	14,014	956,552	531,867
-20,994	13,984	956,108	531,502
-19,979	13,973	955,230	530,959
-18,965	13,996	954,605	530,664
-17,950	13,963	954,189	530,304
-16,936	13,899	953,727	529,822
-15,921	13,949	952,833	529,464
-14,906	13,844	952,224	528,769
-13,892	13,854	951,567	528,414
-12,877	13,855	950,866	528,008
-11,863	13,802	950,026	527,352
-10,848	13,855	949,502	527,207
-9,833	13,919	949,192	527,220
-8,819	13,932	948,471	526,841
-7,804	13,913	947,875	526,426
-6,790	13,895	947,395	526,082
-5,775	13,915	946,757	525,771
-4,760	13,916	946,191	525,437
-3,746	13,905	945,459	524,977
-2,731	13,712	944,851	524,006
-1,717	13,701	944,176	523,576
-0,702	13,690	943,612	523,205
0,313	13,501	942,704	522,891
1,327	16,694	940,629	531,798
2,342	25,574	795,753	473,483
3,356	21,961	460,441	268,397
4,371	-4,876	317,318	156,160
5,386	-8,657	299,186	143,359
6,400	-10,548	293,024	138,498
7,415	-10,967	290,631	136,939
8,429	-11,028	288,786	135,996
9,444	-11,169	288,015	135,483
10,459	-11,065	287,295	135,234
11,473	-11,154	286,739	134,873
12,488	-11,274	286,120	134,453
13,502	-11,149	285,660	134,347
14,517	-11,417	285,548	134,020
15,531	-11,176	284,872	133,926
16,546	-11,211	284,588	133,746
17,561	-11,237	284,172	133,513
18,575	-11,129	283,789	133,426
19,590	-11,177	283,512	133,237
20,604	-11,167	283,109	133,046
21,619	-11,264	282,776	132,784
22,634	-11,187	282,546	132,738
23,648	-11,235	282,135	132,487
24,663	-11,279	281,764	132,259
25,677	-11,259	281,457	132,123
26,692	-11,351	281,477	132,032
27,707	-11,068	280,939	132,039
28,721	-11,053	280,631	131,897
29,736	-11,356	280,408	131,490
30,750	-11,310	280,182	131,417
31,765	-11,324	279,969	131,291
32,780	-11,268	279,768	131,239
33,794	-11,177	279,360	131,123
34,809	-11,181	279,265	131,062
35,823	-11,294	278,823	130,736
36,838	-11,128	278,614	130,784
37,853	-11,241	278,377	130,554
38,867	-11,332	278,280	130,410
39,882	-11,259	277,934	130,306
40,896	-11,319	277,660	130,108
41,911	-11,188	277,369	130,085
42,926	-11,133	277,195	130,044
43,940	-11,221	276,890	129,806
44,955	-11,066	276,507	129,760
45,969	-11,435	276,473	129,385
46,984	-11,461	276,230	129,236
47,999	-11,537	275,860	128,980
49,013	-11,785	275,772	128,694
50,028	-11,896	275,291	128,353
51,042	-12,008	275,062	128,131
52,057	-12,188	274,906	127,878
53,071	-12,029	274,714	127,925
54,086	-11,806	274,514	128,029
55,101	-11,523	274,414	128,237
56,115	-11,516	274,157	128,112
57,130	-11,295	274,026	128,245
58,144	-11,153	273,716	128,221
59,159	-11,026	273,472	128,213
60,174	-11,173	273,223	127,949
61,188	-11,094	273,158	127,981
62,203	-11,173	272,870	127,761
63,217	-11,227	272,827	127,679
64,232	-11,279	272,510	127,471
65,247	-11,086	272,047	127,422
66,261	-11,067	271,937	127,376
67,276	-11,154	271,590	127,123
68,290	-11,578	271,331	126,598
69,305	-11,621	271,191	126,481
70,320	-11,522	271,032	126,488
71,334	-11,368	270,904	126,558
72,349	-11,098	270,652	126,678
73,363	-11,018	270,297	126,574
74,378	-11,146	270,251	126,424
75,393	-11,157	270,055	126,310
76,407	-11,136	269,794	126,197
77,422	-11,143	269,579	126,078
78,436	-11,005	269,372	126,097
79,451	-11,200	269,076	125,768
80,466	-11,279	268,992	125,646
81,480	-11,220	268,586	125,499
82,495	-11,277	268,300	125,302
83,509	-11,389	268,392	125,232
84,524	-11,419	268,025	125,022
85,539	-11,433	267,699	124,846
86,553	-11,225	267,416	124,891
87,568	-11,247	267,314	124,813
88,582	-11,393	267,067	124,554
89,597	-11,292	266,834	124,526
90,611	-11,200	266,715	124,543
91,626	-11,154	266,664	124,549
92,641	-11,005	266,362	124,532
93,655	-11,093	266,103	124,320
94,670	-11,134	265,882	124,169
95,684	-11,299	265,897	124,015
96,699	-11,321	265,570	123,832
97,714	-11,247	265,318	123,770
98,728	-11,190	265,025	123,674
99,743	-11,245	264,762	123,491
100,757	-11,361	264,481	123,245
101,772	-11,392	264,537	123,232
102,787	-11,263	264,203	123,182
103,801	-11,315	264,087	123,069
104,816	-11,100	263,891	123,160
105,830	-11,117	263,820	123,100
106,845	-11,138	263,536	122,938
107,860	-11,301	263,446	122,739
108,874	-11,167	263,214	122,740
109,889	-11,263	262,985	122,536
110,903	-11,268	262,731	122,403
111,918	-11,149	262,483	122,383
112,933	-11,194	262,331	122,261
113,947	-11,283	262,161	122,091
114,962	-11,253	261,990	122,027
115,976	-11,278	261,754	121,884
116,991	-11,274	261,638	121,823
118,006	-11,144	261,437	121,834
119,020	-11,078	261,075	121,713
120,035	-10,933	261,146	121,863
121,049	-11,172	260,847	121,502
122,064	-11,225	260,719	121,384
123,079	-11,161	260,391	121,277
124,093	-11,156	260,248	121,204
125,108	-11,276	259,891	120,921
126,122	-11,723	259,774	120,463
127,137	-11,563	259,439	120,438
128,151	-11,471	259,429	120,503
129,166	-11,492	259,186	120,361
130,181	-11,361	258,869	120,317
131,195	-11,565	258,804	120,098
132,210	-11,288	258,685	120,275
133,224	-11,174	258,397	120,230
134,239	-10,979	258,291	120,341
135,254	-11,304	258,033	119,926
136,268	-11,195	257,648	119,831
137,283	-11,493	257,508	119,495
138,297	-11,624	257,366	119,305
139,312	-11,679	257,143	119,143
140,327	-11,396	257,173	119,393
141,341	-10,945	256,918	119,655
142,356	-10,985	256,702	119,509
143,370	-11,059	256,617	119,395
144,385	-11,047	256,508	119,344
145,400	-10,979	256,215	119,256
146,414	-10,823	255,927	119,247
147,429	-10,955	255,928	119,122
148,443	-10,864	255,559	119,018
149,458	-10,953	255,504	118,905
150,473	-11,100	255,386	118,712
151,487	-11,170	255,118	118,517
152,502	-10,968	254,858	118,560
153,516	-11,058	254,839	118,462
154,531	-10,937	254,547	118,420
155,546	-10,980	254,374	118,292
156,560	-11,009	254,169	118,161
157,575	-11,286	253,937	117,805
158,589	-10,976	253,806	118,001
159,604	-11,046	253,674	117,869
160,619	-10,987	253,348	117,757
161,633	-11,201	253,358	117,568
162,648	-11,158	253,185	117,514
163,662	-10,820	252,862	117,642
164,677	-11,050	252,669	117,346
165,692	-10,911	252,669	117,454
166,706	-10,867	252,380	117,346
167,721	-11,064	252,303	117,132
168,735	-11,026	252,263	117,136
169,750	-10,943	251,874	117,015
170,764	-10,741	251,796	117,140
171,779	-10,887	251,660	116,942
172,794	-10,937	251,565	116,845
173,808	-11,079	251,259	116,572
174,823	-11,432	250,927	116,109
175,837	-11,611	250,711	115,847
176,852	-11,225	250,812	116,210
177,867	-11,035	250,576	116,251
178,881	-11,084	250,510	116,169
179,896	-10,743	250,223	116,314
180,910	-10,735	249,976	116,194
181,925	-10,842	249,811	116,017
182,940	-10,982	249,842	115,904
183,954	-10,906	249,660	115,873
184,969	-10,908	249,397	115,739
185,983	-11,031	249,312	115,585
186,998	-11,053	249,067	115,444
188,013	-10,944	248,873	115,434
189,027	-10,827	248,813	115,494
190,042	-11,091	248,651	115,188
191,056	-10,905	248,287	115,164
192,071	-10,806	248,210	115,201
193,086	-10,933	247,890	114,937
194,100	-10,993	247,917	114,889
195,115	-10,867	247,747	114,904
196,129	-10,732	247,395	114,844
197,144	-10,950	247,193	114,558
198,159	-10,839	247,015	114,558
199,173	-11,110	246,935	114,285
200,188	-11,073	246,688	114,191
201,202	-11,196	246,394	113,943
202,217	-11,644	246,237	113,489
203,232	-11,573	245,990	113,424
204,246	-11,231	245,898	113,654
205,261	-10,834	245,715	113,888
206,275	-11,536	245,359	113,134
207,290	-7,814	247,083	117,009
208,304	0,458	249,583	125,099
209,319	4,158	250,732	128,760
210,334	4,666	250,701	129,157
211,348	4,913	250,564	129,281
212,363	4,959	250,475	129,262
213,377	5,082	250,400	129,314
214,392	5,013	250,076	129,078
215,407	5,014	249,971	129,014
216,421	4,948	249,854	128,887
217,436	5,050	249,697	128,879
218,450	5,118	249,497	128,821
219,465	5,143	249,291	128,724
220,480	5,002	249,094	128,493
221,494	4,583	248,964	128,068
222,509	4,742	248,646	128,024
223,523	4,703	248,681	127,998
224,538	4,317	248,247	127,445
225,553	4,390	248,259	127,500
226,567	4,427	248,151	127,463
227,582	4,398	247,961	127,331
228,596	4,745	247,743	127,494
229,611	4,181	247,488	126,886
230,626	4,289	247,382	126,910
231,640	4,417	247,113	126,865
232,655	4,597	246,848	126,866
233,669	4,431	246,737	126,662
234,684	4,271	246,446	126,369
235,699	4,491	246,647	126,642
236,713	4,623	246,479	126,653
237,728	4,675	245,956	126,415
238,742	4,310	245,923	126,088
239,757	4,233	245,834	125,969
240,772	4,244	245,721	125,909
241,786	4,409	245,565	125,951
242,801	4,386	245,322	125,797
243,815	4,181	245,422	125,670
244,830	4,306	245,146	125,620
245,844	4,665	244,976	125,813
246,859	4,295	244,896	125,460
247,874	4,144	244,726	125,238
248,888	4,651	244,406	125,476
249,903	4,385	244,358	125,224
250,917	4,464	244,264	125,229
251,932	4,540	244,247	125,271
252,947	4,852	243,864	125,316
253,961	4,316	243,717	124,795
254,976	4,495	243,656	124,897
255,990	4,600	243,397	124,839
257,005	4,499	243,235	124,663
258,020	4,149	243,088	124,293
259,034	4,171	242,862	124,185
260,049	4,242	242,808	124,204
261,063	4,176	242,593	124,029
262,078	4,311	242,426	124,041
263,093	4,492	242,242	124,082
264,107	4,682	242,159	124,180
265,122	4,426	241,906	123,834
266,136	4,458	241,839	123,815
267,151	4,684	241,752	123,940
268,166	4,230	241,476	123,424
269,180	4,176	241,294	123,277
270,195	4,697	241,515	123,796
271,209	4,776	241,351	123,764
272,224	4,489	240,856	123,270
273,239	3,998	240,507	122,689
274,253	4,224	240,476	122,843
275,268	4,299	240,388	122,846
276,282	4,492	240,325	122,957
277,297	4,265	240,071	122,635
278,312	4,307	239,850	122,545
279,326	4,578	239,879	122,764
280,341	4,313	239,698	122,450
281,355	4,541	239,472	122,505
282,370	4,507	239,476	122,469
283,384	4,320	239,094	122,115
284,399	4,281	239,007	122,028
285,414	4,206	238,838	121,872
286,428	4,155	238,795	121,799
287,443	4,409	238,631	121,905
288,457	4,671	238,533	122,051
289,472	4,578	238,351	121,873
290,487	4,304	238,265	121,602
291,501	4,103	237,979	121,288
292,516	4,047	237,850	121,167
293,530	4,017	237,647	121,029
294,545	4,679	237,543	121,486
295,560	4,543	237,493	121,342
296,574	4,001	237,244	120,779
297,589	4,041	237,128	120,740
298,603	4,508	237,120	121,092
299,618	4,691	236,853	121,088
300,633	4,489	236,663	120,822
301,647	4,655	236,542	120,880
302,662	4,943	236,469	121,056
303,676	4,806	236,324	120,864
304,691	4,602	236,236	120,649
305,706	4,832	236,108	120,753
306,720	4,935	235,872	120,701
307,735	4,745	235,792	120,501
308,749	4,466	235,581	120,166
309,764	4,314	235,331	119,909
310,779	4,076	235,120	119,606
311,793	4,168	234,809	119,509
312,808	4,111	234,693	119,395
313,822	4,239	234,489	119,380
314,837	4,287	234,488	119,406
315,852	3,875	234,385	119,024
316,866	4,135	234,273	119,157
317,881	4,470	234,080	119,307
318,895	4,425	233,836	119,138
319,910	4,413	233,804	119,102
320,925	4,663	233,696	119,229
321,939	4,304	233,526	118,855
322,954	4,470	233,466	118,941
323,968	4,397	233,310	118,795
324,983	4,411	233,239	118,759
325,997	4,560	233,106	118,795
327,012	4,604	232,906	118,716
328,027	4,389	232,653	118,412
329,041	4,760	232,625	118,672
330,056	5,218	232,628	119,014
331,070	5,282	232,445	118,959
332,085	4,961	232,082	118,517
333,100	4,604	231,892	118,137
334,114	4,595	231,836	118,091
335,129	4,771	231,793	118,193
336,143	4,943	231,601	118,216
337,158	4,821	231,461	118,041
338,173	4,550	231,232	117,707
339,187	4,461	231,027	117,524
340,202	4,532	230,962	117,534
341,216	4,705	230,711	117,528
342,231	4,178	230,749	117,137
343,246	4,288	230,504	117,085
344,260	4,567	230,429	117,248
345,275	4,811	230,303	117,358
346,289	4,830	230,219	117,320
347,304	4,758	230,041	117,164
348,319	4,902	229,869	117,175
349,333	4,665	229,592	116,844
350,348	4,371	229,366	116,496
351,362	4,482	229,290	116,532
352,377	4,461	229,087	116,402
353,392	4,269	228,940	116,172
354,406	4,076	228,859	115,975
355,421	195,515	1318,649	1394,200
356,435	156,822	1451,383	1394,159
