DTS Sentinel unit serial number:	SN410029Multiplexer serial number:	ORYXHardware model number:	OX2-SRSoftware version number:	ORYX F/W v4,00 Oryx Data Collector v3.7.2.0data status	okinstallation	B5 Nyhavnadifferential loss correction	single-endedforward channel	channel 2reverse channel	N/Adate	2023/12/12time	05:47:13forward acquisition time	300,00reverse acquisition time	0,00gamma	499,1914k internal	0,3157k external	0,3157temperature offset calibration	1,0000default loss term (dB/km)	0,3820temperature slope calibration	1,0000multiplexer offset coefficient	1,0000multiplexer slope coefficient	1,0000fibre end	0,00T internal ref (°C)	15,31T ext. ref 1 (°C)	-1,10T ext. ref 2 (°C)	-1,41length (m)	temperature (°C)	Stokes	anti-Stokes-744,400	-154,400	0,055	-0,003
-743,385	-77,673	-0,251	-0,064
-742,371	128,829	0,046	0,043
-741,356	-3,189	-0,296	0,152
-740,342	202,702	0,123	0,140
-739,327	-102,768	-0,226	-0,039
-738,312	10,516	-0,056	-0,031
-737,298	14,322	-0,304	-0,175
-736,283	-114,119	0,089	-0,013
-735,269	-125,807	-0,290	-0,032
-734,254	-200,000	0,008	0,044
-733,239	-103,755	-0,599	-0,102
-732,225	-97,751	0,124	0,023
-731,210	-104,682	-0,082	-0,014
-730,196	320,206	-0,062	-0,087
-729,181	-2,238	0,032	0,016
-728,167	-200,000	-0,043	-0,159
-727,152	-57,356	-0,069	-0,022
-726,137	-79,371	-0,131	-0,032
-725,123	42,554	-0,035	0,023
-724,108	800,000	-0,058	-0,126
-723,094	-200,000	-0,005	-0,180
-722,079	7,262	-0,090	0,050
-721,064	-62,523	-0,101	-0,031
-720,050	-39,198	-0,054	-0,021
-719,035	800,000	-0,068	-0,163
-718,021	109,974	0,035	0,031
-717,006	-140,929	-0,120	0,009
-715,991	602,224	0,030	-0,056
-714,977	-200,000	0,019	-0,118
-713,962	-200,000	-0,010	-0,074
-712,948	424,544	0,074	0,117
-711,933	-97,731	0,075	-0,014
-710,918	-15,867	0,111	-0,052
-709,904	-200,000	0,004	-0,054
-708,889	-94,749	-0,169	-0,034
-707,875	-200,000	-0,034	-0,131
-706,860	-39,490	-0,102	-0,039
-705,845	240,993	-0,058	-0,072
-704,831	-40,884	-0,049	0,018
-703,816	-79,334	-0,126	-0,031
-702,802	-200,000	0,015	-0,089
-701,787	253,543	0,072	-0,091
-700,772	-158,434	-0,208	0,009
-699,758	31,608	0,045	-0,028
-698,743	176,843	0,040	0,043
-697,729	490,379	0,021	-0,036
-696,714	-29,845	0,110	0,046
-695,699	800,000	0,029	-0,069
-694,685	-27,601	-0,036	-0,015
-693,670	188,215	-0,073	-0,080
-692,656	-200,000	-0,018	-0,076
-691,641	-200,000	-0,066	-0,000
-690,627	8,557	0,061	-0,034
-689,612	70,295	0,038	0,029
-688,597	-200,000	0,036	-0,121
-687,583	19,621	-0,075	-0,044
-686,568	0,016	-0,079	-0,041
-685,554	55,946	0,148	-0,105
-684,539	800,000	0,049	-0,121
-683,524	-200,000	0,018	0,096
-682,510	-200,000	0,002	0,108
-681,495	-52,936	-0,047	0,016
-680,481	-104,875	-0,149	-0,025
-679,466	215,777	-0,085	-0,100
-678,451	-76,958	-0,125	0,032
-677,437	-75,913	-0,055	0,014
-676,422	648,395	0,092	0,174
-675,408	-29,298	-0,077	0,032
-674,393	800,000	-0,037	-0,119
-673,378	-14,107	-0,160	-0,076
-672,364	10,842	-0,146	-0,082
-671,349	-200,000	-0,014	-0,105
-670,335	69,458	-0,014	0,011
-669,320	192,237	0,055	0,062
-668,305	27,850	-0,105	-0,065
-667,291	159,374	-0,042	0,043
-666,276	800,000	-0,042	-0,098
-665,262	-200,000	-0,012	-0,126
-664,247	-200,000	0,019	-0,088
-663,232	-200,000	-0,009	-0,066
-662,218	-4,879	-0,032	-0,016
-661,203	164,755	0,076	0,079
-660,189	17,926	0,096	-0,056
-659,174	-87,263	-0,110	0,024
-658,159	20,781	0,056	-0,033
-657,145	800,000	0,071	-0,160
-656,130	-200,000	0,005	-0,125
-655,116	-200,000	0,010	-0,060
-654,101	800,000	-0,056	-0,153
-653,086	275,834	0,108	0,141
-652,072	-81,374	0,145	-0,035
-651,057	144,114	-0,044	0,043
-650,043	126,630	-0,071	-0,066
-649,028	355,902	-0,012	0,018
-648,014	392,133	0,063	0,096
-646,999	-200,000	-0,011	-0,070
-645,984	487,375	0,043	-0,073
-644,970	-200,000	0,017	-0,062
-643,955	800,000	-0,022	0,045
-642,941	150,743	-0,084	0,084
-641,926	-75,276	-0,065	-0,017
-640,911	-200,000	0,005	0,023
-639,897	42,513	-0,064	0,043
-638,882	-109,034	0,131	0,020
-637,868	800,000	-0,042	0,103
-636,853	252,487	0,019	0,024
-635,838	-200,000	-0,009	0,029
-634,824	-200,000	0,012	0,068
-633,809	-33,179	0,114	-0,046
-632,795	-200,000	-0,016	0,109
-631,780	342,874	0,054	-0,078
-630,765	-43,472	0,089	0,033
-629,751	243,774	-0,125	-0,154
-628,736	-200,000	-0,010	-0,084
-627,722	-200,000	0,009	-0,060
-626,707	800,000	0,026	-0,076
-625,692	-200,000	0,003	0,066
-624,678	75,083	-0,089	-0,069
-623,663	800,000	-0,063	0,133
-622,649	-93,198	-0,099	0,020
-621,634	-51,237	-0,093	0,032
-620,619	-56,676	0,122	0,039
-619,605	800,000	0,020	-0,053
-618,590	110,917	0,089	0,079
-617,576	-121,218	-0,171	0,021
-616,561	410,542	-0,056	-0,087
-615,546	54,087	-0,065	-0,046
-614,532	493,130	-0,061	-0,104
-613,517	-111,480	0,110	0,016
-612,503	-200,000	0,009	0,047
-611,488	2,529	0,086	0,045
-610,474	-200,000	-0,010	-0,064
-609,459	545,840	-0,055	0,097
-608,444	78,070	-0,122	-0,096
-607,430	-46,218	-0,123	-0,044
-606,415	191,243	0,060	-0,067
-605,401	-200,000	0,002	0,090
-604,386	-200,000	0,004	-0,051
-603,371	-106,280	0,166	-0,027
-602,357	406,405	0,040	-0,062
-601,342	-200,000	-0,039	-0,238
-600,328	-67,005	-0,193	-0,056
-599,313	21,837	0,124	0,074
-598,298	36,939	-0,096	0,062
-597,284	-200,000	-0,013	0,097
-596,269	-200,000	0,019	0,067
-595,255	-58,299	0,034	0,011
-594,240	-116,340	-0,103	-0,014
-593,225	49,982	0,058	0,040
-592,211	-200,000	-0,019	0,080
-591,196	36,222	0,099	0,064
-590,182	800,000	-0,026	0,079
-589,167	99,406	-0,034	-0,029
-588,152	-46,719	-0,108	-0,039
-587,138	38,837	-0,004	0,002
-586,123	-200,000	0,026	-0,156
-585,109	800,000	-0,044	0,092
-584,094	222,353	-0,146	-0,172
-583,079	62,691	0,012	-0,009
-582,065	-168,810	0,072	-0,002
-581,050	-5,489	-0,041	-0,020
-580,036	-200,000	-0,008	-0,069
-579,021	-51,366	-0,115	0,039
-578,006	55,760	-0,086	-0,061
-576,992	230,974	0,073	-0,088
-575,977	-16,590	-0,117	-0,054
-574,963	800,000	0,047	-0,125
-573,948	800,000	0,027	-0,071
-572,934	800,000	0,034	-0,089
-571,919	-200,000	-0,008	-0,089
-570,904	296,419	-0,084	-0,113
-569,890	-171,707	0,087	-0,002
-568,875	-200,000	-0,009	-0,100
-567,861	-200,000	0,014	0,076
-566,846	-200,000	-0,041	0,167
-565,831	-143,336	0,036	0,002
-564,817	22,304	-0,036	0,022
-563,802	-20,273	0,111	-0,050
-562,788	357,436	-0,076	-0,111
-561,773	10,619	0,100	-0,056
-560,758	800,000	0,019	-0,049
-559,744	-200,000	-0,012	-0,166
-558,729	-200,000	0,015	-0,089
-557,715	25,326	0,157	-0,095
-556,700	97,759	-0,012	0,010
-555,685	27,505	0,092	-0,056
-554,671	442,970	-0,023	-0,036
-553,656	-114,837	0,061	0,008
-552,642	36,245	-0,191	0,123
-551,627	105,030	-0,109	-0,094
-550,612	-200,000	0,034	-0,127
-549,598	-200,000	-0,033	-0,157
-548,583	583,549	-0,048	0,086
-547,569	-112,274	-0,098	0,014
-546,554	-23,195	0,165	0,072
-545,539	-200,000	-0,012	0,047
-544,525	30,456	-0,084	0,052
-543,510	-200,000	0,008	0,039
-542,496	505,803	0,043	-0,073
-541,481	336,716	0,031	-0,044
-540,466	-200,000	-0,012	-0,040
-539,452	1,529	0,072	0,038
-538,437	-200,000	-0,033	0,182
-537,423	226,542	-0,025	-0,029
-536,408	-200,000	-0,017	-0,182
-535,393	-141,737	-0,115	-0,008
-534,379	199,458	-0,055	0,062
-533,364	-126,178	0,081	0,009
-532,350	-200,000	-0,025	0,130
-531,335	-89,216	0,117	-0,025
-530,321	521,038	0,046	-0,079
-529,306	-125,493	-0,116	-0,013
-528,291	53,605	-0,104	-0,073
-527,277	-85,446	-0,071	-0,016
-526,262	349,484	-0,124	-0,180
-525,248	-26,310	0,070	-0,030
-524,233	-50,639	0,103	-0,035
-523,218	183,306	0,069	0,074
-522,204	273,818	-0,047	0,060
-521,189	-22,676	-0,127	-0,056
-520,175	100,226	0,100	-0,085
-519,160	-47,872	0,038	0,014
-518,145	307,938	-0,028	-0,038
-517,131	-134,187	0,041	-0,004
-516,116	-58,028	0,045	0,014
-515,102	-159,059	0,085	-0,003
-514,087	105,446	-0,055	-0,047
-513,072	2,543	-0,061	-0,032
-512,058	-66,940	0,107	0,031
-511,043	59,684	0,048	0,035
-510,029	130,864	-0,057	-0,053
-509,014	-200,000	0,020	-0,090
-507,999	144,962	0,084	0,083
-506,985	561,946	0,059	0,105
-505,970	-99,993	-0,056	-0,010
-504,956	44,111	-0,054	-0,036
-503,941	-200,000	0,019	-0,088
-502,926	-158,326	-0,122	0,005
-501,912	97,588	0,072	0,061
-500,897	800,000	-0,028	0,067
-499,883	-200,000	0,036	-0,165
-498,868	601,152	-0,040	0,073
-497,853	-77,283	-0,103	0,026
-496,839	-200,000	0,008	0,095
-495,824	-119,434	-0,056	0,007
-494,810	576,677	-0,036	0,065
-493,795	-200,000	0,023	0,177
-492,781	800,000	-0,069	0,167
-491,766	-80,197	0,068	0,017
-490,751	800,000	-0,046	-0,094
-489,737	-111,526	-0,084	-0,012
-488,722	754,075	0,022	-0,043
-487,708	58,062	0,156	-0,112
-486,693	-163,605	-0,045	0,002
-485,678	-200,000	-0,037	-0,120
-484,664	73,721	-0,097	0,074
-483,649	800,000	-0,039	-0,088
-482,635	56,230	-0,072	0,051
-481,620	43,341	0,025	-0,017
-480,605	-200,000	-0,017	0,146
-479,591	-35,702	0,041	-0,016
-478,576	-27,626	-0,152	-0,064
-477,562	358,502	-0,071	-0,104
-476,547	-200,000	-0,004	-0,048
-475,532	90,047	-0,033	-0,027
-474,518	150,963	0,034	0,033
-473,503	-200,000	0,020	0,096
-472,489	800,000	0,013	-0,031
-471,474	18,657	0,108	0,063
-470,459	269,767	-0,081	0,104
-469,445	106,965	-0,035	-0,031
-468,430	-58,492	-0,062	-0,020
-467,416	35,392	0,040	0,026
-466,401	-200,000	0,022	-0,098
-465,386	-200,000	0,009	0,038
-464,372	800,000	0,086	0,180
-463,357	385,278	-0,059	-0,089
-462,343	141,311	-0,110	0,106
-461,328	88,047	-0,056	-0,045
-460,313	367,265	0,074	0,109
-459,299	-200,000	0,013	-0,119
-458,284	-157,804	0,076	-0,003
-457,270	-77,303	0,083	0,021
-456,255	-152,660	-0,072	0,004
-455,241	185,531	0,047	-0,051
-454,226	240,716	-0,073	-0,089
-453,211	-200,000	0,021	0,174
-452,197	800,000	0,030	-0,070
-451,182	800,000	0,058	0,119
-450,168	-60,459	0,104	-0,032
-449,153	-200,000	0,005	-0,034
-448,138	125,528	-0,062	-0,057
-447,124	-161,812	0,034	0,001
-446,109	800,000	-0,049	0,100
-445,095	169,665	-0,037	0,039
-444,080	656,570	0,010	-0,020
-443,065	-153,480	0,045	0,002
-442,051	800,000	0,067	-0,146
-441,036	-44,096	-0,107	-0,039
-440,022	362,056	-0,035	-0,051
-439,007	-200,000	-0,055	0,000
-437,992	-16,975	0,004	-0,002
-436,978	-200,000	-0,031	0,112
-435,963	2,459	-0,086	-0,045
-434,949	123,673	-0,017	0,016
-433,934	201,247	-0,087	-0,098
-432,919	50,952	0,085	0,058
-431,905	-41,345	-0,069	0,026
-430,890	506,749	-0,004	-0,007
-429,876	800,000	-0,030	0,095
-428,861	-187,360	-0,085	0,001
-427,846	113,289	0,087	0,077
-426,832	245,980	-0,046	-0,057
-425,817	800,000	-0,001	-0,004
-424,803	-40,023	-0,077	0,029
-423,788	-200,000	-0,027	-0,181
-422,773	707,513	-0,022	0,042
-421,759	-200,000	-0,010	0,057
-420,744	-200,000	-0,032	0,204
-419,730	447,725	0,030	-0,049
-418,715	-200,000	0,002	-0,048
-417,701	-96,707	-0,077	-0,015
-416,686	179,058	0,048	0,052
-415,671	40,142	0,047	0,031
-414,657	-107,034	0,130	0,021
-413,642	190,885	-0,117	0,128
-412,628	112,430	-0,110	0,097
-411,613	800,000	-0,013	-0,028
-410,598	-2,017	0,099	0,050
-409,584	367,303	0,074	-0,110
-408,569	-185,650	0,065	-0,001
-407,555	-200,000	0,026	0,110
-406,540	-114,525	0,023	0,003
-405,525	800,000	0,026	0,060
-404,511	-200,000	-0,008	-0,061
-403,496	63,294	-0,033	0,024
-402,482	34,023	0,100	-0,063
-401,467	800,000	0,017	0,044
-400,452	-143,208	-0,118	0,008
-399,438	-51,508	0,039	0,013
-398,423	-75,633	-0,065	-0,017
-397,409	85,728	0,054	0,044
-396,394	577,722	0,027	-0,048
-395,379	493,789	-0,057	-0,096
-394,365	-200,000	0,002	-0,051
-393,350	-200,000	0,007	0,027
-392,336	-103,441	0,129	-0,022
-391,321	193,916	-0,045	0,050
-390,306	-65,967	0,069	0,020
-389,292	-19,563	-0,100	0,045
-388,277	187,935	-0,027	0,029
-387,263	-74,858	0,078	0,020
-386,248	188,330	-0,075	0,082
-385,233	313,781	0,044	0,061
-384,219	-200,000	-0,015	0,055
-383,204	56,087	0,100	-0,071
-382,190	49,198	-0,109	0,075
-381,175	800,000	-0,013	0,027
-380,160	64,924	0,065	-0,048
-379,146	263,320	-0,056	0,071
-378,131	-12,930	0,122	0,058
-377,117	122,243	0,073	0,066
-376,102	55,908	-0,073	0,051
-375,088	6,723	0,111	-0,060
-374,073	-25,968	-0,058	-0,025
-373,058	-47,786	-0,049	-0,017
-372,044	480,963	0,078	0,129
-371,029	-64,411	-0,019	0,006
-370,015	-200,000	-0,001	0,112
-369,000	-27,668	0,026	0,011
-367,985	-126,017	-0,174	-0,019
-366,971	-26,821	0,047	0,020
-365,956	-74,586	0,088	-0,023
-364,942	107,215	-0,080	0,069
-363,927	-14,158	0,050	0,023
-362,912	-48,207	0,046	-0,016
-361,898	101,981	-0,152	-0,129
-360,883	38,690	0,023	-0,015
-359,869	8,176	0,087	-0,047
-358,854	-121,619	0,101	0,012
-357,839	-200,000	-0,019	0,085
-356,825	120,563	0,048	0,043
-355,810	205,940	0,109	-0,123
-354,796	-57,369	-0,042	0,013
-353,781	800,000	-0,021	0,059
-352,766	-46,132	-0,040	-0,014
-351,752	-200,000	0,036	-0,166
-350,737	-39,420	0,077	-0,029
-349,723	108,020	0,057	-0,050
-348,708	30,235	0,108	-0,067
-347,693	-102,219	-0,136	-0,023
-346,679	654,429	0,042	-0,079
-345,664	121,013	0,026	0,024
-344,650	280,530	-0,076	-0,098
-343,635	-200,000	0,114	-0,000
-342,620	800,000	0,055	0,123
-341,606	60,456	-0,122	-0,088
-340,591	-200,000	0,034	-0,149
-339,577	-29,415	-0,103	0,043
-338,562	-81,259	0,049	-0,012
-337,548	587,100	-0,028	-0,049
-336,533	-200,000	0,012	0,070
-335,518	-200,000	-0,011	0,071
-334,504	-130,319	-0,091	-0,009
-333,489	-140,046	-0,019	0,001
-332,475	-62,901	-0,079	-0,024
-331,460	800,000	-0,060	-0,132
-330,445	477,048	0,068	0,112
-329,431	138,052	0,117	-0,112
-328,416	-36,504	0,113	0,044
-327,402	-200,000	0,023	0,173
-326,387	-200,000	-0,019	-0,107
-325,372	72,159	-0,042	0,031
-324,358	800,000	-0,023	0,047
-323,343	666,792	0,022	-0,041
-322,329	123,505	0,065	0,059
-321,314	13,012	0,096	0,054
-320,299	122,458	-0,089	0,081
-319,285	670,481	0,056	0,105
-318,270	57,233	-0,089	-0,063
-317,256	159,494	-0,122	-0,123
-316,241	-126,578	0,080	-0,009
-315,226	-66,816	0,060	0,017
-314,212	-200,000	0,024	-0,079
-313,197	800,000	0,026	-0,073
-312,183	-102,129	0,025	-0,004
-311,168	800,000	0,028	0,063
-310,153	-200,000	-0,025	-0,080
-309,139	-115,730	-0,150	-0,020
-308,124	800,000	0,005	-0,014
-307,110	-200,000	0,012	0,060
-306,095	-200,000	-0,018	0,096
-305,080	194,405	-0,077	-0,085
-304,066	186,459	-0,111	0,119
-303,051	-92,222	-0,061	0,012
-302,037	-200,000	-0,002	-0,036
-301,022	-200,000	-0,003	0,068
-300,008	-200,000	0,010	0,078
-298,993	49,559	0,048	0,033
-297,978	-8,687	-0,052	-0,025
-296,964	-18,633	0,006	0,003
-295,949	800,000	-0,059	-0,149
-294,935	143,616	-0,061	0,059
-293,920	-107,011	0,180	-0,029
-292,905	-65,065	-0,006	0,002
-291,891	-37,744	0,147	0,056
-290,876	114,008	0,152	-0,134
-289,862	-200,000	0,010	0,112
-288,847	11,157	0,033	0,018
-287,832	800,000	0,049	-0,106
-286,818	20,407	0,093	-0,054
-285,803	111,109	0,067	-0,059
-284,789	249,982	0,087	-0,108
-283,774	14,018	-0,054	0,030
-282,759	-200,000	-0,005	0,060
-281,745	-101,011	-0,089	-0,016
-280,730	-200,000	0,007	-0,048
-279,716	-200,000	-0,001	-0,021
-278,701	165,834	-0,032	0,033
-277,686	-35,772	0,144	0,056
-276,672	-200,000	-0,024	0,078
-275,657	-103,429	-0,185	-0,031
-274,643	247,281	-0,066	-0,081
-273,628	-126,024	-0,057	0,006
-272,613	698,374	-0,052	0,100
-271,599	-98,946	0,093	-0,017
-270,584	-30,346	0,067	-0,027
-269,570	34,325	-0,046	0,029
-268,555	-76,464	0,050	-0,013
-267,540	369,787	0,014	-0,021
-266,526	-200,000	0,015	-0,063
-265,511	-14,809	-0,154	0,071
-264,497	-200,000	-0,012	0,049
-263,482	581,496	-0,036	0,064
-262,467	-152,244	0,066	-0,003
-261,453	5,498	-0,174	0,093
-260,438	-84,949	-0,032	0,007
-259,424	697,794	-0,038	0,073
-258,409	-14,322	-0,064	-0,030
-257,395	24,983	0,121	-0,072
-256,380	800,000	-0,009	0,022
-255,365	507,382	0,099	-0,166
-254,351	230,456	0,045	0,054
-253,336	-200,000	-0,034	0,112
-252,322	83,408	-0,036	-0,029
-251,307	701,880	0,045	-0,085
-250,292	-200,000	-0,031	0,159
-249,278	29,059	0,142	0,087
-248,263	-7,061	-0,131	-0,064
-247,249	110,125	0,059	-0,051
-246,234	-200,000	-0,007	0,049
-245,219	474,572	-0,038	-0,062
-244,205	-31,408	0,105	-0,043
-243,190	124,239	0,060	-0,054
-242,176	2,712	0,031	0,016
-241,161	-38,491	0,009	0,003
-240,146	-200,000	0,015	0,146
-239,132	58,834	0,030	0,021
-238,117	-110,629	-0,175	0,026
-237,103	-38,873	-0,046	0,017
-236,088	534,086	0,073	-0,126
-235,073	-152,134	-0,138	0,007
-234,059	52,722	0,051	0,035
-233,044	-14,334	0,023	-0,011
-232,030	116,745	-0,089	-0,079
-231,015	96,095	0,064	0,053
-230,000	-200,000	-0,027	-0,100
-228,986	-61,723	-0,142	-0,043
-227,971	-38,378	0,123	0,047
-226,957	-11,185	-0,108	-0,051
-225,942	205,129	0,015	-0,017
-224,927	800,000	0,022	-0,055
-223,913	-8,578	-0,086	-0,042
-222,898	800,000	0,040	0,100
-221,884	-200,000	-0,026	0,119
-220,869	-103,240	0,167	-0,028
-219,855	-200,000	0,004	0,062
-218,840	-58,867	0,188	0,058
-217,825	-200,000	0,023	0,125
-216,811	270,254	0,030	0,038
-215,796	107,298	-0,084	-0,072
-214,782	487,346	-0,024	-0,040
-213,767	82,637	0,076	-0,059
-212,752	-176,406	-0,030	0,001
-211,738	-67,620	0,067	-0,019
-210,723	-120,443	0,062	0,008
-209,709	800,000	-0,019	-0,048
-208,694	-200,000	-0,022	-0,093
-207,679	-106,895	0,055	-0,009
-206,665	18,703	0,072	0,041
-205,650	60,932	0,059	0,043
-204,636	48,967	0,147	0,099
-203,621	530,802	-0,016	-0,028
-202,606	-200,000	0,003	-0,091
-201,592	-200,000	0,017	-0,058
-200,577	146,941	0,031	-0,030
-199,563	-120,046	-0,073	0,009
-198,548	800,000	0,082	0,170
-197,533	-142,746	-0,063	0,004
-196,519	-200,000	0,002	-0,087
-195,504	-61,026	0,152	0,046
-194,490	314,295	-0,015	0,020
-193,475	636,226	0,033	0,060
-192,460	-200,000	0,006	0,130
-191,446	97,941	-0,003	0,003
-190,431	-109,312	0,098	0,015
-189,417	164,236	-0,033	-0,034
-188,402	-179,994	0,036	-0,001
-187,387	-114,268	-0,101	0,014
-186,373	450,080	0,050	0,080
-185,358	351,502	0,041	-0,059
-184,344	-146,899	0,090	-0,006
-183,329	-29,473	0,097	-0,040
-182,315	243,741	-0,084	0,102
-181,300	330,414	0,043	-0,060
-180,285	204,473	0,063	-0,070
-179,271	-10,267	-0,038	-0,018
-178,256	-68,479	-0,087	0,024
-177,242	-161,667	0,055	0,002
-176,227	-72,851	-0,087	0,023
-175,212	335,258	0,042	0,059
-174,198	-200,000	-0,019	0,153
-173,183	33,268	-0,036	-0,023
-172,169	461,371	-0,049	-0,079
-171,154	-73,605	-0,081	-0,021
-170,139	-10,242	0,164	-0,078
-169,125	800,000	0,048	0,118
-168,110	515,656	-0,073	-0,123
-167,096	34,216	0,129	0,081
-166,081	-200,000	-0,034	0,159
-165,066	-118,543	-0,144	-0,018
-164,052	-25,663	-0,046	0,020
-163,037	110,030	0,068	0,058
-162,023	-200,000	0,012	0,099
-161,008	-52,019	0,171	-0,057
-159,993	122,325	-0,144	0,130
-158,979	323,183	-0,034	0,047
-157,964	605,033	-0,047	-0,084
-156,950	800,000	-0,007	-0,018
-155,935	-128,213	0,155	0,016
-154,920	-200,000	-0,020	0,119
-153,906	-200,000	0,010	0,065
-152,891	375,455	0,019	-0,028
-151,877	-200,000	0,021	-0,089
-150,862	75,952	0,009	-0,007
-149,847	-200,000	0,014	-0,084
-148,833	-200,000	0,010	0,076
-147,818	-200,000	0,002	-0,077
-146,804	94,481	0,044	0,036
-145,789	113,647	0,103	0,090
-144,775	-146,361	-0,088	0,005
-143,760	-200,000	-0,022	-0,076
-142,745	448,374	-0,109	-0,174
-141,731	-200,000	-0,008	-0,049
-140,716	800,000	-0,024	-0,068
-139,702	-91,725	0,151	0,031
-138,687	376,088	-0,023	-0,034
-137,672	569,149	0,079	-0,138
-136,658	58,253	0,112	0,079
-135,643	213,934	-0,019	0,021
-134,629	-132,320	-0,063	-0,006
-133,614	-200,000	0,008	0,054
-132,599	193,994	0,024	-0,026
-131,585	800,000	0,015	0,034
-130,570	5,006	-0,107	0,057
-129,556	159,820	-0,035	-0,035
-128,541	800,000	-0,013	-0,041
-127,526	-49,008	0,106	-0,036
-126,512	-9,512	0,068	0,032
-125,497	96,697	-0,115	-0,095
-124,483	800,000	0,018	-0,054
-123,468	800,000	0,018	-0,045
-122,453	-95,999	-0,090	0,017
-121,439	281,646	0,082	-0,105
-120,424	264,256	0,030	-0,037
-119,410	-141,559	0,149	-0,011
-118,395	60,977	-0,076	0,054
-117,380	-57,874	-0,029	0,009
-116,366	-200,000	0,000	0,040
-115,351	-39,730	0,037	-0,014
-114,337	130,991	0,047	0,044
-113,322	-200,000	-0,005	-0,024
-112,307	-89,656	0,094	0,020
-111,293	797,062	0,135	0,268
-110,278	-200,000	0,002	0,211
-109,264	89,223	0,008	0,006
-108,249	-49,634	0,136	0,046
-107,234	79,566	-0,076	-0,059
-106,220	-164,488	-0,133	-0,004
-105,205	413,617	-0,070	0,107
-104,191	-85,868	0,111	0,025
-103,176	-57,310	-0,017	0,005
-102,162	193,776	0,111	0,121
-101,147	-111,233	-0,157	-0,023
-100,132	306,002	0,053	-0,071
-99,118	-200,000	0,002	-0,009
-98,103	-200,000	0,017	0,110
-97,089	-8,006	0,100	-0,048
-96,074	58,263	0,075	0,053
-95,059	214,677	-0,047	-0,053
-94,045	173,965	0,124	-0,129
-93,030	348,217	-0,066	-0,094
-92,016	-200,000	0,016	-0,069
-91,001	-24,918	0,089	0,038
-89,986	-129,099	0,203	-0,020
-88,972	-115,081	-0,131	0,018
-87,957	-200,000	-0,055	0,175
-86,943	185,731	-0,042	-0,045
-85,928	-200,000	-0,026	0,137
-84,913	-176,037	0,018	0,000
-83,899	230,574	0,059	-0,069
-82,884	191,778	-0,008	0,009
-81,870	147,357	-0,059	-0,058
-80,855	597,387	0,055	-0,098
-79,840	-200,000	-0,013	-0,051
-78,826	-200,000	0,025	0,112
-77,811	435,191	-0,111	-0,174
-76,797	-200,000	-0,019	0,060
-75,782	-200,000	0,003	-0,020
-74,767	83,184	-0,159	0,124
-73,753	793,023	0,065	0,130
-72,738	733,268	-0,015	-0,029
-71,724	-200,000	0,003	0,010
-70,709	445,668	-0,076	-0,121
-69,694	-129,407	0,065	-0,006
-68,680	-200,000	0,003	-0,030
-67,665	-124,712	0,113	-0,012
-66,651	-40,659	0,124	-0,046
-65,636	800,000	0,023	0,063
-64,622	-18,705	-0,063	0,028
-63,607	70,741	-0,114	-0,084
-62,592	187,802	-0,009	-0,010
-61,578	163,270	-0,026	-0,026
-60,563	61,910	0,037	-0,027
-59,549	800,000	0,006	-0,016
-58,534	0,176	-1,857	-0,948
-57,519	-200,000	-0,254	-0,944
-56,505	-200,000	-1,276	-5,019
-55,490	28,778	0,759	0,460
-54,476	800,000	5,371	12,237
-53,461	-200,000	17,657	284,532
-52,446	800,000	727,673	2216,734
-51,432	535,132	1643,635	2808,924
-50,417	110,134	1634,231	1408,061
-49,403	75,743	1286,671	974,997
-48,388	32,098	1027,663	634,634
-47,373	20,147	989,877	571,869
-46,359	18,553	977,415	559,418
-45,344	15,661	973,645	547,771
-44,330	15,901	971,979	547,598
-43,315	15,383	970,112	544,833
-42,300	15,308	968,969	543,924
-41,286	15,280	968,127	543,340
-40,271	15,327	967,034	542,858
-39,257	15,293	966,127	542,215
-38,242	15,342	965,230	541,852
-37,227	15,372	964,403	541,461
-36,213	15,320	963,623	540,832
-35,198	15,280	962,850	540,248
-34,184	15,380	962,093	540,126
-33,169	15,253	960,945	539,049
-32,154	15,330	960,062	538,781
-31,140	15,380	959,180	538,425
-30,125	15,358	958,418	537,905
-29,111	15,405	957,626	537,591
-28,096	15,357	957,264	537,215
-27,082	15,345	956,185	536,549
-26,067	15,384	955,382	536,202
-25,052	15,316	954,860	535,666
-24,038	15,358	954,141	535,380
-23,023	15,296	953,600	534,856
-22,009	15,359	952,902	534,644
-20,994	15,398	952,110	534,303
-19,979	15,400	951,468	533,928
-18,965	15,345	951,012	533,474
-17,950	15,311	950,425	533,016
-16,936	15,235	949,725	532,359
-15,921	15,346	948,887	532,222
-14,906	15,238	948,166	531,454
-13,892	15,273	947,557	531,201
-12,877	15,277	946,926	530,840
-11,863	15,242	946,370	530,396
-10,848	15,236	945,927	530,107
-9,833	15,311	945,541	530,107
-8,819	15,270	944,682	529,475
-7,804	15,250	944,047	529,035
-6,790	15,234	943,462	528,636
-5,775	15,278	942,997	528,495
-4,760	15,326	942,085	528,113
-3,746	15,265	941,696	527,683
-2,731	15,147	941,082	526,944
-1,717	15,116	940,262	526,364
-0,702	15,037	939,759	525,812
0,313	14,949	938,884	525,839
1,327	18,128	936,682	534,574
2,342	26,947	794,205	476,632
3,356	23,544	459,649	270,614
4,371	-3,475	315,278	156,808
5,386	-7,331	297,030	143,805
6,400	-9,514	291,010	138,704
7,415	-9,994	288,600	137,069
8,429	-10,049	287,094	136,287
9,444	-9,912	286,023	135,901
10,459	-10,037	285,488	135,513
11,473	-10,122	284,997	135,185
12,488	-10,009	284,474	135,035
13,502	-9,922	283,913	134,841
14,517	-9,962	283,543	134,614
15,531	-10,125	283,094	134,231
16,546	-9,946	282,623	134,169
17,561	-9,929	282,317	134,028
18,575	-9,906	281,863	133,823
19,590	-10,068	281,514	133,490
20,604	-9,810	281,168	133,561
21,619	-10,104	280,830	133,107
22,634	-9,893	280,618	133,197
23,648	-10,157	280,129	132,700
24,663	-10,039	280,003	132,742
25,677	-10,132	279,814	132,551
26,692	-10,030	279,456	132,467
27,707	-10,009	279,204	132,356
28,721	-9,926	278,898	132,278
29,736	-10,186	278,510	131,835
30,750	-10,070	278,502	131,930
31,765	-10,167	278,113	131,641
32,780	-9,888	277,808	131,750
33,794	-10,134	277,675	131,442
34,809	-9,943	277,280	131,425
35,823	-9,895	277,070	131,359
36,838	-10,069	276,836	131,071
37,853	-10,080	276,653	130,963
38,867	-9,941	276,048	130,796
39,882	-10,107	276,035	130,621
40,896	-10,072	275,840	130,550
41,911	-10,036	275,613	130,465
42,926	-9,998	275,371	130,375
43,940	-9,953	275,030	130,244
44,955	-9,904	274,908	130,221
45,969	-10,066	274,578	129,901
46,984	-10,141	274,451	129,759
47,999	-10,282	274,198	129,496
49,013	-10,462	273,658	129,061
50,028	-10,523	273,525	128,930
51,042	-10,709	273,376	128,675
52,057	-10,636	273,067	128,586
53,071	-10,722	272,874	128,404
54,086	-10,694	272,709	128,341
55,101	-10,532	272,705	128,477
56,115	-10,129	272,283	128,642
57,130	-9,947	272,194	128,757
58,144	-9,872	272,087	128,764
59,159	-10,027	271,775	128,462
60,174	-9,884	271,524	128,464
61,188	-10,007	271,470	128,314
62,203	-9,916	271,250	128,282
63,217	-9,969	270,847	128,031
64,232	-9,959	270,632	127,928
65,247	-9,876	270,476	127,918
66,261	-9,902	270,192	127,749
67,276	-10,048	269,871	127,451
68,290	-10,046	269,623	127,325
69,305	-10,213	269,387	127,049
70,320	-10,223	269,367	127,018
71,334	-10,078	269,032	126,983
72,349	-9,966	268,896	127,009
73,363	-9,921	268,626	126,912
74,378	-10,055	268,551	126,742
75,393	-9,664	268,194	126,920
76,407	-9,810	268,067	126,715
77,422	-9,825	267,825	126,576
78,436	-9,859	267,615	126,434
79,451	-9,967	267,207	126,132
80,466	-10,069	267,119	125,986
81,480	-10,084	266,828	125,824
82,495	-10,054	266,644	125,753
83,509	-10,059	266,575	125,706
84,524	-10,011	266,361	125,636
85,539	-10,125	266,184	125,439
86,553	-10,296	265,748	125,067
87,568	-10,125	265,734	125,204
88,582	-10,121	265,584	125,126
89,597	-9,976	265,200	125,064
90,611	-9,931	265,140	125,066
91,626	-9,841	264,920	125,032
92,641	-9,896	264,767	124,899
93,655	-9,764	264,436	124,850
94,670	-9,934	264,340	124,641
95,684	-10,159	264,123	124,326
96,699	-10,170	264,135	124,311
97,714	-9,874	263,617	124,321
98,728	-9,998	263,417	124,105
99,743	-10,214	263,316	123,853
100,757	-10,101	263,000	123,794
101,772	-10,136	262,885	123,698
102,787	-10,149	262,609	123,546
103,801	-10,127	262,610	123,554
104,816	-9,986	262,358	123,550
105,830	-10,010	262,208	123,448
106,845	-9,879	261,933	123,423
107,860	-9,991	261,853	123,274
108,874	-9,937	261,522	123,156
109,889	-9,964	261,360	123,045
110,903	-9,886	261,098	122,979
111,918	-9,895	260,986	122,908
112,933	-10,042	260,712	122,637
113,947	-9,870	260,673	122,761
114,962	-9,977	260,559	122,601
115,976	-9,906	260,080	122,427
116,991	-10,069	260,039	122,253
118,006	-9,807	259,770	122,347
119,020	-9,954	259,632	122,142
120,035	-10,073	259,692	122,054
121,049	-9,815	259,425	122,144
122,064	-9,827	259,176	122,007
123,079	-10,015	259,034	121,764
124,093	-9,979	258,613	121,586
125,108	-10,073	258,559	121,468
126,122	-10,057	258,185	121,295
127,137	-10,199	257,967	121,058
128,151	-10,238	257,820	120,944
129,166	-10,107	257,654	120,969
130,181	-10,143	257,377	120,798
131,195	-10,148	257,249	120,722
132,210	-10,057	257,110	120,725
133,224	-9,853	257,030	120,855
134,239	-9,855	256,689	120,682
135,254	-9,866	256,591	120,616
136,268	-9,916	256,320	120,434
137,283	-10,275	256,144	120,029
138,297	-10,307	255,741	119,802
139,312	-10,267	255,653	119,785
140,327	-10,004	255,568	119,961
141,341	-9,849	255,538	120,071
142,356	-9,928	255,225	119,845
143,370	-9,820	255,257	119,943
144,385	-9,625	254,970	119,965
145,400	-9,715	254,715	119,757
146,414	-9,811	254,739	119,675
147,429	-9,790	254,510	119,575
148,443	-9,633	254,221	119,563
149,458	-9,722	254,172	119,453
150,473	-9,798	254,007	119,300
151,487	-9,962	253,734	119,020
152,502	-9,845	253,661	119,076
153,516	-9,882	253,392	118,907
154,531	-9,607	253,051	118,971
155,546	-9,748	252,952	118,794
156,560	-9,805	252,766	118,647
157,575	-9,911	252,526	118,433
158,589	-9,946	252,443	118,355
159,604	-9,886	252,133	118,249
160,619	-9,712	251,922	118,288
161,633	-9,729	251,802	118,206
162,648	-9,855	251,757	118,068
163,662	-9,800	251,608	118,034
164,677	-9,682	251,288	117,974
165,692	-9,686	251,115	117,878
166,706	-9,781	251,068	117,765
167,721	-9,870	250,838	117,572
168,735	-9,755	250,724	117,605
169,750	-9,603	250,482	117,609
170,764	-9,756	250,444	117,451
171,779	-9,785	250,358	117,376
172,794	-9,576	250,007	117,378
173,808	-9,610	249,838	117,259
174,823	-10,147	249,637	116,702
175,837	-10,209	249,463	116,558
176,852	-10,045	249,569	116,735
177,867	-9,708	249,132	116,804
178,881	-9,595	249,052	116,850
179,896	-9,645	248,824	116,692
180,910	-9,744	248,686	116,533
181,925	-9,587	248,462	116,550
182,940	-9,757	248,379	116,358
183,954	-9,827	248,214	116,212
184,969	-9,928	248,165	116,094
185,983	-9,786	247,937	116,095
186,998	-9,726	247,688	116,019
188,013	-9,618	247,464	115,993
189,027	-9,672	247,276	115,850
190,042	-9,572	247,095	115,837
191,056	-9,993	247,059	115,460
192,071	-9,760	246,829	115,537
193,086	-9,985	246,672	115,265
194,100	-9,660	246,382	115,390
195,115	-9,664	246,310	115,342
196,129	-9,669	246,154	115,255
197,144	-9,632	245,780	115,100
198,159	-9,678	245,615	114,974
199,173	-9,647	245,519	114,945
200,188	-9,740	245,282	114,747
201,202	-9,861	244,955	114,484
202,217	-10,176	244,815	114,148
203,232	-10,486	244,687	113,823
204,246	-9,967	244,593	114,197
205,261	-9,682	244,474	114,365
206,275	-10,643	244,037	113,362
207,290	-7,560	245,172	116,421
208,304	-0,598	247,395	123,243
209,319	3,261	248,408	126,942
210,334	3,682	248,629	127,392
211,348	4,108	248,429	127,632
212,363	4,171	248,315	127,614
213,377	4,223	248,160	127,566
214,392	4,069	247,989	127,339
215,407	4,072	247,692	127,177
216,421	3,958	247,677	127,065
217,436	4,224	247,651	127,259
218,450	4,393	247,344	127,230
219,465	3,998	247,114	126,775
220,480	3,831	246,969	126,552
221,494	3,839	246,815	126,468
222,509	3,710	246,792	126,338
223,523	3,812	246,463	126,243
224,538	3,277	246,078	125,596
225,553	3,594	246,024	125,817
226,567	3,749	245,933	125,886
227,582	3,721	245,906	125,838
228,596	3,726	245,811	125,782
229,611	3,379	245,428	125,291
230,626	3,475	245,139	125,211
231,640	3,582	245,079	125,257
232,655	3,710	244,850	125,233
233,669	3,465	244,736	124,964
234,684	3,493	244,556	124,884
235,699	3,743	244,570	125,083
236,713	3,778	244,490	125,059
237,728	3,565	244,217	124,736
238,742	3,358	243,764	124,325
239,757	3,301	243,879	124,326
240,772	3,425	243,679	124,314
241,786	3,509	243,561	124,310
242,801	3,564	243,330	124,226
243,815	3,347	243,222	123,985
244,830	3,656	242,995	124,107
245,844	3,525	242,942	123,963
246,859	3,488	242,555	123,725
247,874	3,696	242,497	123,852
248,888	3,626	242,397	123,734
249,903	3,818	242,229	123,792
250,917	3,590	242,114	123,538
251,932	4,021	241,984	123,807
252,947	3,716	241,772	123,443
253,961	3,680	241,682	123,357
254,976	3,690	241,511	123,267
255,990	3,761	241,435	123,274
257,005	3,414	241,230	122,880
258,020	3,453	241,031	122,799
259,034	3,260	240,825	122,529
260,049	3,790	240,640	122,848
261,063	3,261	240,521	122,353
262,078	3,303	240,344	122,285
263,093	3,736	240,390	122,644
264,107	3,798	240,084	122,526
265,122	3,480	239,835	122,134
266,136	3,724	239,898	122,350
267,151	4,046	239,619	122,453
268,166	3,515	239,467	121,942
269,180	3,326	239,345	121,719
270,195	3,899	239,413	122,198
271,209	4,089	239,143	122,201
272,224	3,491	238,830	121,556
273,239	3,334	238,499	121,252
274,253	3,460	238,531	121,357
275,268	3,430	238,382	121,247
276,282	3,454	238,230	121,178
277,297	3,319	238,068	120,978
278,312	3,389	237,868	120,921
279,326	3,671	237,644	121,019
280,341	3,622	237,706	121,001
281,355	3,652	237,400	120,858
282,370	3,737	237,316	120,871
283,384	3,600	237,191	120,689
284,399	3,574	236,779	120,448
285,414	3,452	236,772	120,338
286,428	3,562	236,654	120,353
287,443	3,362	236,675	120,196
288,457	3,597	236,467	120,264
289,472	3,804	236,123	120,241
290,487	3,698	236,061	120,116
291,501	3,636	235,690	119,868
292,516	3,257	235,689	119,561
293,530	3,151	235,574	119,409
294,545	3,621	235,554	119,755
295,560	3,676	235,339	119,678
296,574	3,208	235,131	119,197
297,589	3,176	235,134	119,163
298,603	3,899	234,915	119,604
299,618	3,719	234,807	119,397
300,633	3,811	234,669	119,388
301,647	3,705	234,665	119,294
302,662	4,128	234,472	119,513
303,676	4,143	234,233	119,392
304,691	4,053	234,176	119,283
305,706	3,965	234,000	119,114
306,720	3,873	233,956	119,010
307,735	3,715	233,750	118,772
308,749	3,809	233,439	118,676
309,764	3,874	233,168	118,578
310,779	3,435	232,988	118,138
311,793	3,084	232,921	117,823
312,808	3,408	232,786	117,994
313,822	3,343	232,520	117,798
314,837	3,283	232,427	117,695
315,852	3,446	232,112	117,650
316,866	3,578	232,267	117,819
317,881	3,738	232,176	117,885
318,895	3,707	232,090	117,807
319,910	4,055	231,924	117,979
320,925	3,623	231,678	117,513
321,939	3,444	231,464	117,257
322,954	3,592	231,416	117,335
323,968	3,440	231,097	117,047
324,983	3,405	230,873	116,896
325,997	3,716	230,854	117,113
327,012	3,910	230,904	117,276
328,027	3,365	230,707	116,750
329,041	3,694	230,643	116,959
330,056	4,269	230,511	117,318
331,070	4,083	230,393	117,107
332,085	3,983	230,151	116,897
333,100	3,969	230,100	116,851
334,114	3,865	229,903	116,661
335,129	4,002	229,775	116,689
336,143	3,678	229,645	116,368
337,158	3,863	229,446	116,396
338,173	3,970	229,209	116,346
339,187	4,100	229,006	116,331
340,202	3,943	229,020	116,210
341,216	3,806	228,848	116,008
342,231	3,769	228,709	115,900
343,246	3,754	228,495	115,769
344,260	3,796	228,331	115,708
345,275	3,986	228,299	115,824
346,289	3,992	228,049	115,692
347,304	4,010	228,049	115,695
348,319	4,009	227,939	115,628
349,333	4,038	227,558	115,446
350,348	3,767	227,436	115,171
351,362	3,899	227,362	115,222
352,377	3,611	227,105	114,866
353,392	3,456	227,023	114,699
354,406	3,531	226,819	114,641
355,421	194,657	1321,611	1395,900
356,435	156,022	1454,985	1395,890
