DTS Sentinel unit serial number:	SN410029Multiplexer serial number:	ORYXHardware model number:	OX2-SRSoftware version number:	ORYX F/W v4,00 Oryx Data Collector v3.7.2.0data status	okinstallation	B5 Nyhavnadifferential loss correction	single-endedforward channel	channel 2reverse channel	N/Adate	2023/12/13time	21:02:13forward acquisition time	300,00reverse acquisition time	0,00gamma	499,1914k internal	0,3157k external	0,3157temperature offset calibration	1,0000default loss term (dB/km)	0,3820temperature slope calibration	1,0000multiplexer offset coefficient	1,0000multiplexer slope coefficient	1,0000fibre end	0,00T internal ref (°C)	10,31T ext. ref 1 (°C)	-6,61T ext. ref 2 (°C)	-6,67length (m)	temperature (°C)	Stokes	anti-Stokes-744,400	-113,608	0,121	-0,017
-743,385	-135,389	-0,369	0,032
-742,371	26,181	0,156	0,096
-741,356	-171,447	-0,203	0,005
-740,342	378,714	0,124	0,188
-739,327	-35,642	-0,272	-0,108
-738,312	-155,603	0,077	-0,004
-737,298	-70,659	-0,271	-0,075
-736,283	-142,772	0,143	0,010
-735,269	-152,594	-0,442	-0,023
-734,254	280,782	0,099	0,131
-733,239	43,492	-0,439	-0,295
-732,225	-107,252	0,177	0,028
-731,210	-112,485	-0,233	-0,034
-730,196	-74,370	0,070	-0,018
-729,181	800,000	-0,026	0,081
-728,167	800,000	-0,051	-0,114
-727,152	194,822	-0,061	0,068
-726,137	-2,200	-0,155	0,080
-725,123	177,205	0,046	-0,050
-724,108	93,461	-0,048	-0,040
-723,094	-200,000	-0,006	-0,063
-722,079	800,000	-0,046	-0,130
-721,064	-73,193	-0,146	0,039
-720,050	-180,024	0,023	-0,000
-719,035	349,674	0,082	0,120
-718,021	800,000	-0,047	-0,129
-717,006	-200,000	-0,010	-0,146
-715,991	-200,000	0,019	-0,181
-714,977	800,000	-0,043	-0,134
-713,962	-200,000	0,020	-0,103
-712,948	800,000	0,026	0,059
-711,933	82,119	-0,065	-0,052
-710,918	-88,435	0,078	0,017
-709,904	198,172	-0,082	-0,092
-708,889	-200,000	-0,030	-0,102
-707,875	-200,000	-0,019	-0,128
-706,860	-80,394	0,075	-0,018
-705,845	357,072	-0,047	0,070
-704,831	179,638	-0,039	-0,043
-703,816	38,071	0,050	-0,032
-702,802	-149,656	0,034	0,002
-701,787	271,568	-0,021	-0,028
-700,772	-200,000	0,001	0,031
-699,758	-64,167	0,070	-0,021
-698,743	-0,397	0,156	-0,081
-697,729	800,000	-0,031	0,072
-696,714	436,570	-0,089	0,143
-695,699	194,313	-0,116	-0,130
-694,685	-111,212	-0,094	-0,014
-693,670	-108,142	0,090	0,014
-692,656	-200,000	-0,021	-0,117
-691,641	-132,062	0,103	-0,010
-690,627	84,819	-0,053	-0,043
-689,612	-200,000	0,025	0,083
-688,597	-200,000	0,026	0,167
-687,583	280,704	-0,051	-0,067
-686,568	-128,991	0,158	0,016
-685,554	168,883	-0,061	-0,064
-684,539	29,848	0,079	0,049
-683,524	207,383	0,023	-0,027
-682,510	14,236	0,081	-0,046
-681,495	0,002	0,047	0,024
-680,481	80,826	0,034	-0,027
-679,466	-51,933	-0,058	-0,020
-678,451	390,967	-0,068	-0,105
-677,437	265,347	0,044	-0,056
-676,422	-143,470	0,148	-0,010
-675,408	-200,000	-0,004	-0,016
-674,393	-200,000	-0,028	0,099
-673,378	800,000	-0,043	-0,100
-672,364	-200,000	-0,000	-0,064
-671,349	-200,000	0,007	-0,213
-670,335	-200,000	-0,001	0,031
-669,320	-72,373	-0,082	0,022
-668,305	34,884	0,150	0,096
-667,291	139,904	-0,029	0,028
-666,276	334,541	0,041	0,058
-665,262	240,211	0,065	-0,080
-664,247	800,000	0,029	-0,082
-663,232	203,827	0,062	0,071
-662,218	301,401	-0,048	0,066
-661,203	37,799	-0,078	0,051
-660,189	-164,725	-0,086	-0,003
-659,174	-183,075	-0,027	-0,000
-658,159	358,307	-0,047	0,069
-657,145	-200,000	0,031	-0,138
-656,130	-116,809	0,123	-0,016
-655,116	187,648	-0,107	-0,117
-654,101	-200,000	0,040	0,131
-653,086	234,205	-0,117	-0,142
-652,072	62,557	-0,061	0,045
-651,057	-132,878	0,042	0,004
-650,043	292,496	-0,061	-0,082
-649,028	-200,000	0,010	0,129
-648,014	159,742	0,049	0,050
-646,999	-36,818	-0,105	0,041
-645,984	-8,710	-0,077	0,038
-644,970	-200,000	-0,003	-0,072
-643,955	186,143	-0,038	0,042
-642,941	676,611	-0,088	-0,170
-641,926	800,000	-0,034	0,104
-640,911	-108,819	0,133	-0,021
-639,897	-164,868	0,027	0,001
-638,882	-139,305	-0,110	-0,009
-637,868	-200,000	-0,001	-0,102
-636,853	108,363	0,069	0,061
-635,838	-44,922	0,041	-0,015
-634,824	274,930	0,031	-0,040
-633,809	-200,000	0,016	0,074
-632,795	4,314	0,021	0,011
-631,780	-50,795	-0,060	-0,021
-630,765	324,286	-0,064	-0,090
-629,751	-200,000	0,028	-0,208
-628,736	267,543	0,121	-0,156
-627,722	-200,000	0,016	-0,105
-626,707	-200,000	0,018	-0,068
-625,692	283,563	0,086	0,113
-624,678	-111,952	-0,024	-0,004
-623,663	-200,000	0,008	-0,133
-622,649	9,578	0,009	-0,005
-621,634	-200,000	-0,004	0,145
-620,619	151,448	0,038	-0,038
-619,605	-10,070	0,100	0,048
-618,590	179,491	0,125	0,135
-617,576	309,379	-0,083	0,114
-616,561	-200,000	0,001	0,050
-615,546	338,004	0,018	-0,026
-614,532	-200,000	-0,010	-0,067
-613,517	245,100	0,019	-0,023
-612,503	800,000	0,024	-0,063
-611,488	26,047	0,076	-0,046
-610,474	-200,000	0,006	0,039
-609,459	-200,000	0,014	0,076
-608,444	800,000	-0,036	-0,077
-607,430	-200,000	-0,003	-0,068
-606,415	79,761	-0,142	-0,112
-605,401	42,539	-0,033	0,022
-604,386	31,887	0,119	0,075
-603,371	-26,168	0,202	0,087
-602,357	-200,000	-0,005	-0,019
-601,342	-51,745	-0,132	0,045
-600,328	40,078	-0,107	-0,070
-599,313	-64,546	0,035	-0,010
-598,298	-200,000	0,014	-0,074
-597,284	-125,415	0,145	-0,016
-596,269	800,000	0,031	0,085
-595,255	-200,000	-0,019	0,076
-594,240	202,055	0,116	0,132
-593,225	-200,000	0,002	-0,059
-592,211	16,852	-0,091	-0,053
-591,196	34,496	-0,057	-0,036
-590,182	601,576	-0,029	0,053
-589,167	63,583	0,032	-0,024
-588,152	-41,012	-0,099	0,037
-587,138	272,221	0,029	0,038
-586,123	-200,000	0,010	0,050
-585,109	-18,869	-0,028	-0,013
-584,094	-62,049	-0,108	0,033
-583,079	2,601	-0,070	0,037
-582,065	94,701	0,066	0,055
-581,050	143,611	0,043	-0,042
-580,036	-200,000	-0,036	-0,121
-579,021	69,292	-0,131	-0,098
-578,006	66,959	-0,156	-0,117
-576,992	800,000	0,025	-0,069
-575,977	-6,927	0,106	-0,053
-574,963	-102,715	-0,042	-0,007
-573,948	77,796	0,041	0,032
-572,934	-14,280	-0,063	0,030
-571,919	800,000	-0,024	0,053
-570,904	145,692	-0,097	-0,095
-569,890	-200,000	0,001	-0,078
-568,875	-200,000	0,013	0,092
-567,861	-200,000	0,017	-0,120
-566,846	-200,000	-0,003	0,041
-565,831	85,633	-0,093	-0,074
-564,817	800,000	-0,022	0,054
-563,802	-82,967	-0,117	-0,027
-562,788	763,922	-0,045	-0,090
-561,773	86,295	-0,080	0,065
-560,758	800,000	0,021	0,043
-559,744	81,610	-0,014	0,011
-558,729	-200,000	-0,033	0,197
-557,715	250,832	-0,027	0,033
-556,700	299,473	0,017	-0,024
-555,685	-200,000	-0,005	0,053
-554,671	183,565	-0,079	-0,086
-553,656	565,142	-0,008	0,014
-552,642	-41,944	0,209	-0,078
-551,627	535,891	-0,038	0,067
-550,612	-200,000	-0,029	0,100
-549,598	202,106	-0,040	-0,045
-548,583	394,921	-0,071	-0,108
-547,569	311,284	-0,108	0,149
-546,554	137,028	0,038	-0,037
-545,539	-68,521	-0,043	-0,012
-544,525	-48,420	0,098	-0,034
-543,510	17,670	-0,148	-0,086
-542,496	118,901	-0,041	-0,037
-541,481	136,405	-0,076	-0,072
-540,466	-96,667	-0,067	0,013
-539,452	-200,000	0,040	0,137
-538,437	-55,324	-0,131	0,043
-537,423	13,586	-0,052	-0,029
-536,408	800,000	0,036	-0,109
-535,393	-200,000	-0,011	-0,059
-534,379	-115,009	0,108	0,015
-533,364	-58,186	0,120	-0,038
-532,350	166,395	-0,061	-0,063
-531,335	800,000	0,091	-0,200
-530,321	559,006	-0,141	0,250
-529,306	-36,687	-0,101	0,040
-528,291	631,011	0,047	-0,088
-527,277	-68,759	0,138	0,039
-526,262	60,297	0,066	-0,048
-525,248	-114,983	0,198	-0,027
-524,233	153,184	-0,118	0,118
-523,218	103,230	-0,076	0,065
-522,204	-200,000	-0,003	0,021
-521,189	-101,307	-0,103	0,018
-520,175	5,847	-0,123	0,066
-519,160	-97,298	0,090	0,017
-518,145	15,080	0,079	-0,045
-517,131	-27,933	-0,090	0,038
-516,116	784,021	0,047	-0,094
-515,102	-200,000	0,019	0,158
-514,087	212,053	-0,082	0,095
-513,072	388,452	-0,025	0,038
-512,058	800,000	0,035	-0,082
-511,043	542,148	-0,030	0,052
-510,029	-105,472	-0,104	0,017
-509,014	26,628	0,078	0,048
-507,999	-200,000	0,009	0,042
-506,985	123,043	-0,114	-0,104
-505,970	100,520	0,074	-0,063
-504,956	-200,000	0,014	0,072
-503,941	-126,632	-0,108	0,012
-502,926	-58,252	0,048	0,015
-501,912	12,559	0,070	0,039
-500,897	51,255	-0,084	-0,058
-499,883	800,000	0,060	0,122
-498,868	-80,927	-0,156	-0,037
-497,853	494,749	0,052	0,087
-496,839	70,879	0,063	-0,047
-495,824	-200,000	-0,007	0,079
-494,810	-200,000	-0,022	0,120
-493,795	-200,000	0,008	-0,031
-492,781	-96,571	0,126	0,024
-491,766	162,128	-0,112	-0,114
-490,751	800,000	0,045	-0,112
-489,737	-91,414	0,132	-0,027
-488,722	800,000	-0,022	-0,068
-487,708	-53,531	-0,062	-0,021
-486,693	98,006	0,086	0,072
-485,678	-86,244	0,067	-0,015
-484,664	-25,830	-0,053	-0,023
-483,649	-200,000	-0,036	0,131
-482,635	172,352	-0,024	-0,025
-481,620	90,983	-0,026	-0,021
-480,605	228,105	0,092	-0,109
-479,591	-200,000	0,003	0,090
-478,576	70,303	0,084	0,063
-477,562	97,727	-0,030	-0,025
-476,547	-200,000	0,003	0,082
-475,532	382,365	-0,031	0,046
-474,518	-138,397	0,173	-0,014
-473,503	800,000	-0,061	0,173
-472,489	231,372	0,051	-0,061
-471,474	-200,000	-0,023	-0,095
-470,459	-87,062	-0,188	-0,041
-469,445	116,698	-0,075	-0,067
-468,430	-47,218	-0,099	0,035
-467,416	266,909	0,027	-0,035
-466,401	-76,969	-0,086	0,022
-465,386	247,812	-0,007	0,009
-464,372	86,393	0,093	-0,075
-463,357	-127,040	-0,029	0,003
-462,343	21,196	0,132	-0,078
-461,328	-107,669	0,075	0,012
-460,313	77,547	0,056	0,043
-459,299	-200,000	-0,023	0,154
-458,284	11,174	0,044	-0,025
-457,270	420,148	0,060	-0,093
-456,255	-18,119	-0,108	-0,049
-455,241	237,916	-0,039	-0,048
-454,226	-200,000	0,027	-0,114
-453,211	-3,854	0,037	0,019
-452,197	-200,000	0,006	-0,021
-451,182	-117,000	-0,082	-0,011
-450,168	-119,349	0,135	-0,017
-449,153	24,202	-0,093	-0,056
-448,138	34,471	0,080	-0,051
-447,124	800,000	-0,050	-0,113
-446,109	72,803	0,074	-0,056
-445,095	-200,000	-0,001	-0,053
-444,080	-200,000	-0,002	-0,066
-443,065	366,184	0,065	0,096
-442,051	798,849	-0,057	-0,114
-441,036	-200,000	0,028	-0,090
-440,022	800,000	-0,009	-0,024
-439,007	441,232	-0,046	-0,073
-437,992	-102,778	-0,072	-0,012
-436,978	165,634	0,031	0,032
-435,963	-200,000	0,020	0,119
-434,949	-200,000	0,005	0,066
-433,934	-100,171	0,176	-0,032
-432,919	28,832	-0,057	-0,035
-431,905	-92,606	0,146	0,030
-430,890	-140,940	0,192	0,014
-429,876	-200,000	-0,039	0,136
-428,861	-30,295	-0,049	-0,020
-427,846	-200,000	-0,014	0,084
-426,832	655,963	0,042	-0,078
-425,817	614,442	-0,049	-0,089
-424,803	-86,202	-0,037	-0,008
-423,788	-200,000	0,024	0,200
-422,773	-101,017	-0,086	0,015
-421,759	3,253	0,147	0,078
-420,744	-93,575	0,031	-0,006
-419,730	-200,000	0,000	0,045
-418,715	800,000	0,009	-0,026
-417,701	735,700	-0,039	-0,077
-416,686	-98,041	0,068	0,013
-415,671	-11,513	0,051	0,024
-414,657	-200,000	0,008	-0,097
-413,642	-154,807	0,091	0,004
-412,628	-150,682	0,079	-0,004
-411,613	-125,296	0,097	-0,011
-410,598	800,000	0,044	-0,100
-409,584	-180,104	-0,013	0,000
-408,569	-40,249	0,199	-0,075
-407,555	-156,511	0,016	0,001
-406,540	-200,000	0,033	-0,135
-405,525	-200,000	0,003	0,011
-404,511	33,483	0,050	0,032
-403,496	800,000	0,035	-0,097
-402,482	70,128	-0,089	0,067
-401,467	-200,000	0,038	-0,164
-400,452	-200,000	0,008	-0,114
-399,438	-200,000	0,010	-0,161
-398,423	800,000	0,028	-0,089
-397,409	-200,000	-0,035	0,119
-396,394	5,141	0,108	-0,058
-395,379	-28,702	-0,037	-0,015
-394,365	37,895	-0,079	-0,051
-393,350	-200,000	0,016	0,072
-392,336	-200,000	0,003	0,030
-391,321	-200,000	0,026	-0,135
-390,306	-88,460	-0,114	-0,025
-389,292	235,655	-0,017	-0,021
-388,277	257,321	-0,046	-0,057
-387,263	-154,911	0,085	-0,004
-386,248	-29,810	-0,030	0,012
-385,233	95,624	0,025	-0,021
-384,219	-200,000	-0,016	-0,084
-383,204	-24,212	-0,075	0,032
-382,190	800,000	-0,043	0,097
-381,175	800,000	-0,001	0,002
-380,160	159,016	0,035	-0,036
-379,146	19,480	0,091	0,053
-378,131	496,200	0,086	0,144
-377,117	-109,018	-0,092	0,014
-376,102	800,000	-0,037	0,107
-375,088	458,744	-0,034	0,056
-374,073	301,864	-0,110	-0,148
-373,058	-121,081	0,151	0,018
-372,044	475,916	-0,050	-0,082
-371,029	40,618	-0,039	-0,026
-370,015	-200,000	-0,011	-0,070
-369,000	-200,000	-0,022	-0,112
-367,985	3,043	0,037	0,019
-366,971	77,340	0,036	0,028
-365,956	59,437	0,053	-0,038
-364,942	162,695	-0,086	-0,087
-363,927	800,000	0,064	0,175
-362,912	154,120	-0,086	0,086
-361,898	-200,000	-0,036	-0,206
-360,883	249,141	-0,023	-0,029
-359,869	137,467	0,042	0,040
-358,854	216,582	-0,026	-0,030
-357,839	-12,887	0,099	0,047
-356,825	800,000	-0,064	0,202
-355,810	-200,000	-0,013	-0,047
-354,796	541,152	0,046	-0,079
-353,781	800,000	0,013	-0,035
-352,766	-116,079	-0,074	0,010
-351,752	415,681	0,033	-0,052
-350,737	25,418	0,038	0,023
-349,723	215,831	0,167	0,193
-348,708	422,384	0,058	0,091
-347,693	61,305	-0,058	0,042
-346,679	202,576	0,041	-0,045
-345,664	4,533	-0,088	-0,047
-344,650	-69,062	-0,111	-0,031
-343,635	-111,776	-0,048	0,007
-342,620	65,282	0,071	0,052
-341,606	800,000	-0,032	-0,078
-340,591	122,950	0,034	0,031
-339,577	483,777	0,036	-0,060
-338,562	-129,507	-0,132	-0,013
-337,548	106,865	-0,038	-0,033
-336,533	-200,000	-0,002	0,051
-335,518	107,779	-0,020	-0,017
-334,504	301,573	0,042	-0,056
-333,489	-200,000	-0,024	-0,091
-332,475	-138,803	-0,048	0,004
-331,460	-200,000	-0,014	-0,103
-330,445	73,463	-0,068	0,051
-329,431	800,000	-0,014	-0,041
-328,416	-200,000	0,027	0,108
-327,402	-64,601	0,034	-0,010
-326,387	800,000	0,019	-0,040
-325,372	59,342	-0,101	-0,072
-324,358	-6,308	-0,149	0,073
-323,343	50,366	0,073	-0,050
-322,329	800,000	0,039	-0,085
-321,314	-150,266	0,070	-0,004
-320,299	88,631	0,106	0,085
-319,285	328,024	-0,029	0,041
-318,270	800,000	-0,037	0,114
-317,256	294,007	-0,025	-0,034
-316,241	-28,558	0,009	0,004
-315,226	58,508	-0,094	-0,067
-314,212	-111,623	0,095	0,014
-313,197	-200,000	0,013	0,073
-312,183	64,210	-0,064	-0,047
-311,168	800,000	-0,005	-0,011
-310,153	800,000	0,059	-0,142
-309,139	-85,342	-0,190	-0,043
-308,124	-200,000	0,026	0,115
-307,110	160,568	0,015	-0,015
-306,095	800,000	-0,029	0,083
-305,080	178,834	-0,038	0,040
-304,066	96,879	0,067	0,056
-303,051	-47,665	-0,120	-0,042
-302,037	-200,000	0,014	-0,060
-301,022	92,783	0,048	-0,039
-300,008	-55,660	0,230	0,074
-298,993	-87,371	0,148	0,032
-297,978	19,568	-0,071	0,041
-296,964	-200,000	-0,021	0,087
-295,949	800,000	-0,049	0,108
-294,935	277,082	0,028	-0,037
-293,920	45,865	0,150	-0,100
-292,905	67,961	0,142	0,105
-291,891	-5,844	-0,089	-0,044
-290,876	218,441	0,087	-0,101
-289,862	373,316	0,032	-0,047
-288,847	-16,257	-0,142	-0,065
-287,832	-21,712	-0,078	-0,034
-286,818	370,615	0,052	-0,076
-285,803	-109,153	-0,067	0,010
-284,789	38,541	0,113	0,073
-283,774	-166,340	-0,167	-0,005
-282,759	800,000	0,020	0,040
-281,745	800,000	0,050	-0,109
-280,730	91,113	-0,104	0,084
-279,716	-200,000	0,024	-0,101
-278,701	-200,000	0,024	0,114
-277,686	-200,000	-0,025	0,121
-276,672	-200,000	-0,001	0,098
-275,657	-30,088	-0,033	-0,014
-274,643	-41,955	-0,049	0,018
-273,628	72,256	-0,019	-0,014
-272,613	111,308	-0,029	0,025
-271,599	225,621	-0,098	-0,115
-270,584	-83,130	0,054	-0,012
-269,570	165,528	-0,057	0,059
-268,555	315,070	0,070	0,096
-267,540	-200,000	-0,020	0,106
-266,526	-21,180	-0,050	-0,022
-265,511	-97,685	0,109	0,020
-264,497	-200,000	0,007	0,130
-263,482	153,106	-0,047	0,047
-262,467	800,000	0,001	0,002
-261,453	118,884	-0,044	0,039
-260,438	80,206	-0,057	-0,044
-259,424	-54,192	-0,098	0,032
-258,409	93,639	0,095	0,078
-257,395	266,325	-0,013	-0,016
-256,380	-3,791	-0,028	0,014
-255,365	-200,000	-0,006	-0,035
-254,351	645,150	-0,102	0,189
-253,336	-200,000	0,011	-0,093
-252,322	-200,000	0,013	-0,162
-251,307	50,648	-0,042	0,028
-250,292	85,919	0,076	-0,061
-249,278	119,601	0,039	-0,035
-248,263	-108,991	-0,050	0,008
-247,249	800,000	0,009	0,024
-246,234	-71,823	-0,087	-0,023
-245,219	-99,083	-0,088	-0,016
-244,205	-200,000	-0,013	0,098
-243,190	179,501	0,060	-0,063
-242,176	-150,324	0,002	0,000
-241,161	84,110	-0,081	-0,064
-240,146	41,530	0,109	0,072
-239,132	-98,703	0,029	-0,005
-238,117	-200,000	0,021	-0,166
-237,103	800,000	0,028	-0,084
-236,088	-200,000	-0,005	0,023
-235,073	477,310	-0,081	0,133
-234,059	697,793	0,030	0,057
-233,044	88,515	0,079	-0,064
-232,030	800,000	-0,030	-0,067
-231,015	-200,000	0,025	-0,083
-230,000	-200,000	0,011	0,071
-228,986	137,263	-0,043	-0,041
-227,971	800,000	-0,007	-0,020
-226,957	-200,000	-0,006	0,128
-225,942	-200,000	-0,011	0,079
-224,927	-200,000	0,002	-0,043
-223,913	79,786	-0,149	-0,115
-222,898	59,504	0,091	0,065
-221,884	148,130	0,036	0,035
-220,869	800,000	0,035	0,073
-219,855	474,966	-0,033	0,053
-218,840	28,506	0,087	0,053
-217,825	137,383	0,066	0,062
-216,811	-157,664	-0,122	0,005
-215,796	223,100	-0,076	-0,089
-214,782	-43,213	0,136	-0,050
-213,767	-200,000	0,018	0,090
-212,752	-89,287	0,033	-0,007
-211,738	-200,000	-0,017	0,116
-210,723	239,651	0,116	0,139
-209,709	-41,725	-0,052	0,019
-208,694	-200,000	-0,033	0,267
-207,679	429,385	0,043	-0,067
-206,665	-200,000	-0,028	0,000
-205,650	293,500	-0,105	0,139
-204,636	-39,728	0,086	-0,032
-203,621	269,446	0,044	-0,056
-202,606	800,000	-0,027	-0,084
-201,592	538,494	0,022	-0,038
-200,577	-186,829	0,168	-0,002
-199,563	-200,000	-0,023	0,110
-198,548	-200,000	0,012	0,140
-197,533	800,000	0,052	0,107
-196,519	-147,013	-0,189	0,012
-195,504	299,921	-0,086	-0,114
-194,490	-200,000	-0,005	0,065
-193,475	800,000	-0,039	-0,079
-192,460	-200,000	0,012	0,055
-191,446	-111,926	0,044	0,006
-190,431	-79,814	0,073	-0,018
-189,417	161,971	0,091	0,092
-188,402	600,349	-0,019	0,034
-187,387	-73,987	-0,035	-0,009
-186,373	-68,626	-0,049	0,014
-185,358	-87,118	0,054	-0,012
-184,344	-149,519	0,082	0,005
-183,329	-173,618	0,036	0,001
-182,315	133,204	0,037	0,035
-181,300	-98,905	0,149	0,027
-180,285	-23,118	-0,069	-0,030
-179,271	460,357	-0,055	-0,089
-178,256	800,000	-0,018	-0,042
-177,242	-200,000	-0,029	0,102
-176,227	220,303	-0,054	-0,062
-175,212	708,288	0,023	-0,045
-174,198	58,134	-0,052	-0,036
-173,183	243,330	-0,050	-0,061
-172,169	-200,000	-0,014	0,091
-171,154	95,626	-0,061	0,050
-170,139	374,277	-0,053	0,079
-169,125	199,763	0,038	0,042
-168,110	-70,955	0,082	-0,022
-167,096	-18,879	0,048	-0,022
-166,081	80,889	-0,017	-0,013
-165,066	-147,025	-0,122	-0,007
-164,052	-200,000	-0,002	0,030
-163,037	-66,934	0,100	0,028
-162,023	294,120	-0,057	-0,075
-161,008	172,170	0,063	0,065
-159,993	800,000	-0,056	-0,114
-158,979	229,345	-0,058	-0,068
-157,964	55,658	0,073	-0,051
-156,950	18,110	0,112	0,064
-155,935	607,627	-0,033	0,059
-154,920	65,981	0,155	0,113
-153,906	417,632	-0,071	0,110
-152,891	-98,980	-0,063	0,011
-151,877	-127,895	0,110	-0,011
-150,862	-177,809	-0,071	0,001
-149,847	114,852	0,032	0,028
-148,833	338,981	0,012	0,018
-147,818	-200,000	-0,006	0,074
-146,804	-200,000	-0,002	0,081
-145,789	123,895	0,081	0,073
-144,775	326,355	0,092	0,127
-143,760	-28,613	-0,106	0,044
-142,745	360,887	-0,009	0,012
-141,731	-80,499	0,093	0,022
-140,716	12,826	0,110	-0,061
-139,702	800,000	0,015	-0,037
-138,687	800,000	-0,016	-0,040
-137,672	309,244	0,055	0,074
-136,658	-200,000	-0,156	-0,000
-135,643	-120,492	0,112	-0,014
-134,629	-11,368	0,040	-0,019
-133,614	207,822	-0,030	0,034
-132,599	-200,000	-0,021	0,141
-131,585	47,874	0,048	-0,032
-130,570	-200,000	-0,005	0,021
-129,556	-200,000	0,019	0,075
-128,541	-200,000	0,001	-0,086
-127,526	800,000	-0,055	0,117
-126,512	38,040	0,075	0,048
-125,497	800,000	0,033	0,079
-124,483	800,000	-0,036	-0,094
-123,468	-57,764	-0,154	0,048
-122,453	201,114	0,005	0,005
-121,439	-148,696	0,041	0,002
-120,424	15,318	-0,109	0,061
-119,410	80,959	0,059	0,045
-118,395	92,553	-0,111	0,090
-117,380	800,000	0,048	0,121
-116,366	-19,116	0,115	-0,051
-115,351	-200,000	-0,013	0,046
-114,337	-200,000	-0,013	-0,146
-113,322	99,923	-0,045	0,038
-112,307	155,700	0,030	-0,030
-111,293	-200,000	0,003	0,033
-110,278	9,127	-0,044	0,024
-109,264	699,018	0,059	-0,112
-108,249	178,316	-0,038	-0,040
-107,234	252,589	-0,063	-0,078
-106,220	-200,000	0,001	-0,019
-105,205	-200,000	0,009	0,131
-104,191	111,278	-0,070	-0,061
-103,176	-108,245	0,154	0,024
-102,162	800,000	-0,092	0,218
-101,147	-164,026	-0,187	0,006
-100,132	-6,932	0,035	-0,017
-99,118	-171,154	-0,040	0,001
-98,103	265,627	0,108	0,136
-97,089	800,000	-0,024	0,058
-96,074	173,077	0,052	0,054
-95,059	-23,210	-0,035	-0,015
-94,045	800,000	-0,017	0,047
-93,030	-135,258	-0,085	-0,007
-92,016	-200,000	0,000	-0,141
-91,001	296,194	-0,058	0,076
-89,986	-200,000	-0,031	0,140
-88,972	-50,159	-0,039	0,013
-87,957	-157,006	0,095	-0,004
-86,943	-200,000	-0,017	0,072
-85,928	-200,000	-0,042	-0,145
-84,913	100,870	0,081	-0,068
-83,899	-200,000	-0,025	0,081
-82,884	535,745	-0,111	0,189
-81,870	800,000	-0,060	0,133
-80,855	118,398	-0,053	-0,047
-79,840	-200,000	0,003	-0,036
-78,826	-158,236	-0,166	-0,007
-77,811	621,025	0,087	-0,158
-76,797	-76,067	-0,058	0,015
-75,782	-5,944	0,156	-0,076
-74,767	-200,000	0,002	-0,091
-73,753	-52,161	0,090	0,030
-72,738	800,000	-0,022	0,068
-71,724	-200,000	-0,021	-0,131
-70,709	451,041	-0,063	-0,101
-69,694	-4,448	-0,053	-0,026
-68,680	249,179	-0,096	-0,117
-67,665	-200,000	0,027	0,110
-66,651	104,994	-0,090	0,076
-65,636	-39,707	0,059	0,022
-64,622	98,304	-0,072	-0,059
-63,607	247,538	0,042	0,051
-62,592	-200,000	0,008	-0,031
-61,578	800,000	0,014	-0,034
-60,563	-75,503	-0,104	-0,026
-59,549	-200,000	-0,062	0,228
-58,534	55,128	-2,493	-1,728
-57,519	-200,000	0,129	-0,558
-56,505	-200,000	-1,518	-5,467
-55,490	291,160	0,904	1,183
-54,476	800,000	5,301	11,841
-53,461	-200,000	20,903	340,051
-52,446	800,000	763,125	2363,430
-51,432	538,984	1668,299	2859,618
-50,417	111,780	1636,348	1417,847
-49,403	79,928	1286,499	991,602
-48,388	28,295	1028,819	622,412
-47,373	19,605	992,969	571,886
-46,359	14,817	980,671	548,992
-45,344	10,846	977,283	533,972
-44,330	11,352	974,987	534,364
-43,315	10,409	973,274	530,302
-42,300	10,369	971,854	529,377
-41,286	10,418	971,064	529,086
-40,271	10,360	970,209	528,409
-39,257	10,342	969,184	527,769
-38,242	10,330	968,272	527,212
-37,227	10,348	967,449	526,804
-36,213	10,318	966,712	526,284
-35,198	10,260	965,928	525,646
-34,184	10,380	965,099	525,564
-33,169	10,306	964,125	524,773
-32,154	10,336	963,365	524,435
-31,140	10,404	962,164	523,982
-30,125	10,420	961,498	523,651
-29,111	10,306	960,838	522,900
-28,096	10,392	960,152	522,787
-27,082	10,400	959,329	522,343
-26,067	10,372	958,579	521,822
-25,052	10,361	957,815	521,351
-24,038	10,361	957,102	520,943
-23,023	10,287	956,616	520,416
-22,009	10,365	955,941	520,281
-20,994	10,397	955,267	519,999
-19,979	10,291	954,826	519,395
-18,965	10,277	954,240	519,010
-17,950	10,340	953,453	518,766
-16,936	10,315	952,753	518,283
-15,921	10,302	951,951	517,786
-14,906	10,256	951,261	517,240
-13,892	10,238	950,569	516,786
-12,877	10,262	949,858	516,457
-11,863	10,235	949,350	516,071
-10,848	10,225	948,757	515,697
-9,833	10,309	948,358	515,731
-8,819	10,255	947,631	515,140
-7,804	10,222	946,851	514,591
-6,790	10,244	946,351	514,368
-5,775	10,311	945,815	514,270
-4,760	10,314	945,137	513,893
-3,746	10,240	944,579	513,332
-2,731	10,037	943,969	512,332
-1,717	10,013	943,311	511,877
-0,702	10,083	942,404	511,588
0,313	9,962	941,788	511,643
1,327	13,676	939,607	522,199
2,342	22,890	789,984	463,442
3,356	18,484	454,764	260,052
4,371	-9,582	315,430	150,307
5,386	-13,558	297,323	137,616
6,400	-15,873	291,478	132,583
7,415	-15,658	288,834	131,583
8,429	-16,250	287,184	130,236
9,444	-16,319	286,245	129,730
10,459	-16,190	285,662	129,581
11,473	-16,133	285,083	129,363
12,488	-16,073	284,594	129,188
13,502	-16,105	284,194	128,964
14,517	-16,071	283,755	128,786
15,531	-15,912	283,322	128,733
16,546	-15,779	283,047	128,725
17,561	-15,751	282,496	128,490
18,575	-15,461	282,277	128,660
19,590	-15,652	281,902	128,293
20,604	-15,549	281,547	128,219
21,619	-15,685	281,139	127,891
22,634	-15,602	280,807	127,808
23,648	-15,471	280,649	127,851
24,663	-15,595	280,285	127,555
25,677	-15,589	280,091	127,461
26,692	-15,558	279,886	127,386
27,707	-15,535	279,511	127,226
28,721	-15,372	279,073	127,171
29,736	-15,715	278,979	126,789
30,750	-15,523	278,650	126,811
31,765	-15,641	278,405	126,576
32,780	-15,509	278,066	126,536
33,794	-15,478	278,110	126,575
34,809	-15,491	277,660	126,347
35,823	-15,537	277,406	126,176
36,838	-15,523	277,167	126,070
37,853	-15,557	276,921	125,913
38,867	-15,517	276,739	125,857
39,882	-15,567	276,424	125,656
40,896	-15,612	276,235	125,516
41,911	-15,517	275,970	125,474
42,926	-15,427	275,924	125,527
43,940	-15,649	275,404	125,070
44,955	-15,468	275,162	125,120
45,969	-15,498	274,956	124,986
46,984	-15,495	274,724	124,873
47,999	-15,433	274,541	124,836
49,013	-15,397	274,361	124,777
50,028	-15,415	274,243	124,696
51,042	-15,477	273,984	124,508
52,057	-15,433	273,475	124,308
53,071	-15,525	273,455	124,202
54,086	-15,329	273,154	124,237
55,101	-15,377	272,993	124,107
56,115	-15,358	272,596	123,934
57,130	-15,424	272,377	123,762
58,144	-15,478	272,135	123,590
59,159	-15,664	271,894	123,297
60,174	-15,672	271,713	123,197
61,188	-15,533	271,475	123,207
62,203	-15,650	271,380	123,044
63,217	-15,497	271,150	123,071
64,232	-15,582	270,898	122,866
65,247	-15,516	270,451	122,714
66,261	-15,721	270,328	122,458
67,276	-15,615	270,135	122,457
68,290	-15,482	269,862	122,445
69,305	-15,430	269,665	122,393
70,320	-15,524	269,485	122,213
71,334	-15,376	269,285	122,248
72,349	-15,607	268,977	121,886
73,363	-15,721	268,716	121,651
74,378	-15,619	268,465	121,620
75,393	-15,673	268,162	121,423
76,407	-15,581	268,010	121,427
77,422	-15,530	267,899	121,413
78,436	-15,413	267,597	121,371
79,451	-15,703	267,387	121,002
80,466	-15,447	267,199	121,139
81,480	-15,474	266,902	120,968
82,495	-15,691	266,783	120,707
83,509	-15,644	266,657	120,681
84,524	-15,350	266,258	120,758
85,539	-15,256	266,147	120,781
86,553	-15,310	265,937	120,626
87,568	-15,393	265,681	120,424
88,582	-15,455	265,476	120,265
89,597	-15,565	265,275	120,064
90,611	-15,637	265,109	119,913
91,626	-15,521	264,888	119,907
92,641	-15,255	264,771	120,083
93,655	-15,440	264,464	119,767
94,670	-15,446	264,225	119,642
95,684	-15,544	263,954	119,420
96,699	-15,497	263,726	119,349
97,714	-15,502	263,644	119,296
98,728	-15,480	263,488	119,235
99,743	-15,426	263,320	119,196
100,757	-15,401	262,927	119,031
101,772	-15,504	262,762	118,853
102,787	-15,370	262,571	118,876
103,801	-15,499	262,289	118,623
104,816	-15,442	262,214	118,629
105,830	-15,630	262,122	118,410
106,845	-15,609	261,761	118,255
107,860	-15,679	261,705	118,157
108,874	-15,668	261,371	118,004
109,889	-15,514	261,084	118,001
110,903	-15,569	260,891	117,855
111,918	-15,493	260,704	117,827
112,933	-15,486	260,475	117,719
113,947	-15,713	260,331	117,443
114,962	-15,593	260,235	117,495
115,976	-15,633	260,013	117,349
116,991	-15,574	259,770	117,281
118,006	-15,571	259,689	117,236
119,020	-15,417	259,371	117,218
120,035	-15,382	259,164	117,145
121,049	-15,493	259,008	116,966
122,064	-15,689	258,925	116,747
123,079	-15,495	258,574	116,748
124,093	-15,555	258,415	116,613
125,108	-15,478	258,171	116,560
126,122	-15,351	258,030	116,597
127,137	-15,310	257,916	116,571
128,151	-15,392	257,648	116,368
129,166	-15,503	257,463	116,177
130,181	-15,398	257,214	116,146
131,195	-15,489	256,867	115,900
132,210	-15,517	256,813	115,840
133,224	-15,501	256,574	115,736
134,239	-15,636	256,406	115,532
135,254	-15,553	256,173	115,490
136,268	-15,756	255,994	115,223
137,283	-15,454	255,931	115,446
138,297	-15,321	255,674	115,435
139,312	-15,435	255,356	115,183
140,327	-15,673	255,161	114,878
141,341	-15,684	255,002	114,787
142,356	-15,568	254,845	114,806
143,370	-15,649	254,556	114,596
144,385	-15,465	254,541	114,738
145,400	-15,477	254,253	114,587
146,414	-15,497	254,124	114,501
147,429	-15,514	253,960	114,403
148,443	-15,477	253,630	114,276
149,458	-15,482	253,531	114,217
150,473	-15,498	253,368	114,119
151,487	-15,328	253,042	114,108
152,502	-15,453	252,946	113,948
153,516	-15,334	252,758	113,954
154,531	-15,446	252,635	113,793
155,546	-15,599	252,297	113,500
156,560	-15,597	252,252	113,471
157,575	-15,677	252,061	113,307
158,589	-15,700	251,822	113,170
159,604	-15,680	251,570	113,064
160,619	-15,360	251,354	113,229
161,633	-15,570	251,306	113,018
162,648	-15,512	251,110	112,969
163,662	-15,368	250,989	113,027
164,677	-15,505	250,794	112,814
165,692	-15,553	250,724	112,731
166,706	-15,339	250,373	112,744
167,721	-15,450	250,228	112,575
168,735	-15,439	250,080	112,508
169,750	-15,435	249,920	112,428
170,764	-15,539	249,708	112,236
171,779	-15,580	249,610	112,147
172,794	-15,580	249,422	112,053
173,808	-15,376	249,073	112,058
174,823	-15,409	249,013	111,993
175,837	-15,546	248,898	111,816
176,852	-15,652	248,621	111,592
177,867	-15,534	248,581	111,664
178,881	-15,302	248,316	111,730
179,896	-15,382	248,076	111,544
180,910	-15,481	247,869	111,358
181,925	-15,514	247,780	111,281
182,940	-15,687	247,672	111,078
183,954	-15,569	247,475	111,078
184,969	-15,346	247,151	111,109
185,983	-15,336	246,978	111,030
186,998	-15,323	246,998	111,039
188,013	-15,354	246,857	110,940
189,027	-15,449	246,581	110,727
190,042	-15,500	246,406	110,597
191,056	-15,537	246,104	110,421
192,071	-15,416	245,890	110,415
193,086	-15,724	245,789	110,104
194,100	-15,671	245,653	110,077
195,115	-15,346	245,358	110,204
196,129	-15,614	245,269	109,933
197,144	-15,752	245,081	109,725
198,159	-15,588	244,938	109,786
199,173	-15,606	244,685	109,649
200,188	-15,688	244,365	109,428
201,202	-15,563	244,300	109,492
202,217	-15,532	244,200	109,463
203,232	-15,252	244,063	109,622
204,246	-15,697	243,685	109,077
205,261	-16,345	243,315	108,370
206,275	-15,605	243,510	109,054
207,290	-11,347	245,104	113,273
208,304	-4,540	247,351	119,961
209,319	-0,593	248,276	123,683
210,334	0,444	248,568	124,679
211,348	1,439	248,834	125,630
212,363	1,614	248,751	125,722
213,377	2,266	248,710	126,232
214,392	2,484	248,800	126,447
215,407	2,577	248,746	126,486
216,421	2,611	248,438	126,346
217,436	2,924	248,309	126,528
218,450	2,575	248,065	126,104
219,465	2,626	247,897	126,050
220,480	2,749	247,718	126,049
221,494	2,269	247,476	125,518
222,509	2,003	247,165	125,130
223,523	1,684	246,942	124,743
224,538	1,496	246,668	124,438
225,553	1,364	246,551	124,260
226,567	1,283	246,318	124,065
227,582	1,422	246,111	124,064
228,596	1,513	245,917	124,029
229,611	1,562	245,865	124,032
230,626	1,506	245,716	123,900
231,640	1,524	245,638	123,865
232,655	1,389	245,343	123,595
233,669	1,495	245,143	123,569
234,684	1,367	244,981	123,372
235,699	1,303	244,907	123,271
236,713	1,449	244,771	123,311
237,728	1,383	244,716	123,218
238,742	1,433	244,422	123,100
239,757	1,486	244,334	123,089
240,772	1,542	244,202	123,056
241,786	1,483	243,990	122,890
242,801	1,548	243,661	122,767
243,815	1,271	243,603	122,502
244,830	1,638	243,490	122,732
245,844	1,321	243,233	122,334
246,859	1,250	243,191	122,245
247,874	1,435	242,968	122,272
248,888	1,629	242,828	122,347
249,903	1,578	242,655	122,208
250,917	1,574	242,626	122,180
251,932	1,862	242,353	122,263
252,947	1,759	242,234	122,109
253,961	1,667	242,074	121,943
254,976	1,455	241,856	121,652
255,990	1,400	241,694	121,516
257,005	1,638	241,602	121,650
258,020	1,557	241,298	121,421
259,034	1,445	241,234	121,288
260,049	1,575	241,234	121,381
261,063	1,292	240,940	120,996
262,078	1,449	240,820	121,050
263,093	1,642	240,544	121,056
264,107	1,482	240,469	120,878
265,122	1,509	240,358	120,834
266,136	1,587	240,216	120,814
267,151	1,463	240,092	120,642
268,166	1,535	239,896	120,590
269,180	1,478	239,654	120,412
270,195	1,396	239,587	120,302
271,209	1,528	239,425	120,315
272,224	1,559	239,374	120,304
273,239	1,321	239,152	119,992
274,253	1,426	239,020	119,999
275,268	1,537	238,755	119,943
276,282	1,473	238,579	119,793
277,297	1,349	238,437	119,613
278,312	1,312	238,408	119,558
279,326	1,385	238,282	119,542
280,341	1,665	237,994	119,608
281,355	1,739	237,784	119,551
282,370	1,546	237,660	119,326
283,384	1,281	237,757	119,154
284,399	1,530	237,417	119,169
285,414	1,421	237,364	119,046
286,428	1,657	237,004	119,042
287,443	1,626	236,965	118,986
288,457	1,680	236,762	118,916
289,472	1,743	236,455	118,801
290,487	1,440	236,406	118,528
291,501	1,540	236,353	118,570
292,516	1,582	236,081	118,455
293,530	1,693	236,054	118,518
294,545	1,559	235,961	118,356
295,560	1,845	235,779	118,477
296,574	1,536	235,654	118,163
297,589	1,713	235,536	118,231
298,603	1,966	235,306	118,303
299,618	1,576	235,099	117,884
300,633	1,692	235,091	117,960
301,647	1,800	234,934	117,955
302,662	1,950	234,660	117,924
303,676	1,748	234,580	117,716
304,691	1,590	234,431	117,508
305,706	1,826	234,110	117,520
306,720	1,620	234,114	117,351
307,735	1,789	233,955	117,392
308,749	1,760	233,839	117,301
309,764	1,655	233,743	117,161
310,779	1,504	233,564	116,944
311,793	1,649	233,295	116,911
312,808	1,596	233,126	116,775
313,822	1,717	233,073	116,832
314,837	1,699	232,972	116,756
315,852	1,851	232,774	116,764
316,866	1,835	232,627	116,667
317,881	1,852	232,523	116,617
318,895	1,979	232,335	116,611
319,910	1,803	232,047	116,321
320,925	1,643	231,913	116,120
321,939	1,792	231,767	116,151
322,954	1,485	231,707	115,875
323,968	1,574	231,567	115,863
324,983	1,911	231,344	115,999
325,997	1,768	231,372	115,893
327,012	1,703	231,009	115,652
328,027	1,563	230,998	115,529
329,041	1,718	230,919	115,598
330,056	1,777	230,713	115,529
331,070	1,974	230,482	115,553
332,085	1,745	230,322	115,288
333,100	1,612	230,159	115,095
334,114	1,441	230,031	114,891
335,129	1,559	230,021	114,966
336,143	1,815	229,667	114,973
337,158	1,790	229,726	114,973
338,173	1,785	229,394	114,792
339,187	1,814	229,369	114,792
340,202	1,840	229,244	114,739
341,216	1,985	229,022	114,727
342,231	1,777	228,812	114,454
343,246	1,700	228,688	114,324
344,260	1,772	228,568	114,308
345,275	1,914	228,585	114,414
346,289	1,845	228,383	114,250
347,304	1,757	228,156	114,060
348,319	2,054	227,886	114,138
349,333	1,713	227,754	113,806
350,348	1,565	227,770	113,693
351,362	1,757	227,673	113,778
352,377	1,869	227,306	113,669
353,392	1,939	227,280	113,698
354,406	1,800	227,087	113,487
355,421	193,528	1312,466	1382,753
356,435	155,129	1444,599	1382,656
