DTS Sentinel unit serial number:	SN410029Multiplexer serial number:	ORYXHardware model number:	OX2-SRSoftware version number:	ORYX F/W v4,00 Oryx Data Collector v3.7.2.0data status	okinstallation	B5 Nyhavnadifferential loss correction	single-endedforward channel	channel 2reverse channel	N/Adate	2023/12/13time	16:07:13forward acquisition time	300,00reverse acquisition time	0,00gamma	499,1914k internal	0,3160k external	0,3160temperature offset calibration	1,0000default loss term (dB/km)	0,3820temperature slope calibration	1,0000multiplexer offset coefficient	1,0000multiplexer slope coefficient	1,0000fibre end	0,00T internal ref (°C)	14,88T ext. ref 1 (°C)	-1,69T ext. ref 2 (°C)	-1,93length (m)	temperature (°C)	Stokes	anti-Stokes-744,400	95,466	0,041	0,034
-743,385	-141,261	-0,234	-0,017
-742,371	-135,631	0,187	0,016
-741,356	-124,877	-0,272	0,030
-740,342	-50,611	0,123	0,042
-739,327	-97,540	-0,317	0,060
-738,312	151,081	0,080	-0,080
-737,298	-40,899	-0,292	-0,111
-736,283	-200,000	0,019	-0,115
-735,269	58,212	-0,175	0,126
-734,254	488,295	0,062	0,104
-733,239	-27,223	-0,558	-0,238
-732,225	-37,360	0,264	0,103
-731,210	100,449	0,136	-0,116
-730,196	476,564	0,029	-0,049
-729,181	675,466	-0,066	-0,127
-728,167	800,000	-0,014	0,044
-727,152	-200,000	0,004	-0,050
-726,137	70,806	0,050	0,038
-725,123	800,000	0,044	0,093
-724,108	231,548	-0,075	-0,091
-723,094	-29,769	-0,057	0,024
-722,079	181,203	0,060	0,065
-721,064	-22,246	-0,116	-0,051
-720,050	47,374	0,148	-0,102
-719,035	462,660	0,056	0,092
-718,021	-200,000	0,020	-0,196
-717,006	-200,000	-0,027	-0,155
-715,991	800,000	-0,048	0,123
-714,977	23,551	-0,125	-0,076
-713,962	-48,893	-0,079	0,028
-712,948	559,003	-0,055	-0,097
-711,933	-85,278	-0,158	0,036
-710,918	224,120	0,030	0,036
-709,904	365,407	-0,158	-0,235
-708,889	-200,000	0,007	-0,108
-707,875	-200,000	0,002	0,017
-706,860	156,188	-0,077	-0,078
-705,845	71,894	-0,175	-0,134
-704,831	66,198	-0,157	-0,117
-703,816	165,366	0,027	-0,028
-702,802	-47,483	-0,010	0,003
-701,787	305,385	0,044	-0,061
-700,772	49,639	-0,098	0,068
-699,758	800,000	-0,017	0,043
-698,743	-36,527	-0,029	0,011
-697,729	-200,000	0,003	-0,096
-696,714	-58,902	0,056	-0,018
-695,699	-19,143	-0,059	0,027
-694,685	-126,561	-0,204	-0,022
-693,670	-163,858	-0,078	-0,003
-692,656	207,765	0,055	0,063
-691,641	371,725	-0,056	-0,084
-690,627	-158,878	-0,069	0,003
-689,612	-14,547	-0,120	0,057
-688,597	-5,141	-0,039	-0,020
-687,583	753,863	-0,056	-0,111
-686,568	27,595	0,023	0,014
-685,554	243,204	-0,030	-0,037
-684,539	347,733	0,064	-0,093
-683,524	-136,554	-0,065	0,005
-682,510	800,000	0,045	-0,091
-681,495	-183,995	-0,086	0,001
-680,481	-50,305	-0,103	-0,036
-679,466	202,664	-0,055	0,063
-678,451	-88,027	-0,139	-0,030
-677,437	-200,000	-0,001	-0,055
-676,422	139,958	0,021	0,021
-675,408	389,286	-0,076	-0,115
-674,393	800,000	-0,027	-0,064
-673,378	-158,262	-0,086	-0,004
-672,364	-200,000	0,016	-0,101
-671,349	62,049	-0,085	0,062
-670,335	800,000	-0,021	0,051
-669,320	538,616	-0,038	-0,066
-668,305	-159,257	0,042	-0,002
-667,291	173,083	0,057	0,060
-666,276	-200,000	-0,009	0,045
-665,262	800,000	-0,027	-0,081
-664,247	451,500	0,041	-0,067
-663,232	-200,000	0,012	-0,048
-662,218	-174,400	-0,067	-0,001
-661,203	800,000	-0,057	-0,184
-660,189	-79,805	-0,020	-0,005
-659,174	-83,815	0,065	-0,015
-658,159	431,984	0,032	-0,052
-657,145	-200,000	-0,010	-0,091
-656,130	192,093	-0,048	-0,053
-655,116	32,996	-0,032	-0,020
-654,101	-180,397	0,064	-0,001
-653,086	-200,000	0,013	-0,048
-652,072	800,000	0,087	-0,256
-651,057	800,000	0,041	-0,125
-650,043	238,811	-0,044	0,054
-649,028	-76,153	-0,109	-0,028
-648,014	90,322	0,130	-0,107
-646,999	-105,339	0,011	0,002
-645,984	-200,000	-0,029	-0,137
-644,970	131,087	-0,017	-0,016
-643,955	-143,476	-0,071	0,005
-642,941	-200,000	-0,030	-0,198
-641,926	-144,335	0,065	0,004
-640,911	-200,000	0,001	0,008
-639,897	-200,000	-0,013	0,146
-638,882	800,000	-0,028	-0,091
-637,868	95,489	0,105	-0,088
-636,853	156,395	-0,032	0,033
-635,838	800,000	0,030	-0,074
-634,824	30,643	-0,021	-0,013
-633,809	34,363	0,096	-0,062
-632,795	31,078	0,063	0,039
-631,780	-200,000	-0,003	0,132
-630,765	102,750	-0,014	-0,012
-629,751	746,412	0,018	0,035
-628,736	80,232	-0,077	-0,061
-627,722	-157,960	-0,054	0,002
-626,707	-160,405	0,057	-0,002
-625,692	-60,326	0,045	-0,014
-624,678	17,699	-0,079	0,046
-623,663	228,678	-0,033	-0,040
-622,649	0,881	-0,072	0,038
-621,634	792,548	-0,034	-0,070
-620,619	800,000	0,043	-0,128
-619,605	-49,351	-0,078	-0,027
-618,590	28,786	0,095	-0,059
-617,576	771,083	0,054	0,109
-616,561	-111,466	-0,191	0,028
-615,546	703,269	0,056	0,109
-614,532	-200,000	-0,000	0,105
-613,517	800,000	-0,033	-0,093
-612,503	-61,866	-0,104	0,032
-611,488	439,080	0,031	0,050
-610,474	-2,562	0,129	-0,066
-609,459	2,318	-0,131	-0,069
-608,444	7,628	-0,046	-0,025
-607,430	305,409	-0,032	-0,044
-606,415	150,661	0,053	0,053
-605,401	-149,175	0,105	0,006
-604,386	800,000	-0,061	0,189
-603,371	251,404	0,029	0,036
-602,357	31,740	0,079	0,050
-601,342	-156,210	-0,105	0,005
-600,328	376,916	-0,053	-0,080
-599,313	-200,000	-0,012	-0,169
-598,298	-30,410	-0,050	-0,021
-597,284	-200,000	0,013	-0,058
-596,269	255,061	-0,063	-0,079
-595,255	-113,889	0,059	-0,008
-594,240	-119,497	-0,104	0,013
-593,225	95,138	-0,041	0,034
-592,211	-151,727	-0,107	-0,006
-591,196	222,332	0,058	-0,068
-590,182	52,895	-0,066	0,047
-589,167	474,204	0,092	0,153
-588,152	-5,120	-0,015	0,008
-587,138	401,863	0,059	-0,091
-586,123	151,778	-0,018	-0,018
-585,109	-200,000	-0,109	0,000
-584,094	-200,000	-0,015	-0,078
-583,079	-77,003	0,123	-0,031
-582,065	-158,371	-0,092	0,004
-581,050	46,214	0,009	-0,006
-580,036	-200,000	0,000	-0,009
-579,021	-200,000	-0,003	0,064
-578,006	800,000	0,011	-0,035
-576,992	122,847	-0,036	-0,033
-575,977	117,733	0,060	0,054
-574,963	15,301	0,079	-0,045
-573,948	60,268	-0,070	-0,050
-572,934	203,479	0,095	-0,107
-571,919	-200,000	-0,011	-0,125
-570,904	19,627	-0,051	-0,030
-569,890	-200,000	-0,052	-0,226
-568,875	9,587	0,090	-0,050
-567,861	438,409	0,034	0,054
-566,846	166,908	0,065	-0,067
-565,831	37,030	-0,149	-0,096
-564,817	113,261	0,044	0,039
-563,802	71,381	0,058	-0,044
-562,788	-114,020	-0,112	0,016
-561,773	21,280	0,051	0,030
-560,758	-28,117	0,159	0,067
-559,744	-49,129	0,099	-0,034
-558,729	-80,088	-0,108	-0,026
-557,715	-200,000	0,007	0,025
-556,700	-58,605	-0,124	-0,039
-555,685	-200,000	0,001	-0,031
-554,671	-200,000	-0,005	0,044
-553,656	-200,000	0,019	-0,068
-552,642	-10,757	0,094	0,045
-551,627	-30,388	0,010	-0,004
-550,612	-200,000	-0,037	0,140
-549,598	-79,585	-0,090	-0,022
-548,583	-35,784	-0,119	-0,047
-547,569	495,150	-0,028	-0,048
-546,554	-28,616	-0,025	-0,011
-545,539	-81,477	-0,086	-0,021
-544,525	-200,000	-0,031	-0,149
-543,510	-200,000	-0,016	-0,055
-542,496	-19,066	-0,154	-0,070
-541,481	800,000	-0,035	-0,076
-540,466	157,669	-0,059	-0,060
-539,452	118,979	0,062	0,056
-538,437	-200,000	0,013	0,130
-537,423	-200,000	-0,004	0,086
-536,408	-91,075	-0,079	-0,016
-535,393	338,417	0,026	0,038
-534,379	-200,000	0,003	-0,078
-533,364	96,526	0,062	0,052
-532,350	-42,694	0,099	-0,036
-531,335	-103,466	0,037	0,006
-530,321	91,711	-0,028	-0,023
-529,306	170,344	0,095	-0,099
-528,291	-103,135	-0,166	0,028
-527,277	304,845	-0,023	0,032
-526,262	-200,000	-0,014	0,048
-525,248	-97,311	0,062	0,012
-524,233	800,000	-0,035	0,093
-523,218	81,796	0,057	0,045
-522,204	473,197	0,029	-0,047
-521,189	18,626	-0,145	0,085
-520,175	800,000	-0,045	0,112
-519,160	109,911	0,161	-0,141
-518,145	-65,841	0,068	-0,020
-517,131	-16,249	0,153	-0,070
-516,116	-200,000	-0,013	-0,053
-515,102	59,128	-0,023	0,016
-514,087	-200,000	0,016	0,074
-513,072	349,010	-0,040	-0,058
-512,058	-5,401	-0,169	-0,085
-511,043	-200,000	-0,003	-0,032
-510,029	-200,000	-0,004	0,179
-509,014	-200,000	-0,004	-0,057
-507,999	-40,966	-0,085	0,032
-506,985	-200,000	0,009	-0,086
-505,970	-18,647	-0,046	-0,021
-504,956	-73,796	0,098	0,026
-503,941	12,277	-0,094	0,053
-502,926	64,585	0,034	0,025
-501,912	-200,000	0,018	0,116
-500,897	800,000	-0,029	-0,061
-499,883	-97,746	0,046	0,009
-498,868	718,278	-0,035	-0,067
-497,853	-200,000	-0,022	-0,149
-496,839	800,000	-0,035	-0,083
-495,824	-68,755	0,084	0,023
-494,810	-20,883	0,108	0,048
-493,795	-163,617	0,054	-0,002
-492,781	-30,781	-0,159	0,065
-491,766	800,000	0,048	-0,132
-490,751	-76,152	-0,130	0,033
-489,737	744,919	0,035	-0,070
-488,722	289,900	-0,021	0,028
-487,708	-200,000	-0,011	0,042
-486,693	262,283	-0,095	0,120
-485,678	33,905	0,099	-0,063
-484,664	320,165	-0,016	-0,022
-483,649	-200,000	-0,007	-0,152
-482,635	-200,000	-0,006	0,035
-481,620	800,000	0,016	-0,041
-480,605	-4,667	-0,088	0,044
-479,591	-200,000	-0,009	0,030
-478,576	800,000	-0,031	-0,080
-477,562	-77,535	-0,098	0,025
-476,547	57,421	-0,094	-0,067
-475,532	800,000	-0,070	-0,142
-474,518	-200,000	-0,000	0,121
-473,503	7,441	0,008	0,004
-472,489	58,542	-0,094	0,067
-471,474	-200,000	0,008	0,085
-470,459	-112,424	-0,163	0,024
-469,445	-95,055	-0,055	0,011
-468,430	-109,817	-0,067	0,010
-467,416	-200,000	0,011	0,063
-466,401	562,199	0,053	0,093
-465,386	-95,214	0,065	0,013
-464,372	-76,450	-0,106	-0,027
-463,357	-200,000	-0,033	-0,142
-462,343	8,102	-0,166	-0,090
-461,328	-24,106	-0,061	-0,026
-460,313	-200,000	-0,001	0,066
-459,299	-200,000	0,002	-0,051
-458,284	159,703	-0,014	0,014
-457,270	771,213	-0,010	-0,020
-456,255	800,000	0,078	0,168
-455,241	149,132	0,033	0,032
-454,226	617,650	-0,071	0,131
-453,211	33,490	0,054	0,034
-452,197	-63,047	-0,124	-0,037
-451,182	-110,359	0,020	-0,003
-450,168	-102,183	-0,113	-0,020
-449,153	710,561	0,043	0,083
-448,138	-17,462	-0,122	0,056
-447,124	276,219	-0,061	0,079
-446,109	24,271	-0,011	-0,007
-445,095	787,123	-0,061	-0,122
-444,080	13,367	0,052	0,029
-443,065	800,000	0,017	0,049
-442,051	-200,000	0,003	0,066
-441,036	-107,437	-0,162	0,026
-440,022	-22,023	0,095	-0,042
-439,007	800,000	0,014	-0,035
-437,992	491,363	-0,023	-0,038
-436,978	601,789	0,033	-0,060
-435,963	61,848	-0,035	-0,025
-434,949	57,784	-0,096	0,068
-433,934	-200,000	-0,000	0,053
-432,919	22,959	-0,067	-0,040
-431,905	178,263	0,060	-0,063
-430,890	257,111	0,109	-0,137
-429,876	-19,415	0,042	0,019
-428,861	-74,933	-0,082	0,021
-427,846	-200,000	-0,013	0,070
-426,832	-124,487	-0,136	-0,015
-425,817	321,265	-0,048	0,067
-424,803	-200,000	-0,007	-0,068
-423,788	175,151	0,071	-0,075
-422,773	630,671	-0,054	0,099
-421,759	800,000	0,048	0,125
-420,744	-127,844	-0,081	-0,008
-419,730	86,819	-0,166	-0,134
-418,715	556,781	0,063	-0,110
-417,701	-44,184	-0,044	0,016
-416,686	54,941	-0,029	0,021
-415,671	13,515	0,113	0,064
-414,657	-200,000	0,008	0,151
-413,642	323,341	0,048	-0,067
-412,628	-6,183	-0,023	-0,011
-411,613	80,449	-0,085	-0,067
-410,598	-200,000	-0,014	-0,168
-409,584	-200,000	0,006	-0,066
-408,569	800,000	-0,030	-0,082
-407,555	225,269	-0,083	0,098
-406,540	398,821	-0,058	0,089
-405,525	-21,782	-0,136	0,060
-404,511	-123,623	0,083	-0,009
-403,496	50,374	0,022	0,015
-402,482	-156,639	0,046	-0,002
-401,467	271,865	0,120	0,155
-400,452	-200,000	0,031	-0,143
-399,438	-86,696	-0,128	-0,028
-398,423	800,000	0,007	0,018
-397,409	800,000	0,057	-0,175
-396,394	800,000	-0,032	-0,099
-395,379	118,328	0,074	0,066
-394,365	-83,338	0,014	0,003
-393,350	-65,662	-0,029	0,008
-392,336	-177,943	0,078	0,001
-391,321	800,000	-0,039	0,085
-390,306	-46,564	-0,105	-0,037
-389,292	-26,972	-0,084	-0,035
-388,277	800,000	0,013	-0,027
-387,263	28,410	0,055	0,034
-386,248	228,968	0,060	0,071
-385,233	270,590	-0,072	-0,092
-384,219	6,311	-0,087	0,047
-383,204	-53,758	0,073	0,024
-382,190	-7,142	0,041	-0,020
-381,175	417,039	-0,091	-0,142
-380,160	-200,000	-0,004	0,136
-379,146	72,146	0,080	-0,061
-378,131	-100,984	-0,080	0,014
-377,117	-177,103	-0,077	0,001
-376,102	800,000	0,063	-0,175
-375,088	278,438	-0,069	-0,089
-374,073	-77,385	0,040	0,010
-373,058	437,974	-0,035	0,056
-372,044	-200,000	-0,004	0,034
-371,029	21,827	0,082	0,048
-370,015	215,948	-0,082	0,095
-369,000	800,000	0,029	-0,073
-367,985	-169,084	0,083	0,002
-366,971	49,735	-0,092	-0,063
-365,956	35,046	0,085	0,054
-364,942	225,098	-0,062	-0,072
-363,927	96,291	0,048	-0,040
-362,912	-60,651	0,120	0,037
-361,898	800,000	0,020	-0,043
-360,883	77,519	-0,161	0,124
-359,869	-200,000	0,008	-0,080
-358,854	800,000	-0,066	0,148
-357,839	95,791	-0,012	-0,010
-356,825	-150,925	0,121	0,007
-355,810	63,081	-0,050	-0,037
-354,796	39,177	-0,027	-0,018
-353,781	251,632	0,047	-0,058
-352,766	232,516	-0,051	-0,061
-351,752	-122,446	0,085	-0,010
-350,737	-54,940	0,098	-0,032
-349,723	228,095	-0,008	-0,009
-348,708	714,821	0,042	-0,082
-347,693	41,422	-0,099	0,065
-346,679	-131,178	-0,044	0,004
-345,664	800,000	0,015	-0,039
-344,650	411,324	0,082	-0,127
-343,635	800,000	0,007	-0,019
-342,620	-200,000	-0,006	-0,024
-341,606	-83,396	-0,138	0,032
-340,591	149,792	0,073	-0,072
-339,577	-200,000	0,008	-0,059
-338,562	39,939	0,121	-0,078
-337,548	-200,000	-0,020	-0,175
-336,533	16,743	0,026	-0,015
-335,518	43,381	-0,038	0,025
-334,504	361,058	0,126	0,184
-333,489	-200,000	0,051	0,185
-332,475	-200,000	-0,014	0,079
-331,460	53,125	-0,012	-0,009
-330,445	230,854	0,070	-0,084
-329,431	-125,911	-0,047	-0,005
-328,416	-200,000	-0,006	0,054
-327,402	-135,678	0,075	-0,006
-326,387	-200,000	0,018	-0,074
-325,372	-161,799	0,080	-0,003
-324,358	-31,299	-0,110	0,045
-323,343	-34,698	-0,040	-0,016
-322,329	71,149	0,133	-0,100
-321,314	288,226	0,027	0,036
-320,299	-200,000	0,024	0,089
-319,285	346,447	0,062	-0,089
-318,270	-200,000	0,016	-0,052
-317,256	-89,722	-0,133	-0,028
-316,241	-7,985	0,219	0,107
-315,226	-71,558	-0,070	0,019
-314,212	-200,000	0,009	0,046
-313,197	255,376	0,137	0,171
-312,183	712,180	0,005	0,009
-311,168	-200,000	0,009	0,036
-310,153	481,555	0,033	-0,055
-309,139	-200,000	-0,030	-0,131
-308,124	800,000	0,010	-0,022
-307,110	140,275	0,027	0,026
-306,095	-161,143	0,161	-0,006
-305,080	-61,579	-0,028	0,008
-304,066	-131,291	-0,069	0,007
-303,051	800,000	0,067	-0,159
-302,037	800,000	-0,008	-0,023
-301,022	48,380	-0,120	-0,081
-300,008	148,129	0,095	0,093
-298,993	235,045	0,038	0,045
-297,978	-183,691	0,057	-0,001
-296,964	-200,000	-0,012	-0,039
-295,949	-161,308	-0,098	-0,004
-294,935	45,287	0,015	0,010
-293,920	387,488	0,080	0,121
-292,905	-200,000	0,009	-0,041
-291,891	-48,853	0,230	-0,079
-290,876	-62,964	-0,074	0,022
-289,862	89,623	-0,053	0,043
-288,847	584,932	0,015	-0,026
-287,832	-28,234	0,158	-0,066
-286,818	-39,267	0,126	0,048
-285,803	82,978	-0,057	0,045
-284,789	27,646	0,155	0,094
-283,774	494,762	0,057	0,095
-282,759	106,125	-0,099	-0,085
-281,745	-85,830	-0,092	0,020
-280,730	533,676	0,050	0,087
-279,716	800,000	-0,032	-0,068
-278,701	800,000	-0,031	0,095
-277,686	453,213	0,052	0,084
-276,672	-200,000	0,056	0,241
-275,657	800,000	0,021	0,049
-274,643	800,000	0,044	0,097
-273,628	-124,590	-0,011	0,001
-272,613	259,943	-0,038	-0,048
-271,599	111,409	0,007	-0,006
-270,584	800,000	0,084	0,241
-269,570	117,005	-0,140	0,125
-268,555	-200,000	-0,005	0,028
-267,540	315,497	0,107	-0,147
-266,526	178,483	-0,057	-0,060
-265,511	-200,000	-0,012	-0,057
-264,497	286,849	-0,006	0,008
-263,482	800,000	0,082	0,170
-262,467	-200,000	0,011	-0,070
-261,453	-200,000	-0,007	0,046
-260,438	469,455	0,026	0,042
-259,424	26,453	0,053	0,032
-258,409	224,785	-0,027	0,031
-257,395	368,663	-0,043	-0,064
-256,380	-128,452	-0,017	-0,002
-255,365	21,867	-0,114	0,067
-254,351	29,393	0,054	0,033
-253,336	31,254	-0,020	-0,013
-252,322	337,820	-0,019	-0,026
-251,307	-25,070	-0,068	0,029
-250,292	-121,776	0,147	0,017
-249,278	-176,191	0,173	0,003
-248,263	122,734	-0,030	0,027
-247,249	-68,565	-0,118	-0,033
-246,234	-77,343	0,126	0,031
-245,219	123,207	0,047	-0,042
-244,205	7,675	0,147	0,079
-243,190	-174,269	-0,150	-0,003
-242,176	41,394	-0,012	0,008
-241,161	-126,252	0,172	0,018
-240,146	-43,471	-0,071	-0,026
-239,132	361,145	0,046	0,067
-238,117	115,172	0,104	0,092
-237,103	-200,000	0,019	0,068
-236,088	420,394	-0,033	-0,052
-235,073	-200,000	0,025	0,137
-234,059	540,653	0,067	0,116
-233,044	117,497	0,018	0,016
-232,030	210,922	-0,025	0,028
-231,015	-200,000	0,012	-0,106
-230,000	205,878	-0,064	0,072
-228,986	-94,279	0,092	-0,018
-227,971	-200,000	0,019	0,140
-226,957	66,459	0,117	-0,086
-225,942	-115,357	0,120	-0,016
-224,927	12,874	-0,016	0,009
-223,913	-98,562	0,144	-0,026
-222,898	-200,000	-0,080	-0,000
-221,884	84,724	0,020	0,016
-220,869	41,914	-0,072	-0,047
-219,855	-135,811	-0,100	-0,008
-218,840	434,040	0,021	-0,033
-217,825	262,526	-0,086	-0,107
-216,811	283,311	0,054	-0,071
-215,796	-40,087	-0,036	0,014
-214,782	-105,152	-0,042	0,007
-213,767	-200,000	-0,018	0,065
-212,752	-200,000	-0,032	0,218
-211,738	176,745	0,036	0,038
-210,723	76,563	0,145	-0,111
-209,709	-200,000	-0,011	0,151
-208,694	800,000	-0,052	0,110
-207,679	-200,000	-0,010	-0,042
-206,665	-175,102	0,146	-0,003
-205,650	-152,247	0,085	0,004
-204,636	126,825	0,093	0,085
-203,621	-200,000	-0,006	-0,108
-202,606	800,000	-0,022	-0,048
-201,592	90,263	0,111	0,090
-200,577	261,889	-0,063	-0,079
-199,563	-52,822	0,095	0,031
-198,548	265,913	-0,083	0,105
-197,533	-75,935	0,165	0,042
-196,519	-43,285	0,099	0,036
-195,504	-200,000	-0,006	-0,077
-194,490	105,291	-0,100	0,085
-193,475	15,065	-0,122	-0,069
-192,460	383,035	0,075	0,111
-191,446	-200,000	0,008	0,226
-190,431	-46,051	0,048	-0,017
-189,417	800,000	0,035	0,106
-188,402	95,861	-0,010	-0,008
-187,387	800,000	-0,031	0,075
-186,373	-133,940	-0,142	0,012
-185,358	-154,057	0,155	0,007
-184,344	800,000	-0,049	-0,108
-183,329	-135,552	-0,099	-0,008
-182,315	-107,126	0,095	-0,015
-181,300	800,000	-0,042	-0,091
-180,285	-200,000	0,074	-0,274
-179,271	-200,000	-0,057	-0,207
-178,256	-147,774	0,057	0,003
-177,242	-200,000	0,014	0,059
-176,227	238,954	0,045	0,054
-175,212	373,234	-0,083	0,122
-174,198	-15,424	0,057	-0,026
-173,183	-200,000	0,003	-0,042
-172,169	800,000	-0,022	-0,050
-171,154	-77,973	-0,074	-0,018
-170,139	-188,946	0,133	-0,001
-169,125	-123,727	-0,090	0,010
-168,110	-120,712	0,068	0,008
-167,096	-97,018	-0,037	0,007
-166,081	-200,000	0,017	0,082
-165,066	-200,000	-0,040	-0,154
-164,052	-133,671	0,235	-0,021
-163,037	-28,223	-0,067	-0,028
-162,023	20,027	0,047	-0,027
-161,008	114,080	0,123	-0,108
-159,993	117,479	0,039	0,034
-158,979	-91,159	0,045	0,009
-157,964	800,000	-0,069	0,204
-156,950	-200,000	-0,008	0,061
-155,935	-200,000	0,003	-0,049
-154,920	-200,000	-0,008	0,189
-153,906	-200,000	-0,004	0,089
-152,891	105,782	-0,138	0,117
-151,877	-200,000	-0,002	-0,034
-150,862	45,481	-0,041	0,027
-149,847	-90,124	-0,067	0,014
-148,833	100,005	-0,083	-0,069
-147,818	800,000	-0,025	0,061
-146,804	175,147	0,058	-0,060
-145,789	-34,635	-0,041	0,016
-144,775	223,116	-0,056	0,065
-143,760	-119,844	0,086	-0,011
-142,745	800,000	-0,036	-0,110
-141,731	-200,000	0,001	-0,044
-140,716	-127,124	0,084	0,009
-139,702	-200,000	0,029	0,113
-138,687	800,000	-0,048	0,122
-137,672	386,839	0,091	0,135
-136,658	-76,625	-0,076	-0,019
-135,643	-109,311	-0,149	0,022
-134,629	88,827	-0,077	0,061
-133,614	-200,000	-0,031	0,134
-132,599	-200,000	0,015	0,082
-131,585	-200,000	0,009	-0,043
-130,570	174,504	-0,072	0,075
-129,556	-200,000	-0,004	0,047
-128,541	-72,422	0,116	0,031
-127,526	-59,314	0,060	0,018
-126,512	-200,000	0,002	-0,142
-125,497	-53,503	0,068	0,022
-124,483	171,691	0,032	0,033
-123,468	-200,000	0,004	-0,068
-122,453	-200,000	0,046	-0,176
-121,439	75,392	-0,049	-0,037
-120,424	800,000	-0,057	0,140
-119,410	-200,000	0,004	0,109
-118,395	-178,999	-0,087	-0,001
-117,380	285,267	0,034	-0,045
-116,366	30,098	-0,085	0,052
-115,351	-200,000	0,002	0,031
-114,337	-200,000	0,023	-0,092
-113,322	24,768	-0,102	0,061
-112,307	354,823	-0,042	-0,061
-111,293	-76,312	0,173	-0,043
-110,278	800,000	0,021	0,049
-109,264	-200,000	0,012	0,122
-108,249	654,697	-0,068	0,125
-107,234	-162,223	0,069	0,002
-106,220	71,719	-0,098	0,073
-105,205	-200,000	-0,006	0,055
-104,191	101,819	-0,101	-0,085
-103,176	-62,731	0,168	0,050
-102,162	82,095	-0,061	-0,048
-101,147	520,648	0,012	-0,020
-100,132	-105,262	0,031	-0,005
-99,118	-31,173	-0,054	0,022
-98,103	-200,000	0,001	0,047
-97,089	15,558	-0,131	-0,074
-96,074	-200,000	0,001	0,084
-95,059	-200,000	-0,001	-0,021
-94,045	-200,000	0,007	-0,056
-93,030	20,381	0,061	0,035
-92,016	-20,589	-0,181	0,080
-91,001	775,633	-0,028	0,054
-89,986	-200,000	-0,009	0,046
-88,972	800,000	0,045	-0,121
-87,957	-49,911	-0,076	-0,026
-86,943	800,000	-0,038	0,091
-85,928	-200,000	-0,004	-0,080
-84,913	-200,000	-0,015	0,154
-83,899	193,059	-0,055	-0,060
-82,884	-200,000	0,034	-0,119
-81,870	-48,665	0,098	0,034
-80,855	-136,167	0,041	0,003
-79,840	-200,000	0,011	0,035
-78,826	-28,639	-0,058	-0,024
-77,811	255,399	-0,115	-0,141
-76,797	31,364	-0,195	0,120
-75,782	162,952	-0,044	0,044
-74,767	-200,000	0,021	0,193
-73,753	50,562	-0,096	-0,065
-72,738	-56,412	0,059	-0,019
-71,724	800,000	-0,015	0,032
-70,709	-200,000	0,009	-0,080
-69,694	263,327	0,047	0,058
-68,680	39,360	0,026	0,016
-67,665	-29,856	0,080	0,033
-66,651	-43,812	0,091	0,033
-65,636	-200,000	0,003	-0,031
-64,622	228,344	-0,032	0,038
-63,607	79,105	0,113	-0,087
-62,592	-16,769	-0,053	-0,024
-61,578	-200,000	-0,024	0,104
-60,563	-98,684	0,125	-0,023
-59,549	145,746	0,047	-0,045
-58,534	9,044	-2,007	-1,084
-57,519	-200,000	-0,221	-0,761
-56,505	-200,000	-1,207	-4,889
-55,490	24,699	0,824	0,488
-54,476	800,000	5,247	11,824
-53,461	-200,000	17,970	291,893
-52,446	800,000	730,114	2237,779
-51,432	536,813	1646,377	2814,496
-50,417	109,271	1636,020	1404,106
-49,403	74,664	1287,439	970,321
-48,388	31,502	1027,380	631,821
-47,373	20,126	989,327	570,927
-46,359	18,268	977,079	557,752
-45,344	15,218	973,209	545,547
-44,330	15,485	971,582	545,486
-43,315	14,982	969,579	542,700
-42,300	14,820	968,744	541,681
-41,286	14,925	967,832	541,492
-40,271	14,916	966,799	540,863
-39,257	14,883	965,723	540,133
-38,242	14,964	964,747	539,828
-37,227	14,872	964,228	539,219
-36,213	14,952	963,105	538,828
-35,198	14,860	962,297	538,056
-34,184	14,914	961,678	537,864
-33,169	14,902	960,503	537,146
-32,154	14,921	959,690	536,734
-31,140	14,898	958,833	536,158
-30,125	14,949	958,170	535,930
-29,111	14,949	957,260	535,401
-28,096	14,903	956,669	534,899
-27,082	14,941	955,863	534,551
-26,067	14,905	955,196	534,041
-25,052	14,874	954,408	533,480
-24,038	14,867	953,937	533,173
-23,023	14,874	953,197	532,758
-22,009	14,869	952,515	532,340
-20,994	14,943	951,819	532,168
-19,979	14,990	951,110	531,902
-18,965	14,932	950,434	531,317
-17,950	14,924	949,781	530,904
-16,936	14,902	949,164	530,468
-15,921	14,877	948,572	530,036
-14,906	14,846	947,757	529,463
-13,892	14,758	947,315	528,913
-12,877	14,829	946,570	528,701
-11,863	14,784	945,911	528,170
-10,848	14,827	945,349	527,972
-9,833	14,843	945,089	527,858
-8,819	14,898	944,330	527,586
-7,804	14,808	943,845	527,011
-6,790	14,754	943,340	526,534
-5,775	14,802	942,593	526,250
-4,760	14,845	941,889	525,971
-3,746	14,764	941,328	525,382
-2,731	14,622	940,754	524,592
-1,717	14,661	939,909	524,221
-0,702	14,657	939,082	523,728
0,313	14,482	938,599	523,698
1,327	17,612	936,474	532,318
2,342	26,436	792,652	473,893
3,356	22,765	457,742	268,041
4,371	-4,274	313,945	155,139
5,386	-8,389	295,672	141,941
6,400	-10,394	289,620	137,037
7,415	-10,576	287,271	135,735
8,429	-10,558	285,838	135,063
9,444	-10,796	284,902	134,377
10,459	-10,467	284,313	134,407
11,473	-10,724	283,688	133,851
12,488	-10,560	283,097	133,718
13,502	-10,605	282,412	133,340
14,517	-10,591	282,255	133,267
15,531	-10,515	282,066	133,239
16,546	-10,470	281,510	133,007
17,561	-10,328	281,006	132,894
18,575	-10,254	280,682	132,800
19,590	-10,336	280,555	132,649
20,604	-10,275	280,073	132,468
21,619	-10,435	279,791	132,170
22,634	-10,443	279,407	131,969
23,648	-10,431	279,046	131,798
24,663	-10,514	278,885	131,632
25,677	-10,452	278,549	131,520
26,692	-10,383	278,421	131,514
27,707	-10,425	278,060	131,291
28,721	-10,290	277,649	131,214
29,736	-10,347	277,537	131,095
30,750	-10,276	277,022	130,908
31,765	-10,338	276,952	130,804
32,780	-10,236	276,574	130,710
33,794	-10,298	276,415	130,564
34,809	-10,360	276,161	130,375
35,823	-10,206	275,823	130,349
36,838	-10,363	275,767	130,163
37,853	-10,472	275,520	129,932
38,867	-10,310	275,152	129,898
39,882	-10,410	274,914	129,681
40,896	-10,457	274,754	129,550
41,911	-10,362	274,450	129,484
42,926	-10,356	274,213	129,366
43,940	-10,345	273,917	129,225
44,955	-10,513	273,809	129,006
45,969	-10,396	273,607	129,009
46,984	-10,587	273,285	128,668
47,999	-10,812	272,951	128,289
49,013	-10,896	272,564	128,018
50,028	-10,999	272,546	127,902
51,042	-11,166	272,317	127,629
52,057	-11,189	271,827	127,366
53,071	-11,129	271,703	127,352
54,086	-11,016	271,570	127,383
55,101	-11,056	271,377	127,244
56,115	-10,701	271,196	127,476
57,130	-10,409	271,165	127,719
58,144	-10,420	271,061	127,650
59,159	-10,429	270,746	127,481
60,174	-10,386	270,562	127,422
61,188	-10,245	270,234	127,386
62,203	-10,273	269,998	127,238
63,217	-10,390	269,859	127,054
64,232	-10,406	269,595	126,904
65,247	-10,153	269,288	126,980
66,261	-10,335	269,159	126,741
67,276	-10,494	268,909	126,466
68,290	-10,683	268,481	126,081
69,305	-10,663	268,282	125,995
70,320	-10,641	268,170	125,950
71,334	-10,479	267,889	125,955
72,349	-10,398	267,762	125,958
73,363	-10,126	267,492	126,067
74,378	-10,402	267,419	125,770
75,393	-10,245	267,167	125,783
76,407	-10,255	266,880	125,628
77,422	-10,445	266,595	125,310
78,436	-10,380	266,511	125,319
79,451	-10,342	266,344	125,263
80,466	-10,374	265,943	125,035
81,480	-10,472	265,705	124,824
82,495	-10,696	265,585	124,554
83,509	-10,408	265,396	124,714
84,524	-10,678	265,274	124,402
85,539	-10,474	264,954	124,424
86,553	-10,642	264,738	124,161
87,568	-10,440	264,305	124,128
88,582	-10,508	264,349	124,076
89,597	-10,614	264,110	123,858
90,611	-10,385	264,077	124,037
91,626	-10,592	264,015	123,811
92,641	-10,206	263,682	123,989
93,655	-10,299	263,459	123,791
94,670	-10,548	263,160	123,416
95,684	-10,404	262,936	123,429
96,699	-10,515	262,794	123,252
97,714	-10,424	262,576	123,220
98,728	-10,655	262,340	122,892
99,743	-10,753	262,161	122,711
100,757	-10,644	261,857	122,654
101,772	-10,562	261,603	122,598
102,787	-10,489	261,564	122,632
103,801	-10,603	261,389	122,438
104,816	-10,466	261,168	122,445
105,830	-10,254	260,951	122,520
106,845	-10,255	260,786	122,431
107,860	-10,378	260,527	122,191
108,874	-10,467	260,475	122,077
109,889	-10,336	260,155	122,031
110,903	-10,522	259,866	121,720
111,918	-10,702	259,696	121,472
112,933	-10,506	259,494	121,539
113,947	-10,415	259,466	121,595
114,962	-10,353	259,231	121,528
115,976	-10,437	259,052	121,360
116,991	-10,586	258,939	121,165
118,006	-10,395	258,641	121,182
119,020	-10,393	258,500	121,108
120,035	-10,379	258,338	121,032
121,049	-10,323	258,182	120,998
122,064	-10,343	257,947	120,860
123,079	-10,464	257,825	120,686
124,093	-10,699	257,619	120,373
125,108	-10,525	257,213	120,325
126,122	-10,606	256,962	120,126
127,137	-10,763	256,780	119,894
128,151	-10,817	256,757	119,826
129,166	-10,616	256,557	119,896
130,181	-10,635	256,171	119,689
131,195	-10,680	256,026	119,572
132,210	-10,674	255,996	119,551
133,224	-10,446	255,761	119,629
134,239	-10,569	255,635	119,452
135,254	-10,491	255,403	119,402
136,268	-10,500	255,079	119,231
137,283	-10,662	254,947	119,019
138,297	-10,834	254,673	118,732
139,312	-10,718	254,350	118,671
140,327	-10,558	254,501	118,869
141,341	-10,178	254,384	119,130
142,356	-10,195	254,022	118,936
143,370	-10,456	254,075	118,726
144,385	-10,384	253,857	118,674
145,400	-10,218	253,696	118,731
146,414	-10,025	253,347	118,722
147,429	-10,181	253,304	118,559
148,443	-10,221	253,136	118,435
149,458	-10,151	253,003	118,422
150,473	-10,093	252,875	118,401
151,487	-10,588	252,476	117,782
152,502	-10,150	252,369	118,094
153,516	-10,043	252,126	118,061
154,531	-10,248	251,984	117,809
155,546	-10,266	251,735	117,668
156,560	-10,213	251,565	117,622
157,575	-10,507	251,353	117,263
158,589	-10,427	251,197	117,249
159,604	-10,316	251,098	117,286
160,619	-10,254	250,898	117,234
161,633	-10,151	250,644	117,192
162,648	-10,101	250,615	117,211
163,662	-10,193	250,485	117,062
164,677	-10,261	250,306	116,910
165,692	-10,135	249,986	116,857
166,706	-9,995	249,839	116,896
167,721	-10,034	249,819	116,843
168,735	-10,328	249,696	116,527
169,750	-10,256	249,595	116,530
170,764	-9,996	249,316	116,608
171,779	-10,264	249,191	116,314
172,794	-10,315	248,894	116,122
173,808	-10,222	248,767	116,130
174,823	-10,559	248,446	115,688
175,837	-10,928	248,326	115,313
176,852	-10,394	248,168	115,676
177,867	-10,285	248,166	115,756
178,881	-10,367	248,069	115,632
179,896	-10,193	247,830	115,656
180,910	-10,292	247,672	115,489
181,925	-9,944	247,371	115,628
182,940	-10,182	247,206	115,343
183,954	-10,019	246,992	115,368
184,969	-10,216	246,944	115,172
185,983	-10,116	246,853	115,202
186,998	-10,076	246,560	115,088
188,013	-10,021	246,415	115,056
189,027	-9,963	246,300	115,039
190,042	-10,127	246,044	114,774
191,056	-10,315	245,823	114,505
192,071	-10,175	245,553	114,485
193,086	-10,519	245,418	114,128
194,100	-10,351	245,210	114,160
195,115	-10,297	245,134	114,158
196,129	-10,287	245,072	114,127
197,144	-10,247	244,876	114,059
198,159	-10,469	244,537	113,708
199,173	-10,381	244,428	113,720
200,188	-10,446	244,223	113,561
201,202	-10,867	243,953	113,080
202,217	-10,935	243,644	112,871
203,232	-10,958	243,531	112,789
204,246	-11,001	243,221	112,601
205,261	-11,839	242,632	111,634
206,275	-12,489	242,508	111,037
207,290	-7,814	244,289	115,681
208,304	0,463	246,963	123,785
209,319	4,146	247,980	127,332
210,334	4,939	247,913	127,942
211,348	5,200	247,931	128,154
212,363	5,327	247,734	128,147
213,377	5,505	247,674	128,251
214,392	5,335	247,537	128,028
215,407	5,399	247,294	127,943
216,421	5,052	247,071	127,531
217,436	5,244	247,121	127,704
218,450	5,460	246,825	127,717
219,465	4,989	246,688	127,248
220,480	5,131	246,424	127,217
221,494	5,083	246,254	127,079
222,509	5,010	246,131	126,944
223,523	4,943	245,876	126,746
224,538	4,408	245,773	126,244
225,553	4,548	245,681	126,300
226,567	4,660	245,493	126,284
227,582	4,952	245,103	126,310
228,596	4,779	245,065	126,138
229,611	4,532	244,784	125,781
230,626	4,480	244,708	125,688
231,640	4,484	244,471	125,559
232,655	4,595	244,280	125,540
233,669	4,529	244,099	125,382
234,684	4,273	244,007	125,116
235,699	4,550	243,967	125,309
236,713	4,781	243,794	125,396
237,728	4,727	243,541	125,210
238,742	4,525	243,430	124,980
239,757	4,410	243,285	124,800
240,772	4,380	243,025	124,632
241,786	4,603	242,909	124,741
242,801	4,292	242,892	124,470
243,815	4,403	242,679	124,440
244,830	4,710	242,436	124,552
245,844	4,723	242,289	124,475
246,859	4,667	242,147	124,346
247,874	4,390	241,938	124,005
248,888	4,508	241,848	124,043
249,903	4,862	241,673	124,226
250,917	4,846	241,550	124,139
251,932	4,917	241,589	124,205
252,947	4,640	241,389	123,869
253,961	4,549	241,265	123,721
254,976	4,726	241,056	123,744
255,990	4,766	240,809	123,639
257,005	4,486	240,681	123,339
258,020	4,539	240,409	123,230
259,034	4,343	240,430	123,073
260,049	4,511	240,119	123,038
261,063	4,319	239,972	122,798
262,078	4,473	239,734	122,788
263,093	4,604	239,757	122,893
264,107	4,728	239,509	122,853
265,122	4,592	239,240	122,596
266,136	4,620	239,235	122,605
267,151	4,792	239,090	122,656
268,166	4,519	238,831	122,296
269,180	4,208	238,748	121,997
270,195	4,899	238,729	122,523
271,209	5,062	238,539	122,544
272,224	4,640	238,230	122,041
273,239	4,384	238,054	121,738
274,253	4,401	237,905	121,664
275,268	4,757	237,765	121,862
276,282	4,528	237,564	121,568
277,297	4,403	237,479	121,415
278,312	4,560	237,282	121,427
279,326	4,642	237,284	121,482
280,341	4,607	237,164	121,382
281,355	4,496	237,065	121,234
282,370	4,616	236,867	121,215
283,384	4,653	236,674	121,135
284,399	4,624	236,337	120,929
285,414	4,441	236,253	120,731
286,428	4,628	236,077	120,778
287,443	4,619	236,013	120,727
288,457	4,708	235,933	120,745
289,472	4,625	235,774	120,588
290,487	4,540	235,532	120,387
291,501	4,506	235,307	120,234
292,516	4,283	235,118	119,954
293,530	4,311	234,962	119,885
294,545	4,393	234,874	119,893
295,560	4,297	234,847	119,794
296,574	4,317	234,537	119,641
297,589	4,402	234,416	119,634
298,603	4,980	234,130	119,926
299,618	4,784	234,209	119,804
300,633	4,731	234,068	119,680
301,647	4,723	234,128	119,694
302,662	5,083	233,930	119,859
303,676	4,853	233,835	119,623
304,691	4,797	233,504	119,400
305,706	4,931	233,416	119,447
306,720	5,035	233,308	119,462
307,735	4,884	233,134	119,246
308,749	4,778	232,908	119,038
309,764	4,351	232,681	118,583
310,779	4,402	232,546	118,543
311,793	4,094	232,190	118,115
312,808	3,927	232,267	118,015
313,822	4,597	232,086	118,426
314,837	4,652	232,164	118,497
315,852	4,622	231,767	118,261
316,866	4,224	231,911	118,019
317,881	4,556	231,653	118,132
318,895	4,704	231,447	118,129
319,910	4,939	231,313	118,230
320,925	4,641	230,990	117,826
321,939	4,281	230,879	117,485
322,954	4,635	230,820	117,715
323,968	4,397	230,792	117,509
324,983	4,568	230,507	117,483
325,997	4,838	230,622	117,737
327,012	4,899	230,415	117,667
328,027	4,764	230,086	117,386
329,041	4,966	229,972	117,470
330,056	4,798	230,121	117,408
331,070	5,106	229,776	117,455
332,085	5,064	229,523	117,284
333,100	4,959	229,341	117,100
334,114	4,526	229,284	116,734
335,129	4,833	229,076	116,850
336,143	4,933	228,946	116,849
337,158	4,890	228,923	116,794
338,173	4,575	228,881	116,524
339,187	4,564	228,537	116,330
340,202	4,537	228,335	116,197
341,216	4,802	228,124	116,279
342,231	4,592	228,091	116,093
343,246	4,449	228,046	115,953
344,260	4,792	227,702	116,025
345,275	4,916	227,726	116,120
346,289	4,996	227,655	116,133
347,304	4,807	227,440	115,871
348,319	4,834	227,280	115,799
349,333	4,922	227,019	115,722
350,348	4,678	226,949	115,494
351,362	4,600	226,839	115,370
352,377	4,470	226,570	115,126
353,392	4,461	226,417	115,030
354,406	4,329	226,410	114,919
355,421	195,610	1319,062	1394,885
356,435	156,822	1452,168	1394,860
