DTS Sentinel unit serial number:	SN410029Multiplexer serial number:	ORYXHardware model number:	OX2-SRSoftware version number:	ORYX F/W v4,00 Oryx Data Collector v3.7.2.0data status	okinstallation	B5 Nyhavnadifferential loss correction	single-endedforward channel	channel 2reverse channel	N/Adate	2023/12/13time	11:52:13forward acquisition time	300,00reverse acquisition time	0,00gamma	499,1914k internal	0,3161k external	0,3161temperature offset calibration	1,0000default loss term (dB/km)	0,3820temperature slope calibration	1,0000multiplexer offset coefficient	1,0000multiplexer slope coefficient	1,0000fibre end	0,00T internal ref (°C)	13,89T ext. ref 1 (°C)	-2,03T ext. ref 2 (°C)	-2,32length (m)	temperature (°C)	Stokes	anti-Stokes-744,400	-138,329	0,123	0,010
-743,385	-131,477	-0,302	-0,029
-742,371	167,409	0,177	0,185
-741,356	-108,672	-0,360	-0,056
-740,342	800,000	0,037	-0,099
-739,327	-99,560	-0,360	-0,066
-738,312	417,245	0,057	0,090
-737,298	-106,191	-0,501	-0,082
-736,283	-77,304	0,213	-0,054
-735,269	-185,196	-0,296	0,003
-734,254	-132,282	0,083	-0,008
-733,239	-21,319	-0,538	-0,241
-732,225	-43,864	0,244	0,090
-731,210	-200,000	0,006	0,021
-730,196	357,246	-0,027	0,040
-729,181	-200,000	-0,010	-0,073
-728,167	123,740	-0,067	-0,062
-727,152	335,074	-0,045	-0,064
-726,137	-200,000	-0,025	-0,140
-725,123	-62,838	0,047	0,014
-724,108	67,484	-0,043	-0,033
-723,094	189,482	0,042	0,046
-722,079	91,492	-0,120	-0,099
-721,064	-200,000	-0,003	0,033
-720,050	-95,521	-0,132	-0,026
-719,035	688,605	-0,063	-0,121
-718,021	-91,148	0,111	-0,023
-717,006	71,473	-0,076	-0,058
-715,991	249,712	0,028	-0,035
-714,977	-2,476	-0,084	-0,043
-713,962	800,000	0,025	0,057
-712,948	800,000	0,010	0,025
-711,933	38,364	0,126	0,083
-710,918	37,968	-0,077	-0,051
-709,904	-87,442	-0,114	0,025
-708,889	-157,529	-0,086	0,004
-707,875	221,883	-0,032	-0,038
-706,860	-15,796	0,098	-0,046
-705,845	-145,266	-0,016	-0,001
-704,831	-125,906	0,068	-0,007
-703,816	800,000	-0,043	-0,090
-702,802	128,119	-0,153	-0,143
-701,787	-63,588	0,084	-0,025
-700,772	191,655	-0,020	-0,022
-699,758	-200,000	0,029	-0,109
-698,743	56,403	0,056	-0,040
-697,729	800,000	-0,040	-0,123
-696,714	800,000	-0,034	0,082
-695,699	-58,521	-0,085	-0,027
-694,685	492,767	-0,035	-0,060
-693,670	767,607	-0,025	-0,050
-692,656	164,384	-0,046	-0,048
-691,641	800,000	0,015	-0,038
-690,627	-9,858	0,103	0,050
-689,612	-200,000	-0,006	0,081
-688,597	-5,597	0,083	-0,042
-687,583	631,822	-0,065	-0,122
-686,568	195,782	-0,061	0,068
-685,554	199,953	-0,032	0,037
-684,539	800,000	0,016	0,039
-683,524	317,878	-0,112	-0,157
-682,510	-11,139	0,097	0,047
-681,495	53,042	-0,095	0,067
-680,481	9,094	0,020	0,011
-679,466	169,357	-0,166	-0,175
-678,451	-200,000	0,020	-0,084
-677,437	370,687	-0,010	-0,015
-676,422	-200,000	0,023	0,109
-675,408	448,817	-0,027	-0,044
-674,393	188,694	-0,005	0,006
-673,378	-115,728	-0,044	-0,006
-672,364	-200,000	-0,023	-0,116
-671,349	-138,301	-0,106	-0,008
-670,335	-128,654	0,056	-0,006
-669,320	-67,621	-0,050	0,014
-668,305	-114,815	0,063	-0,009
-667,291	165,521	-0,005	-0,005
-666,276	650,058	0,026	-0,050
-665,262	-39,046	-0,106	-0,041
-664,247	59,379	0,122	-0,088
-663,232	-77,499	0,086	0,022
-662,218	-144,868	-0,043	0,003
-661,203	-39,262	0,130	0,050
-660,189	-101,203	-0,045	-0,008
-659,174	48,685	-0,072	0,050
-658,159	165,420	-0,140	-0,145
-657,145	-200,000	-0,055	-0,256
-656,130	17,742	0,146	0,085
-655,116	800,000	-0,035	0,072
-654,101	-200,000	0,006	0,048
-653,086	253,575	0,020	0,026
-652,072	-200,000	-0,024	0,107
-651,057	-6,105	-0,145	-0,073
-650,043	719,021	-0,044	-0,087
-649,028	-200,000	0,015	0,092
-648,014	203,903	0,068	0,077
-646,999	-200,000	-0,018	0,076
-645,984	-139,694	-0,058	0,004
-644,970	-189,345	-0,045	-0,000
-643,955	-103,042	0,114	0,020
-642,941	-200,000	-0,019	-0,083
-641,926	-33,439	0,091	-0,037
-640,911	-28,941	-0,065	0,027
-639,897	290,921	0,039	-0,052
-638,882	212,124	0,064	0,075
-637,868	-200,000	-0,012	-0,041
-636,853	-123,463	-0,067	-0,008
-635,838	-200,000	-0,003	-0,081
-634,824	-5,737	-0,027	0,014
-633,809	35,327	-0,070	-0,045
-632,795	800,000	-0,015	-0,046
-631,780	142,866	-0,071	-0,069
-630,765	54,579	-0,037	-0,026
-629,751	-93,008	-0,027	0,005
-628,736	204,963	0,029	-0,033
-627,722	-200,000	0,032	-0,140
-626,707	-200,000	-0,021	-0,138
-625,692	316,617	0,037	0,052
-624,678	409,735	0,035	-0,055
-623,663	800,000	0,025	-0,065
-622,649	-110,956	-0,057	0,008
-621,634	337,898	0,088	-0,126
-620,619	352,795	-0,058	-0,084
-619,605	-200,000	0,003	-0,098
-618,590	112,956	0,038	-0,034
-617,576	408,569	0,075	-0,117
-616,561	68,307	-0,044	0,033
-615,546	-200,000	-0,028	-0,113
-614,532	342,265	0,087	-0,125
-613,517	228,659	0,045	-0,053
-612,503	800,000	0,056	-0,130
-611,488	-34,144	0,126	0,051
-610,474	-151,397	-0,130	-0,007
-609,459	183,078	-0,028	-0,031
-608,444	-26,149	-0,039	-0,017
-607,430	-200,000	-0,024	-0,101
-606,415	79,922	-0,075	-0,059
-605,401	-200,000	-0,004	0,019
-604,386	269,279	0,103	0,133
-603,371	-200,000	0,017	0,200
-602,357	-200,000	-0,008	0,103
-601,342	-83,182	-0,031	-0,007
-600,328	-115,436	-0,057	-0,008
-599,313	-200,000	-0,006	-0,138
-598,298	-6,662	-0,012	-0,006
-597,284	271,303	0,041	0,054
-596,269	475,145	-0,048	0,080
-595,255	800,000	0,073	0,174
-594,240	115,281	-0,083	0,074
-593,225	-46,817	-0,124	0,044
-592,211	461,999	-0,022	-0,037
-591,196	-19,330	0,054	-0,024
-590,182	800,000	-0,024	0,072
-589,167	800,000	0,025	0,059
-588,152	-74,766	0,154	0,040
-587,138	-173,119	0,106	0,002
-586,123	27,466	-0,180	-0,111
-585,109	122,997	0,054	-0,050
-584,094	151,830	-0,081	-0,081
-583,079	-96,295	0,064	0,012
-582,065	347,973	0,076	0,110
-581,050	-85,369	0,007	0,002
-580,036	91,210	-0,050	0,041
-579,021	119,704	-0,041	0,037
-578,006	-200,000	0,001	-0,059
-576,992	-63,029	-0,075	0,023
-575,977	-200,000	-0,010	0,036
-574,963	-163,173	0,049	0,002
-573,948	-129,876	0,086	0,008
-572,934	-68,371	0,056	-0,016
-571,919	154,488	-0,038	0,038
-570,904	-7,724	0,023	0,012
-569,890	437,095	0,069	-0,110
-568,875	307,745	-0,039	-0,053
-567,861	248,864	0,063	0,078
-566,846	37,554	-0,062	0,040
-565,831	-82,715	0,040	-0,009
-564,817	299,320	0,072	-0,097
-563,802	-200,000	0,004	0,086
-562,788	-200,000	0,014	0,105
-561,773	-23,951	-0,082	-0,036
-560,758	58,542	0,037	0,026
-559,744	55,424	-0,054	0,038
-558,729	-83,117	-0,086	-0,020
-557,715	-66,071	-0,167	-0,048
-556,700	800,000	0,027	-0,058
-555,685	-149,994	-0,155	-0,009
-554,671	-200,000	0,003	-0,183
-553,656	-169,735	0,040	0,001
-552,642	505,883	-0,028	0,048
-551,627	164,690	0,014	0,015
-550,612	20,208	0,034	-0,020
-549,598	-176,698	-0,033	0,001
-548,583	-200,000	-0,002	0,016
-547,569	-117,670	-0,067	0,009
-546,554	134,937	-0,105	0,100
-545,539	52,873	-0,145	-0,101
-544,525	800,000	-0,085	0,207
-543,510	14,036	0,089	0,050
-542,496	-123,853	-0,082	-0,009
-541,481	-200,000	-0,016	-0,068
-540,466	-96,969	0,115	0,022
-539,452	-7,308	-0,030	0,015
-538,437	680,811	-0,074	0,142
-537,423	114,123	-0,098	-0,087
-536,408	-68,350	-0,033	-0,009
-535,393	800,000	-0,067	0,175
-534,379	162,046	-0,124	0,127
-533,364	-200,000	-0,025	-0,087
-532,350	-200,000	-0,040	-0,133
-531,335	-200,000	0,025	-0,092
-530,321	-82,400	0,140	0,033
-529,306	-38,783	0,026	-0,010
-528,291	161,355	-0,034	0,035
-527,277	800,000	-0,037	-0,077
-526,262	-94,731	-0,114	-0,022
-525,248	41,662	-0,154	-0,101
-524,233	800,000	0,026	0,079
-523,218	-200,000	-0,006	0,042
-522,204	-200,000	0,003	0,037
-521,189	68,968	0,033	0,025
-520,175	213,970	-0,056	0,065
-519,160	800,000	0,054	-0,143
-518,145	45,310	0,170	-0,114
-517,131	800,000	0,021	0,045
-516,116	133,946	0,103	0,097
-515,102	261,192	-0,019	-0,024
-514,087	472,936	0,042	-0,070
-513,072	800,000	0,010	0,031
-512,058	68,487	0,049	-0,037
-511,043	800,000	0,022	-0,067
-510,029	541,801	0,071	0,124
-509,014	591,802	0,034	-0,062
-507,999	-89,738	-0,019	-0,004
-506,985	778,328	0,024	0,047
-505,970	795,504	-0,068	-0,137
-504,956	21,680	0,045	-0,027
-503,941	-200,000	0,006	-0,056
-502,926	432,606	0,040	-0,063
-501,912	780,479	0,034	0,067
-500,897	800,000	-0,062	-0,127
-499,883	500,325	-0,101	0,171
-498,868	-200,000	-0,010	-0,041
-497,853	106,313	-0,055	-0,048
-496,839	205,516	0,066	-0,075
-495,824	231,174	0,045	0,054
-494,810	-200,000	-0,011	-0,062
-493,795	-127,548	-0,093	0,010
-492,781	-200,000	-0,011	-0,091
-491,766	-1,262	-0,069	-0,036
-490,751	-47,382	0,046	-0,016
-489,737	800,000	0,042	0,097
-488,722	104,802	-0,076	-0,065
-487,708	-103,518	0,130	-0,022
-486,693	-200,000	0,016	-0,118
-485,678	577,053	-0,061	-0,109
-484,664	-200,000	0,006	0,105
-483,649	800,000	-0,025	-0,053
-482,635	-9,219	-0,093	-0,045
-481,620	-200,000	0,024	0,161
-480,605	-200,000	-0,005	0,059
-479,591	-148,127	0,132	0,008
-478,576	-180,386	-0,164	0,002
-477,562	-96,880	0,030	0,006
-476,547	-11,436	-0,084	-0,040
-475,532	393,970	-0,037	0,056
-474,518	-200,000	0,030	0,140
-473,503	150,269	-0,064	0,063
-472,489	-200,000	-0,010	-0,058
-471,474	-56,421	-0,079	0,025
-470,459	-1,059	0,101	-0,052
-469,445	120,464	-0,053	-0,048
-468,430	-200,000	0,027	-0,134
-467,416	800,000	0,030	0,085
-466,401	274,190	0,033	0,043
-465,386	800,000	0,062	-0,174
-464,372	657,934	-0,049	-0,093
-463,357	-200,000	-0,003	-0,041
-462,343	800,000	-0,040	-0,095
-461,328	133,112	0,066	-0,062
-460,313	-200,000	0,014	-0,071
-459,299	-200,000	-0,027	0,102
-458,284	239,907	0,061	0,074
-457,270	-137,947	-0,145	0,012
-456,255	579,696	-0,023	-0,042
-455,241	-111,296	0,138	-0,020
-454,226	206,771	-0,052	-0,059
-453,211	366,405	-0,053	0,079
-452,197	-54,776	0,082	0,027
-451,182	-200,000	-0,000	0,010
-450,168	-67,716	0,082	-0,023
-449,153	-200,000	0,002	-0,040
-448,138	-200,000	-0,003	-0,088
-447,124	209,271	0,026	-0,030
-446,109	350,712	0,065	0,095
-445,095	-180,730	-0,123	0,002
-444,080	-200,000	-0,009	0,156
-443,065	71,732	-0,114	0,086
-442,051	353,397	-0,046	0,067
-441,036	179,806	0,088	0,094
-440,022	20,074	0,002	-0,001
-439,007	800,000	-0,031	-0,075
-437,992	316,661	-0,040	-0,056
-436,978	222,169	-0,012	0,015
-435,963	-44,519	0,115	0,042
-434,949	800,000	-0,046	0,113
-433,934	190,411	-0,059	0,065
-432,919	800,000	0,050	-0,134
-431,905	-85,670	0,099	-0,022
-430,890	63,698	0,052	-0,038
-429,876	-148,231	0,101	-0,006
-428,861	-3,675	0,105	-0,053
-427,846	-40,985	-0,033	-0,012
-426,832	-200,000	0,001	0,004
-425,817	800,000	0,019	0,047
-424,803	-8,364	0,100	0,049
-423,788	-152,264	-0,016	-0,001
-422,773	599,982	-0,027	0,050
-421,759	-4,075	0,064	0,032
-420,744	-11,150	-0,159	-0,076
-419,730	800,000	0,025	-0,075
-418,715	5,815	-0,051	-0,027
-417,701	276,996	0,035	0,046
-416,686	-40,160	-0,027	-0,010
-415,671	384,297	0,068	0,102
-414,657	-200,000	-0,012	0,079
-413,642	543,167	-0,029	-0,050
-412,628	-68,768	-0,047	0,013
-411,613	40,625	0,097	-0,063
-410,598	224,753	0,064	-0,076
-409,584	-93,097	0,079	0,016
-408,569	225,114	0,092	0,108
-407,555	-200,000	-0,023	-0,126
-406,540	-29,920	0,188	-0,078
-405,525	-84,779	-0,053	-0,012
-404,511	534,874	0,030	0,053
-403,496	163,382	-0,066	0,067
-402,482	800,000	-0,032	-0,076
-401,467	275,831	0,068	0,088
-400,452	-83,759	0,036	0,008
-399,438	-90,295	-0,039	0,008
-398,423	-126,265	0,116	-0,012
-397,409	-200,000	-0,006	0,038
-396,394	260,941	-0,027	-0,033
-395,379	169,915	0,028	0,029
-394,365	-53,533	-0,078	-0,026
-393,350	-13,951	0,067	0,031
-392,336	-200,000	0,007	-0,046
-391,321	-96,702	-0,154	0,029
-390,306	747,221	-0,024	0,048
-389,292	-200,000	-0,021	-0,127
-388,277	-130,508	-0,103	0,010
-387,263	-96,069	0,082	-0,016
-386,248	800,000	0,023	-0,052
-385,233	-150,140	0,030	-0,002
-384,219	191,568	-0,075	0,082
-383,204	800,000	-0,016	-0,046
-382,190	501,898	-0,051	-0,086
-381,175	-138,142	-0,028	-0,002
-380,160	45,489	0,111	0,074
-379,146	-200,000	-0,001	0,079
-378,131	376,378	-0,050	0,075
-377,117	251,586	0,054	-0,066
-376,102	102,076	0,115	-0,098
-375,088	-40,810	-0,073	0,027
-374,073	448,366	0,063	0,102
-373,058	568,310	0,058	0,103
-372,044	-200,000	0,012	0,065
-371,029	-18,441	0,179	0,081
-370,015	-175,391	-0,165	0,003
-369,000	548,392	-0,016	0,028
-367,985	-200,000	0,002	-0,030
-366,971	-69,198	-0,081	0,022
-365,956	-65,183	-0,130	0,038
-364,942	166,979	0,075	0,077
-363,927	-148,614	0,146	0,008
-362,912	477,497	-0,028	0,046
-361,898	344,936	-0,050	-0,071
-360,883	800,000	-0,033	-0,082
-359,869	-99,618	0,088	0,016
-358,854	65,950	0,028	0,021
-357,839	-200,000	0,037	0,150
-356,825	800,000	0,018	-0,040
-355,810	61,393	0,049	-0,035
-354,796	28,027	-0,093	0,057
-353,781	369,263	-0,110	-0,161
-352,766	-19,752	-0,014	-0,006
-351,752	59,566	0,054	0,039
-350,737	39,647	-0,117	0,076
-349,723	-200,000	0,007	0,048
-348,708	15,193	0,086	-0,049
-347,693	-66,387	-0,070	0,020
-346,679	14,404	-0,086	0,049
-345,664	-15,225	-0,085	-0,039
-344,650	-200,000	0,063	0,206
-343,635	97,111	-0,080	-0,066
-342,620	-200,000	-0,005	0,054
-341,606	-59,032	0,127	0,039
-340,591	192,250	-0,039	-0,043
-339,577	-200,000	-0,005	-0,100
-338,562	206,780	0,051	0,058
-337,548	800,000	0,034	0,100
-336,533	-138,133	0,229	-0,018
-335,518	13,259	-0,101	0,057
-334,504	-13,114	-0,043	0,020
-333,489	-75,865	-0,077	0,019
-332,475	800,000	0,072	-0,193
-331,460	-28,314	-0,147	0,061
-330,445	323,803	0,130	-0,180
-329,431	320,546	0,005	-0,007
-328,416	-101,372	0,052	0,009
-327,402	1,904	0,068	-0,035
-326,387	-200,000	0,001	-0,108
-325,372	-7,716	0,025	-0,012
-324,358	800,000	-0,033	-0,092
-323,343	-15,133	-0,099	0,046
-322,329	61,038	-0,020	0,015
-321,314	-91,251	0,159	0,033
-320,299	-67,469	0,037	0,011
-319,285	83,664	0,061	-0,048
-318,270	-200,000	-0,002	-0,093
-317,256	-18,758	-0,067	0,030
-316,241	141,787	-0,052	-0,050
-315,226	800,000	-0,016	-0,032
-314,212	126,551	-0,085	0,078
-313,197	83,169	0,066	-0,052
-312,183	-183,337	-0,083	-0,001
-311,168	-200,000	-0,013	0,057
-310,153	800,000	0,049	0,102
-309,139	-200,000	-0,020	0,109
-308,124	-200,000	0,023	-0,104
-307,110	800,000	-0,040	0,092
-306,095	92,894	0,050	0,041
-305,080	72,909	-0,111	0,084
-304,066	-122,794	-0,111	0,013
-303,051	-33,405	0,068	0,027
-302,037	474,372	0,072	0,118
-301,022	800,000	-0,041	0,101
-300,008	800,000	0,037	0,116
-298,993	-200,000	0,020	-0,107
-297,978	187,205	0,082	0,089
-296,964	-16,032	0,038	-0,018
-295,949	-200,000	-0,003	-0,018
-294,935	518,875	0,093	-0,158
-293,920	-200,000	0,003	0,051
-292,905	147,947	0,046	-0,045
-291,891	-44,374	-0,017	-0,006
-290,876	-120,945	-0,082	0,010
-289,862	215,416	0,100	0,115
-288,847	-200,000	-0,004	-0,093
-287,832	172,825	0,041	-0,042
-286,818	-85,065	-0,041	-0,009
-285,803	-200,000	0,018	0,078
-284,789	-200,000	0,004	0,014
-283,774	-124,548	-0,054	-0,006
-282,759	105,050	0,049	-0,042
-281,745	-200,000	0,007	-0,072
-280,730	417,643	-0,044	0,069
-279,716	11,700	-0,047	0,026
-278,701	-200,000	0,019	0,115
-277,686	-200,000	-0,013	0,097
-276,672	-113,342	-0,095	-0,013
-275,657	800,000	0,043	0,123
-274,643	-79,313	0,049	-0,012
-273,628	-200,000	-0,016	0,095
-272,613	-115,532	0,097	-0,013
-271,599	20,699	0,050	0,029
-270,584	39,544	0,112	-0,072
-269,570	-74,543	-0,070	-0,018
-268,555	52,551	-0,033	-0,023
-267,540	800,000	-0,052	-0,125
-266,526	-200,000	0,034	0,116
-265,511	-131,906	-0,084	0,008
-264,497	-165,669	-0,030	0,001
-263,482	511,303	0,015	0,025
-262,467	372,620	0,074	0,110
-261,453	429,569	0,055	-0,086
-260,438	7,100	0,027	0,015
-259,424	-18,062	-0,054	-0,024
-258,409	489,809	-0,021	-0,035
-257,395	395,895	0,088	0,133
-256,380	85,793	-0,068	0,054
-255,365	-200,000	-0,035	0,156
-254,351	800,000	-0,045	0,122
-253,336	-200,000	0,001	-0,073
-252,322	800,000	0,017	-0,050
-251,307	23,192	0,120	-0,071
-250,292	91,114	0,031	-0,025
-249,278	57,263	0,027	0,019
-248,263	-80,076	0,098	0,024
-247,249	-131,564	-0,065	-0,006
-246,234	-56,420	-0,124	-0,039
-245,219	28,413	0,081	0,050
-244,205	554,105	-0,058	-0,101
-243,190	-57,830	0,087	0,027
-242,176	313,756	0,064	0,087
-241,161	244,059	0,061	-0,075
-240,146	397,193	-0,096	-0,145
-239,132	-200,000	0,018	-0,071
-238,117	623,444	-0,040	0,074
-237,103	47,890	-0,113	-0,076
-236,088	47,814	-0,028	-0,019
-235,073	132,288	0,046	0,043
-234,059	-93,061	0,051	0,010
-233,044	800,000	0,060	0,173
-232,030	125,848	-0,124	0,113
-231,015	-200,000	0,018	0,063
-230,000	-200,000	0,030	-0,119
-228,986	36,496	-0,082	-0,052
-227,971	-200,000	0,004	0,085
-226,957	-145,339	-0,048	0,003
-225,942	-200,000	0,007	0,106
-224,927	-200,000	-0,011	0,087
-223,913	-4,365	0,033	-0,016
-222,898	-167,461	0,055	-0,002
-221,884	259,930	-0,067	-0,083
-220,869	325,161	0,020	-0,028
-219,855	800,000	-0,011	0,029
-218,840	-200,000	-0,003	0,040
-217,825	76,529	-0,077	0,059
-216,811	-85,895	-0,174	-0,039
-215,796	109,430	0,157	-0,136
-214,782	223,816	0,050	-0,058
-213,767	191,851	0,045	-0,049
-212,752	-110,716	0,007	-0,001
-211,738	557,621	-0,036	0,064
-210,723	-119,248	0,078	0,010
-209,709	800,000	-0,049	0,131
-208,694	-100,071	-0,140	-0,025
-207,679	215,760	-0,070	-0,080
-206,665	-200,000	0,029	0,118
-205,650	-200,000	-0,013	-0,136
-204,636	197,535	-0,110	0,122
-203,621	-46,243	0,150	0,053
-202,606	-45,860	-0,021	0,007
-201,592	-16,662	-0,131	0,060
-200,577	355,505	0,067	-0,097
-199,563	260,975	0,071	-0,088
-198,548	-101,826	-0,007	0,001
-197,533	-200,000	0,014	0,097
-196,519	224,182	0,072	-0,084
-195,504	-106,413	-0,122	0,019
-194,490	-200,000	0,029	-0,117
-193,475	-151,773	-0,119	-0,006
-192,460	-121,802	-0,048	0,006
-191,446	150,818	-0,139	-0,136
-190,431	-84,262	0,078	-0,018
-189,417	72,834	-0,112	0,084
-188,402	800,000	0,034	0,108
-187,387	238,539	-0,063	-0,076
-186,373	1,643	-0,157	-0,081
-185,358	150,428	0,057	-0,056
-184,344	800,000	0,043	0,132
-183,329	800,000	-0,034	-0,094
-182,315	12,801	-0,090	0,050
-181,300	-113,917	0,101	0,014
-180,285	51,679	0,076	-0,052
-179,271	-200,000	-0,007	-0,045
-178,256	-107,930	0,104	-0,016
-177,242	-18,232	0,068	0,030
-176,227	-200,000	-0,007	0,088
-175,212	-136,207	0,079	0,007
-174,198	253,082	-0,074	0,091
-173,183	-200,000	0,010	-0,158
-172,169	-93,091	-0,077	-0,015
-171,154	31,261	0,039	-0,024
-170,139	-108,048	0,162	0,025
-169,125	25,872	-0,053	-0,032
-168,110	-200,000	-0,021	-0,068
-167,096	-200,000	0,006	0,087
-166,081	-170,301	-0,024	0,001
-165,066	412,080	-0,025	-0,039
-164,052	-200,000	-0,010	-0,038
-163,037	-200,000	-0,000	-0,004
-162,023	94,385	0,135	0,111
-161,008	800,000	0,048	-0,106
-159,993	800,000	-0,028	0,069
-158,979	54,038	-0,051	-0,036
-157,964	-200,000	-0,012	-0,069
-156,950	144,457	0,033	0,032
-155,935	-155,891	0,140	0,006
-154,920	800,000	-0,031	0,069
-153,906	188,839	0,028	0,030
-152,891	372,812	0,065	-0,095
-151,877	-19,282	0,100	0,044
-150,862	629,140	-0,056	-0,103
-149,847	-200,000	-0,011	-0,046
-148,833	158,001	-0,118	0,118
-147,818	800,000	-0,023	-0,069
-146,804	-74,471	0,084	-0,022
-145,789	83,868	-0,008	-0,006
-144,775	-120,350	-0,101	-0,012
-143,760	800,000	-0,037	0,083
-142,745	800,000	0,029	-0,084
-141,731	-69,959	-0,077	-0,021
-140,716	79,093	0,098	0,075
-139,702	161,280	0,036	-0,036
-138,687	-12,563	0,134	0,063
-137,672	-200,000	-0,020	0,104
-136,658	-115,238	0,038	-0,005
-135,643	-189,543	-0,087	0,001
-134,629	91,306	0,047	-0,038
-133,614	-129,103	-0,079	0,008
-132,599	-148,803	0,116	0,007
-131,585	-140,206	0,057	-0,004
-130,570	-163,394	-0,104	-0,004
-129,556	800,000	0,019	0,044
-128,541	-158,331	-0,028	0,001
-127,526	-13,252	0,118	0,055
-126,512	403,990	-0,049	-0,075
-125,497	-200,000	0,048	-0,158
-124,483	-200,000	0,014	-0,050
-123,468	347,330	-0,053	-0,076
-122,453	-200,000	-0,045	-0,223
-121,439	-68,513	-0,029	-0,008
-120,424	122,572	-0,078	-0,070
-119,410	604,705	0,060	0,108
-118,395	748,818	-0,038	-0,075
-117,380	-56,211	-0,030	0,010
-116,366	-200,000	-0,013	0,084
-115,351	130,711	0,090	-0,083
-114,337	125,907	-0,133	-0,121
-113,322	-200,000	0,004	-0,120
-112,307	-97,002	-0,127	-0,024
-111,293	591,974	0,050	0,090
-110,278	800,000	-0,024	0,052
-109,264	-9,730	0,115	0,055
-108,249	-82,599	-0,098	-0,023
-107,234	531,056	0,037	-0,064
-106,220	375,497	0,013	-0,019
-105,205	86,865	-0,054	-0,043
-104,191	-121,725	0,115	0,013
-103,176	800,000	-0,016	-0,051
-102,162	-200,000	0,000	0,062
-101,147	800,000	0,036	0,090
-100,132	-20,129	-0,106	0,047
-99,118	-200,000	0,004	0,025
-98,103	800,000	-0,033	0,080
-97,089	-19,680	0,021	0,009
-96,074	800,000	-0,032	0,098
-95,059	412,645	0,073	0,112
-94,045	418,585	-0,014	0,021
-93,030	-18,046	-0,204	0,091
-92,016	-3,041	-0,067	-0,033
-91,001	-108,866	-0,121	-0,018
-89,986	188,099	0,077	-0,083
-88,972	373,012	0,019	-0,028
-87,957	-200,000	0,007	0,044
-86,943	365,087	0,030	-0,044
-85,928	440,706	-0,024	0,038
-84,913	83,831	-0,071	-0,055
-83,899	-200,000	-0,015	-0,157
-82,884	55,315	0,054	0,038
-81,870	50,351	-0,084	0,057
-80,855	-79,814	0,170	0,041
-79,840	-110,122	-0,075	0,011
-78,826	800,000	-0,012	-0,031
-77,811	-200,000	-0,012	-0,042
-76,797	-130,291	-0,077	-0,007
-75,782	-200,000	0,014	-0,136
-74,767	800,000	0,029	0,059
-73,753	-200,000	-0,004	0,055
-72,738	147,811	-0,058	-0,056
-71,724	800,000	-0,004	-0,011
-70,709	77,803	0,055	0,042
-69,694	188,675	-0,082	-0,088
-68,680	-92,032	0,178	-0,036
-67,665	91,444	-0,082	0,066
-66,651	800,000	0,067	0,174
-65,636	-188,594	-0,107	0,001
-64,622	-54,353	-0,084	-0,027
-63,607	-24,222	-0,105	-0,045
-62,592	-18,403	-0,119	-0,053
-61,578	800,000	0,025	-0,060
-60,563	160,303	-0,100	-0,100
-59,549	-79,114	0,096	-0,023
-58,534	15,894	-2,148	-1,209
-57,519	-200,000	-0,219	-0,740
-56,505	-200,000	-1,231	-5,074
-55,490	100,416	0,828	0,689
-54,476	800,000	5,426	12,000
-53,461	-200,000	18,588	311,280
-52,446	800,000	740,185	2317,390
-51,432	556,063	1656,071	2870,803
-50,417	110,629	1640,161	1413,652
-49,403	74,861	1289,949	972,642
-48,388	30,421	1030,825	630,017
-47,373	19,919	993,324	572,336
-46,359	17,534	980,980	557,354
-45,344	14,280	977,182	544,487
-44,330	14,581	975,486	544,507
-43,315	13,970	973,535	541,396
-42,300	13,928	972,542	540,685
-41,286	13,914	971,658	540,126
-40,271	13,931	970,589	539,566
-39,257	13,929	969,866	539,136
-38,242	13,889	969,026	538,517
-37,227	13,958	967,997	538,150
-36,213	13,917	967,083	537,487
-35,198	13,893	966,421	537,017
-34,184	13,952	965,666	536,769
-33,169	13,874	964,705	535,959
-32,154	13,963	963,556	535,588
-31,140	13,969	962,583	535,046
-30,125	13,937	962,187	534,701
-29,111	13,951	961,146	534,147
-28,096	14,004	960,526	533,951
-27,082	13,980	959,782	533,440
-26,067	13,929	959,089	532,871
-25,052	13,901	958,268	532,302
-24,038	13,937	957,562	532,005
-23,023	13,852	957,087	531,447
-22,009	13,952	956,325	531,323
-20,994	13,923	955,791	530,911
-19,979	13,936	955,210	530,611
-18,965	13,855	954,627	530,006
-17,950	13,967	953,774	529,871
-16,936	13,901	953,248	529,345
-15,921	13,872	952,556	528,848
-14,906	13,855	951,785	528,343
-13,892	13,803	951,326	527,900
-12,877	13,831	950,602	527,569
-11,863	13,789	949,916	527,031
-10,848	13,840	949,284	526,823
-9,833	13,855	949,025	526,708
-8,819	13,875	948,156	526,266
-7,804	13,836	947,481	525,747
-6,790	13,750	947,097	525,239
-5,775	13,866	946,492	525,253
-4,760	13,831	946,028	524,863
-3,746	13,835	945,269	524,434
-2,731	13,694	944,575	523,581
-1,717	13,667	943,895	523,096
-0,702	13,606	943,261	522,530
0,313	13,417	942,526	522,315
1,327	16,614	940,363	531,179
2,342	25,574	795,489	473,133
3,356	22,143	460,228	268,442
4,371	-4,378	317,377	156,664
5,386	-8,124	299,202	143,853
6,400	-10,053	293,108	138,978
7,415	-10,598	290,430	137,154
8,429	-10,819	288,718	136,116
9,444	-11,055	288,037	135,550
10,459	-11,083	287,441	135,230
11,473	-11,048	286,829	134,965
12,488	-11,013	286,218	134,698
13,502	-10,974	285,745	134,503
14,517	-11,039	285,363	134,247
15,531	-11,045	284,736	133,934
16,546	-11,066	284,352	133,722
17,561	-11,301	284,092	133,359
18,575	-11,187	283,646	133,249
19,590	-10,991	283,240	133,235
20,604	-11,020	282,795	132,987
21,619	-11,138	282,548	132,744
22,634	-11,175	282,178	132,523
23,648	-11,319	282,037	132,306
24,663	-11,200	281,771	132,284
25,677	-11,325	281,276	131,920
26,692	-11,232	281,145	131,936
27,707	-11,249	280,794	131,743
28,721	-11,345	280,617	131,556
29,736	-11,233	280,166	131,441
30,750	-11,324	280,019	131,273
31,765	-11,304	279,825	131,190
32,780	-11,199	279,510	131,130
33,794	-11,223	279,405	131,047
34,809	-11,087	278,962	130,956
35,823	-11,176	278,786	130,777
36,838	-11,232	278,535	130,594
37,853	-11,191	278,110	130,422
38,867	-11,173	277,809	130,287
39,882	-11,295	277,772	130,143
40,896	-11,275	277,578	130,059
41,911	-11,314	277,302	129,881
42,926	-11,174	276,840	129,785
43,940	-11,274	276,655	129,593
44,955	-11,355	276,579	129,469
45,969	-11,276	276,220	129,364
46,984	-11,463	275,991	129,069
47,999	-11,819	275,697	128,585
49,013	-11,917	275,401	128,344
50,028	-11,997	275,075	128,106
51,042	-12,085	274,864	127,914
52,057	-12,208	274,713	127,716
53,071	-11,899	274,506	127,898
54,086	-11,751	274,185	127,875
55,101	-11,836	274,163	127,775
56,115	-11,515	274,055	128,013
57,130	-11,151	273,829	128,235
58,144	-10,955	273,639	128,318
59,159	-11,008	273,419	128,153
60,174	-10,829	273,234	128,222
61,188	-11,101	272,948	127,823
62,203	-11,104	272,692	127,689
63,217	-11,125	272,371	127,508
64,232	-11,073	272,170	127,450
65,247	-10,905	272,019	127,524
66,261	-11,018	271,716	127,266
67,276	-11,225	271,519	126,971
68,290	-11,429	271,185	126,615
69,305	-11,322	270,893	126,566
70,320	-11,422	270,777	126,409
71,334	-11,269	270,608	126,460
72,349	-11,025	270,546	126,643
73,363	-10,940	270,253	126,574
74,378	-10,989	269,955	126,378
75,393	-11,076	269,789	126,209
76,407	-11,049	269,438	126,058
77,422	-11,140	269,414	125,953
78,436	-11,076	269,297	125,944
79,451	-10,976	268,867	125,824
80,466	-11,213	268,689	125,513
81,480	-11,402	268,378	125,184
82,495	-11,300	268,450	125,300
83,509	-11,344	268,040	125,057
84,524	-11,253	267,827	125,029
85,539	-11,361	267,546	124,789
86,553	-11,457	267,374	124,610
87,568	-11,191	267,152	124,737
88,582	-11,344	267,021	124,526
89,597	-11,307	266,651	124,376
90,611	-11,234	266,695	124,452
91,626	-11,013	266,453	124,527
92,641	-10,990	266,260	124,447
93,655	-11,131	266,058	124,214
94,670	-11,150	265,873	124,100
95,684	-11,219	265,595	123,896
96,699	-11,215	265,434	123,814
97,714	-11,306	265,259	123,639
98,728	-11,341	264,986	123,469
99,743	-11,504	264,795	123,223
100,757	-11,304	264,413	123,214
101,772	-11,278	264,360	123,201
102,787	-11,438	264,185	122,966
103,801	-11,030	263,998	123,233
104,816	-11,002	263,788	123,149
105,830	-11,025	263,624	123,040
106,845	-10,978	263,444	122,987
107,860	-11,072	263,340	122,844
108,874	-11,088	263,062	122,689
109,889	-11,218	262,915	122,494
110,903	-11,093	262,611	122,453
111,918	-11,187	262,508	122,311
112,933	-10,996	262,269	122,358
113,947	-11,095	262,100	122,180
114,962	-11,229	261,934	121,973
115,976	-10,869	261,645	122,146
116,991	-11,167	261,380	121,747
118,006	-10,990	261,310	121,861
119,020	-11,078	261,181	121,712
120,035	-11,156	261,172	121,628
121,049	-11,078	260,970	121,593
122,064	-10,885	260,696	121,624
123,079	-11,084	260,465	121,329
124,093	-11,119	260,169	121,151
125,108	-11,231	259,942	120,935
126,122	-11,496	259,770	120,611
127,137	-11,616	259,391	120,319
128,151	-11,400	259,155	120,389
129,166	-11,290	259,141	120,468
130,181	-11,455	258,881	120,192
131,195	-11,329	258,640	120,180
132,210	-11,213	258,474	120,193
133,224	-11,193	258,492	120,208
134,239	-10,965	258,213	120,266
135,254	-10,994	258,036	120,148
136,268	-11,116	257,797	119,920
137,283	-11,372	257,575	119,584
138,297	-11,482	257,333	119,364
139,312	-11,497	257,079	119,223
140,327	-11,200	256,970	119,420
141,341	-11,079	256,896	119,480
142,356	-11,041	256,781	119,448
143,370	-10,889	256,425	119,404
144,385	-10,916	256,405	119,360
145,400	-10,850	256,247	119,334
146,414	-11,060	256,090	119,068
147,429	-11,009	255,835	118,983
148,443	-10,798	255,636	119,062
149,458	-10,807	255,417	118,942
150,473	-10,973	255,455	118,806
151,487	-10,904	255,117	118,697
152,502	-10,976	254,867	118,508
153,516	-10,881	254,887	118,589
154,531	-10,592	254,529	118,660
155,546	-10,855	254,465	118,393
156,560	-11,003	254,164	118,116
157,575	-10,858	253,848	118,083
158,589	-10,822	253,687	118,029
159,604	-10,892	253,501	117,871
160,619	-10,719	253,330	117,930
161,633	-10,877	253,181	117,714
162,648	-10,932	253,139	117,637
163,662	-10,828	252,979	117,641
164,677	-10,829	252,834	117,563
165,692	-10,861	252,543	117,390
166,706	-10,799	252,421	117,376
167,721	-10,944	252,156	117,118
168,735	-10,810	252,048	117,172
169,750	-10,666	251,974	117,249
170,764	-10,615	251,740	117,173
171,779	-10,563	251,549	117,118
172,794	-10,724	251,587	116,989
173,808	-10,706	251,142	116,786
174,823	-11,205	250,945	116,262
175,837	-11,490	250,800	115,944
176,852	-10,831	250,670	116,430
177,867	-10,739	250,634	116,481
178,881	-10,937	250,418	116,203
179,896	-10,946	250,357	116,157
180,910	-10,721	250,040	116,188
181,925	-10,818	249,761	115,967
182,940	-10,828	249,640	115,892
183,954	-10,818	249,519	115,834
184,969	-10,753	249,361	115,805
185,983	-10,812	249,230	115,684
186,998	-10,817	249,118	115,617
188,013	-10,996	248,932	115,371
189,027	-10,768	248,723	115,455
190,042	-10,622	248,449	115,440
191,056	-10,626	248,241	115,330
192,071	-10,658	248,057	115,207
193,086	-10,668	247,919	115,123
194,100	-10,494	247,770	115,190
195,115	-10,561	247,542	115,017
196,129	-10,798	247,485	114,784
197,144	-10,616	247,262	114,821
198,159	-10,717	247,110	114,656
199,173	-10,595	246,707	114,560
200,188	-10,849	246,763	114,365
201,202	-10,961	246,358	114,075
202,217	-11,042	246,037	113,849
203,232	-11,143	245,868	113,677
204,246	-10,783	246,033	114,041
205,261	-10,227	245,858	114,409
206,275	-10,635	245,729	114,002
207,290	-5,096	247,830	119,573
208,304	2,371	250,132	126,920
209,319	4,616	250,620	129,033
210,334	4,718	250,730	129,162
211,348	5,243	250,494	129,468
212,363	5,218	250,364	129,368
213,377	4,962	250,267	129,093
214,392	5,112	250,119	129,130
215,407	5,075	249,950	129,000
216,421	4,882	249,805	128,754
217,436	5,126	249,637	128,858
218,450	5,123	249,433	128,739
219,465	4,951	249,252	128,491
220,480	4,694	249,001	128,138
221,494	4,620	248,797	127,960
222,509	4,550	248,700	127,841
223,523	4,549	248,536	127,744
224,538	4,551	248,200	127,561
225,553	4,716	248,252	127,714
226,567	4,813	248,065	127,686
227,582	4,818	247,758	127,521
228,596	4,706	247,836	127,457
229,611	4,299	247,518	126,947
230,626	4,388	247,146	126,818
231,640	4,516	247,129	126,903
232,655	4,511	246,940	126,791
233,669	4,429	246,847	126,664
234,684	4,344	246,652	126,483
235,699	4,582	246,528	126,604
236,713	4,656	246,571	126,675
237,728	4,451	246,045	126,226
238,742	4,411	245,894	126,105
239,757	4,414	245,853	126,075
240,772	4,321	245,724	125,921
241,786	4,371	245,503	125,838
242,801	4,163	245,350	125,578
243,815	4,470	245,232	125,757
244,830	4,477	245,184	125,726
245,844	4,761	244,943	125,823
246,859	4,552	244,723	125,529
247,874	4,392	244,592	125,321
248,888	4,635	244,571	125,496
249,903	4,680	244,399	125,433
250,917	4,552	244,229	125,231
251,932	4,557	244,156	125,186
252,947	4,639	243,910	125,115
253,961	4,455	243,627	124,810
254,976	4,573	243,503	124,831
255,990	4,385	243,254	124,540
257,005	4,479	243,064	124,508
258,020	4,221	242,977	124,244
259,034	4,517	242,822	124,392
260,049	4,479	242,711	124,294
261,063	4,335	242,442	124,029
262,078	4,376	242,412	124,036
263,093	4,713	242,331	124,254
264,107	4,788	242,102	124,185
265,122	4,390	242,002	123,804
266,136	4,605	241,846	123,886
267,151	4,582	241,690	123,776
268,166	4,511	241,452	123,586
269,180	4,525	241,225	123,471
270,195	4,875	241,328	123,792
271,209	4,701	241,187	123,569
272,224	4,157	241,014	123,036
273,239	4,146	240,768	122,891
274,253	4,126	240,522	122,737
275,268	4,358	240,489	122,895
276,282	4,460	240,242	122,838
277,297	4,449	239,888	122,638
278,312	4,331	239,973	122,577
279,326	4,294	239,843	122,470
280,341	4,466	239,687	122,516
281,355	4,222	239,656	122,296
282,370	4,434	239,456	122,351
283,384	4,474	239,094	122,186
284,399	4,320	238,964	121,987
285,414	4,529	238,799	122,057
286,428	4,530	238,680	121,986
287,443	4,515	238,422	121,832
288,457	4,701	238,305	121,908
289,472	4,755	238,374	121,975
290,487	4,570	238,035	121,645
291,501	4,323	237,855	121,347
292,516	4,230	237,616	121,142
293,530	4,137	237,628	121,064
294,545	4,548	237,498	121,310
295,560	4,575	237,326	121,233
296,574	4,406	237,225	121,038
297,589	4,368	237,267	121,018
298,603	4,618	237,180	121,159
299,618	4,946	236,833	121,228
300,633	4,484	236,721	120,798
301,647	4,809	236,573	120,966
302,662	5,180	236,425	121,169
303,676	4,788	236,255	120,766
304,691	4,779	236,037	120,636
305,706	5,041	235,837	120,727
306,720	4,805	235,737	120,482
307,735	4,633	235,655	120,295
308,749	4,399	235,464	120,005
309,764	4,307	235,264	119,820
310,779	4,189	234,910	119,538
311,793	4,138	234,890	119,478
312,808	4,238	234,645	119,420
313,822	4,260	234,446	119,325
314,837	4,375	234,430	119,395
315,852	4,658	234,356	119,566
316,866	4,810	234,259	119,623
317,881	4,841	234,159	119,586
318,895	4,679	234,050	119,394
319,910	4,754	233,833	119,331
320,925	4,348	233,595	118,886
321,939	4,289	233,409	118,734
322,954	4,709	233,388	119,037
323,968	4,596	233,183	118,835
324,983	4,783	233,075	118,913
325,997	4,744	233,073	118,872
327,012	4,693	232,783	118,673
328,027	4,639	232,662	118,560
329,041	4,942	232,652	118,776
330,056	5,020	232,584	118,791
331,070	5,090	232,397	118,739
332,085	4,832	232,218	118,440
333,100	4,707	231,998	118,221
334,114	4,788	231,763	118,153
335,129	5,037	231,682	118,290
336,143	4,908	231,498	118,088
337,158	4,801	231,314	117,902
338,173	4,611	231,124	117,650
339,187	4,557	231,059	117,565
340,202	4,807	230,814	117,620
341,216	4,602	230,833	117,464
342,231	4,498	230,659	117,285
343,246	4,722	230,462	117,345
344,260	4,748	230,302	117,273
345,275	4,778	230,322	117,296
346,289	4,967	230,019	117,273
347,304	4,928	229,930	117,188
348,319	4,821	229,627	116,942
349,333	4,642	229,377	116,669
350,348	4,347	229,438	116,467
351,362	4,513	229,221	116,472
352,377	4,155	229,083	116,122
353,392	4,104	228,908	115,984
354,406	3,806	228,731	115,660
355,421	195,912	1318,717	1394,960
356,435	157,152	1451,483	1394,927
