DTS Sentinel unit serial number:	SN410029Multiplexer serial number:	ORYXHardware model number:	OX2-SRSoftware version number:	ORYX F/W v4,00 Oryx Data Collector v3.7.2.0data status	okinstallation	B5 Nyhavnadifferential loss correction	single-endedforward channel	channel 2reverse channel	N/Adate	2023/12/11time	20:27:13forward acquisition time	300,00reverse acquisition time	0,00gamma	499,1914k internal	0,3158k external	0,3158temperature offset calibration	1,0000default loss term (dB/km)	0,3820temperature slope calibration	1,0000multiplexer offset coefficient	1,0000multiplexer slope coefficient	1,0000fibre end	0,00T internal ref (°C)	15,98T ext. ref 1 (°C)	0,22T ext. ref 2 (°C)	-0,04length (m)	temperature (°C)	Stokes	anti-Stokes-744,400	-200,000	0,013	-0,048
-743,385	-71,996	-0,284	-0,077
-742,371	-79,678	0,150	0,037
-741,356	-107,563	-0,268	0,043
-740,342	15,075	-0,028	0,016
-739,327	-172,669	-0,148	-0,003
-738,312	508,920	0,068	0,117
-737,298	-156,242	-0,121	-0,006
-736,283	95,104	0,093	-0,078
-735,269	-56,690	-0,292	0,095
-734,254	-97,034	0,090	-0,017
-733,239	-77,774	-0,476	-0,120
-732,225	137,439	0,183	0,176
-731,210	228,255	0,029	-0,034
-730,196	-66,965	0,051	0,015
-729,181	28,846	-0,072	-0,045
-728,167	800,000	-0,029	0,069
-727,152	3,761	0,060	0,032
-726,137	-200,000	-0,004	-0,046
-725,123	-21,330	-0,045	-0,020
-724,108	414,923	-0,020	-0,032
-723,094	-200,000	-0,061	-0,199
-722,079	-200,000	0,015	-0,092
-721,064	-200,000	-0,027	-0,090
-720,050	177,399	0,107	-0,115
-719,035	-109,995	-0,173	0,026
-718,021	-200,000	0,013	0,068
-717,006	28,426	-0,032	-0,020
-715,991	-126,999	-0,134	-0,014
-714,977	94,876	0,063	-0,053
-713,962	323,003	-0,044	-0,062
-712,948	687,967	0,038	-0,073
-711,933	87,937	-0,037	-0,030
-710,918	-176,352	-0,120	0,002
-709,904	-3,180	-0,129	0,066
-708,889	-200,000	-0,000	0,088
-707,875	-200,000	-0,017	-0,089
-706,860	-200,000	-0,022	-0,072
-705,845	-200,000	0,034	-0,210
-704,831	508,600	-0,040	-0,069
-703,816	36,140	0,133	-0,086
-702,802	543,594	0,022	0,039
-701,787	-200,000	-0,016	-0,055
-700,772	-101,755	-0,106	-0,019
-699,758	800,000	0,020	-0,052
-698,743	523,025	0,059	0,102
-697,729	408,575	0,051	0,080
-696,714	800,000	0,039	-0,124
-695,699	770,952	0,009	-0,019
-694,685	513,303	0,009	0,016
-693,670	800,000	-0,014	0,042
-692,656	18,437	0,059	0,035
-691,641	-78,230	0,034	0,009
-690,627	800,000	-0,030	-0,068
-689,612	163,921	-0,090	0,093
-688,597	-168,601	-0,047	0,001
-687,583	-98,506	-0,135	-0,025
-686,568	-87,754	-0,097	-0,021
-685,554	19,898	-0,049	-0,029
-684,539	185,186	-0,072	0,078
-683,524	-159,867	-0,111	-0,004
-682,510	-85,954	0,073	-0,017
-681,495	-200,000	-0,004	0,104
-680,481	1,760	0,083	-0,044
-679,466	-175,709	-0,272	-0,005
-678,451	800,000	-0,047	-0,116
-677,437	-200,000	-0,013	-0,073
-676,422	23,713	0,077	-0,047
-675,408	-99,399	-0,053	0,010
-674,393	-200,000	-0,014	-0,048
-673,378	-129,225	-0,162	0,016
-672,364	265,109	0,118	-0,151
-671,349	-200,000	-0,000	-0,129
-670,335	-181,864	0,228	0,003
-669,320	-200,000	-0,015	-0,138
-668,305	59,150	-0,103	0,074
-667,291	-150,285	-0,144	-0,008
-666,276	-116,334	-0,119	0,016
-665,262	-200,000	-0,032	-0,197
-664,247	243,169	-0,062	0,076
-663,232	800,000	0,045	0,094
-662,218	172,088	-0,065	0,069
-661,203	-200,000	-0,023	0,096
-660,189	-80,545	-0,072	0,018
-659,174	17,403	-0,075	-0,043
-658,159	51,736	-0,024	-0,017
-657,145	67,389	0,026	-0,020
-656,130	-150,779	-0,112	0,006
-655,116	125,597	0,091	0,084
-654,101	332,742	0,107	0,152
-653,086	37,618	-0,067	-0,043
-652,072	-75,243	-0,042	-0,011
-651,057	-200,000	0,029	-0,145
-650,043	60,682	0,025	-0,018
-649,028	800,000	-0,048	-0,126
-648,014	25,903	-0,040	-0,025
-646,999	800,000	0,028	0,069
-645,984	-175,542	0,066	0,001
-644,970	-176,312	-0,135	0,003
-643,955	-200,000	-0,027	-0,177
-642,941	-200,000	0,007	-0,061
-641,926	-19,769	-0,075	-0,034
-640,911	-133,462	0,091	0,008
-639,897	115,123	-0,130	0,116
-638,882	-200,000	0,033	-0,174
-637,868	303,797	-0,070	0,096
-636,853	69,203	0,087	0,066
-635,838	663,151	-0,061	-0,117
-634,824	604,876	0,057	0,105
-633,809	129,736	-0,047	0,044
-632,795	-200,000	-0,006	0,035
-631,780	-200,000	0,007	-0,065
-630,765	342,678	-0,057	-0,081
-629,751	433,128	0,030	-0,049
-628,736	-119,965	-0,095	0,012
-627,722	320,246	0,013	-0,018
-626,707	-72,236	0,086	0,023
-625,692	-9,252	0,054	-0,027
-624,678	-200,000	0,023	0,129
-623,663	800,000	-0,043	0,134
-622,649	38,172	-0,060	-0,039
-621,634	800,000	-0,025	-0,062
-620,619	-29,598	0,101	0,042
-619,605	559,338	0,093	0,166
-618,590	800,000	-0,001	-0,003
-617,576	-200,000	-0,034	-0,134
-616,561	99,921	-0,103	0,088
-615,546	423,623	-0,053	-0,083
-614,532	112,632	0,050	-0,044
-613,517	-135,956	-0,259	-0,022
-612,503	450,021	-0,093	-0,151
-611,488	621,193	0,051	-0,094
-610,474	-200,000	-0,011	0,091
-609,459	662,912	-0,041	-0,077
-608,444	-200,000	0,007	-0,130
-607,430	54,254	-0,070	-0,050
-606,415	386,329	-0,030	0,045
-605,401	-200,000	-0,003	-0,009
-604,386	-200,000	0,051	0,203
-603,371	-200,000	-0,013	0,154
-602,357	131,559	-0,029	-0,027
-601,342	-200,000	-0,017	0,062
-600,328	23,932	-0,028	-0,017
-599,313	210,846	0,031	-0,035
-598,298	139,056	-0,079	-0,076
-597,284	709,960	-0,039	0,076
-596,269	369,723	0,043	0,065
-595,255	-108,947	-0,041	0,006
-594,240	130,687	-0,134	-0,126
-593,225	-200,000	0,023	-0,109
-592,211	551,230	-0,015	0,026
-591,196	36,766	-0,062	0,040
-590,182	25,212	-0,087	-0,053
-589,167	172,290	-0,046	0,049
-588,152	-64,585	0,050	-0,015
-587,138	277,694	0,048	0,063
-586,123	456,673	0,039	-0,064
-585,109	780,351	-0,047	0,094
-584,094	618,735	0,090	-0,166
-583,079	-200,000	-0,009	0,077
-582,065	109,641	-0,084	0,073
-581,050	800,000	-0,070	0,219
-580,036	-131,779	-0,052	0,005
-579,021	-200,000	0,001	-0,168
-578,006	-200,000	0,025	-0,136
-576,992	800,000	-0,036	-0,112
-575,977	-200,000	0,020	0,087
-574,963	-151,367	-0,086	0,005
-573,948	183,863	-0,045	0,049
-572,934	-200,000	-0,001	-0,059
-571,919	800,000	0,016	-0,044
-570,904	-38,919	0,083	-0,032
-569,890	-200,000	0,034	0,251
-568,875	-88,685	-0,185	-0,040
-567,861	568,934	0,030	0,054
-566,846	-200,000	-0,017	0,087
-565,831	-200,000	-0,022	-0,107
-564,817	-200,000	-0,008	-0,040
-563,802	-200,000	-0,012	-0,186
-562,788	-94,892	-0,098	0,019
-561,773	-200,000	0,008	0,164
-560,758	-200,000	0,035	0,158
-559,744	61,045	-0,052	0,038
-558,729	330,128	0,048	-0,068
-557,715	-97,764	-0,072	-0,014
-556,700	-53,224	0,047	-0,016
-555,685	-142,467	-0,016	0,001
-554,671	-75,791	0,018	0,005
-553,656	800,000	0,079	0,163
-552,642	-200,000	-0,020	0,215
-551,627	-136,713	0,018	-0,001
-550,612	-1,108	0,068	-0,035
-549,598	628,401	-0,063	0,117
-548,583	-200,000	0,007	0,049
-547,569	36,721	0,057	-0,037
-546,554	9,115	-0,050	0,028
-545,539	800,000	0,046	-0,106
-544,525	-60,065	0,061	0,019
-543,510	538,654	-0,030	0,052
-542,496	414,331	-0,071	-0,111
-541,481	242,593	0,075	-0,092
-540,466	166,273	-0,096	-0,099
-539,452	109,685	0,158	-0,139
-538,437	178,624	0,118	0,127
-537,423	53,404	-0,022	-0,015
-536,408	136,933	-0,120	-0,115
-535,393	324,340	0,099	-0,139
-534,379	-200,000	-0,005	0,080
-533,364	46,662	-0,066	-0,045
-532,350	-64,281	-0,053	0,016
-531,335	155,767	0,121	0,122
-530,321	-200,000	0,018	0,171
-529,306	301,910	-0,015	0,020
-528,291	800,000	0,065	-0,162
-527,277	305,000	-0,068	-0,093
-526,262	-96,304	0,082	-0,016
-525,248	-52,380	0,033	0,011
-524,233	-200,000	-0,038	-0,128
-523,218	581,002	-0,066	0,118
-522,204	800,000	0,008	0,019
-521,189	392,467	-0,070	0,106
-520,175	-38,955	-0,127	0,048
-519,160	57,677	-0,099	0,070
-518,145	-200,000	0,017	-0,084
-517,131	-200,000	0,002	0,157
-516,116	316,890	-0,024	0,033
-515,102	800,000	-0,043	-0,138
-514,087	49,488	-0,095	-0,065
-513,072	-25,556	-0,082	-0,035
-512,058	-200,000	0,016	-0,053
-511,043	-200,000	0,028	-0,106
-510,029	-47,519	0,048	0,017
-509,014	-35,284	0,023	0,009
-507,999	393,191	0,026	0,040
-506,985	18,551	-0,063	0,037
-505,970	651,250	0,031	-0,057
-504,956	100,295	-0,057	-0,049
-503,941	800,000	0,014	-0,043
-502,926	292,849	0,049	-0,066
-501,912	-16,972	0,082	0,038
-500,897	187,064	0,021	-0,023
-499,883	-80,295	-0,143	-0,035
-498,868	-86,990	0,027	-0,006
-497,853	-200,000	0,005	-0,049
-496,839	81,342	-0,093	-0,074
-495,824	-53,557	0,131	0,043
-494,810	-200,000	-0,035	-0,155
-493,795	-42,662	0,012	0,004
-492,781	-200,000	0,010	0,041
-491,766	52,830	0,133	-0,093
-490,751	84,479	0,040	-0,032
-489,737	800,000	0,037	-0,082
-488,722	-35,982	0,069	-0,027
-487,708	49,784	-0,067	0,046
-486,693	48,842	-0,030	-0,021
-485,678	-200,000	0,030	0,185
-484,664	505,445	-0,060	0,102
-483,649	106,216	0,028	-0,024
-482,635	-19,951	0,046	-0,021
-481,620	422,385	0,003	-0,005
-480,605	57,278	-0,083	0,059
-479,591	800,000	-0,019	0,057
-478,576	190,749	-0,040	0,044
-477,562	81,926	-0,097	-0,076
-476,547	-200,000	-0,003	-0,130
-475,532	800,000	0,035	0,105
-474,518	-200,000	-0,004	-0,019
-473,503	60,445	0,133	0,096
-472,489	-22,154	-0,062	-0,028
-471,474	220,601	0,040	-0,047
-470,459	377,978	0,042	0,063
-469,445	-74,152	-0,076	0,020
-468,430	-145,715	0,084	-0,005
-467,416	291,539	-0,026	-0,035
-466,401	-52,498	-0,081	-0,027
-465,386	86,464	0,074	0,059
-464,372	512,567	0,056	0,096
-463,357	266,087	-0,055	-0,070
-462,343	-200,000	0,001	-0,065
-461,328	800,000	-0,058	-0,138
-460,313	249,133	-0,023	-0,028
-459,299	-200,000	-0,010	0,110
-458,284	-88,635	-0,055	0,012
-457,270	42,195	-0,090	0,059
-456,255	-200,000	0,006	-0,088
-455,241	-157,380	0,085	-0,004
-454,226	227,135	-0,071	0,084
-453,211	156,368	0,089	-0,090
-452,197	69,838	0,100	-0,075
-451,182	800,000	0,077	0,188
-450,168	-200,000	0,004	0,090
-449,153	-148,068	-0,026	-0,002
-448,138	363,736	0,032	0,047
-447,124	-200,000	0,015	-0,132
-446,109	800,000	0,042	0,132
-445,095	-200,000	-0,006	0,205
-444,080	-200,000	0,002	0,046
-443,065	374,921	-0,007	0,010
-442,051	633,782	-0,103	0,191
-441,036	47,064	0,058	-0,039
-440,022	800,000	0,030	-0,064
-439,007	800,000	0,053	-0,135
-437,992	800,000	-0,043	0,131
-436,978	-200,000	0,006	0,077
-435,963	-90,503	0,086	0,018
-434,949	692,860	-0,009	-0,017
-433,934	135,129	-0,009	0,009
-432,919	-73,084	0,049	-0,013
-431,905	-83,208	-0,121	0,028
-430,890	515,615	0,019	0,032
-429,876	-22,251	-0,084	-0,037
-428,861	489,112	0,025	0,042
-427,846	-55,390	-0,096	0,031
-426,832	800,000	0,048	-0,135
-425,817	-131,196	-0,031	-0,003
-424,803	100,694	0,066	0,055
-423,788	796,977	-0,052	0,104
-422,773	-200,000	-0,030	0,125
-421,759	40,759	-0,135	0,089
-420,744	124,141	0,064	-0,059
-419,730	800,000	-0,012	-0,028
-418,715	800,000	-0,065	-0,141
-417,701	-200,000	-0,017	-0,180
-416,686	-20,324	0,046	-0,020
-415,671	92,089	-0,086	-0,070
-414,657	800,000	0,042	-0,086
-413,642	800,000	-0,012	0,034
-412,628	-200,000	0,018	0,093
-411,613	-200,000	0,033	-0,143
-410,598	371,706	0,051	-0,076
-409,584	800,000	0,018	-0,037
-408,569	-32,422	0,041	-0,016
-407,555	227,011	0,050	0,059
-406,540	-99,699	-0,170	-0,031
-405,525	-200,000	-0,012	0,122
-404,511	-146,165	0,118	-0,007
-403,496	-32,637	-0,183	0,074
-402,482	164,931	0,056	-0,058
-401,467	703,609	-0,025	0,049
-400,452	219,450	0,012	-0,014
-399,438	-20,145	0,047	-0,021
-398,423	251,208	-0,053	-0,065
-397,409	36,937	0,075	0,048
-396,394	-3,139	-0,111	0,056
-395,379	302,337	-0,011	-0,015
-394,365	-108,120	0,132	-0,021
-393,350	-13,142	0,101	0,047
-392,336	484,323	-0,042	-0,070
-391,321	-75,939	0,102	-0,026
-390,306	-44,096	-0,076	0,028
-389,292	-56,103	-0,150	-0,048
-388,277	176,746	-0,058	0,062
-387,263	-200,000	-0,013	0,137
-386,248	101,507	-0,035	0,030
-385,233	-200,000	-0,039	0,151
-384,219	-200,000	-0,002	0,071
-383,204	-102,627	-0,154	-0,027
-382,190	800,000	-0,013	0,035
-381,175	796,511	-0,070	-0,141
-380,160	-85,486	0,095	-0,021
-379,146	305,083	0,041	-0,056
-378,131	800,000	-0,069	-0,160
-377,117	-200,000	-0,000	-0,012
-376,102	-32,377	0,050	0,020
-375,088	800,000	-0,015	-0,032
-374,073	-118,037	0,057	0,007
-373,058	-112,815	0,214	-0,031
-372,044	408,234	0,093	0,143
-371,029	45,120	0,052	0,035
-370,015	83,355	0,047	0,037
-369,000	-200,000	-0,019	-0,065
-367,985	131,022	0,051	-0,047
-366,971	56,281	-0,059	-0,042
-365,956	239,438	-0,025	0,031
-364,942	-200,000	-0,009	-0,066
-363,927	-28,786	-0,200	0,083
-362,912	800,000	0,029	-0,065
-361,898	87,354	0,023	-0,018
-360,883	-100,923	-0,052	-0,009
-359,869	43,266	-0,009	0,006
-358,854	-41,948	0,066	0,025
-357,839	7,828	-0,051	-0,027
-356,825	-200,000	0,013	0,066
-355,810	63,629	0,117	0,085
-354,796	-200,000	-0,008	0,031
-353,781	-200,000	0,007	0,021
-352,766	166,311	-0,062	-0,064
-351,752	-30,344	-0,065	-0,027
-350,737	-56,199	-0,105	0,034
-349,723	-200,000	-0,004	0,120
-348,708	-200,000	-0,022	-0,136
-347,693	564,721	0,014	0,024
-346,679	145,539	-0,104	-0,101
-345,664	-46,918	0,069	0,024
-344,650	-200,000	0,038	0,130
-343,635	-200,000	-0,032	0,102
-342,620	800,000	0,007	-0,015
-341,606	56,984	0,084	-0,060
-340,591	-200,000	-0,001	0,034
-339,577	-200,000	0,020	-0,101
-338,562	-31,171	0,146	0,059
-337,548	-162,179	-0,122	-0,004
-336,533	-2,656	0,157	0,079
-335,518	-3,483	0,140	0,071
-334,504	268,776	-0,034	-0,043
-333,489	62,693	-0,021	-0,015
-332,475	-200,000	0,036	-0,129
-331,460	-200,000	-0,003	0,012
-330,445	-139,084	-0,057	-0,004
-329,431	-200,000	-0,022	0,096
-328,416	-12,288	0,080	-0,038
-327,402	800,000	-0,012	0,026
-326,387	101,416	0,062	0,052
-325,372	232,045	-0,068	-0,081
-324,358	-127,023	-0,201	-0,021
-323,343	800,000	-0,084	-0,175
-322,329	-69,384	0,022	0,006
-321,314	-200,000	-0,001	0,006
-320,299	-3,221	0,050	0,025
-319,285	800,000	-0,015	-0,035
-318,270	-200,000	-0,010	-0,121
-317,256	285,999	0,048	-0,064
-316,241	800,000	0,054	0,125
-315,226	3,858	-0,030	0,016
-314,212	59,897	0,067	0,048
-313,197	-109,886	-0,125	-0,019
-312,183	-200,000	0,001	0,062
-311,168	4,803	-0,131	-0,070
-310,153	-200,000	0,016	0,120
-309,139	19,355	-0,036	0,021
-308,124	299,997	0,090	-0,120
-307,110	17,860	0,054	0,031
-306,095	-122,453	0,174	-0,020
-305,080	273,495	0,078	0,100
-304,066	-28,851	-0,102	0,042
-303,051	-101,026	-0,113	0,020
-302,037	302,737	0,023	-0,031
-301,022	-118,110	-0,107	0,014
-300,008	87,803	0,105	0,084
-298,993	667,968	0,072	0,135
-297,978	289,002	0,065	-0,086
-296,964	38,577	-0,093	0,060
-295,949	-200,000	0,024	0,080
-294,935	-200,000	-0,020	-0,081
-293,920	252,451	0,046	0,057
-292,905	-200,000	-0,007	-0,031
-291,891	-32,945	0,159	-0,063
-290,876	85,456	-0,098	0,078
-289,862	-200,000	-0,038	-0,121
-288,847	-125,114	0,015	0,002
-287,832	-14,118	-0,138	-0,064
-286,818	255,900	-0,032	-0,040
-285,803	-161,457	0,081	0,003
-284,789	-113,168	0,132	-0,019
-283,774	247,526	0,030	0,036
-282,759	379,366	-0,019	0,028
-281,745	151,402	0,103	0,101
-280,730	-50,631	0,087	0,029
-279,716	-5,330	-0,155	-0,077
-278,701	135,566	0,053	-0,050
-277,686	800,000	0,043	0,087
-276,672	343,889	-0,089	0,127
-275,657	800,000	0,041	-0,086
-274,643	-200,000	-0,034	-0,196
-273,628	434,158	0,104	-0,164
-272,613	143,003	0,060	0,058
-271,599	68,476	0,081	0,060
-270,584	-185,459	-0,039	0,000
-269,570	-200,000	0,010	-0,034
-268,555	-84,440	0,018	0,004
-267,540	-43,196	-0,026	-0,009
-266,526	446,052	-0,029	-0,047
-265,511	687,616	-0,034	0,064
-264,497	-122,341	0,096	-0,011
-263,482	104,004	0,044	-0,038
-262,467	-200,000	0,020	-0,113
-261,453	783,854	0,028	0,056
-260,438	-200,000	0,001	-0,042
-259,424	-200,000	-0,011	-0,153
-258,409	-200,000	-0,001	0,015
-257,395	198,952	0,015	-0,017
-256,380	800,000	0,037	0,075
-255,365	136,459	0,055	-0,052
-254,351	800,000	0,035	-0,108
-253,336	800,000	-0,041	-0,103
-252,322	-71,853	0,054	0,014
-251,307	704,288	0,055	-0,105
-250,292	-89,800	0,161	-0,034
-249,278	89,904	0,059	0,047
-248,263	376,630	0,082	0,121
-247,249	-57,768	0,039	0,012
-246,234	-200,000	-0,018	-0,075
-245,219	540,466	0,040	0,069
-244,205	771,151	0,085	0,167
-243,190	-17,207	0,008	0,003
-242,176	-114,178	0,146	-0,020
-241,161	6,985	0,112	0,060
-240,146	800,000	-0,046	0,101
-239,132	-32,466	-0,075	-0,030
-238,117	800,000	0,093	-0,189
-237,103	-200,000	0,037	-0,124
-236,088	43,469	-0,051	0,034
-235,073	359,355	-0,032	0,046
-234,059	393,851	-0,037	0,056
-233,044	-8,837	-0,073	-0,035
-232,030	401,411	-0,026	0,039
-231,015	-87,833	0,071	-0,015
-230,000	-200,000	0,007	-0,031
-228,986	-71,839	0,077	0,021
-227,971	-58,291	0,134	0,042
-226,957	254,006	0,062	0,077
-225,942	265,666	0,100	-0,127
-224,927	800,000	-0,047	-0,117
-223,913	-200,000	-0,032	0,110
-222,898	388,830	-0,040	0,060
-221,884	-62,513	-0,031	0,009
-220,869	131,949	0,060	-0,055
-219,855	363,980	0,079	0,115
-218,840	509,084	0,010	-0,017
-217,825	-139,215	-0,079	-0,006
-216,811	800,000	-0,059	-0,120
-215,796	-200,000	0,003	-0,052
-214,782	-49,862	0,056	0,019
-213,767	800,000	-0,033	0,070
-212,752	382,530	0,079	0,117
-211,738	124,738	0,054	0,049
-210,723	-200,000	-0,013	0,044
-209,709	346,884	-0,022	-0,032
-208,694	-41,735	-0,108	0,040
-207,679	-22,773	-0,078	0,034
-206,665	-42,635	0,086	0,031
-205,650	486,491	-0,020	0,034
-204,636	-58,065	-0,100	0,031
-203,621	800,000	-0,026	0,052
-202,606	-200,000	-0,016	0,068
-201,592	-77,408	-0,064	-0,016
-200,577	-200,000	-0,024	0,080
-199,563	-200,000	0,017	-0,074
-198,548	263,787	-0,030	0,038
-197,533	-95,434	0,109	0,021
-196,519	-200,000	-0,008	-0,105
-195,504	680,024	0,051	0,096
-194,490	800,000	0,022	0,067
-193,475	250,046	-0,052	-0,064
-192,460	-160,057	-0,103	-0,004
-191,446	-64,870	0,185	-0,054
-190,431	113,718	0,045	0,039
-189,417	368,961	0,080	-0,117
-188,402	-200,000	0,021	-0,149
-187,387	105,562	-0,112	0,095
-186,373	39,874	-0,031	-0,020
-185,358	800,000	-0,057	-0,176
-184,344	141,491	0,058	0,055
-183,329	184,112	0,059	-0,063
-182,315	800,000	-0,088	0,201
-181,300	166,076	-0,066	0,068
-180,285	-62,694	-0,076	-0,023
-179,271	321,599	-0,047	-0,064
-178,256	-142,930	0,038	0,003
-177,242	-24,855	-0,094	-0,040
-176,227	40,967	-0,037	-0,024
-175,212	-32,103	0,084	0,034
-174,198	-100,868	-0,029	-0,005
-173,183	-151,254	-0,149	-0,008
-172,169	-36,133	0,046	-0,018
-171,154	800,000	-0,030	-0,062
-170,139	250,057	-0,057	0,069
-169,125	-107,927	0,145	0,023
-168,110	675,224	0,069	0,131
-167,096	795,165	0,041	-0,082
-166,081	-13,899	0,112	0,052
-165,066	-53,480	-0,134	-0,044
-164,052	-200,000	-0,029	-0,097
-163,037	109,895	0,069	0,060
-162,023	156,743	-0,071	0,071
-161,008	29,286	0,130	0,080
-159,993	65,384	0,113	-0,082
-158,979	-200,000	-0,004	0,044
-157,964	-200,000	0,009	-0,085
-156,950	-42,826	0,069	-0,025
-155,935	69,471	-0,036	0,027
-154,920	-200,000	0,021	-0,083
-153,906	184,489	-0,047	0,050
-152,891	-52,621	0,041	0,013
-151,877	298,204	0,081	0,107
-150,862	-132,148	0,037	0,003
-149,847	-116,527	0,080	-0,010
-148,833	-88,877	-0,170	-0,036
-147,818	-55,914	0,021	0,007
-146,804	-23,990	-0,036	-0,015
-145,789	385,231	-0,046	0,068
-144,775	800,000	0,036	-0,096
-143,760	153,305	-0,095	-0,094
-142,745	129,614	-0,119	-0,109
-141,731	-156,275	-0,135	-0,006
-140,716	800,000	-0,006	0,013
-139,702	303,718	-0,037	0,049
-138,687	73,933	0,040	-0,030
-137,672	-200,000	-0,003	-0,058
-136,658	-200,000	0,013	0,061
-135,643	190,636	0,018	0,020
-134,629	-200,000	-0,053	-0,209
-133,614	448,811	-0,081	0,129
-132,599	727,087	0,016	0,031
-131,585	-200,000	-0,056	0,196
-130,570	-200,000	0,015	0,062
-129,556	464,670	-0,041	-0,066
-128,541	-88,221	0,145	-0,031
-127,526	800,000	-0,033	-0,102
-126,512	800,000	0,013	0,039
-125,497	522,043	0,024	-0,041
-124,483	-200,000	-0,016	0,115
-123,468	-28,476	-0,081	-0,033
-122,453	-200,000	0,003	0,039
-121,439	-54,850	-0,135	-0,044
-120,424	-200,000	0,018	-0,192
-119,410	638,351	-0,017	0,031
-118,395	-200,000	0,013	-0,125
-117,380	-200,000	-0,016	-0,055
-116,366	308,865	0,049	-0,066
-115,351	-200,000	0,017	-0,074
-114,337	223,048	-0,035	0,041
-113,322	82,642	0,034	0,026
-112,307	-109,300	-0,117	0,018
-111,293	763,679	-0,071	-0,139
-110,278	-3,580	0,013	-0,006
-109,264	165,723	-0,015	0,015
-108,249	800,000	-0,036	-0,086
-107,234	175,324	-0,072	-0,075
-106,220	16,165	-0,035	-0,020
-105,205	264,507	-0,005	-0,006
-104,191	-200,000	-0,029	-0,104
-103,176	-200,000	-0,027	0,101
-102,162	-200,000	0,024	0,124
-101,147	111,379	-0,073	-0,063
-100,132	800,000	-0,036	0,085
-99,118	394,382	0,035	-0,053
-98,103	-200,000	-0,019	-0,103
-97,089	178,896	0,111	-0,117
-96,074	-200,000	0,007	-0,056
-95,059	297,538	0,089	0,118
-94,045	274,016	-0,066	0,084
-93,030	-200,000	-0,031	0,167
-92,016	1,087	-0,083	0,042
-91,001	-44,398	-0,068	-0,024
-89,986	-22,339	-0,077	0,033
-88,972	-40,522	-0,072	0,027
-87,957	473,441	0,060	0,098
-86,943	40,420	-0,047	-0,031
-85,928	-200,000	-0,018	-0,073
-84,913	-200,000	-0,009	0,074
-83,899	-43,273	-0,118	-0,043
-82,884	29,625	0,154	0,094
-81,870	-71,671	0,081	-0,022
-80,855	63,490	-0,024	-0,017
-79,840	371,430	-0,040	-0,058
-78,826	-200,000	0,015	-0,062
-77,811	-118,491	-0,138	-0,017
-76,797	5,813	0,066	0,035
-75,782	800,000	0,030	0,071
-74,767	-200,000	-0,003	-0,036
-73,753	239,712	0,133	0,160
-72,738	9,161	-0,145	0,078
-71,724	-200,000	0,000	0,038
-70,709	524,978	-0,045	-0,077
-69,694	-64,009	0,073	0,021
-68,680	-104,836	-0,096	-0,016
-67,665	-79,476	-0,035	-0,008
-66,651	115,119	0,089	0,078
-65,636	-171,134	-0,077	0,002
-64,622	38,493	0,035	-0,023
-63,607	154,796	0,074	0,073
-62,592	109,059	-0,131	-0,112
-61,578	-16,612	0,060	-0,027
-60,563	149,692	0,113	0,110
-59,549	-85,299	-0,057	0,013
-58,534	-1,976	-1,992	-1,001
-57,519	800,000	-0,351	-0,903
-56,505	-200,000	-1,178	-4,959
-55,490	75,582	0,623	0,472
-54,476	800,000	5,319	12,142
-53,461	-200,000	17,300	283,102
-52,446	800,000	721,688	2226,104
-51,432	543,569	1637,778	2815,834
-50,417	112,377	1630,875	1415,359
-49,403	76,225	1286,928	976,772
-48,388	33,012	1029,150	638,437
-47,373	20,335	990,846	572,851
-46,359	18,833	979,074	561,091
-45,344	16,248	975,305	550,439
-44,330	16,501	973,650	550,309
-43,315	16,101	971,755	547,909
-42,300	16,016	970,777	547,060
-41,286	16,020	969,800	546,500
-40,271	16,005	968,658	545,786
-39,257	16,066	967,718	545,433
-38,242	16,023	967,079	544,914
-37,227	16,060	966,125	544,473
-36,213	16,027	965,334	543,897
-35,198	15,994	964,425	543,258
-34,184	16,042	963,835	543,059
-33,169	15,963	962,656	542,118
-32,154	16,051	961,771	541,881
-31,140	15,983	960,976	541,193
-30,125	16,074	960,038	540,939
-29,111	16,017	959,454	540,403
-28,096	15,996	958,930	540,018
-27,082	16,044	958,205	539,745
-26,067	15,997	957,255	539,035
-25,052	15,991	956,711	538,689
-24,038	15,982	955,918	538,191
-23,023	16,002	955,279	537,875
-22,009	16,049	954,524	537,579
-20,994	16,065	954,037	537,336
-19,979	16,054	953,362	536,899
-18,965	15,990	952,860	536,389
-17,950	16,020	952,128	536,052
-16,936	16,015	951,476	535,648
-15,921	15,950	950,817	535,048
-14,906	15,891	950,210	534,498
-13,892	15,866	949,520	534,007
-12,877	15,838	948,944	533,574
-11,863	15,840	948,241	533,161
-10,848	15,890	947,608	532,947
-9,833	16,009	947,127	533,031
-8,819	16,005	946,306	532,535
-7,804	15,891	945,966	531,962
-6,790	15,939	945,263	531,698
-5,775	15,895	944,760	531,254
-4,760	15,941	944,073	530,992
-3,746	15,912	943,514	530,566
-2,731	15,768	942,788	529,681
-1,717	15,733	942,133	529,179
-0,702	15,721	941,601	528,822
0,313	15,592	940,785	528,753
1,327	18,631	938,682	537,110
2,342	27,223	796,350	478,480
3,356	23,979	460,404	271,631
4,371	-2,658	314,832	157,409
5,386	-6,500	296,474	144,328
6,400	-8,170	290,411	139,705
7,415	-8,961	287,993	137,751
8,429	-9,104	286,487	136,878
9,444	-9,269	285,606	136,283
10,459	-9,246	284,942	135,977
11,473	-9,194	284,385	135,750
12,488	-9,031	283,779	135,606
13,502	-9,149	283,415	135,307
14,517	-9,245	282,961	134,984
15,531	-9,258	282,564	134,770
16,546	-9,294	282,015	134,462
17,561	-9,224	281,571	134,306
18,575	-9,173	281,217	134,174
19,590	-9,435	280,923	133,771
20,604	-9,234	280,495	133,747
21,619	-9,470	280,279	133,406
22,634	-9,151	279,882	133,510
23,648	-9,206	279,641	133,331
24,663	-9,281	279,276	133,074
25,677	-9,512	279,039	132,728
26,692	-9,360	278,682	132,692
27,707	-9,370	278,527	132,597
28,721	-9,280	278,128	132,481
29,736	-9,615	278,072	132,124
30,750	-9,369	277,631	132,136
31,765	-9,368	277,400	132,015
32,780	-9,387	277,137	131,860
33,794	-9,528	277,027	131,663
34,809	-9,383	276,623	131,595
35,823	-9,324	276,492	131,577
36,838	-9,326	276,155	131,404
37,853	-9,343	276,000	131,302
38,867	-9,371	275,802	131,169
39,882	-9,368	275,477	131,006
40,896	-9,425	275,276	130,845
41,911	-9,363	274,962	130,742
42,926	-9,561	274,731	130,436
43,940	-9,524	274,524	130,360
44,955	-9,372	274,220	130,346
45,969	-9,498	273,979	130,102
46,984	-9,604	273,821	129,917
47,999	-9,973	273,534	129,425
49,013	-9,865	273,286	129,397
50,028	-10,116	273,052	129,041
51,042	-10,116	272,686	128,856
52,057	-10,156	272,482	128,712
53,071	-9,989	272,244	128,742
54,086	-9,900	272,122	128,755
55,101	-9,901	271,971	128,672
56,115	-9,565	271,871	128,924
57,130	-9,406	271,655	128,957
58,144	-9,198	271,453	129,043
59,159	-9,238	271,196	128,872
60,174	-9,140	271,065	128,888
61,188	-9,242	270,751	128,634
62,203	-9,263	270,713	128,584
63,217	-9,204	270,319	128,441
64,232	-9,354	270,073	128,175
65,247	-9,009	269,831	128,364
66,261	-9,095	269,711	128,217
67,276	-9,469	269,356	127,694
68,290	-9,565	269,091	127,469
69,305	-9,440	268,894	127,479
70,320	-9,453	268,740	127,383
71,334	-9,399	268,535	127,323
72,349	-9,264	268,315	127,331
73,363	-9,167	268,186	127,346
74,378	-9,075	267,985	127,324
75,393	-9,316	267,706	126,961
76,407	-9,242	267,486	126,912
77,422	-9,140	267,281	126,897
78,436	-9,238	267,095	126,708
79,451	-9,192	266,780	126,589
80,466	-9,455	266,646	126,276
81,480	-9,470	266,250	126,063
82,495	-9,367	266,201	126,122
83,509	-9,463	265,993	125,926
84,524	-9,514	265,853	125,801
85,539	-9,458	265,482	125,666
86,553	-9,672	265,408	125,427
87,568	-9,431	265,134	125,503
88,582	-9,530	264,956	125,318
89,597	-9,460	264,735	125,266
90,611	-9,464	264,631	125,201
91,626	-9,230	264,473	125,326
92,641	-9,176	264,159	125,214
93,655	-9,306	263,957	124,991
94,670	-9,471	263,816	124,765
95,684	-9,530	263,638	124,616
96,699	-9,561	263,430	124,480
97,714	-9,311	263,060	124,517
98,728	-9,527	262,924	124,249
99,743	-9,638	262,726	124,045
100,757	-9,702	262,486	123,863
101,772	-9,747	262,384	123,764
102,787	-9,590	262,291	123,850
103,801	-9,308	262,033	123,967
104,816	-9,201	261,733	123,909
105,830	-9,258	261,545	123,759
106,845	-9,203	261,438	123,745
107,860	-9,226	261,231	123,616
108,874	-9,353	261,033	123,399
109,889	-9,271	260,890	123,394
110,903	-9,133	260,483	123,312
111,918	-9,409	260,528	123,078
112,933	-9,258	260,195	123,043
113,947	-9,223	260,131	123,033
114,962	-9,132	259,839	122,964
115,976	-9,191	259,612	122,793
116,991	-9,306	259,501	122,629
118,006	-9,140	259,416	122,724
119,020	-9,214	259,187	122,540
120,035	-9,155	259,018	122,500
121,049	-9,407	258,897	122,211
122,064	-9,187	258,536	122,222
123,079	-9,142	258,474	122,221
124,093	-9,265	258,199	121,973
125,108	-9,482	257,993	121,675
126,122	-9,766	257,646	121,253
127,137	-9,720	257,493	121,211
128,151	-9,780	257,388	121,098
129,166	-9,475	257,250	121,287
130,181	-9,629	256,923	120,989
131,195	-9,821	256,725	120,718
132,210	-9,462	256,662	120,990
133,224	-9,192	256,434	121,106
134,239	-9,303	256,396	120,980
135,254	-9,237	256,193	120,931
136,268	-9,265	255,887	120,751
137,283	-9,379	255,571	120,493
138,297	-9,669	255,401	120,152
139,312	-9,652	255,154	120,040
140,327	-9,298	255,162	120,338
141,341	-9,163	255,115	120,422
142,356	-9,055	254,820	120,365
143,370	-9,174	254,678	120,185
144,385	-9,113	254,446	120,117
145,400	-8,913	254,249	120,185
146,414	-9,140	254,128	119,922
147,429	-9,002	253,864	119,905
148,443	-9,174	253,766	119,700
149,458	-9,202	253,601	119,588
150,473	-9,101	253,462	119,598
151,487	-8,856	253,073	119,613
152,502	-8,962	252,858	119,411
153,516	-9,145	253,004	119,313
154,531	-9,093	252,811	119,255
155,546	-8,886	252,417	119,236
156,560	-9,204	252,403	118,947
157,575	-9,149	252,043	118,814
158,589	-9,195	251,839	118,668
159,604	-9,009	251,574	118,690
160,619	-9,154	251,331	118,442
161,633	-9,173	251,318	118,409
162,648	-8,977	251,229	118,523
163,662	-8,859	251,132	118,566
164,677	-8,809	250,933	118,504
165,692	-9,024	250,824	118,261
166,706	-8,908	250,625	118,254
167,721	-8,925	250,358	118,103
168,735	-8,877	250,220	118,068
169,750	-8,963	250,238	117,993
170,764	-9,056	249,998	117,792
171,779	-8,900	249,925	117,878
172,794	-9,110	249,690	117,580
173,808	-9,014	249,484	117,553
174,823	-9,257	249,103	117,159
175,837	-9,727	248,986	116,699
176,852	-9,189	248,842	117,072
177,867	-8,980	248,810	117,222
178,881	-9,040	248,654	117,088
179,896	-9,057	248,462	116,973
180,910	-8,872	248,097	116,945
181,925	-8,911	248,033	116,872
182,940	-8,987	247,884	116,728
183,954	-8,872	247,668	116,712
184,969	-9,086	247,683	116,530
185,983	-9,017	247,390	116,439
186,998	-8,958	247,377	116,472
188,013	-8,868	247,084	116,398
189,027	-8,870	246,835	116,269
190,042	-8,903	246,721	116,177
191,056	-8,898	246,480	116,057
192,071	-9,052	246,346	115,857
193,086	-8,712	246,110	116,017
194,100	-8,945	246,028	115,775
195,115	-8,684	245,711	115,831
196,129	-8,935	245,661	115,590
197,144	-8,906	245,538	115,546
198,159	-8,918	245,137	115,337
199,173	-8,761	245,148	115,461
200,188	-8,909	244,949	115,235
201,202	-9,153	244,525	114,825
202,217	-9,605	244,443	114,404
203,232	-9,700	244,193	114,200
204,246	-9,075	244,115	114,665
205,261	-8,409	244,130	115,209
206,275	-8,944	243,937	114,669
207,290	-6,400	244,873	117,192
208,304	-1,365	246,544	122,142
209,319	1,084	247,053	124,408
210,334	1,655	247,111	124,898
211,348	1,997	247,123	125,174
212,363	2,629	247,009	125,627
213,377	2,599	246,955	125,564
214,392	2,621	246,821	125,503
215,407	2,461	246,552	125,223
216,421	2,625	246,452	125,295
217,436	2,770	246,390	125,373
218,450	2,635	246,218	125,163
219,465	2,525	245,949	124,925
220,480	2,505	245,637	124,739
221,494	2,483	245,623	124,702
222,509	2,717	245,488	124,814
223,523	2,631	245,273	124,624
224,538	1,968	244,915	123,889
225,553	2,213	244,752	123,995
226,567	2,413	244,678	124,110
227,582	2,589	244,542	124,173
228,596	2,474	244,452	124,023
229,611	2,232	244,108	123,641
230,626	2,070	244,004	123,445
231,640	2,232	243,979	123,553
232,655	2,303	243,895	123,557
233,669	2,229	243,614	123,344
234,684	2,080	243,356	123,081
235,699	2,525	243,469	123,489
236,713	2,814	243,142	123,545
237,728	2,495	243,092	123,251
238,742	2,489	242,741	123,057
239,757	2,362	242,593	122,869
240,772	2,228	242,409	122,656
241,786	2,335	242,220	122,636
242,801	2,130	242,067	122,382
243,815	1,971	241,979	122,199
244,830	2,030	242,044	122,268
245,844	2,665	241,759	122,624
246,859	2,161	241,550	122,102
247,874	2,142	241,470	122,035
248,888	2,213	241,236	121,964
249,903	2,261	241,260	122,003
250,917	2,592	241,073	122,163
251,932	2,730	240,885	122,167
252,947	2,783	240,551	122,030
253,961	2,131	240,310	121,375
254,976	2,457	240,328	121,635
255,990	2,328	240,219	121,466
257,005	2,202	239,898	121,192
258,020	1,961	239,871	120,974
259,034	2,200	239,682	121,059
260,049	2,350	239,527	121,090
261,063	2,056	239,345	120,753
262,078	2,275	239,053	120,769
263,093	2,421	239,044	120,869
264,107	2,557	238,937	120,913
265,122	2,194	238,846	120,567
266,136	2,326	238,701	120,589
267,151	2,738	238,607	120,857
268,166	2,247	238,298	120,301
269,180	2,097	238,124	120,084
270,195	2,674	238,179	120,557
271,209	2,798	238,024	120,565
272,224	2,300	237,903	120,100
273,239	2,176	237,520	119,798
274,253	2,156	237,289	119,656
275,268	2,079	237,292	119,585
276,282	2,366	237,107	119,708
277,297	2,202	236,791	119,408
278,312	2,289	236,682	119,411
279,326	2,330	236,726	119,455
280,341	2,298	236,584	119,348
281,355	2,376	236,340	119,275
282,370	2,528	236,295	119,361
283,384	2,463	236,088	119,194
284,399	2,148	235,839	118,812
285,414	2,037	235,687	118,639
286,428	2,282	235,471	118,710
287,443	2,307	235,461	118,714
288,457	2,346	235,431	118,719
289,472	2,480	235,189	118,691
290,487	2,361	234,907	118,445
291,501	2,194	234,839	118,270
292,516	2,108	234,639	118,092
293,530	1,798	234,438	117,739
294,545	2,382	234,409	118,168
295,560	2,321	234,134	117,972
296,574	2,095	233,980	117,709
297,589	2,074	233,996	117,690
298,603	2,447	233,933	117,937
299,618	2,580	233,635	117,879
300,633	2,446	233,571	117,732
301,647	2,533	233,517	117,762
302,662	2,995	233,295	117,997
303,676	3,064	233,267	118,025
304,691	2,796	233,090	117,718
305,706	2,783	232,848	117,575
306,720	2,786	232,736	117,511
307,735	2,575	232,556	117,247
308,749	2,588	232,406	117,170
309,764	2,136	232,149	116,683
310,779	2,155	231,869	116,547
311,793	2,221	231,784	116,544
312,808	2,334	231,592	116,524
313,822	2,118	231,506	116,305
314,837	2,041	231,335	116,150
315,852	2,015	231,153	116,028
316,866	2,455	231,170	116,363
317,881	2,562	231,020	116,359
318,895	2,777	230,962	116,483
319,910	2,871	230,798	116,461
320,925	2,480	230,633	116,070
321,939	2,243	230,454	115,789
322,954	2,516	230,298	115,908
323,968	2,598	230,087	115,854
324,983	2,432	230,099	115,723
325,997	2,567	229,853	115,692
327,012	2,488	229,567	115,477
328,027	2,013	229,428	115,037
329,041	2,304	229,278	115,173
330,056	3,038	229,377	115,768
331,070	3,365	229,279	115,956
332,085	2,840	229,037	115,426
333,100	2,661	228,784	115,153
334,114	2,614	228,620	115,025
335,129	2,496	228,602	114,916
336,143	2,929	228,481	115,172
337,158	2,933	228,357	115,102
338,173	2,825	228,152	114,907
339,187	2,676	228,018	114,717
340,202	2,796	227,897	114,736
341,216	2,883	227,638	114,661
342,231	2,627	227,494	114,386
343,246	2,624	227,472	114,363
344,260	2,422	227,416	114,173
345,275	3,023	227,257	114,534
346,289	2,846	227,083	114,303
347,304	2,811	226,983	114,216
348,319	3,051	226,840	114,314
349,333	2,766	226,502	113,920
350,348	2,515	226,307	113,624
351,362	2,482	226,278	113,575
352,377	2,493	226,162	113,515
353,392	2,512	226,059	113,468
354,406	2,498	225,993	113,414
355,421	194,446	1322,887	1396,083
356,435	155,811	1456,546	1396,095
