DTS Sentinel unit serial number:	SN410029Multiplexer serial number:	ORYXHardware model number:	OX2-SRSoftware version number:	ORYX F/W v4,00 Oryx Data Collector v3.7.2.0data status	okinstallation	B5 Nyhavnadifferential loss correction	single-endedforward channel	channel 2reverse channel	N/Adate	2023/12/14time	16:17:13forward acquisition time	300,00reverse acquisition time	0,00gamma	499,1914k internal	0,3157k external	0,3157temperature offset calibration	1,0000default loss term (dB/km)	0,3820temperature slope calibration	1,0000multiplexer offset coefficient	1,0000multiplexer slope coefficient	1,0000fibre end	0,00T internal ref (°C)	7,95T ext. ref 1 (°C)	-7,64T ext. ref 2 (°C)	-7,67length (m)	temperature (°C)	Stokes	anti-Stokes-744,400	25,432	0,085	-0,052
-743,385	-93,328	-0,395	-0,080
-742,371	-44,339	0,224	0,082
-741,356	-101,045	-0,417	-0,075
-740,342	722,606	0,115	0,227
-739,327	-56,994	-0,414	-0,134
-738,312	-200,000	0,012	-0,062
-737,298	-97,885	-0,317	-0,060
-736,283	47,098	0,131	0,090
-735,269	-61,534	-0,276	-0,085
-734,254	-27,084	0,163	0,070
-733,239	39,881	-0,439	-0,290
-732,225	193,482	0,206	0,230
-731,210	746,944	-0,063	0,125
-730,196	-53,518	-0,148	0,050
-729,181	187,515	0,020	-0,022
-728,167	-44,554	-0,061	-0,022
-727,152	636,785	0,005	0,010
-726,137	-176,810	-0,101	0,002
-725,123	109,155	-0,048	0,042
-724,108	-200,000	-0,042	-0,162
-723,094	322,478	-0,082	-0,116
-722,079	800,000	-0,084	-0,204
-721,064	-200,000	-0,000	-0,015
-720,050	-200,000	0,017	0,091
-719,035	-52,466	0,089	0,030
-718,021	49,693	-0,010	0,007
-717,006	-66,635	-0,098	-0,029
-715,991	-94,955	-0,119	-0,023
-714,977	-106,434	-0,088	0,014
-713,962	-200,000	-0,014	-0,120
-712,948	39,722	0,039	-0,026
-711,933	800,000	-0,037	0,095
-710,918	-200,000	0,019	-0,104
-709,904	5,349	-0,114	-0,062
-708,889	-200,000	-0,017	-0,058
-707,875	-153,738	-0,072	-0,004
-706,860	499,217	0,050	-0,084
-705,845	-34,037	0,123	0,050
-704,831	295,392	-0,057	-0,078
-703,816	-200,000	0,012	-0,065
-702,802	91,843	-0,070	-0,058
-701,787	5,005	0,139	-0,075
-700,772	-69,658	0,080	-0,022
-699,758	800,000	-0,042	-0,102
-698,743	8,018	0,049	-0,027
-697,729	12,127	-0,017	-0,010
-696,714	141,959	0,048	-0,047
-695,699	800,000	0,032	-0,079
-694,685	-122,826	0,092	0,011
-693,670	312,557	-0,032	-0,045
-692,656	479,559	0,011	0,019
-691,641	-200,000	-0,018	-0,177
-690,627	-53,413	0,132	0,044
-689,612	-200,000	-0,003	-0,096
-688,597	-200,000	-0,026	0,104
-687,583	-72,464	-0,120	-0,032
-686,568	-79,991	-0,201	0,049
-685,554	195,636	0,033	0,037
-684,539	392,088	0,075	-0,114
-683,524	103,501	0,040	0,034
-682,510	800,000	-0,016	-0,036
-681,495	-71,409	-0,050	-0,014
-680,481	-200,000	0,018	0,062
-679,466	800,000	-0,105	-0,249
-678,451	-138,891	-0,130	-0,010
-677,437	800,000	0,016	-0,041
-676,422	-200,000	-0,001	0,013
-675,408	267,170	0,017	-0,022
-674,393	-181,003	-0,090	0,001
-673,378	38,219	-0,106	-0,069
-672,364	544,542	0,040	-0,071
-671,349	200,625	-0,040	0,045
-670,335	-33,116	0,166	0,067
-669,320	36,664	-0,077	0,050
-668,305	-176,637	0,094	-0,002
-667,291	71,706	0,041	-0,031
-666,276	-60,341	-0,111	-0,035
-665,262	-97,818	0,072	0,014
-664,247	-125,228	0,069	-0,008
-663,232	800,000	-0,022	0,059
-662,218	76,964	-0,079	-0,062
-661,203	210,121	-0,027	-0,032
-660,189	800,000	0,049	0,112
-659,174	73,777	-0,108	-0,083
-658,159	800,000	-0,022	-0,061
-657,145	-164,579	-0,192	0,006
-656,130	800,000	-0,045	0,124
-655,116	-177,625	0,117	-0,002
-654,101	26,887	0,054	-0,033
-653,086	101,650	0,057	0,049
-652,072	11,118	-0,028	0,016
-651,057	53,308	0,091	-0,064
-650,043	183,075	-0,126	0,137
-649,028	-200,000	0,000	-0,048
-648,014	-55,267	0,039	0,013
-646,999	-200,000	0,011	-0,053
-645,984	800,000	-0,053	0,111
-644,970	-81,272	-0,076	-0,018
-643,955	-18,280	0,108	-0,050
-642,941	-200,000	-0,039	-0,157
-641,926	-67,300	-0,074	0,021
-640,911	-116,152	-0,060	0,008
-639,897	-200,000	-0,005	-0,081
-638,882	93,764	0,058	-0,048
-637,868	-129,386	-0,050	0,005
-636,853	442,185	0,044	-0,071
-635,838	7,696	-0,124	-0,068
-634,824	800,000	0,056	-0,137
-633,809	128,329	0,046	0,043
-632,795	-200,000	-0,012	0,101
-631,780	800,000	-0,068	0,165
-630,765	-40,028	0,048	0,018
-629,751	-73,143	-0,158	-0,042
-628,736	220,314	-0,070	0,082
-627,722	761,022	0,065	-0,131
-626,707	480,077	0,052	0,088
-625,692	267,689	-0,043	0,056
-624,678	-72,132	0,143	0,039
-623,663	-200,000	0,013	-0,102
-622,649	-32,083	-0,015	-0,006
-621,634	602,473	0,054	-0,099
-620,619	-48,637	0,051	0,018
-619,605	-200,000	0,029	-0,120
-618,590	101,753	0,055	-0,047
-617,576	10,732	0,135	0,075
-616,561	1,193	-0,109	0,057
-615,546	660,441	-0,023	-0,044
-614,532	28,749	-0,092	-0,057
-613,517	12,900	-0,031	-0,017
-612,503	87,165	0,102	-0,083
-611,488	676,721	-0,009	0,017
-610,474	59,654	0,104	0,075
-609,459	-85,808	-0,054	0,012
-608,444	-132,002	0,098	-0,009
-607,430	-93,698	-0,108	-0,022
-606,415	-200,000	-0,031	-0,125
-605,401	800,000	-0,041	0,098
-604,386	-134,290	0,061	-0,005
-603,371	-97,647	0,053	0,010
-602,357	146,936	0,005	-0,005
-601,342	410,694	0,018	-0,029
-600,328	-200,000	0,007	0,090
-599,313	-165,172	0,037	0,001
-598,298	23,709	-0,094	-0,056
-597,284	-134,032	0,111	0,010
-596,269	707,969	-0,066	0,128
-595,255	-87,808	-0,117	-0,026
-594,240	499,376	-0,043	-0,074
-593,225	-200,000	0,045	-0,161
-592,211	-176,471	-0,035	-0,001
-591,196	-200,000	0,016	0,076
-590,182	625,208	-0,038	0,071
-589,167	186,428	0,050	-0,054
-588,152	151,072	-0,107	0,107
-587,138	-37,639	-0,021	0,008
-586,123	-128,907	0,146	-0,015
-585,109	-200,000	0,000	0,036
-584,094	119,256	-0,062	-0,056
-583,079	800,000	0,029	-0,075
-582,065	-86,846	0,188	0,042
-581,050	-110,488	-0,039	-0,006
-580,036	-48,818	-0,103	-0,036
-579,021	652,246	0,035	0,066
-578,006	-200,000	-0,051	-0,176
-576,992	363,983	0,062	0,091
-575,977	-111,550	-0,139	0,020
-574,963	226,143	-0,037	0,044
-573,948	104,612	-0,063	-0,055
-572,934	-200,000	-0,002	-0,097
-571,919	188,750	-0,115	-0,126
-570,904	22,232	0,048	-0,029
-569,890	-200,000	-0,014	-0,223
-568,875	-87,347	0,147	0,032
-567,861	-48,008	-0,094	-0,033
-566,846	279,389	-0,055	-0,072
-565,831	-200,000	0,003	0,076
-564,817	-9,040	-0,049	0,024
-563,802	94,271	-0,115	-0,095
-562,788	-0,048	0,133	0,069
-561,773	100,863	-0,078	0,066
-560,758	374,636	0,084	0,126
-559,744	105,976	-0,042	0,036
-558,729	62,995	-0,057	0,041
-557,715	-68,060	-0,110	0,031
-556,700	-36,341	0,023	-0,009
-555,685	800,000	-0,004	-0,011
-554,671	-136,376	0,118	0,010
-553,656	494,558	0,073	0,123
-552,642	-75,704	-0,095	-0,025
-551,627	-135,452	-0,110	-0,009
-550,612	-200,000	-0,022	0,149
-549,598	122,852	-0,125	-0,115
-548,583	800,000	0,017	-0,039
-547,569	-104,825	-0,079	-0,013
-546,554	-200,000	0,018	0,068
-545,539	-200,000	0,008	0,070
-544,525	-159,364	0,107	0,004
-543,510	55,624	-0,151	-0,107
-542,496	800,000	0,086	-0,184
-541,481	-200,000	-0,011	-0,080
-540,466	-200,000	0,020	-0,078
-539,452	12,115	0,027	0,015
-538,437	271,849	-0,057	0,074
-537,423	340,657	-0,081	0,116
-536,408	-109,639	-0,101	0,015
-535,393	382,500	0,114	-0,173
-534,379	800,000	0,065	-0,180
-533,364	800,000	0,032	-0,103
-532,350	800,000	-0,060	-0,146
-531,335	-129,555	0,119	0,012
-530,321	331,358	-0,043	0,061
-529,306	-158,296	-0,057	-0,002
-528,291	-99,939	-0,107	-0,019
-527,277	-67,197	-0,101	-0,029
-526,262	-70,082	0,113	0,031
-525,248	174,883	0,076	0,080
-524,233	80,186	-0,073	-0,057
-523,218	32,971	0,064	-0,040
-522,204	800,000	0,042	0,131
-521,189	-200,000	-0,026	0,110
-520,175	-134,912	0,056	-0,005
-519,160	-200,000	-0,004	-0,071
-518,145	-79,218	0,099	0,024
-517,131	303,932	-0,043	-0,058
-516,116	-200,000	0,027	0,092
-515,102	800,000	-0,030	-0,068
-514,087	6,251	0,100	0,054
-513,072	800,000	0,054	-0,117
-512,058	-200,000	0,002	0,067
-511,043	800,000	-0,016	-0,048
-510,029	-200,000	0,003	0,110
-509,014	800,000	0,040	-0,087
-507,999	-200,000	-0,003	0,097
-506,985	406,252	-0,083	0,129
-505,970	-200,000	0,030	-0,117
-504,956	-85,521	-0,080	0,018
-503,941	-90,134	-0,171	-0,036
-502,926	131,101	0,064	-0,060
-501,912	-188,351	-0,060	0,001
-500,897	-41,718	-0,047	-0,018
-499,883	38,688	-0,116	-0,075
-498,868	-66,664	-0,086	-0,025
-497,853	-200,000	-0,009	-0,103
-496,839	165,863	-0,068	-0,070
-495,824	-105,025	-0,084	-0,014
-494,810	-140,363	0,108	-0,008
-493,795	-200,000	0,001	-0,006
-492,781	-200,000	0,000	-0,029
-491,766	-102,140	-0,042	0,007
-490,751	-200,000	-0,026	-0,101
-489,737	-44,553	-0,072	-0,026
-488,722	-200,000	0,000	0,146
-487,708	800,000	0,013	0,041
-486,693	-200,000	-0,008	0,091
-485,678	-200,000	0,005	-0,065
-484,664	-98,279	0,027	-0,005
-483,649	-200,000	0,016	0,089
-482,635	-92,301	-0,073	-0,015
-481,620	-20,553	0,008	-0,003
-480,605	-200,000	0,002	0,010
-479,591	69,372	0,029	0,022
-478,576	17,633	-0,051	0,030
-477,562	-129,860	-0,183	0,018
-476,547	-21,648	0,038	0,017
-475,532	-138,475	-0,094	0,007
-474,518	-200,000	-0,033	-0,122
-473,503	267,726	0,049	0,062
-472,489	122,942	-0,144	0,132
-471,474	163,138	-0,031	0,032
-470,459	-78,681	0,112	0,028
-469,445	-65,198	0,099	0,029
-468,430	-200,000	-0,006	-0,031
-467,416	41,770	0,103	0,068
-466,401	-22,231	0,135	0,059
-465,386	425,055	0,045	-0,071
-464,372	-5,547	0,065	-0,032
-463,357	-66,221	0,058	0,017
-462,343	-90,427	-0,126	0,026
-461,328	142,923	0,020	0,019
-460,313	309,497	-0,099	0,135
-459,299	322,996	0,052	-0,072
-458,284	-34,547	0,153	0,061
-457,270	11,009	0,076	-0,042
-456,255	-200,000	0,015	-0,122
-455,241	-128,373	0,063	0,006
-454,226	290,053	-0,044	-0,058
-453,211	-0,517	-0,169	-0,087
-452,197	800,000	0,055	0,166
-451,182	-34,572	0,143	-0,057
-450,168	-159,513	0,068	-0,003
-449,153	-200,000	-0,017	-0,137
-448,138	115,070	0,040	0,035
-447,124	-109,731	0,145	-0,022
-446,109	3,044	0,040	0,021
-445,095	-200,000	0,037	0,131
-444,080	800,000	-0,043	0,094
-443,065	29,434	-0,060	0,037
-442,051	112,949	0,066	-0,058
-441,036	-129,319	0,009	0,001
-440,022	-78,961	0,009	0,002
-439,007	-200,000	0,002	-0,009
-437,992	43,495	-0,077	0,051
-436,978	-200,000	-0,016	0,092
-435,963	531,884	0,073	-0,125
-434,949	-44,805	-0,089	0,032
-433,934	-200,000	0,006	0,037
-432,919	800,000	0,035	0,111
-431,905	-200,000	-0,007	-0,051
-430,890	72,058	0,164	-0,124
-429,876	99,065	-0,026	-0,022
-428,861	-93,539	0,165	0,033
-427,846	16,304	-0,068	-0,039
-426,832	800,000	0,011	0,028
-425,817	108,555	-0,115	-0,100
-424,803	800,000	-0,013	-0,030
-423,788	155,544	0,048	0,048
-422,773	571,111	-0,033	0,059
-421,759	-200,000	-0,008	0,113
-420,744	-200,000	-0,004	0,119
-419,730	-200,000	0,007	-0,091
-418,715	-64,857	-0,098	0,029
-417,701	-83,744	0,040	0,009
-416,686	800,000	-0,067	-0,141
-415,671	-33,137	0,062	-0,025
-414,657	-19,803	-0,106	0,047
-413,642	548,736	0,093	-0,163
-412,628	-20,573	-0,143	-0,064
-411,613	-200,000	-0,006	-0,041
-410,598	-39,154	0,046	0,017
-409,584	-200,000	0,003	0,134
-408,569	397,213	0,028	0,042
-407,555	-58,323	0,101	0,032
-406,540	-200,000	-0,019	-0,169
-405,525	-98,609	-0,126	0,023
-404,511	41,112	-0,116	-0,076
-403,496	-35,977	0,033	0,013
-402,482	800,000	0,043	0,103
-401,467	-200,000	-0,017	-0,067
-400,452	800,000	0,037	0,090
-399,438	-200,000	-0,000	0,109
-398,423	-78,589	-0,014	0,004
-397,409	-91,220	0,065	0,013
-396,394	-100,883	-0,097	0,017
-395,379	-200,000	0,008	0,061
-394,365	117,819	0,069	0,062
-393,350	725,605	-0,100	0,194
-392,336	-69,329	0,100	0,028
-391,321	62,081	0,046	0,033
-390,306	-8,694	-0,049	-0,024
-389,292	-200,000	-0,028	-0,173
-388,277	-27,103	0,111	-0,047
-387,263	114,416	-0,015	0,013
-386,248	163,824	0,060	-0,062
-385,233	-200,000	0,020	0,106
-384,219	800,000	0,012	0,025
-383,204	175,303	-0,059	0,062
-382,190	-73,363	0,101	-0,027
-381,175	800,000	0,024	0,058
-380,160	-162,625	0,065	0,002
-379,146	800,000	0,029	-0,062
-378,131	-108,194	0,108	-0,017
-377,117	-200,000	0,022	0,106
-376,102	-4,796	0,044	-0,022
-375,088	3,125	0,066	0,035
-374,073	-129,452	-0,119	0,012
-373,058	653,626	0,115	0,216
-372,044	246,676	0,022	0,027
-371,029	-90,794	0,073	-0,015
-370,015	800,000	0,045	-0,124
-369,000	68,308	-0,089	0,067
-367,985	-22,122	-0,028	0,012
-366,971	-19,745	-0,124	-0,055
-365,956	-200,000	0,013	-0,073
-364,942	-157,276	0,140	-0,006
-363,927	800,000	-0,044	0,089
-362,912	149,728	-0,011	-0,011
-361,898	79,567	0,041	0,032
-360,883	-200,000	-0,026	0,101
-359,869	-50,915	-0,028	-0,010
-358,854	179,959	0,095	0,101
-357,839	-200,000	-0,019	0,149
-356,825	800,000	-0,017	-0,036
-355,810	109,595	-0,017	-0,015
-354,796	-200,000	-0,017	-0,106
-353,781	180,644	0,038	0,040
-352,766	99,460	0,039	-0,033
-351,752	126,304	-0,038	-0,035
-350,737	-93,267	-0,133	-0,027
-349,723	-146,365	0,088	-0,006
-348,708	-67,805	-0,088	0,025
-347,693	-25,691	0,070	0,030
-346,679	-200,000	0,025	-0,104
-345,664	328,458	-0,111	-0,155
-344,650	114,772	0,123	0,109
-343,635	496,286	0,052	0,086
-342,620	-12,402	0,083	0,039
-341,606	-200,000	0,023	0,143
-340,591	23,686	-0,177	-0,105
-339,577	98,370	-0,218	-0,182
-338,562	26,768	-0,004	-0,003
-337,548	6,228	0,039	0,021
-336,533	297,322	-0,046	-0,062
-335,518	-41,647	0,068	0,025
-334,504	-200,000	-0,028	-0,108
-333,489	294,440	-0,020	0,026
-332,475	-78,683	-0,154	0,038
-331,460	-200,000	-0,037	-0,159
-330,445	81,235	0,064	-0,050
-329,431	-59,262	0,169	0,053
-328,416	-0,528	0,034	-0,017
-327,402	184,464	0,114	0,123
-326,387	206,089	-0,081	-0,091
-325,372	-91,285	0,044	-0,009
-324,358	-43,976	0,060	-0,022
-323,343	17,125	0,046	0,027
-322,329	207,499	0,107	0,121
-321,314	-178,956	-0,034	-0,001
-320,299	800,000	0,031	-0,085
-319,285	-70,295	-0,113	-0,031
-318,270	22,302	0,017	-0,010
-317,256	354,377	-0,069	-0,100
-316,241	-200,000	-0,003	-0,120
-315,226	311,951	0,067	-0,091
-314,212	-200,000	0,006	0,021
-313,197	-200,000	0,009	0,052
-312,183	545,156	0,053	-0,092
-311,168	-200,000	0,004	-0,029
-310,153	15,703	-0,107	-0,061
-309,139	-108,378	-0,129	0,020
-308,124	125,334	0,100	0,092
-307,110	-200,000	0,004	0,153
-306,095	167,732	0,070	0,073
-305,080	191,376	0,154	0,169
-304,066	20,551	0,027	-0,016
-303,051	556,018	0,027	-0,047
-302,037	-200,000	0,018	0,063
-301,022	418,329	-0,059	0,092
-300,008	159,978	0,024	-0,025
-298,993	350,408	-0,039	0,056
-297,978	-122,363	0,021	0,002
-296,964	96,653	0,023	0,019
-295,949	-200,000	0,023	0,084
-294,935	144,690	-0,019	-0,018
-293,920	-72,787	0,107	0,028
-292,905	292,504	-0,062	0,082
-291,891	384,225	0,064	-0,095
-290,876	-1,843	0,011	-0,005
-289,862	127,404	0,017	0,015
-288,847	800,000	-0,001	0,004
-287,832	288,817	-0,065	-0,085
-286,818	482,837	-0,014	0,023
-285,803	-47,739	0,021	-0,007
-284,789	-121,368	0,138	0,017
-283,774	800,000	-0,033	0,091
-282,759	-110,120	0,064	0,010
-281,745	-131,047	-0,182	-0,017
-280,730	-33,717	-0,049	-0,020
-279,716	290,588	0,052	0,069
-278,701	-36,757	-0,090	0,035
-277,686	-153,838	-0,024	-0,001
-276,672	800,000	0,015	-0,040
-275,657	-22,859	0,081	0,035
-274,643	323,411	0,024	-0,033
-273,628	-200,000	-0,008	-0,072
-272,613	224,029	-0,036	-0,043
-271,599	-200,000	-0,008	0,050
-270,584	-200,000	0,006	0,068
-269,570	-26,382	-0,026	0,011
-268,555	55,941	-0,021	0,015
-267,540	413,597	-0,091	-0,141
-266,526	615,844	-0,011	0,020
-265,511	-63,824	-0,143	-0,042
-264,497	-46,107	0,106	0,038
-263,482	293,449	0,034	0,045
-262,467	800,000	0,017	0,038
-261,453	-200,000	-0,003	0,115
-260,438	-200,000	0,023	0,076
-259,424	183,506	0,042	-0,045
-258,409	249,164	0,023	0,029
-257,395	26,286	-0,094	-0,057
-256,380	800,000	-0,036	0,099
-255,365	-64,476	0,111	0,032
-254,351	-3,550	-0,062	-0,031
-253,336	-200,000	-0,007	0,131
-252,322	800,000	-0,050	-0,107
-251,307	800,000	-0,014	-0,032
-250,292	-80,607	0,057	-0,014
-249,278	-4,103	-0,052	-0,026
-248,263	204,729	0,037	-0,042
-247,249	470,365	0,066	0,108
-246,234	-127,192	-0,136	0,014
-245,219	-200,000	-0,029	-0,111
-244,205	22,054	-0,101	0,059
-243,190	361,378	0,072	-0,105
-242,176	800,000	-0,030	-0,076
-241,161	-200,000	0,029	0,134
-240,146	1,769	-0,096	0,050
-239,132	525,335	-0,010	0,018
-238,117	256,055	0,035	-0,043
-237,103	800,000	0,030	0,090
-236,088	-200,000	0,106	-0,000
-235,073	-200,000	0,007	-0,034
-234,059	800,000	0,033	0,073
-233,044	345,493	0,085	0,121
-232,030	-0,178	-0,148	0,076
-231,015	-200,000	-0,021	-0,101
-230,000	211,806	-0,232	-0,264
-228,986	800,000	0,050	-0,102
-227,971	-182,290	-0,065	0,001
-226,957	800,000	0,021	-0,055
-225,942	-200,000	-0,032	-0,170
-224,927	241,730	0,092	-0,112
-223,913	118,503	-0,077	0,069
-222,898	716,845	-0,073	0,141
-221,884	-200,000	-0,001	-0,031
-220,869	-200,000	0,020	0,088
-219,855	386,826	0,064	-0,095
-218,840	-114,957	0,044	-0,006
-217,825	-118,383	-0,040	0,005
-216,811	42,284	0,044	0,029
-215,796	23,148	-0,161	-0,095
-214,782	-200,000	0,012	-0,041
-213,767	-74,948	0,091	0,023
-212,752	800,000	-0,044	0,101
-211,738	275,936	0,027	0,034
-210,723	-157,100	0,067	-0,003
-209,709	-60,251	0,044	0,013
-208,694	536,674	0,060	-0,103
-207,679	214,393	-0,118	-0,135
-206,665	112,921	0,044	0,039
-205,650	259,134	0,076	0,095
-204,636	505,107	-0,055	0,092
-203,621	-108,964	0,062	0,009
-202,606	-200,000	0,007	-0,031
-201,592	800,000	0,017	-0,053
-200,577	480,481	-0,038	-0,062
-199,563	-86,682	0,084	0,018
-198,548	-200,000	-0,016	0,103
-197,533	-112,164	0,021	-0,003
-196,519	319,287	-0,064	-0,088
-195,504	-171,085	-0,144	0,003
-194,490	13,371	-0,026	0,014
-193,475	800,000	0,034	-0,079
-192,460	146,502	0,091	-0,089
-191,446	-44,966	0,061	-0,022
-190,431	-6,411	0,147	0,072
-189,417	-200,000	0,001	0,097
-188,402	-200,000	0,005	0,032
-187,387	800,000	0,027	-0,074
-186,373	456,401	0,045	-0,072
-185,358	-200,000	0,013	-0,045
-184,344	-200,000	-0,004	-0,064
-183,329	-14,246	0,052	0,024
-182,315	800,000	-0,040	0,084
-181,300	-200,000	-0,001	0,083
-180,285	-200,000	0,013	-0,045
-179,271	-56,205	-0,086	-0,027
-178,256	398,986	-0,052	0,079
-177,242	339,274	-0,019	0,027
-176,227	800,000	0,048	0,139
-175,212	162,432	0,048	0,049
-174,198	-200,000	0,007	0,037
-173,183	-200,000	0,049	-0,211
-172,169	-67,941	-0,056	-0,016
-171,154	-103,445	-0,089	-0,015
-170,139	-98,107	0,072	0,013
-169,125	800,000	0,069	0,190
-168,110	48,603	0,114	0,077
-167,096	800,000	-0,042	-0,090
-166,081	7,040	-0,088	0,047
-165,066	215,194	-0,097	-0,111
-164,052	772,906	0,009	-0,018
-163,037	800,000	-0,025	0,059
-162,023	81,791	0,078	0,061
-161,008	-145,607	-0,153	-0,010
-159,993	-52,982	0,042	0,014
-158,979	-4,031	-0,065	0,033
-157,964	-27,431	-0,086	0,036
-156,950	-122,913	0,096	-0,011
-155,935	179,940	0,090	0,095
-154,920	-200,000	0,011	0,043
-153,906	161,477	-0,032	0,032
-152,891	320,545	0,026	-0,036
-151,877	-146,912	0,096	0,006
-150,862	316,880	0,020	0,028
-149,847	-200,000	0,002	-0,013
-148,833	-4,934	0,094	-0,046
-147,818	-148,657	0,009	-0,001
-146,804	276,994	0,050	0,064
-145,789	-60,383	-0,051	0,016
-144,775	62,036	-0,015	-0,011
-143,760	272,064	-0,062	0,079
-142,745	-200,000	-0,009	0,043
-141,731	82,062	-0,040	0,032
-140,716	-200,000	-0,003	0,116
-139,702	355,287	-0,015	-0,021
-138,687	-66,512	-0,037	0,010
-137,672	-200,000	0,007	-0,128
-136,658	-153,039	-0,104	-0,005
-135,643	800,000	0,034	0,073
-134,629	41,766	-0,083	0,054
-133,614	-83,063	0,127	-0,029
-132,599	402,508	-0,037	0,056
-131,585	262,713	0,050	-0,063
-130,570	800,000	-0,040	-0,090
-129,556	800,000	0,010	-0,027
-128,541	40,298	-0,151	-0,098
-127,526	178,343	0,123	-0,130
-126,512	28,793	-0,037	0,023
-125,497	-200,000	0,014	0,127
-124,483	800,000	-0,065	0,149
-123,468	-51,722	0,091	-0,030
-122,453	247,925	0,061	0,074
-121,439	-200,000	0,002	0,032
-120,424	-60,377	-0,098	0,030
-119,410	26,187	-0,043	0,026
-118,395	-149,928	-0,082	-0,005
-117,380	-142,686	0,058	-0,004
-116,366	-200,000	0,030	0,116
-115,351	488,367	-0,042	-0,070
-114,337	161,427	-0,024	-0,024
-113,322	95,978	0,102	-0,084
-112,307	-63,522	-0,049	0,014
-111,293	-54,498	0,136	-0,044
-110,278	39,260	0,035	0,022
-109,264	800,000	-0,005	-0,015
-108,249	-130,424	0,023	-0,002
-107,234	23,604	0,133	-0,078
-106,220	553,461	-0,069	-0,121
-105,205	-200,000	0,007	0,089
-104,191	476,135	0,075	0,123
-103,176	-200,000	0,037	0,147
-102,162	49,201	0,031	-0,021
-101,147	-200,000	-0,024	0,103
-100,132	188,222	-0,048	0,051
-99,118	276,330	0,097	-0,124
-98,103	-98,488	0,102	-0,019
-97,089	115,219	-0,086	-0,076
-96,074	-200,000	0,000	0,139
-95,059	-200,000	-0,006	0,133
-94,045	-65,038	0,057	0,017
-93,030	-157,234	-0,149	-0,006
-92,016	17,453	-0,030	-0,017
-91,001	-19,898	0,099	0,044
-89,986	800,000	-0,049	0,152
-88,972	800,000	0,014	-0,041
-87,957	-59,881	-0,061	0,019
-86,943	431,302	-0,066	0,103
-85,928	-61,925	-0,061	0,018
-84,913	361,116	-0,074	0,107
-83,899	-28,307	0,077	-0,032
-82,884	-62,178	0,067	-0,020
-81,870	-82,342	0,123	0,029
-80,855	-200,000	-0,010	0,039
-79,840	-200,000	-0,007	-0,056
-78,826	236,317	0,042	0,050
-77,811	-147,313	0,032	-0,002
-76,797	-9,761	0,022	0,010
-75,782	800,000	0,037	-0,093
-74,767	232,505	0,048	0,057
-73,753	73,123	0,095	-0,071
-72,738	-92,230	-0,070	0,014
-71,724	-122,569	-0,062	0,007
-70,709	800,000	0,040	-0,086
-69,694	800,000	-0,043	-0,120
-68,680	-200,000	0,028	-0,093
-67,665	-47,970	0,061	-0,021
-66,651	-200,000	-0,001	0,090
-65,636	800,000	0,010	0,030
-64,622	-200,000	-0,015	0,070
-63,607	19,946	0,067	0,039
-62,592	185,850	-0,089	0,095
-61,578	169,532	0,068	-0,069
-60,563	450,225	0,069	0,110
-59,549	-200,000	-0,002	0,156
-58,534	91,642	-2,684	-2,165
-57,519	-31,784	0,469	-0,188
-56,505	-200,000	-1,654	-5,369
-55,490	450,106	1,257	1,998
-54,476	800,000	5,259	11,090
-53,461	-200,000	22,276	347,363
-52,446	800,000	760,298	2294,968
-51,432	513,751	1645,734	2765,189
-50,417	97,497	1609,076	1325,921
-49,403	65,393	1265,982	918,089
-48,388	22,987	1017,638	597,491
-47,373	19,338	984,722	566,114
-46,359	12,833	971,965	537,481
-45,344	8,603	968,587	521,738
-44,330	9,112	966,409	522,210
-43,315	8,075	964,779	517,919
-42,300	8,061	963,566	517,202
-41,286	8,053	962,474	516,568
-40,271	7,957	961,774	515,860
-39,257	7,949	960,928	515,360
-38,242	7,974	959,972	514,909
-37,227	8,004	959,047	514,490
-36,213	7,898	958,281	513,715
-35,198	7,947	957,469	513,417
-34,184	8,046	956,485	513,190
-33,169	7,946	955,716	512,432
-32,154	7,979	954,880	512,071
-31,140	7,996	954,054	511,662
-30,125	8,044	953,071	511,271
-29,111	8,030	952,282	510,781
-28,096	8,027	951,646	510,410
-27,082	7,971	951,086	509,909
-26,067	8,001	950,301	509,565
-25,052	7,989	949,381	509,012
-24,038	7,959	948,761	508,563
-23,023	7,912	948,168	508,074
-22,009	7,979	947,599	507,965
-20,994	7,990	946,934	507,623
-19,979	7,937	946,330	507,110
-18,965	7,942	945,631	506,732
-17,950	7,941	945,106	506,425
-16,936	7,970	944,409	506,124
-15,921	7,952	943,538	505,582
-14,906	7,834	943,041	504,917
-13,892	7,932	942,401	504,869
-12,877	7,868	941,794	504,318
-11,863	7,832	941,153	503,840
-10,848	7,816	940,644	503,498
-9,833	7,923	940,257	503,612
-8,819	7,977	939,482	503,348
-7,804	7,886	938,853	502,702
-6,790	7,954	938,160	502,527
-5,775	7,926	937,679	502,159
-4,760	7,899	937,013	501,698
-3,746	7,937	936,433	501,487
-2,731	7,807	935,735	500,681
-1,717	7,720	935,022	500,006
-0,702	7,685	934,607	499,653
0,313	7,576	933,878	499,673
1,327	10,913	931,579	508,919
2,342	19,502	780,020	448,638
3,356	14,655	447,923	250,309
4,371	-11,374	312,551	146,980
5,386	-14,859	294,954	135,169
6,400	-16,991	288,805	130,228
7,415	-17,353	286,136	128,657
8,429	-18,201	284,164	126,932
9,444	-18,249	283,247	126,465
10,459	-18,220	282,827	126,294
11,473	-18,123	281,976	125,997
12,488	-17,976	281,568	125,946
13,502	-17,983	281,214	125,769
14,517	-18,138	280,556	125,314
15,531	-18,277	280,230	125,024
16,546	-17,908	279,750	125,153
17,561	-18,189	279,312	124,677
18,575	-18,032	279,145	124,741
19,590	-18,181	278,653	124,368
20,604	-18,061	278,411	124,363
21,619	-18,194	278,124	124,097
22,634	-18,124	277,722	123,973
23,648	-18,225	277,437	123,739
24,663	-18,177	277,335	123,729
25,677	-18,050	276,835	123,614
26,692	-18,171	276,619	123,393
27,707	-18,140	276,336	123,284
28,721	-18,230	276,090	123,078
29,736	-18,183	275,829	122,996
30,750	-18,242	275,555	122,807
31,765	-18,155	275,147	122,697
32,780	-18,129	275,096	122,687
33,794	-18,097	274,706	122,532
34,809	-18,147	274,483	122,374
35,823	-18,243	274,203	122,149
36,838	-18,069	274,047	122,232
37,853	-18,277	273,674	121,860
38,867	-18,029	273,524	122,014
39,882	-18,150	273,213	121,752
40,896	-18,094	272,957	121,679
41,911	-18,021	272,721	121,631
42,926	-17,972	272,347	121,498
43,940	-18,157	272,207	121,254
44,955	-17,977	272,022	121,328
45,969	-18,071	271,687	121,080
46,984	-17,922	271,554	121,148
47,999	-18,004	271,419	121,002
49,013	-17,861	271,213	121,031
50,028	-17,814	271,069	120,999
51,042	-17,746	270,684	120,880
52,057	-17,863	270,498	120,678
53,071	-17,874	270,398	120,612
54,086	-17,932	270,009	120,374
55,101	-17,983	269,911	120,273
56,115	-17,802	269,594	120,288
57,130	-18,041	269,463	119,998
58,144	-18,121	269,032	119,723
59,159	-18,145	268,688	119,536
60,174	-18,028	268,444	119,525
61,188	-17,987	268,282	119,479
62,203	-17,963	268,083	119,402
63,217	-17,973	267,889	119,296
64,232	-17,890	267,782	119,313
65,247	-17,988	267,438	119,060
66,261	-17,994	267,146	118,914
67,276	-17,972	266,965	118,843
68,290	-18,083	266,859	118,684
69,305	-17,974	266,679	118,693
70,320	-17,998	266,363	118,520
71,334	-18,052	266,135	118,359
72,349	-17,902	265,773	118,323
73,363	-17,821	265,682	118,346
74,378	-17,902	265,437	118,152
75,393	-17,995	265,138	117,924
76,407	-17,757	264,842	117,997
77,422	-17,970	264,721	117,741
78,436	-18,082	264,506	117,534
79,451	-18,111	264,344	117,425
80,466	-18,010	264,030	117,366
81,480	-18,132	264,000	117,232
82,495	-17,861	263,669	117,319
83,509	-18,005	263,453	117,083
84,524	-17,800	263,251	117,166
85,539	-17,895	263,036	116,975
86,553	-17,964	262,840	116,816
87,568	-17,829	262,567	116,804
88,582	-17,837	262,381	116,705
89,597	-17,956	262,178	116,497
90,611	-17,973	261,922	116,358
91,626	-17,994	261,691	116,227
92,641	-17,859	261,535	116,267
93,655	-17,996	261,335	116,045
94,670	-17,955	261,121	115,977
95,684	-17,884	260,941	115,950
96,699	-17,990	260,741	115,756
97,714	-17,956	260,678	115,748
98,728	-17,804	260,227	115,672
99,743	-17,829	260,362	115,700
100,757	-17,835	259,941	115,497
101,772	-17,928	259,788	115,337
102,787	-17,940	259,463	115,171
103,801	-17,853	259,242	115,140
104,816	-17,871	259,069	115,036
105,830	-17,688	258,737	115,040
106,845	-17,970	258,684	114,758
107,860	-17,979	258,631	114,717
108,874	-17,912	258,224	114,584
109,889	-17,904	258,090	114,522
110,903	-17,813	257,764	114,447
111,918	-17,780	257,678	114,427
112,933	-18,028	257,443	114,096
113,947	-17,845	257,153	114,117
114,962	-17,935	257,136	114,021
115,976	-17,959	256,898	113,885
116,991	-17,921	256,631	113,789
118,006	-17,896	256,619	113,795
119,020	-17,798	256,441	113,791
120,035	-17,763	256,343	113,768
121,049	-17,884	256,090	113,540
122,064	-17,913	255,778	113,367
123,079	-18,005	255,682	113,234
124,093	-17,889	255,439	113,217
125,108	-17,851	255,184	113,127
126,122	-17,848	255,150	113,105
127,137	-17,739	254,850	113,056
128,151	-17,706	254,679	112,998
129,166	-17,788	254,369	112,779
130,181	-17,737	254,262	112,767
131,195	-17,705	253,962	112,651
132,210	-17,845	253,724	112,415
133,224	-17,817	253,647	112,394
134,239	-17,997	253,396	112,119
135,254	-17,832	253,240	112,181
136,268	-17,773	253,011	112,121
137,283	-17,657	252,815	112,123
138,297	-17,775	252,520	111,882
139,312	-17,621	252,400	111,950
140,327	-17,751	252,141	111,714
141,341	-17,756	251,981	111,629
142,356	-17,732	251,798	111,558
143,370	-17,752	251,642	111,463
144,385	-17,890	251,388	111,222
145,400	-18,061	251,203	110,985
146,414	-17,833	251,063	111,107
147,429	-17,914	250,882	110,948
148,443	-17,913	250,778	110,893
149,458	-17,928	250,544	110,767
150,473	-17,648	250,220	110,851
151,487	-17,731	250,162	110,745
152,502	-17,753	249,858	110,583
153,516	-17,928	249,762	110,382
154,531	-17,958	249,571	110,262
155,546	-18,122	249,464	110,067
156,560	-17,753	249,166	110,237
157,575	-17,846	248,952	110,054
158,589	-17,772	248,872	110,071
159,604	-17,742	248,629	109,979
160,619	-18,034	248,627	109,723
161,633	-17,970	248,148	109,555
162,648	-17,820	248,147	109,671
163,662	-17,800	248,001	109,613
164,677	-17,771	247,874	109,571
165,692	-17,686	247,554	109,491
166,706	-17,730	247,461	109,403
167,721	-17,757	247,163	109,240
168,735	-17,577	247,069	109,339
169,750	-17,899	247,175	109,107
170,764	-17,688	246,744	109,083
171,779	-17,851	246,752	108,941
172,794	-17,632	246,521	109,011
173,808	-17,763	246,305	108,797
174,823	-17,760	246,156	108,725
175,837	-17,747	246,039	108,674
176,852	-17,839	245,950	108,548
177,867	-17,673	245,495	108,476
178,881	-17,779	245,550	108,402
179,896	-17,796	245,340	108,286
180,910	-17,663	244,966	108,221
181,925	-17,781	244,849	108,062
182,940	-17,792	244,718	107,986
183,954	-17,823	244,361	107,792
184,969	-17,725	244,427	107,893
185,983	-17,698	244,167	107,791
186,998	-17,577	243,935	107,779
188,013	-17,718	243,711	107,554
189,027	-17,685	243,555	107,503
190,042	-17,687	243,413	107,429
191,056	-17,883	243,341	107,226
192,071	-17,707	243,183	107,292
193,086	-17,896	243,073	107,078
194,100	-17,796	242,805	107,034
195,115	-17,559	242,540	107,101
196,129	-17,694	242,329	106,887
197,144	-17,653	242,127	106,822
198,159	-17,790	242,000	106,645
199,173	-17,731	241,833	106,610
200,188	-17,730	241,814	106,593
201,202	-17,598	241,604	106,599
202,217	-17,635	241,471	106,501
203,232	-17,460	241,119	106,478
204,246	-17,750	241,071	106,211
205,261	-17,478	240,785	106,296
206,275	-15,879	241,317	107,823
207,290	-11,778	243,074	111,954
208,304	-5,457	244,695	117,890
209,319	-3,283	245,438	120,027
210,334	-2,629	245,410	120,540
211,348	-1,876	245,628	121,256
212,363	-1,156	245,527	121,787
213,377	-0,733	245,573	122,147
214,392	0,036	245,775	122,868
215,407	0,203	245,658	122,936
216,421	0,249	245,572	122,920
217,436	0,520	245,442	123,066
218,450	0,391	245,165	122,811
219,465	0,393	245,203	122,821
220,480	0,520	244,886	122,755
221,494	0,555	244,874	122,767
222,509	0,306	244,496	122,362
223,523	0,216	244,254	122,157
224,538	0,018	244,210	121,963
225,553	-0,010	244,042	121,845
226,567	0,145	243,690	121,785
227,582	0,096	243,729	121,753
228,596	-0,016	243,661	121,618
229,611	0,003	243,353	121,468
230,626	0,153	243,096	121,451
231,640	0,322	242,808	121,434
232,655	-0,102	242,856	121,102
233,669	-0,120	242,732	121,015
234,684	0,020	242,499	121,001
235,699	0,143	242,299	120,991
236,713	-0,145	242,198	120,697
237,728	0,273	241,973	120,911
238,742	0,006	241,898	120,647
239,757	0,021	241,764	120,582
240,772	-0,104	241,617	120,397
241,786	0,052	241,401	120,404
242,801	0,059	241,189	120,293
243,815	-0,089	241,166	120,152
244,830	0,015	241,012	120,148
245,844	0,107	240,812	120,112
246,859	0,046	240,659	119,976
247,874	0,088	240,581	119,960
248,888	0,196	240,418	119,955
249,903	0,049	240,170	119,703
250,917	-0,033	240,121	119,601
251,932	-0,053	239,923	119,476
252,947	0,113	239,760	119,517
253,961	-0,126	239,703	119,287
254,976	0,093	239,314	119,258
255,990	0,044	239,328	119,215
257,005	0,022	239,218	119,132
258,020	0,109	238,947	119,056
259,034	-0,029	238,817	118,871
260,049	0,120	238,648	118,894
261,063	-0,018	238,462	118,682
262,078	0,042	238,251	118,613
263,093	0,026	238,141	118,536
264,107	0,088	237,971	118,489
265,122	-0,072	237,939	118,336
266,136	-0,000	237,732	118,279
267,151	0,202	237,503	118,314
268,166	0,240	237,257	118,211
269,180	0,182	237,091	118,073
270,195	0,082	237,096	117,985
271,209	0,039	236,831	117,809
272,224	0,105	236,730	117,800
273,239	0,094	236,587	117,710
274,253	0,024	236,427	117,566
275,268	0,250	236,305	117,672
276,282	0,137	236,193	117,517
277,297	-0,058	235,976	117,245
278,312	0,036	235,861	117,251
279,326	0,071	235,649	117,163
280,341	0,234	235,438	117,175
281,355	0,005	235,488	117,010
282,370	0,153	235,370	117,057
283,384	0,183	235,054	116,913
284,399	0,065	235,108	116,837
285,414	-0,012	234,789	116,608
286,428	0,301	234,588	116,742
287,443	0,250	234,369	116,582
288,457	0,415	234,476	116,754
289,472	0,245	234,288	116,518
290,487	0,191	234,038	116,341
291,501	0,111	233,983	116,241
292,516	0,217	233,848	116,246
293,530	0,274	233,528	116,120
294,545	0,335	233,382	116,086
295,560	0,153	233,352	115,918
296,574	0,246	233,140	115,875
297,589	0,142	233,055	115,742
298,603	0,372	232,923	115,844
299,618	0,322	232,805	115,736
300,633	0,361	232,681	115,694
301,647	0,380	232,539	115,629
302,662	0,321	232,597	115,601
303,676	0,539	232,035	115,479
304,691	0,458	231,997	115,388
305,706	0,356	231,760	115,182
306,720	0,487	231,564	115,174
307,735	0,502	231,626	115,206
308,749	0,575	231,570	115,224
309,764	0,342	231,420	114,961
310,779	0,464	231,294	114,981
311,793	0,250	231,023	114,672
312,808	0,601	230,695	114,768
313,822	0,404	230,599	114,560
314,837	0,427	230,626	114,580
315,852	0,393	230,393	114,428
316,866	0,514	230,225	114,426
317,881	0,509	230,173	114,387
318,895	0,672	229,896	114,363
319,910	0,354	229,808	114,067
320,925	0,374	229,698	114,018
321,939	0,319	229,627	113,930
322,954	0,570	229,445	114,021
323,968	0,372	229,237	113,757
324,983	0,606	229,091	113,851
325,997	0,573	228,934	113,739
327,012	0,535	228,793	113,629
328,027	0,411	228,638	113,448
329,041	0,389	228,487	113,347
330,056	0,507	228,364	113,365
331,070	0,723	228,209	113,441
332,085	0,709	228,024	113,328
333,100	0,574	227,856	113,133
334,114	0,413	227,803	112,975
335,129	0,444	227,677	112,926
336,143	0,455	227,441	112,807
337,158	0,613	227,302	112,847
338,173	0,551	227,297	112,787
339,187	0,639	227,046	112,720
340,202	0,634	226,877	112,622
341,216	0,638	226,864	112,608
342,231	0,619	226,717	112,511
343,246	0,522	226,585	112,362
344,260	0,582	226,483	112,346
345,275	0,675	226,283	112,307
346,289	0,593	226,052	112,121
347,304	0,754	225,890	112,151
348,319	0,498	225,671	111,842
349,333	0,602	225,549	111,849
350,348	0,551	225,545	111,798
351,362	0,692	225,354	111,799
352,377	0,701	225,310	111,774
353,392	0,878	225,109	111,795
354,406	0,670	225,010	111,581
355,421	192,941	1311,055	1379,063
356,435	154,573	1443,220	1378,900
