DTS Sentinel unit serial number:	SN410029Multiplexer serial number:	ORYXHardware model number:	OX2-SRSoftware version number:	ORYX F/W v4,00 Oryx Data Collector v3.7.2.0data status	okinstallation	B5 Nyhavnadifferential loss correction	single-endedforward channel	channel 2reverse channel	N/Adate	2023/12/14time	14:22:13forward acquisition time	300,00reverse acquisition time	0,00gamma	499,1914k internal	0,3157k external	0,3157temperature offset calibration	1,0000default loss term (dB/km)	0,3820temperature slope calibration	1,0000multiplexer offset coefficient	1,0000multiplexer slope coefficient	1,0000fibre end	0,00T internal ref (°C)	8,04T ext. ref 1 (°C)	-8,04T ext. ref 2 (°C)	-8,12length (m)	temperature (°C)	Stokes	anti-Stokes-744,400	5,121	0,110	0,059
-743,385	-57,881	-0,358	-0,115
-742,371	75,282	0,180	0,140
-741,356	-163,205	-0,315	0,011
-740,342	161,146	0,042	0,043
-739,327	-35,736	-0,405	-0,161
-738,312	76,155	0,145	0,113
-737,298	-72,340	-0,422	-0,114
-736,283	-178,928	0,185	-0,003
-735,269	-124,839	-0,303	-0,034
-734,254	-13,200	0,108	0,051
-733,239	23,109	-0,474	-0,286
-732,225	-49,808	0,280	0,097
-731,210	-1,819	-0,064	0,033
-730,196	-101,136	-0,160	-0,029
-729,181	32,846	-0,079	-0,050
-728,167	800,000	0,003	-0,007
-727,152	213,881	-0,028	0,033
-726,137	58,008	-0,003	0,002
-725,123	-143,581	-0,179	0,012
-724,108	-200,000	-0,021	0,097
-723,094	-200,000	0,005	-0,121
-722,079	800,000	-0,046	-0,125
-721,064	243,274	-0,075	-0,093
-720,050	12,989	-0,019	0,011
-719,035	-49,461	-0,072	0,025
-718,021	-200,000	0,003	-0,012
-717,006	-200,000	0,021	-0,077
-715,991	-68,972	-0,112	-0,032
-714,977	44,691	-0,023	0,016
-713,962	375,868	-0,051	-0,076
-712,948	-62,987	0,093	-0,028
-711,933	44,653	-0,174	-0,118
-710,918	800,000	0,008	0,019
-709,904	-150,796	-0,157	-0,009
-708,889	260,233	0,062	-0,079
-707,875	-111,194	-0,103	-0,015
-706,860	-132,102	-0,152	-0,014
-705,845	-200,000	0,019	-0,113
-704,831	136,984	0,055	-0,053
-703,816	110,075	-0,120	0,106
-702,802	800,000	-0,013	-0,028
-701,787	800,000	-0,062	-0,140
-700,772	85,577	-0,039	-0,031
-699,758	-19,549	0,067	0,030
-698,743	328,583	-0,069	0,097
-697,729	-120,186	-0,056	0,007
-696,714	-200,000	0,005	0,033
-695,699	225,805	0,088	-0,105
-694,685	-15,706	-0,116	0,054
-693,670	77,717	-0,083	-0,065
-692,656	-24,153	0,149	0,065
-691,641	443,671	-0,055	0,090
-690,627	-79,885	-0,094	-0,023
-689,612	-200,000	0,003	-0,048
-688,597	26,283	-0,100	-0,062
-687,583	-200,000	-0,003	-0,126
-686,568	-129,501	-0,051	0,005
-685,554	98,582	-0,076	-0,065
-684,539	800,000	-0,053	-0,109
-683,524	-136,484	-0,145	-0,012
-682,510	-44,955	-0,025	0,009
-681,495	-15,096	-0,102	0,048
-680,481	195,061	0,089	-0,100
-679,466	104,891	-0,060	-0,052
-678,451	173,649	-0,059	-0,063
-677,437	-200,000	-0,030	-0,150
-676,422	-86,973	-0,153	0,034
-675,408	131,932	-0,043	-0,041
-674,393	-200,000	-0,023	0,141
-673,378	-200,000	0,039	-0,185
-672,364	-105,269	-0,205	0,034
-671,349	455,804	0,087	-0,143
-670,335	-200,000	0,029	0,113
-669,320	-43,589	0,092	0,034
-668,305	-200,000	-0,007	-0,046
-667,291	-104,503	0,125	0,021
-666,276	150,490	-0,089	-0,089
-665,262	249,775	0,067	-0,084
-664,247	-200,000	0,012	-0,067
-663,232	800,000	0,017	-0,047
-662,218	-188,497	-0,117	-0,001
-661,203	180,038	-0,051	-0,055
-660,189	-61,177	0,174	0,054
-659,174	-53,951	-0,107	-0,036
-658,159	259,401	0,041	0,052
-657,145	297,513	-0,123	-0,166
-656,130	-200,000	0,006	0,129
-655,116	800,000	0,016	0,042
-654,101	56,589	0,069	0,049
-653,086	-200,000	0,006	-0,110
-652,072	-82,044	-0,091	0,022
-651,057	252,915	0,085	-0,106
-650,043	-200,000	-0,009	0,073
-649,028	48,294	0,138	0,095
-648,014	-45,431	-0,124	0,045
-646,999	58,811	0,135	-0,098
-645,984	800,000	-0,047	-0,097
-644,970	360,072	0,026	-0,039
-643,955	59,041	0,082	-0,059
-642,941	800,000	-0,021	-0,045
-641,926	-200,000	0,035	-0,142
-640,911	557,205	-0,015	-0,027
-639,897	-94,259	0,148	-0,030
-638,882	70,093	-0,094	0,071
-637,868	33,305	-0,055	-0,035
-636,853	571,964	0,035	-0,063
-635,838	-200,000	-0,015	-0,139
-634,824	-23,511	0,089	-0,039
-633,809	109,214	-0,116	0,102
-632,795	800,000	0,017	-0,043
-631,780	-144,224	0,084	-0,006
-630,765	-121,246	-0,074	0,009
-629,751	377,622	-0,114	-0,172
-628,736	245,888	-0,092	-0,114
-627,722	-79,329	-0,062	-0,015
-626,707	241,332	0,033	-0,041
-625,692	-165,517	0,040	-0,001
-624,678	-171,592	0,045	-0,001
-623,663	230,193	-0,104	-0,125
-622,649	46,383	0,080	-0,054
-621,634	-200,000	-0,001	0,066
-620,619	-74,638	0,068	-0,018
-619,605	-162,885	0,056	0,002
-618,590	-200,000	-0,019	-0,133
-617,576	-55,016	0,120	0,040
-616,561	-200,000	0,001	-0,026
-615,546	54,706	-0,096	-0,068
-614,532	322,330	-0,111	-0,156
-613,517	-40,775	-0,055	0,021
-612,503	-200,000	-0,015	-0,064
-611,488	-200,000	0,015	0,090
-610,474	-200,000	-0,054	-0,198
-609,459	44,594	-0,019	-0,013
-608,444	344,075	-0,029	0,042
-607,430	293,961	-0,036	-0,048
-606,415	217,427	0,017	-0,020
-605,401	-200,000	-0,000	-0,037
-604,386	-83,803	-0,064	-0,015
-603,371	-200,000	-0,007	-0,031
-602,357	-180,171	0,092	-0,001
-601,342	-44,579	-0,082	0,030
-600,328	-101,900	0,116	0,020
-599,313	169,523	-0,101	-0,106
-598,298	-147,411	-0,032	-0,002
-597,284	800,000	0,070	0,174
-596,269	192,302	-0,125	0,139
-595,255	556,641	0,035	-0,062
-594,240	281,915	-0,080	-0,106
-593,225	140,753	-0,060	0,058
-592,211	-84,863	0,113	0,026
-591,196	-200,000	0,004	0,032
-590,182	5,908	0,051	-0,028
-589,167	293,323	0,026	-0,035
-588,152	-16,851	0,109	0,050
-587,138	-200,000	-0,029	0,151
-586,123	-2,852	-0,069	0,035
-585,109	-147,005	-0,046	0,003
-584,094	-200,000	0,046	-0,172
-583,079	-200,000	-0,010	-0,063
-582,065	-200,000	0,033	0,117
-581,050	800,000	-0,045	0,116
-580,036	-59,756	0,008	-0,002
-579,021	56,885	-0,010	-0,007
-578,006	139,034	0,084	-0,081
-576,992	196,364	-0,129	-0,144
-575,977	11,240	-0,108	0,060
-574,963	36,757	0,165	0,107
-573,948	0,916	0,056	0,029
-572,934	-50,103	-0,051	0,018
-571,919	-132,587	-0,083	0,008
-570,904	-200,000	0,033	-0,161
-569,890	369,080	0,038	-0,056
-568,875	-117,062	0,152	0,020
-567,861	183,728	0,078	-0,084
-566,846	-200,000	-0,024	0,113
-565,831	295,190	-0,133	0,179
-564,817	-200,000	0,057	0,205
-563,802	199,705	0,004	0,004
-562,788	-127,864	-0,052	-0,005
-561,773	209,387	0,037	0,043
-560,758	434,749	0,029	0,046
-559,744	63,031	0,048	-0,036
-558,729	65,120	-0,039	0,029
-557,715	-104,527	-0,069	0,012
-556,700	259,869	-0,084	-0,106
-555,685	-6,688	-0,051	-0,025
-554,671	565,740	-0,087	0,154
-553,656	-200,000	0,006	0,104
-552,642	-48,957	0,024	-0,008
-551,627	108,695	-0,033	0,028
-550,612	-37,345	0,024	-0,009
-549,598	-200,000	-0,012	-0,121
-548,583	-200,000	0,001	0,088
-547,569	9,271	-0,112	0,062
-546,554	726,780	0,081	0,159
-545,539	-25,176	0,040	-0,017
-544,525	-193,133	-0,046	-0,000
-543,510	-10,581	-0,077	0,037
-542,496	468,228	-0,013	-0,021
-541,481	800,000	-0,015	-0,036
-540,466	-200,000	0,039	-0,136
-539,452	-200,000	0,011	0,042
-538,437	-200,000	0,003	0,022
-537,423	101,931	0,048	-0,041
-536,408	800,000	0,046	-0,125
-535,393	-13,169	-0,045	-0,021
-534,379	217,691	0,082	-0,096
-533,364	800,000	0,049	-0,106
-532,350	-200,000	-0,004	0,061
-531,335	-118,139	0,138	-0,018
-530,321	58,814	0,059	-0,042
-529,306	800,000	-0,014	-0,030
-528,291	150,089	0,029	-0,029
-527,277	-41,934	0,127	-0,048
-526,262	143,169	0,042	0,041
-525,248	15,628	0,025	-0,014
-524,233	-200,000	-0,001	-0,025
-523,218	-155,804	-0,030	-0,001
-522,204	-90,776	0,033	0,007
-521,189	402,819	-0,119	-0,184
-520,175	309,460	0,074	-0,101
-519,160	-74,242	0,129	-0,034
-518,145	101,469	0,062	0,053
-517,131	183,717	0,019	-0,021
-516,116	800,000	0,068	0,140
-515,102	-200,000	-0,003	0,012
-514,087	800,000	-0,022	0,063
-513,072	30,149	0,039	0,025
-512,058	36,441	0,114	-0,073
-511,043	289,486	-0,050	-0,066
-510,029	143,400	-0,092	-0,089
-509,014	771,264	0,020	0,039
-507,999	-200,000	0,023	-0,163
-506,985	-200,000	-0,017	-0,058
-505,970	27,589	-0,090	-0,055
-504,956	47,926	-0,125	0,085
-503,941	-200,000	0,008	-0,053
-502,926	197,870	-0,109	0,122
-501,912	702,165	0,016	-0,030
-500,897	-13,705	0,071	-0,034
-499,883	-200,000	-0,008	-0,068
-498,868	-162,194	-0,064	0,002
-497,853	800,000	-0,030	0,068
-496,839	-178,652	0,104	-0,002
-495,824	206,657	0,076	0,086
-494,810	54,426	-0,093	0,065
-493,795	78,870	0,025	-0,020
-492,781	470,161	0,031	-0,051
-491,766	-200,000	-0,036	-0,124
-490,751	-151,877	-0,094	-0,005
-489,737	-88,950	0,093	-0,020
-488,722	90,887	-0,076	0,062
-487,708	391,566	0,080	-0,121
-486,693	-13,692	0,106	0,050
-485,678	-200,000	0,010	0,060
-484,664	207,956	-0,037	-0,042
-483,649	800,000	-0,023	0,050
-482,635	85,299	0,066	-0,053
-481,620	-33,417	-0,048	0,019
-480,605	142,016	-0,116	0,112
-479,591	-200,000	-0,008	0,196
-478,576	-66,750	0,074	0,021
-477,562	-133,241	-0,105	0,010
-476,547	489,142	0,007	-0,011
-475,532	-200,000	-0,003	-0,055
-474,518	261,436	-0,044	0,056
-473,503	-200,000	0,043	0,150
-472,489	11,323	-0,092	0,051
-471,474	-94,465	-0,036	0,007
-470,459	800,000	-0,006	0,015
-469,445	3,229	0,144	-0,076
-468,430	-63,077	0,039	-0,012
-467,416	145,651	0,051	0,050
-466,401	800,000	-0,049	0,111
-465,386	-27,769	0,025	0,010
-464,372	301,069	-0,040	0,053
-463,357	-200,000	-0,004	-0,052
-462,343	-134,684	0,090	-0,008
-461,328	16,157	-0,087	0,050
-460,313	-200,000	-0,022	-0,084
-459,299	230,734	0,058	0,069
-458,284	-33,389	0,040	0,016
-457,270	-200,000	-0,003	0,052
-456,255	43,627	-0,126	0,084
-455,241	202,502	-0,033	-0,037
-454,226	-6,227	-0,060	-0,030
-453,211	-125,204	0,091	-0,010
-452,197	301,273	0,055	0,074
-451,182	208,895	-0,065	-0,074
-450,168	-200,000	-0,015	0,105
-449,153	54,342	-0,049	-0,034
-448,138	37,984	-0,134	-0,087
-447,124	-200,000	-0,008	-0,056
-446,109	-103,247	0,151	-0,026
-445,095	-200,000	-0,014	-0,059
-444,080	-200,000	0,002	0,111
-443,065	-16,330	-0,114	0,052
-442,051	-177,282	-0,093	0,002
-441,036	800,000	-0,060	-0,166
-440,022	82,731	0,035	-0,028
-439,007	800,000	0,022	-0,047
-437,992	-75,214	0,031	0,008
-436,978	-77,826	-0,075	-0,019
-435,963	-200,000	0,014	-0,086
-434,949	-200,000	0,015	0,067
-433,934	267,461	0,068	0,087
-432,919	-84,068	0,041	-0,009
-431,905	800,000	-0,026	0,075
-430,890	246,855	0,108	0,132
-429,876	-200,000	-0,007	0,032
-428,861	160,091	0,134	-0,136
-427,846	23,966	-0,037	0,022
-426,832	229,146	-0,044	-0,053
-425,817	267,900	-0,072	-0,092
-424,803	800,000	-0,058	0,167
-423,788	0,027	0,101	0,052
-422,773	648,250	-0,130	0,242
-421,759	6,917	-0,074	0,040
-420,744	-113,819	-0,139	-0,020
-419,730	800,000	-0,029	0,076
-418,715	-163,555	-0,041	-0,001
-417,701	-17,108	-0,050	-0,023
-416,686	-200,000	0,010	0,060
-415,671	-169,424	0,104	0,003
-414,657	-200,000	0,016	-0,063
-413,642	213,482	0,043	-0,050
-412,628	-200,000	-0,004	0,126
-411,613	82,141	0,105	0,083
-410,598	-200,000	0,015	0,088
-409,584	304,414	-0,046	-0,062
-408,569	382,452	0,040	0,060
-407,555	-200,000	0,006	0,073
-406,540	114,603	-0,118	-0,105
-405,525	-125,300	0,115	-0,013
-404,511	-125,603	0,086	0,009
-403,496	88,784	-0,046	-0,038
-402,482	800,000	-0,012	0,028
-401,467	-112,261	0,071	-0,010
-400,452	800,000	0,062	0,142
-399,438	-200,000	0,003	0,145
-398,423	101,786	0,028	0,024
-397,409	305,084	-0,083	0,112
-396,394	22,043	0,034	0,020
-395,379	-19,579	-0,049	-0,022
-394,365	306,578	0,074	0,101
-393,350	52,779	0,095	0,066
-392,336	-87,634	-0,057	0,012
-391,321	150,477	0,064	0,064
-390,306	-65,697	-0,098	-0,028
-389,292	147,360	-0,006	-0,006
-388,277	-44,036	-0,049	0,018
-387,263	-120,600	0,162	0,020
-386,248	-107,231	-0,027	0,004
-385,233	-141,764	0,056	0,004
-384,219	-3,103	0,104	-0,052
-383,204	195,315	-0,094	-0,105
-382,190	800,000	0,007	-0,020
-381,175	800,000	0,021	0,047
-380,160	330,488	0,052	-0,073
-379,146	-200,000	-0,005	0,054
-378,131	-116,347	-0,046	0,006
-377,117	800,000	-0,031	0,076
-376,102	-189,063	-0,022	-0,000
-375,088	342,863	-0,056	0,080
-374,073	-104,514	0,024	-0,004
-373,058	-112,638	0,005	0,001
-372,044	330,349	-0,084	-0,118
-371,029	578,814	-0,053	0,095
-370,015	-53,040	0,019	-0,006
-369,000	-73,643	-0,159	-0,042
-367,985	178,554	0,098	-0,105
-366,971	-21,324	0,175	0,077
-365,956	-200,000	-0,010	0,125
-364,942	696,866	0,063	0,121
-363,927	-200,000	0,012	0,154
-362,912	185,333	-0,012	0,013
-361,898	-114,558	-0,090	-0,012
-360,883	800,000	-0,032	0,085
-359,869	48,437	0,039	0,026
-358,854	-200,000	0,003	0,139
-357,839	17,027	0,025	0,015
-356,825	-200,000	0,002	-0,007
-355,810	-200,000	0,002	-0,045
-354,796	207,617	-0,058	-0,066
-353,781	168,432	-0,086	-0,089
-352,766	412,593	0,015	-0,023
-351,752	-200,000	-0,002	-0,100
-350,737	152,427	-0,058	-0,057
-349,723	42,738	0,115	0,076
-348,708	-200,000	-0,003	0,057
-347,693	800,000	0,079	-0,167
-346,679	334,171	-0,061	-0,087
-345,664	504,580	-0,041	-0,069
-344,650	-72,661	-0,056	0,015
-343,635	-200,000	0,009	-0,036
-342,620	-92,545	0,096	-0,019
-341,606	-71,754	0,129	0,035
-340,591	-40,671	0,085	0,032
-339,577	-75,256	-0,127	0,033
-338,562	-200,000	0,015	-0,116
-337,548	-138,052	0,059	-0,005
-336,533	58,582	0,094	0,067
-335,518	800,000	0,066	0,142
-334,504	-38,581	-0,008	-0,003
-333,489	-200,000	0,042	-0,165
-332,475	44,505	-0,120	-0,080
-331,460	-102,805	0,139	-0,024
-330,445	139,897	-0,122	0,117
-329,431	-79,725	0,107	0,026
-328,416	727,943	-0,021	0,042
-327,402	-200,000	-0,027	0,126
-326,387	-47,246	0,082	0,029
-325,372	-200,000	0,015	0,126
-324,358	34,634	0,063	0,040
-323,343	-130,770	0,030	0,003
-322,329	-186,036	-0,095	0,001
-321,314	-91,839	0,041	-0,008
-320,299	-200,000	0,023	0,137
-319,285	-172,364	-0,150	0,003
-318,270	366,818	-0,039	-0,058
-317,256	-100,464	-0,050	-0,009
-316,241	71,553	0,135	0,101
-315,226	134,899	-0,024	0,023
-314,212	-200,000	0,001	0,031
-313,197	1,382	0,065	-0,034
-312,183	101,916	0,067	-0,056
-311,168	518,713	0,033	-0,056
-310,153	66,717	0,060	-0,044
-309,139	800,000	-0,016	0,045
-308,124	711,256	-0,034	0,066
-307,110	-42,853	0,068	-0,025
-306,095	-68,274	0,024	0,007
-305,080	-200,000	-0,001	0,073
-304,066	-200,000	0,007	-0,049
-303,051	-200,000	-0,021	-0,100
-302,037	-67,771	-0,063	0,018
-301,022	-163,928	0,151	0,005
-300,008	-200,000	0,010	-0,036
-298,993	-61,810	-0,064	0,019
-297,978	-200,000	-0,003	-0,051
-296,964	84,046	-0,117	0,093
-295,949	-200,000	-0,002	-0,126
-294,935	-200,000	0,022	-0,134
-293,920	-200,000	-0,011	-0,054
-292,905	-11,539	0,089	0,042
-291,891	800,000	0,038	-0,079
-290,876	130,136	-0,030	0,028
-289,862	-200,000	0,008	0,035
-288,847	293,784	-0,066	-0,088
-287,832	-23,104	-0,100	0,044
-286,818	-200,000	0,025	0,102
-285,803	47,757	0,049	0,033
-284,789	227,037	-0,081	0,096
-283,774	-97,318	-0,080	-0,015
-282,759	-78,536	0,110	0,027
-281,745	162,735	-0,117	-0,119
-280,730	800,000	0,020	-0,052
-279,716	-35,525	0,100	0,039
-278,701	-200,000	-0,004	0,032
-277,686	50,865	0,103	0,070
-276,672	-115,100	-0,241	-0,033
-275,657	36,777	-0,043	0,027
-274,643	34,976	-0,123	0,078
-273,628	62,349	0,033	-0,024
-272,613	72,992	0,062	0,047
-271,599	289,754	0,047	-0,062
-270,584	657,044	0,078	0,145
-269,570	-200,000	-0,035	0,131
-268,555	800,000	0,002	0,006
-267,540	101,998	-0,093	-0,079
-266,526	-200,000	-0,011	-0,053
-265,511	-172,481	-0,120	-0,003
-264,497	87,737	-0,034	0,027
-263,482	-18,510	0,009	0,004
-262,467	-127,012	0,084	0,009
-261,453	-101,897	-0,008	0,001
-260,438	800,000	-0,017	0,038
-259,424	800,000	0,033	-0,078
-258,409	-2,660	-0,105	-0,053
-257,395	800,000	0,058	0,176
-256,380	60,232	-0,074	-0,053
-255,365	84,378	-0,082	0,065
-254,351	800,000	-0,040	0,122
-253,336	57,327	0,066	-0,046
-252,322	800,000	0,028	-0,062
-251,307	42,287	0,109	0,072
-250,292	486,060	-0,033	-0,054
-249,278	-200,000	-0,021	-0,090
-248,263	89,150	-0,117	0,094
-247,249	157,226	-0,075	-0,075
-246,234	233,598	0,067	-0,080
-245,219	53,593	-0,016	0,011
-244,205	800,000	0,017	-0,045
-243,190	-200,000	-0,012	-0,090
-242,176	-47,661	0,088	0,031
-241,161	-102,787	0,123	0,021
-240,146	-200,000	-0,003	0,041
-239,132	-138,597	-0,149	-0,012
-238,117	153,453	0,081	-0,080
-237,103	-29,830	-0,136	0,056
-236,088	627,022	-0,066	0,122
-235,073	-200,000	0,029	-0,101
-234,059	16,987	0,044	0,025
-233,044	800,000	-0,068	0,195
-232,030	153,545	-0,135	-0,134
-231,015	-200,000	0,054	-0,174
-230,000	-24,239	-0,082	0,035
-228,986	465,436	0,041	-0,066
-227,971	-200,000	-0,017	0,175
-226,957	-200,000	-0,005	0,071
-225,942	800,000	0,035	0,070
-224,927	-200,000	-0,018	0,066
-223,913	222,089	0,069	-0,080
-222,898	63,648	-0,071	-0,051
-221,884	342,764	0,103	-0,146
-220,869	-27,249	0,058	-0,024
-219,855	199,949	-0,063	0,070
-218,840	115,821	0,031	-0,027
-217,825	-200,000	-0,008	0,055
-216,811	-200,000	-0,001	-0,020
-215,796	-4,024	0,137	-0,068
-214,782	-200,000	0,005	-0,106
-213,767	-200,000	-0,004	-0,131
-212,752	108,031	0,173	0,149
-211,738	326,191	0,084	-0,117
-210,723	-200,000	0,014	-0,082
-209,709	39,689	-0,071	-0,046
-208,694	63,232	-0,091	-0,065
-207,679	240,849	0,052	-0,062
-206,665	-200,000	0,009	0,086
-205,650	-25,052	-0,042	-0,018
-204,636	800,000	-0,035	-0,074
-203,621	-166,964	0,150	0,004
-202,606	279,848	-0,085	0,110
-201,592	-23,117	-0,149	0,064
-200,577	-200,000	-0,035	-0,135
-199,563	541,968	-0,038	-0,066
-198,548	660,671	0,036	-0,067
-197,533	-126,431	0,078	-0,008
-196,519	116,895	0,069	0,061
-195,504	180,876	-0,030	-0,032
-194,490	376,066	0,044	-0,064
-193,475	774,142	-0,020	-0,040
-192,460	18,387	-0,043	0,025
-191,446	-89,137	0,140	0,030
-190,431	-12,208	0,075	-0,036
-189,417	-200,000	-0,016	-0,056
-188,402	800,000	-0,046	-0,114
-187,387	-6,032	-0,045	-0,022
-186,373	-48,835	-0,108	-0,037
-185,358	-122,753	-0,036	0,004
-184,344	-77,395	0,162	-0,040
-183,329	84,098	-0,085	0,067
-182,315	-200,000	-0,008	-0,026
-181,300	241,657	0,062	0,074
-180,285	-200,000	-0,017	-0,073
-179,271	715,262	-0,022	-0,043
-178,256	20,663	0,011	-0,006
-177,242	117,125	0,089	-0,079
-176,227	77,924	-0,091	-0,070
-175,212	64,604	0,100	0,073
-174,198	-14,664	-0,143	-0,066
-173,183	380,783	0,084	-0,125
-172,169	-144,153	0,013	-0,001
-171,154	228,218	-0,022	-0,025
-170,139	49,673	0,091	0,062
-169,125	-200,000	0,008	0,136
-168,110	-0,037	0,053	-0,027
-167,096	800,000	-0,069	0,180
-166,081	-40,297	-0,127	0,047
-165,066	-200,000	-0,018	0,071
-164,052	-200,000	0,014	0,069
-163,037	-200,000	-0,035	-0,129
-162,023	310,806	0,076	0,103
-161,008	-200,000	0,003	0,067
-159,993	-200,000	0,020	0,120
-158,979	68,935	-0,019	-0,014
-157,964	-200,000	-0,008	-0,061
-156,950	-200,000	-0,032	-0,109
-155,935	362,750	0,046	0,067
-154,920	-64,400	-0,147	-0,043
-153,906	800,000	-0,031	-0,066
-152,891	-129,201	-0,117	-0,012
-151,877	77,381	-0,167	-0,128
-150,862	40,508	0,054	-0,035
-149,847	-200,000	0,001	0,052
-148,833	589,978	-0,034	-0,060
-147,818	-106,653	-0,103	-0,016
-146,804	800,000	0,043	0,117
-145,789	484,826	0,053	-0,087
-144,775	161,151	-0,019	-0,019
-143,760	800,000	0,062	-0,147
-142,745	110,863	-0,073	-0,063
-141,731	173,867	-0,034	-0,035
-140,716	21,972	0,110	0,064
-139,702	73,839	0,099	0,075
-138,687	-30,197	0,006	0,003
-137,672	606,915	0,078	-0,140
-136,658	688,097	-0,063	0,120
-135,643	702,942	-0,047	0,090
-134,629	800,000	-0,048	0,111
-133,614	-57,305	0,140	0,044
-132,599	373,731	0,070	0,103
-131,585	60,315	-0,089	-0,063
-130,570	-73,245	-0,096	-0,025
-129,556	800,000	-0,044	-0,093
-128,541	-200,000	-0,004	-0,014
-127,526	60,030	0,058	-0,041
-126,512	-200,000	0,025	0,083
-125,497	377,149	-0,070	-0,103
-124,483	-64,007	0,028	-0,008
-123,468	-135,666	-0,147	-0,012
-122,453	20,221	0,094	-0,055
-121,439	375,985	-0,022	-0,033
-120,424	-200,000	0,015	-0,127
-119,410	800,000	-0,025	-0,071
-118,395	-74,306	-0,070	0,018
-117,380	28,711	-0,038	0,023
-116,366	-22,011	0,129	0,056
-115,351	800,000	-0,036	-0,103
-114,337	104,352	-0,034	-0,029
-113,322	800,000	-0,042	-0,087
-112,307	101,333	-0,031	-0,026
-111,293	263,678	0,012	0,014
-110,278	112,673	0,031	0,027
-109,264	208,006	-0,025	-0,028
-108,249	98,199	0,008	-0,006
-107,234	-27,857	-0,081	-0,034
-106,220	-200,000	-0,035	0,114
-105,205	-104,741	-0,090	-0,015
-104,191	-200,000	-0,013	-0,083
-103,176	-200,000	0,001	0,076
-102,162	-200,000	-0,028	0,120
-101,147	-200,000	0,009	-0,115
-100,132	800,000	-0,084	-0,183
-99,118	262,010	0,102	-0,128
-98,103	373,701	-0,058	-0,085
-97,089	-6,390	-0,060	0,030
-96,074	33,225	-0,085	0,053
-95,059	-200,000	0,009	0,053
-94,045	-200,000	-0,006	-0,051
-93,030	1,199	-0,068	0,035
-92,016	154,114	0,008	-0,008
-91,001	-40,142	0,052	-0,019
-89,986	63,519	0,047	0,034
-88,972	119,425	-0,031	0,028
-87,957	202,336	0,120	-0,133
-86,943	-26,424	0,061	-0,025
-85,928	17,285	-0,076	0,043
-84,913	-200,000	-0,017	-0,069
-83,899	-118,011	0,077	-0,010
-82,884	-4,130	-0,116	-0,058
-81,870	32,964	-0,083	0,052
-80,855	171,049	0,055	-0,056
-79,840	-4,408	-0,163	0,081
-78,826	-126,580	-0,138	-0,015
-77,811	800,000	-0,042	-0,089
-76,797	-199,515	0,125	0,000
-75,782	130,452	-0,092	0,084
-74,767	-200,000	0,034	-0,136
-73,753	321,116	-0,068	0,092
-72,738	-200,000	0,043	-0,140
-71,724	22,967	-0,147	0,086
-70,709	800,000	-0,015	0,039
-69,694	357,503	0,041	0,058
-68,680	-200,000	-0,009	0,071
-67,665	-200,000	0,004	0,015
-66,651	-47,391	0,072	0,025
-65,636	-60,966	0,061	0,018
-64,622	-200,000	-0,117	-0,000
-63,607	-131,933	-0,052	-0,005
-62,592	-200,000	0,011	-0,057
-61,578	22,443	0,149	-0,087
-60,563	-44,372	-0,064	0,023
-59,549	800,000	-0,063	0,149
-58,534	106,328	-2,605	-2,216
-57,519	103,504	0,385	-0,324
-56,505	-200,000	-1,658	-5,461
-55,490	495,205	1,183	1,958
-54,476	800,000	5,192	11,151
-53,461	-200,000	22,116	347,038
-52,446	800,000	759,739	2298,120
-51,432	515,257	1645,980	2769,452
-50,417	98,231	1609,890	1330,368
-49,403	66,099	1267,177	921,944
-48,388	23,257	1018,145	598,817
-47,373	19,316	985,186	566,409
-46,359	12,982	971,998	538,086
-45,344	8,738	968,746	522,359
-44,330	9,173	966,799	522,714
-43,315	8,143	965,052	518,381
-42,300	8,100	964,075	517,696
-41,286	8,119	962,804	517,054
-40,271	8,059	961,950	516,382
-39,257	8,070	960,974	515,870
-38,242	8,062	960,272	515,447
-37,227	8,033	959,477	514,905
-36,213	8,100	958,448	514,552
-35,198	8,075	957,801	514,103
-34,184	8,073	956,993	513,641
-33,169	8,089	955,885	513,080
-32,154	8,097	955,041	512,631
-31,140	8,107	954,264	512,225
-30,125	8,173	953,436	511,975
-29,111	8,057	952,652	511,158
-28,096	8,103	952,055	510,965
-27,082	8,132	951,204	510,582
-26,067	8,068	950,639	510,054
-25,052	8,055	949,928	509,610
-24,038	8,100	949,127	509,304
-23,023	8,024	948,454	508,678
-22,009	7,995	947,806	508,220
-20,994	8,034	947,235	508,018
-19,979	8,082	946,652	507,837
-18,965	8,022	945,954	507,253
-17,950	8,054	945,431	507,053
-16,936	8,051	944,732	506,649
-15,921	7,988	944,006	506,037
-14,906	8,003	943,342	505,711
-13,892	8,000	942,827	505,403
-12,877	7,991	942,046	504,937
-11,863	7,888	941,470	504,280
-10,848	7,914	941,128	504,160
-9,833	8,019	940,511	504,143
-8,819	7,998	939,816	503,682
-7,804	7,936	939,153	503,110
-6,790	7,948	938,515	502,787
-5,775	8,077	937,904	502,850
-4,760	7,976	937,562	502,324
-3,746	7,942	936,823	501,802
-2,731	7,864	936,175	501,188
-1,717	7,771	935,592	500,560
-0,702	7,791	935,015	500,295
0,313	7,723	934,017	500,303
1,327	11,071	931,830	509,645
2,342	19,702	780,050	449,258
3,356	14,735	448,126	250,589
4,371	-11,724	312,745	146,722
5,386	-15,386	295,290	134,814
6,400	-17,279	289,030	130,067
7,415	-17,581	286,644	128,684
8,429	-18,255	284,637	127,114
9,444	-18,346	283,840	126,658
10,459	-18,250	283,206	126,457
11,473	-18,259	282,565	126,151
12,488	-18,237	282,196	125,997
13,502	-18,125	281,503	125,784
14,517	-18,084	281,082	125,624
15,531	-18,190	280,701	125,341
16,546	-18,204	280,260	125,119
17,561	-18,113	280,003	125,081
18,575	-18,111	279,554	124,871
19,590	-18,225	279,165	124,576
20,604	-18,212	278,970	124,491
21,619	-17,991	278,412	124,442
22,634	-18,062	278,130	124,237
23,648	-18,128	277,771	124,003
24,663	-18,183	277,703	123,909
25,677	-18,198	277,385	123,742
26,692	-18,028	277,028	123,733
27,707	-18,035	276,794	123,610
28,721	-18,303	276,541	123,233
29,736	-18,032	276,209	123,330
30,750	-18,163	275,938	123,074
31,765	-18,115	275,597	122,957
32,780	-18,199	275,603	122,870
33,794	-18,216	275,288	122,702
34,809	-18,130	275,015	122,650
35,823	-18,028	274,699	122,595
36,838	-18,039	274,417	122,447
37,853	-18,201	274,280	122,222
38,867	-17,955	273,976	122,307
39,882	-18,049	273,726	122,097
40,896	-18,144	273,490	121,892
41,911	-18,140	273,320	121,809
42,926	-18,204	272,960	121,578
43,940	-17,888	272,636	121,717
44,955	-18,101	272,498	121,446
45,969	-18,057	272,402	121,433
46,984	-18,008	272,131	121,347
47,999	-17,884	271,865	121,333
49,013	-17,925	271,750	121,233
50,028	-17,891	271,537	121,159
51,042	-18,104	271,291	120,840
52,057	-17,934	270,895	120,811
53,071	-17,957	270,775	120,725
54,086	-17,929	270,478	120,608
55,101	-17,746	270,144	120,618
56,115	-18,004	270,016	120,312
57,130	-18,022	269,833	120,202
58,144	-18,056	269,445	119,988
59,159	-18,167	269,357	119,836
60,174	-17,969	269,095	119,890
61,188	-18,134	268,734	119,568
62,203	-18,180	268,736	119,515
63,217	-18,125	268,490	119,446
64,232	-17,970	268,255	119,472
65,247	-18,116	268,122	119,269
66,261	-18,187	267,773	119,039
67,276	-18,248	267,710	118,944
68,290	-17,963	267,308	119,015
69,305	-18,134	267,175	118,789
70,320	-18,099	266,889	118,683
71,334	-18,200	266,688	118,491
72,349	-17,880	266,247	118,575
73,363	-17,924	265,949	118,392
74,378	-18,151	265,887	118,148
75,393	-18,083	265,671	118,103
76,407	-17,986	265,426	118,071
77,422	-17,953	265,176	117,980
78,436	-18,100	264,985	117,751
79,451	-18,098	264,759	117,642
80,466	-18,081	264,470	117,519
81,480	-17,950	264,315	117,557
82,495	-17,948	264,197	117,497
83,509	-17,900	263,998	117,440
84,524	-17,990	263,613	117,177
85,539	-17,893	263,606	117,251
86,553	-17,954	263,209	117,010
87,568	-18,100	263,083	116,812
88,582	-17,949	262,722	116,777
89,597	-18,035	262,668	116,666
90,611	-18,010	262,450	116,581
91,626	-18,015	262,308	116,503
92,641	-17,861	262,080	116,529
93,655	-17,865	261,844	116,409
94,670	-17,766	261,516	116,342
95,684	-18,153	261,456	115,960
96,699	-18,131	261,372	115,932
97,714	-17,967	261,121	115,956
98,728	-17,993	260,814	115,786
99,743	-17,989	260,452	115,619
100,757	-17,914	260,380	115,643
101,772	-17,895	260,196	115,568
102,787	-17,908	259,825	115,381
103,801	-18,039	259,907	115,291
104,816	-18,020	259,660	115,188
105,830	-17,956	259,419	115,127
106,845	-18,008	259,113	114,936
107,860	-18,239	259,029	114,685
108,874	-17,896	258,730	114,844
109,889	-17,988	258,459	114,633
110,903	-18,095	258,309	114,462
111,918	-17,972	258,099	114,466
112,933	-17,961	257,779	114,324
113,947	-17,870	257,628	114,327
114,962	-17,856	257,482	114,264
115,976	-18,015	257,383	114,071
116,991	-17,720	257,128	114,205
118,006	-18,023	256,920	113,838
119,020	-17,833	256,832	113,954
120,035	-17,898	256,569	113,771
121,049	-17,856	256,296	113,677
122,064	-17,899	256,210	113,591
123,079	-17,949	255,881	113,391
124,093	-17,998	255,748	113,280
125,108	-18,075	255,609	113,141
126,122	-17,907	255,513	113,234
127,137	-18,071	255,205	112,946
128,151	-17,861	255,154	113,095
129,166	-17,852	254,778	112,927
130,181	-17,724	254,657	112,973
131,195	-17,888	254,404	112,709
132,210	-18,138	254,393	112,479
133,224	-17,894	254,060	112,531
134,239	-17,892	253,915	112,460
135,254	-17,823	253,522	112,334
136,268	-17,700	253,349	112,354
137,283	-17,798	253,294	112,235
138,297	-17,848	253,031	112,065
139,312	-17,868	252,999	112,025
140,327	-17,866	252,707	111,886
141,341	-17,819	252,508	111,828
142,356	-17,806	252,278	111,727
143,370	-17,948	252,021	111,482
144,385	-17,949	251,818	111,382
145,400	-17,852	251,668	111,388
146,414	-17,777	251,416	111,331
147,429	-17,907	251,290	111,154
148,443	-17,880	251,278	111,162
149,458	-17,949	250,871	110,914
150,473	-17,879	250,707	110,891
151,487	-17,951	250,634	110,787
152,502	-17,991	250,456	110,664
153,516	-17,770	250,110	110,689
154,531	-17,942	249,955	110,465
155,546	-17,858	249,782	110,450
156,560	-17,981	249,670	110,286
157,575	-17,990	249,571	110,226
158,589	-17,991	249,313	110,101
159,604	-17,867	248,954	110,038
160,619	-17,798	248,772	110,005
161,633	-17,749	248,600	109,960
162,648	-17,723	248,609	109,976
163,662	-17,785	248,368	109,808
164,677	-17,737	248,182	109,756
165,692	-17,901	248,115	109,579
166,706	-17,848	247,933	109,533
167,721	-18,045	247,592	109,208
168,735	-17,888	247,511	109,294
169,750	-17,901	247,477	109,259
170,764	-17,814	247,282	109,235
171,779	-17,973	247,125	109,023
172,794	-17,925	246,957	108,979
173,808	-17,874	246,725	108,910
174,823	-17,679	246,663	109,036
175,837	-17,915	246,497	108,755
176,852	-17,854	246,275	108,699
177,867	-17,784	246,065	108,654
178,881	-17,821	245,971	108,572
179,896	-17,707	245,676	108,527
180,910	-18,004	245,680	108,273
181,925	-17,861	245,199	108,170
182,940	-17,944	245,358	108,161
183,954	-17,960	245,040	107,999
184,969	-17,823	244,762	107,979
185,983	-17,754	244,656	107,980
186,998	-17,962	244,535	107,746
188,013	-17,869	244,198	107,664
189,027	-18,002	243,976	107,447
190,042	-17,857	243,936	107,539
191,056	-17,679	243,706	107,574
192,071	-17,987	243,547	107,241
193,086	-18,044	243,434	107,135
194,100	-17,842	243,297	107,231
195,115	-17,917	243,101	107,074
196,129	-17,793	242,779	107,025
197,144	-18,029	242,714	106,792
198,159	-17,846	242,363	106,779
199,173	-17,899	242,285	106,691
200,188	-17,968	242,025	106,511
201,202	-17,679	242,115	106,777
202,217	-17,672	241,860	106,661
203,232	-17,494	241,544	106,657
204,246	-17,695	241,360	106,403
205,261	-17,823	241,137	106,190
206,275	-16,199	241,737	107,769
207,290	-11,186	243,553	112,681
208,304	-5,438	245,365	118,249
209,319	-3,310	245,776	120,192
210,334	-2,657	245,975	120,817
211,348	-1,993	246,186	121,457
212,363	-1,277	246,110	121,999
213,377	-0,663	246,260	122,568
214,392	-0,201	246,285	122,950
215,407	0,295	246,122	123,266
216,421	0,351	246,078	123,279
217,436	0,395	245,877	123,204
218,450	0,529	245,727	123,227
219,465	0,557	245,640	123,196
220,480	0,467	245,373	122,977
221,494	0,521	245,284	122,966
222,509	0,166	245,055	122,550
223,523	0,459	244,655	122,578
224,538	-0,119	244,643	122,089
225,553	-0,027	244,567	122,115
226,567	0,092	244,161	121,999
227,582	0,106	244,040	121,938
228,596	0,019	243,983	121,829
229,611	0,054	243,754	121,731
230,626	0,055	243,514	121,602
231,640	0,155	243,424	121,627
232,655	0,070	243,246	121,459
233,669	0,010	243,147	121,350
234,684	0,060	242,825	121,219
235,699	0,024	242,726	121,129
236,713	0,221	242,579	121,204
237,728	0,197	242,495	121,132
238,742	0,111	242,299	120,954
239,757	-0,091	242,273	120,767
240,772	-0,112	242,118	120,662
241,786	0,305	241,727	120,793
242,801	0,125	241,667	120,607
243,815	-0,097	241,537	120,352
244,830	-0,165	241,336	120,187
245,844	0,087	241,244	120,333
246,859	0,043	241,047	120,188
247,874	0,093	241,033	120,211
248,888	0,154	240,679	120,073
249,903	0,079	240,529	119,927
250,917	-0,072	240,536	119,799
251,932	0,248	240,260	119,907
252,947	0,132	240,204	119,775
253,961	0,053	239,982	119,591
254,976	0,050	239,753	119,463
255,990	-0,048	239,703	119,350
257,005	0,127	239,468	119,362
258,020	0,036	239,301	119,195
259,034	0,139	239,141	119,187
260,049	0,077	239,125	119,120
261,063	0,217	238,803	119,059
262,078	-0,066	238,785	118,814
263,093	0,057	238,411	118,715
264,107	0,244	238,345	118,821
265,122	0,184	238,262	118,721
266,136	0,129	238,112	118,592
267,151	0,155	237,817	118,455
268,166	-0,088	237,793	118,241
269,180	0,019	237,593	118,215
270,195	0,108	237,373	118,166
271,209	-0,011	237,306	118,027
272,224	0,079	237,247	118,058
273,239	-0,033	237,117	117,895
274,253	0,020	236,984	117,860
275,268	0,177	236,776	117,870
276,282	-0,155	236,560	117,490
277,297	0,021	236,424	117,551
278,312	-0,005	236,316	117,466
279,326	0,191	236,105	117,505
280,341	-0,058	236,047	117,271
281,355	0,353	235,842	117,480
282,370	0,165	235,752	117,277
283,384	0,123	235,550	117,134
284,399	0,185	235,401	117,098
285,414	0,122	235,245	116,960
286,428	0,184	235,164	116,958
287,443	0,122	234,895	116,766
288,457	0,129	234,872	116,749
289,472	0,171	234,602	116,637
290,487	-0,017	234,406	116,383
291,501	0,222	234,293	116,502
292,516	0,226	234,170	116,433
293,530	0,361	233,969	116,428
294,545	0,057	233,963	116,179
295,560	0,129	233,734	116,111
296,574	0,170	233,571	116,052
297,589	0,171	233,453	115,983
298,603	0,328	233,181	115,959
299,618	0,320	233,065	115,885
300,633	0,218	232,843	115,685
301,647	0,328	232,791	115,734
302,662	0,390	232,757	115,755
303,676	0,477	232,618	115,742
304,691	0,408	232,334	115,538
305,706	0,338	232,252	115,433
306,720	0,373	232,220	115,433
307,735	0,489	231,940	115,373
308,749	0,445	231,870	115,295
309,764	0,663	231,546	115,290
310,779	0,701	231,453	115,263
311,793	0,306	231,485	114,966
312,808	0,476	231,141	114,915
313,822	0,653	231,192	115,066
314,837	0,503	230,897	114,793
315,852	0,381	230,780	114,632
316,866	0,598	230,620	114,707
317,881	0,526	230,452	114,559
318,895	0,583	230,407	114,570
319,910	0,143	230,249	114,146
320,925	0,468	230,105	114,311
321,939	0,351	229,916	114,118
322,954	0,446	229,710	114,078
323,968	0,533	229,713	114,136
324,983	0,534	229,565	114,053
325,997	0,493	229,325	113,892
327,012	0,298	229,287	113,716
328,027	0,400	229,044	113,662
329,041	0,454	228,904	113,623
330,056	0,584	228,769	113,645
331,070	0,595	228,580	113,549
332,085	0,313	228,494	113,283
333,100	0,428	228,337	113,282
334,114	0,606	228,131	113,304
335,129	0,478	228,024	113,144
336,143	0,569	227,662	113,023
337,158	0,547	227,740	113,035
338,173	0,509	227,664	112,958
339,187	0,547	227,632	112,961
340,202	0,681	227,248	112,861
341,216	0,535	227,151	112,694
342,231	0,471	227,185	112,652
343,246	0,643	226,863	112,611
344,260	0,699	226,704	112,565
345,275	0,353	226,707	112,297
346,289	0,603	226,420	112,331
347,304	0,704	226,381	112,377
348,319	0,613	226,151	112,185
349,333	0,629	226,065	112,145
350,348	0,626	225,818	112,010
351,362	0,532	225,819	111,931
352,377	0,544	225,673	111,857
353,392	0,756	225,512	111,925
354,406	0,721	225,362	111,815
355,421	192,620	1311,656	1378,924
356,435	154,315	1443,850	1378,780
