DTS Sentinel unit serial number:	SN410029Multiplexer serial number:	ORYXHardware model number:	OX2-SRSoftware version number:	ORYX F/W v4,00 Oryx Data Collector v3.7.2.0data status	okinstallation	B5 Nyhavnadifferential loss correction	single-endedforward channel	channel 2reverse channel	N/Adate	2023/12/14time	07:22:13forward acquisition time	300,00reverse acquisition time	0,00gamma	499,1914k internal	0,3159k external	0,3159temperature offset calibration	1,0000default loss term (dB/km)	0,3820temperature slope calibration	1,0000multiplexer offset coefficient	1,0000multiplexer slope coefficient	1,0000fibre end	0,00T internal ref (°C)	7,19T ext. ref 1 (°C)	-9,24T ext. ref 2 (°C)	-9,33length (m)	temperature (°C)	Stokes	anti-Stokes-744,400	-113,742	0,153	0,022
-743,385	-87,729	-0,525	-0,116
-742,371	448,511	0,129	0,210
-741,356	3,034	-0,309	-0,165
-740,342	30,004	0,214	0,134
-739,327	104,277	-0,279	-0,241
-738,312	3,056	0,168	0,090
-737,298	-88,016	-0,450	-0,099
-736,283	-83,287	0,148	0,035
-735,269	-75,264	-0,491	-0,128
-734,254	-170,782	0,301	-0,007
-733,239	-75,698	-0,636	-0,165
-732,225	259,260	0,156	0,198
-731,210	-153,455	0,068	0,003
-730,196	3,004	-0,114	-0,061
-729,181	103,185	-0,116	-0,100
-728,167	-100,456	-0,058	-0,010
-727,152	-88,039	0,074	0,016
-726,137	-122,918	-0,169	0,020
-725,123	-51,573	-0,166	0,057
-724,108	-200,000	0,022	-0,154
-723,094	32,150	-0,215	-0,137
-722,079	-200,000	-0,009	-0,077
-721,064	-140,075	-0,073	0,006
-720,050	2,312	0,055	-0,029
-719,035	196,755	0,027	-0,030
-718,021	-139,732	-0,154	-0,012
-717,006	-49,718	-0,184	-0,064
-715,991	222,116	-0,057	-0,068
-714,977	-200,000	0,016	-0,104
-713,962	-200,000	0,009	0,057
-712,948	434,218	0,068	-0,109
-711,933	-200,000	0,001	-0,061
-710,918	484,321	0,050	0,085
-709,904	377,445	-0,089	-0,134
-708,889	-200,000	0,001	-0,129
-707,875	800,000	-0,037	0,093
-706,860	172,067	0,076	0,081
-705,845	-200,000	0,021	0,097
-704,831	193,449	-0,045	0,050
-703,816	122,051	-0,110	-0,101
-702,802	-15,143	-0,114	-0,054
-701,787	150,771	0,029	0,029
-700,772	-155,368	0,137	-0,006
-699,758	800,000	-0,011	0,031
-698,743	-166,333	0,084	0,003
-697,729	117,531	0,098	0,088
-696,714	-200,000	-0,003	0,047
-695,699	591,895	-0,033	-0,060
-694,685	47,573	-0,040	-0,028
-693,670	-49,498	-0,102	-0,035
-692,656	-102,362	0,226	0,039
-691,641	-200,000	-0,058	0,195
-690,627	-200,000	0,005	0,191
-689,612	-119,604	-0,096	0,012
-688,597	545,457	0,079	-0,139
-687,583	203,894	-0,048	0,055
-686,568	-26,089	-0,096	0,041
-685,554	-108,929	-0,122	-0,019
-684,539	91,952	-0,095	-0,078
-683,524	-173,497	0,154	0,003
-682,510	-21,242	0,131	-0,058
-681,495	-200,000	-0,001	0,018
-680,481	687,746	-0,021	-0,041
-679,466	800,000	0,020	-0,050
-678,451	-48,920	0,114	0,040
-677,437	564,640	-0,002	0,004
-676,422	-58,070	0,073	-0,023
-675,408	200,466	-0,073	-0,083
-674,393	-81,324	0,059	0,014
-673,378	-200,000	-0,009	-0,128
-672,364	87,962	-0,065	-0,053
-671,349	471,701	0,038	0,064
-670,335	-56,637	0,087	-0,028
-669,320	800,000	-0,014	0,036
-668,305	-200,000	0,001	-0,014
-667,291	112,620	0,141	-0,126
-666,276	-131,656	-0,122	0,012
-665,262	-142,524	0,044	0,003
-664,247	-38,851	-0,078	0,030
-663,232	-200,000	0,019	-0,085
-662,218	746,194	0,032	-0,063
-661,203	-200,000	-0,003	0,046
-660,189	154,219	-0,070	0,070
-659,174	-200,000	-0,013	-0,094
-658,159	-200,000	0,020	-0,085
-657,145	479,723	-0,024	-0,041
-656,130	-169,373	0,190	0,005
-655,116	43,731	-0,071	-0,048
-654,101	129,715	0,068	0,064
-653,086	-200,000	0,003	0,060
-652,072	62,577	0,126	-0,092
-651,057	-200,000	0,009	-0,114
-650,043	-13,135	-0,072	0,034
-649,028	-200,000	-0,001	-0,045
-648,014	-46,524	-0,053	-0,019
-646,999	800,000	0,025	-0,069
-645,984	-200,000	-0,000	0,156
-644,970	800,000	0,033	0,074
-643,955	-146,407	-0,181	0,011
-642,941	141,557	0,062	-0,060
-641,926	129,266	-0,086	-0,080
-640,911	-177,031	0,156	-0,003
-639,897	198,979	-0,075	0,085
-638,882	223,189	-0,018	0,022
-637,868	-200,000	0,036	-0,140
-636,853	667,071	0,036	-0,069
-635,838	-95,964	-0,035	0,007
-634,824	47,932	-0,116	-0,080
-633,809	-200,000	0,013	0,110
-632,795	-54,865	-0,010	-0,003
-631,780	369,472	-0,031	0,046
-630,765	-86,833	-0,040	0,009
-629,751	-76,671	-0,042	0,011
-628,736	-200,000	0,020	-0,104
-627,722	-200,000	-0,017	0,058
-626,707	329,630	-0,052	-0,074
-625,692	429,001	0,012	-0,019
-624,678	635,286	-0,044	0,083
-623,663	-200,000	-0,061	0,221
-622,649	384,453	0,050	-0,076
-621,634	-53,670	-0,052	0,017
-620,619	197,798	-0,066	-0,074
-619,605	-200,000	0,042	-0,135
-618,590	-43,023	0,054	-0,020
-617,576	74,859	0,037	0,028
-616,561	800,000	-0,027	0,081
-615,546	-200,000	-0,017	-0,063
-614,532	-42,924	-0,139	-0,052
-613,517	-200,000	-0,049	-0,204
-612,503	-80,980	0,036	0,009
-611,488	-44,823	-0,124	0,045
-610,474	87,456	-0,073	0,059
-609,459	-200,000	-0,002	0,042
-608,444	-200,000	0,020	-0,066
-607,430	-200,000	-0,019	0,085
-606,415	800,000	0,043	0,135
-605,401	-41,704	-0,131	0,049
-604,386	529,359	0,074	0,129
-603,371	800,000	0,003	0,007
-602,357	800,000	-0,029	0,083
-601,342	195,816	-0,060	0,067
-600,328	-171,646	-0,050	0,001
-599,313	-112,927	-0,067	0,010
-598,298	-59,349	0,030	0,009
-597,284	-10,366	0,098	0,048
-596,269	62,909	0,034	-0,025
-595,255	-200,000	-0,030	0,101
-594,240	-99,187	0,057	-0,010
-593,225	800,000	0,034	0,074
-592,211	289,762	-0,094	-0,125
-591,196	38,507	-0,081	0,053
-590,182	148,414	0,071	-0,071
-589,167	-185,627	0,115	-0,001
-588,152	263,667	-0,111	0,142
-587,138	-104,800	-0,099	0,016
-586,123	800,000	-0,039	-0,106
-585,109	49,298	0,115	-0,079
-584,094	34,902	0,057	-0,036
-583,079	145,895	0,102	0,100
-582,065	149,560	0,012	0,012
-581,050	309,235	-0,076	-0,105
-580,036	-200,000	-0,006	0,154
-579,021	-3,299	0,044	-0,022
-578,006	-13,048	-0,175	-0,083
-576,992	-101,305	0,147	-0,026
-575,977	138,591	-0,009	-0,009
-574,963	3,427	-0,054	-0,029
-573,948	-200,000	0,010	0,211
-572,934	-34,421	0,082	0,033
-571,919	46,449	-0,059	0,040
-570,904	-23,320	0,164	-0,072
-569,890	800,000	0,020	0,045
-568,875	-200,000	0,003	-0,073
-567,861	800,000	-0,021	0,063
-566,846	-13,597	-0,060	0,028
-565,831	-135,153	-0,066	-0,006
-564,817	-200,000	0,019	-0,158
-563,802	-200,000	0,030	-0,141
-562,788	-30,660	-0,121	-0,050
-561,773	10,423	-0,059	0,033
-560,758	-128,976	0,087	0,009
-559,744	-200,000	0,006	-0,148
-558,729	182,945	0,075	-0,081
-557,715	-32,692	-0,182	-0,074
-556,700	167,135	-0,116	-0,121
-555,685	158,117	-0,184	-0,187
-554,671	-39,427	0,087	-0,033
-553,656	263,339	-0,108	0,137
-552,642	-200,000	0,002	0,167
-551,627	-35,497	-0,148	-0,059
-550,612	6,267	-0,029	-0,016
-549,598	-200,000	-0,020	-0,166
-548,583	-200,000	-0,025	-0,144
-547,569	800,000	-0,062	-0,128
-546,554	-200,000	0,011	-0,080
-545,539	-43,486	0,065	0,024
-544,525	-106,606	-0,029	0,005
-543,510	-101,613	0,094	0,017
-542,496	-200,000	0,034	0,111
-541,481	-83,204	-0,167	0,039
-540,466	9,046	0,068	-0,038
-539,452	211,567	-0,020	-0,023
-538,437	-200,000	-0,004	0,102
-537,423	-200,000	-0,022	0,124
-536,408	735,388	0,039	-0,076
-535,393	105,790	-0,048	-0,041
-534,379	-200,000	0,013	-0,108
-533,364	-66,844	-0,049	0,014
-532,350	-46,970	0,159	-0,057
-531,335	599,057	0,026	-0,048
-530,321	116,393	0,118	0,105
-529,306	-12,919	-0,044	-0,021
-528,291	800,000	0,041	-0,092
-527,277	-199,374	-0,086	0,000
-526,262	83,039	-0,038	-0,030
-525,248	289,426	0,007	-0,010
-524,233	-41,232	0,082	0,031
-523,218	800,000	0,016	-0,046
-522,204	85,789	-0,036	0,029
-521,189	32,162	0,096	-0,060
-520,175	800,000	0,033	-0,078
-519,160	398,383	0,057	-0,088
-518,145	-200,000	-0,075	-0,251
-517,131	-200,000	-0,003	-0,068
-516,116	30,574	0,082	0,051
-515,102	638,062	0,020	0,037
-514,087	-200,000	0,005	-0,058
-513,072	3,257	-0,102	0,054
-512,058	74,822	0,026	-0,020
-511,043	283,976	0,087	0,114
-510,029	76,238	-0,092	0,071
-509,014	15,573	-0,036	0,021
-507,999	-200,000	-0,030	0,135
-506,985	14,682	0,056	0,032
-505,970	-49,240	0,062	-0,022
-504,956	114,556	0,019	-0,017
-503,941	-35,564	0,100	0,039
-502,926	103,303	-0,020	0,017
-501,912	-200,000	-0,001	0,189
-500,897	293,526	-0,060	0,080
-499,883	-42,462	-0,067	0,025
-498,868	-200,000	-0,004	-0,105
-497,853	223,260	0,061	-0,071
-496,839	150,358	0,087	0,086
-495,824	-106,951	-0,054	-0,009
-494,810	175,682	-0,070	0,074
-493,795	-47,759	-0,102	-0,036
-492,781	-200,000	0,000	0,008
-491,766	-200,000	0,010	-0,111
-490,751	-60,001	0,062	-0,019
-489,737	-173,060	-0,066	-0,001
-488,722	-116,028	-0,104	0,014
-487,708	56,626	0,030	0,021
-486,693	800,000	0,084	0,240
-485,678	-43,474	-0,119	0,044
-484,664	800,000	-0,018	0,043
-483,649	10,887	-0,242	-0,134
-482,635	207,021	0,086	-0,098
-481,620	-157,566	0,067	0,003
-480,605	-200,000	0,008	0,091
-479,591	-13,731	-0,123	0,058
-478,576	34,040	0,110	-0,070
-477,562	-175,261	-0,008	-0,000
-476,547	-9,758	-0,145	-0,070
-475,532	487,689	0,063	-0,106
-474,518	154,617	-0,033	0,033
-473,503	-200,000	0,021	0,136
-472,489	102,175	-0,037	0,032
-471,474	-25,622	-0,022	0,009
-470,459	226,035	-0,010	0,012
-469,445	89,657	-0,019	0,016
-468,430	-56,418	0,058	-0,019
-467,416	800,000	-0,050	0,108
-466,401	800,000	0,086	0,191
-465,386	-200,000	0,025	0,085
-464,372	209,710	-0,029	-0,033
-463,357	-8,759	0,025	0,012
-462,343	-200,000	-0,044	-0,153
-461,328	31,287	0,037	-0,023
-460,313	-200,000	0,007	-0,035
-459,299	290,877	-0,050	0,066
-458,284	-200,000	0,022	0,090
-457,270	136,171	0,047	0,044
-456,255	229,024	-0,021	-0,025
-455,241	-2,094	0,106	-0,054
-454,226	-120,211	0,157	0,019
-453,211	332,263	0,028	0,039
-452,197	-200,000	-0,003	0,081
-451,182	-200,000	0,008	0,078
-450,168	617,542	-0,015	-0,027
-449,153	362,273	0,029	0,042
-448,138	253,345	0,079	-0,098
-447,124	800,000	-0,015	-0,033
-446,109	-93,781	0,161	0,032
-445,095	410,755	-0,067	-0,104
-444,080	0,700	0,152	0,079
-443,065	3,099	-0,025	-0,013
-442,051	121,348	0,035	-0,031
-441,036	-18,232	-0,098	0,044
-440,022	800,000	-0,044	-0,138
-439,007	-200,000	0,017	-0,093
-437,992	-200,000	0,041	-0,204
-436,978	36,604	-0,085	0,055
-435,963	-200,000	0,004	0,068
-434,949	800,000	-0,029	0,072
-433,934	424,599	-0,049	-0,077
-432,919	-105,905	-0,046	0,008
-431,905	-122,519	-0,139	0,016
-430,890	-200,000	0,009	0,073
-429,876	-200,000	0,006	-0,031
-428,861	800,000	-0,020	0,064
-427,846	-114,217	-0,124	-0,017
-426,832	-92,039	-0,071	0,015
-425,817	729,752	0,020	-0,039
-424,803	564,458	-0,039	-0,069
-423,788	-124,198	0,029	-0,003
-422,773	-200,000	-0,005	0,018
-421,759	233,491	-0,065	-0,078
-420,744	-200,000	0,001	0,058
-419,730	-200,000	-0,023	-0,180
-418,715	-38,241	-0,027	-0,011
-417,701	165,152	-0,041	0,042
-416,686	438,240	-0,031	-0,049
-415,671	-200,000	-0,023	0,106
-414,657	47,286	-0,021	0,014
-413,642	0,758	0,037	0,019
-412,628	127,244	-0,046	-0,042
-411,613	-104,833	-0,046	-0,008
-410,598	-11,768	0,040	0,019
-409,584	-200,000	0,045	-0,175
-408,569	800,000	0,054	-0,156
-407,555	230,925	0,038	-0,046
-406,540	-151,915	0,044	0,002
-405,525	-138,688	-0,063	0,005
-404,511	-200,000	-0,010	-0,105
-403,496	-200,000	-0,007	-0,132
-402,482	-79,016	0,142	-0,035
-401,467	442,155	0,083	0,132
-400,452	319,429	0,054	0,075
-399,438	-11,201	-0,075	-0,036
-398,423	22,665	-0,066	-0,039
-397,409	57,370	-0,037	-0,026
-396,394	151,067	0,120	-0,119
-395,379	123,650	-0,095	-0,087
-394,365	-54,529	0,114	0,037
-393,350	154,221	0,163	0,163
-392,336	327,615	-0,038	0,053
-391,321	144,966	-0,020	-0,020
-390,306	-200,000	-0,011	0,133
-389,292	13,245	0,003	-0,002
-388,277	759,853	-0,059	0,118
-387,263	800,000	0,024	0,059
-386,248	134,206	0,074	0,069
-385,233	20,195	0,177	0,104
-384,219	67,976	0,036	0,027
-383,204	800,000	0,025	-0,061
-382,190	800,000	0,039	-0,100
-381,175	-90,572	-0,107	0,022
-380,160	130,670	-0,048	0,045
-379,146	-35,215	0,074	0,029
-378,131	-37,035	0,031	0,012
-377,117	342,303	-0,032	0,045
-376,102	-200,000	-0,001	0,034
-375,088	-200,000	0,010	-0,085
-374,073	7,838	-0,018	-0,010
-373,058	-62,248	0,075	-0,022
-372,044	-200,000	-0,012	-0,064
-371,029	-130,200	0,174	-0,017
-370,015	800,000	-0,028	0,063
-369,000	-80,394	-0,136	-0,033
-367,985	248,479	-0,053	0,066
-366,971	-159,449	-0,071	0,003
-365,956	283,673	0,031	0,040
-364,942	800,000	-0,017	0,035
-363,927	-86,851	0,162	0,036
-362,912	112,941	-0,083	0,073
-361,898	800,000	-0,005	0,013
-360,883	-200,000	0,014	0,136
-359,869	8,270	0,109	0,060
-358,854	-200,000	0,004	0,032
-357,839	256,800	0,092	-0,115
-356,825	-93,377	-0,043	-0,009
-355,810	1,600	0,118	-0,062
-354,796	-200,000	0,015	0,058
-353,781	-140,228	0,055	-0,004
-352,766	-48,690	-0,080	0,028
-351,752	285,645	0,027	0,036
-350,737	-98,698	0,103	-0,019
-349,723	35,507	0,022	-0,014
-348,708	-65,189	-0,119	0,035
-347,693	57,802	0,105	0,075
-346,679	-142,264	-0,038	-0,003
-345,664	290,371	0,064	-0,085
-344,650	320,305	-0,051	0,070
-343,635	800,000	-0,062	0,152
-342,620	800,000	0,058	-0,154
-341,606	800,000	0,057	0,141
-340,591	-1,639	0,064	0,032
-339,577	63,773	0,056	0,041
-338,562	-145,235	-0,154	-0,010
-337,548	591,536	0,010	-0,019
-336,533	77,075	-0,135	0,104
-335,518	420,448	-0,056	-0,088
-334,504	30,367	-0,045	0,028
-333,489	-200,000	-0,007	-0,194
-332,475	243,835	-0,129	-0,157
-331,460	800,000	0,006	-0,013
-330,445	-200,000	-0,003	-0,056
-329,431	111,137	-0,045	-0,039
-328,416	184,527	-0,024	0,026
-327,402	-200,000	0,011	0,048
-326,387	-110,409	0,127	-0,019
-325,372	202,760	-0,072	-0,081
-324,358	228,785	-0,033	-0,039
-323,343	800,000	0,041	-0,120
-322,329	43,661	-0,122	-0,081
-321,314	-28,967	0,042	0,017
-320,299	258,919	0,076	0,095
-319,285	-92,847	-0,113	-0,023
-318,270	-86,485	-0,131	0,029
-317,256	-16,937	-0,137	0,063
-316,241	-200,000	-0,004	-0,035
-315,226	-48,020	-0,028	0,010
-314,212	117,088	0,189	0,168
-313,197	28,093	0,094	-0,057
-312,183	212,217	-0,101	-0,116
-311,168	50,219	-0,094	0,064
-310,153	800,000	-0,022	-0,051
-309,139	-200,000	0,000	-0,055
-308,124	374,567	0,061	0,090
-307,110	-200,000	0,018	0,103
-306,095	358,968	0,045	-0,066
-305,080	800,000	0,021	-0,044
-304,066	-15,024	-0,010	-0,005
-303,051	253,440	-0,064	-0,080
-302,037	119,680	0,019	0,017
-301,022	-99,877	-0,032	0,006
-300,008	-28,747	0,229	-0,095
-298,993	-159,581	-0,020	-0,001
-297,978	-81,954	0,080	-0,019
-296,964	-200,000	-0,038	-0,142
-295,949	169,698	0,034	0,035
-294,935	-39,179	-0,062	-0,024
-293,920	-200,000	-0,005	-0,117
-292,905	16,253	-0,033	-0,019
-291,891	324,346	0,093	0,129
-290,876	213,864	-0,041	0,047
-289,862	-129,978	-0,132	0,013
-288,847	393,451	-0,075	0,113
-287,832	340,853	-0,006	0,009
-286,818	-77,905	0,080	-0,020
-285,803	34,517	0,118	0,074
-284,789	55,644	0,058	-0,041
-283,774	-122,327	-0,063	0,007
-282,759	206,324	0,083	-0,093
-281,745	-65,472	-0,073	-0,021
-280,730	-54,392	-0,069	-0,023
-279,716	800,000	-0,018	-0,038
-278,701	80,144	-0,078	-0,061
-277,686	344,876	-0,043	-0,062
-276,672	800,000	-0,028	0,084
-275,657	-200,000	0,033	0,259
-274,643	-200,000	-0,015	0,062
-273,628	-200,000	0,004	-0,070
-272,613	-200,000	0,003	0,032
-271,599	-200,000	-0,002	0,080
-270,584	800,000	0,018	-0,052
-269,570	-168,997	0,175	0,005
-268,555	385,728	0,023	-0,035
-267,540	800,000	0,048	-0,124
-266,526	769,302	-0,043	-0,085
-265,511	800,000	0,077	-0,162
-264,497	800,000	0,053	0,168
-263,482	355,966	0,033	0,048
-262,467	-4,654	0,085	0,042
-261,453	-200,000	0,015	0,145
-260,438	-200,000	0,013	0,103
-259,424	175,805	0,089	-0,093
-258,409	-200,000	-0,002	0,068
-257,395	318,248	0,099	0,135
-256,380	-200,000	0,001	-0,042
-255,365	231,147	0,014	0,017
-254,351	-9,457	0,095	0,046
-253,336	490,086	0,046	-0,076
-252,322	14,673	-0,032	-0,018
-251,307	271,130	-0,082	0,104
-250,292	161,985	-0,020	-0,020
-249,278	-200,000	-0,025	0,101
-248,263	694,392	-0,019	0,036
-247,249	-75,320	0,064	0,016
-246,234	-116,281	-0,048	-0,006
-245,219	-160,625	0,146	-0,006
-244,205	-200,000	0,014	-0,139
-243,190	-200,000	-0,029	0,152
-242,176	-106,019	-0,020	-0,003
-241,161	-14,335	0,092	-0,043
-240,146	484,791	-0,004	-0,006
-239,132	-88,329	-0,019	0,004
-238,117	-200,000	0,017	0,142
-237,103	129,878	-0,112	-0,103
-236,088	51,106	0,107	-0,073
-235,073	74,364	0,066	-0,050
-234,059	76,220	0,089	-0,068
-233,044	230,014	-0,083	-0,098
-232,030	36,510	-0,063	-0,040
-231,015	-29,442	0,062	-0,026
-230,000	-45,351	-0,124	0,044
-228,986	-15,189	-0,097	-0,045
-227,971	-94,374	0,141	-0,027
-226,957	800,000	0,030	0,087
-225,942	361,599	0,092	0,133
-224,927	-185,888	-0,042	-0,000
-223,913	192,740	-0,062	-0,067
-222,898	-141,233	-0,143	0,010
-221,884	778,395	-0,009	0,018
-220,869	-106,156	0,049	0,008
-219,855	318,771	-0,026	0,036
-218,840	776,902	0,027	0,054
-217,825	800,000	0,037	-0,113
-216,811	92,597	0,050	-0,041
-215,796	-0,145	-0,116	-0,059
-214,782	57,469	0,049	0,035
-213,767	-200,000	0,014	0,078
-212,752	697,081	0,045	0,086
-211,738	200,573	0,040	-0,045
-210,723	-200,000	-0,003	-0,110
-209,709	-200,000	-0,006	-0,071
-208,694	239,907	-0,073	-0,088
-207,679	800,000	-0,062	-0,126
-206,665	-51,618	0,081	0,027
-205,650	206,824	-0,042	0,048
-204,636	-93,598	0,172	0,034
-203,621	-98,298	0,163	0,030
-202,606	77,191	-0,096	0,074
-201,592	369,832	0,077	-0,113
-200,577	104,654	0,089	0,076
-199,563	-200,000	0,014	0,090
-198,548	-154,550	0,037	-0,002
-197,533	-83,926	-0,118	-0,027
-196,519	-200,000	0,010	0,048
-195,504	35,850	-0,073	-0,046
-194,490	800,000	-0,018	-0,037
-193,475	414,583	0,017	-0,026
-192,460	367,445	0,043	-0,063
-191,446	440,830	0,094	0,149
-190,431	397,178	0,060	0,091
-189,417	-172,381	-0,132	0,003
-188,402	800,000	0,040	-0,100
-187,387	-45,819	-0,046	0,016
-186,373	-22,187	-0,032	-0,014
-185,358	-200,000	0,006	0,088
-184,344	387,489	0,016	0,025
-183,329	-200,000	0,032	0,121
-182,315	-79,241	0,098	0,024
-181,300	-65,400	-0,119	-0,034
-180,285	-200,000	-0,007	-0,052
-179,271	-200,000	-0,026	-0,178
-178,256	-69,132	-0,111	-0,031
-177,242	33,971	0,115	-0,072
-176,227	-47,936	0,083	0,029
-175,212	-200,000	-0,004	0,116
-174,198	-63,557	-0,098	-0,029
-173,183	366,827	0,051	0,074
-172,169	-123,608	0,083	0,009
-171,154	-200,000	-0,010	-0,061
-170,139	130,026	-0,044	0,040
-169,125	800,000	0,054	0,164
-168,110	-200,000	0,002	0,045
-167,096	800,000	0,037	0,091
-166,081	70,477	-0,186	0,138
-165,066	88,686	-0,047	-0,038
-164,052	314,730	0,042	0,057
-163,037	57,916	0,083	-0,058
-162,023	-195,347	-0,020	0,000
-161,008	121,345	0,109	-0,098
-159,993	283,492	-0,042	-0,054
-158,979	-181,786	-0,181	0,002
-157,964	-200,000	0,007	0,031
-156,950	800,000	0,060	-0,135
-155,935	-123,664	0,167	0,019
-154,920	112,719	-0,038	-0,034
-153,906	264,027	0,074	0,092
-152,891	800,000	0,016	0,034
-151,877	-200,000	-0,001	-0,173
-150,862	2,410	-0,074	-0,039
-149,847	-8,127	-0,069	0,033
-148,833	-10,057	-0,016	-0,008
-147,818	-200,000	-0,005	-0,028
-146,804	-30,083	0,136	0,056
-145,789	573,516	-0,011	0,020
-144,775	203,412	0,008	0,009
-143,760	195,561	-0,035	0,038
-142,745	47,137	0,055	-0,037
-141,731	800,000	0,008	-0,020
-140,716	515,639	0,012	-0,021
-139,702	85,189	-0,018	0,014
-138,687	-200,000	-0,015	0,052
-137,672	-200,000	-0,020	-0,107
-136,658	290,071	-0,054	-0,071
-135,643	-200,000	0,043	-0,166
-134,629	-200,000	-0,002	-0,148
-133,614	762,676	-0,050	0,098
-132,599	727,666	0,016	-0,031
-131,585	23,738	0,202	0,119
-130,570	800,000	0,045	-0,123
-129,556	502,852	-0,062	-0,103
-128,541	529,286	-0,110	-0,188
-127,526	-19,783	-0,035	-0,016
-126,512	-10,584	0,208	-0,099
-125,497	-200,000	-0,023	-0,083
-124,483	-89,958	0,063	0,013
-123,468	-200,000	0,004	0,017
-122,453	-200,000	-0,034	0,118
-121,439	-200,000	-0,013	0,066
-120,424	-200,000	-0,011	-0,037
-119,410	-200,000	0,000	-0,042
-118,395	65,114	0,045	0,032
-117,380	133,263	0,003	0,003
-116,366	239,428	-0,096	-0,115
-115,351	74,362	-0,023	0,017
-114,337	-106,334	-0,118	0,019
-113,322	-146,634	0,063	0,004
-112,307	-92,116	0,086	0,017
-111,293	-200,000	0,047	0,179
-110,278	112,916	0,041	-0,035
-109,264	-200,000	-0,024	-0,078
-108,249	187,896	0,074	-0,080
-107,234	84,177	-0,056	0,044
-106,220	346,140	-0,033	0,047
-105,205	-57,710	-0,160	0,050
-104,191	-200,000	-0,019	0,064
-103,176	-200,000	0,012	0,116
-102,162	-97,919	-0,145	-0,027
-101,147	-81,992	0,049	-0,011
-100,132	800,000	0,109	-0,260
-99,118	407,668	-0,081	-0,124
-98,103	78,854	-0,065	-0,050
-97,089	800,000	0,033	0,074
-96,074	-118,806	0,149	-0,019
-95,059	-170,025	-0,052	0,001
-94,045	6,809	-0,013	-0,007
-93,030	52,576	0,040	-0,027
-92,016	88,093	-0,054	-0,043
-91,001	40,280	0,053	0,034
-89,986	-200,000	0,000	0,147
-88,972	425,846	0,029	-0,046
-87,957	98,790	-0,092	0,076
-86,943	-53,115	-0,193	-0,063
-85,928	70,140	-0,080	-0,059
-84,913	-141,538	-0,107	0,008
-83,899	-7,327	-0,035	0,017
-82,884	-50,697	0,151	0,051
-81,870	-70,444	-0,139	-0,038
-80,855	-200,000	-0,044	0,161
-79,840	-70,886	-0,049	-0,013
-78,826	438,465	0,067	-0,106
-77,811	43,732	-0,056	-0,037
-76,797	175,910	-0,085	-0,088
-75,782	-152,363	0,077	-0,004
-74,767	94,785	0,160	0,131
-73,753	-200,000	-0,000	-0,012
-72,738	-200,000	0,002	-0,064
-71,724	-121,903	-0,105	-0,012
-70,709	-60,340	0,080	0,024
-69,694	280,186	-0,089	-0,114
-68,680	350,070	-0,021	-0,029
-67,665	-59,243	0,106	-0,032
-66,651	462,477	0,084	-0,135
-65,636	5,523	0,040	-0,021
-64,622	107,041	0,080	-0,068
-63,607	-92,337	-0,016	-0,003
-62,592	-17,981	0,148	-0,066
-61,578	-200,000	0,004	-0,050
-60,563	-150,369	0,060	-0,003
-59,549	-153,494	-0,118	-0,006
-58,534	111,947	-2,698	-2,338
-57,519	-98,357	0,455	-0,083
-56,505	800,000	-1,816	-5,500
-55,490	595,282	1,185	2,113
-54,476	800,000	5,131	11,284
-53,461	-200,000	22,961	347,413
-52,446	800,000	764,725	2265,782
-51,432	498,529	1643,809	2726,252
-50,417	93,478	1600,744	1299,078
-49,403	61,343	1256,595	894,713
-48,388	21,375	1008,500	586,399
-47,373	18,464	976,146	558,041
-46,359	11,950	963,071	529,428
-45,344	7,859	960,114	514,499
-44,330	8,204	957,720	514,312
-43,315	7,333	955,955	510,525
-42,300	7,248	954,980	509,707
-41,286	7,181	954,161	509,034
-40,271	7,221	953,097	508,577
-39,257	7,248	952,124	508,122
-38,242	7,227	951,273	507,581
-37,227	7,255	950,335	507,150
-36,213	7,210	949,672	506,631
-35,198	7,137	948,919	505,976
-34,184	7,236	948,074	505,823
-33,169	7,185	947,133	505,136
-32,154	7,324	946,146	505,036
-31,140	7,221	945,574	504,380
-30,125	7,246	944,781	504,018
-29,111	7,306	943,724	503,626
-28,096	7,278	943,237	503,256
-27,082	7,188	942,889	502,764
-26,067	7,221	941,894	502,317
-25,052	7,173	941,239	501,795
-24,038	7,166	940,518	501,368
-23,023	7,130	939,780	500,842
-22,009	7,250	938,966	500,770
-20,994	7,212	938,587	500,427
-19,979	7,189	937,825	499,929
-18,965	7,222	937,209	499,684
-17,950	7,231	936,695	499,418
-16,936	7,168	936,003	498,829
-15,921	7,207	935,257	498,535
-14,906	7,177	934,664	498,107
-13,892	7,126	934,163	497,658
-12,877	7,127	933,391	497,229
-11,863	7,077	932,878	496,779
-10,848	7,105	932,293	496,538
-9,833	7,185	931,914	496,567
-8,819	7,146	931,276	496,085
-7,804	7,088	930,451	495,442
-6,790	7,125	930,049	495,326
-5,775	7,124	929,489	495,005
-4,760	7,186	928,839	494,834
-3,746	7,159	928,241	494,408
-2,731	7,032	927,382	493,536
-1,717	6,987	926,901	493,117
-0,702	6,989	926,114	492,685
0,313	6,822	925,454	492,554
1,327	10,202	923,221	501,885
2,342	18,726	771,815	441,691
3,356	13,616	442,769	245,757
4,371	-12,414	309,303	144,278
5,386	-16,224	292,123	132,438
6,400	-18,217	286,009	127,700
7,415	-18,345	283,415	126,406
8,429	-18,945	281,534	124,977
9,444	-19,117	280,770	124,461
10,459	-19,022	280,183	124,281
11,473	-18,975	279,492	124,009
12,488	-18,756	278,993	123,986
13,502	-18,959	278,528	123,574
14,517	-18,975	278,278	123,437
15,531	-18,888	277,695	123,250
16,546	-18,880	277,340	123,089
17,561	-18,743	277,089	123,097
18,575	-18,563	276,593	123,036
19,590	-18,703	276,294	122,760
20,604	-18,629	275,979	122,679
21,619	-18,730	275,601	122,404
22,634	-18,676	275,328	122,323
23,648	-18,721	274,911	122,085
24,663	-18,775	274,607	121,888
25,677	-18,756	274,510	121,852
26,692	-18,804	274,371	121,735
27,707	-18,873	274,082	121,531
28,721	-18,698	273,829	121,572
29,736	-18,688	273,405	121,382
30,750	-18,679	273,197	121,287
31,765	-18,763	273,006	121,113
32,780	-18,638	272,705	121,086
33,794	-18,820	272,472	120,802
34,809	-18,575	272,184	120,891
35,823	-18,667	271,998	120,712
36,838	-18,704	271,684	120,528
37,853	-18,638	271,475	120,486
38,867	-18,732	271,273	120,298
39,882	-18,639	270,975	120,241
40,896	-18,576	270,765	120,196
41,911	-18,705	270,480	119,939
42,926	-18,576	270,212	119,929
43,940	-18,564	270,052	119,858
44,955	-18,625	269,577	119,580
45,969	-18,838	269,481	119,331
46,984	-18,526	269,356	119,552
47,999	-18,592	269,073	119,355
49,013	-18,511	269,005	119,388
50,028	-18,626	268,744	119,157
51,042	-18,594	268,564	119,096
52,057	-18,380	268,250	119,142
53,071	-18,546	267,942	118,842
54,086	-18,558	267,840	118,776
55,101	-18,454	267,503	118,711
56,115	-18,474	267,177	118,537
57,130	-18,686	267,079	118,289
58,144	-18,850	266,808	118,010
59,159	-18,765	266,577	117,974
60,174	-18,698	266,221	117,867
61,188	-18,818	266,081	117,685
62,203	-18,742	265,856	117,644
63,217	-18,630	265,637	117,639
64,232	-18,522	265,448	117,642
65,247	-18,388	264,969	117,541
66,261	-18,550	264,901	117,354
67,276	-18,665	264,707	117,154
68,290	-18,687	264,524	117,042
69,305	-18,613	264,282	116,992
70,320	-18,371	263,948	117,051
71,334	-18,600	263,871	116,801
72,349	-18,705	263,567	116,561
73,363	-18,718	263,275	116,409
74,378	-18,586	263,159	116,466
75,393	-18,658	262,986	116,315
76,407	-18,588	262,671	116,228
77,422	-18,620	262,347	116,045
78,436	-18,633	262,217	115,966
79,451	-18,482	261,847	115,927
80,466	-18,699	261,632	115,628
81,480	-18,711	261,646	115,613
82,495	-18,706	261,358	115,480
83,509	-18,545	261,026	115,466
84,524	-18,683	260,903	115,279
85,539	-18,629	260,952	115,338
86,553	-18,532	260,576	115,248
87,568	-18,501	260,253	115,122
88,582	-18,523	259,977	114,970
89,597	-18,430	259,892	115,005
90,611	-18,708	259,665	114,649
91,626	-18,541	259,402	114,670
92,641	-18,672	259,434	114,558
93,655	-18,617	258,972	114,392
94,670	-18,522	258,979	114,469
95,684	-18,548	258,722	114,322
96,699	-18,619	258,367	114,092
97,714	-18,607	258,232	114,033
98,728	-18,408	257,981	114,087
99,743	-18,504	257,896	113,955
100,757	-18,494	257,619	113,831
101,772	-18,456	257,572	113,834
102,787	-18,640	257,232	113,512
103,801	-18,631	257,154	113,476
104,816	-18,668	256,844	113,296
105,830	-18,469	256,633	113,367
106,845	-18,562	256,338	113,146
107,860	-18,772	256,233	112,905
108,874	-18,678	255,910	112,835
109,889	-18,666	255,788	112,782
110,903	-18,634	255,607	112,719
111,918	-18,512	255,276	112,669
112,933	-18,543	255,190	112,594
113,947	-18,638	254,987	112,413
114,962	-18,473	254,711	112,424
115,976	-18,591	254,638	112,280
116,991	-18,529	254,292	112,171
118,006	-18,514	254,276	112,166
119,020	-18,564	254,060	112,018
120,035	-18,554	253,918	111,954
121,049	-18,476	253,698	111,914
122,064	-18,408	253,402	111,832
123,079	-18,564	253,234	111,614
124,093	-18,467	253,071	111,616
125,108	-18,492	252,931	111,522
126,122	-18,473	252,748	111,448
127,137	-18,465	252,562	111,363
128,151	-18,530	252,361	111,209
129,166	-18,534	252,309	111,172
130,181	-18,537	251,868	110,966
131,195	-18,584	251,665	110,826
132,210	-18,541	251,458	110,762
133,224	-18,458	251,249	110,731
134,239	-18,441	251,057	110,651
135,254	-18,502	250,872	110,507
136,268	-18,484	250,773	110,469
137,283	-18,319	250,551	110,501
138,297	-18,329	250,338	110,390
139,312	-18,558	250,128	110,093
140,327	-18,454	249,829	110,039
141,341	-18,716	249,679	109,742
142,356	-18,654	249,643	109,769
143,370	-18,597	249,291	109,652
144,385	-18,479	249,103	109,659
145,400	-18,643	248,933	109,437
146,414	-18,857	248,795	109,185
147,429	-18,378	248,373	109,393
148,443	-18,540	248,516	109,310
149,458	-18,570	248,179	109,127
150,473	-18,424	248,012	109,167
151,487	-18,554	247,935	109,014
152,502	-18,557	247,742	108,917
153,516	-18,545	247,417	108,774
154,531	-18,620	247,302	108,651
155,546	-18,277	247,049	108,818
156,560	-18,429	246,792	108,568
157,575	-18,539	246,702	108,426
158,589	-18,489	246,448	108,347
159,604	-18,740	246,418	108,114
160,619	-18,632	246,163	108,083
161,633	-18,490	245,909	108,080
162,648	-18,469	245,645	107,972
163,662	-18,437	245,539	107,942
164,677	-18,453	245,489	107,898
165,692	-18,492	245,313	107,778
166,706	-18,659	245,067	107,521
167,721	-18,408	244,882	107,639
168,735	-18,515	244,757	107,486
169,750	-18,620	244,553	107,300
170,764	-18,492	244,418	107,337
171,779	-18,425	244,318	107,339
172,794	-18,442	244,086	107,213
173,808	-18,540	243,926	107,053
174,823	-18,347	243,909	107,194
175,837	-18,539	243,600	106,891
176,852	-18,502	243,533	106,883
177,867	-18,538	243,179	106,688
178,881	-18,503	243,041	106,647
179,896	-18,372	242,769	106,625
180,910	-18,508	242,625	106,441
181,925	-18,531	242,486	106,352
182,940	-18,477	242,326	106,316
183,954	-18,425	242,312	106,344
184,969	-18,462	241,976	106,156
185,983	-18,606	241,770	105,939
186,998	-18,464	241,747	106,035
188,013	-18,498	241,422	105,856
189,027	-18,573	241,300	105,731
190,042	-18,500	241,017	105,657
191,056	-18,724	240,914	105,421
192,071	-18,527	240,726	105,489
193,086	-18,479	240,519	105,427
194,100	-18,681	240,522	105,256
195,115	-18,405	240,042	105,260
196,129	-18,563	240,026	105,116
197,144	-18,421	239,793	105,119
198,159	-18,646	239,774	104,919
199,173	-18,308	239,373	105,007
200,188	-18,604	239,276	104,717
201,202	-18,668	239,386	104,704
202,217	-18,474	238,945	104,658
203,232	-18,390	238,669	104,596
204,246	-18,491	238,453	104,410
205,261	-18,595	238,409	104,298
206,275	-17,232	238,976	105,634
207,290	-12,625	240,519	110,038
208,304	-6,104	242,527	116,261
209,319	-2,138	243,557	119,982
210,334	-1,096	243,871	120,976
211,348	-0,169	244,034	121,803
212,363	-0,039	243,808	121,785
213,377	0,366	243,781	122,091
214,392	0,544	243,835	122,252
215,407	0,744	243,808	122,390
216,421	0,953	243,579	122,435
217,436	1,109	243,430	122,476
218,450	1,173	243,170	122,386
219,465	1,087	243,145	122,292
220,480	1,173	242,879	122,218
221,494	1,003	242,914	122,086
222,509	0,549	242,562	121,531
223,523	0,565	242,318	121,411
224,538	0,469	242,140	121,233
225,553	0,620	241,791	121,170
226,567	0,426	241,747	120,980
227,582	0,374	241,553	120,831
228,596	0,598	241,376	120,911
229,611	0,656	241,358	120,938
230,626	0,472	241,163	120,681
231,640	0,597	240,850	120,615
232,655	0,284	240,794	120,325
233,669	0,623	240,586	120,483
234,684	0,536	240,396	120,307
235,699	0,412	240,374	120,186
236,713	0,269	240,325	120,035
237,728	0,493	239,967	120,026
238,742	0,626	239,777	120,026
239,757	0,312	239,736	119,743
240,772	0,505	239,432	119,735
241,786	0,601	239,279	119,725
242,801	0,566	239,097	119,595
243,815	0,425	239,032	119,440
244,830	0,703	238,822	119,545
245,844	0,246	238,780	119,150
246,859	0,416	238,536	119,153
247,874	0,394	238,416	119,064
248,888	0,356	238,225	118,928
249,903	0,553	238,000	118,962
250,917	0,549	238,065	118,980
251,932	0,739	237,711	118,943
252,947	0,710	237,553	118,831
253,961	0,737	237,402	118,766
254,976	0,533	237,342	118,564
255,990	0,533	237,134	118,450
257,005	0,679	236,996	118,485
258,020	0,629	236,869	118,372
259,034	0,558	236,765	118,253
260,049	0,698	236,509	118,225
261,063	0,227	236,371	117,775
262,078	0,490	236,176	117,874
263,093	0,410	236,152	117,789
264,107	0,505	235,859	117,706
265,122	0,285	235,747	117,468
266,136	0,610	235,611	117,644
267,151	0,646	235,401	117,557
268,166	0,499	235,394	117,428
269,180	0,371	235,202	117,221
270,195	0,317	235,054	117,095
271,209	0,579	234,897	117,211
272,224	0,488	234,741	117,052
273,239	0,309	234,673	116,868
274,253	0,432	234,361	116,797
275,268	0,578	234,161	116,801
276,282	0,425	234,114	116,649
277,297	0,609	233,788	116,618
278,312	0,532	233,673	116,491
279,326	0,574	233,564	116,459
280,341	0,604	233,551	116,466
281,355	0,597	233,416	116,382
282,370	0,379	233,308	116,148
283,384	0,524	233,037	116,116
284,399	0,502	232,922	116,032
285,414	0,514	232,830	115,985
286,428	0,627	232,714	116,003
287,443	0,767	232,456	115,973
288,457	0,606	232,349	115,784
289,472	0,626	232,213	115,722
290,487	0,617	232,131	115,664
291,501	0,626	231,876	115,533
292,516	0,590	231,765	115,440
293,530	0,488	231,670	115,304
294,545	0,773	231,303	115,330
295,560	0,407	231,512	115,142
296,574	0,692	231,174	115,183
297,589	0,674	231,077	115,110
298,603	0,763	230,910	115,086
299,618	0,666	230,832	114,961
300,633	0,777	230,604	114,923
301,647	0,760	230,363	114,779
302,662	0,653	230,441	114,727
303,676	0,562	230,151	114,502
304,691	0,888	229,788	114,560
305,706	0,824	229,706	114,460
306,720	0,738	229,781	114,422
307,735	0,716	229,684	114,347
308,749	0,796	229,540	114,325
309,764	0,948	229,338	114,330
310,779	0,957	229,124	114,220
311,793	0,698	228,976	113,940
312,808	0,749	228,812	113,887
313,822	0,830	228,659	113,862
314,837	0,717	228,521	113,697
315,852	0,709	228,400	113,621
316,866	0,719	228,311	113,574
317,881	0,744	228,114	113,485
318,895	0,969	227,921	113,549
319,910	0,707	227,820	113,290
320,925	0,858	227,708	113,338
321,939	0,830	227,539	113,223
322,954	0,909	227,296	113,151
323,968	0,873	227,196	113,065
324,983	0,833	227,160	113,006
325,997	0,761	226,870	112,798
327,012	0,846	226,945	112,889
328,027	0,641	226,680	112,594
329,041	1,004	226,358	112,695
330,056	0,792	226,503	112,599
331,070	0,811	226,280	112,492
332,085	1,026	225,959	112,483
333,100	0,862	225,982	112,362
334,114	0,905	225,843	112,315
335,129	0,758	225,602	112,076
336,143	0,799	225,523	112,056
337,158	0,941	225,398	112,091
338,173	0,845	225,223	111,922
339,187	0,940	225,202	111,972
340,202	0,872	224,989	111,806
341,216	0,821	224,861	111,694
342,231	0,752	224,756	111,580
343,246	1,003	224,486	111,623
344,260	0,978	224,400	111,552
345,275	0,956	224,289	111,471
346,289	0,920	224,231	111,405
347,304	0,928	224,069	111,320
348,319	0,813	223,735	111,060
349,333	1,107	223,677	111,238
350,348	0,866	223,637	111,030
351,362	1,065	223,385	111,042
352,377	0,974	223,254	110,900
353,392	0,886	223,198	110,797
354,406	1,002	222,921	110,735
355,421	192,115	1311,944	1376,693
356,435	153,805	1444,470	1376,516
