DTS Sentinel unit serial number:	SN410029Multiplexer serial number:	ORYXHardware model number:	OX2-SRSoftware version number:	ORYX F/W v4,00 Oryx Data Collector v3.7.2.0data status	okinstallation	B5 Nyhavnadifferential loss correction	single-endedforward channel	channel 2reverse channel	N/Adate	2023/12/13time	05:42:13forward acquisition time	300,00reverse acquisition time	0,00gamma	499,1914k internal	0,3160k external	0,3160temperature offset calibration	1,0000default loss term (dB/km)	0,3820temperature slope calibration	1,0000multiplexer offset coefficient	1,0000multiplexer slope coefficient	1,0000fibre end	0,00T internal ref (°C)	13,81T ext. ref 1 (°C)	-2,61T ext. ref 2 (°C)	-2,91length (m)	temperature (°C)	Stokes	anti-Stokes-744,400	-13,298	0,140	0,067
-743,385	-64,279	-0,260	-0,077
-742,371	-186,945	0,241	0,002
-741,356	173,133	-0,137	-0,145
-740,342	-56,805	0,098	-0,032
-739,327	-179,789	-0,328	-0,005
-738,312	182,535	0,064	-0,070
-737,298	-155,185	-0,178	-0,008
-736,283	109,955	0,084	0,074
-735,269	-178,578	-0,313	-0,005
-734,254	385,117	0,069	-0,105
-733,239	-127,414	-0,464	-0,049
-732,225	-22,450	0,203	-0,090
-731,210	3,369	-0,130	0,070
-730,196	243,623	-0,068	0,084
-729,181	101,324	-0,093	0,079
-728,167	-200,000	0,006	-0,230
-727,152	275,732	-0,039	-0,052
-726,137	800,000	-0,033	-0,077
-725,123	800,000	-0,042	-0,129
-724,108	800,000	-0,060	-0,135
-723,094	-96,114	-0,179	0,035
-722,079	800,000	0,027	-0,065
-721,064	580,527	-0,037	-0,067
-720,050	81,998	-0,100	0,079
-719,035	-200,000	-0,010	-0,048
-718,021	-65,130	-0,123	0,036
-717,006	-41,065	-0,098	-0,037
-715,991	372,657	-0,070	-0,104
-714,977	52,034	-0,092	0,064
-713,962	-55,010	-0,039	-0,013
-712,948	-200,000	-0,020	0,089
-711,933	-158,437	0,124	0,005
-710,918	-76,716	-0,213	0,054
-709,904	-71,233	-0,204	-0,056
-708,889	-200,000	-0,005	-0,211
-707,875	800,000	-0,055	-0,128
-706,860	-58,890	-0,061	-0,019
-705,845	205,736	-0,030	0,034
-704,831	-200,000	-0,039	0,178
-703,816	60,491	0,052	-0,038
-702,802	800,000	0,057	-0,138
-701,787	-21,345	-0,117	0,052
-700,772	132,782	0,004	-0,003
-699,758	-8,740	0,065	0,032
-698,743	800,000	0,051	0,157
-697,729	-200,000	-0,005	0,113
-696,714	590,960	-0,034	0,062
-695,699	-200,000	0,023	-0,175
-694,685	-200,000	-0,037	-0,150
-693,670	-200,000	0,004	-0,082
-692,656	235,264	0,047	-0,057
-691,641	261,731	0,075	0,095
-690,627	493,495	-0,053	0,089
-689,612	-47,335	-0,057	-0,020
-688,597	800,000	0,029	-0,087
-687,583	-16,533	-0,153	-0,071
-686,568	-200,000	-0,025	-0,114
-685,554	-200,000	-0,009	-0,063
-684,539	-136,315	-0,129	-0,011
-683,524	800,000	-0,026	0,076
-682,510	-200,000	0,009	0,045
-681,495	-50,220	-0,172	0,059
-680,481	87,242	-0,070	-0,057
-679,466	-200,000	-0,069	-0,000
-678,451	800,000	-0,031	-0,080
-677,437	42,127	0,094	0,063
-676,422	-200,000	-0,056	0,191
-675,408	-50,825	0,165	-0,057
-674,393	-22,566	-0,086	0,038
-673,378	563,624	-0,102	-0,182
-672,364	366,868	0,046	-0,069
-671,349	59,892	0,032	-0,024
-670,335	-56,730	0,031	0,010
-669,320	-200,000	-0,029	0,113
-668,305	-200,000	-0,002	0,098
-667,291	-90,098	0,093	-0,020
-666,276	-200,000	0,007	0,038
-665,262	-169,271	-0,082	0,002
-664,247	-152,067	-0,111	0,006
-663,232	-20,448	0,075	0,034
-662,218	-86,349	0,049	0,011
-661,203	-54,802	0,089	-0,029
-660,189	-200,000	-0,036	-0,164
-659,174	-53,972	-0,169	-0,056
-658,159	619,072	0,035	-0,066
-657,145	144,745	-0,043	0,042
-656,130	-200,000	0,005	-0,018
-655,116	199,976	-0,068	0,076
-654,101	800,000	-0,029	-0,086
-653,086	19,255	-0,044	0,026
-652,072	41,395	-0,115	0,076
-651,057	-13,686	0,049	0,023
-650,043	-50,648	-0,132	0,045
-649,028	63,148	0,085	-0,062
-648,014	119,926	-0,039	0,035
-646,999	800,000	0,036	-0,101
-645,984	88,197	0,040	-0,033
-644,970	-126,131	0,119	-0,013
-643,955	800,000	-0,051	-0,148
-642,941	-65,126	0,034	-0,010
-641,926	45,529	0,042	0,029
-640,911	-200,000	-0,003	0,076
-639,897	-200,000	-0,028	0,154
-638,882	800,000	-0,050	0,107
-637,868	268,361	-0,078	-0,101
-636,853	800,000	0,042	-0,101
-635,838	463,374	-0,070	0,116
-634,824	57,759	-0,067	0,048
-633,809	77,287	-0,042	-0,033
-632,795	-200,000	-0,017	0,095
-631,780	411,903	-0,066	-0,103
-630,765	-61,972	-0,031	-0,010
-629,751	191,272	-0,060	-0,066
-628,736	245,270	0,079	0,098
-627,722	-122,310	-0,223	-0,026
-626,707	15,848	-0,076	-0,044
-625,692	-200,000	-0,001	0,016
-624,678	-71,583	-0,110	0,030
-623,663	800,000	0,037	-0,091
-622,649	-200,000	0,014	-0,127
-621,634	109,103	-0,124	-0,109
-620,619	800,000	0,046	0,145
-619,605	800,000	-0,037	-0,109
-618,590	-18,572	0,055	-0,025
-617,576	800,000	0,034	0,105
-616,561	-64,172	-0,227	0,067
-615,546	615,071	0,071	-0,130
-614,532	397,840	0,023	-0,035
-613,517	55,617	-0,132	0,094
-612,503	800,000	0,031	-0,078
-611,488	-200,000	-0,014	-0,187
-610,474	-28,677	-0,052	0,022
-609,459	49,603	-0,081	-0,056
-608,444	227,911	0,031	-0,037
-607,430	85,666	-0,073	-0,059
-606,415	-113,510	-0,206	-0,029
-605,401	-200,000	-0,017	-0,084
-604,386	166,612	0,159	0,165
-603,371	-200,000	0,010	-0,074
-602,357	-41,666	0,161	0,060
-601,342	800,000	-0,053	0,127
-600,328	-98,993	-0,174	0,032
-599,313	51,029	0,028	-0,019
-598,298	-150,929	-0,058	0,003
-597,284	-21,646	0,195	0,087
-596,269	-140,480	-0,003	0,000
-595,255	210,097	0,062	0,071
-594,240	-86,588	-0,127	0,028
-593,225	-113,784	-0,073	0,010
-592,211	220,441	-0,049	0,057
-591,196	25,728	-0,131	-0,079
-590,182	800,000	0,023	-0,061
-589,167	800,000	-0,048	0,126
-588,152	301,117	-0,024	0,032
-587,138	-200,000	-0,007	0,079
-586,123	-200,000	0,003	0,028
-585,109	190,110	-0,082	-0,091
-584,094	-200,000	-0,025	-0,086
-583,079	800,000	-0,053	0,140
-582,065	14,325	0,166	0,094
-581,050	-200,000	-0,027	-0,141
-580,036	53,511	0,109	0,076
-579,021	183,589	0,022	-0,024
-578,006	149,517	0,079	-0,078
-576,992	-7,108	-0,110	-0,055
-575,977	-41,282	0,061	-0,023
-574,963	134,621	0,032	0,030
-573,948	800,000	-0,050	0,152
-572,934	-200,000	0,036	0,180
-571,919	800,000	-0,020	-0,049
-570,904	-200,000	-0,002	0,156
-569,890	119,254	0,073	0,067
-568,875	-200,000	0,004	0,033
-567,861	182,196	0,081	-0,087
-566,846	-133,396	-0,049	0,004
-565,831	800,000	-0,030	-0,092
-564,817	-200,000	0,007	0,035
-563,802	-73,738	-0,029	0,008
-562,788	-88,444	-0,119	-0,026
-561,773	-46,156	0,031	0,011
-560,758	277,663	-0,050	-0,065
-559,744	800,000	-0,004	-0,011
-558,729	7,300	0,022	-0,012
-557,715	-97,437	0,106	-0,020
-556,700	158,527	-0,119	-0,121
-555,685	-200,000	-0,012	0,043
-554,671	-96,149	0,105	0,020
-553,656	-200,000	-0,017	-0,057
-552,642	301,864	0,084	0,114
-551,627	-65,179	0,051	-0,015
-550,612	238,746	-0,030	-0,036
-549,598	433,416	-0,041	-0,066
-548,583	-8,602	-0,117	0,057
-547,569	-200,000	0,025	-0,165
-546,554	-124,652	0,273	0,031
-545,539	149,965	-0,099	0,098
-544,525	263,494	0,071	0,091
-543,510	800,000	0,011	-0,022
-542,496	312,803	-0,066	0,091
-541,481	334,430	0,068	0,096
-540,466	-43,147	0,017	0,006
-539,452	462,516	0,025	0,040
-538,437	211,316	0,081	0,094
-537,423	800,000	0,021	0,045
-536,408	163,143	-0,131	0,135
-535,393	668,604	0,020	-0,037
-534,379	-68,889	-0,094	0,026
-533,364	314,116	-0,068	-0,094
-532,350	436,294	-0,033	-0,052
-531,335	-200,000	0,012	-0,049
-530,321	59,058	-0,091	-0,065
-529,306	-200,000	-0,018	-0,099
-528,291	-200,000	0,002	0,091
-527,277	-155,460	0,068	0,003
-526,262	-52,060	0,067	-0,023
-525,248	158,892	0,162	0,164
-524,233	277,816	0,072	0,094
-523,218	399,406	-0,061	-0,094
-522,204	-200,000	-0,019	0,114
-521,189	-200,000	-0,019	-0,107
-520,175	-93,148	-0,149	-0,030
-519,160	-85,600	0,121	-0,027
-518,145	-36,300	-0,047	-0,018
-517,131	800,000	-0,004	-0,012
-516,116	49,445	-0,030	-0,021
-515,102	-200,000	-0,019	-0,118
-514,087	137,876	-0,069	-0,066
-513,072	-200,000	0,018	-0,140
-512,058	86,477	-0,057	-0,045
-511,043	-200,000	0,010	0,067
-510,029	-200,000	0,013	0,072
-509,014	67,780	-0,057	0,042
-507,999	89,809	0,078	-0,064
-506,985	-135,088	-0,091	0,008
-505,970	182,429	-0,080	0,087
-504,956	-158,670	-0,092	0,004
-503,941	800,000	0,018	0,055
-502,926	-31,760	0,043	0,018
-501,912	-55,054	0,117	-0,038
-500,897	800,000	-0,035	0,079
-499,883	263,488	0,019	-0,024
-498,868	93,651	-0,017	-0,014
-497,853	800,000	0,052	-0,128
-496,839	223,489	-0,043	0,051
-495,824	800,000	0,035	0,103
-494,810	296,750	-0,046	0,062
-493,795	-200,000	0,008	-0,054
-492,781	205,488	-0,090	-0,102
-491,766	-200,000	-0,014	-0,151
-490,751	800,000	0,064	-0,174
-489,737	-48,730	-0,047	0,016
-488,722	-83,074	0,063	0,015
-487,708	800,000	-0,023	-0,064
-486,693	-200,000	0,008	0,111
-485,678	-200,000	0,029	-0,109
-484,664	-141,563	-0,054	0,004
-483,649	800,000	0,032	0,071
-482,635	-200,000	0,000	0,070
-481,620	344,398	0,040	0,057
-480,605	647,925	0,067	0,125
-479,591	-154,020	0,126	-0,006
-478,576	-200,000	-0,006	-0,039
-477,562	-122,130	-0,180	-0,021
-476,547	800,000	-0,054	-0,126
-475,532	299,690	-0,047	0,064
-474,518	-200,000	-0,014	0,066
-473,503	-151,608	0,253	0,013
-472,489	461,398	0,027	0,043
-471,474	210,420	-0,015	-0,017
-470,459	800,000	-0,015	-0,047
-469,445	-150,821	0,016	0,001
-468,430	-45,111	-0,038	-0,014
-467,416	-99,301	0,098	-0,018
-466,401	-64,408	-0,079	-0,023
-465,386	-88,239	-0,121	-0,026
-464,372	-113,977	0,071	0,010
-463,357	-200,000	0,031	-0,112
-462,343	-62,377	-0,049	0,015
-461,328	-110,747	0,110	0,016
-460,313	167,601	-0,073	0,076
-459,299	-200,000	-0,007	-0,136
-458,284	659,339	0,061	-0,114
-457,270	-200,000	0,019	0,075
-456,255	305,847	0,072	-0,098
-455,241	9,660	0,102	-0,056
-454,226	508,211	-0,094	-0,160
-453,211	800,000	-0,053	-0,132
-452,197	-200,000	-0,002	-0,026
-451,182	800,000	0,056	0,158
-450,168	476,483	-0,034	0,057
-449,153	-200,000	0,004	0,081
-448,138	-111,041	0,092	-0,014
-447,124	-163,381	0,035	-0,001
-446,109	-200,000	0,002	-0,039
-445,095	191,332	0,144	0,158
-444,080	44,576	-0,084	-0,056
-443,065	0,886	-0,107	0,055
-442,051	800,000	0,018	0,046
-441,036	-92,008	-0,079	-0,016
-440,022	-106,156	0,049	0,008
-439,007	-84,362	0,122	0,028
-437,992	285,611	0,017	0,023
-436,978	97,397	0,144	0,120
-435,963	-200,000	0,007	0,048
-434,949	-16,147	0,126	0,058
-433,934	141,936	-0,098	0,094
-432,919	65,671	-0,068	-0,050
-431,905	-14,330	0,054	-0,025
-430,890	683,626	-0,085	0,161
-429,876	-200,000	0,005	0,029
-428,861	-122,076	-0,051	0,006
-427,846	-200,000	-0,030	-0,135
-426,832	-200,000	-0,013	-0,049
-425,817	-200,000	-0,009	0,050
-424,803	-127,588	0,024	0,002
-423,788	-200,000	-0,004	-0,051
-422,773	-17,259	0,074	0,034
-421,759	-200,000	-0,019	0,076
-420,744	762,212	0,067	-0,134
-419,730	-32,823	0,035	0,014
-418,715	800,000	-0,058	-0,171
-417,701	-31,563	0,114	0,046
-416,686	-194,738	0,255	-0,001
-415,671	-96,633	-0,057	-0,011
-414,657	-200,000	0,007	0,035
-413,642	-125,671	-0,138	-0,015
-412,628	92,381	0,083	0,068
-411,613	-103,384	-0,202	0,034
-410,598	-200,000	0,002	-0,080
-409,584	41,908	0,064	-0,042
-408,569	20,530	0,038	0,022
-407,555	631,620	0,059	0,110
-406,540	6,886	-0,059	-0,032
-405,525	-45,213	-0,071	0,026
-404,511	214,041	-0,043	0,050
-403,496	-124,703	-0,062	0,007
-402,482	37,348	0,138	0,089
-401,467	176,288	0,071	0,075
-400,452	323,151	-0,034	-0,047
-399,438	199,130	0,058	0,064
-398,423	734,324	-0,023	0,046
-397,409	-200,000	0,022	-0,079
-396,394	191,553	-0,083	-0,091
-395,379	-200,000	-0,041	-0,134
-394,365	115,948	0,057	0,051
-393,350	404,810	-0,084	0,129
-392,336	-69,187	0,132	-0,037
-391,321	-20,470	-0,071	0,031
-390,306	-21,335	-0,087	-0,038
-389,292	-7,940	-0,037	-0,018
-388,277	-38,514	0,128	-0,049
-387,263	-61,845	0,021	-0,006
-386,248	-177,015	0,224	-0,004
-385,233	1,267	-0,163	0,085
-384,219	-200,000	-0,028	-0,093
-383,204	800,000	0,049	0,151
-382,190	254,171	-0,053	-0,066
-381,175	-27,309	-0,085	-0,036
-380,160	-41,739	0,079	-0,029
-379,146	-200,000	0,002	-0,037
-378,131	49,678	0,051	0,035
-377,117	800,000	-0,027	0,076
-376,102	-200,000	0,019	-0,063
-375,088	147,087	0,055	0,053
-374,073	249,931	0,062	-0,077
-373,058	-106,953	0,085	-0,013
-372,044	334,503	-0,041	-0,057
-371,029	17,129	-0,074	0,043
-370,015	-200,000	-0,013	0,129
-369,000	-78,283	-0,017	0,004
-367,985	69,557	0,019	0,014
-366,971	343,201	0,031	-0,045
-365,956	737,930	0,051	0,099
-364,942	-200,000	0,003	0,117
-363,927	182,359	-0,133	0,142
-362,912	-200,000	-0,019	-0,086
-361,898	-200,000	0,012	-0,084
-360,883	800,000	0,058	-0,117
-359,869	-200,000	0,034	-0,125
-358,854	800,000	-0,026	-0,073
-357,839	-200,000	0,022	0,123
-356,825	800,000	-0,047	0,130
-355,810	800,000	0,042	0,104
-354,796	364,828	-0,155	0,227
-353,781	172,092	-0,060	0,063
-352,766	-200,000	0,012	-0,076
-351,752	-200,000	0,015	0,114
-350,737	684,472	0,028	-0,053
-349,723	172,859	-0,009	0,009
-348,708	-200,000	0,017	0,179
-347,693	800,000	-0,051	-0,130
-346,679	-200,000	-0,023	0,080
-345,664	-146,050	-0,134	0,008
-344,650	80,480	-0,070	-0,055
-343,635	15,570	0,158	-0,090
-342,620	-115,808	0,059	-0,008
-341,606	-86,918	-0,047	0,010
-340,591	-200,000	-0,009	-0,115
-339,577	-200,000	-0,002	0,075
-338,562	-200,000	-0,016	-0,056
-337,548	-200,000	0,012	0,109
-336,533	-14,352	-0,073	-0,034
-335,518	393,308	0,109	0,165
-334,504	800,000	0,023	-0,054
-333,489	-11,702	-0,144	-0,068
-332,475	6,435	-0,056	0,030
-331,460	715,678	-0,039	-0,076
-330,445	-111,747	-0,085	-0,012
-329,431	-85,525	0,136	0,030
-328,416	800,000	0,018	0,053
-327,402	-200,000	-0,004	0,027
-326,387	800,000	0,081	0,225
-325,372	-22,928	-0,214	-0,093
-324,358	800,000	-0,027	0,062
-323,343	212,520	-0,079	-0,090
-322,329	217,310	0,074	-0,086
-321,314	115,034	-0,074	0,066
-320,299	800,000	0,043	0,121
-319,285	-200,000	-0,011	0,065
-318,270	-200,000	-0,019	-0,109
-317,256	178,590	-0,061	-0,065
-316,241	-75,152	-0,105	-0,027
-315,226	280,431	-0,033	-0,043
-314,212	-3,156	0,089	0,045
-313,197	681,028	-0,027	0,050
-312,183	-200,000	0,016	0,121
-311,168	14,694	0,061	0,035
-310,153	-200,000	-0,033	0,147
-309,139	-137,644	-0,121	-0,010
-308,124	-5,868	0,083	0,041
-307,110	-5,043	0,152	0,075
-306,095	10,482	0,077	-0,043
-305,080	192,108	0,104	-0,114
-304,066	800,000	-0,011	-0,022
-303,051	627,020	-0,032	-0,059
-302,037	-42,707	0,011	0,004
-301,022	800,000	0,011	0,032
-300,008	41,100	0,022	0,014
-298,993	208,255	0,050	-0,056
-297,978	-19,849	-0,069	0,031
-296,964	106,147	-0,108	-0,092
-295,949	-84,352	0,152	-0,035
-294,935	-39,769	-0,062	0,023
-293,920	159,798	-0,069	0,069
-292,905	75,762	0,079	-0,060
-291,891	203,875	-0,091	0,102
-290,876	-200,000	-0,004	0,066
-289,862	14,278	0,042	-0,024
-288,847	294,582	0,093	-0,123
-287,832	71,817	-0,027	-0,020
-286,818	303,818	0,053	-0,071
-285,803	90,840	0,077	-0,063
-284,789	800,000	0,075	-0,189
-283,774	67,195	0,010	0,007
-282,759	-103,890	-0,146	0,024
-281,745	-105,090	0,165	-0,027
-280,730	59,459	0,034	0,025
-279,716	435,726	-0,066	-0,104
-278,701	-200,000	0,024	0,127
-277,686	342,744	-0,086	0,122
-276,672	-200,000	-0,004	0,046
-275,657	396,913	0,012	0,019
-274,643	-84,993	-0,177	-0,040
-273,628	800,000	-0,021	-0,048
-272,613	-52,658	0,045	0,015
-271,599	-69,253	0,097	-0,027
-270,584	800,000	-0,022	0,057
-269,570	-15,944	-0,003	0,001
-268,555	349,007	-0,030	0,043
-267,540	800,000	-0,008	-0,020
-266,526	74,298	-0,079	-0,060
-265,511	-200,000	-0,004	0,031
-264,497	-200,000	0,037	0,153
-263,482	232,888	-0,045	0,053
-262,467	-38,041	0,102	0,039
-261,453	800,000	-0,036	-0,086
-260,438	280,458	0,070	0,090
-259,424	-200,000	-0,011	0,042
-258,409	391,052	0,080	-0,120
-257,395	-118,067	0,097	0,012
-256,380	556,165	-0,037	0,065
-255,365	-30,025	-0,093	0,038
-254,351	267,376	0,049	0,062
-253,336	84,607	-0,016	0,012
-252,322	-71,580	-0,102	0,027
-251,307	-161,656	-0,130	-0,005
-250,292	-200,000	0,036	-0,155
-249,278	-200,000	0,021	-0,134
-248,263	86,857	0,090	0,072
-247,249	800,000	0,011	0,028
-246,234	90,817	-0,111	-0,090
-245,219	-112,682	0,159	0,023
-244,205	-28,468	-0,124	-0,051
-243,190	-63,495	-0,003	0,001
-242,176	205,132	-0,054	-0,061
-241,161	-200,000	0,018	-0,085
-240,146	-200,000	0,030	0,099
-239,132	-157,821	0,085	0,004
-238,117	-200,000	0,040	-0,176
-237,103	800,000	0,027	0,059
-236,088	-41,189	0,044	-0,016
-235,073	-95,087	0,143	-0,028
-234,059	542,547	0,046	-0,080
-233,044	539,897	-0,026	-0,044
-232,030	-99,582	-0,085	-0,015
-231,015	-200,000	-0,021	0,073
-230,000	-200,000	0,004	-0,095
-228,986	800,000	0,034	-0,068
-227,971	-200,000	0,029	0,105
-226,957	-42,216	0,159	-0,058
-225,942	800,000	-0,053	0,134
-224,927	-84,372	-0,031	-0,007
-223,913	-200,000	-0,006	-0,025
-222,898	-200,000	-0,003	-0,074
-221,884	800,000	-0,039	-0,087
-220,869	-97,908	-0,047	0,009
-219,855	242,258	-0,030	0,036
-218,840	247,846	0,069	0,084
-217,825	-200,000	0,010	0,035
-216,811	-200,000	0,015	-0,091
-215,796	117,894	-0,112	-0,100
-214,782	390,162	0,119	-0,178
-213,767	-200,000	-0,008	0,106
-212,752	-200,000	0,040	0,169
-211,738	-200,000	-0,032	-0,118
-210,723	800,000	0,018	-0,042
-209,709	140,119	0,056	0,053
-208,694	0,844	-0,025	0,013
-207,679	-75,883	-0,110	-0,028
-206,665	-200,000	0,016	-0,077
-205,650	-95,732	0,169	0,032
-204,636	-60,023	0,018	0,006
-203,621	-200,000	-0,015	0,068
-202,606	37,636	0,050	-0,032
-201,592	-179,255	-0,145	0,002
-200,577	153,555	-0,054	-0,053
-199,563	-155,826	0,122	-0,006
-198,548	121,742	-0,031	-0,028
-197,533	244,575	0,111	0,135
-196,519	800,000	0,018	0,050
-195,504	23,965	-0,143	-0,085
-194,490	227,518	-0,085	-0,100
-193,475	116,465	-0,016	-0,014
-192,460	-38,522	0,064	0,024
-191,446	17,545	0,167	-0,095
-190,431	800,000	-0,031	-0,089
-189,417	-123,235	-0,040	0,005
-188,402	-77,975	-0,043	-0,011
-187,387	417,494	-0,032	-0,050
-186,373	146,611	0,029	0,028
-185,358	-162,220	0,021	-0,001
-184,344	-200,000	0,025	-0,101
-183,329	84,316	0,065	-0,052
-182,315	59,981	0,066	-0,047
-181,300	188,631	0,108	-0,116
-180,285	-200,000	0,002	-0,180
-179,271	172,020	0,048	-0,050
-178,256	380,246	-0,117	-0,174
-177,242	-184,495	0,171	-0,002
-176,227	800,000	-0,021	0,045
-175,212	-157,683	0,015	0,001
-174,198	-200,000	-0,002	0,091
-173,183	-63,453	-0,152	-0,045
-172,169	173,916	0,072	0,075
-171,154	-49,301	-0,061	-0,021
-170,139	800,000	0,038	0,106
-169,125	-200,000	0,006	0,088
-168,110	110,445	0,075	-0,065
-167,096	75,245	-0,123	0,093
-166,081	110,708	-0,077	-0,066
-165,066	-106,114	-0,086	-0,014
-164,052	-46,959	-0,078	0,027
-163,037	358,361	0,032	0,046
-162,023	153,124	0,059	-0,059
-161,008	800,000	0,084	0,230
-159,993	457,914	-0,012	0,019
-158,979	44,697	0,035	0,023
-157,964	-200,000	0,024	0,125
-156,950	800,000	0,039	-0,102
-155,935	521,474	-0,051	-0,087
-154,920	-0,114	0,126	0,064
-153,906	-105,985	-0,032	0,005
-152,891	800,000	0,016	0,036
-151,877	-200,000	0,009	0,061
-150,862	-31,570	-0,165	-0,066
-149,847	-200,000	0,009	-0,099
-148,833	591,052	0,028	0,050
-147,818	-200,000	0,012	0,098
-146,804	-21,032	0,082	-0,036
-145,789	322,677	0,085	0,117
-144,775	-1,418	-0,154	0,078
-143,760	-200,000	-0,011	0,053
-142,745	-200,000	-0,020	-0,109
-141,731	16,808	0,067	0,038
-140,716	800,000	0,074	0,175
-139,702	800,000	-0,014	0,040
-138,687	37,698	-0,053	-0,034
-137,672	431,342	-0,009	-0,015
-136,658	800,000	0,012	0,027
-135,643	-11,232	0,029	-0,014
-134,629	800,000	0,011	-0,028
-133,614	-151,460	0,247	0,013
-132,599	-17,961	0,090	0,040
-131,585	-200,000	-0,045	0,155
-130,570	580,000	0,030	-0,053
-129,556	800,000	0,072	-0,196
-128,541	85,137	-0,116	-0,091
-127,526	387,979	0,074	0,110
-126,512	800,000	0,030	0,074
-125,497	31,864	0,049	-0,031
-124,483	191,942	-0,075	0,082
-123,468	21,654	0,040	0,023
-122,453	19,368	-0,057	-0,033
-121,439	122,529	0,035	0,031
-120,424	-48,377	0,052	0,018
-119,410	-200,000	0,008	-0,030
-118,395	249,246	0,074	-0,090
-117,380	-5,850	-0,096	-0,047
-116,366	-2,692	0,055	0,028
-115,351	627,077	0,022	-0,039
-114,337	-69,288	-0,024	0,007
-113,322	621,207	0,007	-0,012
-112,307	149,733	-0,010	-0,010
-111,293	800,000	0,042	0,107
-110,278	-24,004	0,094	-0,040
-109,264	800,000	-0,053	-0,124
-108,249	119,042	-0,040	0,036
-107,234	472,580	-0,053	0,086
-106,220	-200,000	0,017	0,084
-105,205	353,045	-0,054	0,078
-104,191	-200,000	0,023	0,100
-103,176	-37,119	-0,031	-0,012
-102,162	-103,975	-0,109	0,018
-101,147	60,892	-0,143	-0,102
-100,132	-200,000	0,033	0,000
-99,118	-22,746	0,096	-0,042
-98,103	-171,549	0,111	-0,003
-97,089	-47,497	0,107	0,037
-96,074	701,310	-0,020	0,038
-95,059	145,978	-0,128	-0,123
-94,045	-42,412	-0,137	-0,050
-93,030	19,116	-0,134	-0,077
-92,016	800,000	0,040	-0,120
-91,001	100,879	0,097	-0,081
-89,986	-200,000	-0,029	0,308
-88,972	82,564	0,071	0,055
-87,957	164,858	-0,050	0,051
-86,943	-200,000	-0,003	0,018
-85,928	-200,000	0,009	0,155
-84,913	-152,262	0,115	0,006
-83,899	-200,000	0,002	0,010
-82,884	-87,146	0,059	0,013
-81,870	90,958	-0,155	-0,125
-80,855	-81,466	0,214	-0,050
-79,840	-43,620	-0,147	-0,053
-78,826	800,000	-0,030	0,074
-77,811	12,132	-0,030	0,017
-76,797	266,549	0,033	-0,042
-75,782	-100,790	0,078	-0,014
-74,767	-1,262	0,039	0,020
-73,753	14,972	0,128	0,072
-72,738	42,698	-0,066	0,043
-71,724	-200,000	0,040	0,181
-70,709	25,275	-0,144	-0,086
-69,694	10,566	-0,046	0,025
-68,680	800,000	-0,018	-0,051
-67,665	-200,000	0,016	0,086
-66,651	-90,991	0,171	0,035
-65,636	513,305	-0,067	0,112
-64,622	-200,000	-0,003	-0,082
-63,607	634,236	0,023	0,042
-62,592	-33,499	-0,146	-0,058
-61,578	83,939	0,079	-0,062
-60,563	-25,807	0,014	0,006
-59,549	800,000	-0,087	0,193
-58,534	12,311	-2,011	-1,108
-57,519	-200,000	-0,040	-0,642
-56,505	-200,000	-1,424	-4,927
-55,490	18,677	0,872	0,499
-54,476	800,000	5,394	12,095
-53,461	-200,000	18,642	314,427
-52,446	800,000	740,906	2327,964
-51,432	558,196	1657,122	2878,175
-50,417	111,018	1640,908	1416,707
-49,403	75,368	1290,759	975,660
-48,388	30,526	1031,149	630,819
-47,373	19,979	993,778	573,016
-46,359	17,460	981,629	557,697
-45,344	14,201	977,682	544,717
-44,330	14,548	975,958	544,874
-43,315	13,931	974,157	541,823
-42,300	13,855	973,161	540,997
-41,286	13,767	972,427	540,282
-40,271	13,884	971,312	540,023
-39,257	13,825	970,429	539,317
-38,242	13,817	969,692	538,860
-37,227	13,855	968,494	538,297
-36,213	13,781	967,932	537,723
-35,198	13,782	966,997	537,185
-34,184	13,878	966,205	537,034
-33,169	13,806	965,274	536,262
-32,154	13,837	964,344	535,824
-31,140	13,823	963,408	535,237
-30,125	13,900	962,750	535,100
-29,111	13,810	961,834	534,280
-28,096	13,885	961,009	534,043
-27,082	13,828	960,477	533,542
-26,067	13,894	959,664	533,281
-25,052	13,807	958,958	532,588
-24,038	13,852	958,322	532,360
-23,023	13,821	957,579	531,823
-22,009	13,868	957,059	531,666
-20,994	13,880	956,355	531,293
-19,979	13,844	955,744	530,817
-18,965	13,831	955,277	530,496
-17,950	13,863	954,415	530,096
-16,936	13,828	953,867	529,658
-15,921	13,830	953,205	529,278
-14,906	13,734	952,500	528,557
-13,892	13,734	951,891	528,198
-12,877	13,766	951,223	527,907
-11,863	13,706	950,520	527,306
-10,848	13,752	949,959	527,119
-9,833	13,816	949,497	527,048
-8,819	13,841	948,635	526,628
-7,804	13,757	948,228	526,113
-6,790	13,764	947,487	525,705
-5,775	13,752	947,216	525,493
-4,760	13,763	946,484	525,103
-3,746	13,764	945,779	524,693
-2,731	13,627	945,101	523,860
-1,717	13,566	944,324	523,216
-0,702	13,591	943,669	522,911
0,313	13,406	943,088	522,792
1,327	16,551	940,767	531,413
2,342	25,242	795,673	472,545
3,356	21,482	460,213	267,520
4,371	-5,034	317,387	156,019
5,386	-8,786	299,181	143,221
6,400	-10,942	293,028	138,102
7,415	-11,216	290,484	136,619
8,429	-11,347	288,961	135,761
9,444	-11,406	288,226	135,345
10,459	-11,351	287,488	135,040
11,473	-11,446	286,889	134,654
12,488	-11,331	286,387	134,519
13,502	-11,397	285,736	134,137
14,517	-11,302	285,380	134,051
15,531	-11,322	285,000	133,841
16,546	-11,206	284,653	133,779
17,561	-11,423	284,226	133,355
18,575	-11,308	283,978	133,339
19,590	-11,365	283,448	133,023
20,604	-11,402	283,365	132,936
21,619	-11,541	282,852	132,550
22,634	-11,268	282,418	132,597
23,648	-11,402	282,173	132,342
24,663	-11,377	282,026	132,284
25,677	-11,366	281,673	132,118
26,692	-11,252	281,538	132,152
27,707	-11,362	281,145	131,850
28,721	-11,328	280,814	131,716
29,736	-11,294	280,543	131,610
30,750	-11,340	280,236	131,410
31,765	-11,423	279,964	131,192
32,780	-11,458	279,819	131,078
33,794	-11,316	279,500	131,053
34,809	-11,407	279,174	130,802
35,823	-11,324	278,898	130,739
36,838	-11,509	278,811	130,511
37,853	-11,479	278,487	130,376
38,867	-11,418	278,280	130,325
39,882	-11,533	278,173	130,155
40,896	-11,385	277,745	130,083
41,911	-11,619	277,528	129,748
42,926	-11,659	277,348	129,615
43,940	-11,652	277,069	129,480
44,955	-11,586	276,772	129,391
45,969	-11,516	276,504	129,321
46,984	-11,715	276,241	128,998
47,999	-11,916	276,087	128,726
49,013	-12,008	275,855	128,520
50,028	-12,060	275,369	128,233
51,042	-12,177	275,281	128,071
52,057	-12,241	274,977	127,858
53,071	-12,032	274,758	127,940
54,086	-12,016	274,711	127,922
55,101	-11,802	274,506	128,016
56,115	-11,564	274,359	128,158
57,130	-11,488	274,070	128,082
58,144	-11,190	273,874	128,258
59,159	-11,335	273,640	128,002
60,174	-11,343	273,527	127,930
61,188	-11,120	273,130	127,940
62,203	-11,363	273,022	127,652
63,217	-11,356	272,936	127,607
64,232	-11,350	272,507	127,401
65,247	-11,264	272,284	127,365
66,261	-11,355	272,151	127,207
67,276	-11,288	271,722	127,057
68,290	-11,464	271,452	126,757
69,305	-11,799	271,320	126,375
70,320	-11,642	271,002	126,360
71,334	-11,483	270,893	126,444
72,349	-11,392	270,858	126,501
73,363	-11,295	270,614	126,465
74,378	-11,214	270,332	126,396
75,393	-11,375	270,213	126,181
76,407	-11,154	269,801	126,180
77,422	-11,289	269,595	125,949
78,436	-11,174	269,426	125,965
79,451	-11,215	269,121	125,773
80,466	-11,331	268,887	125,546
81,480	-11,392	268,653	125,371
82,495	-11,448	268,478	125,226
83,509	-11,499	268,280	125,076
84,524	-11,395	268,140	125,095
85,539	-11,561	267,794	124,770
86,553	-11,618	267,710	124,669
87,568	-11,357	267,367	124,735
88,582	-11,615	267,336	124,475
89,597	-11,514	266,921	124,363
90,611	-11,310	266,906	124,529
91,626	-11,356	266,786	124,421
92,641	-11,209	266,330	124,329
93,655	-11,441	266,292	124,091
94,670	-11,430	266,105	124,003
95,684	-11,370	265,906	123,953
96,699	-11,184	265,557	123,947
97,714	-11,275	265,369	123,767
98,728	-11,312	265,176	123,632
99,743	-11,536	264,803	123,246
100,757	-11,427	264,706	123,288
101,772	-11,546	264,567	123,105
102,787	-11,412	264,413	123,143
103,801	-11,440	264,232	123,022
104,816	-11,431	264,148	122,980
105,830	-11,445	264,080	122,925
106,845	-11,292	263,816	122,928
107,860	-11,320	263,439	122,717
108,874	-11,234	263,267	122,702
109,889	-11,395	263,084	122,463
110,903	-11,424	262,878	122,329
111,918	-11,358	262,555	122,227
112,933	-11,320	262,569	122,256
113,947	-11,191	262,272	122,222
114,962	-11,273	262,159	122,085
115,976	-11,381	262,021	121,914
116,991	-11,396	261,613	121,701
118,006	-11,171	261,532	121,851
119,020	-11,205	261,419	121,758
120,035	-11,281	261,407	121,675
121,049	-11,358	261,085	121,445
122,064	-11,286	260,820	121,375
123,079	-11,389	260,761	121,246
124,093	-11,356	260,449	121,119
125,108	-11,203	259,972	121,021
126,122	-11,681	260,061	120,630
127,137	-11,663	259,659	120,449
128,151	-11,722	259,501	120,313
129,166	-11,640	259,375	120,316
130,181	-11,657	259,210	120,214
131,195	-11,550	258,873	120,140
132,210	-11,438	258,785	120,187
133,224	-11,309	258,623	120,214
134,239	-11,338	258,530	120,134
135,254	-11,429	258,206	119,894
136,268	-11,492	258,072	119,766
137,283	-11,458	257,775	119,647
138,297	-11,723	257,530	119,292
139,312	-11,903	257,428	119,077
140,327	-11,601	257,208	119,228
141,341	-11,203	257,200	119,560
142,356	-11,312	257,065	119,391
143,370	-11,364	256,863	119,242
144,385	-11,224	256,535	119,201
145,400	-11,061	256,343	119,241
146,414	-11,108	256,162	119,106
147,429	-11,236	255,984	118,902
148,443	-11,176	255,904	118,906
149,458	-11,016	255,752	118,963
150,473	-10,986	255,494	118,859
151,487	-11,231	255,198	118,499
152,502	-11,507	255,292	118,294
153,516	-11,174	254,914	118,395
154,531	-11,293	254,786	118,223
155,546	-10,992	254,404	118,293
156,560	-11,150	254,240	118,071
157,575	-11,308	254,176	117,895
158,589	-10,961	253,923	118,065
159,604	-11,199	253,822	117,803
160,619	-11,160	253,555	117,702
161,633	-11,149	253,280	117,574
162,648	-11,271	253,300	117,468
163,662	-11,195	253,107	117,433
164,677	-11,092	252,891	117,410
165,692	-11,195	252,724	117,234
166,706	-11,022	252,602	117,315
167,721	-11,020	252,375	117,200
168,735	-10,983	252,291	117,183
169,750	-11,205	252,018	116,857
170,764	-10,967	251,895	116,991
171,779	-11,157	251,869	116,808
172,794	-11,015	251,730	116,853
173,808	-10,889	251,330	116,763
174,823	-11,417	251,143	116,219
175,837	-11,564	250,811	115,931
176,852	-11,244	250,935	116,249
177,867	-11,183	250,662	116,164
178,881	-11,018	250,568	116,249
179,896	-11,108	250,370	116,070
180,910	-11,108	250,269	116,014
181,925	-11,237	250,085	115,809
182,940	-11,093	249,871	115,821
183,954	-11,149	249,730	115,698
184,969	-11,053	249,539	115,680
185,983	-11,033	249,228	115,542
186,998	-11,098	249,223	115,475
188,013	-11,203	249,133	115,335
189,027	-11,050	248,810	115,304
190,042	-11,203	248,671	115,101
191,056	-11,212	248,518	115,013
192,071	-11,205	248,246	114,882
193,086	-11,206	248,170	114,836
194,100	-11,179	247,969	114,755
195,115	-11,020	247,892	114,841
196,129	-10,970	247,602	114,739
197,144	-10,832	247,236	114,674
198,159	-11,089	247,251	114,456
199,173	-11,192	246,979	114,235
200,188	-11,279	246,869	114,101
201,202	-11,254	246,533	113,957
202,217	-11,659	246,418	113,558
203,232	-11,622	246,147	113,453
204,246	-11,152	246,028	113,777
205,261	-10,898	245,840	113,891
206,275	-11,884	245,432	112,877
207,290	-8,293	246,991	116,565
208,304	-0,235	249,661	124,556
209,319	4,324	250,824	128,943
210,334	4,814	250,860	129,360
211,348	4,688	250,801	129,212
212,363	5,174	250,744	129,578
213,377	5,242	250,587	129,541
214,392	5,140	250,386	129,341
215,407	4,769	250,333	128,993
216,421	4,858	250,070	128,920
217,436	5,075	249,970	129,038
218,450	5,207	249,602	128,946
219,465	4,914	249,384	128,579
220,480	4,842	249,209	128,417
221,494	4,542	249,075	128,087
222,509	4,633	249,003	128,114
223,523	4,663	248,789	128,018
224,538	4,318	248,404	127,524
225,553	4,205	248,417	127,425
226,567	4,585	248,354	127,695
227,582	4,662	248,100	127,617
228,596	4,447	247,908	127,329
229,611	4,366	247,625	127,106
230,626	4,117	247,556	126,854
231,640	4,283	247,365	126,882
232,655	4,460	247,219	126,941
233,669	4,475	246,909	126,783
234,684	4,319	246,655	126,514
235,699	4,495	246,812	126,727
236,713	4,706	246,643	126,802
237,728	4,258	246,578	126,390
238,742	4,225	246,173	126,144
239,757	4,222	246,049	126,067
240,772	4,272	245,746	125,941
241,786	4,226	245,830	125,935
242,801	4,292	245,560	125,840
243,815	4,279	245,482	125,778
244,830	4,271	245,338	125,687
245,844	4,509	245,191	125,794
246,859	4,306	244,941	125,489
247,874	4,282	244,678	125,324
248,888	4,562	244,646	125,523
249,903	4,234	244,584	125,214
250,917	4,469	244,476	125,339
251,932	4,869	244,258	125,540
252,947	4,685	244,048	125,272
253,961	4,251	243,829	124,797
254,976	4,458	243,769	124,923
255,990	4,553	243,594	124,899
257,005	4,498	243,168	124,625
258,020	4,050	243,230	124,284
259,034	4,449	243,120	124,539
260,049	4,492	242,925	124,462
261,063	4,195	242,851	124,174
262,078	4,386	242,533	124,154
263,093	4,524	242,525	124,250
264,107	4,541	242,335	124,154
265,122	4,115	242,116	123,689
266,136	4,317	242,114	123,840
267,151	4,744	241,961	124,093
268,166	4,298	241,633	123,556
269,180	4,177	241,437	123,348
270,195	4,865	241,476	123,908
271,209	5,031	241,559	124,072
272,224	4,538	241,033	123,397
273,239	3,858	240,813	122,731
274,253	4,046	240,692	122,808
275,268	4,339	240,577	122,972
276,282	4,474	240,483	123,021
277,297	4,018	240,263	122,534
278,312	4,312	240,038	122,642
279,326	4,395	239,990	122,673
280,341	4,364	239,879	122,580
281,355	4,346	239,747	122,487
282,370	4,632	239,555	122,605
283,384	4,528	239,348	122,406
284,399	4,192	239,189	122,048
285,414	3,975	238,999	121,769
286,428	4,153	238,927	121,862
287,443	4,165	238,770	121,780
288,457	4,287	238,881	121,922
289,472	4,306	238,570	121,767
290,487	4,490	238,399	121,815
291,501	4,134	238,144	121,393
292,516	4,033	237,916	121,186
293,530	3,808	237,826	120,953
294,545	4,422	237,796	121,410
295,560	4,377	237,636	121,282
296,574	4,084	237,357	120,899
297,589	4,258	237,209	120,949
298,603	4,599	237,182	121,192
299,618	4,701	236,988	121,162
300,633	4,603	236,862	121,010
301,647	4,609	236,825	120,985
302,662	4,816	236,761	121,104
303,676	4,601	236,473	120,777
304,691	4,697	236,255	120,730
305,706	4,691	236,187	120,679
306,720	4,829	236,118	120,741
307,735	4,687	235,786	120,451
308,749	4,623	235,605	120,298
309,764	4,221	235,482	119,911
310,779	4,082	235,254	119,676
311,793	3,962	235,056	119,472
312,808	3,989	234,865	119,385
313,822	3,910	234,712	119,235
314,837	4,214	234,507	119,356
315,852	3,903	234,465	119,083
316,866	4,116	234,426	119,218
317,881	4,236	234,185	119,178
318,895	4,201	233,960	119,025
319,910	4,720	233,958	119,415
320,925	4,623	233,807	119,252
321,939	4,321	233,646	118,926
322,954	4,475	233,633	119,027
323,968	4,413	233,478	118,890
324,983	4,306	233,263	118,688
325,997	4,544	233,233	118,845
327,012	4,584	233,072	118,783
328,027	4,283	232,916	118,462
329,041	4,737	232,844	118,763
330,056	5,105	232,823	119,024
331,070	5,227	232,639	119,013
332,085	4,821	232,350	118,543
333,100	4,362	232,152	118,081
334,114	4,619	231,921	118,150
335,129	4,895	231,916	118,347
336,143	4,842	231,826	118,250
337,158	4,579	231,654	117,952
338,173	4,327	231,546	117,694
339,187	4,398	231,165	117,544
340,202	4,394	231,148	117,522
341,216	4,500	231,037	117,535
342,231	4,227	230,823	117,209
343,246	4,339	230,632	117,185
344,260	4,501	230,393	117,177
345,275	4,586	230,477	117,273
346,289	4,734	230,354	117,313
347,304	4,747	230,132	117,199
348,319	4,950	230,018	117,284
349,333	4,683	229,737	116,929
350,348	4,373	229,670	116,650
351,362	4,502	229,577	116,690
352,377	4,347	229,322	116,433
353,392	4,218	228,996	116,159
354,406	4,112	229,066	116,105
355,421	194,395	1321,372	1393,487
356,435	155,877	1454,406	1393,463
