DTS Sentinel unit serial number:	SN410029Multiplexer serial number:	ORYXHardware model number:	OX2-SRSoftware version number:	ORYX F/W v4,00 Oryx Data Collector v3.7.2.0data status	okinstallation	B5 Nyhavnadifferential loss correction	single-endedforward channel	channel 2reverse channel	N/Adate	2023/12/12time	06:07:13forward acquisition time	300,00reverse acquisition time	0,00gamma	499,1914k internal	0,3157k external	0,3157temperature offset calibration	1,0000default loss term (dB/km)	0,3820temperature slope calibration	1,0000multiplexer offset coefficient	1,0000multiplexer slope coefficient	1,0000fibre end	0,00T internal ref (°C)	15,27T ext. ref 1 (°C)	-1,14T ext. ref 2 (°C)	-1,43length (m)	temperature (°C)	Stokes	anti-Stokes-744,400	247,426	0,132	0,165
-743,385	50,068	-0,316	-0,220
-742,371	-8,447	0,119	0,059
-741,356	-22,503	-0,212	0,094
-740,342	160,445	0,032	0,033
-739,327	-124,604	-0,352	0,040
-738,312	-83,376	0,064	0,015
-737,298	-70,041	-0,346	0,096
-736,283	-138,243	0,208	0,017
-735,269	-182,773	-0,241	-0,003
-734,254	-200,000	0,025	0,216
-733,239	-93,670	-0,347	-0,070
-732,225	-49,725	0,146	0,051
-731,210	-124,994	0,124	-0,014
-730,196	-28,261	0,055	-0,023
-729,181	-99,101	-0,109	0,020
-728,167	-67,240	-0,047	-0,013
-727,152	108,038	-0,102	-0,089
-726,137	800,000	-0,017	-0,051
-725,123	-200,000	0,018	-0,063
-724,108	-80,452	-0,104	-0,025
-723,094	-61,386	-0,158	-0,049
-722,079	-75,820	-0,049	-0,013
-721,064	-200,000	-0,001	-0,112
-720,050	-84,303	-0,060	0,014
-719,035	-200,000	-0,009	-0,046
-718,021	-200,000	-0,006	-0,158
-717,006	-70,600	-0,132	0,036
-715,991	800,000	0,022	-0,060
-714,977	800,000	0,003	0,007
-713,962	-4,833	-0,156	-0,079
-712,948	-47,670	-0,105	-0,037
-711,933	97,942	0,074	0,062
-710,918	33,268	-0,126	-0,081
-709,904	800,000	0,052	-0,127
-708,889	-200,000	0,000	-0,006
-707,875	-127,747	0,026	-0,003
-706,860	527,955	-0,086	0,150
-705,845	99,901	0,109	0,093
-704,831	-49,827	0,009	0,003
-703,816	139,566	-0,131	-0,127
-702,802	800,000	0,045	-0,140
-701,787	-112,620	-0,053	0,008
-700,772	353,677	-0,120	-0,177
-699,758	25,329	0,035	-0,022
-698,743	-200,000	-0,008	0,043
-697,729	185,269	0,096	0,105
-696,714	-200,000	0,027	0,127
-695,699	402,758	-0,048	-0,074
-694,685	-200,000	-0,017	0,120
-693,670	800,000	-0,037	-0,097
-692,656	203,633	0,031	0,035
-691,641	800,000	0,025	-0,058
-690,627	4,527	0,143	-0,077
-689,612	386,395	-0,030	0,046
-688,597	-53,116	0,058	0,020
-687,583	0,102	-0,063	-0,033
-686,568	-200,000	-0,004	0,016
-685,554	533,576	-0,006	-0,010
-684,539	19,562	-0,078	-0,046
-683,524	170,360	0,015	0,016
-682,510	-200,000	0,005	0,116
-681,495	-200,000	-0,002	0,105
-680,481	-200,000	-0,031	-0,113
-679,466	-200,000	0,005	-0,064
-678,451	48,811	0,035	0,024
-677,437	19,028	-0,110	-0,065
-676,422	800,000	0,058	-0,170
-675,408	-23,123	-0,018	-0,008
-674,393	-143,276	0,057	-0,004
-673,378	-200,000	-0,018	-0,172
-672,364	-200,000	0,007	-0,048
-671,349	17,506	-0,041	-0,024
-670,335	709,164	0,023	0,046
-669,320	267,317	-0,003	-0,004
-668,305	511,881	-0,039	0,068
-667,291	220,082	-0,017	0,021
-666,276	273,699	0,068	0,088
-665,262	227,365	-0,018	0,022
-664,247	274,271	0,043	0,057
-663,232	-200,000	-0,011	-0,059
-662,218	-200,000	0,010	0,105
-661,203	150,097	-0,045	0,044
-660,189	-200,000	0,010	-0,035
-659,174	-160,300	0,036	0,001
-658,159	800,000	-0,067	-0,150
-657,145	-127,231	0,019	-0,002
-656,130	800,000	-0,060	-0,123
-655,116	-200,000	-0,002	-0,201
-654,101	247,864	-0,090	0,112
-653,086	-165,419	0,075	0,002
-652,072	332,392	-0,050	-0,071
-651,057	-17,803	-0,086	-0,039
-650,043	33,603	0,098	-0,063
-649,028	18,086	-0,135	0,079
-648,014	-200,000	-0,003	0,093
-646,999	-16,277	0,124	0,058
-645,984	239,511	0,117	-0,143
-644,970	140,299	-0,085	0,083
-643,955	-68,365	-0,209	-0,059
-642,941	447,598	0,058	-0,093
-641,926	-24,012	-0,068	-0,030
-640,911	43,624	-0,045	0,030
-639,897	548,217	0,027	0,047
-638,882	-200,000	0,007	0,098
-637,868	83,706	-0,113	0,091
-636,853	-97,038	-0,227	-0,043
-635,838	-200,000	-0,011	-0,110
-634,824	-110,515	0,069	-0,010
-633,809	260,866	0,058	0,073
-632,795	-59,487	-0,120	0,037
-631,780	38,377	0,100	-0,066
-630,765	-129,579	0,044	0,004
-629,751	86,143	-0,116	-0,094
-628,736	76,844	-0,160	-0,124
-627,722	-116,515	0,087	-0,012
-626,707	203,101	-0,094	0,106
-625,692	-200,000	-0,014	0,135
-624,678	545,338	-0,034	0,060
-623,663	515,971	0,022	-0,038
-622,649	182,226	-0,111	-0,121
-621,634	227,998	-0,061	0,073
-620,619	-131,868	-0,106	-0,010
-619,605	800,000	0,051	0,113
-618,590	90,307	-0,041	0,034
-617,576	-200,000	-0,002	0,123
-616,561	-200,000	0,001	0,060
-615,546	218,178	-0,096	-0,113
-614,532	800,000	-0,024	0,052
-613,517	-40,931	-0,124	-0,047
-612,503	-200,000	0,002	-0,015
-611,488	-200,000	0,005	0,057
-610,474	-55,872	-0,035	-0,011
-609,459	-200,000	0,024	0,097
-608,444	244,498	0,051	-0,062
-607,430	201,765	0,062	-0,070
-606,415	-200,000	0,039	-0,135
-605,401	-200,000	-0,010	0,055
-604,386	-135,457	-0,156	0,013
-603,371	-52,072	0,065	0,022
-602,357	800,000	0,018	-0,052
-601,342	125,235	0,080	0,074
-600,328	-129,667	-0,110	-0,011
-599,313	-188,214	0,012	-0,000
-598,298	41,881	0,047	0,031
-597,284	444,442	0,093	0,151
-596,269	-53,076	-0,076	-0,025
-595,255	94,053	0,055	-0,046
-594,240	-200,000	-0,027	0,132
-593,225	47,591	-0,086	-0,059
-592,211	-200,000	-0,001	0,114
-591,196	-59,168	-0,110	0,035
-590,182	15,133	0,123	0,071
-589,167	800,000	0,031	0,066
-588,152	-200,000	-0,050	0,236
-587,138	89,752	0,066	-0,054
-586,123	-77,334	-0,120	-0,030
-585,109	800,000	0,018	0,036
-584,094	-200,000	0,021	-0,078
-583,079	-200,000	-0,010	0,051
-582,065	459,457	0,008	-0,013
-581,050	-38,573	0,073	0,028
-580,036	-154,098	-0,221	0,011
-579,021	92,437	0,039	-0,032
-578,006	44,031	-0,036	-0,024
-576,992	-200,000	-0,019	0,075
-575,977	-200,000	-0,005	-0,074
-574,963	84,347	0,109	0,087
-573,948	-200,000	0,008	-0,044
-572,934	-200,000	-0,002	0,056
-571,919	-200,000	-0,001	-0,042
-570,904	800,000	0,098	-0,226
-569,890	-200,000	-0,022	-0,113
-568,875	-200,000	-0,013	-0,059
-567,861	-200,000	0,028	0,114
-566,846	-89,239	0,157	-0,034
-565,831	-200,000	-0,002	-0,022
-564,817	328,517	0,123	-0,173
-563,802	64,013	-0,120	-0,088
-562,788	156,552	0,095	-0,096
-561,773	715,358	0,039	0,075
-560,758	431,357	0,056	0,089
-559,744	375,161	-0,076	0,114
-558,729	232,634	-0,095	0,114
-557,715	104,330	0,027	-0,024
-556,700	-200,000	-0,007	-0,063
-555,685	688,608	-0,020	-0,039
-554,671	363,149	-0,018	-0,026
-553,656	179,041	-0,041	0,044
-552,642	24,307	-0,043	-0,026
-551,627	190,951	-0,040	-0,045
-550,612	-69,752	-0,188	-0,052
-549,598	332,610	-0,062	-0,088
-548,583	-128,244	-0,108	0,011
-547,569	-112,019	-0,054	0,008
-546,554	97,700	0,100	-0,084
-545,539	105,820	0,101	-0,088
-544,525	-38,903	-0,049	0,019
-543,510	-200,000	-0,000	0,084
-542,496	287,983	-0,165	-0,219
-541,481	350,807	0,050	-0,073
-540,466	-200,000	-0,019	-0,205
-539,452	-200,000	0,008	0,049
-538,437	671,392	-0,011	0,021
-537,423	-95,559	0,112	0,022
-536,408	-49,390	-0,112	-0,039
-535,393	28,698	-0,070	-0,043
-534,379	-200,000	-0,010	-0,042
-533,364	800,000	-0,010	-0,031
-532,350	-65,794	-0,020	0,006
-531,335	-36,921	-0,051	0,020
-530,321	-200,000	-0,005	0,037
-529,306	-2,700	-0,093	0,048
-528,291	414,333	-0,100	-0,156
-527,277	326,616	0,024	0,033
-526,262	-200,000	0,007	-0,123
-525,248	198,582	-0,036	-0,041
-524,233	-7,264	0,066	0,033
-523,218	465,325	-0,030	-0,049
-522,204	800,000	-0,006	0,017
-521,189	-18,064	0,060	-0,027
-520,175	-88,975	-0,008	-0,002
-519,160	-200,000	-0,016	0,142
-518,145	800,000	-0,058	0,146
-517,131	800,000	-0,023	-0,067
-516,116	800,000	-0,051	-0,157
-515,102	-112,610	0,094	0,014
-514,087	800,000	-0,033	-0,080
-513,072	-46,002	0,053	-0,019
-512,058	123,195	0,057	-0,052
-511,043	693,047	-0,075	0,145
-510,029	675,848	-0,046	0,088
-509,014	148,779	0,067	0,067
-507,999	203,683	-0,104	-0,118
-506,985	-110,683	-0,039	0,006
-505,970	318,395	0,043	-0,060
-504,956	167,600	0,090	-0,094
-503,941	800,000	-0,012	-0,038
-502,926	-171,022	0,089	-0,002
-501,912	800,000	-0,043	0,089
-500,897	58,853	-0,107	0,077
-499,883	800,000	0,057	0,141
-498,868	-96,731	0,128	0,024
-497,853	-32,843	-0,068	0,027
-496,839	-115,966	-0,158	-0,021
-495,824	800,000	-0,004	-0,009
-494,810	94,965	0,156	0,130
-493,795	800,000	0,044	0,094
-492,781	686,065	-0,052	-0,100
-491,766	-200,000	-0,009	0,060
-490,751	187,127	-0,076	-0,083
-489,737	-200,000	-0,022	-0,077
-488,722	-130,217	0,085	-0,008
-487,708	112,503	0,061	0,054
-486,693	-28,357	0,062	-0,026
-485,678	-200,000	0,004	-0,042
-484,664	-141,291	-0,135	-0,010
-483,649	-200,000	0,001	-0,136
-482,635	567,130	0,030	-0,052
-481,620	139,742	0,064	0,062
-480,605	39,109	0,147	0,096
-479,591	-51,089	-0,039	-0,013
-478,576	64,549	0,073	-0,054
-477,562	22,276	-0,103	-0,062
-476,547	-200,000	0,014	0,119
-475,532	431,192	0,082	-0,130
-474,518	423,526	-0,035	-0,055
-473,503	-15,760	0,062	0,029
-472,489	5,941	-0,060	0,032
-471,474	-200,000	-0,015	-0,051
-470,459	205,846	-0,047	-0,053
-469,445	34,425	0,033	-0,021
-468,430	467,337	-0,036	0,059
-467,416	-63,676	0,040	0,012
-466,401	279,282	-0,070	0,091
-465,386	-200,000	-0,003	-0,158
-464,372	47,234	0,051	0,035
-463,357	91,468	-0,043	0,035
-462,343	-19,650	0,027	-0,012
-461,328	269,612	-0,020	-0,026
-460,313	-200,000	-0,011	-0,248
-459,299	194,515	0,085	0,094
-458,284	264,824	0,026	0,034
-457,270	-200,000	-0,002	0,176
-456,255	161,545	-0,093	0,095
-455,241	-3,704	-0,041	0,021
-454,226	-0,619	0,148	0,076
-453,211	26,706	0,041	0,025
-452,197	-88,498	-0,048	-0,010
-451,182	-26,405	0,003	0,001
-450,168	-12,693	0,093	0,044
-449,153	81,264	-0,080	0,063
-448,138	-79,292	-0,161	0,039
-447,124	54,673	-0,088	-0,062
-446,109	-71,347	0,061	-0,017
-445,095	-200,000	0,021	0,102
-444,080	12,667	0,058	0,032
-443,065	162,827	0,038	0,039
-442,051	137,478	0,095	0,090
-441,036	17,834	-0,073	0,042
-440,022	54,528	-0,022	-0,015
-439,007	393,216	-0,038	-0,058
-437,992	800,000	0,003	0,006
-436,978	190,689	-0,029	0,031
-435,963	-200,000	0,045	0,000
-434,949	-100,172	-0,167	-0,030
-433,934	191,062	0,086	-0,095
-432,919	-200,000	0,031	-0,119
-431,905	-36,028	-0,093	0,036
-430,890	24,953	0,082	0,050
-429,876	-79,978	-0,237	0,058
-428,861	582,668	0,067	0,121
-427,846	36,513	-0,123	-0,079
-426,832	800,000	0,018	-0,049
-425,817	24,343	0,120	-0,072
-424,803	-200,000	-0,018	-0,127
-423,788	510,884	-0,037	-0,063
-422,773	800,000	-0,006	0,016
-421,759	-136,960	0,042	-0,003
-420,744	715,489	0,024	0,046
-419,730	-11,991	-0,033	0,016
-418,715	5,952	-0,080	-0,043
-417,701	-200,000	0,000	0,116
-416,686	184,087	0,046	0,049
-415,671	-115,772	0,086	0,012
-414,657	-161,916	-0,060	-0,002
-413,642	-53,102	-0,142	0,047
-412,628	-51,334	0,044	0,015
-411,613	-200,000	0,013	-0,073
-410,598	800,000	-0,056	-0,173
-409,584	-111,955	-0,136	-0,020
-408,569	2,728	-0,053	0,028
-407,555	-40,121	-0,069	-0,026
-406,540	-131,869	0,106	0,010
-405,525	-55,530	0,140	-0,045
-404,511	497,143	-0,072	-0,121
-403,496	348,816	0,034	-0,048
-402,482	-200,000	-0,000	0,028
-401,467	-66,646	-0,090	-0,026
-400,452	-81,702	0,087	0,021
-399,438	-129,741	0,136	-0,013
-398,423	369,319	-0,003	-0,004
-397,409	188,401	-0,145	-0,157
-396,394	-122,649	-0,057	-0,007
-395,379	64,132	-0,075	0,055
-394,365	-200,000	-0,029	0,152
-393,350	-200,000	0,016	0,064
-392,336	572,018	0,027	-0,047
-391,321	30,325	0,111	0,069
-390,306	800,000	-0,102	0,255
-389,292	62,258	-0,109	-0,079
-388,277	-200,000	-0,009	0,036
-387,263	800,000	0,069	0,177
-386,248	163,981	0,137	0,140
-385,233	474,110	0,101	0,166
-384,219	-103,233	-0,102	-0,017
-383,204	-173,219	0,084	0,002
-382,190	55,577	-0,111	-0,078
-381,175	800,000	-0,023	-0,047
-380,160	-41,928	0,051	0,019
-379,146	-2,073	-0,069	-0,035
-378,131	420,392	0,042	0,065
-377,117	-200,000	-0,031	-0,114
-376,102	311,674	-0,060	0,082
-375,088	-200,000	0,003	-0,088
-374,073	412,815	-0,041	-0,063
-373,058	-102,862	-0,148	0,025
-372,044	-50,130	0,075	0,026
-371,029	-200,000	0,012	0,105
-370,015	-26,356	-0,125	0,053
-369,000	122,860	-0,130	0,118
-367,985	152,108	-0,045	0,045
-366,971	-110,623	0,176	0,026
-365,956	125,946	-0,053	-0,049
-364,942	-46,701	-0,030	0,010
-363,927	140,096	0,085	0,081
-362,912	-61,577	0,174	0,053
-361,898	-132,533	0,094	0,009
-360,883	96,668	-0,089	-0,074
-359,869	-12,571	0,143	-0,068
-358,854	-200,000	0,007	0,063
-357,839	-200,000	0,002	0,186
-356,825	-92,017	0,155	0,032
-355,810	-13,127	-0,086	-0,040
-354,796	157,690	-0,034	0,034
-353,781	-200,000	0,003	-0,024
-352,766	-75,590	0,031	-0,008
-351,752	-47,998	-0,029	0,010
-350,737	44,874	0,075	0,050
-349,723	-100,551	-0,064	0,011
-348,708	-124,108	-0,093	-0,010
-347,693	-181,600	0,039	-0,001
-346,679	-200,000	0,027	-0,102
-345,664	-70,064	-0,036	0,010
-344,650	111,136	-0,066	-0,058
-343,635	-200,000	0,037	0,166
-342,620	1,668	0,084	-0,044
-341,606	-200,000	0,006	0,086
-340,591	266,856	0,037	0,047
-339,577	172,846	-0,029	0,031
-338,562	36,367	0,026	0,016
-337,548	-141,871	0,080	0,006
-336,533	269,608	-0,078	0,099
-335,518	-86,828	0,179	0,039
-334,504	800,000	0,022	-0,065
-333,489	229,829	-0,067	0,079
-332,475	-200,000	0,009	-0,170
-331,460	-200,000	0,018	0,084
-330,445	-200,000	0,024	-0,108
-329,431	-90,094	0,094	0,020
-328,416	-200,000	-0,009	0,218
-327,402	-43,020	0,028	0,010
-326,387	800,000	0,033	0,069
-325,372	-200,000	-0,027	-0,131
-324,358	-200,000	-0,012	-0,103
-323,343	-200,000	-0,010	-0,069
-322,329	280,822	-0,063	-0,081
-321,314	-200,000	0,011	-0,114
-320,299	-10,524	-0,012	-0,006
-319,285	37,072	0,053	0,034
-318,270	17,236	0,159	-0,091
-317,256	82,445	-0,028	0,022
-316,241	-200,000	-0,004	-0,074
-315,226	-14,420	0,069	-0,032
-314,212	800,000	0,028	-0,067
-313,197	-123,384	0,137	0,016
-312,183	800,000	0,023	-0,056
-311,168	-200,000	0,021	-0,106
-310,153	104,346	-0,053	-0,046
-309,139	-200,000	-0,034	0,113
-308,124	800,000	0,052	-0,117
-307,110	349,285	0,055	0,079
-306,095	800,000	-0,026	0,073
-305,080	-34,431	0,077	-0,031
-304,066	44,027	-0,010	0,006
-303,051	-79,392	-0,071	-0,017
-302,037	149,766	-0,061	-0,060
-301,022	125,240	0,104	-0,095
-300,008	-99,455	0,059	0,011
-298,993	800,000	0,021	0,054
-297,978	193,020	-0,040	0,044
-296,964	-28,064	-0,084	0,035
-295,949	148,779	0,109	-0,107
-294,935	-200,000	0,028	-0,189
-293,920	363,082	0,063	0,092
-292,905	221,549	-0,074	-0,086
-291,891	75,318	0,067	-0,051
-290,876	-200,000	0,012	-0,101
-289,862	800,000	0,042	0,085
-288,847	13,283	-0,111	-0,062
-287,832	-59,528	0,112	0,035
-286,818	-200,000	-0,009	-0,067
-285,803	92,881	0,024	0,020
-284,789	-7,636	0,101	0,049
-283,774	365,837	-0,057	0,083
-282,759	800,000	0,043	-0,110
-281,745	-200,000	0,044	0,162
-280,730	30,012	0,091	0,056
-279,716	748,190	0,037	-0,073
-278,701	745,584	-0,023	0,045
-277,686	127,255	0,106	0,097
-276,672	-2,147	0,132	0,067
-275,657	19,113	-0,064	-0,037
-274,643	43,196	0,053	0,035
-273,628	-200,000	-0,023	0,106
-272,613	259,632	0,089	0,112
-271,599	64,564	0,044	-0,032
-270,584	-21,043	0,144	0,063
-269,570	91,878	0,135	-0,110
-268,555	151,569	-0,116	0,114
-267,540	-88,961	-0,082	0,017
-266,526	52,112	-0,046	0,032
-265,511	-51,086	-0,051	0,017
-264,497	69,970	0,078	0,058
-263,482	800,000	0,038	-0,085
-262,467	-184,405	0,094	0,001
-261,453	-200,000	-0,017	0,070
-260,438	82,601	0,108	-0,085
-259,424	-42,489	0,081	0,030
-258,409	488,254	-0,057	-0,094
-257,395	-200,000	-0,034	-0,119
-256,380	-29,263	-0,088	0,037
-255,365	110,248	-0,014	0,012
-254,351	-200,000	-0,006	-0,136
-253,336	-200,000	0,032	-0,110
-252,322	436,418	0,004	0,007
-251,307	180,146	-0,083	-0,088
-250,292	-24,473	0,046	0,020
-249,278	-200,000	-0,043	0,143
-248,263	8,641	-0,088	0,048
-247,249	348,084	-0,038	-0,054
-246,234	216,230	0,057	0,065
-245,219	800,000	-0,076	0,159
-244,205	377,296	-0,118	-0,175
-243,190	515,089	0,045	-0,076
-242,176	205,123	-0,021	0,024
-241,161	485,231	-0,032	0,053
-240,146	-200,000	0,003	0,054
-239,132	8,854	0,096	0,052
-238,117	7,102	-0,136	-0,073
-237,103	88,232	-0,059	-0,048
-236,088	-0,081	0,043	0,022
-235,073	-200,000	-0,028	-0,134
-234,059	343,049	0,078	0,110
-233,044	-29,420	-0,076	-0,031
-232,030	680,974	0,026	-0,049
-231,015	151,308	0,065	0,064
-230,000	125,653	0,105	-0,096
-228,986	-200,000	0,013	0,118
-227,971	-200,000	-0,001	-0,079
-226,957	72,323	-0,073	-0,055
-225,942	-98,398	-0,074	0,014
-224,927	306,125	-0,095	-0,129
-223,913	-41,597	0,022	-0,008
-222,898	800,000	-0,048	0,115
-221,884	179,665	0,092	-0,097
-220,869	124,163	-0,050	0,046
-219,855	2,599	-0,058	-0,030
-218,840	23,181	0,163	-0,096
-217,825	-110,857	-0,158	-0,023
-216,811	172,699	0,076	-0,079
-215,796	-35,299	-0,058	-0,023
-214,782	-200,000	-0,006	0,042
-213,767	-6,466	-0,036	0,018
-212,752	0,893	0,039	0,020
-211,738	-109,230	0,078	0,012
-210,723	-64,250	0,021	0,006
-209,709	0,275	0,017	-0,009
-208,694	254,338	0,045	-0,056
-207,679	-200,000	0,001	0,032
-206,665	236,819	0,101	-0,121
-205,650	800,000	0,039	0,086
-204,636	-50,353	0,081	-0,027
-203,621	-3,322	-0,030	0,015
-202,606	-200,000	0,006	-0,037
-201,592	-200,000	-0,017	0,080
-200,577	-200,000	-0,007	-0,048
-199,563	158,195	-0,037	0,037
-198,548	317,594	0,164	0,225
-197,533	-102,866	0,153	0,026
-196,519	800,000	-0,057	0,116
-195,504	-75,611	-0,120	-0,031
-194,490	-200,000	0,027	-0,090
-193,475	59,677	-0,045	-0,032
-192,460	-164,102	0,136	-0,004
-191,446	800,000	0,017	-0,039
-190,431	-109,387	0,052	0,008
-189,417	218,978	0,077	-0,089
-188,402	-200,000	-0,019	-0,133
-187,387	-117,068	-0,200	-0,026
-186,373	-87,982	0,098	0,021
-185,358	800,000	-0,078	0,168
-184,344	188,160	0,024	-0,026
-183,329	-200,000	-0,006	-0,019
-182,315	82,195	0,048	0,037
-181,300	-186,021	0,062	-0,001
-180,285	-200,000	-0,017	-0,056
-179,271	-41,844	-0,080	-0,029
-178,256	800,000	0,033	-0,067
-177,242	0,426	-0,054	0,028
-176,227	-55,762	-0,087	0,028
-175,212	259,539	-0,019	0,024
-174,198	-173,561	-0,025	0,001
-173,183	-200,000	0,011	-0,061
-172,169	-2,130	0,012	-0,006
-171,154	83,347	0,050	0,040
-170,139	236,088	0,027	-0,032
-169,125	800,000	0,022	0,060
-168,110	-60,726	0,121	0,037
-167,096	800,000	-0,044	0,108
-166,081	-200,000	-0,002	-0,133
-165,066	-7,846	-0,113	-0,055
-164,052	-154,482	0,073	-0,003
-163,037	-200,000	-0,008	0,091
-162,023	-76,209	0,097	0,024
-161,008	18,121	-0,060	0,034
-159,993	-130,401	0,055	0,005
-158,979	78,646	0,014	0,011
-157,964	5,807	0,042	0,022
-156,950	800,000	-0,038	-0,094
-155,935	-17,259	-0,021	-0,010
-154,920	80,993	0,161	-0,125
-153,906	364,770	-0,046	0,067
-152,891	-36,678	0,119	0,046
-151,877	-78,442	-0,044	0,011
-150,862	215,412	-0,079	-0,091
-149,847	800,000	-0,033	-0,080
-148,833	-139,327	-0,040	0,003
-147,818	-48,945	0,078	0,027
-146,804	145,016	0,080	-0,077
-145,789	368,936	-0,108	0,158
-144,775	-128,120	-0,038	-0,004
-143,760	-200,000	-0,053	-0,189
-142,745	-200,000	0,006	0,050
-141,731	-78,789	0,177	-0,043
-140,716	223,053	0,049	-0,057
-139,702	-200,000	-0,001	0,085
-138,687	397,472	0,093	-0,141
-137,672	34,129	-0,148	0,093
-136,658	85,410	0,027	0,021
-135,643	-37,856	-0,163	0,062
-134,629	-85,451	-0,160	0,036
-133,614	35,718	0,093	0,059
-132,599	234,416	-0,090	0,107
-131,585	-200,000	-0,001	0,192
-130,570	32,260	-0,082	-0,051
-129,556	800,000	0,032	-0,079
-128,541	120,789	-0,068	-0,061
-127,526	136,169	0,113	0,106
-126,512	-200,000	0,004	-0,016
-125,497	387,931	0,066	0,099
-124,483	544,884	0,054	-0,094
-123,468	800,000	-0,023	-0,065
-122,453	-200,000	0,006	0,158
-121,439	-200,000	-0,030	0,097
-120,424	-200,000	0,029	0,150
-119,410	29,842	0,016	-0,010
-118,395	-129,860	0,062	0,006
-117,380	525,499	-0,080	-0,136
-116,366	800,000	0,039	0,084
-115,351	459,322	-0,010	-0,016
-114,337	-200,000	0,028	0,093
-113,322	192,143	-0,144	0,156
-112,307	800,000	-0,019	-0,044
-111,293	557,107	0,069	0,120
-110,278	317,546	0,039	-0,053
-109,264	800,000	-0,023	0,068
-108,249	-162,187	-0,025	0,001
-107,234	800,000	-0,017	0,042
-106,220	-200,000	0,005	-0,075
-105,205	-129,432	-0,104	-0,010
-104,191	-200,000	0,012	0,040
-103,176	-200,000	0,032	0,105
-102,162	192,154	-0,061	0,066
-101,147	-3,859	-0,021	0,010
-100,132	-200,000	0,008	0,040
-99,118	1,358	-0,114	0,059
-98,103	328,635	0,074	0,102
-97,089	-200,000	-0,008	0,041
-96,074	-200,000	0,012	0,056
-95,059	-200,000	0,028	-0,130
-94,045	-200,000	0,013	-0,135
-93,030	-24,252	0,042	-0,018
-92,016	27,240	0,012	0,007
-91,001	-128,426	-0,119	0,012
-89,986	258,052	0,136	0,168
-88,972	-15,265	0,056	0,026
-87,957	-200,000	-0,004	-0,024
-86,943	-154,550	0,122	-0,006
-85,928	84,213	-0,117	-0,092
-84,913	-200,000	-0,003	-0,051
-83,899	68,694	0,069	-0,051
-82,884	-63,545	0,047	0,014
-81,870	510,121	-0,031	0,052
-80,855	17,340	0,045	-0,025
-79,840	25,748	0,020	0,012
-78,826	313,506	-0,067	0,090
-77,811	-166,551	-0,077	-0,002
-76,797	-77,172	0,127	0,032
-75,782	-99,771	-0,093	0,017
-74,767	-200,000	0,026	0,165
-73,753	-200,000	-0,008	0,133
-72,738	-200,000	-0,002	-0,014
-71,724	158,084	0,148	-0,147
-70,709	800,000	0,005	-0,017
-69,694	256,631	-0,023	-0,029
-68,680	-200,000	0,000	-0,123
-67,665	-88,713	0,154	-0,032
-66,651	-200,000	-0,006	-0,066
-65,636	-200,000	0,011	-0,052
-64,622	6,287	-0,217	-0,115
-63,607	-74,441	-0,162	-0,042
-62,592	-111,500	0,116	-0,017
-61,578	-200,000	-0,026	-0,151
-60,563	800,000	-0,004	-0,012
-59,549	83,135	0,043	0,034
-58,534	6,710	-1,914	-1,019
-57,519	800,000	-0,301	-0,856
-56,505	-200,000	-1,218	-4,971
-55,490	-11,214	0,899	0,424
-54,476	800,000	5,174	12,125
-53,461	-200,000	17,648	285,083
-52,446	800,000	727,914	2218,244
-51,432	535,407	1644,047	2809,932
-50,417	110,126	1634,577	1408,175
-49,403	75,981	1286,754	975,912
-48,388	32,143	1027,644	634,709
-47,373	20,140	989,716	571,693
-46,359	18,477	977,552	559,193
-45,344	15,619	973,547	547,523
-44,330	15,860	971,956	547,395
-43,315	15,382	969,946	544,680
-42,300	15,315	968,941	543,877
-41,286	15,285	968,062	543,263
-40,271	15,296	966,903	542,628
-39,257	15,275	966,216	542,154
-38,242	15,309	965,241	541,695
-37,227	15,296	964,430	541,174
-36,213	15,322	963,413	540,667
-35,198	15,320	962,613	540,191
-34,184	15,337	961,831	539,785
-33,169	15,241	961,095	539,041
-32,154	15,383	959,841	538,775
-31,140	15,282	959,045	537,981
-30,125	15,302	958,452	537,689
-29,111	15,257	957,757	537,134
-28,096	15,312	956,929	536,827
-27,082	15,327	956,103	536,388
-26,067	15,321	955,421	535,967
-25,052	15,290	954,645	535,408
-24,038	15,245	954,182	534,986
-23,023	15,288	953,292	534,603
-22,009	15,336	952,820	534,471
-20,994	15,402	951,941	534,166
-19,979	15,366	951,404	533,729
-18,965	15,320	950,941	533,302
-17,950	15,303	950,113	532,762
-16,936	15,219	949,703	532,243
-15,921	15,270	948,843	531,902
-14,906	15,177	948,283	531,271
-13,892	15,200	947,639	530,961
-12,877	15,189	946,967	530,528
-11,863	15,237	946,133	530,193
-10,848	15,154	945,955	529,808
-9,833	15,247	945,271	529,701
-8,819	15,286	944,602	529,427
-7,804	15,237	944,030	528,931
-6,790	15,214	943,414	528,493
-5,775	15,239	942,842	528,228
-4,760	15,165	942,350	527,699
-3,746	15,231	941,440	527,377
-2,731	15,110	940,856	526,647
-1,717	15,025	940,281	526,035
-0,702	15,052	939,647	525,745
0,313	14,913	938,910	525,686
1,327	18,182	936,727	534,714
2,342	27,213	794,009	477,168
3,356	23,797	459,283	270,759
4,371	-3,376	314,862	156,692
5,386	-7,403	296,649	143,533
6,400	-9,454	290,580	138,545
7,415	-9,951	288,096	136,858
8,429	-10,135	286,652	135,980
9,444	-10,004	285,518	135,558
10,459	-10,065	284,980	135,231
11,473	-10,294	284,487	134,762
12,488	-9,913	283,877	134,831
13,502	-10,053	283,339	134,428
14,517	-9,978	282,890	134,275
15,531	-9,996	282,620	134,118
16,546	-9,966	282,223	133,946
17,561	-9,996	281,691	133,653
18,575	-9,761	281,500	133,777
19,590	-10,030	281,139	133,335
20,604	-10,074	280,856	133,146
21,619	-9,988	280,400	133,001
22,634	-10,086	280,108	132,756
23,648	-9,807	279,659	132,799
24,663	-9,974	279,364	132,487
25,677	-10,061	279,265	132,346
26,692	-10,009	278,945	132,231
27,707	-9,899	278,674	132,196
28,721	-10,002	278,288	131,903
29,736	-10,018	278,164	131,817
30,750	-9,957	277,926	131,750
31,765	-10,121	277,588	131,424
32,780	-10,052	277,482	131,427
33,794	-9,920	277,123	131,371
34,809	-10,010	276,810	131,125
35,823	-10,080	276,556	130,926
36,838	-10,112	276,417	130,819
37,853	-9,975	276,043	130,759
38,867	-10,119	275,772	130,484
39,882	-10,013	275,711	130,543
40,896	-10,008	275,496	130,434
41,911	-10,067	275,073	130,167
42,926	-10,053	274,864	130,070
43,940	-10,049	274,700	129,984
44,955	-10,094	274,560	129,864
45,969	-10,228	274,098	129,509
46,984	-10,448	274,035	129,262
47,999	-10,499	273,649	129,021
49,013	-10,477	273,384	128,905
50,028	-10,577	273,190	128,709
51,042	-10,693	273,059	128,527
52,057	-10,870	272,629	128,149
53,071	-10,634	272,434	128,265
54,086	-10,575	272,357	128,272
55,101	-10,482	272,159	128,254
56,115	-10,259	271,967	128,359
57,130	-9,948	271,764	128,540
58,144	-9,908	271,504	128,442
59,159	-9,911	271,348	128,354
60,174	-9,976	271,179	128,203
61,188	-10,040	270,938	128,018
62,203	-10,018	270,687	127,908
63,217	-10,184	270,529	127,670
64,232	-10,027	270,184	127,639
65,247	-9,820	269,963	127,714
66,261	-9,817	269,843	127,649
67,276	-10,064	269,514	127,255
68,290	-10,366	269,264	126,849
69,305	-10,366	269,024	126,724
70,320	-10,253	268,822	126,722
71,334	-9,985	268,597	126,850
72,349	-9,846	268,401	126,873
73,363	-9,969	268,242	126,673
74,378	-9,880	267,939	126,600
75,393	-10,059	267,815	126,367
76,407	-9,951	267,539	126,324
77,422	-9,822	267,427	126,377
78,436	-9,872	267,116	126,173
79,451	-9,989	267,039	126,020
80,466	-9,923	266,651	125,885
81,480	-9,963	266,289	125,667
82,495	-10,250	266,436	125,465
83,509	-9,991	266,140	125,549
84,524	-10,258	265,952	125,208
85,539	-10,013	265,548	125,227
86,553	-10,187	265,342	124,962
87,568	-10,051	265,157	124,986
88,582	-10,094	265,007	124,866
89,597	-10,152	264,756	124,684
90,611	-10,106	264,649	124,664
91,626	-10,069	264,526	124,628
92,641	-9,948	264,205	124,575
93,655	-9,859	263,867	124,484
94,670	-9,960	263,762	124,333
95,684	-10,115	263,784	124,193
96,699	-9,848	263,343	124,213
97,714	-10,065	263,167	123,925
98,728	-10,176	262,841	123,661
99,743	-10,273	262,744	123,519
100,757	-10,234	262,477	123,417
101,772	-10,166	262,320	123,392
102,787	-10,230	262,186	123,261
103,801	-9,941	262,025	123,431
104,816	-10,044	261,868	123,255
105,830	-9,947	261,677	123,240
106,845	-9,908	261,515	123,188
107,860	-9,879	261,422	123,159
108,874	-10,038	261,144	122,876
109,889	-10,081	260,891	122,708
110,903	-10,219	260,645	122,459
111,918	-9,837	260,330	122,637
112,933	-9,982	260,206	122,440
113,947	-9,828	260,104	122,518
114,962	-9,819	259,801	122,371
115,976	-9,900	259,586	122,188
116,991	-10,029	259,606	122,073
118,006	-10,050	259,339	121,918
119,020	-9,802	259,034	121,982
120,035	-9,801	259,048	121,978
121,049	-9,850	258,764	121,791
122,064	-9,931	258,785	121,719
123,079	-9,820	258,373	121,612
124,093	-9,782	258,181	121,543
125,108	-10,209	258,024	121,085
126,122	-10,213	257,791	120,961
127,137	-10,227	257,592	120,845
128,151	-10,292	257,377	120,677
129,166	-10,098	257,128	120,718
130,181	-10,169	257,056	120,612
131,195	-10,339	256,843	120,353
132,210	-9,944	256,736	120,636
133,224	-10,020	256,357	120,381
134,239	-9,840	256,345	120,521
135,254	-9,813	255,972	120,358
136,268	-10,057	255,935	120,119
137,283	-10,290	255,615	119,756
138,297	-10,332	255,394	119,606
139,312	-10,363	255,163	119,460
140,327	-10,093	255,185	119,692
141,341	-9,821	255,036	119,847
142,356	-9,807	254,909	119,789
143,370	-9,751	254,688	119,723
144,385	-9,924	254,602	119,523
145,400	-9,615	254,417	119,690
146,414	-9,644	254,093	119,503
147,429	-9,999	253,943	119,117
148,443	-9,958	253,906	119,124
149,458	-9,863	253,570	119,037
150,473	-9,820	253,374	118,971
151,487	-9,963	252,993	118,660
152,502	-9,735	253,082	118,886
153,516	-9,696	252,868	118,808
154,531	-9,834	252,745	118,622
155,546	-9,732	252,429	118,550
156,560	-9,654	252,179	118,488
157,575	-10,086	252,118	118,081
158,589	-9,767	251,872	118,226
159,604	-9,823	251,618	118,049
160,619	-9,676	251,414	118,068
161,633	-9,878	251,299	117,832
162,648	-9,842	251,261	117,834
163,662	-9,854	251,219	117,793
164,677	-9,806	250,957	117,701
165,692	-9,804	250,864	117,648
166,706	-9,837	250,704	117,535
167,721	-9,713	250,341	117,459
168,735	-9,698	250,140	117,368
169,750	-9,794	250,102	117,258
170,764	-9,650	250,060	117,350
171,779	-9,778	249,790	117,104
172,794	-9,567	249,595	117,180
173,808	-9,898	249,490	116,842
174,823	-10,235	249,047	116,341
175,837	-10,382	249,038	116,202
176,852	-9,883	248,800	116,500
177,867	-9,831	248,933	116,595
178,881	-9,721	248,675	116,556
179,896	-9,753	248,411	116,396
180,910	-9,792	248,212	116,260
181,925	-9,535	247,871	116,304
182,940	-9,560	247,837	116,256
183,954	-9,839	247,789	115,991
184,969	-9,719	247,631	116,007
185,983	-9,535	247,327	116,007
186,998	-9,762	247,232	115,763
188,013	-9,594	247,017	115,792
189,027	-9,678	246,742	115,583
190,042	-9,697	246,576	115,479
191,056	-9,667	246,571	115,491
192,071	-9,703	246,268	115,309
193,086	-9,872	246,129	115,094
194,100	-9,684	245,897	115,130
195,115	-9,751	245,855	115,045
196,129	-9,625	245,665	115,051
197,144	-9,958	245,477	114,677
198,159	-9,689	245,349	114,829
199,173	-9,937	245,139	114,516
200,188	-9,620	244,891	114,651
201,202	-10,042	244,581	114,148
202,217	-10,281	244,285	113,804
203,232	-10,274	244,186	113,753
204,246	-9,862	243,987	113,989
205,261	-9,422	244,032	114,360
206,275	-10,454	243,567	113,286
207,290	-7,557	244,889	116,277
208,304	-0,482	247,146	123,202
209,319	3,513	248,029	126,943
210,334	3,967	248,050	127,318
211,348	3,799	248,089	127,188
212,363	4,311	247,880	127,493
213,377	4,315	247,830	127,459
214,392	4,031	247,564	127,077
215,407	3,966	247,479	126,968
216,421	3,958	247,274	126,845
217,436	4,297	247,011	126,977
218,450	4,273	247,054	126,969
219,465	4,068	246,674	126,594
220,480	3,627	246,615	126,190
221,494	3,921	246,435	126,328
222,509	4,042	246,231	126,311
223,523	3,891	245,973	126,043
224,538	3,472	245,634	125,515
225,553	3,668	245,558	125,626
226,567	3,592	245,542	125,545
227,582	3,976	245,300	125,724
228,596	3,978	245,205	125,666
229,611	3,446	244,961	125,095
230,626	3,340	244,778	124,904
231,640	3,563	244,527	124,946
232,655	3,561	244,628	124,985
233,669	3,652	244,146	124,802
234,684	3,427	244,025	124,545
235,699	3,747	244,192	124,881
236,713	4,099	244,041	125,078
237,728	3,590	243,841	124,551
238,742	3,277	243,505	124,115
239,757	3,306	243,308	124,026
240,772	3,531	243,218	124,151
241,786	3,634	243,155	124,192
242,801	3,500	242,932	123,958
243,815	3,534	242,631	123,821
244,830	3,588	242,439	123,755
245,844	3,655	242,452	123,806
246,859	3,624	242,269	123,677
247,874	3,488	242,089	123,464
248,888	3,470	242,010	123,398
249,903	3,784	241,892	123,579
250,917	3,538	241,756	123,301
251,932	3,788	241,634	123,429
252,947	3,972	241,308	123,399
253,961	3,556	241,117	122,956
254,976	3,473	241,081	122,861
255,990	3,968	240,849	123,128
257,005	3,707	240,714	122,839
258,020	3,446	240,488	122,505
259,034	3,449	240,436	122,470
260,049	3,512	240,322	122,451
261,063	3,372	240,149	122,240
262,078	3,442	239,810	122,112
263,093	3,716	239,849	122,339
264,107	3,745	239,690	122,271
265,122	3,520	239,539	122,004
266,136	3,555	239,366	121,933
267,151	3,825	239,292	122,099
268,166	3,658	239,089	121,852
269,180	3,268	238,960	121,465
270,195	4,028	238,908	122,031
271,209	4,007	238,826	121,961
272,224	3,705	238,307	121,446
273,239	3,578	238,058	121,208
274,253	3,589	238,101	121,228
275,268	3,764	237,885	121,245
276,282	3,511	237,771	120,977
277,297	3,261	237,647	120,706
278,312	3,633	237,469	120,898
279,326	3,769	237,323	120,920
280,341	3,502	237,309	120,692
281,355	3,666	237,090	120,698
282,370	3,750	237,024	120,721
283,384	3,588	236,832	120,485
284,399	3,559	236,519	120,291
285,414	3,489	236,316	120,123
286,428	3,471	236,403	120,142
287,443	3,573	236,125	120,070
288,457	3,626	236,054	120,065
289,472	3,992	235,811	120,216
290,487	3,625	235,662	119,844
291,501	3,669	235,395	119,731
292,516	3,318	235,235	119,365
293,530	3,305	235,151	119,302
294,545	3,833	235,003	119,628
295,560	3,809	234,853	119,522
296,574	3,256	234,746	119,026
297,589	3,528	234,701	119,205
298,603	3,793	234,548	119,323
299,618	3,693	234,489	119,204
300,633	3,799	234,208	119,133
301,647	3,612	234,253	119,000
302,662	4,290	234,064	119,419
303,676	4,160	233,972	119,260
304,691	3,910	233,790	118,963
305,706	4,022	233,595	118,941
306,720	4,112	233,403	118,901
307,735	3,959	233,234	118,686
308,749	3,854	232,918	118,434
309,764	3,710	232,862	118,284
310,779	3,370	232,740	117,950
311,793	3,314	232,412	117,730
312,808	3,521	232,219	117,781
313,822	3,459	232,123	117,674
314,837	3,271	232,047	117,480
315,852	3,403	231,924	117,509
316,866	3,600	231,934	117,655
317,881	3,738	231,777	117,670
318,895	3,888	231,596	117,683
319,910	4,053	231,434	117,717
320,925	3,730	231,174	117,327
321,939	3,579	231,114	117,171
322,954	3,788	230,961	117,242
323,968	3,486	230,767	116,903
324,983	3,524	230,649	116,862
325,997	3,883	230,534	117,066
327,012	3,998	230,354	117,052
328,027	3,454	230,353	116,628
329,041	3,655	230,062	116,622
330,056	3,853	230,055	116,759
331,070	3,915	229,919	116,726
332,085	4,105	229,712	116,755
333,100	4,062	229,599	116,654
334,114	3,877	229,362	116,384
335,129	3,850	229,270	116,306
336,143	3,874	229,120	116,238
337,158	4,049	229,136	116,367
338,173	4,047	228,779	116,175
339,187	3,906	228,714	116,025
340,202	3,850	228,678	115,954
341,216	3,959	228,371	115,870
342,231	3,781	228,259	115,669
343,246	3,614	228,155	115,480
344,260	3,856	228,117	115,633
345,275	3,937	227,937	115,592
346,289	4,118	227,739	115,617
347,304	4,086	227,546	115,485
348,319	4,025	227,531	115,421
349,333	3,816	227,291	115,133
350,348	3,998	226,939	115,080
351,362	3,652	227,103	114,895
352,377	3,523	226,822	114,645
353,392	3,184	226,598	114,269
354,406	3,537	226,516	114,481
355,421	194,913	1321,376	1396,326
356,435	156,230	1454,759	1396,318
