DTS Sentinel unit serial number:	SN410029Multiplexer serial number:	ORYXHardware model number:	OX2-SRSoftware version number:	ORYX F/W v4,00 Oryx Data Collector v3.7.2.0data status	okinstallation	B5 Nyhavnadifferential loss correction	single-endedforward channel	channel 2reverse channel	N/Adate	2023/12/13time	22:22:13forward acquisition time	300,00reverse acquisition time	0,00gamma	499,1914k internal	0,3154k external	0,3154temperature offset calibration	1,0000default loss term (dB/km)	0,3820temperature slope calibration	1,0000multiplexer offset coefficient	1,0000multiplexer slope coefficient	1,0000fibre end	0,00T internal ref (°C)	9,44T ext. ref 1 (°C)	-7,23T ext. ref 2 (°C)	-7,27length (m)	temperature (°C)	Stokes	anti-Stokes-744,400	-200,000	0,025	0,130
-743,385	-33,036	-0,345	-0,141
-742,371	50,357	0,241	0,168
-741,356	-80,156	-0,346	0,085
-740,342	800,000	0,055	0,132
-739,327	-48,094	-0,266	-0,094
-738,312	-200,000	-0,000	0,074
-737,298	-105,848	-0,383	-0,063
-736,283	-40,014	0,192	0,074
-735,269	-9,110	-0,362	-0,178
-734,254	6,212	0,085	-0,046
-733,239	-66,484	-0,628	-0,183
-732,225	-111,147	0,277	0,041
-731,210	-94,982	-0,144	0,028
-730,196	-63,192	0,134	0,041
-729,181	-99,760	-0,113	0,021
-728,167	-68,434	0,123	-0,035
-727,152	800,000	0,065	0,149
-726,137	453,635	-0,030	0,049
-725,123	-78,901	-0,082	-0,020
-724,108	-200,000	-0,032	-0,132
-723,094	4,236	-0,093	-0,050
-722,079	800,000	-0,041	-0,127
-721,064	123,674	-0,063	-0,058
-720,050	-200,000	-0,044	-0,280
-719,035	218,414	0,061	-0,072
-718,021	-200,000	-0,033	0,115
-717,006	-54,105	-0,074	-0,025
-715,991	-51,539	-0,083	-0,028
-714,977	-18,597	-0,186	-0,085
-713,962	-163,414	-0,164	0,006
-712,948	655,826	-0,022	-0,042
-711,933	-7,667	-0,040	0,020
-710,918	-133,173	-0,094	-0,009
-709,904	-14,087	-0,108	-0,051
-708,889	8,006	-0,203	-0,112
-707,875	402,319	0,100	0,156
-706,860	-31,437	0,154	0,064
-705,845	-2,886	-0,044	-0,022
-704,831	-200,000	-0,010	0,189
-703,816	45,169	0,024	0,016
-702,802	-32,550	-0,054	0,022
-701,787	113,052	0,040	0,036
-700,772	179,425	0,035	-0,038
-699,758	34,332	-0,038	-0,024
-698,743	-16,182	0,075	-0,035
-697,729	248,230	0,057	-0,071
-696,714	427,511	0,067	0,106
-695,699	-28,765	-0,097	0,041
-694,685	800,000	-0,068	-0,172
-693,670	231,606	-0,036	-0,043
-692,656	704,617	0,013	0,026
-691,641	548,386	0,031	-0,055
-690,627	45,034	-0,118	0,080
-689,612	-76,612	-0,162	0,041
-688,597	247,652	-0,044	0,054
-687,583	-200,000	-0,005	-0,027
-686,568	-131,615	-0,118	-0,011
-685,554	60,649	-0,054	-0,039
-684,539	-185,456	0,150	0,002
-683,524	560,646	0,053	0,095
-682,510	-200,000	0,000	0,111
-681,495	158,163	0,088	-0,090
-680,481	-90,186	-0,073	-0,015
-679,466	113,355	0,069	0,061
-678,451	84,916	-0,061	0,049
-677,437	16,734	0,101	-0,059
-676,422	91,228	0,015	-0,013
-675,408	800,000	-0,018	0,054
-674,393	800,000	0,041	-0,086
-673,378	103,093	-0,087	-0,075
-672,364	340,145	0,055	-0,079
-671,349	50,503	-0,158	0,110
-670,335	42,969	-0,112	0,075
-669,320	-125,204	-0,055	0,006
-668,305	-2,180	0,087	0,045
-667,291	-200,000	0,014	0,064
-666,276	208,860	-0,060	0,069
-665,262	269,021	0,047	0,060
-664,247	800,000	-0,034	0,077
-663,232	150,762	-0,040	0,040
-662,218	-28,453	-0,145	0,061
-661,203	-200,000	0,016	-0,052
-660,189	450,438	-0,049	0,080
-659,174	177,182	-0,022	-0,024
-658,159	-200,000	0,046	-0,207
-657,145	-31,454	-0,015	-0,006
-656,130	-190,623	0,166	-0,001
-655,116	20,603	-0,071	-0,042
-654,101	72,307	0,094	0,072
-653,086	-156,225	0,047	-0,002
-652,072	-126,532	-0,134	-0,014
-651,057	473,460	-0,080	-0,133
-650,043	259,751	-0,024	-0,031
-649,028	800,000	0,044	0,126
-648,014	-91,511	0,096	-0,020
-646,999	-99,893	-0,059	0,011
-645,984	233,682	-0,094	-0,114
-644,970	800,000	-0,040	-0,086
-643,955	800,000	-0,035	-0,096
-642,941	800,000	-0,018	0,043
-641,926	-52,720	0,054	-0,018
-640,911	-119,464	0,019	0,002
-639,897	-200,000	-0,044	0,158
-638,882	-61,227	0,122	-0,038
-637,868	-168,000	0,043	0,001
-636,853	-41,804	-0,118	0,044
-635,838	-55,151	-0,036	0,012
-634,824	-200,000	0,005	-0,168
-633,809	-200,000	-0,007	-0,059
-632,795	-200,000	0,005	-0,027
-631,780	110,601	0,126	-0,111
-630,765	-67,041	-0,124	-0,036
-629,751	127,883	0,044	-0,041
-628,736	107,461	-0,157	-0,137
-627,722	48,719	0,068	-0,047
-626,707	292,630	0,066	0,089
-625,692	-200,000	-0,009	0,121
-624,678	169,647	-0,159	0,167
-623,663	-122,070	0,022	-0,003
-622,649	-200,000	0,003	-0,064
-621,634	800,000	-0,036	-0,105
-620,619	800,000	0,022	-0,071
-619,605	-148,758	-0,132	-0,008
-618,590	163,461	0,096	-0,099
-617,576	-105,409	-0,079	-0,013
-616,561	-145,093	-0,093	-0,006
-615,546	800,000	-0,020	-0,063
-614,532	-5,250	-0,078	0,039
-613,517	-26,172	-0,100	0,043
-612,503	-37,319	0,108	0,042
-611,488	800,000	-0,035	-0,079
-610,474	-200,000	0,001	0,076
-609,459	107,898	-0,097	0,084
-608,444	791,143	-0,005	0,010
-607,430	110,411	0,053	0,046
-606,415	-76,032	0,076	-0,020
-605,401	-1,114	-0,113	-0,058
-604,386	-200,000	0,042	-0,162
-603,371	-122,870	0,046	-0,005
-602,357	51,655	0,042	0,029
-601,342	800,000	0,036	-0,084
-600,328	-200,000	0,014	-0,087
-599,313	-200,000	0,054	-0,179
-598,298	-200,000	0,008	0,105
-597,284	165,149	-0,059	-0,061
-596,269	49,212	0,040	0,028
-595,255	-97,624	0,076	0,014
-594,240	-52,860	-0,167	-0,056
-593,225	71,497	-0,119	-0,091
-592,211	221,040	0,065	0,077
-591,196	-176,118	0,116	0,002
-590,182	333,966	0,029	0,042
-589,167	51,170	0,097	-0,067
-588,152	-63,894	0,028	-0,008
-587,138	-55,054	0,031	-0,010
-586,123	-97,611	0,086	-0,016
-585,109	-200,000	-0,034	-0,133
-584,094	800,000	0,043	0,102
-583,079	-59,513	0,048	-0,015
-582,065	278,888	0,089	0,117
-581,050	-200,000	0,018	0,082
-580,036	11,878	-0,096	-0,054
-579,021	490,061	-0,057	-0,096
-578,006	-200,000	-0,007	-0,103
-576,992	-200,000	-0,011	0,067
-575,977	-51,766	-0,084	-0,028
-574,963	254,656	-0,060	0,075
-573,948	800,000	0,028	0,079
-572,934	533,953	-0,048	0,083
-571,919	279,224	0,064	-0,084
-570,904	-200,000	-0,039	-0,133
-569,890	800,000	0,008	0,022
-568,875	242,823	-0,045	0,055
-567,861	800,000	-0,009	-0,025
-566,846	-200,000	0,015	0,127
-565,831	-200,000	-0,012	0,040
-564,817	114,525	-0,088	0,078
-563,802	-200,000	0,008	-0,051
-562,788	-34,164	0,059	0,024
-561,773	-200,000	0,017	-0,110
-560,758	202,458	0,060	-0,067
-559,744	-200,000	-0,005	0,072
-558,729	-57,931	0,008	-0,002
-557,715	-200,000	-0,031	-0,247
-556,700	161,800	0,070	-0,071
-555,685	-174,502	-0,127	0,003
-554,671	-12,730	0,089	0,042
-553,656	71,884	0,097	-0,074
-552,642	249,307	0,060	0,074
-551,627	100,228	-0,095	0,081
-550,612	162,382	-0,042	0,043
-549,598	706,985	-0,053	0,103
-548,583	-173,568	0,056	0,001
-547,569	-138,358	-0,095	0,008
-546,554	-41,840	0,143	-0,053
-545,539	17,900	-0,105	0,061
-544,525	-200,000	0,015	0,072
-543,510	371,983	-0,035	0,052
-542,496	-128,035	-0,125	-0,013
-541,481	-126,505	0,032	-0,003
-540,466	127,999	0,011	-0,010
-539,452	-162,571	0,115	-0,004
-538,437	472,822	0,088	0,146
-537,423	-7,274	-0,103	0,051
-536,408	-200,000	-0,010	0,040
-535,393	-91,261	0,083	0,017
-534,379	-19,866	-0,082	-0,037
-533,364	-101,759	-0,137	0,024
-532,350	183,058	-0,050	0,054
-531,335	-132,736	-0,096	0,009
-530,321	-76,474	0,058	-0,015
-529,306	-200,000	-0,006	0,023
-528,291	153,887	-0,066	-0,066
-527,277	93,517	0,035	-0,029
-526,262	132,346	-0,032	-0,030
-525,248	11,240	0,052	0,029
-524,233	84,122	0,105	0,084
-523,218	800,000	-0,041	-0,089
-522,204	800,000	-0,046	-0,096
-521,189	800,000	-0,018	-0,042
-520,175	-4,972	0,074	-0,037
-519,160	-118,918	-0,123	0,016
-518,145	800,000	-0,035	0,103
-517,131	800,000	0,026	0,074
-516,116	-55,110	-0,006	-0,002
-515,102	-11,067	-0,130	-0,063
-514,087	-155,322	-0,125	0,006
-513,072	215,005	-0,104	-0,120
-512,058	347,335	-0,023	-0,033
-511,043	123,414	0,107	-0,098
-510,029	-200,000	-0,011	0,040
-509,014	-200,000	0,007	0,101
-507,999	-163,223	0,062	-0,002
-506,985	-29,473	0,068	-0,028
-505,970	-200,000	-0,014	0,064
-504,956	-7,311	-0,029	-0,014
-503,941	800,000	-0,039	0,083
-502,926	-105,330	-0,101	-0,017
-501,912	494,573	0,049	0,083
-500,897	-200,000	-0,004	0,062
-499,883	-96,929	0,079	-0,015
-498,868	800,000	-0,055	-0,114
-497,853	-58,564	0,097	0,031
-496,839	-200,000	-0,009	-0,065
-495,824	-200,000	-0,005	0,060
-494,810	-90,295	0,041	0,009
-493,795	-11,701	0,124	0,059
-492,781	-196,382	-0,049	0,000
-491,766	-200,000	0,001	-0,025
-490,751	215,675	-0,039	-0,046
-489,737	139,225	0,078	-0,075
-488,722	56,439	-0,056	0,040
-487,708	56,722	0,065	0,046
-486,693	-200,000	-0,017	0,108
-485,678	-200,000	0,008	-0,049
-484,664	-63,811	-0,183	-0,054
-483,649	-41,849	-0,150	-0,056
-482,635	-200,000	0,010	-0,087
-481,620	-103,275	0,088	-0,015
-480,605	-200,000	0,001	-0,038
-479,591	800,000	0,018	0,043
-478,576	161,894	-0,058	-0,060
-477,562	-124,640	-0,025	0,003
-476,547	604,316	-0,032	0,059
-475,532	-145,910	-0,101	-0,006
-474,518	154,336	-0,114	0,115
-473,503	-200,000	0,011	-0,151
-472,489	-200,000	0,011	-0,072
-471,474	-44,880	0,130	0,047
-470,459	73,978	-0,067	0,051
-469,445	800,000	-0,057	-0,116
-468,430	167,009	-0,026	-0,027
-467,416	352,620	-0,038	0,055
-466,401	156,733	0,102	-0,103
-465,386	-200,000	-0,002	0,039
-464,372	-200,000	-0,046	-0,157
-463,357	24,426	-0,069	0,041
-462,343	-115,439	0,069	0,009
-461,328	-200,000	-0,024	0,126
-460,313	-200,000	0,035	-0,120
-459,299	34,820	-0,072	-0,046
-458,284	-200,000	0,028	0,131
-457,270	800,000	-0,023	0,069
-456,255	-200,000	0,014	-0,095
-455,241	208,165	-0,032	0,036
-454,226	800,000	-0,027	0,062
-453,211	100,128	-0,071	0,060
-452,197	-200,000	0,008	-0,079
-451,182	-200,000	-0,001	0,132
-450,168	-26,638	-0,181	0,077
-449,153	82,952	0,066	-0,052
-448,138	-200,000	0,005	0,044
-447,124	-151,052	0,076	-0,004
-446,109	143,624	-0,071	-0,069
-445,095	-200,000	0,003	0,071
-444,080	-92,263	-0,005	0,001
-443,065	316,299	0,098	0,135
-442,051	-41,570	0,127	-0,047
-441,036	800,000	-0,042	-0,104
-440,022	234,983	-0,050	0,060
-439,007	205,434	0,035	-0,039
-437,992	-200,000	0,003	-0,029
-436,978	205,145	-0,030	-0,034
-435,963	69,157	-0,071	-0,053
-434,949	211,136	0,037	-0,043
-433,934	70,074	-0,048	-0,036
-432,919	324,484	-0,064	-0,089
-431,905	-200,000	0,004	-0,088
-430,890	-200,000	-0,017	0,235
-429,876	-45,316	-0,067	0,024
-428,861	323,949	0,058	0,081
-427,846	159,602	-0,075	-0,076
-426,832	143,869	0,072	0,070
-425,817	195,868	0,206	-0,228
-424,803	62,830	0,050	0,036
-423,788	33,435	-0,097	0,061
-422,773	126,089	-0,079	0,073
-421,759	232,116	0,092	0,110
-420,744	-200,000	0,026	-0,172
-419,730	800,000	-0,014	-0,032
-418,715	-200,000	-0,047	-0,199
-417,701	-16,362	0,109	0,050
-416,686	-200,000	0,016	0,093
-415,671	68,822	-0,107	-0,080
-414,657	-105,148	0,071	0,012
-413,642	-200,000	0,021	-0,127
-412,628	180,807	-0,070	-0,075
-411,613	176,301	0,056	-0,059
-410,598	-200,000	-0,017	-0,165
-409,584	800,000	0,015	0,040
-408,569	-200,000	0,010	0,032
-407,555	-79,036	-0,096	0,024
-406,540	242,095	0,033	-0,040
-405,525	101,268	0,075	0,064
-404,511	117,793	-0,081	-0,073
-403,496	-200,000	0,014	-0,150
-402,482	-170,423	-0,066	0,002
-401,467	-45,229	0,130	-0,047
-400,452	-200,000	-0,032	0,119
-399,438	-200,000	0,008	-0,108
-398,423	474,121	-0,017	-0,028
-397,409	53,325	0,064	-0,044
-396,394	800,000	0,055	-0,133
-395,379	107,841	0,094	-0,081
-394,365	-58,182	0,111	0,035
-393,350	-66,831	0,084	0,024
-392,336	-200,000	-0,001	0,033
-391,321	-4,739	-0,080	-0,040
-390,306	-22,352	0,046	-0,020
-389,292	-110,951	0,049	-0,007
-388,277	34,171	-0,085	0,054
-387,263	800,000	0,051	0,140
-386,248	351,500	-0,057	0,082
-385,233	413,931	0,067	0,103
-384,219	83,794	-0,031	0,025
-383,204	654,001	-0,034	0,063
-382,190	336,963	-0,010	0,015
-381,175	-32,507	0,030	-0,012
-380,160	167,698	-0,004	-0,004
-379,146	170,143	-0,039	0,041
-378,131	-113,996	0,028	-0,004
-377,117	136,931	0,154	0,146
-376,102	439,093	-0,031	0,049
-375,088	-9,171	0,027	0,013
-374,073	559,125	-0,064	0,114
-373,058	-200,000	0,013	0,179
-372,044	-24,082	0,043	0,018
-371,029	-65,338	0,087	0,025
-370,015	-200,000	0,029	0,108
-369,000	126,996	-0,067	-0,062
-367,985	28,924	-0,060	-0,037
-366,971	-96,832	0,042	0,008
-365,956	343,295	0,074	-0,105
-364,942	-164,049	0,150	-0,005
-363,927	72,370	-0,072	0,054
-362,912	-200,000	0,006	0,075
-361,898	111,348	-0,097	0,085
-360,883	-125,247	0,115	0,013
-359,869	-119,458	-0,125	0,016
-358,854	479,295	-0,020	0,033
-357,839	271,194	0,044	0,057
-356,825	225,443	0,024	0,029
-355,810	-200,000	0,001	-0,007
-354,796	750,222	-0,014	0,027
-353,781	-163,705	-0,176	-0,006
-352,766	800,000	-0,011	-0,032
-351,752	-200,000	0,008	0,073
-350,737	800,000	0,039	0,113
-349,723	-98,908	0,060	-0,011
-348,708	137,396	0,068	0,065
-347,693	604,572	0,033	-0,059
-346,679	800,000	-0,045	-0,137
-345,664	-200,000	-0,007	0,074
-344,650	-200,000	0,013	0,085
-343,635	116,806	0,049	0,044
-342,620	-60,924	0,149	0,046
-341,606	603,060	0,065	0,117
-340,591	144,162	-0,122	-0,118
-339,577	800,000	-0,040	0,099
-338,562	-73,987	-0,143	-0,037
-337,548	800,000	-0,003	-0,008
-336,533	53,466	0,108	-0,075
-335,518	334,631	-0,029	0,041
-334,504	-56,754	0,104	0,033
-333,489	-200,000	0,034	-0,151
-332,475	-129,375	0,126	-0,013
-331,460	-200,000	-0,001	-0,014
-330,445	85,713	0,030	0,024
-329,431	-31,276	0,127	-0,052
-328,416	-24,412	0,083	-0,036
-327,402	-200,000	0,026	-0,260
-326,387	45,214	0,053	-0,035
-325,372	800,000	0,018	0,042
-324,358	406,635	-0,073	-0,113
-323,343	-64,810	-0,091	0,027
-322,329	-61,162	0,099	0,030
-321,314	501,219	-0,041	0,069
-320,299	-200,000	0,010	0,092
-319,285	-108,872	-0,113	-0,017
-318,270	87,579	0,081	0,065
-317,256	123,396	-0,096	0,088
-316,241	-1,372	-0,114	0,058
-315,226	107,532	-0,081	0,070
-314,212	47,916	0,076	0,052
-313,197	375,533	-0,047	0,070
-312,183	734,067	0,007	-0,014
-311,168	313,062	-0,034	0,047
-310,153	5,378	-0,039	0,021
-309,139	800,000	-0,044	-0,090
-308,124	-200,000	-0,021	-0,155
-307,110	-200,000	-0,027	0,089
-306,095	800,000	0,026	0,055
-305,080	201,421	-0,005	-0,005
-304,066	800,000	0,041	0,086
-303,051	-16,811	-0,175	-0,080
-302,037	26,033	-0,045	0,027
-301,022	-200,000	0,021	-0,070
-300,008	447,104	0,076	0,122
-298,993	800,000	0,054	0,111
-297,978	181,055	0,121	-0,129
-296,964	-200,000	0,011	0,048
-295,949	169,635	-0,061	-0,063
-294,935	800,000	-0,038	0,090
-293,920	-125,209	0,084	0,009
-292,905	800,000	0,058	0,116
-291,891	-200,000	-0,010	0,149
-290,876	402,173	0,093	0,143
-289,862	-88,774	-0,152	-0,032
-288,847	38,943	0,050	-0,032
-287,832	800,000	-0,039	0,081
-286,818	800,000	0,022	0,050
-285,803	-200,000	0,021	0,156
-284,789	-200,000	0,004	0,068
-283,774	161,790	-0,056	0,057
-282,759	-51,915	-0,162	0,054
-281,745	37,677	0,043	0,028
-280,730	-200,000	0,013	-0,159
-279,716	-169,537	-0,043	0,001
-278,701	29,294	0,057	0,035
-277,686	-82,190	0,195	0,046
-276,672	-23,446	-0,084	-0,036
-275,657	-200,000	0,018	0,143
-274,643	-200,000	0,012	-0,042
-273,628	435,645	-0,027	0,043
-272,613	681,774	-0,059	0,112
-271,599	106,194	0,125	0,108
-270,584	-200,000	0,016	0,071
-269,570	-47,899	-0,120	0,042
-268,555	-152,888	0,156	-0,008
-267,540	193,928	-0,104	0,115
-266,526	228,362	0,062	0,073
-265,511	470,562	0,044	0,072
-264,497	800,000	-0,029	-0,089
-263,482	278,878	0,125	0,162
-262,467	288,133	-0,064	-0,084
-261,453	800,000	-0,010	0,021
-260,438	184,625	-0,064	-0,069
-259,424	-13,643	-0,022	-0,010
-258,409	339,459	0,037	-0,053
-257,395	184,685	0,081	-0,087
-256,380	7,239	0,077	0,042
-255,365	95,841	0,075	0,062
-254,351	-200,000	0,002	-0,007
-253,336	42,680	-0,064	0,042
-252,322	252,369	-0,040	0,049
-251,307	149,233	-0,054	0,053
-250,292	-57,896	-0,084	-0,026
-249,278	-24,828	0,085	-0,036
-248,263	-200,000	0,017	-0,076
-247,249	487,777	0,016	-0,026
-246,234	-48,465	0,090	0,031
-245,219	200,328	-0,071	0,079
-244,205	-107,845	0,050	-0,008
-243,190	516,963	0,039	0,066
-242,176	-200,000	0,020	0,143
-241,161	87,342	-0,026	0,021
-240,146	800,000	0,020	-0,060
-239,132	-69,178	0,114	-0,031
-238,117	800,000	-0,052	0,111
-237,103	-139,334	0,095	0,007
-236,088	0,061	0,081	-0,042
-235,073	-139,692	-0,089	0,007
-234,059	620,402	0,046	-0,084
-233,044	-200,000	-0,015	0,096
-232,030	-200,000	0,029	-0,153
-231,015	52,404	-0,050	-0,035
-230,000	-200,000	0,002	-0,050
-228,986	-16,516	0,076	-0,035
-227,971	634,702	0,034	0,062
-226,957	-173,956	0,123	-0,003
-225,942	99,675	-0,046	0,038
-224,927	394,091	0,066	-0,100
-223,913	92,633	0,112	-0,092
-222,898	-18,532	-0,124	-0,056
-221,884	-95,375	-0,159	-0,031
-220,869	-200,000	0,018	-0,114
-219,855	-68,700	-0,006	0,002
-218,840	-4,156	-0,035	0,017
-217,825	-19,916	0,109	0,049
-216,811	-3,743	-0,196	-0,098
-215,796	-23,826	0,073	0,031
-214,782	40,798	-0,087	0,057
-213,767	42,495	0,171	0,112
-212,752	-96,839	-0,112	-0,021
-211,738	-55,033	0,057	-0,018
-210,723	-200,000	-0,020	-0,101
-209,709	175,575	-0,093	-0,098
-208,694	800,000	-0,056	-0,117
-207,679	-200,000	-0,004	-0,056
-206,665	-75,480	-0,011	-0,003
-205,650	-7,905	0,039	0,019
-204,636	90,478	0,041	-0,033
-203,621	-200,000	0,000	-0,096
-202,606	-200,000	-0,006	-0,101
-201,592	-88,170	-0,036	0,008
-200,577	800,000	0,052	-0,158
-199,563	28,452	-0,127	-0,077
-198,548	-40,759	0,087	-0,032
-197,533	78,302	0,112	-0,087
-196,519	93,214	0,020	-0,016
-195,504	107,794	-0,071	-0,061
-194,490	-200,000	0,035	-0,175
-193,475	-106,696	0,016	-0,003
-192,460	438,138	-0,078	0,124
-191,446	-118,225	0,080	-0,010
-190,431	-139,035	-0,109	0,008
-189,417	-200,000	0,000	-0,004
-188,402	511,943	-0,063	0,106
-187,387	800,000	0,028	-0,072
-186,373	4,395	0,044	-0,023
-185,358	-200,000	-0,005	-0,093
-184,344	649,855	0,069	0,128
-183,329	209,203	0,051	-0,058
-182,315	-200,000	0,012	-0,130
-181,300	-115,572	-0,039	0,005
-180,285	-200,000	0,011	-0,161
-179,271	-72,129	-0,068	-0,018
-178,256	800,000	0,007	0,014
-177,242	-114,720	0,068	-0,009
-176,227	-14,217	0,063	-0,029
-175,212	-200,000	-0,010	-0,063
-174,198	-180,640	-0,118	-0,002
-173,183	800,000	0,036	-0,074
-172,169	-57,353	-0,039	-0,012
-171,154	441,059	-0,027	-0,043
-170,139	98,697	0,132	0,110
-169,125	382,340	0,050	0,075
-168,110	-200,000	-0,020	0,106
-167,096	-156,548	0,020	0,001
-166,081	-121,301	0,044	0,005
-165,066	-102,213	-0,121	-0,021
-164,052	516,663	0,032	0,054
-163,037	110,736	-0,093	-0,081
-162,023	-200,000	0,028	0,111
-161,008	-110,791	0,039	-0,006
-159,993	139,937	0,028	0,027
-158,979	628,849	0,018	-0,032
-157,964	-80,279	-0,120	0,029
-156,950	402,774	0,021	0,033
-155,935	-95,819	0,016	-0,003
-154,920	42,111	0,082	0,053
-153,906	-70,266	-0,119	0,032
-152,891	-200,000	0,001	-0,008
-151,877	155,815	-0,054	0,054
-150,862	-200,000	-0,019	0,192
-149,847	100,473	-0,075	-0,063
-148,833	353,298	-0,052	0,075
-147,818	-87,334	0,031	-0,007
-146,804	271,552	0,071	-0,091
-145,789	282,330	0,059	0,077
-144,775	-131,648	0,087	0,008
-143,760	75,399	-0,115	0,087
-142,745	362,259	-0,034	-0,049
-141,731	311,981	-0,052	0,070
-140,716	22,345	-0,033	0,020
-139,702	800,000	0,051	-0,120
-138,687	115,804	0,005	0,004
-137,672	-128,456	0,073	0,007
-136,658	20,246	-0,128	-0,074
-135,643	705,964	0,039	0,074
-134,629	331,353	0,055	0,077
-133,614	-126,414	-0,067	-0,007
-132,599	800,000	0,077	0,171
-131,585	-200,000	-0,018	0,155
-130,570	-133,471	-0,193	0,017
-129,556	66,366	-0,040	-0,029
-128,541	-166,079	-0,091	0,003
-127,526	-200,000	0,057	0,183
-126,512	-70,357	0,108	0,029
-125,497	-131,329	0,048	-0,005
-124,483	800,000	0,046	-0,113
-123,468	-25,767	-0,042	0,018
-122,453	-43,253	0,107	0,039
-121,439	800,000	0,038	-0,077
-120,424	-135,614	-0,081	0,007
-119,410	36,992	0,109	0,070
-118,395	-138,886	-0,070	0,005
-117,380	-200,000	-0,006	-0,043
-116,366	-24,811	0,121	-0,052
-115,351	800,000	-0,035	-0,096
-114,337	-47,862	-0,225	-0,078
-113,322	-200,000	0,016	-0,055
-112,307	80,342	0,019	-0,015
-111,293	29,285	-0,034	0,021
-110,278	-200,000	0,004	-0,038
-109,264	-200,000	-0,001	0,088
-108,249	-81,513	0,056	-0,013
-107,234	92,922	-0,090	-0,073
-106,220	-200,000	0,029	-0,157
-105,205	-200,000	-0,024	-0,079
-104,191	248,691	0,047	0,057
-103,176	-200,000	-0,002	0,118
-102,162	-109,946	-0,071	-0,011
-101,147	68,682	-0,051	0,038
-100,132	359,428	-0,078	0,112
-99,118	-200,000	0,002	-0,112
-98,103	-82,029	-0,034	-0,008
-97,089	-122,085	-0,088	0,010
-96,074	3,533	0,045	-0,023
-95,059	-138,266	0,035	0,003
-94,045	-9,376	0,084	0,040
-93,030	-196,839	-0,193	0,001
-92,016	500,995	0,044	-0,073
-91,001	18,442	0,105	0,060
-89,986	-140,517	0,114	-0,008
-88,972	20,972	0,075	-0,044
-87,957	-4,886	0,074	0,036
-86,943	-200,000	-0,003	-0,162
-85,928	50,073	0,046	-0,031
-84,913	800,000	-0,014	-0,044
-83,899	800,000	0,021	0,057
-82,884	-31,110	0,081	0,033
-81,870	-200,000	0,006	-0,043
-80,855	-114,078	0,055	-0,008
-79,840	-92,337	-0,151	-0,030
-78,826	800,000	0,035	-0,098
-77,811	-200,000	0,036	-0,121
-76,797	30,023	0,020	0,012
-75,782	366,783	0,030	-0,044
-74,767	-200,000	-0,011	-0,038
-73,753	481,383	0,056	0,091
-72,738	-41,481	0,036	-0,013
-71,724	-106,312	-0,127	0,020
-70,709	-131,564	-0,051	-0,005
-69,694	135,662	-0,042	-0,039
-68,680	513,643	0,095	0,160
-67,665	-200,000	0,024	0,133
-66,651	-200,000	-0,002	0,022
-65,636	800,000	0,027	-0,078
-64,622	15,585	-0,051	-0,029
-63,607	4,117	0,018	-0,009
-62,592	-108,663	-0,048	0,007
-61,578	178,003	0,019	0,020
-60,563	800,000	-0,024	0,074
-59,549	5,203	-0,093	-0,049
-58,534	54,490	-2,550	-1,763
-57,519	132,758	0,355	-0,329
-56,505	800,000	-1,707	-5,403
-55,490	325,018	1,071	1,475
-54,476	800,000	5,472	11,685
-53,461	-200,000	21,405	336,267
-52,446	800,000	762,140	2303,263
-51,432	515,402	1660,471	2796,186
-50,417	105,944	1626,192	1382,100
-49,403	76,122	1279,251	971,577
-48,388	26,735	1024,777	615,050
-47,373	19,212	990,048	569,269
-46,359	13,916	977,883	544,818
-45,344	10,074	974,358	530,177
-44,330	10,543	972,441	530,658
-43,315	9,566	970,568	526,402
-42,300	9,450	969,503	525,422
-41,286	9,497	968,371	524,944
-40,271	9,542	967,309	524,494
-39,257	9,509	966,520	523,939
-38,242	9,432	965,781	523,264
-37,227	9,476	964,999	522,966
-36,213	9,457	964,226	522,460
-35,198	9,392	963,324	521,741
-34,184	9,459	962,464	521,473
-33,169	9,449	961,456	520,875
-32,154	9,463	960,579	520,424
-31,140	9,487	959,912	520,118
-30,125	9,514	958,840	519,607
-29,111	9,442	958,378	519,100
-28,096	9,535	957,554	518,937
-27,082	9,505	956,984	518,508
-26,067	9,525	955,963	518,001
-25,052	9,443	955,383	517,399
-24,038	9,478	954,619	517,079
-23,023	9,408	954,096	516,548
-22,009	9,472	953,539	516,432
-20,994	9,474	953,022	516,140
-19,979	9,481	952,199	515,695
-18,965	9,459	951,672	515,319
-17,950	9,492	951,061	515,072
-16,936	9,425	950,108	514,321
-15,921	9,484	949,591	514,211
-14,906	9,352	948,888	513,386
-13,892	9,418	948,203	513,207
-12,877	9,341	947,566	512,594
-11,863	9,330	947,004	512,234
-10,848	9,409	946,399	512,139
-9,833	9,416	946,054	511,955
-8,819	9,437	945,213	511,549
-7,804	9,353	944,684	510,973
-6,790	9,357	944,219	510,714
-5,775	9,445	943,289	510,472
-4,760	9,408	942,836	510,088
-3,746	9,416	942,058	509,671
-2,731	9,307	941,484	508,994
-1,717	9,238	940,975	508,479
-0,702	9,284	940,105	508,135
0,313	9,078	939,515	507,926
1,327	12,526	937,453	517,704
2,342	21,228	786,309	457,214
3,356	16,330	451,766	255,234
4,371	-10,585	313,506	148,410
5,386	-14,497	295,802	136,048
6,400	-16,431	289,631	131,275
7,415	-16,444	287,196	130,147
8,429	-17,090	285,530	128,747
9,444	-17,137	284,489	128,220
10,459	-16,995	284,007	128,130
11,473	-16,979	283,253	127,795
12,488	-16,829	282,809	127,728
13,502	-17,067	282,353	127,280
14,517	-16,752	281,904	127,371
15,531	-16,606	281,627	127,376
16,546	-16,453	281,269	127,350
17,561	-16,553	280,821	127,039
18,575	-16,565	280,512	126,877
19,590	-16,562	280,050	126,660
20,604	-16,476	279,992	126,704
21,619	-16,596	279,515	126,362
22,634	-16,458	279,170	126,327
23,648	-16,368	278,782	126,227
24,663	-16,435	278,598	126,068
25,677	-16,452	278,297	125,904
26,692	-16,441	278,076	125,804
27,707	-16,559	277,819	125,564
28,721	-16,555	277,667	125,487
29,736	-16,275	277,117	125,494
30,750	-16,507	276,885	125,158
31,765	-16,518	276,674	125,040
32,780	-16,563	276,602	124,954
33,794	-16,389	276,231	124,940
34,809	-16,527	275,989	124,689
35,823	-16,570	275,639	124,479
36,838	-16,411	275,364	124,494
37,853	-16,541	275,258	124,313
38,867	-16,462	274,905	124,216
39,882	-16,323	274,664	124,227
40,896	-16,444	274,525	124,039
41,911	-16,336	274,153	123,961
42,926	-16,482	274,053	123,768
43,940	-16,386	273,778	123,723
44,955	-16,316	273,525	123,663
45,969	-16,306	273,272	123,547
46,984	-16,419	273,083	123,345
47,999	-16,419	272,939	123,269
49,013	-16,248	272,579	123,255
50,028	-16,389	272,467	123,061
51,042	-16,391	272,154	122,907
52,057	-16,452	271,980	122,761
53,071	-16,256	271,512	122,721
54,086	-16,286	271,588	122,716
55,101	-16,301	271,306	122,564
56,115	-16,512	271,041	122,238
57,130	-16,476	270,876	122,186
58,144	-16,423	270,559	122,081
59,159	-16,570	270,407	121,866
60,174	-16,822	270,226	121,541
61,188	-16,407	269,882	121,758
62,203	-16,469	269,606	121,565
63,217	-16,380	269,369	121,530
64,232	-16,484	269,188	121,342
65,247	-16,568	268,938	121,140
66,261	-16,652	268,620	120,910
67,276	-16,294	268,274	121,072
68,290	-16,557	268,400	120,876
69,305	-16,489	268,023	120,758
70,320	-16,341	267,841	120,800
71,334	-16,528	267,550	120,488
72,349	-16,399	267,344	120,502
73,363	-16,633	267,162	120,195
74,378	-16,647	266,894	120,052
75,393	-16,431	266,644	120,125
76,407	-16,579	266,499	119,915
77,422	-16,340	266,240	120,004
78,436	-16,281	265,886	119,888
79,451	-16,467	265,718	119,632
80,466	-16,461	265,341	119,458
81,480	-16,428	265,274	119,446
82,495	-16,394	265,136	119,405
83,509	-16,387	264,917	119,302
84,524	-16,297	264,841	119,338
85,539	-16,238	264,570	119,259
86,553	-16,364	264,340	119,030
87,568	-16,366	264,047	118,887
88,582	-16,427	263,815	118,716
89,597	-16,432	263,776	118,684
90,611	-16,562	263,352	118,366
91,626	-16,151	263,112	118,616
92,641	-16,425	262,968	118,295
93,655	-16,406	262,946	118,291
94,670	-16,455	262,669	118,112
95,684	-16,414	262,496	118,060
96,699	-16,498	262,273	117,875
97,714	-16,393	262,063	117,864
98,728	-16,425	261,856	117,731
99,743	-16,392	261,611	117,640
100,757	-16,330	261,382	117,582
101,772	-16,391	261,232	117,450
102,787	-16,475	261,038	117,277
103,801	-16,568	260,814	117,084
104,816	-16,418	260,453	117,044
105,830	-16,390	260,427	117,047
106,845	-16,578	260,194	116,766
107,860	-16,527	259,973	116,701
108,874	-16,465	259,741	116,641
109,889	-16,484	259,363	116,444
110,903	-16,430	259,336	116,470
111,918	-16,598	259,116	116,212
112,933	-16,413	258,917	116,276
113,947	-16,316	258,604	116,210
114,962	-16,471	258,447	115,993
115,976	-16,291	258,313	116,080
116,991	-16,576	258,186	115,763
118,006	-16,314	257,957	115,879
119,020	-16,258	257,870	115,879
120,035	-16,444	257,621	115,594
121,049	-16,509	257,561	115,500
122,064	-16,455	257,223	115,385
123,079	-16,335	257,077	115,414
124,093	-16,535	256,882	115,142
125,108	-16,446	256,652	115,106
126,122	-16,265	256,523	115,196
127,137	-16,328	256,399	115,075
128,151	-16,387	256,118	114,887
129,166	-16,298	255,866	114,841
130,181	-16,288	255,595	114,718
131,195	-16,384	255,346	114,512
132,210	-16,384	255,132	114,406
133,224	-16,387	255,128	114,392
134,239	-16,554	254,770	114,076
135,254	-16,516	254,579	114,014
136,268	-16,442	254,311	113,948
137,283	-16,310	254,175	113,990
138,297	-16,406	254,035	113,835
139,312	-16,450	253,924	113,736
140,327	-16,197	253,524	113,765
141,341	-16,463	253,464	113,499
142,356	-16,557	253,018	113,209
143,370	-16,336	252,943	113,354
144,385	-16,480	252,820	113,166
145,400	-16,407	252,668	113,151
146,414	-16,300	252,455	113,137
147,429	-16,386	252,180	112,930
148,443	-16,292	251,957	112,900
149,458	-16,381	251,918	112,796
150,473	-16,450	251,797	112,673
151,487	-16,466	251,510	112,522
152,502	-16,301	251,258	112,539
153,516	-16,321	251,186	112,480
154,531	-16,381	250,786	112,239
155,546	-16,379	250,705	112,195
156,560	-16,417	250,688	112,145
157,575	-16,461	250,374	111,958
158,589	-16,471	250,034	111,787
159,604	-16,322	249,931	111,857
160,619	-16,401	249,767	111,706
161,633	-16,303	249,583	111,698
162,648	-16,276	249,404	111,630
163,662	-16,398	249,271	111,458
164,677	-16,240	249,256	111,575
165,692	-16,440	248,898	111,236
166,706	-16,420	248,806	111,202
167,721	-16,302	248,644	111,218
168,735	-16,299	248,466	111,131
169,750	-16,331	248,310	111,025
170,764	-16,469	248,102	110,806
171,779	-16,479	247,945	110,718
172,794	-16,467	247,887	110,692
173,808	-16,404	247,540	110,580
174,823	-16,334	247,517	110,619
175,837	-16,366	247,306	110,487
176,852	-16,298	246,964	110,382
177,867	-16,219	246,750	110,342
178,881	-16,378	246,735	110,193
179,896	-16,299	246,507	110,147
180,910	-16,288	246,388	110,093
181,925	-16,594	246,208	109,748
182,940	-16,468	246,028	109,763
183,954	-16,508	245,881	109,655
184,969	-16,230	245,788	109,834
185,983	-16,270	245,644	109,727
186,998	-16,254	245,124	109,499
188,013	-16,322	245,048	109,398
189,027	-16,335	244,934	109,327
190,042	-16,411	244,745	109,169
191,056	-16,469	244,582	109,039
192,071	-16,351	244,409	109,050
193,086	-16,544	244,305	108,834
194,100	-16,459	244,076	108,792
195,115	-16,592	243,933	108,610
196,129	-16,503	243,724	108,580
197,144	-16,601	243,453	108,369
198,159	-16,542	243,425	108,396
199,173	-16,458	243,017	108,273
200,188	-16,577	242,902	108,115
201,202	-16,364	242,703	108,191
202,217	-16,470	242,727	108,105
203,232	-16,352	242,431	108,060
204,246	-16,574	242,106	107,724
205,261	-16,973	241,654	107,188
206,275	-16,111	241,946	108,012
207,290	-11,445	243,902	112,711
208,304	-4,590	245,883	119,285
209,319	-1,208	246,884	122,561
210,334	-0,139	247,211	123,598
211,348	0,866	247,302	124,464
212,363	1,203	247,351	124,757
213,377	1,720	247,222	125,108
214,392	1,907	247,229	125,255
215,407	2,136	247,236	125,436
216,421	2,380	246,933	125,473
217,436	2,322	246,967	125,431
218,450	2,265	246,604	125,188
219,465	2,212	246,541	125,101
220,480	2,018	246,338	124,828
221,494	1,832	246,145	124,566
222,509	1,447	245,768	124,047
223,523	1,354	245,526	123,838
224,538	1,235	245,218	123,574
225,553	1,138	245,080	123,414
226,567	1,000	245,086	123,293
227,582	0,860	244,931	123,090
228,596	1,013	244,818	123,147
229,611	1,105	244,596	123,100
230,626	1,173	244,221	122,955
231,640	1,014	244,214	122,812
232,655	0,958	243,955	122,624
233,669	1,255	243,789	122,772
234,684	1,108	243,556	122,524
235,699	1,141	243,604	122,564
236,713	1,198	243,305	122,449
237,728	1,264	243,206	122,442
238,742	1,005	243,060	122,147
239,757	1,314	242,807	122,259
240,772	1,221	242,777	122,158
241,786	1,060	242,626	121,941
242,801	1,158	242,251	121,821
243,815	1,290	242,200	121,891
244,830	1,091	242,074	121,656
245,844	1,202	241,995	121,695
246,859	1,190	241,742	121,547
247,874	1,094	241,667	121,422
248,888	1,218	241,353	121,353
249,903	1,164	241,231	121,237
250,917	1,204	241,203	121,244
251,932	1,232	241,057	121,183
252,947	1,284	240,813	121,091
253,961	1,062	240,707	120,848
254,976	1,171	240,601	120,873
255,990	1,291	240,261	120,786
257,005	1,001	240,199	120,513
258,020	1,038	240,101	120,482
259,034	1,161	239,851	120,444
260,049	1,143	239,777	120,382
261,063	1,163	239,559	120,278
262,078	1,324	239,267	120,249
263,093	1,404	239,102	120,219
264,107	1,117	239,152	120,004
265,122	1,300	239,019	120,073
266,136	1,134	238,847	119,844
267,151	0,986	238,754	119,669
268,166	1,009	238,610	119,604
269,180	1,096	238,346	119,531
270,195	1,218	238,169	119,527
271,209	1,032	238,156	119,363
272,224	1,128	237,894	119,297
273,239	1,093	237,730	119,177
274,253	1,216	237,497	119,146
275,268	1,171	237,357	119,030
276,282	0,968	237,310	118,836
277,297	1,171	237,045	118,852
278,312	1,310	236,795	118,826
279,326	1,319	236,835	118,842
280,341	1,333	236,631	118,741
281,355	1,134	236,543	118,528
282,370	1,343	236,333	118,578
283,384	1,368	236,334	118,587
284,399	1,140	236,110	118,285
285,414	1,114	235,854	118,126
286,428	1,167	235,756	118,108
287,443	1,247	235,701	118,132
288,457	1,131	235,463	117,912
289,472	1,036	235,415	117,803
290,487	1,201	235,084	117,756
291,501	1,230	235,056	117,754
292,516	1,319	234,804	117,686
293,530	1,194	234,710	117,531
294,545	1,010	234,695	117,370
295,560	1,226	234,511	117,436
296,574	1,341	234,233	117,376
297,589	1,304	234,135	117,287
298,603	1,183	233,875	117,053
299,618	1,396	233,786	117,163
300,633	1,272	233,555	116,941
301,647	1,327	233,638	117,014
302,662	1,447	233,436	116,996
303,676	1,500	233,292	116,954
304,691	1,455	233,103	116,814
305,706	1,222	232,988	116,566
306,720	1,417	232,811	116,618
307,735	1,254	232,695	116,423
308,749	1,329	232,433	116,340
309,764	1,354	232,308	116,286
310,779	1,199	232,209	116,107
311,793	1,395	231,842	116,064
312,808	1,338	232,069	116,123
313,822	1,519	231,732	116,083
314,837	1,531	231,578	116,005
315,852	1,350	231,428	115,780
316,866	1,528	231,331	115,858
317,881	1,311	231,305	115,669
318,895	1,491	231,107	115,697
319,910	1,480	230,816	115,532
320,925	1,486	230,538	115,387
321,939	1,204	230,615	115,200
322,954	1,405	230,320	115,196
323,968	1,444	230,216	115,163
324,983	1,516	230,120	115,160
325,997	1,374	230,031	114,997
327,012	1,345	229,963	114,931
328,027	1,402	229,657	114,810
329,041	1,534	229,410	114,777
330,056	1,341	229,376	114,603
331,070	1,505	229,236	114,648
332,085	1,440	229,107	114,524
333,100	1,362	228,828	114,315
334,114	1,348	228,778	114,270
335,129	1,299	228,563	114,115
336,143	1,490	228,382	114,158
337,158	1,482	228,340	114,121
338,173	1,677	228,140	114,158
339,187	1,739	228,023	114,136
340,202	1,460	227,957	113,882
341,216	1,671	227,648	113,877
342,231	1,370	227,448	113,540
343,246	1,480	227,471	113,625
344,260	1,422	227,394	113,533
345,275	1,550	227,273	113,558
346,289	1,616	227,087	113,505
347,304	1,484	226,879	113,291
348,319	1,482	226,777	113,229
349,333	1,187	226,727	112,973
350,348	1,531	226,403	113,059
351,362	1,553	226,351	113,039
352,377	1,423	226,136	112,824
353,392	1,507	226,072	112,845
354,406	1,462	225,835	112,683
355,421	193,419	1314,068	1385,002
356,435	154,984	1446,542	1384,875
