DTS Sentinel unit serial number:	SN410029Multiplexer serial number:	ORYXHardware model number:	OX2-SRSoftware version number:	ORYX F/W v4,00 Oryx Data Collector v3.7.2.0data status	okinstallation	B5 Nyhavnadifferential loss correction	single-endedforward channel	channel 2reverse channel	N/Adate	2023/12/13time	03:42:13forward acquisition time	300,00reverse acquisition time	0,00gamma	499,1914k internal	0,3160k external	0,3160temperature offset calibration	1,0000default loss term (dB/km)	0,3820temperature slope calibration	1,0000multiplexer offset coefficient	1,0000multiplexer slope coefficient	1,0000fibre end	0,00T internal ref (°C)	13,95T ext. ref 1 (°C)	-2,44T ext. ref 2 (°C)	-2,75length (m)	temperature (°C)	Stokes	anti-Stokes-744,400	-200,000	0,020	0,107
-743,385	-26,437	-0,347	0,149
-742,371	375,818	0,138	0,208
-741,356	-92,516	-0,179	-0,037
-740,342	-200,000	0,010	0,127
-739,327	-168,756	-0,394	-0,011
-738,312	-154,091	0,194	-0,010
-737,298	-78,934	-0,288	0,072
-736,283	-165,625	0,187	-0,006
-735,269	-117,287	-0,270	0,036
-734,254	-200,000	0,008	0,130
-733,239	10,234	-0,374	-0,209
-732,225	-134,482	0,296	0,026
-731,210	114,996	-0,101	0,091
-730,196	8,380	-0,049	-0,027
-729,181	81,050	-0,070	0,055
-728,167	-200,000	-0,005	-0,036
-727,152	-171,439	0,128	0,003
-726,137	23,848	-0,177	0,107
-725,123	-11,426	0,117	-0,057
-724,108	800,000	-0,068	-0,202
-723,094	100,209	-0,148	-0,127
-722,079	-200,000	-0,009	-0,068
-721,064	-58,850	0,010	0,003
-720,050	-200,000	-0,012	-0,075
-719,035	83,047	-0,069	-0,055
-718,021	800,000	0,013	0,041
-717,006	-3,602	0,019	-0,009
-715,991	800,000	-0,034	-0,083
-714,977	414,746	-0,021	0,033
-713,962	-183,579	0,030	-0,000
-712,948	62,013	-0,056	-0,041
-711,933	-18,081	0,036	0,016
-710,918	101,003	0,018	0,015
-709,904	102,021	-0,148	-0,127
-708,889	-33,483	-0,165	-0,067
-707,875	100,016	-0,135	0,115
-706,860	-71,787	0,035	-0,010
-705,845	558,811	0,003	0,005
-704,831	7,754	0,010	-0,006
-703,816	-200,000	-0,022	0,088
-702,802	268,677	-0,075	-0,097
-701,787	800,000	0,041	-0,119
-700,772	511,397	-0,028	-0,048
-699,758	-51,326	-0,170	-0,058
-698,743	-107,214	0,120	0,019
-697,729	321,571	-0,040	0,056
-696,714	93,604	-0,052	0,043
-695,699	-11,927	0,018	-0,009
-694,685	159,514	0,058	0,060
-693,670	714,250	-0,010	-0,019
-692,656	800,000	-0,045	-0,115
-691,641	-50,706	-0,058	-0,020
-690,627	-104,285	0,130	0,022
-689,612	-58,201	-0,163	-0,052
-688,597	-40,275	-0,046	0,017
-687,583	-200,000	0,033	-0,166
-686,568	152,008	-0,095	-0,095
-685,554	25,304	-0,074	-0,045
-684,539	-200,000	0,003	-0,056
-683,524	-200,000	0,011	0,071
-682,510	22,087	0,111	0,067
-681,495	-200,000	-0,019	-0,086
-680,481	-200,000	-0,009	-0,135
-679,466	-200,000	0,012	-0,171
-678,451	33,943	0,082	-0,052
-677,437	60,169	-0,042	0,031
-676,422	349,850	-0,083	-0,121
-675,408	-25,871	-0,121	0,052
-674,393	43,344	-0,075	-0,050
-673,378	-23,205	-0,106	-0,046
-672,364	-142,789	-0,053	-0,004
-671,349	-10,489	-0,049	-0,024
-670,335	800,000	-0,001	-0,004
-669,320	667,543	0,054	0,104
-668,305	548,568	-0,009	0,015
-667,291	36,577	0,070	-0,045
-666,276	-200,000	-0,002	-0,027
-665,262	-2,408	-0,192	0,098
-664,247	-122,324	-0,072	-0,009
-663,232	-200,000	-0,001	-0,134
-662,218	-134,695	0,117	0,010
-661,203	-200,000	0,008	0,028
-660,189	800,000	-0,056	0,138
-659,174	-200,000	-0,005	-0,057
-658,159	-99,511	-0,106	0,019
-657,145	731,280	-0,061	-0,121
-656,130	113,646	0,041	-0,037
-655,116	-18,164	-0,108	-0,049
-654,101	294,081	0,024	-0,032
-653,086	87,857	0,021	-0,017
-652,072	131,860	0,045	0,042
-651,057	328,790	-0,045	-0,064
-650,043	800,000	0,022	-0,056
-649,028	75,102	-0,048	-0,037
-648,014	70,574	0,130	0,099
-646,999	130,375	0,012	0,012
-645,984	800,000	-0,031	-0,065
-644,970	128,058	-0,077	-0,072
-643,955	800,000	0,010	0,026
-642,941	-81,221	0,135	-0,033
-641,926	-154,488	-0,115	0,006
-640,911	-200,000	0,029	0,123
-639,897	384,938	-0,054	0,082
-638,882	-50,745	-0,114	-0,039
-637,868	-94,053	-0,033	0,007
-636,853	800,000	0,022	-0,045
-635,838	285,857	0,031	0,041
-634,824	-65,927	0,039	-0,011
-633,809	283,578	-0,071	0,094
-632,795	-200,000	0,027	0,159
-631,780	-50,216	0,028	0,010
-630,765	-200,000	-0,001	-0,019
-629,751	19,084	-0,042	-0,025
-628,736	-200,000	0,012	-0,066
-627,722	800,000	-0,066	-0,134
-626,707	-185,812	0,126	-0,001
-625,692	-200,000	0,004	-0,114
-624,678	17,265	0,154	0,089
-623,663	28,249	-0,077	-0,048
-622,649	-76,035	-0,093	-0,024
-621,634	-15,617	0,029	0,014
-620,619	800,000	-0,057	0,141
-619,605	-160,133	-0,032	-0,001
-618,590	-200,000	-0,011	0,048
-617,576	624,941	0,033	-0,061
-616,561	-53,292	-0,049	0,016
-615,546	-200,000	-0,014	0,058
-614,532	134,716	0,015	0,015
-613,517	125,375	0,060	-0,056
-612,503	800,000	0,009	-0,025
-611,488	42,752	0,034	0,023
-610,474	477,945	0,044	-0,073
-609,459	-200,000	-0,006	0,133
-608,444	250,417	-0,061	0,076
-607,430	-99,934	-0,082	-0,015
-606,415	399,876	0,033	0,050
-605,401	-122,897	-0,153	-0,018
-604,386	146,572	0,013	0,013
-603,371	-113,560	-0,035	0,005
-602,357	-200,000	0,019	-0,130
-601,342	-4,211	0,092	-0,046
-600,328	392,237	-0,047	-0,072
-599,313	-200,000	-0,010	-0,093
-598,298	-200,000	0,010	-0,084
-597,284	131,191	0,088	-0,083
-596,269	-59,393	-0,101	0,031
-595,255	-200,000	-0,032	0,103
-594,240	44,704	-0,134	0,090
-593,225	114,639	0,024	0,021
-592,211	-75,683	-0,013	0,003
-591,196	33,515	-0,033	0,021
-590,182	82,742	0,091	-0,073
-589,167	-42,691	0,046	-0,017
-588,152	-16,966	0,039	0,018
-587,138	800,000	-0,021	0,058
-586,123	159,555	-0,065	0,066
-585,109	-200,000	0,013	-0,051
-584,094	313,486	-0,050	-0,069
-583,079	-200,000	0,002	0,046
-582,065	-200,000	-0,010	0,107
-581,050	138,847	0,077	-0,075
-580,036	186,169	-0,105	0,115
-579,021	-17,039	-0,077	-0,035
-578,006	-110,153	-0,090	0,014
-576,992	-139,325	0,098	-0,008
-575,977	800,000	-0,011	-0,029
-574,963	-200,000	0,014	0,150
-573,948	104,651	0,124	0,107
-572,934	48,461	0,119	0,082
-571,919	-200,000	0,021	0,122
-570,904	-39,397	-0,082	-0,031
-569,890	800,000	0,039	-0,101
-568,875	297,216	0,079	0,106
-567,861	286,233	0,130	0,171
-566,846	73,949	0,098	0,075
-565,831	-18,564	0,072	-0,033
-564,817	-200,000	-0,019	-0,078
-563,802	-96,240	-0,051	0,010
-562,788	-15,485	0,113	-0,053
-561,773	353,612	-0,038	-0,056
-560,758	-74,932	0,072	-0,019
-559,744	250,026	0,007	-0,009
-558,729	-70,280	-0,065	-0,018
-557,715	-68,308	-0,059	0,017
-556,700	-104,038	-0,149	-0,025
-555,685	-200,000	-0,000	-0,037
-554,671	-123,011	0,070	0,008
-553,656	-144,238	-0,088	0,006
-552,642	800,000	0,025	-0,052
-551,627	105,652	0,051	-0,044
-550,612	39,679	0,156	0,102
-549,598	-50,311	-0,029	0,010
-548,583	-200,000	-0,012	-0,128
-547,569	800,000	-0,029	-0,078
-546,554	-37,164	0,121	0,047
-545,539	-6,448	0,172	-0,086
-544,525	63,513	0,132	0,096
-543,510	456,641	-0,052	-0,084
-542,496	368,767	0,097	-0,144
-541,481	-42,623	-0,108	-0,040
-540,466	682,490	0,022	-0,042
-539,452	-200,000	0,007	0,088
-538,437	-192,674	0,139	-0,001
-537,423	800,000	-0,036	0,075
-536,408	28,538	0,057	-0,035
-535,393	35,431	-0,031	-0,020
-534,379	-200,000	-0,008	-0,093
-533,364	800,000	0,050	-0,118
-532,350	84,917	-0,067	-0,053
-531,335	393,307	0,065	-0,098
-530,321	121,218	0,093	0,085
-529,306	-42,890	0,061	0,022
-528,291	-200,000	0,001	-0,046
-527,277	505,560	-0,052	0,089
-526,262	5,869	-0,111	-0,060
-525,248	800,000	-0,034	-0,075
-524,233	-108,441	0,051	0,008
-523,218	152,225	0,088	-0,088
-522,204	3,256	-0,135	0,071
-521,189	-200,000	-0,019	-0,065
-520,175	-103,746	0,047	0,008
-519,160	777,583	0,076	0,153
-518,145	800,000	0,022	0,059
-517,131	232,578	0,069	-0,083
-516,116	324,025	0,067	0,094
-515,102	800,000	-0,020	0,051
-514,087	-200,000	-0,023	0,085
-513,072	-126,761	-0,042	0,004
-512,058	17,255	-0,021	-0,012
-511,043	800,000	-0,039	0,091
-510,029	-200,000	-0,004	-0,025
-509,014	-28,454	0,168	0,071
-507,999	-200,000	0,034	0,112
-506,985	-200,000	-0,015	-0,126
-505,970	-132,845	-0,038	0,004
-504,956	224,314	-0,093	-0,110
-503,941	574,007	0,088	-0,158
-502,926	3,943	0,053	-0,028
-501,912	186,803	-0,102	0,111
-500,897	186,233	0,036	-0,039
-499,883	512,428	-0,016	0,027
-498,868	15,953	-0,060	-0,034
-497,853	36,881	0,070	0,045
-496,839	-200,000	0,012	0,091
-495,824	351,004	-0,034	0,049
-494,810	24,845	0,082	-0,049
-493,795	-200,000	-0,002	0,106
-492,781	-92,233	0,131	0,027
-491,766	-166,667	-0,049	0,001
-490,751	-103,477	0,078	0,013
-489,737	-51,335	0,110	0,037
-488,722	-200,000	-0,024	-0,091
-487,708	151,702	0,101	-0,101
-486,693	-200,000	-0,010	-0,077
-485,678	-91,831	-0,166	0,034
-484,664	-200,000	-0,007	-0,028
-483,649	-54,207	-0,090	0,030
-482,635	410,503	-0,033	-0,051
-481,620	144,914	-0,076	-0,074
-480,605	232,968	-0,070	0,085
-479,591	800,000	0,004	0,010
-478,576	-68,763	0,118	-0,033
-477,562	-93,802	-0,132	0,026
-476,547	-111,853	0,160	-0,023
-475,532	-33,221	-0,064	0,026
-474,518	384,461	0,022	0,034
-473,503	549,003	0,022	0,038
-472,489	413,803	0,048	-0,075
-471,474	-200,000	0,003	0,101
-470,459	168,006	-0,059	-0,061
-469,445	256,528	-0,078	-0,097
-468,430	-123,190	-0,076	0,009
-467,416	-41,572	0,071	0,027
-466,401	-200,000	0,020	0,081
-465,386	15,217	0,156	0,089
-464,372	-35,868	0,061	-0,024
-463,357	229,391	-0,053	0,063
-462,343	117,624	-0,093	-0,084
-461,328	-134,211	-0,115	-0,010
-460,313	48,621	0,066	0,045
-459,299	368,953	-0,015	-0,022
-458,284	-91,806	-0,184	0,038
-457,270	35,980	0,129	-0,082
-456,255	-67,733	-0,084	0,024
-455,241	800,000	-0,048	-0,127
-454,226	218,540	0,039	-0,046
-453,211	-200,000	0,003	0,034
-452,197	800,000	-0,034	-0,107
-451,182	691,925	0,070	-0,134
-450,168	628,053	0,039	0,073
-449,153	-138,327	-0,101	-0,008
-448,138	187,073	-0,102	0,111
-447,124	587,277	-0,022	-0,040
-446,109	-200,000	0,000	-0,185
-445,095	34,899	0,064	-0,041
-444,080	163,868	-0,024	-0,025
-443,065	-68,699	0,057	0,016
-442,051	247,045	0,054	0,066
-441,036	324,704	-0,109	-0,152
-440,022	20,164	0,032	0,019
-439,007	288,757	0,086	-0,113
-437,992	71,477	-0,063	-0,047
-436,978	45,796	0,114	0,076
-435,963	-108,836	-0,147	0,023
-434,949	-36,948	0,025	-0,010
-433,934	-88,272	0,078	0,017
-432,919	-101,016	0,036	-0,006
-431,905	130,051	-0,092	0,085
-430,890	800,000	-0,063	0,161
-429,876	685,501	0,031	0,060
-428,861	244,618	0,063	0,078
-427,846	800,000	-0,082	-0,175
-426,832	-200,000	0,006	-0,063
-425,817	-142,262	-0,101	0,007
-424,803	207,088	0,073	-0,083
-423,788	69,981	-0,060	-0,045
-422,773	624,092	0,019	-0,034
-421,759	768,658	0,106	0,211
-420,744	-67,456	-0,123	0,035
-419,730	1,696	-0,093	0,049
-418,715	-200,000	0,025	-0,080
-417,701	150,311	-0,036	0,035
-416,686	91,371	-0,061	0,050
-415,671	-116,643	0,178	0,024
-414,657	1,754	0,134	0,070
-413,642	-3,521	-0,237	0,120
-412,628	-94,694	-0,060	0,012
-411,613	-200,000	-0,019	-0,103
-410,598	-133,553	-0,088	0,008
-409,584	-91,809	-0,057	0,012
-408,569	-200,000	0,006	0,067
-407,555	187,077	0,076	0,083
-406,540	-200,000	0,001	0,032
-405,525	-200,000	0,000	-0,022
-404,511	325,002	-0,057	0,079
-403,496	88,300	0,052	0,042
-402,482	-200,000	0,000	-0,014
-401,467	103,410	-0,022	-0,019
-400,452	122,875	0,047	-0,043
-399,438	-200,000	-0,001	0,097
-398,423	-65,338	-0,022	-0,006
-397,409	70,321	-0,090	-0,067
-396,394	462,560	-0,071	-0,115
-395,379	800,000	-0,008	0,022
-394,365	153,494	0,023	0,023
-393,350	12,876	0,156	0,087
-392,336	275,525	0,096	-0,124
-391,321	-200,000	-0,004	0,046
-390,306	-10,555	-0,085	0,041
-389,292	184,293	-0,051	-0,055
-388,277	60,674	0,022	-0,015
-387,263	-49,238	-0,208	0,072
-386,248	-200,000	0,029	-0,168
-385,233	231,495	-0,105	-0,125
-384,219	329,248	0,040	-0,056
-383,204	387,475	0,052	-0,079
-382,190	800,000	0,055	-0,129
-381,175	-107,584	-0,040	0,006
-380,160	-57,916	0,028	0,009
-379,146	662,757	0,059	0,112
-378,131	109,206	-0,102	0,089
-377,117	800,000	0,058	-0,129
-376,102	-22,745	-0,124	-0,054
-375,088	165,515	0,094	-0,096
-374,073	-200,000	0,001	-0,043
-373,058	-200,000	0,022	0,090
-372,044	48,341	0,037	-0,025
-371,029	148,100	0,065	0,063
-370,015	-56,088	-0,059	-0,019
-369,000	-120,551	-0,011	0,001
-367,985	545,338	0,043	0,075
-366,971	200,187	-0,027	-0,030
-365,956	-200,000	0,003	0,033
-364,942	-34,568	-0,049	0,019
-363,927	333,283	-0,052	-0,073
-362,912	675,026	0,044	0,083
-361,898	322,701	-0,039	-0,053
-360,883	-108,545	-0,087	-0,013
-359,869	-62,348	0,070	-0,021
-358,854	-109,611	0,084	-0,013
-357,839	321,545	0,046	-0,064
-356,825	-200,000	0,004	-0,039
-355,810	367,686	-0,032	0,047
-354,796	55,180	-0,071	-0,050
-353,781	-200,000	0,003	-0,158
-352,766	-102,988	0,043	0,007
-351,752	-50,888	-0,127	0,043
-350,737	-33,773	-0,046	0,018
-349,723	800,000	-0,050	0,105
-348,708	800,000	0,020	-0,045
-347,693	-84,893	0,014	0,003
-346,679	-36,413	-0,115	-0,045
-345,664	382,205	-0,044	-0,066
-344,650	99,718	0,032	-0,027
-343,635	-193,029	0,196	-0,001
-342,620	496,680	-0,007	-0,011
-341,606	800,000	-0,050	0,116
-340,591	216,148	0,013	0,015
-339,577	497,074	-0,026	0,044
-338,562	47,799	0,007	0,005
-337,548	-168,932	-0,047	0,001
-336,533	-106,112	-0,010	0,002
-335,518	193,477	-0,060	-0,066
-334,504	-114,011	0,057	0,008
-333,489	-5,596	-0,032	-0,016
-332,475	333,212	-0,065	-0,092
-331,460	98,709	-0,036	0,030
-330,445	-200,000	0,024	0,107
-329,431	800,000	0,015	0,041
-328,416	251,461	0,061	-0,075
-327,402	35,512	-0,152	-0,096
-326,387	-200,000	0,005	0,058
-325,372	428,907	0,047	0,074
-324,358	187,534	-0,078	0,085
-323,343	-14,068	0,059	0,028
-322,329	77,999	0,071	-0,055
-321,314	456,029	0,062	0,100
-320,299	24,558	0,030	0,018
-319,285	-200,000	0,037	-0,246
-318,270	-200,000	0,006	-0,172
-317,256	800,000	-0,024	-0,059
-316,241	-13,741	-0,137	-0,064
-315,226	226,789	0,034	-0,040
-314,212	-200,000	0,027	0,088
-313,197	64,748	0,070	-0,051
-312,183	253,815	-0,074	0,092
-311,168	59,387	0,056	-0,040
-310,153	-200,000	-0,006	-0,041
-309,139	-200,000	0,007	-0,084
-308,124	-55,728	0,087	0,028
-307,110	-120,753	0,147	-0,018
-306,095	-108,898	0,090	0,014
-305,080	52,521	0,052	-0,036
-304,066	111,969	-0,038	-0,033
-303,051	169,058	-0,079	-0,081
-302,037	610,724	0,076	-0,137
-301,022	-200,000	0,005	0,019
-300,008	-53,437	0,012	-0,004
-298,993	800,000	0,051	0,129
-297,978	51,567	-0,081	-0,056
-296,964	-22,171	-0,086	0,038
-295,949	46,795	0,112	-0,075
-294,935	800,000	0,023	-0,061
-293,920	-118,071	0,030	0,004
-292,905	-103,124	0,090	0,015
-291,891	-199,177	-0,075	0,000
-290,876	-165,721	0,072	-0,002
-289,862	151,911	0,025	0,024
-288,847	-200,000	-0,002	-0,064
-287,832	55,242	-0,008	0,005
-286,818	50,698	-0,044	-0,030
-285,803	800,000	0,040	0,115
-284,789	22,477	0,154	0,091
-283,774	66,104	0,084	0,062
-282,759	120,452	0,103	0,093
-281,745	-200,000	-0,009	0,062
-280,730	381,092	0,044	-0,065
-279,716	-19,880	-0,084	-0,038
-278,701	103,216	0,178	-0,151
-277,686	555,483	0,043	0,075
-276,672	-200,000	0,048	0,167
-275,657	8,986	0,185	-0,101
-274,643	279,695	-0,070	-0,091
-273,628	301,030	0,100	-0,134
-272,613	66,292	-0,099	0,073
-271,599	-43,419	0,185	0,067
-270,584	-168,251	0,069	0,002
-269,570	-74,257	-0,093	-0,024
-268,555	176,300	-0,031	0,033
-267,540	-200,000	0,008	0,135
-266,526	-200,000	-0,003	-0,070
-265,511	24,075	-0,026	-0,016
-264,497	-200,000	-0,005	-0,024
-263,482	-165,708	-0,108	0,003
-262,467	-140,476	0,195	0,014
-261,453	198,220	-0,075	0,083
-260,438	446,602	-0,020	-0,033
-259,424	90,191	-0,043	-0,035
-258,409	800,000	0,075	-0,158
-257,395	-200,000	-0,000	-0,083
-256,380	-105,871	0,148	0,024
-255,365	-176,361	-0,067	-0,001
-254,351	-200,000	0,026	0,091
-253,336	-200,000	0,015	0,067
-252,322	229,921	-0,133	0,158
-251,307	54,495	-0,033	-0,023
-250,292	-200,000	-0,030	0,147
-249,278	166,569	-0,029	-0,030
-248,263	-200,000	0,022	0,124
-247,249	153,765	-0,083	0,082
-246,234	800,000	0,030	-0,079
-245,219	79,665	0,101	-0,079
-244,205	-73,719	0,083	0,022
-243,190	-80,526	0,098	0,023
-242,176	-149,863	-0,098	-0,005
-241,161	81,627	0,041	0,032
-240,146	32,507	-0,028	0,018
-239,132	-200,000	0,040	0,135
-238,117	138,155	-0,081	-0,076
-237,103	-200,000	0,010	-0,046
-236,088	-6,401	-0,179	0,088
-235,073	800,000	0,035	0,102
-234,059	-200,000	0,022	-0,091
-233,044	-200,000	0,003	0,116
-232,030	-200,000	0,001	0,030
-231,015	-200,000	0,003	-0,065
-230,000	153,230	-0,088	-0,087
-228,986	128,945	0,052	-0,048
-227,971	30,588	-0,036	0,022
-226,957	129,183	0,068	0,062
-225,942	546,020	-0,066	-0,115
-224,927	-45,454	0,063	0,022
-223,913	26,324	-0,162	-0,097
-222,898	-24,361	-0,107	-0,046
-221,884	-136,889	-0,077	0,006
-220,869	-200,000	0,013	0,061
-219,855	372,128	-0,072	0,106
-218,840	103,772	-0,035	-0,030
-217,825	427,632	-0,041	0,065
-216,811	-200,000	-0,007	-0,087
-215,796	56,648	-0,067	0,047
-214,782	189,217	0,085	0,092
-213,767	-38,784	0,096	0,036
-212,752	16,281	0,052	-0,030
-211,738	-85,235	-0,109	0,024
-210,723	429,095	0,048	0,075
-209,709	-38,985	0,033	0,013
-208,694	-69,955	-0,108	-0,029
-207,679	781,391	0,044	-0,088
-206,665	-200,000	-0,018	0,062
-205,650	-200,000	-0,005	0,190
-204,636	-62,069	0,124	0,037
-203,621	16,364	0,030	-0,017
-202,606	51,019	-0,078	-0,053
-201,592	-200,000	-0,005	0,039
-200,577	-55,799	-0,094	0,030
-199,563	-200,000	0,038	0,126
-198,548	800,000	-0,032	-0,086
-197,533	738,761	-0,030	0,059
-196,519	-200,000	-0,005	0,022
-195,504	158,006	0,036	0,036
-194,490	305,773	0,010	0,013
-193,475	-200,000	-0,003	-0,031
-192,460	-200,000	0,014	-0,053
-191,446	800,000	0,022	0,051
-190,431	629,138	-0,058	0,107
-189,417	75,350	-0,094	0,071
-188,402	800,000	-0,049	0,130
-187,387	-165,853	-0,009	0,000
-186,373	-177,358	0,097	0,002
-185,358	351,865	-0,055	0,079
-184,344	33,409	0,072	-0,045
-183,329	171,045	-0,081	0,084
-182,315	418,017	0,054	0,084
-181,300	-200,000	0,007	0,087
-180,285	-200,000	-0,005	-0,153
-179,271	-61,087	-0,086	0,026
-178,256	800,000	-0,018	-0,052
-177,242	-200,000	0,011	-0,131
-176,227	250,480	-0,050	-0,062
-175,212	800,000	-0,044	0,089
-174,198	-68,021	-0,075	-0,021
-173,183	398,802	-0,085	-0,129
-172,169	-35,117	-0,104	0,041
-171,154	601,121	0,032	0,058
-170,139	57,758	0,095	0,067
-169,125	25,790	-0,180	-0,108
-168,110	352,182	0,089	0,127
-167,096	-15,203	0,072	-0,033
-166,081	-200,000	-0,011	-0,060
-165,066	-52,826	-0,181	0,060
-164,052	-200,000	0,049	-0,168
-163,037	-200,000	0,035	0,139
-162,023	436,465	0,078	0,122
-161,008	-152,640	0,104	0,005
-159,993	558,703	-0,070	-0,122
-158,979	-166,322	-0,096	-0,003
-157,964	800,000	0,018	0,038
-156,950	165,404	0,081	-0,083
-155,935	-74,447	-0,212	-0,055
-154,920	150,963	-0,017	-0,016
-153,906	-200,000	-0,022	-0,161
-152,891	800,000	-0,030	-0,061
-151,877	34,667	-0,005	0,003
-150,862	800,000	-0,014	-0,027
-149,847	142,114	-0,150	-0,143
-148,833	-200,000	-0,015	-0,060
-147,818	-23,385	0,097	-0,042
-146,804	204,769	-0,139	0,155
-145,789	-200,000	0,006	0,045
-144,775	245,525	0,023	-0,028
-143,760	800,000	-0,014	-0,044
-142,745	152,215	-0,026	-0,025
-141,731	577,623	-0,047	-0,083
-140,716	71,659	-0,161	-0,120
-139,702	0,123	-0,058	-0,030
-138,687	17,309	0,087	0,049
-137,672	-66,573	-0,089	0,025
-136,658	-146,366	0,041	0,003
-135,643	175,846	-0,110	-0,115
-134,629	800,000	0,036	0,112
-133,614	305,888	-0,095	-0,127
-132,599	-200,000	0,002	-0,008
-131,585	-83,915	0,099	0,023
-130,570	50,410	-0,024	-0,016
-129,556	-200,000	-0,020	0,166
-128,541	-200,000	-0,009	-0,059
-127,526	800,000	-0,006	-0,014
-126,512	-200,000	0,015	0,168
-125,497	17,241	0,181	0,103
-124,483	-200,000	0,003	0,051
-123,468	356,795	-0,039	0,056
-122,453	-172,441	-0,124	0,003
-121,439	471,218	0,046	-0,075
-120,424	-189,398	-0,034	0,000
-119,410	-200,000	0,004	0,056
-118,395	-72,554	-0,086	-0,023
-117,380	133,370	-0,023	-0,022
-116,366	625,093	0,027	0,049
-115,351	-74,393	-0,061	-0,016
-114,337	136,265	0,036	-0,034
-113,322	-200,000	-0,002	-0,047
-112,307	11,102	-0,095	0,052
-111,293	38,111	-0,033	-0,021
-110,278	141,869	0,042	-0,040
-109,264	735,315	-0,035	0,068
-108,249	-200,000	0,024	-0,196
-107,234	800,000	-0,072	-0,176
-106,220	61,754	-0,044	-0,032
-105,205	114,560	-0,097	0,085
-104,191	-70,879	0,079	-0,021
-103,176	-200,000	-0,030	0,155
-102,162	68,016	-0,141	0,104
-101,147	-31,952	-0,138	0,055
-100,132	359,336	0,084	0,121
-99,118	800,000	0,026	-0,076
-98,103	-200,000	0,011	-0,066
-97,089	-200,000	-0,033	0,107
-96,074	332,926	0,059	0,082
-95,059	101,661	-0,026	-0,022
-94,045	282,493	-0,045	0,058
-93,030	65,835	-0,056	-0,041
-92,016	367,845	0,038	-0,056
-91,001	305,849	0,032	0,042
-89,986	-200,000	0,012	0,049
-88,972	136,104	0,044	-0,041
-87,957	-200,000	0,003	-0,080
-86,943	251,948	0,059	-0,072
-85,928	275,133	0,026	-0,033
-84,913	-28,661	-0,148	-0,061
-83,899	-200,000	-0,002	-0,102
-82,884	93,388	0,091	-0,074
-81,870	-66,902	-0,165	0,047
-80,855	322,938	0,099	0,135
-79,840	384,473	0,044	0,065
-78,826	-77,109	-0,086	0,021
-77,811	259,643	0,070	0,087
-76,797	-200,000	-0,010	0,067
-75,782	438,839	0,055	0,086
-74,767	90,343	-0,097	0,078
-73,753	31,462	-0,088	0,054
-72,738	-200,000	-0,007	-0,087
-71,724	380,768	0,031	0,046
-70,709	406,033	-0,018	0,028
-69,694	800,000	-0,045	0,121
-68,680	-90,921	0,080	-0,016
-67,665	-25,354	0,086	0,036
-66,651	169,953	0,077	0,079
-65,636	405,743	0,077	-0,117
-64,622	212,706	-0,069	0,078
-63,607	-131,418	-0,052	-0,005
-62,592	110,057	0,099	0,085
-61,578	335,142	0,082	0,115
-60,563	201,273	-0,026	0,028
-59,549	-200,000	-0,043	0,138
-58,534	11,160	-2,041	-1,117
-57,519	-200,000	-0,142	-0,806
-56,505	-200,000	-1,292	-5,024
-55,490	115,839	0,840	0,737
-54,476	800,000	5,341	12,101
-53,461	-200,000	18,510	312,715
-52,446	800,000	740,309	2320,786
-51,432	556,947	1656,575	2874,629
-50,417	110,834	1640,582	1415,548
-49,403	75,060	1290,500	974,230
-48,388	30,513	1031,072	630,727
-47,373	20,105	993,628	573,349
-46,359	17,655	981,318	558,162
-45,344	14,301	977,545	544,969
-44,330	14,678	975,773	545,199
-43,315	14,043	973,924	542,060
-42,300	13,955	972,959	541,214
-41,286	13,909	971,993	540,505
-40,271	13,960	971,060	540,132
-39,257	13,969	970,144	539,630
-38,242	13,970	969,366	539,177
-37,227	14,007	968,349	538,713
-36,213	13,992	967,490	538,163
-35,198	13,917	966,627	537,417
-34,184	14,007	965,960	537,318
-33,169	13,934	964,928	536,485
-32,154	14,012	963,829	536,108
-31,140	13,968	962,981	535,470
-30,125	13,989	962,531	535,269
-29,111	13,966	961,489	534,594
-28,096	14,022	960,977	534,469
-27,082	14,009	960,127	533,933
-26,067	14,023	959,388	533,544
-25,052	14,016	958,535	533,027
-24,038	13,964	958,055	532,572
-23,023	13,958	957,415	532,174
-22,009	13,961	956,732	531,785
-20,994	14,005	956,101	531,555
-19,979	14,028	955,499	531,272
-18,965	13,922	954,919	530,586
-17,950	13,998	954,213	530,419
-16,936	13,951	953,671	529,946
-15,921	13,925	952,851	529,387
-14,906	13,933	952,233	529,048
-13,892	13,925	951,568	528,630
-12,877	13,866	950,922	528,062
-11,863	13,858	950,006	527,505
-10,848	13,837	949,721	527,260
-9,833	13,920	949,205	527,217
-8,819	13,904	948,456	526,730
-7,804	13,925	947,850	526,439
-6,790	13,870	947,480	526,037
-5,775	13,894	946,898	525,771
-4,760	13,882	946,244	525,348
-3,746	13,852	945,751	524,958
-2,731	13,768	944,862	524,176
-1,717	13,732	944,136	523,637
-0,702	13,674	943,563	523,117
0,313	13,472	942,922	522,908
1,327	16,760	940,524	531,936
2,342	25,644	795,864	473,724
3,356	22,048	460,486	268,550
4,371	-4,678	317,375	156,398
5,386	-8,620	299,179	143,390
6,400	-10,535	293,011	138,502
7,415	-10,877	290,581	137,001
8,429	-11,211	288,895	135,864
9,444	-11,355	288,041	135,308
10,459	-11,122	287,445	135,246
11,473	-11,155	286,890	134,940
12,488	-11,064	286,411	134,792
13,502	-11,178	285,835	134,397
14,517	-10,998	285,264	134,293
15,531	-11,024	284,919	134,093
16,546	-11,134	284,469	133,762
17,561	-11,021	284,074	133,675
18,575	-11,001	283,665	133,489
19,590	-11,142	283,312	133,175
20,604	-11,279	283,088	132,925
21,619	-11,250	282,788	132,801
22,634	-11,064	282,336	132,756
23,648	-11,220	282,131	132,497
24,663	-11,105	281,821	132,451
25,677	-11,031	281,496	132,357
26,692	-11,356	281,261	131,923
27,707	-11,223	280,989	131,911
28,721	-11,146	280,682	131,829
29,736	-11,523	280,625	131,429
30,750	-11,346	280,021	131,304
31,765	-11,274	279,950	131,327
32,780	-11,061	279,511	131,313
33,794	-11,301	279,478	131,057
34,809	-11,115	278,977	130,987
35,823	-11,428	278,886	130,635
36,838	-11,355	278,657	130,585
37,853	-11,351	278,409	130,461
38,867	-11,268	278,108	130,387
39,882	-11,209	277,814	130,293
40,896	-11,313	277,508	130,040
41,911	-11,381	277,346	129,889
42,926	-11,165	276,935	129,889
43,940	-11,267	276,843	129,738
44,955	-11,445	276,662	129,473
45,969	-11,281	276,279	129,436
46,984	-11,457	276,079	129,166
47,999	-11,507	275,870	129,009
49,013	-11,725	275,613	128,672
50,028	-11,803	275,361	128,471
51,042	-12,076	275,132	128,096
52,057	-11,880	274,624	128,032
53,071	-11,850	274,539	128,009
54,086	-11,804	274,369	127,961
55,101	-11,681	274,147	127,961
56,115	-11,589	274,248	128,083
57,130	-11,034	273,954	128,452
58,144	-11,103	273,724	128,268
59,159	-11,134	273,480	128,114
60,174	-11,227	273,237	127,902
61,188	-11,133	273,209	127,965
62,203	-11,185	272,793	127,710
63,217	-11,013	272,663	127,798
64,232	-10,994	272,273	127,621
65,247	-10,940	272,196	127,623
66,261	-10,971	271,944	127,466
67,276	-11,331	271,729	127,021
68,290	-11,400	271,322	126,755
69,305	-11,505	271,076	126,532
70,320	-11,523	270,948	126,445
71,334	-11,126	270,817	126,738
72,349	-11,320	270,707	126,496
73,363	-11,078	270,340	126,537
74,378	-11,187	270,048	126,288
75,393	-11,041	269,950	126,365
76,407	-11,172	269,759	126,144
77,422	-11,067	269,513	126,114
78,436	-11,106	269,277	125,957
79,451	-11,126	269,197	125,890
80,466	-11,260	268,890	125,612
81,480	-11,197	268,531	125,491
82,495	-11,433	268,307	125,160
83,509	-11,267	268,312	125,302
84,524	-11,346	268,084	125,113
85,539	-11,357	267,628	124,879
86,553	-11,365	267,516	124,808
87,568	-11,445	267,433	124,685
88,582	-11,195	267,055	124,725
89,597	-11,392	267,005	124,512
90,611	-11,069	266,721	124,661
91,626	-11,182	266,554	124,470
92,641	-11,042	266,436	124,530
93,655	-11,101	266,208	124,360
94,670	-11,171	265,921	124,151
95,684	-11,247	265,564	123,904
96,699	-11,235	265,497	123,873
97,714	-11,354	265,376	123,699
98,728	-11,436	264,961	123,420
99,743	-11,364	264,829	123,412
100,757	-11,426	264,598	123,238
101,772	-11,253	264,256	123,223
102,787	-11,223	264,245	123,234
103,801	-11,194	264,144	123,202
104,816	-10,977	263,791	123,220
105,830	-10,995	263,776	123,186
106,845	-11,149	263,675	122,990
107,860	-11,070	263,386	122,915
108,874	-11,216	263,107	122,644
109,889	-11,145	262,784	122,546
110,903	-11,134	262,590	122,454
111,918	-11,102	262,442	122,402
112,933	-11,159	262,309	122,279
113,947	-11,067	262,079	122,242
114,962	-11,292	262,009	121,999
115,976	-11,210	261,793	121,960
116,991	-11,138	261,662	121,952
118,006	-11,265	261,440	121,725
119,020	-11,143	261,340	121,776
120,035	-11,162	261,151	121,660
121,049	-11,000	260,884	121,668
122,064	-11,043	260,623	121,498
123,079	-11,163	260,525	121,335
124,093	-11,285	260,368	121,144
125,108	-11,437	259,897	120,780
126,122	-11,367	259,735	120,755
127,137	-11,442	259,445	120,544
128,151	-11,350	259,332	120,561
129,166	-11,247	259,109	120,538
130,181	-11,619	258,964	120,133
131,195	-11,432	258,702	120,165
132,210	-11,250	258,528	120,232
133,224	-11,238	258,509	120,223
134,239	-11,153	258,270	120,175
135,254	-11,149	258,128	120,103
136,268	-11,348	257,960	119,840
137,283	-11,533	257,658	119,527
138,297	-11,518	257,349	119,386
139,312	-11,585	257,155	119,228
140,327	-11,571	257,115	119,211
141,341	-10,897	256,930	119,699
142,356	-10,974	256,747	119,537
143,370	-11,047	256,693	119,438
144,385	-11,014	256,370	119,305
145,400	-10,970	256,206	119,256
146,414	-10,916	256,022	119,207
147,429	-10,927	255,882	119,122
148,443	-10,923	255,684	119,023
149,458	-10,968	255,599	118,933
150,473	-10,867	255,247	118,847
151,487	-11,025	255,021	118,594
152,502	-10,987	254,933	118,576
153,516	-10,904	254,676	118,517
154,531	-10,781	254,507	118,533
155,546	-10,821	254,249	118,368
156,560	-11,075	254,189	118,111
157,575	-10,993	254,062	118,112
158,589	-11,001	253,905	118,022
159,604	-11,113	253,471	117,714
160,619	-11,041	253,517	117,786
161,633	-10,845	253,204	117,799
162,648	-10,911	253,110	117,687
163,662	-10,988	252,930	117,527
164,677	-10,835	252,742	117,560
165,692	-10,942	252,699	117,439
166,706	-10,960	252,483	117,312
167,721	-10,838	252,157	117,254
168,735	-10,917	252,133	117,165
169,750	-10,922	252,033	117,104
170,764	-10,958	251,828	116,968
171,779	-10,769	251,612	117,018
172,794	-10,780	251,549	116,969
173,808	-10,840	251,255	116,771
174,823	-11,270	250,988	116,272
175,837	-11,680	250,779	115,818
176,852	-11,140	250,697	116,227
177,867	-10,871	250,529	116,366
178,881	-11,058	250,534	116,199
179,896	-10,820	250,287	116,275
180,910	-11,058	250,187	116,017
181,925	-11,081	250,063	115,930
182,940	-11,014	249,698	115,807
183,954	-10,863	249,553	115,856
184,969	-10,564	249,352	116,004
185,983	-10,892	249,257	115,674
186,998	-10,991	249,057	115,488
188,013	-10,837	248,851	115,511
189,027	-10,927	248,736	115,372
190,042	-10,730	248,412	115,376
191,056	-10,881	248,325	115,199
192,071	-10,922	248,218	115,105
193,086	-10,762	247,961	115,110
194,100	-10,918	247,896	114,938
195,115	-10,831	247,713	114,916
196,129	-10,681	247,489	114,927
197,144	-10,818	247,320	114,724
198,159	-10,748	247,044	114,644
199,173	-10,984	246,894	114,368
200,188	-10,742	246,684	114,462
201,202	-11,141	246,400	113,989
202,217	-11,400	246,212	113,677
203,232	-11,598	246,023	113,416
204,246	-10,984	245,976	113,892
205,261	-10,612	245,807	114,111
206,275	-11,419	245,574	113,327
207,290	-7,463	247,158	117,333
208,304	0,239	249,686	124,965
209,319	4,046	250,688	128,641
210,334	4,508	250,887	129,118
211,348	4,675	250,556	129,075
212,363	5,040	250,610	129,396
213,377	5,150	250,298	129,315
214,392	5,026	250,088	129,093
215,407	4,951	249,962	128,953
216,421	4,996	249,717	128,853
217,436	4,864	249,705	128,726
218,450	5,166	249,602	128,912
219,465	5,017	249,370	128,657
220,480	4,807	249,135	128,350
221,494	4,648	248,861	128,066
222,509	4,402	248,941	127,891
223,523	4,652	248,622	127,923
224,538	4,145	248,319	127,336
225,553	4,687	248,156	127,689
226,567	4,553	248,175	127,577
227,582	4,798	247,898	127,625
228,596	4,622	247,757	127,396
229,611	4,246	247,508	126,947
230,626	4,101	247,254	126,686
231,640	4,198	247,253	126,755
232,655	4,361	247,065	126,781
233,669	4,265	246,917	126,614
234,684	4,126	246,588	126,321
235,699	4,544	246,478	126,596
236,713	4,704	246,490	126,722
237,728	4,322	246,260	126,279
238,742	4,276	245,965	126,080
239,757	4,353	245,782	126,037
240,772	4,080	245,860	125,843
241,786	4,371	245,565	125,918
242,801	4,136	245,549	125,707
243,815	4,163	245,348	125,614
244,830	4,598	245,175	125,869
245,844	4,678	245,048	125,858
246,859	4,441	244,724	125,488
247,874	4,276	244,545	125,250
248,888	4,628	244,307	125,403
249,903	4,532	244,378	125,351
250,917	4,546	244,273	125,297
251,932	4,670	244,114	125,304
252,947	4,643	243,721	125,070
253,961	4,480	243,472	124,799
254,976	4,323	243,744	124,801
255,990	4,515	243,412	124,774
257,005	4,399	243,149	124,535
258,020	3,951	243,024	124,099
259,034	4,296	242,982	124,345
260,049	4,322	242,840	124,281
261,063	4,361	242,533	124,145
262,078	4,195	242,353	123,908
263,093	4,646	242,316	124,240
264,107	4,483	242,160	124,019
265,122	4,348	241,904	123,768
266,136	4,505	241,776	123,818
267,151	4,687	241,806	123,967
268,166	4,443	241,416	123,562
269,180	4,297	241,260	123,354
270,195	4,584	241,408	123,648
271,209	5,056	241,242	123,929
272,224	4,706	240,805	123,414
273,239	4,068	240,546	122,762
274,253	4,179	240,448	122,790
275,268	4,437	240,333	122,925
276,282	4,372	240,382	122,888
277,297	4,415	239,951	122,691
278,312	4,282	239,896	122,546
279,326	4,441	239,780	122,602
280,341	4,504	239,571	122,534
281,355	4,308	239,498	122,330
282,370	4,500	239,306	122,373
283,384	4,289	239,224	122,154
284,399	4,279	239,089	122,066
285,414	4,129	238,764	121,770
286,428	4,116	238,683	121,708
287,443	4,042	238,623	121,608
288,457	4,343	238,444	121,744
289,472	4,462	238,342	121,775
290,487	4,427	238,034	121,579
291,501	4,081	237,934	121,245
292,516	4,029	237,709	121,078
293,530	4,002	237,704	121,043
294,545	4,408	237,648	121,324
295,560	4,323	237,490	121,165
296,574	4,104	237,100	120,783
297,589	4,178	237,127	120,845
298,603	4,581	236,994	121,082
299,618	4,685	236,856	121,082
300,633	4,570	236,660	120,882
301,647	4,488	236,510	120,730
302,662	4,825	236,516	120,985
303,676	4,803	236,326	120,860
304,691	4,788	236,121	120,733
305,706	4,800	236,018	120,679
306,720	4,810	235,936	120,634
307,735	4,609	235,703	120,347
308,749	4,663	235,401	120,224
309,764	4,476	235,281	120,007
310,779	4,113	235,007	119,575
311,793	3,938	234,794	119,320
312,808	4,206	234,690	119,464
313,822	4,126	234,487	119,288
314,837	3,855	234,483	119,065
315,852	3,811	234,414	118,986
316,866	4,250	234,266	119,240
317,881	4,260	234,244	119,226
318,895	4,182	233,950	119,006
319,910	4,435	233,837	119,132
320,925	4,535	233,643	119,100
321,939	4,541	233,464	119,003
322,954	4,654	233,303	118,997
323,968	4,242	233,265	118,650
324,983	4,259	233,254	118,647
325,997	4,655	233,030	118,827
327,012	4,403	232,934	118,574
328,027	4,438	232,673	118,457
329,041	4,909	232,430	118,684
330,056	5,239	232,656	119,042
331,070	5,206	232,351	118,850
332,085	4,909	232,158	118,513
333,100	4,690	231,919	118,213
334,114	4,224	231,791	117,782
335,129	4,884	231,681	118,219
336,143	4,969	231,619	118,241
337,158	4,698	231,394	117,909
338,173	4,492	231,197	117,642
339,187	4,401	230,917	117,420
340,202	4,556	230,904	117,521
341,216	4,517	230,757	117,406
342,231	4,393	230,595	117,218
343,246	4,570	230,459	117,273
344,260	4,631	230,229	117,192
345,275	4,572	230,239	117,142
346,289	4,797	230,105	117,234
347,304	4,754	229,906	117,089
348,319	4,744	229,828	117,032
349,333	4,701	229,552	116,848
350,348	4,558	229,434	116,670
351,362	4,494	229,339	116,562
352,377	4,273	229,069	116,249
353,392	4,230	228,852	116,096
354,406	4,334	228,773	116,124
355,421	196,620	1317,718	1396,680
356,435	157,752	1450,367	1396,645
