DTS Sentinel unit serial number:	SN410029Multiplexer serial number:	ORYXHardware model number:	OX2-SRSoftware version number:	ORYX F/W v4,00 Oryx Data Collector v3.7.2.0data status	okinstallation	B5 Nyhavnadifferential loss correction	single-endedforward channel	channel 2reverse channel	N/Adate	2023/12/13time	03:52:13forward acquisition time	300,00reverse acquisition time	0,00gamma	499,1914k internal	0,3159k external	0,3159temperature offset calibration	1,0000default loss term (dB/km)	0,3820temperature slope calibration	1,0000multiplexer offset coefficient	1,0000multiplexer slope coefficient	1,0000fibre end	0,00T internal ref (°C)	13,94T ext. ref 1 (°C)	-2,46T ext. ref 2 (°C)	-2,78length (m)	temperature (°C)	Stokes	anti-Stokes-744,400	58,489	0,175	0,126
-743,385	-117,809	-0,331	-0,043
-742,371	-200,000	-0,015	0,084
-741,356	188,676	-0,159	0,175
-740,342	-42,811	0,208	0,078
-739,327	-141,066	-0,319	0,024
-738,312	-78,625	0,071	0,018
-737,298	-158,777	-0,271	0,011
-736,283	-164,522	-0,090	0,003
-735,269	5,442	-0,243	0,132
-734,254	-200,000	0,002	0,016
-733,239	-12,302	-0,378	-0,182
-732,225	146,023	0,086	0,085
-731,210	800,000	0,057	0,151
-730,196	-200,000	-0,007	-0,046
-729,181	800,000	0,023	-0,068
-728,167	-200,000	-0,002	-0,188
-727,152	800,000	-0,047	-0,126
-726,137	-200,000	-0,059	-0,252
-725,123	467,042	0,038	0,062
-724,108	-200,000	0,012	-0,116
-723,094	26,066	-0,086	-0,053
-722,079	800,000	-0,051	-0,117
-721,064	800,000	0,036	-0,076
-720,050	97,724	0,035	-0,030
-719,035	-20,323	0,088	0,040
-718,021	-165,741	-0,155	-0,005
-717,006	800,000	-0,026	0,055
-715,991	-110,579	-0,130	0,020
-714,977	565,678	0,013	-0,023
-713,962	-200,000	-0,023	-0,087
-712,948	800,000	-0,020	-0,043
-711,933	206,893	-0,096	0,110
-710,918	-137,071	0,024	-0,002
-709,904	402,455	0,056	-0,087
-708,889	-200,000	-0,049	-0,196
-707,875	-200,000	-0,016	-0,084
-706,860	-200,000	-0,009	0,110
-705,845	-200,000	0,001	0,018
-704,831	-73,950	-0,091	-0,024
-703,816	-89,769	0,029	-0,006
-702,802	-119,932	0,076	-0,010
-701,787	30,046	0,013	0,008
-700,772	-70,614	-0,169	-0,047
-699,758	-153,145	-0,067	0,003
-698,743	189,394	0,089	0,099
-697,729	800,000	-0,033	0,078
-696,714	64,493	-0,049	-0,036
-695,699	488,198	-0,022	-0,037
-694,685	97,063	-0,049	-0,041
-693,670	77,789	-0,091	0,071
-692,656	800,000	0,035	0,108
-691,641	121,958	0,079	0,073
-690,627	800,000	0,043	0,114
-689,612	74,023	0,072	0,056
-688,597	-17,153	-0,177	-0,082
-687,583	257,694	-0,121	-0,153
-686,568	-200,000	0,004	-0,052
-685,554	59,804	-0,131	-0,095
-684,539	266,703	0,108	0,139
-683,524	-102,231	-0,122	0,021
-682,510	-137,945	0,059	-0,005
-681,495	162,653	0,063	0,065
-680,481	278,620	0,070	-0,093
-679,466	87,389	-0,009	0,008
-678,451	800,000	-0,007	0,017
-677,437	-118,727	0,120	-0,015
-676,422	-157,201	0,092	-0,004
-675,408	800,000	0,039	0,107
-674,393	76,829	-0,056	-0,043
-673,378	53,144	-0,042	-0,030
-672,364	365,065	0,087	-0,129
-671,349	538,407	-0,044	-0,076
-670,335	156,000	-0,067	0,067
-669,320	46,994	0,116	-0,079
-668,305	127,973	0,093	-0,087
-667,291	276,164	-0,110	0,143
-666,276	15,061	-0,140	-0,080
-665,262	131,327	-0,212	-0,200
-664,247	800,000	0,058	-0,175
-663,232	516,362	-0,013	-0,022
-662,218	397,588	-0,041	-0,063
-661,203	800,000	-0,043	0,102
-660,189	-32,336	-0,092	-0,037
-659,174	53,823	0,122	0,086
-658,159	-44,438	-0,009	0,003
-657,145	-82,657	-0,169	0,040
-656,130	147,521	0,047	-0,046
-655,116	306,953	0,014	0,019
-654,101	-200,000	-0,007	-0,030
-653,086	280,889	0,096	0,126
-652,072	619,161	-0,068	0,126
-651,057	-200,000	0,013	-0,045
-650,043	-130,432	0,113	-0,011
-649,028	-200,000	0,019	0,135
-648,014	38,338	0,115	-0,075
-646,999	310,062	0,063	0,087
-645,984	800,000	0,021	0,043
-644,970	-200,000	-0,014	-0,123
-643,955	147,057	-0,089	-0,088
-642,941	-200,000	-0,012	0,042
-641,926	-67,272	0,135	-0,039
-640,911	-200,000	-0,010	-0,062
-639,897	-108,204	-0,077	0,012
-638,882	152,077	-0,075	-0,075
-637,868	800,000	-0,016	0,034
-636,853	-54,789	0,004	-0,001
-635,838	-200,000	-0,002	-0,075
-634,824	-2,149	-0,097	0,050
-633,809	49,676	0,057	-0,040
-632,795	-80,146	0,041	0,010
-631,780	-112,975	-0,044	-0,006
-630,765	-109,554	-0,089	0,014
-629,751	-200,000	0,028	-0,115
-628,736	-200,000	-0,011	-0,177
-627,722	-78,744	-0,121	-0,030
-626,707	-200,000	0,001	0,009
-625,692	-200,000	-0,004	0,161
-624,678	-80,915	-0,029	0,007
-623,663	-200,000	-0,031	-0,107
-622,649	524,520	-0,038	-0,066
-621,634	-134,953	-0,142	0,012
-620,619	34,045	-0,031	0,020
-619,605	-147,656	0,042	0,003
-618,590	-200,000	0,003	-0,113
-617,576	-200,000	0,008	0,125
-616,561	800,000	-0,035	-0,082
-615,546	-171,785	0,061	-0,001
-614,532	319,972	0,090	-0,126
-613,517	699,720	-0,054	-0,105
-612,503	-122,051	0,107	-0,013
-611,488	13,809	0,076	0,043
-610,474	-102,849	0,159	-0,027
-609,459	2,798	-0,072	0,038
-608,444	-60,580	0,086	0,026
-607,430	500,103	-0,038	-0,064
-606,415	-200,000	-0,016	0,059
-605,401	-200,000	0,031	-0,138
-604,386	297,607	0,056	0,075
-603,371	124,954	-0,009	0,008
-602,357	81,099	0,059	-0,046
-601,342	-200,000	-0,002	-0,013
-600,328	-200,000	0,013	0,075
-599,313	-134,746	-0,103	0,009
-598,298	-31,576	-0,068	0,028
-597,284	-56,701	0,090	0,029
-596,269	-18,377	-0,034	0,016
-595,255	-59,761	-0,031	-0,010
-594,240	164,712	-0,060	-0,062
-593,225	-143,669	-0,165	0,011
-592,211	121,071	0,025	0,022
-591,196	-200,000	-0,027	0,117
-590,182	536,256	0,048	0,084
-589,167	171,755	-0,054	0,057
-588,152	57,194	0,071	0,050
-587,138	13,312	-0,060	-0,034
-586,123	-200,000	-0,004	0,023
-585,109	-7,842	0,098	0,048
-584,094	-200,000	0,004	-0,103
-583,079	326,033	-0,075	0,106
-582,065	-145,981	0,081	-0,005
-581,050	-184,703	-0,158	0,002
-580,036	74,554	0,044	-0,034
-579,021	263,986	-0,109	-0,139
-578,006	-141,154	-0,143	0,011
-576,992	800,000	-0,019	0,044
-575,977	757,343	0,033	0,065
-574,963	256,063	-0,085	0,108
-573,948	53,478	0,018	0,012
-572,934	-90,470	-0,148	0,031
-571,919	46,235	-0,118	-0,080
-570,904	-143,276	0,087	0,006
-569,890	131,968	0,032	0,030
-568,875	-34,729	0,096	0,038
-567,861	-200,000	0,002	0,029
-566,846	-95,451	0,107	0,021
-565,831	800,000	0,007	0,017
-564,817	-48,919	0,094	-0,033
-563,802	-200,000	0,011	-0,047
-562,788	295,331	-0,064	0,085
-561,773	-200,000	0,003	0,039
-560,758	10,195	0,056	0,031
-559,744	800,000	0,012	0,026
-558,729	30,278	0,100	0,062
-557,715	243,919	0,032	-0,039
-556,700	235,453	-0,117	-0,142
-555,685	330,799	-0,029	-0,041
-554,671	-12,587	-0,074	0,035
-553,656	325,945	0,025	0,034
-552,642	-114,054	-0,114	0,016
-551,627	800,000	0,039	0,100
-550,612	-37,961	-0,116	0,045
-549,598	800,000	-0,037	-0,092
-548,583	-200,000	-0,028	-0,110
-547,569	10,059	-0,073	-0,040
-546,554	208,061	0,019	0,022
-545,539	-140,431	0,079	-0,006
-544,525	-107,449	-0,091	-0,015
-543,510	800,000	-0,084	-0,190
-542,496	800,000	0,032	-0,070
-541,481	-200,000	-0,026	-0,134
-540,466	-200,000	-0,016	0,084
-539,452	168,317	-0,073	-0,076
-538,437	800,000	0,074	-0,183
-537,423	-200,000	0,026	0,089
-536,408	-200,000	0,022	-0,111
-535,393	-200,000	-0,017	0,108
-534,379	74,353	-0,013	-0,010
-533,364	-200,000	0,006	0,073
-532,350	263,028	0,068	0,086
-531,335	800,000	-0,017	0,041
-530,321	5,820	-0,022	0,012
-529,306	21,486	0,078	-0,046
-528,291	180,699	-0,072	-0,077
-527,277	-200,000	-0,003	-0,018
-526,262	-200,000	-0,008	-0,112
-525,248	-106,641	0,190	0,031
-524,233	38,239	0,115	0,074
-523,218	199,956	0,119	-0,133
-522,204	-145,037	0,121	0,008
-521,189	-21,600	-0,035	0,016
-520,175	30,752	-0,102	-0,064
-519,160	75,741	-0,047	0,036
-518,145	46,563	0,066	0,045
-517,131	-134,733	0,157	-0,014
-516,116	97,098	0,061	-0,051
-515,102	-25,863	0,163	-0,070
-514,087	-85,102	-0,178	-0,040
-513,072	-200,000	0,015	-0,056
-512,058	364,021	0,071	-0,105
-511,043	-200,000	0,014	0,090
-510,029	-46,947	0,143	-0,051
-509,014	-200,000	0,015	-0,061
-507,999	-27,918	-0,102	0,043
-506,985	-189,257	-0,060	-0,001
-505,970	800,000	-0,040	0,094
-504,956	-200,000	0,011	-0,044
-503,941	-59,795	-0,151	-0,047
-502,926	8,115	0,159	0,087
-501,912	-93,056	0,064	0,013
-500,897	-200,000	-0,005	-0,164
-499,883	-28,854	0,045	-0,019
-498,868	800,000	-0,023	-0,056
-497,853	756,591	-0,036	-0,071
-496,839	-88,331	0,083	-0,018
-495,824	657,286	0,057	0,107
-494,810	115,575	0,104	0,093
-493,795	58,097	0,077	0,055
-492,781	-86,919	-0,069	0,015
-491,766	-12,622	-0,139	-0,066
-490,751	-200,000	0,002	-0,021
-489,737	23,483	0,014	0,008
-488,722	256,143	0,064	-0,080
-487,708	-99,945	-0,036	-0,007
-486,693	-200,000	0,012	-0,120
-485,678	79,903	0,100	0,078
-484,664	6,353	-0,195	-0,105
-483,649	800,000	-0,023	-0,067
-482,635	-200,000	-0,007	-0,023
-481,620	-34,229	-0,089	-0,036
-480,605	71,850	0,047	-0,035
-479,591	654,307	0,028	0,052
-478,576	657,821	0,019	0,036
-477,562	413,011	0,051	-0,079
-476,547	-200,000	0,009	-0,079
-475,532	-27,372	0,161	0,068
-474,518	-169,020	-0,039	-0,001
-473,503	-200,000	-0,001	0,024
-472,489	-200,000	0,023	-0,109
-471,474	147,499	0,056	0,055
-470,459	-200,000	0,011	-0,064
-469,445	-24,872	0,117	0,050
-468,430	-131,520	0,133	-0,013
-467,416	-38,091	0,090	0,035
-466,401	296,637	0,053	0,071
-465,386	168,560	-0,091	-0,094
-464,372	153,198	0,095	-0,095
-463,357	-177,456	0,076	-0,001
-462,343	-200,000	0,050	-0,194
-461,328	-200,000	-0,007	-0,055
-460,313	514,666	0,045	0,076
-459,299	789,816	-0,063	-0,127
-458,284	-200,000	-0,018	0,169
-457,270	-106,803	-0,104	-0,017
-456,255	-200,000	0,016	-0,070
-455,241	-167,737	-0,097	-0,003
-454,226	-27,381	-0,064	0,027
-453,211	238,236	-0,033	0,040
-452,197	282,330	-0,033	0,044
-451,182	-102,354	-0,087	-0,015
-450,168	645,155	0,036	-0,067
-449,153	214,309	0,037	-0,042
-448,138	-200,000	-0,018	0,074
-447,124	-93,766	-0,035	-0,007
-446,109	-200,000	0,072	0,000
-445,095	429,389	0,077	0,121
-444,080	548,314	0,061	0,107
-443,065	-116,800	0,082	-0,011
-442,051	-153,326	0,032	-0,002
-441,036	56,261	-0,165	-0,117
-440,022	-62,503	-0,184	-0,055
-439,007	-35,511	-0,033	0,013
-437,992	-200,000	-0,006	0,084
-436,978	-200,000	-0,011	-0,129
-435,963	-187,237	-0,048	0,000
-434,949	-200,000	0,002	0,078
-433,934	-193,277	-0,064	-0,000
-432,919	304,545	-0,151	-0,205
-431,905	-200,000	-0,003	-0,101
-430,890	-130,217	0,052	-0,005
-429,876	-200,000	0,009	0,053
-428,861	526,621	0,035	0,060
-427,846	9,885	0,057	0,032
-426,832	423,020	0,037	-0,058
-425,817	-76,723	0,020	-0,005
-424,803	23,946	0,164	-0,098
-423,788	585,863	-0,051	-0,091
-422,773	-44,869	0,118	-0,043
-421,759	30,835	0,108	0,067
-420,744	154,155	-0,050	0,050
-419,730	-200,000	-0,005	-0,031
-418,715	-200,000	-0,044	-0,146
-417,701	-200,000	0,013	-0,080
-416,686	-200,000	-0,016	-0,073
-415,671	800,000	-0,051	0,113
-414,657	-116,065	0,108	0,014
-413,642	-67,060	0,065	-0,019
-412,628	67,609	0,163	-0,121
-411,613	48,826	-0,167	-0,114
-410,598	409,697	0,026	0,040
-409,584	800,000	0,008	0,016
-408,569	208,952	0,134	0,153
-407,555	448,355	0,070	-0,113
-406,540	-143,723	0,058	0,004
-405,525	-75,997	-0,019	0,005
-404,511	26,671	-0,087	0,053
-403,496	-67,589	0,099	0,028
-402,482	-200,000	0,007	-0,067
-401,467	58,282	0,099	0,070
-400,452	-77,833	-0,067	-0,017
-399,438	-140,794	-0,157	0,012
-398,423	-200,000	0,005	0,071
-397,409	-143,985	-0,206	0,014
-396,394	-41,785	-0,072	-0,027
-395,379	-200,000	0,019	-0,068
-394,365	-200,000	-0,034	0,201
-393,350	133,970	-0,097	0,091
-392,336	479,939	0,056	0,092
-391,321	-200,000	-0,014	-0,076
-390,306	119,244	0,066	-0,059
-389,292	-14,300	-0,092	0,043
-388,277	61,205	-0,083	0,060
-387,263	0,237	-0,029	-0,015
-386,248	103,250	0,179	0,153
-385,233	162,816	0,133	0,136
-384,219	-22,587	-0,085	-0,037
-383,204	169,013	-0,028	0,029
-382,190	288,912	-0,087	0,115
-381,175	-83,206	0,166	-0,038
-380,160	-38,917	-0,004	0,002
-379,146	-200,000	-0,020	0,114
-378,131	-200,000	0,013	0,211
-377,117	-56,348	0,090	-0,029
-376,102	629,694	-0,049	0,091
-375,088	39,452	-0,061	-0,039
-374,073	800,000	-0,038	0,098
-373,058	95,683	0,083	0,069
-372,044	-200,000	-0,009	0,041
-371,029	373,052	0,022	0,033
-370,015	800,000	-0,029	-0,087
-369,000	374,001	-0,062	-0,092
-367,985	237,569	0,010	-0,012
-366,971	-172,592	0,080	-0,002
-365,956	-53,890	-0,077	-0,025
-364,942	-151,344	0,110	0,006
-363,927	369,847	0,010	-0,015
-362,912	649,466	-0,057	0,106
-361,898	17,853	-0,055	-0,031
-360,883	-22,932	-0,101	-0,044
-359,869	16,682	-0,122	0,070
-358,854	-178,283	0,076	-0,001
-357,839	-42,577	0,094	0,035
-356,825	-102,150	0,125	-0,022
-355,810	-200,000	-0,001	0,014
-354,796	-102,678	-0,094	-0,016
-353,781	-200,000	-0,015	-0,120
-352,766	59,146	0,139	-0,099
-351,752	800,000	0,092	-0,187
-350,737	800,000	0,053	-0,125
-349,723	338,341	0,073	0,104
-348,708	-28,223	-0,063	-0,026
-347,693	83,639	-0,093	-0,074
-346,679	-6,862	0,037	0,018
-345,664	247,276	-0,067	-0,082
-344,650	71,043	-0,139	0,104
-343,635	-98,523	0,188	-0,035
-342,620	-167,419	-0,131	-0,004
-341,606	-147,980	-0,082	-0,005
-340,591	44,131	-0,068	-0,045
-339,577	148,878	0,052	0,051
-338,562	-20,446	-0,084	-0,037
-337,548	800,000	0,012	0,035
-336,533	-200,000	0,003	0,038
-335,518	-74,570	0,099	0,026
-334,504	-172,036	0,119	0,003
-333,489	379,347	-0,027	-0,040
-332,475	-57,277	-0,069	-0,022
-331,460	790,078	-0,049	-0,098
-330,445	-200,000	0,012	-0,113
-329,431	-0,674	0,050	0,026
-328,416	-58,111	-0,121	0,038
-327,402	-200,000	0,023	0,085
-326,387	-200,000	0,007	0,027
-325,372	-153,891	-0,190	0,009
-324,358	-151,042	-0,150	-0,008
-323,343	323,455	-0,058	0,080
-322,329	-200,000	0,015	0,089
-321,314	43,364	0,054	0,036
-320,299	800,000	0,030	0,068
-319,285	-200,000	0,013	0,070
-318,270	51,836	0,065	0,045
-317,256	-200,000	-0,036	-0,175
-316,241	-200,000	0,002	-0,084
-315,226	-200,000	-0,015	0,149
-314,212	-200,000	0,032	0,231
-313,197	-97,209	0,021	0,004
-312,183	397,408	0,069	-0,105
-311,168	-200,000	-0,007	-0,065
-310,153	658,445	-0,039	-0,073
-309,139	444,872	-0,056	0,089
-308,124	-200,000	0,000	-0,082
-307,110	-200,000	-0,001	0,052
-306,095	-45,934	0,128	0,045
-305,080	800,000	-0,026	0,082
-304,066	52,610	-0,037	-0,026
-303,051	-200,000	-0,024	-0,083
-302,037	800,000	-0,030	-0,076
-301,022	-139,213	0,087	0,007
-300,008	-28,104	0,086	-0,036
-298,993	730,860	-0,015	0,029
-297,978	-200,000	0,012	0,060
-296,964	4,017	-0,076	-0,040
-295,949	-44,338	-0,164	0,059
-294,935	-200,000	-0,042	-0,146
-293,920	800,000	-0,007	0,017
-292,905	800,000	0,040	-0,103
-291,891	297,002	-0,072	0,096
-290,876	-200,000	-0,000	0,101
-289,862	-168,695	0,035	-0,001
-288,847	-200,000	0,037	-0,146
-287,832	-103,066	-0,055	-0,009
-286,818	-138,850	0,024	-0,002
-285,803	798,189	0,014	-0,028
-284,789	-200,000	0,034	0,120
-283,774	497,111	-0,079	0,132
-282,759	800,000	0,012	0,026
-281,745	800,000	-0,037	-0,089
-280,730	249,938	0,029	0,036
-279,716	33,370	0,080	-0,050
-278,701	-200,000	-0,003	0,061
-277,686	-16,817	0,068	0,031
-276,672	9,998	0,039	0,021
-275,657	-47,386	-0,078	0,027
-274,643	-106,985	-0,038	-0,006
-273,628	800,000	0,020	0,053
-272,613	-3,623	-0,064	-0,032
-271,599	43,263	-0,049	-0,033
-270,584	-200,000	-0,005	0,053
-269,570	557,052	-0,038	0,066
-268,555	294,611	-0,019	-0,025
-267,540	-166,996	0,044	-0,001
-266,526	99,009	-0,092	-0,077
-265,511	56,948	-0,032	-0,023
-264,497	-71,664	-0,087	-0,023
-263,482	66,100	0,130	0,095
-262,467	-200,000	0,011	-0,064
-261,453	85,183	0,091	0,072
-260,438	-200,000	0,032	0,159
-259,424	-72,355	-0,059	-0,016
-258,409	-200,000	0,139	0,000
-257,395	-3,274	-0,055	0,028
-256,380	-200,000	-0,026	0,124
-255,365	-123,718	-0,058	0,007
-254,351	-105,202	0,036	0,006
-253,336	-45,835	-0,077	-0,027
-252,322	-114,133	0,092	-0,013
-251,307	-64,945	-0,071	-0,021
-250,292	22,034	0,097	-0,057
-249,278	-191,782	0,026	-0,000
-248,263	603,449	0,041	-0,073
-247,249	-64,611	0,142	0,041
-246,234	-95,004	-0,060	-0,012
-245,219	-23,804	-0,158	-0,068
-244,205	-128,404	-0,028	0,003
-243,190	111,061	-0,031	-0,027
-242,176	172,264	0,113	0,117
-241,161	358,782	-0,056	0,081
-240,146	515,430	0,053	0,090
-239,132	96,110	0,015	0,012
-238,117	65,554	-0,134	-0,098
-237,103	-7,210	0,069	-0,034
-236,088	800,000	0,032	0,094
-235,073	-200,000	0,011	-0,036
-234,059	144,106	0,127	0,122
-233,044	-4,783	-0,092	-0,046
-232,030	-59,454	-0,115	-0,035
-231,015	-184,256	-0,081	-0,001
-230,000	-27,398	0,031	0,013
-228,986	-200,000	0,027	0,086
-227,971	47,023	0,133	0,089
-226,957	-135,230	0,174	-0,015
-225,942	800,000	-0,047	-0,138
-224,927	492,280	-0,077	0,127
-223,913	302,490	-0,060	-0,080
-222,898	-82,431	-0,166	-0,039
-221,884	800,000	-0,046	-0,099
-220,869	-10,994	0,023	0,011
-219,855	-98,293	0,095	0,017
-218,840	-46,071	-0,059	-0,021
-217,825	78,527	-0,062	-0,048
-216,811	800,000	-0,039	0,116
-215,796	665,181	-0,065	-0,122
-214,782	-200,000	0,020	-0,071
-213,767	-45,582	0,137	-0,049
-212,752	-200,000	-0,023	-0,083
-211,738	145,097	-0,024	0,023
-210,723	-160,903	-0,041	0,002
-209,709	688,227	-0,013	0,025
-208,694	-200,000	-0,022	-0,109
-207,679	1,218	-0,037	0,019
-206,665	-93,560	-0,028	0,006
-205,650	-61,591	0,101	0,030
-204,636	266,840	-0,099	0,125
-203,621	-164,012	0,176	0,006
-202,606	-30,697	-0,126	-0,051
-201,592	-120,549	0,087	-0,011
-200,577	800,000	-0,063	0,160
-199,563	-200,000	0,009	0,109
-198,548	-200,000	0,020	0,132
-197,533	-200,000	0,017	0,145
-196,519	-13,420	0,090	0,042
-195,504	-89,644	-0,056	-0,012
-194,490	-37,328	-0,096	-0,037
-193,475	800,000	-0,009	0,025
-192,460	-95,625	0,094	0,018
-191,446	-81,201	0,115	0,027
-190,431	656,012	0,031	0,059
-189,417	616,182	0,078	0,142
-188,402	-200,000	0,008	0,059
-187,387	309,115	0,031	-0,041
-186,373	-200,000	0,045	-0,266
-185,358	-83,649	-0,031	-0,007
-184,344	-125,637	0,127	0,014
-183,329	-200,000	0,010	-0,079
-182,315	-143,410	-0,083	0,006
-181,300	145,432	0,033	-0,032
-180,285	-90,966	-0,098	-0,020
-179,271	190,799	-0,055	-0,059
-178,256	-200,000	0,031	0,114
-177,242	-112,961	0,050	0,007
-176,227	-68,114	0,136	0,038
-175,212	-54,849	0,028	-0,009
-174,198	40,795	-0,129	0,084
-173,183	800,000	-0,035	-0,085
-172,169	-170,192	-0,053	0,001
-171,154	-110,134	0,090	0,013
-170,139	-200,000	-0,023	0,121
-169,125	441,179	-0,044	-0,069
-168,110	589,442	-0,077	0,137
-167,096	-200,000	0,029	-0,111
-166,081	21,405	0,109	-0,064
-165,066	38,372	-0,063	0,040
-164,052	-160,412	-0,158	-0,006
-163,037	-142,384	0,092	0,006
-162,023	-200,000	0,036	0,133
-161,008	-94,130	-0,087	-0,017
-159,993	-41,310	-0,052	-0,019
-158,979	-200,000	-0,011	-0,059
-157,964	-200,000	-0,030	-0,097
-156,950	146,038	0,016	0,016
-155,935	800,000	-0,050	0,154
-154,920	800,000	-0,093	0,199
-153,906	32,616	0,190	0,118
-152,891	-200,000	-0,034	0,137
-151,877	-200,000	-0,009	0,052
-150,862	800,000	0,052	-0,134
-149,847	88,117	0,018	0,014
-148,833	106,072	0,014	-0,012
-147,818	-4,261	0,111	-0,055
-146,804	171,175	0,158	0,163
-145,789	-200,000	0,031	0,132
-144,775	-200,000	-0,005	0,082
-143,760	288,057	-0,033	-0,043
-142,745	246,716	0,026	0,031
-141,731	132,157	0,049	0,046
-140,716	-200,000	0,024	-0,084
-139,702	-200,000	0,004	0,081
-138,687	800,000	0,049	0,098
-137,672	-120,241	0,105	0,013
-136,658	-128,256	-0,168	-0,017
-135,643	442,062	0,072	0,113
-134,629	-114,289	-0,120	-0,016
-133,614	800,000	0,040	0,092
-132,599	108,984	0,104	0,090
-131,585	800,000	0,028	-0,088
-130,570	800,000	0,031	-0,077
-129,556	-200,000	-0,016	-0,094
-128,541	6,262	-0,071	-0,038
-127,526	-8,689	-0,054	-0,026
-126,512	96,961	-0,033	-0,027
-125,497	800,000	0,038	-0,101
-124,483	-200,000	-0,006	0,158
-123,468	596,781	-0,049	0,088
-122,453	547,552	0,086	-0,149
-121,439	800,000	-0,010	-0,024
-120,424	336,489	0,030	-0,041
-119,410	-200,000	0,023	0,087
-118,395	-61,395	0,109	0,033
-117,380	-82,340	0,090	0,021
-116,366	-62,648	-0,088	0,026
-115,351	-126,732	-0,169	0,018
-114,337	-140,194	0,095	-0,007
-113,322	-200,000	-0,019	-0,065
-112,307	331,863	-0,066	0,092
-111,293	-52,315	0,212	-0,070
-110,278	-200,000	-0,009	0,041
-109,264	-200,000	-0,026	0,118
-108,249	-200,000	0,001	-0,031
-107,234	-200,000	-0,003	-0,061
-106,220	103,496	-0,054	-0,046
-105,205	-76,920	-0,048	0,012
-104,191	-53,421	0,040	-0,013
-103,176	161,023	0,084	0,084
-102,162	800,000	-0,036	0,078
-101,147	-200,000	-0,034	0,119
-100,132	448,647	-0,064	-0,101
-99,118	800,000	-0,055	-0,145
-98,103	113,297	-0,108	-0,094
-97,089	252,819	0,073	-0,090
-96,074	-200,000	-0,001	-0,034
-95,059	24,690	0,090	-0,053
-94,045	-200,000	-0,002	-0,109
-93,030	169,854	0,055	-0,057
-92,016	-200,000	0,012	-0,107
-91,001	-200,000	-0,021	0,084
-89,986	118,722	-0,042	-0,037
-88,972	554,699	0,041	-0,072
-87,957	800,000	0,057	-0,126
-86,943	-157,506	-0,159	0,007
-85,928	-43,795	-0,131	-0,047
-84,913	800,000	-0,012	-0,025
-83,899	-31,030	0,057	-0,023
-82,884	-70,992	-0,045	0,012
-81,870	126,458	0,079	-0,072
-80,855	306,615	0,027	-0,036
-79,840	-139,486	0,094	0,007
-78,826	241,637	0,070	0,085
-77,811	-118,618	-0,048	-0,006
-76,797	-149,697	0,024	0,001
-75,782	157,942	0,101	0,101
-74,767	40,758	-0,074	0,048
-73,753	0,085	-0,055	0,028
-72,738	-200,000	0,006	-0,052
-71,724	-68,114	0,030	-0,008
-70,709	-200,000	-0,016	-0,058
-69,694	-200,000	0,029	0,122
-68,680	800,000	0,035	0,108
-67,665	437,398	-0,004	0,007
-66,651	-63,415	0,029	0,009
-65,636	0,080	0,103	0,052
-64,622	36,072	-0,105	0,066
-63,607	333,870	-0,046	-0,064
-62,592	-13,513	-0,064	0,030
-61,578	-200,000	-0,001	-0,044
-60,563	-200,000	-0,011	-0,131
-59,549	332,870	0,047	0,065
-58,534	34,315	-2,029	-1,267
-57,519	-200,000	-0,131	-0,893
-56,505	-200,000	-1,226	-5,073
-55,490	85,756	0,878	0,692
-54,476	800,000	5,212	12,035
-53,461	-200,000	18,526	311,143
-52,446	800,000	739,341	2318,395
-51,432	557,029	1655,950	2874,016
-50,417	110,791	1640,521	1415,435
-49,403	75,019	1290,216	973,954
-48,388	30,537	1030,749	630,676
-47,373	19,967	993,384	572,811
-46,359	17,633	980,876	557,897
-45,344	14,270	977,206	544,736
-44,330	14,599	975,616	544,907
-43,315	13,941	973,921	541,780
-42,300	13,889	972,679	540,898
-41,286	13,967	971,673	540,572
-40,271	13,923	970,925	539,993
-39,257	13,963	969,807	539,480
-38,242	13,944	968,984	538,936
-37,227	13,975	968,048	538,495
-36,213	13,924	967,199	537,838
-35,198	13,977	966,235	537,453
-34,184	13,990	965,681	537,166
-33,169	13,905	964,627	536,280
-32,154	13,993	963,543	535,942
-31,140	13,976	962,850	535,480
-30,125	14,005	962,147	535,163
-29,111	14,023	961,184	534,662
-28,096	14,021	960,562	534,289
-27,082	14,008	959,785	533,796
-26,067	13,998	959,081	533,352
-25,052	13,989	958,486	532,969
-24,038	13,940	957,765	532,388
-23,023	13,944	957,304	532,123
-22,009	13,987	956,449	531,765
-20,994	13,979	955,843	531,383
-19,979	13,990	955,142	531,008
-18,965	13,979	954,482	530,583
-17,950	13,946	953,972	530,174
-16,936	13,893	953,391	529,661
-15,921	13,914	952,560	529,243
-14,906	13,890	951,827	528,738
-13,892	13,885	951,212	528,361
-12,877	13,825	950,693	527,858
-11,863	13,865	949,852	527,499
-10,848	13,881	949,408	527,283
-9,833	13,914	948,945	527,110
-8,819	13,950	948,124	526,748
-7,804	13,829	947,888	526,209
-6,790	13,821	947,187	525,772
-5,775	13,894	946,487	525,596
-4,760	13,859	946,034	525,215
-3,746	13,906	945,152	524,851
-2,731	13,688	944,736	523,907
-1,717	13,711	943,956	523,528
-0,702	13,672	943,240	522,986
0,313	13,486	942,623	522,842
1,327	16,691	940,414	531,712
2,342	25,607	795,764	473,617
3,356	21,929	460,661	268,498
4,371	-4,920	317,307	156,119
5,386	-8,497	298,933	143,413
6,400	-10,599	292,843	138,373
7,415	-11,131	290,506	136,728
8,429	-11,195	288,772	135,836
9,444	-11,214	288,013	135,448
10,459	-11,081	287,166	135,169
11,473	-11,221	286,750	134,824
12,488	-11,095	286,080	134,620
13,502	-11,327	285,808	134,253
14,517	-11,269	285,298	134,058
15,531	-11,497	284,886	133,631
16,546	-11,106	284,441	133,790
17,561	-11,263	284,044	133,439
18,575	-11,208	283,764	133,349
19,590	-11,315	283,334	133,031
20,604	-11,131	283,095	133,086
21,619	-11,129	282,612	132,849
22,634	-11,141	282,416	132,733
23,648	-11,122	282,074	132,578
24,663	-11,209	281,699	132,307
25,677	-11,132	281,499	132,275
26,692	-11,216	281,260	132,070
27,707	-11,291	280,849	131,794
28,721	-11,233	280,618	131,729
29,736	-11,272	280,371	131,565
30,750	-11,195	280,068	131,484
31,765	-11,261	279,767	131,267
32,780	-11,102	279,538	131,300
33,794	-11,240	279,339	131,064
34,809	-11,078	279,054	131,072
35,823	-11,376	278,750	130,634
36,838	-11,144	278,554	130,752
37,853	-11,303	278,205	130,425
38,867	-11,323	278,053	130,324
39,882	-11,099	277,796	130,403
40,896	-11,255	277,661	130,181
41,911	-11,181	277,297	130,068
42,926	-11,325	277,061	129,811
43,940	-11,252	276,996	129,837
44,955	-11,359	276,547	129,514
45,969	-11,483	276,325	129,281
46,984	-11,457	276,094	129,187
47,999	-11,566	275,805	128,938
49,013	-11,841	275,609	128,575
50,028	-11,782	275,190	128,424
51,042	-12,076	275,127	128,107
52,057	-11,936	274,755	128,053
53,071	-11,878	274,541	127,997
54,086	-11,905	274,324	127,859
55,101	-11,656	274,096	127,974
56,115	-11,642	274,163	128,007
57,130	-10,949	273,762	128,455
58,144	-11,122	273,599	128,206
59,159	-11,302	273,534	127,996
60,174	-11,127	273,310	128,043
61,188	-11,121	272,939	127,864
62,203	-11,033	272,657	127,801
63,217	-10,976	272,661	127,845
64,232	-11,074	272,226	127,539
65,247	-10,991	272,137	127,563
66,261	-11,155	271,795	127,239
67,276	-11,250	271,565	127,032
68,290	-11,312	271,236	126,810
69,305	-11,645	271,126	126,439
70,320	-11,480	270,821	126,438
71,334	-11,079	270,507	126,649
72,349	-11,132	270,491	126,582
73,363	-11,197	270,314	126,428
74,378	-10,948	269,979	126,489
75,393	-11,215	269,914	126,202
76,407	-11,250	269,619	126,020
77,422	-11,159	269,434	126,006
78,436	-10,956	269,086	126,018
79,451	-11,139	269,108	125,850
80,466	-11,166	268,644	125,597
81,480	-11,301	268,516	125,403
82,495	-11,446	268,329	125,172
83,509	-11,134	268,080	125,329
84,524	-11,298	267,873	125,071
85,539	-11,471	267,578	124,764
86,553	-11,530	267,379	124,607
87,568	-11,281	267,203	124,740
88,582	-11,309	267,044	124,629
89,597	-11,356	266,709	124,420
90,611	-11,109	266,782	124,667
91,626	-11,130	266,472	124,492
92,641	-11,184	266,190	124,300
93,655	-11,067	265,957	124,285
94,670	-11,142	265,796	124,132
95,684	-11,253	265,602	123,930
96,699	-11,248	265,331	123,797
97,714	-11,272	265,200	123,704
98,728	-11,391	264,965	123,475
99,743	-11,466	264,710	123,279
100,757	-11,603	264,647	123,115
101,772	-11,357	264,435	123,226
102,787	-11,294	264,091	123,112
103,801	-11,352	263,962	122,988
104,816	-11,193	263,840	123,062
105,830	-10,949	263,615	123,165
106,845	-11,083	263,451	122,957
107,860	-11,114	263,205	122,804
108,874	-11,175	262,934	122,612
109,889	-11,169	262,840	122,563
110,903	-11,268	262,700	122,399
111,918	-11,221	262,386	122,283
112,933	-11,250	262,335	122,223
113,947	-11,159	262,032	122,151
114,962	-11,000	261,866	122,205
115,976	-11,233	261,780	121,947
116,991	-11,193	261,506	121,844
118,006	-11,190	261,306	121,742
119,020	-11,024	261,076	121,771
120,035	-11,067	260,987	121,681
121,049	-11,099	260,870	121,586
122,064	-11,151	260,631	121,419
123,079	-11,270	260,404	121,197
124,093	-11,034	260,090	121,248
125,108	-11,508	259,968	120,763
126,122	-11,475	259,557	120,590
127,137	-11,743	259,470	120,304
128,151	-11,488	259,331	120,453
129,166	-11,359	258,990	120,396
130,181	-11,466	258,886	120,244
131,195	-11,403	258,538	120,127
132,210	-11,217	258,566	120,291
133,224	-11,041	258,351	120,334
134,239	-11,108	258,151	120,173
135,254	-11,167	258,077	120,076
136,268	-11,285	257,701	119,787
137,283	-11,459	257,549	119,554
138,297	-11,540	257,244	119,332
139,312	-11,673	257,093	119,135
140,327	-11,345	256,896	119,318
141,341	-11,040	256,930	119,588
142,356	-11,089	256,753	119,453
143,370	-11,060	256,494	119,347
144,385	-10,906	256,346	119,401
145,400	-10,719	256,040	119,410
146,414	-10,875	256,026	119,256
147,429	-11,006	255,808	119,031
148,443	-10,866	255,581	119,036
149,458	-10,942	255,403	118,877
150,473	-10,945	255,113	118,729
151,487	-10,953	255,074	118,693
152,502	-11,069	254,728	118,422
153,516	-11,115	254,705	118,361
154,531	-11,008	254,551	118,371
155,546	-10,909	254,277	118,318
156,560	-11,146	254,074	118,010
157,575	-10,952	253,893	118,081
158,589	-11,041	253,640	117,877
159,604	-10,931	253,485	117,889
160,619	-11,059	253,365	117,712
161,633	-11,079	253,185	117,602
162,648	-10,968	253,064	117,630
163,662	-10,850	252,892	117,640
164,677	-11,051	252,828	117,428
165,692	-10,899	252,622	117,452
166,706	-10,795	252,308	117,383
167,721	-11,025	252,197	117,125
168,735	-11,053	252,089	117,042
169,750	-10,964	252,014	117,072
170,764	-10,919	251,799	116,999
171,779	-10,708	251,609	117,080
172,794	-10,848	251,505	116,903
173,808	-10,943	251,156	116,649
174,823	-11,330	250,870	116,179
175,837	-11,462	250,609	115,936
176,852	-11,081	250,665	116,273
177,867	-10,931	250,489	116,308
178,881	-10,873	250,407	116,309
179,896	-11,089	250,316	116,074
180,910	-11,032	250,162	116,040
181,925	-10,991	249,923	115,954
182,940	-10,903	249,724	115,925
183,954	-10,813	249,441	115,859
184,969	-10,928	249,334	115,702
185,983	-10,971	249,179	115,584
186,998	-10,814	248,966	115,607
188,013	-10,906	248,867	115,473
189,027	-10,604	248,561	115,574
190,042	-11,047	248,437	115,135
191,056	-10,852	248,205	115,180
192,071	-10,823	248,132	115,160
193,086	-10,794	247,872	115,053
194,100	-10,649	247,816	115,138
195,115	-10,724	247,486	114,912
196,129	-10,903	247,404	114,715
197,144	-10,873	247,171	114,622
198,159	-10,839	247,014	114,567
199,173	-10,847	246,903	114,499
200,188	-11,064	246,749	114,237
201,202	-11,046	246,465	114,110
202,217	-11,391	246,200	113,691
203,232	-11,579	245,969	113,419
204,246	-10,949	245,865	113,882
205,261	-10,558	245,557	114,052
206,275	-11,656	245,331	113,031
207,290	-7,907	246,874	116,842
208,304	0,166	249,708	124,928
209,319	4,280	250,470	128,738
210,334	4,696	250,616	129,149
211,348	4,733	250,470	129,093
212,363	5,026	250,405	129,293
213,377	5,189	250,269	129,346
214,392	4,855	250,142	128,991
215,407	4,921	249,811	128,864
216,421	4,854	249,786	128,784
217,436	5,142	249,646	128,940
218,450	5,246	249,409	128,892
219,465	4,735	249,330	128,415
220,480	4,669	249,018	128,188
221,494	4,786	248,829	128,177
222,509	4,625	248,790	128,012
223,523	4,517	248,582	127,804
224,538	4,327	248,126	127,402
225,553	4,444	248,147	127,498
226,567	4,595	248,013	127,542
227,582	4,463	247,831	127,328
228,596	4,785	247,658	127,493
229,611	4,346	247,507	127,043
230,626	4,253	247,292	126,844
231,640	4,221	247,098	126,708
232,655	4,534	246,917	126,860
233,669	4,311	246,731	126,571
234,684	3,807	246,660	126,109
235,699	4,595	246,634	126,731
236,713	4,615	246,536	126,686
237,728	4,484	246,124	126,355
238,742	4,244	245,985	126,077
239,757	4,233	245,761	125,942
240,772	4,220	245,612	125,843
241,786	4,374	245,357	125,827
242,801	4,103	245,347	125,590
243,815	4,177	245,259	125,594
244,830	4,189	245,073	125,498
245,844	4,538	245,010	125,738
246,859	4,278	244,590	125,300
247,874	4,209	244,540	125,207
248,888	4,367	244,289	125,195
249,903	4,369	244,157	125,119
250,917	4,247	244,195	125,028
251,932	4,616	244,065	125,249
252,947	4,570	243,919	125,126
253,961	4,361	243,494	124,728
254,976	4,736	243,449	124,996
255,990	4,677	243,185	124,802
257,005	4,425	243,033	124,509
258,020	4,346	242,876	124,354
259,034	4,427	242,786	124,363
260,049	4,557	242,694	124,409
261,063	4,077	242,596	123,961
262,078	4,146	242,413	123,913
263,093	4,564	242,266	124,162
264,107	4,468	242,074	123,975
265,122	4,566	241,840	123,923
266,136	4,512	241,689	123,792
267,151	4,665	241,648	123,882
268,166	4,035	241,463	123,271
269,180	4,260	241,141	123,276
270,195	4,692	241,246	123,664
271,209	4,938	241,321	123,888
272,224	4,438	240,762	123,192
273,239	4,229	240,562	122,912
274,253	4,232	240,350	122,795
275,268	4,308	240,421	122,880
276,282	4,463	240,283	122,922
277,297	4,177	239,966	122,522
278,312	4,139	239,892	122,443
279,326	4,283	239,778	122,488
280,341	4,389	239,613	122,478
281,355	4,526	239,447	122,490
282,370	4,442	239,312	122,344
283,384	4,624	239,054	122,345
284,399	4,004	239,007	121,820
285,414	4,049	238,850	121,764
286,428	4,150	238,657	121,735
287,443	4,125	238,464	121,605
288,457	4,491	238,441	121,872
289,472	4,577	238,202	121,806
290,487	4,417	238,074	121,604
291,501	4,125	237,903	121,276
292,516	4,028	237,557	121,012
293,530	4,020	237,598	121,016
294,545	4,257	237,523	121,153
295,560	4,517	237,213	121,188
296,574	4,173	237,037	120,818
297,589	4,252	236,957	120,829
298,603	4,353	236,791	120,812
299,618	4,543	236,787	120,948
300,633	4,637	236,625	120,928
301,647	4,542	236,605	120,833
302,662	4,798	236,467	120,952
303,676	4,795	236,214	120,809
304,691	4,602	236,088	120,584
305,706	4,779	236,046	120,689
306,720	4,970	235,835	120,720
307,735	4,610	235,637	120,327
308,749	4,437	235,464	120,094
309,764	4,166	235,190	119,733
310,779	4,118	234,916	119,545
311,793	4,100	234,648	119,384
312,808	4,056	234,685	119,358
313,822	4,216	234,464	119,359
314,837	4,076	234,367	119,190
315,852	3,858	234,307	118,981
316,866	4,080	234,253	119,114
317,881	4,379	234,030	119,221
318,895	4,303	233,867	119,069
319,910	4,536	233,707	119,157
320,925	4,584	233,628	119,142
321,939	4,531	233,450	119,000
322,954	4,367	233,420	118,848
323,968	4,554	233,186	118,863
324,983	4,607	233,047	118,822
325,997	4,794	232,924	118,892
327,012	4,864	232,755	118,849
328,027	4,314	232,566	118,320
329,041	4,768	232,772	118,763
330,056	5,242	232,531	118,993
331,070	5,140	232,306	118,788
332,085	4,860	232,093	118,455
333,100	4,774	231,759	118,208
334,114	4,522	231,704	117,977
335,129	4,608	231,612	117,986
336,143	5,000	231,457	118,195
337,158	4,794	231,263	117,929
338,173	4,548	231,198	117,698
339,187	4,543	231,008	117,587
340,202	4,297	230,926	117,347
341,216	4,590	230,660	117,424
342,231	4,655	230,398	117,329
343,246	4,336	230,326	117,040
344,260	4,678	230,273	117,262
345,275	4,833	230,220	117,342
346,289	4,888	230,033	117,278
347,304	4,878	229,759	117,121
348,319	5,026	229,690	117,187
349,333	4,800	229,602	116,961
350,348	4,290	229,445	116,485
351,362	4,660	229,196	116,628
352,377	4,243	229,026	116,216
353,392	4,095	228,743	115,951
354,406	4,168	228,793	116,021
355,421	196,344	1317,866	1396,112
356,435	157,522	1450,524	1396,082
