DTS Sentinel unit serial number:	SN410029Multiplexer serial number:	ORYXHardware model number:	OX2-SRSoftware version number:	ORYX F/W v4,00 Oryx Data Collector v3.7.2.0data status	okinstallation	B5 Nyhavnadifferential loss correction	single-endedforward channel	channel 2reverse channel	N/Adate	2023/12/13time	06:17:13forward acquisition time	300,00reverse acquisition time	0,00gamma	499,1914k internal	0,3160k external	0,3160temperature offset calibration	1,0000default loss term (dB/km)	0,3820temperature slope calibration	1,0000multiplexer offset coefficient	1,0000multiplexer slope coefficient	1,0000fibre end	0,00T internal ref (°C)	13,77T ext. ref 1 (°C)	-2,69T ext. ref 2 (°C)	-2,98length (m)	temperature (°C)	Stokes	anti-Stokes-744,400	15,891	0,116	0,067
-743,385	-50,903	-0,321	0,110
-742,371	-80,001	0,283	0,070
-741,356	-91,950	-0,269	-0,056
-740,342	-134,159	0,172	-0,015
-739,327	-108,371	-0,410	-0,065
-738,312	-200,000	0,031	0,143
-737,298	-66,700	-0,209	-0,060
-736,283	-200,000	0,002	-0,055
-735,269	-162,597	-0,253	0,009
-734,254	-36,718	-0,092	-0,036
-733,239	-26,632	-0,607	-0,260
-732,225	-81,277	0,240	-0,058
-731,210	177,159	-0,073	0,079
-730,196	-34,005	-0,170	-0,068
-729,181	249,450	0,058	-0,073
-728,167	800,000	-0,044	-0,093
-727,152	282,582	0,029	-0,038
-726,137	-118,585	-0,192	0,025
-725,123	-200,000	-0,030	0,105
-724,108	-60,682	-0,147	-0,046
-723,094	-70,657	-0,060	-0,017
-722,079	-51,693	-0,117	-0,040
-721,064	-200,000	0,002	0,018
-720,050	800,000	0,032	-0,066
-719,035	800,000	-0,032	-0,066
-718,021	644,714	-0,023	-0,043
-717,006	800,000	-0,012	-0,028
-715,991	154,804	-0,026	-0,026
-714,977	-81,073	-0,172	-0,042
-713,962	-126,322	0,147	0,016
-712,948	-30,227	-0,045	0,019
-711,933	-200,000	0,002	0,037
-710,918	17,021	0,079	0,046
-709,904	-65,652	-0,099	-0,029
-708,889	800,000	-0,088	-0,182
-707,875	-200,000	-0,012	-0,049
-706,860	-200,000	-0,001	0,021
-705,845	285,213	0,009	-0,012
-704,831	-121,166	0,112	0,014
-703,816	136,220	0,032	0,031
-702,802	800,000	0,026	0,076
-701,787	13,675	0,058	-0,033
-700,772	46,630	0,012	0,008
-699,758	-200,000	0,009	-0,074
-698,743	800,000	-0,055	-0,125
-697,729	-200,000	0,016	0,062
-696,714	188,522	0,172	0,190
-695,699	47,030	0,058	-0,039
-694,685	-188,587	-0,039	0,000
-693,670	-4,197	-0,056	-0,028
-692,656	-200,000	0,019	0,116
-691,641	377,134	0,064	0,096
-690,627	-114,295	0,104	-0,015
-689,612	-200,000	-0,020	0,096
-688,597	389,520	-0,049	-0,075
-687,583	21,878	-0,112	0,067
-686,568	-200,000	0,018	-0,133
-685,554	800,000	-0,036	-0,083
-684,539	397,355	0,094	0,144
-683,524	783,345	0,035	-0,070
-682,510	-11,432	-0,128	-0,062
-681,495	800,000	0,049	0,157
-680,481	-16,835	-0,080	-0,037
-679,466	-23,260	-0,156	-0,069
-678,451	-148,866	-0,063	0,004
-677,437	139,460	-0,054	-0,052
-676,422	-200,000	-0,026	-0,101
-675,408	-200,000	-0,014	0,102
-674,393	-15,677	-0,081	-0,038
-673,378	-27,973	0,080	0,034
-672,364	63,427	-0,091	-0,067
-671,349	800,000	-0,035	-0,080
-670,335	800,000	-0,034	-0,078
-669,320	-200,000	0,012	0,091
-668,305	-151,540	-0,019	0,001
-667,291	800,000	-0,016	-0,042
-666,276	27,954	-0,077	-0,047
-665,262	-8,913	-0,047	0,023
-664,247	579,924	-0,015	-0,028
-663,232	263,034	-0,125	0,159
-662,218	71,631	0,175	0,133
-661,203	-200,000	0,011	0,054
-660,189	-200,000	-0,009	-0,051
-659,174	568,141	0,063	-0,114
-658,159	-11,061	-0,059	-0,029
-657,145	162,720	-0,051	-0,053
-656,130	395,924	0,061	0,094
-655,116	243,099	0,086	0,106
-654,101	-200,000	0,003	0,053
-653,086	800,000	0,061	-0,130
-652,072	-24,757	-0,171	-0,074
-651,057	221,173	0,045	0,053
-650,043	-47,621	0,123	-0,044
-649,028	-200,000	-0,028	-0,115
-648,014	118,564	0,081	0,073
-646,999	127,954	-0,050	0,047
-645,984	-200,000	0,003	-0,095
-644,970	-200,000	0,002	-0,013
-643,955	224,201	-0,046	0,055
-642,941	70,027	-0,105	-0,079
-641,926	-200,000	-0,018	0,085
-640,911	-132,601	0,137	0,013
-639,897	-0,766	0,080	-0,041
-638,882	392,024	-0,087	0,133
-637,868	264,400	-0,045	0,058
-636,853	76,191	-0,055	-0,043
-635,838	-21,312	-0,069	0,031
-634,824	-200,000	-0,012	-0,054
-633,809	-62,677	0,078	-0,024
-632,795	91,457	0,052	0,043
-631,780	-1,331	0,040	-0,021
-630,765	177,178	0,024	0,025
-629,751	-200,000	-0,021	0,112
-628,736	421,901	-0,050	-0,079
-627,722	-56,552	-0,206	-0,067
-626,707	-148,920	-0,113	0,007
-625,692	-137,781	0,108	-0,009
-624,678	800,000	-0,012	-0,030
-623,663	-65,984	0,174	0,051
-622,649	-200,000	0,002	-0,037
-621,634	85,239	0,071	0,057
-620,619	800,000	0,005	0,016
-619,605	-81,959	-0,081	0,019
-618,590	55,549	-0,040	-0,028
-617,576	-200,000	-0,009	-0,080
-616,561	-59,293	-0,147	-0,046
-615,546	800,000	-0,036	-0,095
-614,532	-55,633	-0,072	0,023
-613,517	369,209	0,066	-0,099
-612,503	-121,430	-0,058	0,007
-611,488	-200,000	-0,005	0,062
-610,474	-200,000	-0,032	0,104
-609,459	-143,078	-0,078	0,005
-608,444	54,484	0,058	-0,041
-607,430	-137,308	-0,065	-0,005
-606,415	137,441	-0,043	-0,041
-605,401	37,356	-0,045	-0,029
-604,386	800,000	0,035	-0,081
-603,371	-23,453	0,003	-0,001
-602,357	5,780	0,081	-0,044
-601,342	-74,019	-0,083	-0,022
-600,328	-102,665	-0,090	-0,016
-599,313	-200,000	-0,035	-0,169
-598,298	10,850	0,022	0,012
-597,284	153,523	0,010	-0,010
-596,269	-200,000	-0,011	0,075
-595,255	483,963	0,033	0,055
-594,240	-68,525	0,053	-0,015
-593,225	529,024	0,078	0,135
-592,211	-74,762	-0,121	-0,032
-591,196	326,651	-0,030	-0,043
-590,182	460,934	0,086	0,141
-589,167	-200,000	0,017	-0,089
-588,152	-62,316	-0,049	0,015
-587,138	-9,839	-0,042	-0,020
-586,123	-24,124	-0,200	-0,087
-585,109	257,040	-0,057	-0,072
-584,094	-200,000	0,010	0,062
-583,079	381,840	-0,048	-0,073
-582,065	800,000	-0,022	0,059
-581,050	-129,159	0,122	-0,012
-580,036	-94,638	0,144	-0,028
-579,021	49,291	-0,119	-0,082
-578,006	-200,000	0,008	-0,077
-576,992	221,914	0,025	0,030
-575,977	-42,202	0,071	0,026
-574,963	137,474	-0,110	0,105
-573,948	135,088	0,050	-0,047
-572,934	275,389	0,072	0,093
-571,919	-200,000	0,001	0,082
-570,904	-111,832	-0,069	-0,010
-569,890	-200,000	-0,017	0,117
-568,875	490,528	-0,071	-0,119
-567,861	-200,000	-0,011	0,111
-566,846	-200,000	0,004	-0,118
-565,831	-113,407	-0,055	-0,008
-564,817	-14,412	0,066	-0,031
-563,802	800,000	0,007	-0,017
-562,788	481,869	0,008	-0,014
-561,773	-45,891	0,062	0,022
-560,758	-200,000	-0,009	0,093
-559,744	-200,000	0,011	0,040
-558,729	448,862	-0,073	-0,119
-557,715	127,109	-0,052	0,048
-556,700	56,757	-0,073	-0,052
-555,685	-8,085	-0,125	0,061
-554,671	141,277	-0,096	0,093
-553,656	-6,429	0,065	0,032
-552,642	-200,000	0,045	0,220
-551,627	86,992	0,092	0,074
-550,612	-200,000	-0,024	0,123
-549,598	-25,281	-0,139	-0,060
-548,583	-12,689	-0,145	0,069
-547,569	-148,616	0,018	-0,001
-546,554	-200,000	-0,003	0,026
-545,539	-62,752	-0,016	0,005
-544,525	50,658	-0,048	0,033
-543,510	-200,000	-0,008	-0,075
-542,496	66,128	-0,069	-0,051
-541,481	77,805	-0,074	-0,058
-540,466	83,752	-0,086	0,068
-539,452	-25,200	0,094	0,041
-538,437	703,086	0,027	-0,052
-537,423	93,449	0,041	0,033
-536,408	273,196	-0,026	0,034
-535,393	-200,000	-0,013	-0,151
-534,379	188,654	-0,073	-0,080
-533,364	-200,000	-0,023	-0,088
-532,350	-200,000	-0,006	-0,033
-531,335	82,752	-0,101	-0,081
-530,321	800,000	0,076	-0,161
-529,306	-74,215	-0,093	-0,024
-528,291	800,000	-0,002	-0,005
-527,277	-200,000	-0,019	-0,072
-526,262	6,461	-0,072	-0,039
-525,248	539,708	0,042	0,074
-524,233	42,162	-0,102	0,067
-523,218	63,481	-0,048	0,035
-522,204	-200,000	0,014	0,133
-521,189	-200,000	0,039	-0,167
-520,175	-44,139	0,136	-0,049
-519,160	-2,482	0,088	0,045
-518,145	-99,771	0,200	-0,036
-517,131	68,172	-0,083	-0,062
-516,116	-100,199	0,052	-0,009
-515,102	-136,735	-0,036	-0,003
-514,087	352,073	0,078	-0,113
-513,072	276,912	0,034	0,045
-512,058	800,000	-0,014	-0,036
-511,043	-200,000	-0,006	-0,103
-510,029	-200,000	-0,001	-0,017
-509,014	-15,933	0,103	0,048
-507,999	-49,831	-0,120	0,041
-506,985	223,854	0,040	-0,047
-505,970	-200,000	0,038	-0,174
-504,956	-93,748	-0,072	-0,014
-503,941	-160,079	0,107	-0,004
-502,926	-105,677	-0,053	-0,009
-501,912	375,975	-0,044	-0,065
-500,897	694,443	0,037	-0,072
-499,883	-200,000	0,009	0,061
-498,868	-200,000	-0,033	0,164
-497,853	-200,000	0,028	-0,106
-496,839	89,300	-0,085	-0,069
-495,824	50,526	-0,032	-0,022
-494,810	-200,000	-0,001	0,045
-493,795	-73,698	0,037	-0,010
-492,781	-39,214	-0,104	-0,040
-491,766	-200,000	-0,029	-0,094
-490,751	800,000	-0,015	-0,046
-489,737	1,641	0,087	-0,046
-488,722	800,000	-0,024	0,070
-487,708	800,000	0,038	0,095
-486,693	-111,081	0,055	-0,008
-485,678	-105,642	0,081	0,013
-484,664	11,574	-0,045	0,025
-483,649	257,862	0,055	-0,069
-482,635	280,600	0,065	-0,085
-481,620	190,977	-0,099	-0,109
-480,605	-118,780	-0,084	0,011
-479,591	-200,000	0,016	-0,073
-478,576	-200,000	-0,017	-0,076
-477,562	-98,806	0,014	0,003
-476,547	-187,094	-0,086	-0,001
-475,532	272,817	0,040	-0,051
-474,518	-200,000	-0,001	0,067
-473,503	-32,701	0,162	-0,065
-472,489	-62,376	-0,050	0,015
-471,474	-25,808	-0,040	0,017
-470,459	46,675	-0,007	-0,005
-469,445	-200,000	0,007	-0,119
-468,430	168,650	-0,020	0,021
-467,416	-200,000	-0,019	0,063
-466,401	300,364	0,103	0,139
-465,386	460,453	0,026	-0,042
-464,372	-128,226	-0,032	-0,003
-463,357	222,766	0,040	-0,047
-462,343	-200,000	0,029	-0,136
-461,328	383,835	-0,094	0,142
-460,313	-49,450	0,072	-0,025
-459,299	-200,000	0,015	-0,125
-458,284	-90,035	-0,041	-0,009
-457,270	-200,000	0,012	-0,076
-456,255	346,752	-0,033	0,048
-455,241	-200,000	-0,023	-0,105
-454,226	228,203	-0,127	-0,151
-453,211	-44,028	0,158	0,058
-452,197	-200,000	0,014	-0,059
-451,182	4,567	-0,064	-0,034
-450,168	-140,514	0,128	-0,010
-449,153	-12,112	0,043	-0,020
-448,138	-78,105	-0,101	-0,025
-447,124	489,400	-0,037	-0,061
-446,109	129,579	-0,085	0,080
-445,095	180,461	0,048	0,051
-444,080	163,103	0,140	0,143
-443,065	1,456	0,066	-0,035
-442,051	-200,000	-0,030	-0,126
-441,036	84,901	-0,035	0,028
-440,022	800,000	-0,028	-0,073
-439,007	136,749	-0,064	-0,061
-437,992	-199,922	0,129	0,000
-436,978	800,000	0,074	0,200
-435,963	-200,000	0,011	0,097
-434,949	87,728	0,023	0,019
-433,934	53,040	-0,075	-0,052
-432,919	-146,408	0,023	0,001
-431,905	-200,000	-0,023	-0,154
-430,890	179,818	0,056	0,059
-429,876	408,122	0,096	0,148
-428,861	-200,000	0,012	0,065
-427,846	800,000	-0,032	0,075
-426,832	-200,000	0,002	-0,094
-425,817	-27,927	-0,016	0,007
-424,803	800,000	0,055	-0,120
-423,788	-200,000	-0,000	0,050
-422,773	180,177	-0,074	0,079
-421,759	3,376	0,081	-0,043
-420,744	-42,102	0,054	-0,020
-419,730	-200,000	-0,051	-0,199
-418,715	585,122	-0,030	0,053
-417,701	-55,779	0,094	0,030
-416,686	-112,570	0,164	0,023
-415,671	154,395	0,049	-0,049
-414,657	82,403	0,086	0,068
-413,642	-23,073	0,154	-0,067
-412,628	-17,552	-0,077	-0,035
-411,613	800,000	0,009	0,022
-410,598	800,000	0,033	-0,093
-409,584	17,427	0,085	-0,049
-408,569	130,118	0,031	-0,029
-407,555	-200,000	0,006	-0,033
-406,540	-98,441	0,129	-0,024
-405,525	-200,000	-0,043	-0,152
-404,511	-39,527	-0,063	-0,024
-403,496	-200,000	-0,005	-0,032
-402,482	-153,746	-0,083	-0,004
-401,467	14,404	0,140	0,079
-400,452	-200,000	0,006	0,088
-399,438	-161,546	0,055	-0,002
-398,423	-197,014	-0,042	-0,000
-397,409	34,187	-0,140	0,089
-396,394	-200,000	-0,021	0,085
-395,379	800,000	-0,048	-0,116
-394,365	131,217	0,109	-0,101
-393,350	-200,000	0,005	0,056
-392,336	-17,341	-0,107	-0,049
-391,321	-200,000	-0,008	0,118
-390,306	-35,484	0,041	0,016
-389,292	-200,000	-0,014	-0,137
-388,277	-149,029	-0,155	-0,009
-387,263	33,359	0,085	0,053
-386,248	235,873	0,072	0,087
-385,233	-200,000	0,010	0,104
-384,219	-200,000	-0,009	-0,031
-383,204	800,000	0,039	-0,113
-382,190	213,873	-0,055	-0,064
-381,175	75,644	0,074	0,056
-380,160	-18,541	-0,069	-0,031
-379,146	42,633	0,075	0,049
-378,131	289,646	-0,034	0,045
-377,117	-200,000	0,002	-0,074
-376,102	-109,520	-0,072	-0,011
-375,088	204,715	0,022	-0,024
-374,073	93,420	-0,048	0,039
-373,058	699,645	-0,013	-0,025
-372,044	167,485	0,151	0,156
-371,029	164,890	0,017	0,017
-370,015	119,510	-0,060	-0,054
-369,000	-65,165	-0,112	-0,033
-367,985	1,128	-0,064	0,033
-366,971	-200,000	0,012	-0,053
-365,956	478,324	-0,045	0,074
-364,942	800,000	0,031	0,083
-363,927	-109,246	0,191	-0,029
-362,912	250,776	0,059	-0,073
-361,898	-200,000	0,026	-0,126
-360,883	142,302	-0,119	-0,115
-359,869	141,180	0,055	0,053
-358,854	-34,969	0,150	-0,059
-357,839	184,230	0,015	-0,016
-356,825	341,986	0,056	-0,079
-355,810	258,644	0,024	-0,031
-354,796	-111,770	-0,097	0,014
-353,781	166,499	-0,058	0,059
-352,766	347,503	-0,016	-0,023
-351,752	-98,677	0,119	-0,022
-350,737	-166,226	0,241	0,007
-349,723	-200,000	-0,015	0,093
-348,708	800,000	0,029	0,059
-347,693	-200,000	-0,003	-0,063
-346,679	-89,529	0,097	0,021
-345,664	-67,357	0,040	-0,011
-344,650	800,000	0,029	-0,063
-343,635	326,124	0,045	0,062
-342,620	-60,640	0,039	-0,012
-341,606	-200,000	-0,009	0,138
-340,591	-122,985	-0,129	0,015
-339,577	87,038	0,089	0,071
-338,562	223,075	0,033	-0,038
-337,548	-178,236	0,118	0,002
-336,533	507,822	0,018	-0,031
-335,518	536,958	0,076	-0,132
-334,504	800,000	-0,022	0,056
-333,489	-200,000	-0,010	0,108
-332,475	295,308	0,083	0,110
-331,460	31,567	-0,079	0,049
-330,445	329,357	0,021	0,029
-329,431	-107,688	-0,081	0,013
-328,416	-200,000	0,042	0,170
-327,402	-200,000	-0,031	0,104
-326,387	335,386	0,061	-0,086
-325,372	432,612	-0,032	0,051
-324,358	32,011	-0,064	0,040
-323,343	120,445	-0,047	0,042
-322,329	74,093	0,085	0,064
-321,314	-200,000	-0,001	0,017
-320,299	95,841	0,141	0,117
-319,285	-200,000	-0,004	0,029
-318,270	32,335	0,066	-0,041
-317,256	182,991	-0,035	-0,038
-316,241	-200,000	0,010	-0,034
-315,226	-200,000	-0,002	0,049
-314,212	-55,903	0,054	-0,017
-313,197	-200,000	-0,007	0,160
-312,183	701,495	-0,080	-0,154
-311,168	800,000	-0,053	0,107
-310,153	621,518	0,031	0,056
-309,139	135,077	0,050	0,047
-308,124	800,000	-0,037	0,105
-307,110	24,809	0,026	-0,015
-306,095	-200,000	0,000	0,030
-305,080	-58,296	0,112	0,035
-304,066	-200,000	-0,017	-0,108
-303,051	-84,469	0,080	-0,018
-302,037	-91,440	0,103	0,021
-301,022	-88,320	-0,137	0,030
-300,008	-14,817	-0,049	0,023
-298,993	275,864	0,106	0,137
-297,978	800,000	-0,036	-0,074
-296,964	227,826	-0,101	-0,120
-295,949	800,000	-0,033	-0,104
-294,935	100,985	-0,105	0,088
-293,920	800,000	0,037	0,096
-292,905	179,160	0,057	0,061
-291,891	-107,406	-0,048	-0,008
-290,876	-97,495	0,057	0,011
-289,862	50,474	-0,051	-0,035
-288,847	-200,000	0,015	-0,129
-287,832	49,548	-0,018	-0,012
-286,818	372,506	-0,078	-0,115
-285,803	564,522	0,038	-0,066
-284,789	-200,000	-0,004	-0,042
-283,774	109,531	0,059	0,051
-282,759	200,775	0,029	0,032
-281,745	339,889	-0,074	-0,104
-280,730	124,889	-0,035	0,032
-279,716	599,439	0,027	-0,049
-278,701	419,857	0,052	0,080
-277,686	-72,240	0,174	-0,046
-276,672	-23,914	-0,067	0,029
-275,657	22,562	-0,117	-0,069
-274,643	-45,464	0,173	-0,062
-273,628	-10,143	-0,059	-0,028
-272,613	445,708	0,043	0,068
-271,599	-32,533	-0,120	0,048
-270,584	800,000	0,030	-0,073
-269,570	161,940	-0,049	0,050
-268,555	746,478	-0,118	0,231
-267,540	-9,714	0,037	-0,018
-266,526	800,000	-0,013	-0,029
-265,511	-200,000	-0,010	-0,037
-264,497	-96,205	-0,095	-0,018
-263,482	-195,416	0,087	0,000
-262,467	-82,192	0,142	-0,033
-261,453	800,000	-0,045	0,129
-260,438	-200,000	0,022	0,126
-259,424	232,744	-0,087	0,103
-258,409	191,081	-0,068	-0,074
-257,395	29,287	0,066	0,040
-256,380	798,427	-0,002	0,004
-255,365	800,000	-0,029	0,074
-254,351	-200,000	-0,022	-0,108
-253,336	185,090	-0,012	-0,013
-252,322	-200,000	-0,006	-0,112
-251,307	-200,000	-0,002	0,023
-250,292	800,000	-0,015	-0,036
-249,278	-53,434	-0,037	-0,012
-248,263	-4,168	0,083	-0,041
-247,249	800,000	-0,047	-0,111
-246,234	632,153	-0,049	-0,090
-245,219	-200,000	-0,004	0,041
-244,205	-200,000	0,007	0,075
-243,190	-200,000	-0,009	0,098
-242,176	-200,000	-0,016	0,057
-241,161	-15,680	0,106	0,049
-240,146	-200,000	0,017	0,088
-239,132	18,086	0,033	0,019
-238,117	241,245	0,052	0,063
-237,103	41,473	-0,075	-0,049
-236,088	139,219	-0,145	0,138
-235,073	60,396	0,072	0,051
-234,059	406,199	0,039	0,060
-233,044	95,941	-0,124	0,102
-232,030	269,103	-0,082	0,104
-231,015	255,775	-0,018	-0,022
-230,000	-200,000	0,015	-0,086
-228,986	173,779	-0,051	0,053
-227,971	-200,000	0,016	0,052
-226,957	13,649	0,130	0,072
-225,942	-200,000	0,001	-0,034
-224,927	-200,000	-0,009	-0,072
-223,913	-48,554	0,078	-0,027
-222,898	233,185	0,119	-0,142
-221,884	118,823	-0,067	-0,060
-220,869	-132,035	-0,016	-0,001
-219,855	82,269	-0,078	0,061
-218,840	385,899	0,105	0,157
-217,825	-19,034	-0,109	-0,049
-216,811	800,000	0,020	-0,054
-215,796	-90,669	0,132	0,027
-214,782	800,000	-0,061	0,123
-213,767	-200,000	0,009	-0,046
-212,752	-37,513	0,102	-0,039
-211,738	-200,000	-0,010	0,043
-210,723	24,735	0,090	0,054
-209,709	-45,062	0,033	-0,012
-208,694	75,786	-0,102	0,078
-207,679	800,000	0,007	-0,020
-206,665	-6,303	0,091	0,045
-205,650	800,000	0,045	-0,117
-204,636	-96,513	0,132	0,025
-203,621	26,887	0,100	-0,061
-202,606	430,765	-0,025	-0,039
-201,592	172,106	-0,080	-0,083
-200,577	-200,000	0,032	0,104
-199,563	31,174	-0,081	-0,050
-198,548	-3,209	-0,076	0,038
-197,533	-54,102	0,093	0,030
-196,519	-60,641	0,183	0,056
-195,504	272,217	-0,028	-0,036
-194,490	-6,171	0,063	0,031
-193,475	-94,593	-0,161	0,031
-192,460	147,060	-0,043	0,041
-191,446	76,790	0,059	0,045
-190,431	130,080	0,095	-0,087
-189,417	-102,770	0,161	0,027
-188,402	-88,107	-0,121	0,026
-187,387	-184,733	-0,123	-0,001
-186,373	68,732	0,090	-0,066
-185,358	407,167	-0,040	-0,061
-184,344	-94,413	0,073	-0,014
-183,329	-29,205	0,129	-0,053
-182,315	56,633	-0,118	0,083
-181,300	319,574	-0,054	0,074
-180,285	94,705	-0,108	-0,088
-179,271	-146,469	0,064	-0,004
-178,256	-200,000	-0,056	0,185
-177,242	559,297	0,016	-0,028
-176,227	100,098	0,050	0,042
-175,212	404,721	0,049	-0,075
-174,198	90,864	-0,125	-0,101
-173,183	247,629	0,018	0,022
-172,169	213,039	-0,088	0,100
-171,154	-200,000	0,008	0,107
-170,139	-25,694	0,051	0,022
-169,125	-200,000	-0,028	0,140
-168,110	-200,000	0,012	-0,098
-167,096	363,195	0,040	-0,058
-166,081	294,775	-0,118	0,156
-165,066	-19,455	-0,081	0,036
-164,052	800,000	-0,024	-0,076
-163,037	65,782	-0,084	-0,061
-162,023	52,239	-0,055	0,037
-161,008	2,458	-0,068	0,035
-159,993	73,424	-0,089	0,067
-158,979	800,000	-0,057	0,126
-157,964	208,356	-0,036	-0,041
-156,950	-40,058	-0,182	-0,068
-155,935	6,068	-0,089	0,047
-154,920	-200,000	0,004	-0,077
-153,906	-49,507	0,094	-0,032
-152,891	-200,000	-0,010	0,044
-151,877	97,952	-0,010	0,009
-150,862	-148,508	0,095	0,006
-149,847	16,474	-0,043	0,024
-148,833	72,399	-0,104	-0,078
-147,818	800,000	-0,023	0,055
-146,804	800,000	0,065	-0,149
-145,789	78,929	0,027	-0,021
-144,775	208,183	-0,069	0,078
-143,760	800,000	-0,029	0,061
-142,745	32,456	0,057	0,035
-141,731	561,403	0,035	-0,062
-140,716	-200,000	0,021	-0,079
-139,702	-34,688	0,164	0,064
-138,687	46,356	-0,084	0,056
-137,672	-91,725	-0,071	-0,014
-136,658	-163,154	-0,042	0,001
-135,643	573,842	-0,041	-0,072
-134,629	739,647	0,061	0,118
-133,614	-116,190	0,113	-0,015
-132,599	-200,000	-0,015	0,086
-131,585	-200,000	0,005	0,068
-130,570	115,835	-0,028	0,025
-129,556	158,384	-0,060	0,060
-128,541	104,319	-0,034	-0,029
-127,526	-200,000	0,000	-0,011
-126,512	186,315	-0,089	0,095
-125,497	-200,000	0,032	0,248
-124,483	-80,683	0,014	-0,003
-123,468	-200,000	-0,002	0,083
-122,453	800,000	-0,035	-0,101
-121,439	-53,861	-0,200	0,065
-120,424	433,928	0,068	0,107
-119,410	111,050	-0,077	0,067
-118,395	48,771	0,153	-0,103
-117,380	-200,000	-0,013	-0,056
-116,366	412,221	-0,033	-0,051
-115,351	-200,000	-0,008	0,057
-114,337	-182,564	0,078	0,001
-113,322	82,285	0,035	-0,027
-112,307	-200,000	-0,004	-0,029
-111,293	-37,289	-0,070	0,027
-110,278	-99,577	0,031	-0,006
-109,264	800,000	-0,025	0,055
-108,249	36,769	0,021	-0,014
-107,234	317,116	0,035	-0,047
-106,220	48,145	-0,068	-0,045
-105,205	-200,000	-0,013	-0,146
-104,191	-61,876	0,100	-0,030
-103,176	104,353	0,096	0,082
-102,162	-142,508	-0,191	-0,013
-101,147	-200,000	0,004	0,048
-100,132	-200,000	-0,001	0,093
-99,118	-143,730	0,037	0,003
-98,103	92,493	0,053	0,043
-97,089	800,000	0,008	-0,022
-96,074	-171,550	0,078	-0,002
-95,059	-200,000	0,022	-0,091
-94,045	24,322	0,021	-0,012
-93,030	-83,560	0,075	0,017
-92,016	-200,000	-0,041	-0,164
-91,001	-200,000	0,021	0,100
-89,986	-200,000	0,003	-0,078
-88,972	447,237	0,061	0,097
-87,957	197,681	0,075	-0,082
-86,943	-200,000	-0,074	0,000
-85,928	317,118	0,018	-0,024
-84,913	-200,000	0,021	-0,102
-83,899	-200,000	-0,034	-0,134
-82,884	-200,000	0,009	-0,107
-81,870	-200,000	-0,014	0,118
-80,855	-200,000	0,001	0,080
-79,840	-200,000	0,012	0,071
-78,826	652,622	-0,051	-0,095
-77,811	800,000	-0,040	-0,113
-76,797	-135,837	0,088	-0,007
-75,782	800,000	0,039	0,083
-74,767	40,138	0,122	0,079
-73,753	289,419	0,030	-0,039
-72,738	245,081	-0,073	-0,089
-71,724	800,000	-0,082	0,171
-70,709	-200,000	-0,021	0,111
-69,694	109,122	0,082	0,070
-68,680	800,000	-0,064	0,131
-67,665	129,555	0,165	0,151
-66,651	-64,440	0,054	-0,016
-65,636	-138,506	-0,065	-0,005
-64,622	-0,267	-0,130	0,066
-63,607	-39,583	0,057	0,021
-62,592	-200,000	-0,046	-0,177
-61,578	800,000	0,012	-0,036
-60,563	33,178	0,104	0,065
-59,549	-38,003	-0,139	0,053
-58,534	23,469	-2,104	-1,239
-57,519	-200,000	-0,050	-0,746
-56,505	-200,000	-1,224	-5,151
-55,490	120,381	0,893	0,795
-54,476	800,000	5,212	12,046
-53,461	-200,000	18,561	315,760
-52,446	800,000	741,014	2330,668
-51,432	558,616	1657,173	2879,198
-50,417	111,096	1641,017	1417,208
-49,403	75,456	1290,669	975,966
-48,388	30,387	1031,604	630,635
-47,373	20,014	994,014	573,283
-46,359	17,475	981,630	557,760
-45,344	14,170	977,793	544,688
-44,330	14,480	976,270	544,835
-43,315	13,789	974,490	541,554
-42,300	13,748	973,306	540,741
-41,286	13,804	972,261	540,321
-40,271	13,745	971,565	539,718
-39,257	13,784	970,529	539,248
-38,242	13,856	969,536	538,912
-37,227	13,836	968,810	538,422
-36,213	13,816	967,890	537,824
-35,198	13,752	967,053	537,128
-34,184	13,767	966,438	536,813
-33,169	13,791	965,152	536,156
-32,154	13,826	964,344	535,800
-31,140	13,795	963,576	535,253
-30,125	13,839	962,705	534,890
-29,111	13,839	961,807	534,370
-28,096	13,814	961,253	533,960
-27,082	13,771	960,679	533,479
-26,067	13,821	959,883	533,178
-25,052	13,801	959,032	532,622
-24,038	13,732	958,413	532,033
-23,023	13,726	957,832	531,670
-22,009	13,805	957,101	531,496
-20,994	13,817	956,457	531,158
-19,979	13,855	955,818	530,903
-18,965	13,841	955,166	530,475
-17,950	13,810	954,414	529,938
-16,936	13,751	954,022	529,509
-15,921	13,795	953,184	529,165
-14,906	13,725	952,569	528,577
-13,892	13,676	951,896	528,025
-12,877	13,716	951,212	527,753
-11,863	13,664	950,696	527,281
-10,848	13,628	950,249	526,894
-9,833	13,739	949,642	526,892
-8,819	13,757	948,905	526,520
-7,804	13,749	948,242	526,108
-6,790	13,730	947,741	525,746
-5,775	13,776	947,089	525,510
-4,760	13,713	946,651	525,048
-3,746	13,723	945,898	524,639
-2,731	13,531	945,344	523,700
-1,717	13,576	944,341	523,267
-0,702	13,566	943,939	522,992
0,313	13,232	943,310	522,372
1,327	16,729	940,769	531,989
2,342	25,780	795,924	474,128
3,356	22,037	460,665	268,643
4,371	-4,826	317,928	156,514
5,386	-8,734	299,639	143,496
6,400	-10,944	293,595	138,370
7,415	-11,182	291,255	137,018
8,429	-11,399	289,624	136,023
9,444	-11,462	288,681	135,507
10,459	-11,280	288,024	135,366
11,473	-11,493	287,535	134,914
12,488	-11,548	286,932	134,565
13,502	-11,497	286,259	134,288
14,517	-11,466	285,994	134,181
15,531	-11,409	285,516	134,001
16,546	-11,340	285,093	133,857
17,561	-11,325	284,815	133,730
18,575	-11,288	284,350	133,536
19,590	-11,416	284,084	133,274
20,604	-11,489	283,913	133,111
21,619	-11,326	283,210	132,928
22,634	-11,304	282,994	132,836
23,648	-11,471	282,673	132,513
24,663	-11,455	282,512	132,439
25,677	-11,419	282,231	132,331
26,692	-11,424	281,862	132,142
27,707	-11,381	281,717	132,103
28,721	-11,276	281,340	132,016
29,736	-11,307	281,049	131,837
30,750	-11,403	280,642	131,543
31,765	-11,340	280,431	131,493
32,780	-11,482	280,342	131,304
33,794	-11,471	280,082	131,180
34,809	-11,654	279,770	130,847
35,823	-11,342	279,368	130,945
36,838	-11,573	279,260	130,663
37,853	-11,518	279,018	130,590
38,867	-11,540	279,022	130,560
39,882	-11,599	278,486	130,241
40,896	-11,412	278,060	130,208
41,911	-11,457	278,040	130,144
42,926	-11,336	277,776	130,124
43,940	-11,368	277,453	129,931
44,955	-11,417	277,301	129,802
45,969	-11,510	277,032	129,575
46,984	-11,769	276,725	129,176
47,999	-11,939	276,593	128,943
49,013	-11,938	276,342	128,816
50,028	-11,950	275,991	128,629
51,042	-12,162	275,705	128,285
52,057	-12,292	275,508	128,059
53,071	-12,026	275,270	128,187
54,086	-11,954	274,978	128,107
55,101	-11,763	274,787	128,186
56,115	-11,610	274,653	128,255
57,130	-11,356	274,581	128,448
58,144	-11,480	274,382	128,228
59,159	-11,421	274,222	128,196
60,174	-11,486	273,934	127,990
61,188	-11,311	273,775	128,067
62,203	-11,175	273,396	128,005
63,217	-11,277	273,235	127,823
64,232	-11,266	272,930	127,679
65,247	-11,166	272,724	127,664
66,261	-11,541	272,681	127,284
67,276	-11,505	272,272	127,115
68,290	-11,599	272,030	126,904
69,305	-11,743	271,758	126,632
70,320	-11,622	271,675	126,695
71,334	-11,448	271,419	126,725
72,349	-11,212	271,104	126,784
73,363	-11,222	270,965	126,699
74,378	-11,607	270,735	126,226
75,393	-11,263	270,545	126,442
76,407	-11,302	270,384	126,319
77,422	-11,119	270,064	126,327
78,436	-11,350	269,905	126,029
79,451	-11,385	269,680	125,881
80,466	-11,371	269,362	125,734
81,480	-11,475	269,117	125,513
82,495	-11,592	268,969	125,326
83,509	-11,466	268,762	125,334
84,524	-11,550	268,639	125,189
85,539	-11,513	268,228	125,019
86,553	-11,621	268,001	124,804
87,568	-11,518	267,933	124,855
88,582	-11,640	267,783	124,663
89,597	-11,584	267,460	124,553
90,611	-11,368	267,246	124,638
91,626	-11,268	267,113	124,655
92,641	-11,397	267,005	124,477
93,655	-11,352	266,729	124,378
94,670	-11,392	266,523	124,235
95,684	-11,405	266,352	124,132
96,699	-11,450	266,189	124,004
97,714	-11,543	265,958	123,802
98,728	-11,559	265,474	123,551
99,743	-11,631	265,413	123,447
100,757	-11,709	265,350	123,335
101,772	-11,738	265,015	123,143
102,787	-11,499	264,891	123,289
103,801	-11,487	264,623	123,164
104,816	-11,442	264,431	123,105
105,830	-11,319	264,463	123,219
106,845	-11,142	264,102	123,198
107,860	-11,305	263,833	122,916
108,874	-11,297	263,641	122,823
109,889	-11,401	263,494	122,650
110,903	-11,384	263,211	122,522
111,918	-11,415	263,147	122,455
112,933	-11,311	262,819	122,383
113,947	-11,224	262,497	122,300
114,962	-11,555	262,643	122,063
115,976	-11,419	262,285	122,006
116,991	-11,280	262,168	122,064
118,006	-11,267	262,010	121,991
119,020	-11,372	261,892	121,833
120,035	-11,346	261,724	121,766
121,049	-11,542	261,546	121,499
122,064	-11,294	261,149	121,523
123,079	-11,219	261,027	121,522
124,093	-11,393	260,851	121,276
125,108	-11,613	260,510	120,912
126,122	-11,672	260,292	120,748
127,137	-11,769	260,190	120,604
128,151	-11,797	260,155	120,553
129,166	-11,661	259,725	120,462
130,181	-11,733	259,502	120,285
131,195	-11,535	259,367	120,385
132,210	-11,576	259,183	120,254
133,224	-11,186	258,973	120,487
134,239	-11,523	258,947	120,169
135,254	-11,410	258,908	120,239
136,268	-11,449	258,371	119,945
137,283	-11,580	258,067	119,679
138,297	-11,806	257,931	119,408
139,312	-11,669	257,660	119,391
140,327	-11,532	257,797	119,563
141,341	-11,224	257,484	119,676
142,356	-11,142	257,330	119,665
143,370	-11,299	257,118	119,419
144,385	-11,050	256,945	119,545
145,400	-11,161	256,837	119,387
146,414	-11,254	256,690	119,228
147,429	-11,193	256,401	119,136
148,443	-11,314	256,341	118,992
149,458	-11,090	256,102	119,064
150,473	-11,266	255,939	118,826
151,487	-11,271	255,760	118,728
152,502	-11,192	255,623	118,722
153,516	-11,326	255,417	118,499
154,531	-10,958	255,112	118,665
155,546	-11,159	254,915	118,390
156,560	-11,124	254,840	118,375
157,575	-11,217	254,612	118,178
158,589	-11,284	254,216	117,927
159,604	-11,097	254,170	118,055
160,619	-11,293	253,999	117,796
161,633	-11,287	253,817	117,707
162,648	-11,078	253,584	117,768
163,662	-11,092	253,517	117,714
164,677	-11,127	253,449	117,642
165,692	-11,093	253,159	117,526
166,706	-11,094	252,993	117,437
167,721	-11,139	252,668	117,238
168,735	-11,176	252,687	117,204
169,750	-11,120	252,403	117,110
170,764	-11,195	252,490	117,076
171,779	-11,155	252,107	116,922
172,794	-11,212	252,138	116,878
173,808	-11,274	251,928	116,717
174,823	-11,438	251,467	116,354
175,837	-11,756	251,341	116,016
176,852	-11,304	251,252	116,348
177,867	-11,328	251,273	116,326
178,881	-11,142	251,215	116,446
179,896	-11,025	250,785	116,336
180,910	-10,950	250,644	116,323
181,925	-11,033	250,362	116,112
182,940	-11,180	250,313	115,955
183,954	-11,144	250,046	115,851
184,969	-11,221	249,967	115,740
185,983	-10,982	249,676	115,796
186,998	-10,885	249,597	115,830
188,013	-10,881	249,331	115,700
189,027	-11,223	249,195	115,339
190,042	-11,143	249,050	115,329
191,056	-11,151	248,782	115,188
192,071	-11,076	248,621	115,166
193,086	-11,093	248,543	115,105
194,100	-11,103	248,375	115,009
195,115	-11,020	248,052	114,918
196,129	-10,944	247,841	114,873
197,144	-11,381	247,744	114,454
198,159	-11,234	247,600	114,500
199,173	-11,012	247,221	114,498
200,188	-11,230	247,170	114,284
201,202	-11,555	246,900	113,878
202,217	-11,598	246,694	113,738
203,232	-11,487	246,365	113,668
204,246	-11,386	246,493	113,800
205,261	-11,019	246,406	114,055
206,275	-11,894	245,815	113,048
207,290	-8,444	247,304	116,590
208,304	-0,220	250,094	124,788
209,319	4,297	251,347	129,192
210,334	4,759	251,363	129,576
211,348	5,041	251,241	129,737
212,363	5,079	251,134	129,703
213,377	5,096	251,051	129,663
214,392	5,189	250,823	129,610
215,407	4,922	250,600	129,261
216,421	4,879	250,444	129,133
217,436	5,008	250,389	129,201
218,450	5,424	250,026	129,348
219,465	5,089	249,816	128,949
220,480	4,729	249,767	128,613
221,494	4,644	249,514	128,401
222,509	4,820	249,370	128,461
223,523	4,738	249,222	128,305
224,538	4,328	248,819	127,747
225,553	4,459	248,705	127,786
226,567	4,595	248,670	127,869
227,582	4,247	248,594	127,531
228,596	4,596	248,379	127,697
229,611	4,243	248,147	127,276
230,626	4,305	247,829	127,152
231,640	4,330	247,863	127,179
232,655	4,440	247,673	127,161
233,669	4,359	247,435	126,961
234,684	4,241	247,269	126,767
235,699	4,791	247,099	127,120
236,713	4,666	247,108	127,010
237,728	4,576	246,773	126,753
238,742	4,140	246,615	126,303
239,757	4,057	246,310	126,068
240,772	4,235	246,293	126,194
241,786	4,192	246,169	126,084
242,801	4,126	245,995	125,930
243,815	4,354	245,848	126,029
244,830	4,430	245,711	126,010
245,844	4,551	245,596	126,039
246,859	4,410	245,331	125,776
247,874	4,283	245,185	125,587
248,888	4,555	245,042	125,724
249,903	4,593	244,738	125,588
250,917	4,358	244,854	125,445
251,932	4,640	244,697	125,582
252,947	4,567	244,628	125,476
253,961	4,289	244,438	125,142
254,976	4,592	244,114	125,211
255,990	4,526	244,038	125,106
257,005	4,349	243,641	124,749
258,020	4,231	243,601	124,622
259,034	4,256	243,451	124,555
260,049	4,364	243,412	124,611
261,063	4,358	243,125	124,448
262,078	4,335	242,946	124,327
263,093	4,490	242,830	124,381
264,107	4,443	242,764	124,298
265,122	4,252	242,522	124,009
266,136	4,434	242,462	124,114
267,151	4,871	242,427	124,437
268,166	4,334	242,043	123,797
269,180	4,262	241,919	123,665
270,195	4,880	241,832	124,105
271,209	4,984	241,934	124,230
272,224	4,431	241,500	123,553
273,239	4,045	241,215	123,088
274,253	4,075	241,121	123,053
275,268	4,451	240,992	123,276
276,282	4,375	240,781	123,097
277,297	4,177	240,496	122,782
278,312	4,156	240,580	122,798
279,326	4,406	240,390	122,888
280,341	4,362	240,241	122,766
281,355	4,524	240,047	122,785
282,370	4,436	239,915	122,636
283,384	4,469	239,711	122,548
284,399	4,196	239,583	122,254
285,414	4,136	239,322	122,063
286,428	4,297	239,361	122,199
287,443	4,102	239,192	121,949
288,457	4,443	238,968	122,092
289,472	4,624	238,826	122,152
290,487	4,588	238,726	122,062
291,501	4,219	238,419	121,603
292,516	4,094	238,196	121,380
293,530	4,014	238,196	121,306
294,545	4,390	238,061	121,523
295,560	4,020	237,986	121,182
296,574	4,246	237,635	121,170
297,589	4,329	237,580	121,197
298,603	4,653	237,545	121,423
299,618	4,429	237,434	121,179
300,633	4,333	237,283	121,016
301,647	4,546	237,109	121,083
302,662	4,854	237,081	121,299
303,676	4,745	236,886	121,103
304,691	4,607	236,749	120,915
305,706	4,823	236,549	120,971
306,720	4,801	236,432	120,883
307,735	4,708	236,191	120,676
308,749	4,549	236,022	120,455
309,764	4,067	235,972	120,043
310,779	4,076	235,701	119,902
311,793	3,929	235,371	119,609
312,808	4,220	235,209	119,742
313,822	3,935	235,042	119,425
314,837	4,197	234,952	119,572
315,852	3,984	234,810	119,324
316,866	4,260	234,805	119,525
317,881	4,338	234,540	119,440
318,895	4,249	234,473	119,326
319,910	4,730	234,410	119,655
320,925	4,348	234,220	119,252
321,939	4,237	233,940	119,013
322,954	4,600	233,768	119,196
323,968	4,304	233,765	118,955
324,983	4,620	233,605	119,106
325,997	4,482	233,712	119,044
327,012	4,556	233,352	118,907
328,027	4,536	233,158	118,782
329,041	4,556	233,119	118,767
330,056	5,042	233,175	119,159
331,070	5,068	233,073	119,115
332,085	4,803	232,679	118,701
333,100	4,500	232,366	118,298
334,114	4,532	232,261	118,259
335,129	4,899	232,265	118,531
336,143	5,032	232,141	118,559
337,158	4,945	231,983	118,401
338,173	4,535	231,742	117,954
339,187	4,403	231,461	117,701
340,202	4,466	231,417	117,715
341,216	4,627	231,290	117,763
342,231	4,496	231,143	117,578
343,246	4,437	231,047	117,474
344,260	4,743	230,889	117,615
345,275	4,883	230,645	117,587
346,289	4,843	230,693	117,571
347,304	5,027	230,490	117,596
348,319	4,894	230,304	117,391
349,333	4,568	230,149	117,054
350,348	4,360	230,001	116,810
351,362	4,592	229,821	116,884
352,377	4,223	229,628	116,497
353,392	4,066	229,423	116,263
354,406	4,143	229,320	116,259
355,421	195,057	1319,764	1393,926
356,435	156,445	1452,579	1393,882
