DTS Sentinel unit serial number:	SN410029Multiplexer serial number:	ORYXHardware model number:	OX2-SRSoftware version number:	ORYX F/W v4,00 Oryx Data Collector v3.7.2.0data status	okinstallation	B5 Nyhavnadifferential loss correction	single-endedforward channel	channel 2reverse channel	N/Adate	2023/12/12time	03:57:13forward acquisition time	300,00reverse acquisition time	0,00gamma	499,1914k internal	0,3156k external	0,3156temperature offset calibration	1,0000default loss term (dB/km)	0,3820temperature slope calibration	1,0000multiplexer offset coefficient	1,0000multiplexer slope coefficient	1,0000fibre end	0,00T internal ref (°C)	15,60T ext. ref 1 (°C)	-0,83T ext. ref 2 (°C)	-1,12length (m)	temperature (°C)	Stokes	anti-Stokes-744,400	10,906	0,084	-0,047
-743,385	-90,836	-0,221	-0,047
-742,371	47,214	0,075	-0,051
-741,356	-52,584	-0,237	-0,080
-740,342	-158,660	0,059	0,002
-739,327	-124,319	-0,261	0,030
-738,312	388,226	0,115	0,176
-737,298	-162,953	-0,397	0,014
-736,283	-144,346	-0,044	0,003
-735,269	-35,526	-0,274	0,109
-734,254	-58,956	0,159	0,050
-733,239	1,036	-0,600	-0,316
-732,225	-97,478	0,196	-0,037
-731,210	-200,000	0,017	0,068
-730,196	-116,529	-0,101	0,014
-729,181	37,878	-0,057	-0,037
-728,167	548,889	0,043	0,077
-727,152	800,000	-0,075	-0,182
-726,137	62,390	-0,109	-0,080
-725,123	48,973	0,145	-0,100
-724,108	800,000	-0,036	-0,091
-723,094	393,501	-0,029	0,044
-722,079	-200,000	0,018	-0,180
-721,064	-157,520	-0,089	-0,004
-720,050	-174,418	-0,098	0,002
-719,035	-176,687	0,123	0,002
-718,021	-200,000	-0,013	-0,059
-717,006	800,000	-0,052	-0,112
-715,991	800,000	-0,073	-0,149
-714,977	39,410	0,050	-0,033
-713,962	-71,910	-0,101	-0,028
-712,948	-47,274	0,163	0,058
-711,933	324,621	0,041	0,058
-710,918	208,810	-0,027	0,031
-709,904	-174,260	-0,053	-0,001
-708,889	-200,000	0,002	-0,008
-707,875	99,691	-0,109	-0,093
-706,860	-137,501	0,089	-0,007
-705,845	147,055	0,076	-0,075
-704,831	800,000	0,033	0,076
-703,816	146,557	-0,110	-0,109
-702,802	-46,379	0,053	0,019
-701,787	-86,580	-0,130	-0,029
-700,772	418,300	-0,014	-0,022
-699,758	722,391	-0,047	0,093
-698,743	94,775	0,200	0,168
-697,729	-12,784	-0,181	0,087
-696,714	-11,793	0,126	-0,061
-695,699	-200,000	0,034	-0,150
-694,685	-44,520	-0,141	-0,051
-693,670	1,267	-0,113	-0,060
-692,656	-109,144	-0,067	-0,010
-691,641	134,784	0,081	-0,078
-690,627	-67,385	-0,194	0,056
-689,612	126,795	-0,092	-0,086
-688,597	-48,159	0,130	-0,046
-687,583	266,245	0,041	0,052
-686,568	-200,000	-0,036	-0,142
-685,554	-181,642	-0,045	0,001
-684,539	-200,000	0,010	0,040
-683,524	-74,605	0,064	-0,017
-682,510	202,401	0,065	0,074
-681,495	-17,569	0,018	0,008
-680,481	-182,049	-0,032	0,000
-679,466	800,000	0,041	-0,134
-678,451	-200,000	-0,024	-0,143
-677,437	-142,914	-0,040	-0,003
-676,422	395,337	0,056	0,086
-675,408	-47,583	-0,114	-0,040
-674,393	-11,951	0,167	-0,080
-673,378	-40,048	-0,139	-0,053
-672,364	172,581	-0,113	-0,120
-671,349	-141,640	-0,046	-0,003
-670,335	699,560	-0,059	0,116
-669,320	84,812	0,084	-0,067
-668,305	-196,700	0,069	0,000
-667,291	130,642	-0,128	-0,121
-666,276	-200,000	0,020	-0,145
-665,262	-200,000	-0,014	-0,178
-664,247	257,367	0,018	-0,023
-663,232	-11,227	-0,103	-0,050
-662,218	16,576	0,067	0,039
-661,203	178,877	-0,051	-0,055
-660,189	38,268	0,017	-0,011
-659,174	-200,000	0,015	0,168
-658,159	20,042	-0,105	-0,062
-657,145	56,319	-0,081	0,058
-656,130	800,000	-0,064	0,145
-655,116	-20,523	-0,097	0,044
-654,101	64,399	0,047	0,035
-653,086	-113,418	0,075	-0,011
-652,072	10,838	-0,046	-0,026
-651,057	478,926	-0,009	0,015
-650,043	139,766	-0,084	-0,082
-649,028	406,581	-0,017	0,026
-648,014	800,000	-0,048	-0,102
-646,999	189,680	-0,046	0,051
-645,984	-59,606	0,116	-0,036
-644,970	-34,744	0,078	0,031
-643,955	77,388	-0,042	0,033
-642,941	-54,032	-0,185	-0,062
-641,926	107,796	0,016	0,014
-640,911	-15,496	0,107	-0,050
-639,897	66,960	-0,014	0,010
-638,882	147,091	0,045	0,044
-637,868	-134,896	0,046	-0,004
-636,853	-93,550	-0,116	0,023
-635,838	87,565	0,007	0,006
-634,824	469,648	0,034	-0,056
-633,809	-149,058	0,035	-0,002
-632,795	97,790	-0,048	0,041
-631,780	570,751	0,069	0,124
-630,765	18,327	-0,083	0,049
-629,751	56,554	-0,141	-0,101
-628,736	7,354	-0,054	-0,030
-627,722	3,047	-0,048	0,026
-626,707	198,786	0,039	-0,043
-625,692	-200,000	-0,024	0,150
-624,678	88,294	0,050	-0,041
-623,663	547,397	0,076	0,134
-622,649	152,672	-0,107	-0,107
-621,634	-200,000	-0,003	-0,088
-620,619	-112,751	0,120	0,017
-619,605	-92,056	0,062	0,013
-618,590	-200,000	-0,022	0,075
-617,576	-200,000	0,016	0,146
-616,561	612,396	-0,016	0,029
-615,546	-200,000	-0,004	-0,124
-614,532	-200,000	0,002	0,031
-613,517	-60,266	-0,151	0,047
-612,503	127,573	-0,138	-0,128
-611,488	-200,000	0,004	-0,097
-610,474	-200,000	0,009	-0,175
-609,459	324,641	0,054	0,076
-608,444	-200,000	-0,029	-0,158
-607,430	-200,000	-0,021	0,091
-606,415	64,859	-0,110	0,081
-605,401	-200,000	-0,019	0,122
-604,386	-13,343	0,086	0,041
-603,371	-14,658	0,175	0,082
-602,357	261,884	0,053	-0,068
-601,342	-200,000	0,009	-0,090
-600,328	-68,199	-0,162	-0,046
-599,313	51,879	-0,064	-0,044
-598,298	-107,014	0,078	-0,012
-597,284	-44,458	0,039	0,014
-596,269	636,440	0,010	-0,018
-595,255	28,501	-0,050	-0,031
-594,240	666,276	-0,051	-0,098
-593,225	83,577	-0,072	0,058
-592,211	118,291	0,072	-0,065
-591,196	-94,976	0,020	0,004
-590,182	114,200	-0,027	0,024
-589,167	-154,891	-0,139	0,007
-588,152	288,639	-0,029	-0,038
-587,138	-72,588	0,002	0,001
-586,123	-89,313	-0,012	-0,003
-585,109	235,276	0,042	0,051
-584,094	-200,000	-0,002	-0,147
-583,079	-41,168	0,104	0,039
-582,065	-97,041	-0,040	-0,008
-581,050	113,135	0,048	0,043
-580,036	118,794	-0,012	-0,011
-579,021	-79,631	-0,176	-0,043
-578,006	-200,000	0,028	-0,197
-576,992	-101,156	0,139	-0,025
-575,977	-162,252	0,110	0,004
-574,963	-200,000	0,007	0,120
-573,948	184,884	-0,153	0,166
-572,934	-61,825	0,158	-0,048
-571,919	440,828	-0,068	-0,109
-570,904	578,282	0,061	-0,110
-569,890	435,449	-0,064	-0,102
-568,875	-139,177	0,176	-0,014
-567,861	0,603	0,068	-0,036
-566,846	-200,000	-0,009	-0,086
-565,831	89,484	0,057	0,046
-564,817	606,241	-0,022	0,040
-563,802	71,837	0,030	-0,023
-562,788	63,401	0,078	0,058
-561,773	586,408	0,029	0,053
-560,758	274,468	-0,041	-0,053
-559,744	-200,000	0,016	0,084
-558,729	-45,104	0,038	-0,014
-557,715	-30,250	-0,060	0,025
-556,700	246,404	0,133	-0,164
-555,685	8,053	-0,085	-0,046
-554,671	800,000	0,037	-0,098
-553,656	-200,000	-0,027	-0,136
-552,642	323,246	0,076	0,106
-551,627	186,456	-0,086	0,093
-550,612	-98,332	0,025	0,005
-549,598	-200,000	0,001	-0,028
-548,583	740,293	-0,039	-0,077
-547,569	-30,070	0,034	0,014
-546,554	36,525	0,127	0,082
-545,539	-200,000	0,005	-0,127
-544,525	800,000	-0,016	-0,040
-543,510	28,891	0,040	0,024
-542,496	394,190	-0,008	0,013
-541,481	461,407	-0,029	-0,047
-540,466	-139,074	0,051	-0,004
-539,452	-99,297	0,082	0,015
-538,437	-200,000	0,004	0,158
-537,423	425,455	-0,060	0,094
-536,408	321,684	-0,086	0,120
-535,393	-200,000	-0,009	-0,037
-534,379	-71,915	-0,143	0,039
-533,364	-110,364	-0,112	-0,017
-532,350	621,873	0,044	-0,081
-531,335	558,672	0,025	-0,044
-530,321	162,951	0,094	0,097
-529,306	644,913	-0,064	-0,120
-528,291	-200,000	-0,035	0,121
-527,277	85,775	0,031	0,025
-526,262	-194,694	-0,019	-0,000
-525,248	800,000	0,058	0,124
-524,233	17,070	-0,047	0,027
-523,218	376,250	0,078	-0,117
-522,204	258,262	0,075	-0,095
-521,189	101,578	0,009	0,008
-520,175	-200,000	0,013	-0,085
-519,160	221,892	-0,078	0,092
-518,145	800,000	0,027	0,062
-517,131	-200,000	-0,001	0,073
-516,116	247,039	-0,038	0,047
-515,102	-93,821	0,175	-0,035
-514,087	-109,075	-0,081	0,013
-513,072	-92,062	-0,026	0,005
-512,058	52,154	-0,040	-0,028
-511,043	212,606	-0,017	0,019
-510,029	-116,198	0,012	-0,002
-509,014	162,173	-0,052	0,053
-507,999	-9,825	0,133	-0,064
-506,985	-174,132	-0,115	-0,002
-505,970	800,000	0,079	-0,194
-504,956	800,000	-0,036	-0,090
-503,941	-98,623	-0,134	-0,025
-502,926	-80,012	0,062	-0,015
-501,912	-200,000	0,009	0,062
-500,897	-200,000	-0,007	0,160
-499,883	-83,471	-0,120	0,028
-498,868	139,206	0,125	0,120
-497,853	-138,555	-0,172	-0,014
-496,839	800,000	0,044	0,094
-495,824	36,478	-0,063	0,040
-494,810	-200,000	-0,017	-0,139
-493,795	-158,303	0,026	0,001
-492,781	223,489	-0,008	0,009
-491,766	0,116	-0,052	-0,027
-490,751	25,489	-0,044	-0,027
-489,737	800,000	-0,016	0,048
-488,722	126,042	0,109	0,101
-487,708	269,708	-0,071	0,092
-486,693	-7,469	-0,116	0,057
-485,678	-43,390	-0,046	0,017
-484,664	-200,000	0,020	-0,094
-483,649	-126,598	-0,114	-0,012
-482,635	142,265	-0,036	-0,035
-481,620	-40,504	-0,012	0,005
-480,605	555,673	0,075	-0,133
-479,591	-200,000	0,011	0,038
-478,576	193,330	-0,077	-0,086
-477,562	800,000	0,046	-0,111
-476,547	70,403	-0,089	-0,067
-475,532	-44,461	-0,091	-0,033
-474,518	-200,000	-0,011	0,139
-473,503	31,731	0,086	-0,054
-472,489	800,000	0,035	0,083
-471,474	-56,782	-0,030	0,010
-470,459	-200,000	0,037	0,172
-469,445	76,369	0,067	0,052
-468,430	351,528	0,029	0,042
-467,416	800,000	0,022	0,054
-466,401	54,383	0,030	0,021
-465,386	-200,000	-0,007	0,044
-464,372	291,159	0,056	0,075
-463,357	16,941	0,086	0,050
-462,343	-51,847	-0,138	-0,046
-461,328	67,941	0,154	0,115
-460,313	-76,667	-0,030	0,008
-459,299	-75,282	-0,047	0,012
-458,284	658,311	0,052	0,099
-457,270	-137,244	-0,128	0,010
-456,255	800,000	0,032	0,082
-455,241	-166,520	-0,098	-0,003
-454,226	254,053	-0,043	0,053
-453,211	-147,113	0,141	-0,009
-452,197	-200,000	-0,010	0,093
-451,182	107,383	0,081	0,070
-450,168	-200,000	-0,016	0,112
-449,153	203,827	0,072	-0,082
-448,138	39,431	0,096	0,063
-447,124	-96,633	-0,075	-0,014
-446,109	-70,248	0,080	0,022
-445,095	43,856	0,033	-0,022
-444,080	618,397	0,015	0,027
-443,065	-4,534	0,041	-0,021
-442,051	800,000	0,046	-0,138
-441,036	-113,110	-0,152	0,022
-440,022	800,000	-0,017	-0,047
-439,007	-137,776	-0,078	0,006
-437,992	-121,079	0,026	-0,003
-436,978	-200,000	-0,023	-0,102
-435,963	-200,000	0,012	0,091
-434,949	13,578	0,025	0,014
-433,934	-200,000	-0,015	-0,071
-432,919	175,318	0,043	0,045
-431,905	800,000	0,055	-0,139
-430,890	390,497	0,108	0,164
-429,876	45,026	-0,043	0,028
-428,861	-200,000	-0,012	-0,122
-427,846	640,799	0,075	-0,140
-426,832	228,519	-0,017	0,021
-425,817	147,852	-0,146	-0,143
-424,803	405,568	-0,032	-0,049
-423,788	800,000	0,052	0,140
-422,773	154,791	0,030	-0,030
-421,759	-66,657	0,038	0,011
-420,744	270,201	0,086	0,110
-419,730	52,308	0,082	0,057
-418,715	800,000	-0,018	0,047
-417,701	-82,012	-0,077	-0,018
-416,686	800,000	-0,035	-0,079
-415,671	-200,000	-0,001	0,068
-414,657	357,049	-0,057	0,083
-413,642	-200,000	-0,002	0,040
-412,628	800,000	0,051	-0,152
-411,613	133,222	-0,048	-0,045
-410,598	411,575	-0,042	0,066
-409,584	-106,938	-0,028	0,005
-408,569	800,000	0,023	0,067
-407,555	800,000	-0,030	-0,085
-406,540	800,000	0,013	0,028
-405,525	37,161	-0,088	0,056
-404,511	-200,000	0,027	0,102
-403,496	800,000	-0,020	-0,064
-402,482	-185,014	-0,048	-0,001
-401,467	-200,000	-0,006	0,128
-400,452	-15,446	0,056	0,026
-399,438	-200,000	-0,011	0,066
-398,423	-82,034	-0,041	-0,010
-397,409	-200,000	0,006	-0,083
-396,394	221,666	-0,010	0,012
-395,379	-200,000	-0,001	0,130
-394,365	314,838	-0,020	-0,028
-393,350	-45,493	-0,139	0,050
-392,336	-200,000	0,012	-0,172
-391,321	567,566	0,022	0,039
-390,306	-200,000	-0,012	0,057
-389,292	101,448	-0,073	-0,062
-388,277	212,614	-0,027	0,031
-387,263	800,000	-0,018	0,046
-386,248	332,866	0,039	0,056
-385,233	427,456	0,046	0,072
-384,219	210,181	0,080	-0,091
-383,204	88,782	-0,081	-0,066
-382,190	74,434	-0,108	0,082
-381,175	-6,560	0,109	0,054
-380,160	277,286	0,119	-0,154
-379,146	800,000	-0,041	0,111
-378,131	78,303	0,099	0,077
-377,117	800,000	-0,041	-0,093
-376,102	-51,379	0,097	0,033
-375,088	113,530	-0,078	-0,069
-374,073	800,000	0,042	-0,110
-373,058	-67,062	0,113	-0,032
-372,044	-200,000	-0,022	0,080
-371,029	423,426	-0,035	0,055
-370,015	-200,000	-0,003	-0,034
-369,000	180,351	0,065	-0,070
-367,985	800,000	0,069	-0,175
-366,971	-37,424	-0,127	-0,049
-365,956	75,165	-0,039	-0,030
-364,942	-32,378	0,070	-0,028
-363,927	800,000	0,031	0,084
-362,912	274,195	0,043	0,056
-361,898	800,000	-0,022	0,055
-360,883	234,737	-0,088	-0,106
-359,869	-13,662	-0,092	0,043
-358,854	-97,566	-0,069	-0,013
-357,839	-135,075	-0,139	-0,012
-356,825	800,000	-0,007	0,016
-355,810	11,953	0,062	0,035
-354,796	290,603	0,041	-0,054
-353,781	-128,878	-0,080	0,008
-352,766	132,131	-0,032	0,030
-351,752	-11,476	0,030	0,014
-350,737	-96,055	0,058	-0,011
-349,723	-17,201	-0,115	0,052
-348,708	442,300	-0,042	-0,067
-347,693	-129,289	-0,052	0,005
-346,679	-200,000	0,042	-0,213
-345,664	135,466	0,048	-0,046
-344,650	-200,000	-0,005	0,040
-343,635	42,558	-0,121	0,080
-342,620	-200,000	-0,033	0,141
-341,606	800,000	0,009	0,021
-340,591	121,968	-0,114	0,103
-339,577	-200,000	-0,012	-0,098
-338,562	-200,000	0,028	-0,281
-337,548	-135,431	0,149	-0,013
-336,533	28,703	0,110	0,068
-335,518	55,132	0,078	0,054
-334,504	-200,000	0,008	-0,047
-333,489	59,884	0,086	0,062
-332,475	6,983	-0,056	-0,030
-331,460	2,226	-0,071	-0,037
-330,445	-200,000	0,014	0,070
-329,431	248,383	-0,072	0,089
-328,416	383,560	0,017	-0,026
-327,402	224,665	0,088	0,103
-326,387	109,036	0,090	0,078
-325,372	-114,866	-0,066	0,009
-324,358	30,267	-0,022	-0,014
-323,343	245,009	-0,114	-0,140
-322,329	-31,807	0,035	0,014
-321,314	43,113	0,104	0,069
-320,299	-200,000	-0,032	-0,119
-319,285	-200,000	0,006	-0,064
-318,270	-19,821	-0,061	0,027
-317,256	11,442	-0,029	0,016
-316,241	301,538	0,040	-0,054
-315,226	-38,788	-0,082	0,031
-314,212	15,197	0,163	0,092
-313,197	-200,000	0,003	-0,084
-312,183	-93,570	-0,066	0,013
-311,168	106,905	-0,038	0,032
-310,153	-57,784	0,087	-0,027
-309,139	553,662	0,015	-0,026
-308,124	-129,258	0,133	-0,013
-307,110	21,713	0,052	-0,031
-306,095	-50,320	-0,132	-0,045
-305,080	-120,039	-0,043	-0,005
-304,066	54,317	-0,114	0,079
-303,051	-140,379	-0,129	0,010
-302,037	-142,082	0,143	0,010
-301,022	-200,000	-0,022	0,074
-300,008	-200,000	-0,004	-0,016
-298,993	509,865	-0,081	0,137
-297,978	-0,147	0,103	0,053
-296,964	156,583	-0,099	-0,099
-295,949	-200,000	-0,012	0,083
-294,935	135,855	0,022	0,021
-293,920	-37,589	0,090	0,035
-292,905	358,584	0,013	-0,019
-291,891	-2,861	0,176	-0,089
-290,876	-131,487	0,069	-0,006
-289,862	16,293	-0,018	0,010
-288,847	800,000	0,057	-0,147
-287,832	594,547	0,031	0,056
-286,818	279,971	0,081	-0,105
-285,803	-6,147	0,102	-0,050
-284,789	108,541	0,070	0,060
-283,774	-57,999	0,114	0,036
-282,759	189,078	0,022	0,024
-281,745	800,000	-0,022	0,065
-280,730	800,000	-0,063	-0,170
-279,716	32,744	0,080	-0,050
-278,701	-152,715	0,053	-0,003
-277,686	-23,070	-0,079	0,034
-276,672	-60,421	0,047	-0,014
-275,657	-136,910	-0,058	0,005
-274,643	-200,000	-0,012	0,137
-273,628	-108,854	-0,200	-0,031
-272,613	-138,458	0,045	-0,004
-271,599	302,408	-0,058	0,078
-270,584	-67,652	-0,120	-0,034
-269,570	98,888	0,069	0,057
-268,555	20,790	0,082	-0,048
-267,540	800,000	0,013	-0,028
-266,526	-75,518	0,084	0,021
-265,511	-98,013	-0,107	0,020
-264,497	45,719	0,053	-0,035
-263,482	-89,575	0,059	-0,012
-262,467	234,990	-0,074	0,089
-261,453	-42,846	-0,098	0,036
-260,438	-200,000	-0,031	-0,123
-259,424	800,000	-0,030	0,069
-258,409	288,871	-0,029	-0,038
-257,395	512,024	0,061	-0,103
-256,380	36,960	0,059	0,038
-255,365	-60,481	-0,046	-0,014
-254,351	-200,000	0,030	0,112
-253,336	-200,000	0,046	0,153
-252,322	-124,069	-0,138	-0,015
-251,307	392,243	-0,048	-0,072
-250,292	-143,437	-0,087	0,006
-249,278	178,473	0,169	0,179
-248,263	-109,051	-0,118	0,018
-247,249	-154,459	0,086	0,004
-246,234	209,920	-0,113	-0,128
-245,219	800,000	0,009	-0,018
-244,205	-61,885	-0,143	0,043
-243,190	72,357	-0,108	0,082
-242,176	160,704	0,057	0,057
-241,161	-112,020	-0,088	-0,013
-240,146	38,454	-0,046	0,030
-239,132	529,386	0,067	-0,114
-238,117	-200,000	0,002	-0,063
-237,103	132,448	0,061	-0,057
-236,088	-200,000	0,006	-0,181
-235,073	-57,781	0,038	0,012
-234,059	-200,000	-0,013	-0,103
-233,044	370,795	0,099	0,146
-232,030	-200,000	-0,011	-0,087
-231,015	541,680	0,035	-0,061
-230,000	-200,000	-0,007	-0,178
-228,986	491,050	-0,095	-0,158
-227,971	-163,234	-0,038	-0,001
-226,957	33,809	0,012	-0,007
-225,942	-14,661	0,106	-0,049
-224,927	232,702	0,026	0,031
-223,913	-40,823	0,067	-0,025
-222,898	266,484	0,055	0,070
-221,884	-87,824	-0,019	-0,004
-220,869	156,861	0,106	0,106
-219,855	592,633	0,024	0,043
-218,840	80,505	0,037	-0,029
-217,825	114,018	0,024	0,021
-216,811	-200,000	0,010	0,045
-215,796	-200,000	-0,001	0,026
-214,782	-80,854	0,103	-0,025
-213,767	12,324	0,070	-0,039
-212,752	32,416	0,058	0,036
-211,738	-6,629	-0,084	0,041
-210,723	-137,167	0,059	-0,005
-209,709	148,100	-0,054	-0,053
-208,694	-149,521	0,042	0,002
-207,679	254,117	-0,068	-0,084
-206,665	632,446	-0,014	0,026
-205,650	143,672	-0,074	-0,071
-204,636	-38,467	0,037	0,014
-203,621	152,967	-0,068	0,067
-202,606	-115,466	-0,042	0,006
-201,592	58,842	-0,186	-0,132
-200,577	-200,000	0,006	-0,135
-199,563	74,001	0,139	-0,105
-198,548	-200,000	0,009	0,085
-197,533	-134,128	0,206	0,018
-196,519	-167,495	-0,087	0,002
-195,504	6,804	0,045	0,024
-194,490	-14,086	-0,126	-0,059
-193,475	281,506	-0,067	-0,087
-192,460	800,000	-0,052	-0,152
-191,446	597,028	0,037	0,066
-190,431	313,310	-0,027	-0,037
-189,417	8,625	0,057	0,031
-188,402	214,357	-0,062	-0,072
-187,387	-200,000	0,013	-0,118
-186,373	-117,554	-0,051	-0,007
-185,358	-82,953	0,067	0,015
-184,344	12,202	0,057	-0,032
-183,329	236,199	0,041	-0,049
-182,315	-165,862	0,123	0,004
-181,300	62,225	-0,081	-0,058
-180,285	214,235	-0,073	-0,083
-179,271	-103,632	0,149	0,025
-178,256	-190,250	-0,080	0,001
-177,242	-10,037	-0,030	0,014
-176,227	400,124	-0,082	0,124
-175,212	-200,000	0,003	0,050
-174,198	170,350	-0,102	-0,106
-173,183	-112,430	-0,140	0,020
-172,169	212,860	0,029	-0,033
-171,154	-31,532	0,124	-0,050
-170,139	-62,633	-0,038	0,011
-169,125	458,452	-0,017	0,027
-168,110	-200,000	0,051	0,185
-167,096	-200,000	-0,027	0,103
-166,081	-86,368	-0,093	-0,020
-165,066	88,255	-0,102	-0,082
-164,052	-200,000	-0,005	0,024
-163,037	376,092	-0,004	-0,005
-162,023	26,826	0,112	0,068
-161,008	2,609	-0,040	0,021
-159,993	297,551	0,091	0,121
-158,979	-200,000	0,012	0,137
-157,964	56,822	0,131	0,092
-156,950	68,050	0,093	0,069
-155,935	800,000	0,016	-0,049
-154,920	173,397	-0,023	-0,023
-153,906	525,982	0,033	0,057
-152,891	-200,000	0,005	0,067
-151,877	-195,299	-0,098	0,001
-150,862	195,486	0,059	-0,064
-149,847	800,000	0,034	-0,075
-148,833	83,289	0,067	-0,053
-147,818	352,624	0,041	0,059
-146,804	217,201	0,089	0,103
-145,789	32,956	-0,139	0,086
-144,775	2,930	-0,091	-0,048
-143,760	-200,000	0,010	-0,090
-142,745	53,456	0,045	-0,031
-141,731	157,264	-0,037	0,037
-140,716	800,000	0,057	0,162
-139,702	14,605	0,035	-0,020
-138,687	169,274	-0,087	0,090
-137,672	-200,000	0,008	0,077
-136,658	800,000	0,076	0,156
-135,643	-34,606	-0,105	0,041
-134,629	557,281	0,033	0,058
-133,614	-200,000	-0,019	-0,070
-132,599	-200,000	0,013	0,106
-131,585	-141,446	0,008	-0,001
-130,570	-7,555	0,009	0,004
-129,556	-92,812	-0,162	0,032
-128,541	145,112	0,046	-0,045
-127,526	118,371	0,049	0,043
-126,512	15,424	0,095	0,053
-125,497	84,876	-0,002	-0,002
-124,483	-29,594	-0,062	-0,025
-123,468	800,000	0,054	-0,146
-122,453	800,000	0,020	0,047
-121,439	-110,692	0,096	-0,014
-120,424	-95,972	0,119	-0,023
-119,410	-10,679	0,080	0,038
-118,395	-78,064	-0,058	-0,014
-117,380	-200,000	-0,047	0,157
-116,366	4,525	0,081	0,043
-115,351	144,336	0,046	0,044
-114,337	58,097	-0,096	0,068
-113,322	-61,541	0,059	-0,018
-112,307	-200,000	-0,008	-0,029
-111,293	636,367	-0,106	0,195
-110,278	99,580	0,107	0,089
-109,264	-136,875	-0,185	0,015
-108,249	-200,000	-0,003	0,011
-107,234	-103,766	-0,184	0,031
-106,220	-98,132	0,062	-0,011
-105,205	18,304	-0,109	-0,062
-104,191	-59,343	0,086	0,026
-103,176	800,000	-0,058	0,145
-102,162	800,000	0,014	-0,035
-101,147	330,612	-0,040	0,055
-100,132	107,022	0,086	-0,074
-99,118	-93,995	-0,154	-0,030
-98,103	-164,157	0,093	-0,003
-97,089	-65,504	0,110	0,032
-96,074	-91,485	0,103	-0,021
-95,059	-200,000	-0,047	0,183
-94,045	447,781	0,067	-0,106
-93,030	800,000	-0,049	-0,114
-92,016	-200,000	0,004	-0,138
-91,001	348,295	-0,014	0,020
-89,986	326,983	0,073	-0,101
-88,972	0,495	0,027	-0,014
-87,957	282,970	-0,082	0,106
-86,943	363,125	0,076	0,110
-85,928	-200,000	0,013	-0,138
-84,913	79,050	0,019	0,015
-83,899	-125,700	0,039	-0,004
-82,884	-34,318	0,075	0,029
-81,870	88,561	0,035	0,028
-80,855	-200,000	0,036	0,218
-79,840	103,859	0,030	-0,025
-78,826	-144,067	-0,087	-0,006
-77,811	-5,298	0,078	0,038
-76,797	800,000	-0,097	0,217
-75,782	521,378	-0,018	0,030
-74,767	-200,000	-0,046	0,160
-73,753	379,794	0,038	0,057
-72,738	-200,000	-0,016	-0,115
-71,724	800,000	-0,047	-0,123
-70,709	205,850	0,074	-0,082
-69,694	800,000	-0,025	0,075
-68,680	127,887	0,043	0,039
-67,665	-72,756	0,088	-0,023
-66,651	176,069	0,092	0,096
-65,636	-200,000	-0,001	-0,103
-64,622	-200,000	0,028	-0,287
-63,607	-39,718	0,072	0,027
-62,592	-200,000	0,006	0,110
-61,578	-32,714	0,085	-0,034
-60,563	-81,407	-0,054	0,013
-59,549	-200,000	0,036	0,161
-58,534	-1,021	-1,876	-0,950
-57,519	-200,000	-0,267	-0,901
-56,505	-200,000	-1,169	-5,024
-55,490	-38,133	0,799	0,303
-54,476	800,000	5,314	12,174
-53,461	-200,000	17,430	282,886
-52,446	800,000	725,494	2216,916
-51,432	537,017	1641,767	2810,092
-50,417	110,562	1632,650	1408,908
-49,403	75,180	1286,500	972,729
-48,388	32,278	1027,920	635,479
-47,373	20,257	989,729	572,213
-46,359	18,653	977,833	560,053
-45,344	15,922	973,926	548,851
-44,330	16,182	972,390	548,814
-43,315	15,746	970,593	546,352
-42,300	15,588	969,832	545,385
-41,286	15,570	968,601	544,614
-40,271	15,661	967,442	544,236
-39,257	15,656	966,481	543,659
-38,242	15,647	965,575	543,100
-37,227	15,620	964,963	542,646
-36,213	15,585	964,291	542,133
-35,198	15,572	963,140	541,422
-34,184	15,588	962,552	541,121
-33,169	15,604	961,588	540,608
-32,154	15,746	960,497	540,432
-31,140	15,636	959,731	539,627
-30,125	15,671	958,891	539,244
-29,111	15,668	958,032	538,729
-28,096	15,710	957,542	538,570
-27,082	15,627	956,812	537,871
-26,067	15,641	956,129	537,509
-25,052	15,626	955,408	537,035
-24,038	15,586	954,703	536,487
-23,023	15,576	954,182	536,144
-22,009	15,680	953,194	535,900
-20,994	15,671	952,672	535,557
-19,979	15,677	952,131	535,251
-18,965	15,607	951,561	534,683
-17,950	15,653	950,870	534,422
-16,936	15,601	950,133	533,821
-15,921	15,515	949,489	533,161
-14,906	15,520	948,805	532,773
-13,892	15,527	948,144	532,404
-12,877	15,523	947,449	531,981
-11,863	15,493	946,941	531,578
-10,848	15,481	946,400	531,214
-9,833	15,617	945,903	531,348
-8,819	15,600	945,325	530,947
-7,804	15,528	944,607	530,293
-6,790	15,550	944,034	530,021
-5,775	15,548	943,563	529,728
-4,760	15,551	942,996	529,398
-3,746	15,549	942,095	528,865
-2,731	15,469	941,536	528,277
-1,717	15,346	940,954	527,541
-0,702	15,410	940,256	527,330
0,313	15,173	939,613	527,017
1,327	18,339	937,376	535,695
2,342	27,152	794,712	477,533
3,356	23,895	459,117	270,870
4,371	-3,325	314,149	156,426
5,386	-7,336	295,865	143,254
6,400	-9,275	289,851	138,405
7,415	-9,665	287,452	136,864
8,429	-9,770	286,108	136,109
9,444	-9,766	285,009	135,578
10,459	-9,852	284,448	135,215
11,473	-9,779	283,803	134,967
12,488	-9,913	283,417	134,641
13,502	-9,826	282,968	134,500
14,517	-9,880	282,440	134,186
15,531	-9,716	281,918	134,084
16,546	-9,752	281,632	133,902
17,561	-9,565	281,140	133,835
18,575	-9,774	280,992	133,552
19,590	-9,810	280,567	133,303
20,604	-9,650	280,123	133,234
21,619	-9,691	279,905	133,079
22,634	-9,747	279,683	132,909
23,648	-9,734	279,234	132,695
24,663	-9,824	279,025	132,499
25,677	-9,659	278,756	132,516
26,692	-9,636	278,582	132,443
27,707	-9,764	278,243	132,149
28,721	-9,784	277,825	131,919
29,736	-9,784	277,581	131,792
30,750	-9,867	277,464	131,645
31,765	-9,829	277,142	131,518
32,780	-9,786	276,901	131,432
33,794	-9,842	276,731	131,286
34,809	-9,747	276,392	131,204
35,823	-9,865	276,072	130,929
36,838	-9,932	276,145	130,889
37,853	-9,650	275,559	130,865
38,867	-9,759	275,317	130,635
39,882	-9,637	275,058	130,615
40,896	-9,785	274,894	130,387
41,911	-9,964	274,753	130,141
42,926	-9,868	274,487	130,093
43,940	-9,993	274,207	129,832
44,955	-9,926	273,966	129,769
45,969	-10,039	273,781	129,564
46,984	-10,065	273,567	129,427
47,999	-10,174	273,138	129,111
49,013	-10,400	272,971	128,810
50,028	-10,356	272,676	128,700
51,042	-10,577	272,357	128,333
52,057	-10,470	272,164	128,330
53,071	-10,353	272,000	128,349
54,086	-10,278	271,732	128,281
55,101	-10,196	271,578	128,273
56,115	-10,165	271,485	128,246
57,130	-9,856	271,280	128,424
58,144	-9,705	271,037	128,436
59,159	-9,714	270,795	128,302
60,174	-9,720	270,785	128,281
61,188	-9,712	270,317	128,054
62,203	-9,620	270,164	128,056
63,217	-9,531	269,979	128,038
64,232	-9,757	269,688	127,681
65,247	-9,821	269,671	127,603
66,261	-9,716	269,362	127,541
67,276	-9,666	268,974	127,393
68,290	-9,983	268,682	126,953
69,305	-10,022	268,516	126,828
70,320	-10,095	268,510	126,746
71,334	-9,724	268,169	126,912
72,349	-9,710	268,011	126,840
73,363	-9,718	267,931	126,783
74,378	-9,787	267,525	126,517
75,393	-9,737	267,470	126,525
76,407	-9,704	267,188	126,411
77,422	-9,882	266,964	126,132
78,436	-9,818	266,734	126,069
79,451	-9,715	266,506	126,044
80,466	-9,687	266,200	125,913
81,480	-9,811	265,915	125,656
82,495	-9,747	265,736	125,617
83,509	-9,838	265,544	125,433
84,524	-9,933	265,304	125,223
85,539	-9,860	265,095	125,179
86,553	-9,976	264,965	125,001
87,568	-9,820	264,712	125,011
88,582	-9,843	264,570	124,913
89,597	-9,938	264,350	124,712
90,611	-9,794	264,198	124,759
91,626	-9,685	264,133	124,815
92,641	-9,743	263,743	124,567
93,655	-9,909	263,516	124,301
94,670	-9,906	263,448	124,260
95,684	-9,724	263,274	124,330
96,699	-9,686	262,949	124,198
97,714	-9,735	262,767	124,058
98,728	-9,817	262,547	123,870
99,743	-9,967	262,398	123,655
100,757	-10,026	262,143	123,471
101,772	-9,885	261,904	123,473
102,787	-9,904	261,846	123,418
103,801	-9,878	261,622	123,325
104,816	-9,815	261,356	123,245
105,830	-9,543	261,206	123,403
106,845	-9,518	260,945	123,291
107,860	-9,707	260,816	123,052
108,874	-9,667	260,615	122,982
109,889	-9,856	260,488	122,743
110,903	-9,805	260,086	122,588
111,918	-9,927	260,138	122,495
112,933	-9,750	259,696	122,432
113,947	-9,564	259,537	122,509
114,962	-9,880	259,550	122,226
115,976	-9,805	259,356	122,190
116,991	-9,600	258,979	122,182
118,006	-9,678	258,861	122,046
119,020	-9,763	258,836	121,949
120,035	-9,491	258,568	122,051
121,049	-9,706	258,558	121,847
122,064	-9,590	258,168	121,753
123,079	-9,623	258,036	121,651
124,093	-9,739	257,860	121,456
125,108	-9,852	257,377	121,119
126,122	-10,054	257,349	120,919
127,137	-10,123	257,004	120,686
128,151	-10,050	256,916	120,697
129,166	-10,024	256,751	120,632
130,181	-10,001	256,528	120,536
131,195	-10,262	256,471	120,272
132,210	-9,875	256,166	120,455
133,224	-9,653	255,990	120,553
134,239	-9,621	255,800	120,481
135,254	-9,685	255,571	120,307
136,268	-9,863	255,417	120,070
137,283	-9,807	255,085	119,951
138,297	-10,132	254,835	119,542
139,312	-10,013	254,745	119,592
140,327	-9,795	254,773	119,782
141,341	-9,799	254,556	119,666
142,356	-9,516	254,448	119,848
143,370	-9,639	254,160	119,596
144,385	-9,583	253,959	119,539
145,400	-9,548	253,886	119,525
146,414	-9,487	253,798	119,525
147,429	-9,382	253,384	119,409
148,443	-9,582	253,296	119,186
149,458	-9,610	253,147	119,081
150,473	-9,624	253,005	118,991
151,487	-9,666	252,689	118,796
152,502	-9,646	252,659	118,788
153,516	-9,517	252,425	118,778
154,531	-9,497	252,237	118,696
155,546	-9,533	252,073	118,578
156,560	-9,617	251,799	118,367
157,575	-9,573	251,492	118,249
158,589	-9,589	251,367	118,167
159,604	-9,548	251,473	118,240
160,619	-9,538	251,069	118,048
161,633	-9,520	250,934	117,990
162,648	-9,588	250,826	117,871
163,662	-9,424	250,567	117,877
164,677	-9,465	250,496	117,798
165,692	-9,490	250,429	117,736
166,706	-9,419	250,166	117,661
167,721	-9,500	250,021	117,515
168,735	-9,693	249,809	117,241
169,750	-9,480	249,584	117,305
170,764	-9,594	249,529	117,172
171,779	-9,279	249,385	117,360
172,794	-9,514	249,270	117,097
173,808	-9,532	248,957	116,925
174,823	-9,932	248,725	116,469
175,837	-10,124	248,473	116,180
176,852	-9,651	248,271	116,471
177,867	-9,500	248,349	116,624
178,881	-9,327	248,159	116,669
179,896	-9,464	248,034	116,486
180,910	-9,469	247,762	116,343
181,925	-9,548	247,508	116,148
182,940	-9,528	247,545	116,172
183,954	-9,420	247,161	116,071
184,969	-9,549	247,128	115,938
185,983	-9,443	246,935	115,925
186,998	-9,535	246,875	115,810
188,013	-9,530	246,768	115,754
189,027	-9,426	246,359	115,638
190,042	-9,413	246,134	115,533
191,056	-9,602	246,106	115,352
192,071	-9,358	245,890	115,443
193,086	-9,426	245,698	115,286
194,100	-9,533	245,498	115,093
195,115	-9,317	245,380	115,207
196,129	-9,356	245,313	115,133
197,144	-9,694	245,030	114,710
198,159	-9,527	244,765	114,714
199,173	-9,540	244,608	114,620
200,188	-9,625	244,425	114,453
201,202	-9,775	244,041	114,140
202,217	-10,041	243,987	113,886
203,232	-9,932	243,674	113,820
204,246	-9,698	243,753	114,038
205,261	-9,300	243,437	114,207
206,275	-10,323	243,195	113,246
207,290	-7,282	244,247	116,224
208,304	-0,674	246,554	122,775
209,319	3,153	247,484	126,395
210,334	3,575	247,436	126,707
211,348	3,800	247,487	126,908
212,363	3,967	247,320	126,948
213,377	4,194	247,055	126,989
214,392	3,644	247,127	126,561
215,407	3,810	246,801	126,520
216,421	3,775	246,677	126,416
217,436	4,036	246,618	126,589
218,450	4,233	246,349	126,602
219,465	3,830	246,153	126,159
220,480	3,561	246,037	125,867
221,494	3,608	245,841	125,794
222,509	3,747	245,557	125,751
223,523	3,843	245,315	125,695
224,538	3,163	245,223	125,080
225,553	3,269	244,969	125,026
226,567	3,562	244,921	125,230
227,582	3,751	244,874	125,349
228,596	3,787	244,671	125,263
229,611	3,460	244,367	124,830
230,626	3,367	244,085	124,599
231,640	3,384	243,966	124,541
232,655	3,506	243,947	124,620
233,669	3,187	243,758	124,253
234,684	3,306	243,497	124,205
235,699	3,746	243,486	124,546
236,713	3,693	243,507	124,502
237,728	3,478	242,924	124,019
238,742	3,153	242,964	123,766
239,757	3,324	242,804	123,811
240,772	3,189	242,552	123,562
241,786	3,656	242,416	123,859
242,801	3,295	242,303	123,499
243,815	3,345	242,074	123,412
244,830	3,501	242,018	123,498
245,844	3,415	241,920	123,367
246,859	3,398	241,666	123,214
247,874	3,236	241,551	123,013
248,888	3,325	241,291	122,942
249,903	3,459	241,276	123,031
250,917	3,535	241,116	122,999
251,932	3,816	240,941	123,124
252,947	3,628	240,809	122,894
253,961	3,240	240,717	122,527
254,976	3,539	240,470	122,629
255,990	3,577	240,373	122,599
257,005	3,618	240,037	122,449
258,020	3,210	239,936	122,061
259,034	3,347	239,873	122,128
260,049	3,645	239,653	122,242
261,063	3,276	239,579	121,900
262,078	3,289	239,344	121,780
263,093	3,693	239,149	121,991
264,107	3,871	238,933	122,011
265,122	3,617	238,896	121,779
266,136	3,441	238,881	121,621
267,151	3,682	238,714	121,716
268,166	3,329	238,407	121,269
269,180	3,138	238,275	121,040
270,195	3,799	238,303	121,567
271,209	4,031	238,224	121,700
272,224	3,512	237,954	121,141
273,239	3,297	237,666	120,813
274,253	3,368	237,439	120,743
275,268	3,347	237,491	120,743
276,282	3,714	237,170	120,857
277,297	3,444	236,838	120,465
278,312	3,413	236,868	120,445
279,326	3,520	236,851	120,510
280,341	3,516	236,691	120,415
281,355	3,517	236,616	120,366
282,370	3,663	236,331	120,326
283,384	3,607	236,031	120,118
284,399	3,153	236,038	119,755
285,414	3,113	235,882	119,634
286,428	3,360	235,713	119,731
287,443	3,293	235,582	119,601
288,457	3,408	235,412	119,595
289,472	3,680	235,337	119,757
290,487	3,365	235,103	119,383
291,501	3,547	234,772	119,346
292,516	3,107	234,698	118,955
293,530	3,083	234,497	118,824
294,545	3,563	234,490	119,182
295,560	3,584	234,240	119,061
296,574	3,332	234,020	118,743
297,589	3,277	234,113	118,737
298,603	3,511	234,042	118,872
299,618	3,676	233,873	118,904
300,633	3,433	233,684	118,609
301,647	3,804	233,515	118,799
302,662	3,956	233,553	118,925
303,676	3,851	233,317	118,714
304,691	3,943	233,241	118,735
305,706	3,947	233,042	118,626
306,720	3,767	232,850	118,379
307,735	3,874	232,619	118,334
308,749	3,549	232,385	117,955
309,764	3,252	232,193	117,618
310,779	3,205	232,149	117,550
311,793	3,257	231,872	117,439
312,808	3,060	231,800	117,241
313,822	3,296	231,584	117,302
314,837	3,002	231,547	117,047
315,852	3,251	231,266	117,085
316,866	3,589	231,246	117,323
317,881	3,730	231,133	117,364
318,895	3,659	231,043	117,253
319,910	3,859	230,988	117,367
320,925	3,601	230,757	117,042
321,939	3,424	230,474	116,754
322,954	3,458	230,598	116,832
323,968	3,317	230,202	116,514
324,983	3,208	230,008	116,323
325,997	3,340	229,900	116,357
327,012	3,444	230,025	116,490
328,027	3,562	229,756	116,432
329,041	3,941	229,576	116,618
330,056	4,143	229,513	116,729
331,070	4,248	229,318	116,699
332,085	3,445	229,055	115,947
333,100	3,805	228,986	116,174
334,114	3,761	228,855	116,064
335,129	3,841	228,802	116,087
336,143	3,912	228,506	115,980
337,158	3,901	228,415	115,915
338,173	3,944	228,269	115,863
339,187	3,780	228,052	115,619
340,202	3,935	227,947	115,672
341,216	3,775	227,795	115,464
342,231	3,598	227,750	115,298
343,246	3,557	227,480	115,121
344,260	3,859	227,444	115,319
345,275	4,029	227,347	115,387
346,289	3,992	227,207	115,278
347,304	3,768	227,165	115,078
348,319	3,966	226,947	115,106
349,333	3,863	226,795	114,941
350,348	3,604	226,460	114,568
351,362	3,748	226,388	114,629
352,377	3,744	226,121	114,480
353,392	3,298	226,099	114,127
354,406	3,371	225,928	114,085
355,421	195,182	1321,288	1397,393
356,435	156,436	1454,740	1397,384
