DTS Sentinel unit serial number:	SN410029Multiplexer serial number:	ORYXHardware model number:	OX2-SRSoftware version number:	ORYX F/W v4,00 Oryx Data Collector v3.7.2.0data status	okinstallation	B5 Nyhavnadifferential loss correction	single-endedforward channel	channel 2reverse channel	N/Adate	2023/12/12time	22:47:13forward acquisition time	300,00reverse acquisition time	0,00gamma	499,1914k internal	0,3158k external	0,3158temperature offset calibration	1,0000default loss term (dB/km)	0,3820temperature slope calibration	1,0000multiplexer offset coefficient	1,0000multiplexer slope coefficient	1,0000fibre end	0,00T internal ref (°C)	14,57T ext. ref 1 (°C)	-1,96T ext. ref 2 (°C)	-2,27length (m)	temperature (°C)	Stokes	anti-Stokes-744,400	7,943	0,175	0,096
-743,385	-63,890	-0,177	0,053
-742,371	-164,949	0,066	0,002
-741,356	156,450	-0,105	0,107
-740,342	17,492	0,099	0,058
-739,327	-44,573	-0,432	0,158
-738,312	-200,000	-0,001	-0,079
-737,298	-117,756	-0,391	-0,051
-736,283	800,000	0,097	0,231
-735,269	-92,055	-0,238	0,049
-734,254	-94,353	0,223	-0,045
-733,239	-38,988	-0,395	-0,153
-732,225	-22,728	0,171	0,076
-731,210	-34,387	-0,060	-0,024
-730,196	-149,503	0,053	-0,003
-729,181	-73,950	-0,060	0,016
-728,167	-200,000	0,005	0,107
-727,152	-120,628	-0,034	0,004
-726,137	479,639	-0,036	-0,061
-725,123	-200,000	0,020	-0,071
-724,108	-200,000	-0,049	-0,220
-723,094	-200,000	-0,010	-0,083
-722,079	-194,034	0,021	-0,000
-721,064	-200,000	-0,018	0,108
-720,050	-200,000	0,012	-0,118
-719,035	317,519	-0,038	-0,053
-718,021	-200,000	-0,007	-0,128
-717,006	151,303	-0,065	0,065
-715,991	-38,804	0,028	-0,011
-714,977	-76,223	-0,104	-0,027
-713,962	-200,000	-0,003	-0,195
-712,948	72,688	0,071	0,054
-711,933	588,867	0,038	-0,070
-710,918	42,568	-0,111	-0,074
-709,904	-200,000	-0,015	-0,105
-708,889	-141,924	-0,194	0,014
-707,875	332,944	-0,051	-0,072
-706,860	243,234	-0,031	0,039
-705,845	-63,929	-0,020	0,006
-704,831	25,326	-0,020	0,012
-703,816	-200,000	0,006	0,097
-702,802	15,803	0,084	-0,049
-701,787	-200,000	0,017	-0,180
-700,772	-200,000	-0,046	-0,218
-699,758	-103,062	0,102	0,018
-698,743	800,000	0,047	0,131
-697,729	582,189	0,015	-0,027
-696,714	-52,552	-0,063	-0,021
-695,699	117,528	0,138	-0,125
-694,685	-200,000	-0,001	0,042
-693,670	-81,806	-0,203	0,048
-692,656	76,667	-0,034	-0,027
-691,641	-200,000	0,024	0,087
-690,627	-110,370	-0,169	0,026
-689,612	693,620	-0,050	0,097
-688,597	177,388	-0,044	0,048
-687,583	787,720	-0,050	0,101
-686,568	-66,129	-0,110	-0,032
-685,554	336,377	-0,019	-0,027
-684,539	-200,000	0,017	0,138
-683,524	-200,000	-0,025	0,140
-682,510	-149,031	0,036	0,002
-681,495	162,573	0,138	0,142
-680,481	104,724	0,078	0,067
-679,466	-81,963	-0,073	-0,018
-678,451	368,290	0,055	-0,082
-677,437	66,663	0,031	0,023
-676,422	416,311	0,030	0,046
-675,408	-39,330	-0,033	0,013
-674,393	-183,576	-0,137	-0,002
-673,378	663,267	-0,024	0,045
-672,364	-200,000	0,003	0,157
-671,349	216,302	-0,016	0,019
-670,335	-160,290	0,018	0,001
-669,320	-200,000	0,010	0,064
-668,305	-126,766	-0,056	-0,006
-667,291	204,959	-0,046	-0,052
-666,276	800,000	0,026	-0,062
-665,262	-200,000	-0,001	-0,092
-664,247	173,145	-0,064	0,068
-663,232	87,634	0,043	-0,035
-662,218	73,700	0,098	0,075
-661,203	-184,650	0,058	-0,001
-660,189	-200,000	0,010	0,037
-659,174	-53,452	-0,020	-0,007
-658,159	-39,604	-0,147	0,056
-657,145	-40,359	0,047	-0,018
-656,130	-200,000	-0,008	0,031
-655,116	16,550	0,128	0,074
-654,101	-200,000	-0,008	0,136
-653,086	103,577	0,015	-0,013
-652,072	800,000	0,054	-0,133
-651,057	-25,113	0,033	0,014
-650,043	-200,000	-0,008	-0,046
-649,028	-200,000	0,033	-0,128
-648,014	-52,065	0,058	-0,020
-646,999	49,439	0,097	0,067
-645,984	800,000	-0,030	-0,073
-644,970	-200,000	-0,028	-0,122
-643,955	256,101	-0,137	-0,173
-642,941	279,327	-0,039	0,052
-641,926	66,832	-0,018	-0,014
-640,911	176,861	0,042	0,044
-639,897	5,470	0,074	0,040
-638,882	800,000	0,031	0,069
-637,868	800,000	0,017	0,038
-636,853	-200,000	-0,003	-0,281
-635,838	-33,332	0,005	0,002
-634,824	325,332	-0,069	-0,097
-633,809	-160,332	-0,104	0,004
-632,795	800,000	-0,012	-0,025
-631,780	45,442	0,096	-0,065
-630,765	147,097	-0,159	-0,157
-629,751	469,525	0,093	0,154
-628,736	-200,000	-0,052	-0,172
-627,722	-87,503	-0,115	0,025
-626,707	68,455	0,053	-0,040
-625,692	800,000	0,088	-0,189
-624,678	467,492	-0,032	-0,052
-623,663	4,239	0,078	-0,042
-622,649	104,593	0,033	-0,028
-621,634	-31,404	-0,083	0,034
-620,619	23,187	-0,041	0,024
-619,605	-33,321	-0,047	0,019
-618,590	-200,000	-0,003	0,088
-617,576	-200,000	-0,026	0,138
-616,561	51,010	-0,047	-0,032
-615,546	-126,324	-0,041	-0,004
-614,532	24,092	-0,056	-0,034
-613,517	67,074	-0,065	0,048
-612,503	410,212	0,122	-0,190
-611,488	-200,000	-0,010	0,042
-610,474	-200,000	0,012	0,059
-609,459	-143,148	0,136	-0,009
-608,444	133,588	-0,078	0,074
-607,430	-200,000	-0,022	0,081
-606,415	-15,919	-0,112	-0,052
-605,401	-179,995	0,116	0,002
-604,386	800,000	0,034	0,085
-603,371	47,659	0,031	-0,021
-602,357	186,164	0,105	0,115
-601,342	-106,460	-0,216	-0,035
-600,328	-97,518	-0,087	0,016
-599,313	341,843	-0,080	-0,115
-598,298	-106,852	0,100	-0,016
-597,284	248,644	0,047	0,059
-596,269	-102,514	-0,101	-0,018
-595,255	54,559	0,011	0,008
-594,240	234,343	0,014	-0,017
-593,225	-38,576	-0,123	-0,048
-592,211	-200,000	0,013	0,124
-591,196	-200,000	0,006	-0,077
-590,182	-26,904	0,124	-0,053
-589,167	-176,147	-0,061	-0,001
-588,152	-200,000	-0,024	-0,103
-587,138	800,000	-0,056	-0,119
-586,123	154,143	-0,118	-0,119
-585,109	-200,000	0,026	-0,151
-584,094	24,154	0,138	-0,083
-583,079	-137,978	0,066	0,005
-582,065	8,018	-0,042	0,023
-581,050	-200,000	-0,006	0,107
-580,036	329,999	0,036	0,051
-579,021	800,000	0,066	-0,139
-578,006	-147,394	-0,033	0,002
-576,992	77,350	-0,032	-0,025
-575,977	-20,392	0,085	-0,038
-574,963	125,582	-0,023	-0,021
-573,948	-60,351	0,115	0,036
-572,934	-200,000	-0,002	-0,111
-571,919	-117,826	-0,090	0,012
-570,904	800,000	0,024	0,065
-569,890	289,633	-0,101	-0,134
-568,875	140,964	0,048	0,047
-567,861	-2,356	-0,032	0,016
-566,846	131,863	0,062	-0,058
-565,831	-200,000	-0,001	-0,016
-564,817	-87,879	-0,088	-0,019
-563,802	-24,821	-0,107	-0,046
-562,788	800,000	0,032	0,072
-561,773	800,000	0,047	0,129
-560,758	-146,728	-0,039	0,002
-559,744	-200,000	0,054	0,217
-558,729	-37,828	0,060	0,023
-557,715	-200,000	-0,015	0,069
-556,700	-73,255	-0,053	0,014
-555,685	-71,237	0,038	0,010
-554,671	581,376	-0,045	0,081
-553,656	-173,294	0,103	0,002
-552,642	-141,964	-0,166	0,012
-551,627	-101,835	0,028	-0,005
-550,612	7,327	-0,066	-0,036
-549,598	-133,167	0,033	-0,003
-548,583	-200,000	0,040	-0,164
-547,569	140,328	0,153	0,148
-546,554	-86,576	-0,070	-0,016
-545,539	800,000	0,006	0,013
-544,525	88,306	0,096	0,078
-543,510	-71,578	-0,111	-0,030
-542,496	-200,000	-0,010	0,034
-541,481	-68,475	-0,112	-0,032
-540,466	-93,509	-0,169	0,034
-539,452	509,056	-0,041	0,070
-538,437	167,331	-0,076	-0,079
-537,423	-200,000	0,012	0,077
-536,408	-134,265	-0,049	-0,004
-535,393	86,037	-0,072	-0,058
-534,379	-88,824	-0,099	-0,021
-533,364	107,145	-0,088	-0,076
-532,350	-200,000	0,023	0,127
-531,335	800,000	0,084	0,188
-530,321	735,831	-0,023	0,045
-529,306	15,866	0,059	-0,034
-528,291	800,000	-0,016	-0,043
-527,277	-18,036	-0,060	-0,027
-526,262	-105,129	0,042	-0,007
-525,248	458,400	-0,019	0,030
-524,233	-177,393	0,107	0,002
-523,218	-126,222	-0,134	0,014
-522,204	800,000	-0,015	-0,036
-521,189	-30,250	-0,134	-0,055
-520,175	359,730	-0,046	0,068
-519,160	-145,908	-0,210	0,013
-518,145	800,000	-0,041	-0,085
-517,131	-62,262	0,135	0,041
-516,116	259,512	-0,064	-0,081
-515,102	800,000	-0,005	-0,017
-514,087	-48,226	-0,114	0,040
-513,072	745,104	0,046	-0,090
-512,058	-200,000	-0,018	-0,129
-511,043	320,969	0,059	0,082
-510,029	-200,000	-0,053	0,188
-509,014	-200,000	0,007	0,081
-507,999	-200,000	0,009	0,034
-506,985	378,597	-0,055	0,082
-505,970	297,981	-0,034	-0,046
-504,956	800,000	-0,028	0,069
-503,941	-200,000	-0,015	-0,070
-502,926	75,880	0,132	-0,102
-501,912	423,969	0,061	0,096
-500,897	48,643	0,069	-0,047
-499,883	98,776	0,044	0,037
-498,868	386,121	-0,022	-0,033
-497,853	-200,000	-0,017	-0,110
-496,839	248,989	0,164	-0,204
-495,824	9,017	0,040	-0,022
-494,810	-37,278	-0,076	-0,029
-493,795	-76,594	-0,026	0,007
-492,781	-88,116	-0,073	-0,016
-491,766	134,103	0,048	0,046
-490,751	-72,281	-0,226	-0,061
-489,737	-15,164	-0,047	-0,022
-488,722	-127,105	0,045	0,005
-487,708	-200,000	-0,011	0,124
-486,693	84,671	0,038	0,031
-485,678	-99,464	-0,106	-0,019
-484,664	298,476	0,117	-0,157
-483,649	-12,489	-0,055	0,026
-482,635	-200,000	-0,005	0,096
-481,620	659,431	-0,070	0,132
-480,605	88,293	0,082	0,066
-479,591	389,766	0,045	0,069
-478,576	152,510	-0,024	-0,024
-477,562	41,295	-0,028	-0,018
-476,547	85,384	0,041	-0,033
-475,532	282,039	-0,033	0,044
-474,518	3,530	-0,070	0,037
-473,503	212,983	0,016	0,019
-472,489	-200,000	-0,018	0,159
-471,474	-1,585	0,047	-0,024
-470,459	-177,652	-0,037	0,001
-469,445	-200,000	0,020	-0,164
-468,430	-200,000	0,018	-0,067
-467,416	-17,331	0,103	-0,047
-466,401	-29,572	0,055	0,023
-465,386	-123,713	-0,093	-0,011
-464,372	-200,000	-0,006	-0,159
-463,357	52,386	-0,030	-0,021
-462,343	232,659	-0,029	-0,035
-461,328	-200,000	0,004	0,127
-460,313	139,226	-0,082	-0,078
-459,299	160,409	0,072	0,073
-458,284	800,000	-0,039	0,104
-457,270	245,284	0,076	0,094
-456,255	362,453	0,028	0,041
-455,241	-184,330	-0,152	0,002
-454,226	149,777	-0,063	-0,062
-453,211	-41,151	0,065	-0,024
-452,197	-39,162	-0,102	0,039
-451,182	-200,000	0,013	0,126
-450,168	-200,000	-0,006	-0,022
-449,153	167,626	0,020	0,021
-448,138	83,942	0,089	-0,070
-447,124	-52,076	-0,055	0,018
-446,109	-200,000	0,032	0,141
-445,095	-105,436	0,148	0,024
-444,080	-200,000	0,018	0,088
-443,065	-82,296	-0,036	0,009
-442,051	-200,000	-0,008	-0,027
-441,036	-200,000	0,028	-0,128
-440,022	434,825	-0,085	-0,136
-439,007	-111,123	0,052	0,008
-437,992	182,128	0,069	0,074
-436,978	-200,000	0,015	-0,098
-435,963	582,834	0,035	-0,063
-434,949	-200,000	0,005	-0,036
-433,934	-105,471	0,053	-0,009
-432,919	-100,020	0,049	0,009
-431,905	-200,000	0,016	0,073
-430,890	-200,000	-0,021	0,170
-429,876	579,525	0,047	0,084
-428,861	-7,531	-0,088	0,043
-427,846	179,581	0,113	0,121
-426,832	-200,000	0,028	-0,106
-425,817	-196,805	-0,050	-0,000
-424,803	-78,258	-0,076	-0,019
-423,788	-130,031	0,158	0,016
-422,773	659,036	0,090	0,169
-421,759	-68,282	-0,106	-0,030
-420,744	-65,501	0,122	-0,035
-419,730	-200,000	0,000	-0,076
-418,715	654,646	-0,032	-0,060
-417,701	294,087	-0,076	-0,101
-416,686	475,828	0,040	0,065
-415,671	-200,000	0,008	0,053
-414,657	141,295	0,056	-0,054
-413,642	-45,169	-0,171	-0,062
-412,628	-200,000	-0,001	0,044
-411,613	-97,418	-0,187	-0,035
-410,598	263,353	-0,082	-0,104
-409,584	40,483	-0,104	-0,068
-408,569	170,268	-0,069	-0,072
-407,555	-27,831	0,053	-0,022
-406,540	-200,000	0,016	0,057
-405,525	115,064	-0,020	0,018
-404,511	-200,000	-0,003	-0,017
-403,496	-132,755	-0,101	0,009
-402,482	-200,000	-0,009	0,089
-401,467	428,191	-0,052	0,082
-400,452	109,535	0,082	0,072
-399,438	-161,958	0,054	-0,002
-398,423	-18,672	0,036	0,016
-397,409	695,726	-0,050	0,096
-396,394	800,000	-0,034	-0,077
-395,379	13,365	-0,066	-0,037
-394,365	439,073	-0,026	0,041
-393,350	-200,000	-0,032	0,155
-392,336	109,992	0,016	0,014
-391,321	800,000	-0,041	-0,109
-390,306	800,000	0,046	0,101
-389,292	344,461	-0,077	-0,110
-388,277	-12,728	0,115	-0,054
-387,263	12,075	0,059	0,033
-386,248	-50,852	0,024	-0,008
-385,233	271,578	-0,040	0,052
-384,219	-41,431	-0,118	-0,044
-383,204	308,701	-0,030	-0,041
-382,190	-200,000	0,016	-0,087
-381,175	-78,741	0,111	0,027
-380,160	25,902	0,098	0,059
-379,146	-46,461	0,126	-0,045
-378,131	-35,639	-0,112	0,044
-377,117	-200,000	-0,009	0,050
-376,102	800,000	-0,013	0,028
-375,088	89,970	0,130	-0,106
-374,073	44,897	0,107	0,071
-373,058	140,068	-0,028	0,027
-372,044	-80,161	0,091	0,022
-371,029	73,282	-0,049	0,037
-370,015	-200,000	0,001	0,024
-369,000	-200,000	-0,037	0,157
-367,985	-18,621	-0,087	-0,039
-366,971	469,349	-0,046	-0,076
-365,956	-100,982	0,169	-0,030
-364,942	-11,800	0,091	0,043
-363,927	-200,000	0,020	-0,105
-362,912	92,031	0,040	-0,032
-361,898	800,000	0,008	0,018
-360,883	75,815	-0,064	-0,049
-359,869	-91,688	-0,029	0,006
-358,854	33,337	-0,017	-0,011
-357,839	102,899	0,039	-0,033
-356,825	-170,819	0,229	0,006
-355,810	800,000	-0,029	0,085
-354,796	-200,000	0,009	0,062
-353,781	-200,000	0,020	-0,083
-352,766	217,775	-0,039	0,046
-351,752	-69,522	-0,087	-0,024
-350,737	601,979	0,066	0,119
-349,723	497,727	0,053	0,090
-348,708	116,832	-0,040	0,035
-347,693	-35,568	0,081	-0,032
-346,679	800,000	-0,041	-0,110
-345,664	800,000	0,068	-0,158
-344,650	-200,000	0,003	-0,082
-343,635	476,386	-0,036	0,060
-342,620	-10,930	0,126	0,060
-341,606	-112,835	-0,043	-0,006
-340,591	34,524	0,092	-0,058
-339,577	-17,871	0,114	-0,052
-338,562	800,000	-0,040	-0,081
-337,548	-165,495	0,040	0,001
-336,533	54,770	0,090	0,063
-335,518	-128,960	-0,056	0,006
-334,504	32,367	-0,069	0,043
-333,489	110,055	-0,065	-0,057
-332,475	-200,000	-0,013	0,081
-331,460	-134,325	-0,098	0,009
-330,445	-200,000	0,003	0,086
-329,431	753,040	-0,050	-0,099
-328,416	-144,676	0,067	0,004
-327,402	800,000	0,067	0,166
-326,387	-200,000	-0,021	0,072
-325,372	-200,000	-0,031	0,117
-324,358	-200,000	0,005	-0,125
-323,343	113,185	0,039	0,034
-322,329	586,304	-0,027	0,048
-321,314	-9,954	-0,024	0,012
-320,299	57,271	0,108	0,076
-319,285	302,930	-0,106	0,143
-318,270	800,000	-0,044	0,115
-317,256	306,658	-0,080	-0,109
-316,241	4,340	-0,033	0,017
-315,226	96,173	0,095	-0,079
-314,212	-131,775	0,015	0,001
-313,197	-200,000	-0,003	-0,058
-312,183	-174,219	-0,083	0,002
-311,168	-200,000	-0,002	-0,104
-310,153	-134,557	0,056	-0,005
-309,139	-89,283	0,146	0,031
-308,124	-200,000	-0,004	0,025
-307,110	-17,420	0,043	0,020
-306,095	-200,000	-0,011	0,079
-305,080	-36,646	0,183	0,071
-304,066	-76,328	-0,039	-0,010
-303,051	800,000	-0,031	-0,069
-302,037	800,000	0,034	-0,099
-301,022	-76,761	-0,045	0,011
-300,008	-200,000	0,011	0,068
-298,993	-36,401	0,061	0,024
-297,978	-126,809	0,154	-0,016
-296,964	603,871	0,029	0,052
-295,949	318,668	-0,031	-0,043
-294,935	90,581	-0,076	0,062
-293,920	-56,773	-0,035	-0,011
-292,905	-200,000	-0,036	-0,117
-291,891	-200,000	-0,000	0,138
-290,876	-200,000	0,000	0,113
-289,862	509,078	-0,047	0,080
-288,847	-130,527	0,045	0,004
-287,832	-200,000	0,027	-0,117
-286,818	-200,000	0,019	-0,086
-285,803	218,128	0,072	0,084
-284,789	800,000	-0,045	0,139
-283,774	-79,355	0,159	-0,039
-282,759	-200,000	0,013	0,157
-281,745	800,000	0,004	0,009
-280,730	-200,000	0,015	-0,054
-279,716	24,902	0,061	0,036
-278,701	800,000	-0,076	0,155
-277,686	221,742	-0,115	0,134
-276,672	27,493	0,042	0,026
-275,657	584,919	-0,056	0,101
-274,643	-94,101	-0,049	-0,010
-273,628	800,000	0,063	0,177
-272,613	-103,060	-0,086	-0,015
-271,599	31,308	-0,155	0,096
-270,584	-122,016	0,257	-0,030
-269,570	-162,899	-0,032	-0,001
-268,555	-38,096	-0,074	0,028
-267,540	800,000	-0,066	0,159
-266,526	330,807	-0,061	-0,085
-265,511	-54,728	-0,036	0,012
-264,497	-133,293	0,043	-0,004
-263,482	667,128	-0,034	0,063
-262,467	-200,000	-0,014	0,072
-261,453	-130,298	0,063	0,006
-260,438	-176,322	-0,091	-0,002
-259,424	-23,829	-0,128	-0,055
-258,409	-30,071	0,067	-0,027
-257,395	200,888	0,142	-0,158
-256,380	-113,207	0,041	-0,006
-255,365	322,431	-0,020	-0,028
-254,351	-200,000	-0,019	-0,082
-253,336	800,000	-0,064	-0,132
-252,322	387,369	-0,062	-0,092
-251,307	104,847	0,115	-0,098
-250,292	-200,000	-0,014	-0,059
-249,278	-26,258	0,065	-0,027
-248,263	-200,000	-0,010	0,053
-247,249	662,886	0,103	0,193
-246,234	407,415	-0,077	0,118
-245,219	88,535	0,058	-0,047
-244,205	-197,885	-0,139	0,001
-243,190	-84,746	-0,020	-0,005
-242,176	-186,632	0,189	0,002
-241,161	-46,975	0,069	0,024
-240,146	-101,087	-0,105	0,018
-239,132	110,924	0,050	0,044
-238,117	273,996	0,011	-0,014
-237,103	800,000	0,038	-0,088
-236,088	-200,000	0,003	-0,072
-235,073	-200,000	0,012	-0,116
-234,059	-15,113	0,129	-0,060
-233,044	-200,000	0,021	0,183
-232,030	-200,000	-0,016	0,072
-231,015	-107,614	0,140	0,022
-230,000	-161,627	-0,025	0,001
-228,986	-200,000	-0,019	0,156
-227,971	92,488	0,046	-0,038
-226,957	13,757	-0,128	0,072
-225,942	-200,000	0,017	-0,110
-224,927	118,606	-0,043	-0,038
-223,913	-200,000	0,036	-0,122
-222,898	-200,000	0,005	-0,080
-221,884	174,446	-0,133	-0,139
-220,869	133,085	0,094	0,088
-219,855	-200,000	0,049	0,189
-218,840	800,000	0,020	0,042
-217,825	-95,798	0,108	0,021
-216,811	-200,000	-0,042	-0,140
-215,796	189,792	-0,070	-0,076
-214,782	-125,530	0,101	-0,011
-213,767	-106,709	0,090	0,014
-212,752	-200,000	-0,011	0,147
-211,738	-200,000	0,027	0,129
-210,723	-119,763	0,119	-0,015
-209,709	478,707	0,035	0,058
-208,694	27,823	0,086	0,052
-207,679	800,000	-0,046	-0,111
-206,665	-200,000	-0,006	-0,039
-205,650	-200,000	0,007	0,126
-204,636	-200,000	0,011	-0,248
-203,621	1,019	0,050	-0,026
-202,606	-200,000	-0,013	0,064
-201,592	616,781	0,030	-0,054
-200,577	-200,000	-0,004	-0,064
-199,563	117,239	0,061	0,054
-198,548	-200,000	0,040	-0,139
-197,533	-136,285	-0,111	0,009
-196,519	58,868	-0,045	-0,032
-195,504	11,726	-0,030	0,017
-194,490	-42,860	-0,116	-0,042
-193,475	5,769	-0,096	-0,051
-192,460	800,000	0,087	0,176
-191,446	-146,037	-0,080	-0,005
-190,431	800,000	0,040	0,103
-189,417	-200,000	0,004	-0,119
-188,402	800,000	-0,034	-0,078
-187,387	-200,000	0,014	-0,057
-186,373	-194,834	0,142	-0,001
-185,358	-200,000	-0,007	0,059
-184,344	-79,299	0,085	0,021
-183,329	-6,206	0,103	0,051
-182,315	-200,000	-0,050	0,240
-181,300	698,086	0,084	0,161
-180,285	16,448	-0,092	-0,052
-179,271	-200,000	-0,002	-0,173
-178,256	-75,030	-0,081	-0,021
-177,242	800,000	-0,040	0,113
-176,227	-200,000	-0,002	-0,054
-175,212	528,001	-0,054	0,092
-174,198	330,852	-0,089	-0,124
-173,183	1,269	0,071	0,037
-172,169	-127,475	-0,040	-0,004
-171,154	-200,000	0,006	0,061
-170,139	615,745	-0,024	0,044
-169,125	-70,684	-0,035	0,009
-168,110	-200,000	0,021	-0,124
-167,096	-78,590	0,059	0,015
-166,081	41,541	-0,085	-0,055
-165,066	497,887	0,017	-0,028
-164,052	115,672	-0,045	0,040
-163,037	800,000	0,014	0,034
-162,023	-112,593	0,079	0,011
-161,008	-200,000	-0,004	0,092
-159,993	-58,466	-0,049	-0,015
-158,979	-200,000	-0,022	-0,158
-157,964	800,000	-0,077	-0,180
-156,950	-101,541	0,190	-0,033
-155,935	-200,000	0,023	-0,102
-154,920	-200,000	0,034	-0,115
-153,906	-200,000	-0,018	-0,123
-152,891	-200,000	-0,002	-0,137
-151,877	-6,254	-0,068	-0,033
-150,862	138,744	0,091	-0,086
-149,847	139,360	-0,056	-0,053
-148,833	-200,000	-0,003	-0,026
-147,818	665,967	0,037	-0,070
-146,804	-71,300	0,133	0,036
-145,789	-200,000	-0,033	0,156
-144,775	-200,000	0,004	-0,099
-143,760	33,056	-0,087	0,054
-142,745	0,542	-0,130	-0,067
-141,731	36,358	-0,078	0,049
-140,716	-103,053	0,182	-0,031
-139,702	800,000	-0,053	0,114
-138,687	33,621	-0,074	0,046
-137,672	-28,891	0,154	-0,064
-136,658	800,000	0,025	0,061
-135,643	261,586	0,121	-0,151
-134,629	800,000	-0,063	-0,152
-133,614	83,563	-0,060	0,047
-132,599	-99,497	0,122	0,022
-131,585	-200,000	-0,005	0,081
-130,570	-200,000	-0,046	0,155
-129,556	800,000	-0,018	0,045
-128,541	-47,212	-0,092	0,032
-127,526	-67,707	0,037	-0,010
-126,512	278,588	0,010	-0,013
-125,497	-18,741	0,129	0,058
-124,483	-200,000	0,012	-0,101
-123,468	-200,000	0,018	-0,120
-122,453	-152,388	-0,039	0,002
-121,439	-200,000	-0,009	0,099
-120,424	-200,000	-0,023	0,077
-119,410	-73,651	0,070	0,018
-118,395	-36,574	0,026	-0,010
-117,380	153,223	-0,036	0,035
-116,366	58,447	-0,103	0,073
-115,351	65,321	0,141	-0,103
-114,337	-65,748	-0,065	0,019
-113,322	-162,227	0,036	0,001
-112,307	800,000	0,015	0,037
-111,293	800,000	-0,024	-0,055
-110,278	226,376	-0,038	-0,045
-109,264	-59,939	-0,020	-0,006
-108,249	-200,000	-0,009	0,043
-107,234	88,132	-0,062	-0,049
-106,220	-122,453	-0,145	-0,017
-105,205	-91,790	-0,101	0,021
-104,191	389,190	-0,058	-0,087
-103,176	-103,527	-0,056	-0,009
-102,162	105,931	-0,082	0,070
-101,147	-191,801	0,045	0,000
-100,132	-93,961	0,048	0,009
-99,118	-200,000	0,003	-0,020
-98,103	-200,000	0,001	0,003
-97,089	546,460	-0,045	-0,078
-96,074	223,272	-0,070	-0,082
-95,059	-155,089	-0,045	-0,002
-94,045	-200,000	-0,009	0,060
-93,030	800,000	0,029	-0,063
-92,016	-200,000	0,001	0,026
-91,001	-87,863	0,090	0,019
-89,986	637,743	0,049	0,089
-88,972	800,000	-0,024	0,065
-87,957	146,338	-0,035	0,033
-86,943	5,152	-0,107	0,056
-85,928	77,264	0,126	-0,096
-84,913	685,425	0,047	-0,089
-83,899	14,291	0,158	0,088
-82,884	-200,000	0,018	-0,097
-81,870	73,220	0,102	0,077
-80,855	-77,958	0,141	0,035
-79,840	-47,832	-0,160	-0,055
-78,826	-123,713	-0,117	0,013
-77,811	-43,222	0,099	0,036
-76,797	-90,925	-0,146	-0,030
-75,782	-200,000	-0,013	0,100
-74,767	760,174	0,030	-0,059
-73,753	-200,000	-0,034	0,157
-72,738	-200,000	-0,030	0,096
-71,724	-88,302	-0,089	-0,019
-70,709	-200,000	0,015	-0,130
-69,694	323,190	-0,110	-0,150
-68,680	-141,717	-0,058	-0,004
-67,665	317,585	0,073	0,099
-66,651	800,000	-0,047	0,107
-65,636	-92,042	0,009	0,002
-64,622	-84,234	-0,048	-0,011
-63,607	44,434	-0,093	0,061
-62,592	-41,991	-0,150	-0,055
-61,578	122,071	0,098	0,088
-60,563	449,300	-0,031	0,049
-59,549	68,813	-0,062	0,046
-58,534	6,615	-2,083	-1,109
-57,519	-200,000	-0,235	-0,918
-56,505	-200,000	-1,294	-5,068
-55,490	58,531	0,788	0,554
-54,476	800,000	5,299	12,022
-53,461	-200,000	18,139	297,471
-52,446	800,000	732,773	2260,602
-51,432	543,020	1649,406	2834,613
-50,417	109,376	1637,669	1406,867
-49,403	74,377	1288,152	970,288
-48,388	31,012	1028,267	631,075
-47,373	20,023	990,180	571,419
-46,359	17,998	977,825	557,625
-45,344	14,870	973,976	545,160
-44,330	15,151	972,480	545,222
-43,315	14,630	970,630	542,460
-42,300	14,549	969,448	541,514
-41,286	14,562	968,554	541,036
-40,271	14,569	967,405	540,396
-39,257	14,603	966,650	540,061
-38,242	14,620	965,575	539,495
-37,227	14,622	964,913	539,111
-36,213	14,568	964,061	538,440
-35,198	14,596	962,901	537,860
-34,184	14,606	962,469	537,631
-33,169	14,564	961,341	536,841
-32,154	14,616	960,391	536,459
-31,140	14,615	959,427	535,896
-30,125	14,634	958,763	535,564
-29,111	14,561	958,126	534,953
-28,096	14,667	957,172	534,740
-27,082	14,635	956,580	534,286
-26,067	14,638	955,796	533,835
-25,052	14,623	955,090	533,370
-24,038	14,620	954,367	532,936
-23,023	14,587	953,870	532,534
-22,009	14,597	953,259	532,202
-20,994	14,635	952,437	531,845
-19,979	14,631	951,993	531,564
-18,965	14,591	951,201	530,970
-17,950	14,594	950,582	530,614
-16,936	14,580	950,044	530,247
-15,921	14,595	949,295	529,856
-14,906	14,499	948,670	529,181
-13,892	14,461	948,138	528,741
-12,877	14,518	947,266	528,416
-11,863	14,495	946,783	528,052
-10,848	14,518	946,333	527,852
-9,833	14,539	945,895	527,654
-8,819	14,533	945,146	527,196
-7,804	14,516	944,439	526,728
-6,790	14,509	943,826	526,343
-5,775	14,513	943,445	526,121
-4,760	14,504	942,580	525,591
-3,746	14,479	942,039	525,190
-2,731	14,411	941,374	524,580
-1,717	14,359	940,719	524,031
-0,702	14,314	940,155	523,553
0,313	14,103	939,454	523,287
1,327	17,368	937,027	532,181
2,342	26,166	793,233	473,809
3,356	22,610	458,398	268,348
4,371	-4,227	314,799	155,704
5,386	-8,247	296,632	142,631
6,400	-10,291	290,533	137,653
7,415	-10,466	288,098	136,315
8,429	-10,648	286,259	135,254
9,444	-10,820	285,583	134,755
10,459	-10,677	285,054	134,633
11,473	-10,763	284,418	134,237
12,488	-10,656	284,004	134,133
13,502	-10,529	283,225	133,876
14,517	-10,635	282,993	133,653
15,531	-10,533	282,468	133,491
16,546	-10,584	282,248	133,326
17,561	-10,746	281,818	132,954
18,575	-10,330	281,382	133,138
19,590	-10,808	281,183	132,572
20,604	-10,542	280,791	132,631
21,619	-10,529	280,334	132,415
22,634	-10,584	280,138	132,258
23,648	-10,801	279,712	131,838
24,663	-10,656	279,465	131,848
25,677	-10,638	279,353	131,801
26,692	-10,499	278,915	131,714
27,707	-10,600	278,710	131,510
28,721	-10,572	278,257	131,312
29,736	-10,738	278,157	131,094
30,750	-10,673	277,902	131,025
31,765	-10,587	277,489	130,900
32,780	-10,658	277,334	130,748
33,794	-10,729	277,192	130,602
34,809	-10,654	276,750	130,452
35,823	-10,664	276,595	130,358
36,838	-10,616	276,407	130,304
37,853	-10,712	276,031	130,024
38,867	-10,703	275,845	129,934
39,882	-10,548	275,613	129,959
40,896	-10,727	275,422	129,688
41,911	-10,604	275,126	129,653
42,926	-10,585	274,788	129,500
43,940	-10,671	274,619	129,329
44,955	-10,912	274,330	128,955
45,969	-10,701	274,067	129,018
46,984	-10,945	274,001	128,746
47,999	-10,929	273,600	128,562
49,013	-11,179	273,516	128,278
50,028	-11,357	273,098	127,904
51,042	-11,298	272,653	127,739
52,057	-11,481	272,574	127,521
53,071	-11,290	272,271	127,545
54,086	-11,169	272,267	127,644
55,101	-10,913	271,974	127,733
56,115	-10,819	271,833	127,742
57,130	-10,601	271,794	127,915
58,144	-10,429	271,613	127,977
59,159	-10,497	271,293	127,752
60,174	-10,651	271,071	127,494
61,188	-10,584	270,820	127,426
62,203	-10,566	270,608	127,332
63,217	-10,463	270,464	127,348
64,232	-10,561	270,193	127,119
65,247	-10,510	269,956	127,043
66,261	-10,368	269,653	127,019
67,276	-10,761	269,319	126,489
68,290	-10,736	269,139	126,417
69,305	-10,947	269,017	126,155
70,320	-10,871	268,880	126,149
71,334	-10,719	268,573	126,133
72,349	-10,465	268,392	126,269
73,363	-10,566	268,345	126,143
74,378	-10,479	267,893	125,999
75,393	-10,656	267,739	125,753
76,407	-10,601	267,654	125,753
77,422	-10,459	267,211	125,662
78,436	-10,481	267,079	125,570
79,451	-10,537	266,850	125,399
80,466	-10,478	266,562	125,306
81,480	-10,818	266,322	124,874
82,495	-10,587	266,104	124,970
83,509	-10,725	265,855	124,717
84,524	-10,791	265,832	124,635
85,539	-10,828	265,459	124,416
86,553	-10,834	265,311	124,331
87,568	-10,918	265,174	124,179
88,582	-10,681	264,949	124,276
89,597	-10,677	264,659	124,133
90,611	-10,634	264,537	124,104
91,626	-10,505	264,365	124,127
92,641	-10,647	264,114	123,871
93,655	-10,620	263,953	123,809
94,670	-10,659	263,617	123,605
95,684	-10,669	263,661	123,606
96,699	-10,526	263,347	123,576
97,714	-10,522	263,124	123,463
98,728	-10,701	262,959	123,215
99,743	-10,983	262,738	122,849
100,757	-10,901	262,553	122,825
101,772	-10,816	262,265	122,755
102,787	-10,569	261,972	122,826
103,801	-10,753	261,904	122,620
104,816	-10,661	261,729	122,609
105,830	-10,505	261,581	122,667
106,845	-10,435	261,299	122,586
107,860	-10,619	261,228	122,378
108,874	-10,569	260,910	122,263
109,889	-10,639	260,780	122,129
110,903	-10,668	260,577	121,997
111,918	-10,540	260,493	122,060
112,933	-10,643	260,212	121,826
113,947	-10,721	260,051	121,671
114,962	-10,715	259,892	121,592
115,976	-10,618	259,663	121,560
116,991	-10,459	259,361	121,547
118,006	-10,800	259,336	121,225
119,020	-10,688	259,106	121,204
120,035	-10,656	259,088	121,214
121,049	-10,449	258,900	121,296
122,064	-10,542	258,710	121,115
123,079	-10,496	258,354	120,978
124,093	-10,551	258,137	120,817
125,108	-10,608	257,861	120,628
126,122	-10,938	257,590	120,202
127,137	-10,995	257,425	120,065
128,151	-10,758	257,189	120,151
129,166	-11,028	257,327	119,969
130,181	-10,910	256,845	119,836
131,195	-10,900	256,735	119,782
132,210	-10,792	256,632	119,818
133,224	-10,524	256,271	119,871
134,239	-10,489	256,027	119,776
135,254	-10,514	255,897	119,684
136,268	-10,561	255,617	119,501
137,283	-10,810	255,477	119,210
138,297	-10,993	255,313	118,964
139,312	-10,746	254,893	118,971
140,327	-10,521	254,901	119,158
141,341	-10,644	254,805	118,997
142,356	-10,464	254,725	119,104
143,370	-10,352	254,586	119,124
144,385	-10,364	254,418	119,025
145,400	-10,504	254,143	118,766
146,414	-10,421	253,836	118,683
147,429	-10,519	253,794	118,568
148,443	-10,503	253,670	118,514
149,458	-10,305	253,624	118,651
150,473	-10,378	253,365	118,457
151,487	-10,519	253,020	118,164
152,502	-10,413	252,801	118,142
153,516	-10,535	252,791	118,023
154,531	-10,408	252,558	118,012
155,546	-10,513	252,335	117,808
156,560	-10,349	252,140	117,846
157,575	-10,530	251,915	117,576
158,589	-10,424	251,815	117,609
159,604	-10,356	251,485	117,503
160,619	-10,252	251,287	117,488
161,633	-10,495	251,221	117,240
162,648	-10,455	251,145	117,229
163,662	-10,329	250,853	117,188
164,677	-10,264	250,679	117,152
165,692	-10,246	250,524	117,084
166,706	-10,405	250,429	116,894
167,721	-10,308	250,395	116,950
168,735	-10,327	249,978	116,729
169,750	-10,447	250,059	116,655
170,764	-10,404	249,845	116,581
171,779	-10,425	249,647	116,461
172,794	-10,267	249,501	116,516
173,808	-10,234	249,203	116,394
174,823	-10,618	249,029	115,979
175,837	-10,942	248,744	115,564
176,852	-10,627	248,803	115,845
177,867	-10,486	248,596	115,858
178,881	-10,405	248,507	115,873
179,896	-10,364	248,264	115,784
180,910	-10,404	248,000	115,617
181,925	-10,281	247,894	115,660
182,940	-10,351	247,723	115,512
183,954	-10,402	247,553	115,379
184,969	-10,295	247,314	115,347
185,983	-10,283	247,254	115,319
186,998	-10,289	247,043	115,205
188,013	-10,326	246,893	115,094
189,027	-10,270	246,760	115,068
190,042	-10,508	246,534	114,756
191,056	-10,370	246,325	114,762
192,071	-10,288	246,231	114,776
193,086	-10,466	246,107	114,560
194,100	-10,561	245,917	114,383
195,115	-10,386	245,691	114,413
196,129	-10,311	245,475	114,364
197,144	-10,378	245,126	114,136
198,159	-10,384	245,120	114,118
199,173	-10,145	244,881	114,193
200,188	-10,345	244,766	113,965
201,202	-10,622	244,488	113,597
202,217	-10,728	244,248	113,388
203,232	-11,040	244,074	113,042
204,246	-10,743	244,088	113,282
205,261	-10,043	243,754	113,691
206,275	-11,362	243,423	112,445
207,290	-6,648	245,351	117,214
208,304	1,537	247,726	125,131
209,319	4,089	248,412	127,583
210,334	4,636	248,353	127,994
211,348	4,671	248,393	128,032
212,363	4,811	248,307	128,092
213,377	5,111	248,158	128,252
214,392	4,906	247,974	127,976
215,407	4,824	247,847	127,832
216,421	4,722	247,533	127,574
217,436	5,191	247,452	127,908
218,450	5,090	247,360	127,766
219,465	5,039	247,020	127,536
220,480	4,660	246,951	127,178
221,494	4,511	246,628	126,878
222,509	4,594	246,599	126,920
223,523	4,649	246,390	126,846
224,538	4,154	246,051	126,254
225,553	4,469	246,018	126,484
226,567	4,549	245,814	126,434
227,582	4,619	245,679	126,410
228,596	4,530	245,636	126,304
229,611	4,263	245,224	125,863
230,626	4,222	245,027	125,717
231,640	4,265	245,025	125,740
232,655	4,693	244,777	125,950
233,669	4,286	244,685	125,560
234,684	4,098	244,545	125,324
235,699	4,605	244,402	125,652
236,713	4,520	244,393	125,567
237,728	4,367	244,035	125,248
238,742	4,075	243,990	124,976
239,757	4,183	243,653	124,880
240,772	4,202	243,599	124,857
241,786	3,930	243,550	124,600
242,801	4,159	243,317	124,655
243,815	4,124	243,076	124,492
244,830	4,474	242,970	124,709
245,844	4,480	242,703	124,566
246,859	4,399	242,490	124,380
247,874	4,171	242,473	124,177
248,888	4,342	242,203	124,166
249,903	4,471	242,182	124,247
250,917	4,366	242,109	124,114
251,932	4,694	242,027	124,325
252,947	4,500	241,762	124,022
253,961	4,353	241,513	123,765
254,976	4,272	241,440	123,651
255,990	4,657	241,181	123,816
257,005	4,328	241,052	123,476
258,020	4,101	240,928	123,220
259,034	4,377	240,848	123,389
260,049	4,511	240,550	123,332
261,063	4,180	240,337	122,948
262,078	3,872	240,344	122,694
263,093	4,479	240,298	123,144
264,107	4,398	240,162	122,999
265,122	4,296	239,817	122,730
266,136	4,442	239,760	122,806
267,151	4,505	239,662	122,795
268,166	4,200	239,297	122,355
269,180	4,037	239,133	122,131
270,195	4,569	239,330	122,643
271,209	4,896	239,108	122,777
272,224	4,442	238,881	122,290
273,239	4,110	238,486	121,815
274,253	3,941	238,516	121,686
275,268	4,284	238,340	121,856
276,282	4,598	238,062	121,951
277,297	4,080	237,962	121,480
278,312	4,323	237,745	121,550
279,326	4,407	237,843	121,656
280,341	4,218	237,723	121,434
281,355	4,413	237,430	121,427
282,370	4,645	237,265	121,514
283,384	4,518	237,072	121,305
284,399	4,227	237,026	121,042
285,414	4,073	236,657	120,722
286,428	4,157	236,627	120,761
287,443	3,990	236,611	120,612
288,457	4,235	236,406	120,689
289,472	4,575	236,323	120,902
290,487	4,204	236,131	120,503
291,501	4,243	235,847	120,377
292,516	4,217	235,477	120,157
293,530	4,068	235,483	120,034
294,545	4,401	235,439	120,260
295,560	4,519	235,382	120,312
296,574	3,968	235,096	119,726
297,589	4,308	234,985	119,924
298,603	4,486	235,003	120,060
299,618	4,527	234,760	119,957
300,633	4,562	234,511	119,847
301,647	4,451	234,534	119,762
302,662	4,885	234,446	120,043
303,676	4,654	234,129	119,691
304,691	4,671	234,036	119,645
305,706	4,786	233,976	119,693
306,720	4,794	233,843	119,620
307,735	4,625	233,570	119,340
308,749	4,254	233,419	118,966
309,764	3,978	233,311	118,687
310,779	3,994	233,091	118,577
311,793	4,050	232,761	118,442
312,808	3,957	232,516	118,235
313,822	3,720	232,337	117,952
314,837	3,715	232,271	117,903
315,852	4,230	232,286	118,296
316,866	4,552	232,398	118,590
317,881	4,655	232,093	118,502
318,895	4,579	231,933	118,352
319,910	4,845	231,624	118,388
320,925	4,089	231,622	117,798
321,939	4,052	231,423	117,658
322,954	4,701	231,430	118,146
323,968	4,419	231,301	117,855
324,983	4,501	231,101	117,805
325,997	4,719	230,973	117,895
327,012	4,643	230,733	117,704
328,027	4,468	230,519	117,452
329,041	4,818	230,458	117,677
330,056	5,079	230,436	117,853
331,070	5,041	230,440	117,816
332,085	4,560	230,129	117,281
333,100	4,470	229,834	117,052
334,114	4,348	229,815	116,939
335,129	4,717	229,660	117,129
336,143	4,946	229,505	117,213
337,158	4,782	229,368	117,009
338,173	4,427	229,170	116,629
339,187	4,487	228,881	116,517
340,202	4,509	228,875	116,520
341,216	4,462	228,705	116,387
342,231	4,061	228,555	115,999
343,246	4,290	228,442	116,104
344,260	4,671	228,264	116,289
345,275	4,571	228,309	116,227
346,289	4,790	228,077	116,263
347,304	4,741	227,983	116,167
348,319	4,670	227,841	116,032
349,333	4,595	227,629	115,857
350,348	4,430	227,310	115,561
351,362	4,378	227,171	115,441
352,377	4,165	226,940	115,154
353,392	3,832	226,725	114,787
354,406	4,077	226,822	115,008
355,421	194,848	1321,819	1396,212
356,435	156,183	1455,202	1396,192
