DTS Sentinel unit serial number:	SN410029Multiplexer serial number:	ORYXHardware model number:	OX2-SRSoftware version number:	ORYX F/W v4,00 Oryx Data Collector v3.7.2.0data status	okinstallation	B5 Nyhavnadifferential loss correction	single-endedforward channel	channel 2reverse channel	N/Adate	2023/12/13time	04:07:13forward acquisition time	300,00reverse acquisition time	0,00gamma	499,1914k internal	0,3159k external	0,3159temperature offset calibration	1,0000default loss term (dB/km)	0,3820temperature slope calibration	1,0000multiplexer offset coefficient	1,0000multiplexer slope coefficient	1,0000fibre end	0,00T internal ref (°C)	13,94T ext. ref 1 (°C)	-2,43T ext. ref 2 (°C)	-2,74length (m)	temperature (°C)	Stokes	anti-Stokes-744,400	-200,000	0,025	-0,166
-743,385	11,178	-0,199	-0,112
-742,371	-51,789	0,133	0,045
-741,356	-89,341	-0,337	0,073
-740,342	-200,000	0,001	0,013
-739,327	-126,115	-0,364	-0,040
-738,312	7,191	0,133	-0,073
-737,298	31,215	-0,166	0,105
-736,283	18,047	-0,035	0,021
-735,269	-78,984	-0,275	0,068
-734,254	-155,159	0,105	0,005
-733,239	-37,643	-0,472	-0,184
-732,225	75,688	0,181	0,141
-731,210	-200,000	-0,013	0,210
-730,196	-148,046	-0,162	0,010
-729,181	-115,895	-0,123	-0,017
-728,167	53,580	-0,030	0,021
-727,152	-79,254	-0,082	-0,020
-726,137	-37,325	-0,111	0,043
-725,123	122,594	0,060	0,055
-724,108	190,820	0,040	-0,044
-723,094	425,218	0,076	-0,122
-722,079	447,705	-0,042	0,068
-721,064	-123,195	0,081	-0,009
-720,050	14,627	0,038	0,022
-719,035	-35,088	0,062	0,025
-718,021	14,455	-0,065	-0,037
-717,006	-200,000	-0,027	0,147
-715,991	731,748	-0,047	-0,092
-714,977	-7,005	-0,076	-0,038
-713,962	-200,000	-0,013	-0,050
-712,948	-3,323	-0,051	-0,026
-711,933	800,000	0,028	-0,073
-710,918	-200,000	0,001	-0,023
-709,904	-200,000	-0,042	-0,171
-708,889	-107,698	-0,068	0,011
-707,875	-25,662	-0,084	-0,036
-706,860	-67,923	0,087	-0,025
-705,845	-200,000	0,017	0,125
-704,831	-14,981	0,033	-0,016
-703,816	18,188	-0,200	-0,117
-702,802	-200,000	0,004	-0,058
-701,787	259,082	-0,071	-0,091
-700,772	184,862	-0,062	0,068
-699,758	121,112	0,017	0,015
-698,743	259,310	-0,079	-0,100
-697,729	-200,000	-0,023	0,083
-696,714	-102,549	-0,133	0,023
-695,699	473,283	-0,038	0,063
-694,685	387,991	0,025	-0,039
-693,670	-200,000	-0,013	-0,184
-692,656	-81,761	-0,052	-0,012
-691,641	-74,378	0,101	-0,027
-690,627	189,290	0,043	-0,047
-689,612	-46,060	-0,087	-0,031
-688,597	-124,542	0,202	0,023
-687,583	355,045	-0,141	-0,207
-686,568	-59,229	-0,071	0,022
-685,554	379,553	-0,047	-0,071
-684,539	101,723	0,037	-0,032
-683,524	-2,234	0,049	0,025
-682,510	-129,510	-0,053	0,005
-681,495	800,000	-0,039	0,105
-680,481	800,000	0,003	-0,009
-679,466	-11,612	-0,201	-0,097
-678,451	249,342	0,095	-0,119
-677,437	-200,000	-0,006	-0,064
-676,422	-135,459	0,077	-0,007
-675,408	-72,727	0,012	-0,003
-674,393	-108,231	-0,077	0,012
-673,378	83,865	-0,161	-0,129
-672,364	-200,000	0,003	-0,025
-671,349	-66,850	-0,092	-0,027
-670,335	-112,595	-0,082	-0,012
-669,320	67,149	-0,096	0,072
-668,305	345,095	0,017	-0,024
-667,291	-200,000	0,013	-0,045
-666,276	800,000	-0,013	0,038
-665,262	238,775	-0,126	-0,154
-664,247	778,105	-0,027	-0,055
-663,232	555,898	-0,097	-0,172
-662,218	-200,000	0,034	-0,125
-661,203	17,427	-0,041	0,024
-660,189	-200,000	-0,013	-0,125
-659,174	-111,913	-0,133	-0,020
-658,159	-158,095	-0,078	0,003
-657,145	800,000	-0,051	-0,124
-656,130	-46,620	0,025	0,009
-655,116	-200,000	0,000	-0,070
-654,101	-111,469	-0,005	0,001
-653,086	-128,813	-0,099	-0,010
-652,072	-31,424	-0,150	-0,062
-651,057	-116,830	0,093	0,012
-650,043	-97,562	-0,187	-0,035
-649,028	-25,091	-0,087	0,038
-648,014	-107,545	0,083	-0,013
-646,999	19,770	-0,068	-0,040
-645,984	-200,000	-0,002	-0,078
-644,970	-117,480	-0,114	0,015
-643,955	287,899	-0,102	-0,136
-642,941	376,052	-0,112	-0,168
-641,926	-200,000	0,009	-0,034
-640,911	800,000	0,071	0,147
-639,897	-200,000	-0,005	-0,105
-638,882	226,168	0,105	0,125
-637,868	-123,492	0,025	0,003
-636,853	-200,000	-0,025	-0,105
-635,838	800,000	0,046	-0,105
-634,824	-76,657	-0,101	-0,026
-633,809	459,248	-0,039	-0,064
-632,795	-200,000	0,010	0,042
-631,780	-200,000	-0,007	0,093
-630,765	-200,000	0,006	0,096
-629,751	127,390	-0,098	-0,091
-628,736	-200,000	-0,010	-0,084
-627,722	-200,000	-0,012	0,123
-626,707	-159,986	0,143	0,006
-625,692	-141,234	0,105	0,008
-624,678	79,983	-0,057	-0,045
-623,663	118,631	-0,117	-0,106
-622,649	549,747	-0,060	-0,105
-621,634	-78,204	-0,192	-0,048
-620,619	534,215	0,028	0,048
-619,605	-200,000	0,010	0,056
-618,590	705,959	0,065	0,126
-617,576	223,157	-0,078	0,092
-616,561	-200,000	0,003	0,085
-615,546	-57,980	0,053	-0,017
-614,532	-200,000	-0,018	-0,166
-613,517	147,813	-0,108	-0,107
-612,503	325,542	0,031	0,043
-611,488	-200,000	-0,003	-0,030
-610,474	328,015	0,051	0,072
-609,459	-200,000	-0,007	0,040
-608,444	134,313	0,075	0,071
-607,430	-33,809	-0,192	-0,077
-606,415	184,992	0,041	0,045
-605,401	-200,000	-0,015	0,059
-604,386	197,381	-0,122	0,136
-603,371	82,983	0,134	0,107
-602,357	237,921	-0,073	0,089
-601,342	-200,000	-0,027	0,133
-600,328	800,000	0,028	-0,088
-599,313	339,928	0,061	0,087
-598,298	-12,868	-0,102	0,049
-597,284	271,747	0,061	-0,078
-596,269	469,212	-0,101	0,167
-595,255	-51,624	-0,060	-0,020
-594,240	254,992	-0,072	-0,091
-593,225	658,905	-0,038	-0,072
-592,211	-200,000	-0,045	-0,266
-591,196	393,979	-0,041	-0,063
-590,182	-146,964	-0,072	0,004
-589,167	783,129	0,078	0,157
-588,152	17,650	-0,088	0,051
-587,138	509,133	0,008	-0,013
-586,123	73,148	0,107	0,082
-585,109	-200,000	-0,009	-0,040
-584,094	-164,067	-0,068	0,002
-583,079	16,250	-0,026	-0,015
-582,065	66,967	0,014	0,010
-581,050	-56,785	0,032	-0,010
-580,036	447,745	-0,055	0,089
-579,021	780,695	0,045	-0,091
-578,006	800,000	0,037	-0,114
-576,992	-200,000	-0,002	-0,062
-575,977	76,786	-0,030	-0,024
-574,963	-200,000	0,026	0,107
-573,948	666,420	0,029	-0,054
-572,934	36,500	0,150	-0,097
-571,919	-163,174	0,053	0,002
-570,904	5,042	-0,067	-0,036
-569,890	126,222	0,120	-0,111
-568,875	-30,715	0,072	0,030
-567,861	800,000	-0,100	-0,221
-566,846	259,678	0,022	0,027
-565,831	240,912	-0,040	0,049
-564,817	-39,035	-0,155	-0,059
-563,802	142,340	-0,018	0,018
-562,788	-197,758	0,065	0,000
-561,773	-199,129	-0,084	-0,000
-560,758	113,572	-0,111	-0,098
-559,744	-55,573	-0,066	-0,021
-558,729	212,729	-0,038	0,044
-557,715	49,719	-0,086	0,059
-556,700	-168,073	-0,153	0,004
-555,685	-47,527	-0,035	0,012
-554,671	-125,512	0,162	0,018
-553,656	-200,000	-0,009	0,074
-552,642	-200,000	-0,003	0,166
-551,627	119,669	0,087	0,078
-550,612	800,000	0,052	-0,112
-549,598	370,110	-0,025	0,037
-548,583	-79,790	-0,131	-0,032
-547,569	800,000	-0,017	-0,041
-546,554	778,903	0,056	0,112
-545,539	-163,175	-0,013	0,000
-544,525	-139,719	0,104	-0,008
-543,510	333,192	0,006	-0,008
-542,496	-200,000	-0,009	-0,065
-541,481	-87,593	0,141	0,031
-540,466	-200,000	0,007	-0,089
-539,452	-63,407	-0,035	0,010
-538,437	702,122	-0,072	0,139
-537,423	-19,568	0,193	0,087
-536,408	457,633	0,014	0,023
-535,393	-37,754	0,091	-0,035
-534,379	-102,959	0,049	-0,008
-533,364	-200,000	-0,003	-0,063
-532,350	14,355	0,068	0,038
-531,335	-200,000	0,021	0,150
-530,321	-200,000	-0,015	0,092
-529,306	483,671	-0,023	0,039
-528,291	-5,490	-0,074	0,037
-527,277	236,885	0,052	0,063
-526,262	76,519	-0,060	0,046
-525,248	-66,882	0,116	-0,033
-524,233	425,642	-0,029	0,046
-523,218	-0,670	-0,168	-0,087
-522,204	34,791	0,121	0,077
-521,189	-200,000	-0,014	0,140
-520,175	-200,000	-0,021	-0,099
-519,160	266,116	-0,072	0,092
-518,145	-114,707	-0,100	-0,014
-517,131	-200,000	0,005	0,130
-516,116	799,157	0,069	0,139
-515,102	228,493	-0,048	0,058
-514,087	-200,000	-0,010	-0,102
-513,072	95,579	-0,095	-0,079
-512,058	-112,883	0,034	0,005
-511,043	-200,000	-0,009	0,089
-510,029	-84,814	0,072	-0,016
-509,014	56,310	0,070	-0,050
-507,999	800,000	-0,016	-0,052
-506,985	261,994	0,085	-0,108
-505,970	-40,932	0,136	0,051
-504,956	-200,000	-0,011	-0,039
-503,941	67,091	0,108	0,080
-502,926	-86,893	0,140	-0,031
-501,912	-28,669	-0,073	-0,031
-500,897	766,517	-0,047	-0,095
-499,883	-72,136	0,136	0,037
-498,868	-70,367	-0,038	-0,010
-497,853	-96,680	-0,060	0,011
-496,839	-200,000	-0,026	0,091
-495,824	800,000	-0,042	0,093
-494,810	298,677	-0,060	0,080
-493,795	75,519	-0,039	0,030
-492,781	286,215	-0,049	-0,065
-491,766	-200,000	-0,016	0,053
-490,751	-200,000	-0,022	0,194
-489,737	800,000	-0,048	-0,152
-488,722	-9,105	0,108	0,052
-487,708	58,375	0,071	0,051
-486,693	800,000	0,008	0,019
-485,678	84,840	0,051	0,041
-484,664	-45,464	-0,026	0,010
-483,649	-134,329	-0,065	-0,006
-482,635	30,771	0,057	0,036
-481,620	48,603	0,086	0,058
-480,605	800,000	-0,066	0,190
-479,591	-90,812	0,161	-0,034
-478,576	108,406	0,033	-0,029
-477,562	-200,000	0,026	-0,106
-476,547	73,737	0,165	-0,126
-475,532	-200,000	0,004	0,046
-474,518	800,000	-0,029	-0,080
-473,503	-20,848	0,005	0,002
-472,489	-78,905	0,061	0,015
-471,474	-36,991	-0,087	0,034
-470,459	113,502	-0,075	0,066
-469,445	-200,000	0,018	0,060
-468,430	-47,905	0,078	0,027
-467,416	-63,296	0,110	0,033
-466,401	89,952	0,051	-0,042
-465,386	438,131	0,055	0,088
-464,372	800,000	-0,015	0,042
-463,357	-200,000	-0,048	0,175
-462,343	57,268	-0,075	-0,053
-461,328	-5,874	-0,100	0,050
-460,313	-200,000	0,023	-0,079
-459,299	-200,000	-0,036	-0,127
-458,284	-200,000	-0,019	0,119
-457,270	-200,000	0,005	0,096
-456,255	-200,000	0,002	-0,014
-455,241	341,233	0,047	-0,067
-454,226	79,032	-0,060	-0,047
-453,211	-69,572	-0,064	-0,018
-452,197	3,476	0,075	-0,040
-451,182	355,411	-0,059	-0,086
-450,168	790,913	0,041	-0,082
-449,153	404,771	-0,058	-0,090
-448,138	-200,000	-0,012	-0,065
-447,124	-101,792	-0,041	0,007
-446,109	93,612	-0,033	-0,027
-445,095	-200,000	0,019	0,066
-444,080	-129,058	-0,112	0,011
-443,065	19,111	0,052	0,030
-442,051	-200,000	-0,012	-0,073
-441,036	-97,952	-0,133	0,025
-440,022	102,085	0,007	-0,006
-439,007	-51,170	0,105	0,035
-437,992	533,423	-0,057	0,099
-436,978	-51,639	-0,132	-0,044
-435,963	-116,841	0,030	0,004
-434,949	83,608	0,087	-0,069
-433,934	481,916	-0,006	-0,009
-432,919	-200,000	-0,001	-0,040
-431,905	-84,067	-0,041	0,010
-430,890	800,000	0,047	0,139
-429,876	-134,500	0,075	0,007
-428,861	61,797	-0,078	-0,056
-427,846	-200,000	0,016	0,114
-426,832	800,000	-0,028	0,074
-425,817	-200,000	-0,029	-0,124
-424,803	-200,000	-0,001	0,035
-423,788	88,740	0,052	0,042
-422,773	-47,952	-0,084	0,029
-421,759	595,128	0,011	-0,020
-420,744	-148,820	-0,114	-0,007
-419,730	39,983	-0,141	-0,092
-418,715	-200,000	-0,027	-0,110
-417,701	-200,000	-0,007	0,080
-416,686	-79,392	0,114	0,028
-415,671	-50,040	0,120	-0,041
-414,657	603,051	-0,058	0,104
-413,642	-200,000	0,057	0,248
-412,628	373,837	0,029	0,044
-411,613	89,509	0,017	0,014
-410,598	800,000	-0,019	-0,043
-409,584	156,171	0,077	0,077
-408,569	99,641	0,074	-0,062
-407,555	-21,919	0,064	-0,028
-406,540	-81,405	-0,085	-0,020
-405,525	-187,893	-0,012	0,000
-404,511	800,000	0,032	-0,096
-403,496	-18,502	-0,042	-0,019
-402,482	486,955	-0,064	-0,106
-401,467	-61,226	0,099	-0,030
-400,452	-200,000	-0,014	-0,145
-399,438	-200,000	-0,024	-0,087
-398,423	127,911	-0,051	0,048
-397,409	-200,000	-0,009	0,046
-396,394	-200,000	0,002	-0,045
-395,379	120,061	0,111	0,100
-394,365	25,322	0,092	0,056
-393,350	-200,000	0,016	-0,069
-392,336	209,894	-0,106	-0,121
-391,321	-60,306	-0,151	0,047
-390,306	202,089	-0,054	0,060
-389,292	800,000	0,044	0,099
-388,277	-79,448	0,181	0,044
-387,263	158,973	0,109	0,111
-386,248	-55,508	0,070	0,023
-385,233	516,265	0,034	0,058
-384,219	-41,083	0,054	0,020
-383,204	800,000	-0,016	-0,051
-382,190	-200,000	-0,014	-0,072
-381,175	-200,000	-0,016	-0,103
-380,160	-129,840	0,177	0,017
-379,146	68,664	0,074	-0,055
-378,131	119,838	0,036	-0,032
-377,117	800,000	-0,026	0,056
-376,102	-37,641	0,133	-0,051
-375,088	800,000	-0,040	-0,095
-374,073	466,483	0,024	-0,039
-373,058	800,000	0,005	-0,017
-372,044	87,606	0,046	0,037
-371,029	-200,000	-0,002	-0,089
-370,015	-66,947	-0,094	-0,027
-369,000	-36,495	0,079	0,031
-367,985	-200,000	0,008	-0,113
-366,971	800,000	0,042	-0,086
-365,956	511,856	-0,079	0,134
-364,942	-144,992	-0,027	0,002
-363,927	-200,000	0,027	0,108
-362,912	-200,000	0,005	-0,030
-361,898	-200,000	-0,004	0,057
-360,883	187,490	0,014	0,015
-359,869	40,549	-0,023	-0,015
-358,854	800,000	0,071	-0,146
-357,839	-200,000	0,033	-0,111
-356,825	-21,172	0,054	-0,024
-355,810	-200,000	-0,007	0,048
-354,796	-200,000	-0,039	-0,180
-353,781	-30,020	-0,031	0,013
-352,766	249,737	-0,070	0,086
-351,752	384,327	-0,051	0,076
-350,737	35,820	-0,043	-0,027
-349,723	-81,291	0,091	0,022
-348,708	800,000	-0,049	0,101
-347,693	800,000	0,038	-0,115
-346,679	-121,076	-0,071	-0,009
-345,664	37,841	-0,089	0,057
-344,650	18,527	-0,017	0,010
-343,635	122,630	0,113	-0,103
-342,620	333,124	-0,059	-0,083
-341,606	30,227	0,126	-0,078
-340,591	800,000	0,037	-0,076
-339,577	355,251	-0,031	-0,045
-338,562	-88,408	-0,110	0,024
-337,548	-63,036	-0,024	-0,007
-336,533	-77,771	-0,043	-0,011
-335,518	-200,000	0,016	0,057
-334,504	-41,654	0,146	0,054
-333,489	398,329	0,016	0,025
-332,475	-30,089	-0,112	-0,046
-331,460	-14,365	0,122	-0,057
-330,445	0,089	0,085	0,044
-329,431	318,498	-0,035	0,049
-328,416	-26,542	0,128	0,054
-327,402	-200,000	0,040	0,131
-326,387	-100,914	-0,131	-0,023
-325,372	800,000	0,046	0,100
-324,358	540,599	-0,049	-0,085
-323,343	800,000	-0,054	-0,125
-322,329	-200,000	-0,020	-0,100
-321,314	-200,000	-0,016	0,107
-320,299	-72,342	0,097	0,026
-319,285	-136,461	-0,179	0,015
-318,270	349,794	-0,017	0,025
-317,256	485,562	0,012	-0,020
-316,241	-15,416	0,055	0,025
-315,226	44,927	-0,193	0,128
-314,212	174,590	0,090	0,094
-313,197	-63,785	0,175	0,051
-312,183	-68,308	0,030	-0,008
-311,168	251,746	-0,070	0,086
-310,153	-200,000	-0,012	-0,117
-309,139	327,208	-0,106	-0,148
-308,124	-200,000	0,002	-0,043
-307,110	-200,000	0,017	0,212
-306,095	35,316	0,083	-0,053
-305,080	-1,043	-0,054	0,027
-304,066	-200,000	-0,016	0,070
-303,051	229,287	0,069	-0,082
-302,037	-200,000	-0,015	-0,071
-301,022	455,167	0,092	-0,148
-300,008	800,000	-0,056	0,129
-298,993	49,106	0,068	0,046
-297,978	177,954	-0,004	-0,004
-296,964	206,529	-0,068	-0,076
-295,949	387,224	-0,063	-0,094
-294,935	498,100	0,009	-0,016
-293,920	-114,432	-0,083	-0,011
-292,905	99,494	0,018	-0,015
-291,891	-133,981	0,104	-0,009
-290,876	-158,283	-0,067	0,003
-289,862	274,260	-0,024	-0,031
-288,847	800,000	0,082	-0,182
-287,832	-19,941	-0,124	-0,055
-286,818	-200,000	0,018	0,070
-285,803	-8,674	0,085	0,041
-284,789	320,501	-0,062	-0,085
-283,774	-200,000	0,024	0,201
-282,759	147,447	-0,048	-0,047
-281,745	205,979	-0,026	-0,030
-280,730	-49,780	0,035	0,012
-279,716	59,791	-0,109	-0,078
-278,701	800,000	0,045	0,143
-277,686	-200,000	0,002	0,010
-276,672	447,652	0,090	0,145
-275,657	216,540	0,053	0,061
-274,643	44,346	-0,098	-0,065
-273,628	800,000	0,031	-0,064
-272,613	479,313	-0,057	0,094
-271,599	84,317	0,050	-0,039
-270,584	-200,000	0,008	0,139
-269,570	-118,943	0,062	0,008
-268,555	344,729	-0,064	0,091
-267,540	-200,000	0,022	0,078
-266,526	800,000	-0,034	-0,108
-265,511	-200,000	-0,021	-0,120
-264,497	-23,357	0,175	-0,076
-263,482	-126,638	0,116	-0,012
-262,467	-105,676	-0,137	0,022
-261,453	153,286	-0,087	0,086
-260,438	-163,957	-0,159	0,005
-259,424	800,000	0,035	-0,110
-258,409	-105,861	-0,024	0,004
-257,395	-200,000	0,005	0,137
-256,380	69,125	0,123	0,091
-255,365	-200,000	-0,015	0,085
-254,351	12,904	0,057	0,032
-253,336	-72,330	0,073	-0,019
-252,322	800,000	0,038	-0,111
-251,307	800,000	0,025	0,073
-250,292	-200,000	0,006	-0,082
-249,278	-200,000	-0,010	0,104
-248,263	-200,000	0,000	0,038
-247,249	-200,000	-0,025	0,096
-246,234	-200,000	0,002	0,055
-245,219	-102,319	-0,023	0,004
-244,205	-200,000	-0,005	0,023
-243,190	121,547	-0,051	-0,046
-242,176	-77,782	-0,140	0,035
-241,161	-40,502	0,071	0,027
-240,146	-23,551	0,036	-0,016
-239,132	30,256	-0,062	-0,038
-238,117	20,677	-0,089	0,052
-237,103	45,084	0,126	-0,084
-236,088	425,045	0,038	0,060
-235,073	24,487	0,053	0,031
-234,059	800,000	0,014	-0,028
-233,044	-6,813	-0,050	0,024
-232,030	140,611	0,029	-0,027
-231,015	232,790	0,055	-0,066
-230,000	-72,658	-0,069	0,018
-228,986	-17,031	-0,053	-0,024
-227,971	41,868	-0,038	-0,025
-226,957	800,000	-0,019	0,049
-225,942	-200,000	-0,028	-0,096
-224,927	-80,644	-0,128	0,030
-223,913	800,000	-0,040	-0,112
-222,898	800,000	-0,007	-0,020
-221,884	-200,000	0,006	-0,041
-220,869	33,469	-0,046	-0,029
-219,855	160,876	0,058	-0,058
-218,840	126,185	0,162	-0,148
-217,825	800,000	0,036	-0,081
-216,811	-200,000	-0,021	0,068
-215,796	184,017	0,074	-0,080
-214,782	182,821	-0,095	-0,101
-213,767	262,849	0,004	0,005
-212,752	190,334	-0,070	-0,076
-211,738	-200,000	0,023	0,099
-210,723	735,184	0,029	-0,056
-209,709	-90,826	-0,057	0,012
-208,694	-11,107	-0,115	-0,054
-207,679	89,163	-0,012	0,010
-206,665	-34,933	0,150	0,059
-205,650	4,672	0,078	0,041
-204,636	192,793	0,092	-0,100
-203,621	10,957	0,064	0,035
-202,606	130,280	-0,070	-0,064
-201,592	70,439	0,083	0,062
-200,577	49,868	-0,047	0,032
-199,563	-200,000	-0,003	-0,109
-198,548	-107,921	0,154	0,024
-197,533	-47,461	-0,089	0,031
-196,519	-200,000	0,016	0,103
-195,504	-69,780	0,061	-0,017
-194,490	163,445	-0,080	-0,081
-193,475	156,509	-0,089	0,088
-192,460	800,000	-0,046	-0,113
-191,446	-200,000	0,003	0,158
-190,431	-92,164	-0,027	0,005
-189,417	217,280	0,065	0,074
-188,402	101,680	0,075	-0,063
-187,387	18,633	-0,127	0,073
-186,373	47,494	0,037	-0,025
-185,358	6,806	0,078	0,042
-184,344	-16,421	-0,104	0,047
-183,329	298,809	0,054	0,072
-182,315	-119,908	-0,030	0,004
-181,300	-138,060	-0,039	0,003
-180,285	373,125	-0,098	0,144
-179,271	-200,000	-0,008	-0,063
-178,256	800,000	0,049	0,102
-177,242	47,228	0,008	0,006
-176,227	-200,000	-0,011	0,048
-175,212	800,000	0,022	-0,053
-174,198	40,331	-0,065	-0,042
-173,183	194,973	0,098	-0,108
-172,169	203,122	0,021	-0,024
-171,154	800,000	0,025	-0,069
-170,139	-200,000	0,016	-0,077
-169,125	349,826	0,093	0,132
-168,110	-192,594	0,117	0,001
-167,096	-82,207	-0,143	-0,033
-166,081	-67,257	-0,029	-0,008
-165,066	-200,000	-0,007	-0,163
-164,052	800,000	-0,040	-0,087
-163,037	157,753	-0,084	-0,084
-162,023	800,000	0,053	-0,120
-161,008	-5,547	0,133	-0,065
-159,993	-200,000	0,018	0,063
-158,979	-27,471	-0,063	-0,026
-157,964	5,903	-0,028	0,015
-156,950	-54,428	-0,123	-0,040
-155,935	65,232	0,162	-0,118
-154,920	-17,804	0,053	0,024
-153,906	24,543	-0,098	0,058
-152,891	-200,000	0,015	-0,078
-151,877	-87,679	0,135	-0,029
-150,862	-137,740	-0,124	-0,010
-149,847	43,503	0,039	0,025
-148,833	800,000	-0,017	-0,039
-147,818	280,701	-0,111	-0,143
-146,804	-15,218	-0,027	0,012
-145,789	94,920	-0,059	0,049
-144,775	-124,538	0,104	0,012
-143,760	-200,000	-0,018	-0,076
-142,745	410,226	-0,067	-0,103
-141,731	-200,000	-0,007	0,127
-140,716	800,000	-0,084	-0,197
-139,702	-39,391	0,064	0,024
-138,687	-200,000	0,002	0,015
-137,672	-176,669	-0,156	0,003
-136,658	-151,889	-0,070	0,004
-135,643	182,408	0,043	-0,046
-134,629	-64,896	-0,105	-0,030
-133,614	-162,458	0,056	-0,002
-132,599	719,074	-0,039	-0,075
-131,585	90,228	-0,051	0,041
-130,570	-179,338	0,031	-0,000
-129,556	320,608	-0,026	-0,036
-128,541	2,394	0,041	-0,021
-127,526	-200,000	0,006	-0,024
-126,512	-200,000	0,018	0,104
-125,497	516,488	0,027	0,046
-124,483	100,992	-0,059	0,049
-123,468	677,739	0,046	0,086
-122,453	-81,672	0,058	0,014
-121,439	-200,000	-0,026	-0,098
-120,424	-53,760	-0,116	0,038
-119,410	-120,669	0,151	-0,018
-118,395	800,000	0,100	0,208
-117,380	65,500	-0,195	-0,141
-116,366	430,837	-0,037	-0,057
-115,351	800,000	0,026	0,070
-114,337	-160,092	0,187	-0,007
-113,322	-161,965	0,133	-0,005
-112,307	-36,611	0,108	-0,042
-111,293	35,186	0,036	0,023
-110,278	240,298	-0,040	-0,048
-109,264	107,074	0,076	0,065
-108,249	-200,000	-0,015	-0,065
-107,234	-200,000	0,007	0,024
-106,220	-154,249	-0,083	0,004
-105,205	800,000	-0,016	0,040
-104,191	-69,735	0,102	0,028
-103,176	137,857	-0,048	0,045
-102,162	-20,366	-0,108	-0,047
-101,147	62,724	0,147	0,106
-100,132	800,000	0,037	-0,077
-99,118	-138,262	0,168	-0,013
-98,103	-71,692	0,095	-0,025
-97,089	800,000	-0,013	-0,036
-96,074	-152,036	0,064	0,003
-95,059	-154,052	0,176	-0,008
-94,045	-151,102	0,117	-0,006
-93,030	256,429	-0,021	0,026
-92,016	-200,000	0,004	0,058
-91,001	9,032	-0,014	0,007
-89,986	-200,000	-0,010	0,179
-88,972	179,643	-0,033	0,035
-87,957	105,374	-0,007	-0,006
-86,943	144,734	-0,032	0,031
-85,928	-51,791	0,164	0,055
-84,913	4,656	0,119	-0,063
-83,899	279,010	-0,098	0,126
-82,884	-185,741	-0,051	-0,001
-81,870	-111,768	0,105	-0,015
-80,855	-54,569	-0,153	0,049
-79,840	-200,000	0,020	0,122
-78,826	250,939	0,042	-0,051
-77,811	-56,817	0,049	-0,015
-76,797	480,618	-0,010	-0,017
-75,782	-32,757	0,156	0,062
-74,767	-56,483	0,095	-0,030
-73,753	132,658	0,043	-0,039
-72,738	140,269	-0,047	-0,044
-71,724	-94,472	-0,038	0,007
-70,709	155,061	-0,016	-0,016
-69,694	522,023	-0,063	-0,107
-68,680	99,318	0,013	0,011
-67,665	-200,000	0,018	-0,183
-66,651	38,799	-0,146	0,093
-65,636	-103,685	-0,161	0,027
-64,622	-16,109	-0,092	0,042
-63,607	-200,000	0,006	-0,185
-62,592	48,955	0,047	0,032
-61,578	190,839	-0,008	-0,009
-60,563	800,000	0,061	-0,134
-59,549	618,208	0,040	0,073
-58,534	-1,930	-2,145	-1,079
-57,519	-200,000	-0,143	-0,831
-56,505	-200,000	-1,248	-5,002
-55,490	69,834	0,845	0,624
-54,476	800,000	5,324	11,920
-53,461	-200,000	18,519	311,827
-52,446	800,000	740,036	2319,513
-51,432	556,677	1656,223	2873,916
-50,417	110,681	1640,172	1414,686
-49,403	75,030	1289,809	973,745
-48,388	30,514	1030,783	630,654
-47,373	19,987	993,213	572,810
-46,359	17,577	980,909	557,762
-45,344	14,289	977,142	544,791
-44,330	14,652	975,479	545,036
-43,315	14,036	973,602	541,945
-42,300	13,920	972,615	540,994
-41,286	13,952	971,768	540,606
-40,271	13,941	970,733	539,972
-39,257	13,936	969,942	539,497
-38,242	14,005	968,903	539,121
-37,227	13,990	968,171	538,644
-36,213	13,931	967,167	537,873
-35,198	13,939	966,319	537,406
-34,184	14,016	965,412	537,130
-33,169	13,913	964,616	536,331
-32,154	13,988	963,525	535,945
-31,140	13,962	962,721	535,392
-30,125	13,964	962,063	535,012
-29,111	13,963	961,224	534,520
-28,096	13,987	960,571	534,214
-27,082	13,975	959,896	533,778
-26,067	13,984	959,079	533,333
-25,052	13,917	958,327	532,678
-24,038	13,947	957,708	532,409
-23,023	13,925	957,218	532,044
-22,009	14,030	956,260	531,828
-20,994	14,009	955,584	531,364
-19,979	13,983	955,070	530,973
-18,965	13,983	954,500	530,636
-17,950	14,025	953,861	530,396
-16,936	13,945	953,198	529,747
-15,921	13,921	952,600	529,317
-14,906	13,894	951,721	528,723
-13,892	13,881	951,206	528,374
-12,877	13,836	950,517	527,827
-11,863	13,846	949,860	527,471
-10,848	13,787	949,454	527,038
-9,833	13,943	948,696	527,093
-8,819	13,892	948,236	526,655
-7,804	13,881	947,546	526,214
-6,790	13,871	946,946	525,830
-5,775	13,948	946,432	525,768
-4,760	13,888	945,799	525,205
-3,746	13,976	945,072	525,059
-2,731	13,653	944,797	523,859
-1,717	13,672	943,999	523,457
-0,702	13,679	943,223	523,026
0,313	13,538	942,562	523,005
1,327	16,682	940,217	531,603
2,342	25,587	795,442	473,399
3,356	22,061	460,284	268,495
4,371	-4,639	317,107	156,334
5,386	-8,638	299,026	143,322
6,400	-10,493	292,796	138,465
7,415	-11,105	290,557	136,785
8,429	-11,302	288,852	135,776
9,444	-11,383	288,109	135,335
10,459	-11,218	287,401	135,152
11,473	-11,338	286,731	134,708
12,488	-11,125	286,197	134,653
13,502	-11,216	285,697	134,317
14,517	-11,217	285,294	134,115
15,531	-11,331	284,926	133,818
16,546	-11,201	284,540	133,752
17,561	-11,145	284,062	133,569
18,575	-11,181	283,608	133,309
19,590	-11,280	283,266	133,041
20,604	-11,128	283,075	133,087
21,619	-11,207	282,586	132,768
22,634	-11,210	282,289	132,614
23,648	-11,320	282,037	132,377
24,663	-11,130	281,526	132,309
25,677	-11,354	281,621	132,126
26,692	-11,296	281,093	131,922
27,707	-11,128	280,929	131,995
28,721	-11,256	280,751	131,777
29,736	-11,149	280,335	131,672
30,750	-11,317	280,098	131,388
31,765	-11,279	279,698	131,225
32,780	-11,186	279,594	131,254
33,794	-11,256	279,312	131,042
34,809	-11,267	278,973	130,861
35,823	-11,121	278,770	130,894
36,838	-11,311	278,697	130,667
37,853	-11,352	278,261	130,412
38,867	-11,160	277,938	130,431
39,882	-11,180	277,704	130,291
40,896	-11,361	277,466	129,995
41,911	-11,232	277,267	130,013
42,926	-11,200	277,036	129,924
43,940	-11,226	276,695	129,728
44,955	-11,232	276,469	129,604
45,969	-11,271	276,296	129,475
46,984	-11,422	276,126	129,242
47,999	-11,713	275,716	128,765
49,013	-11,787	275,632	128,644
50,028	-11,896	275,346	128,397
51,042	-11,835	274,978	128,271
52,057	-12,048	274,805	127,980
53,071	-11,815	274,432	128,012
54,086	-11,765	274,297	127,984
55,101	-11,613	274,194	128,067
56,115	-11,424	274,047	128,163
57,130	-11,328	273,984	128,212
58,144	-11,067	273,661	128,293
59,159	-11,012	273,418	128,219
60,174	-11,104	273,302	128,067
61,188	-10,917	272,958	128,069
62,203	-11,310	272,866	127,649
63,217	-11,040	272,446	127,692
64,232	-11,087	272,336	127,585
65,247	-10,927	272,026	127,577
66,261	-11,039	271,762	127,338
67,276	-11,193	271,600	127,108
68,290	-11,512	271,266	126,646
69,305	-11,425	271,115	126,644
70,320	-11,518	270,932	126,462
71,334	-11,268	270,824	126,631
72,349	-11,050	270,460	126,650
73,363	-11,127	270,351	126,516
74,378	-11,142	270,167	126,405
75,393	-11,099	269,782	126,254
76,407	-11,115	269,675	126,177
77,422	-11,227	269,402	125,935
78,436	-11,281	269,334	125,843
79,451	-11,124	268,925	125,785
80,466	-11,244	268,676	125,547
81,480	-11,359	268,493	125,345
82,495	-11,383	268,236	125,192
83,509	-11,135	267,970	125,284
84,524	-11,363	267,818	124,994
85,539	-11,437	267,499	124,766
86,553	-11,384	267,282	124,702
87,568	-11,103	267,185	124,901
88,582	-11,339	267,058	124,616
89,597	-11,319	266,823	124,514
90,611	-11,248	266,669	124,495
91,626	-10,962	266,408	124,621
92,641	-11,185	266,322	124,368
93,655	-11,189	265,985	124,195
94,670	-11,165	265,715	124,080
95,684	-11,340	265,647	123,879
96,699	-11,166	265,476	123,946
97,714	-11,104	265,037	123,786
98,728	-11,283	264,879	123,539
99,743	-11,445	264,630	123,266
100,757	-11,533	264,447	123,092
101,772	-11,505	264,342	123,056
102,787	-11,343	264,134	123,094
103,801	-11,347	264,019	123,026
104,816	-11,247	263,959	123,076
105,830	-11,213	263,691	122,971
106,845	-11,112	263,632	123,023
107,860	-11,030	263,193	122,880
108,874	-11,221	263,118	122,664
109,889	-11,073	262,732	122,605
110,903	-11,289	262,712	122,392
111,918	-11,388	262,312	122,107
112,933	-11,201	262,233	122,225
113,947	-11,225	262,064	122,114
114,962	-11,097	261,859	122,122
115,976	-11,086	261,715	122,053
116,991	-11,200	261,545	121,863
118,006	-11,129	261,264	121,783
119,020	-11,248	261,176	121,626
120,035	-11,171	261,120	121,657
121,049	-11,011	260,672	121,579
122,064	-11,242	260,731	121,392
123,079	-11,063	260,364	121,368
124,093	-10,960	260,047	121,300
125,108	-11,375	259,904	120,857
126,122	-11,320	259,512	120,713
127,137	-11,602	259,425	120,414
128,151	-11,319	259,178	120,537
129,166	-11,300	259,040	120,478
130,181	-11,301	258,745	120,330
131,195	-11,419	258,693	120,191
132,210	-11,414	258,617	120,149
133,224	-11,107	258,279	120,250
134,239	-11,150	258,252	120,189
135,254	-11,212	257,872	119,947
136,268	-11,394	257,709	119,703
137,283	-11,387	257,488	119,595
138,297	-11,517	257,287	119,378
139,312	-11,804	257,069	119,017
140,327	-11,334	256,952	119,360
141,341	-11,035	256,972	119,619
142,356	-10,878	256,596	119,570
143,370	-10,970	256,533	119,450
144,385	-11,057	256,330	119,269
145,400	-10,790	256,036	119,352
146,414	-11,021	255,915	119,086
147,429	-10,973	255,788	119,057
148,443	-11,108	255,603	118,845
149,458	-10,921	255,496	118,946
150,473	-10,923	255,320	118,851
151,487	-11,264	255,103	118,445
152,502	-10,904	254,822	118,614
153,516	-10,908	254,696	118,541
154,531	-10,991	254,576	118,404
155,546	-10,938	254,382	118,349
156,560	-11,077	254,203	118,135
157,575	-11,198	253,893	117,877
158,589	-11,207	253,657	117,749
159,604	-11,103	253,464	117,738
160,619	-10,997	253,259	117,723
161,633	-10,931	252,989	117,643
162,648	-10,951	253,100	117,667
163,662	-10,977	252,928	117,555
164,677	-11,022	252,765	117,431
165,692	-10,867	252,309	117,340
166,706	-10,879	252,262	117,297
167,721	-11,011	252,209	117,150
168,735	-10,903	252,088	117,175
169,750	-10,949	251,959	117,066
170,764	-10,890	251,704	116,987
171,779	-11,038	251,673	116,836
172,794	-10,862	251,361	116,831
173,808	-10,961	251,206	116,664
174,823	-11,350	250,767	116,121
175,837	-11,335	250,578	116,036
176,852	-11,193	250,638	116,173
177,867	-10,815	250,411	116,377
178,881	-10,868	250,294	116,267
179,896	-10,849	250,117	116,190
180,910	-10,929	250,143	116,124
181,925	-10,910	249,870	116,003
182,940	-10,938	249,614	115,851
183,954	-10,862	249,473	115,839
184,969	-10,811	249,325	115,803
185,983	-10,932	249,138	115,603
186,998	-10,943	248,987	115,515
188,013	-10,774	248,794	115,556
189,027	-10,946	248,692	115,355
190,042	-10,815	248,290	115,268
191,056	-10,791	248,141	115,208
192,071	-10,956	248,159	115,068
193,086	-10,892	247,808	114,948
194,100	-10,997	247,764	114,830
195,115	-10,878	247,548	114,819
196,129	-10,953	247,281	114,623
197,144	-10,736	247,022	114,672
198,159	-10,814	246,773	114,482
199,173	-10,971	246,729	114,321
200,188	-11,073	246,649	114,190
201,202	-11,297	246,309	113,836
202,217	-11,540	246,035	113,498
203,232	-11,539	245,921	113,436
204,246	-11,266	246,111	113,740
205,261	-10,801	245,606	113,880
206,275	-11,868	245,350	112,871
207,290	-7,918	246,821	116,815
208,304	0,367	249,453	124,975
209,319	4,247	250,661	128,815
210,334	4,670	250,670	129,162
211,348	4,631	250,516	129,039
212,363	5,223	250,262	129,390
213,377	5,127	250,273	129,304
214,392	4,944	250,227	129,116
215,407	4,921	249,947	128,941
216,421	4,634	249,775	128,602
217,436	4,921	249,648	128,764
218,450	5,100	249,446	128,797
219,465	4,889	249,302	128,536
220,480	4,710	248,994	128,218
221,494	4,560	248,907	128,037
222,509	4,758	248,775	128,122
223,523	4,604	248,619	127,903
224,538	4,268	248,147	127,370
225,553	4,330	248,081	127,376
226,567	4,621	247,925	127,526
227,582	4,539	247,762	127,362
228,596	4,431	247,716	127,238
229,611	4,187	247,351	126,839
230,626	4,368	247,249	126,924
231,640	4,262	247,030	126,713
232,655	4,480	247,006	126,868
233,669	4,588	246,709	126,794
234,684	4,202	246,459	126,337
235,699	4,435	246,514	126,545
236,713	4,762	246,374	126,730
237,728	4,275	246,136	126,198
238,742	4,375	245,934	126,165
239,757	4,245	245,664	125,909
240,772	4,319	245,432	125,839
241,786	4,434	245,398	125,904
242,801	4,412	245,272	125,810
243,815	4,292	245,200	125,664
244,830	4,440	245,049	125,696
245,844	4,488	244,798	125,596
246,859	4,293	244,716	125,383
247,874	4,262	244,375	125,172
248,888	4,351	244,322	125,206
249,903	4,540	244,152	125,261
250,917	4,537	244,055	125,198
251,932	4,661	243,891	125,203
252,947	4,566	243,934	125,137
253,961	4,507	243,513	124,862
254,976	4,494	243,454	124,810
255,990	4,452	243,337	124,705
257,005	4,241	243,035	124,369
258,020	4,186	242,828	124,207
259,034	4,387	242,881	124,386
260,049	4,404	242,696	124,293
261,063	4,475	242,478	124,228
262,078	4,281	242,273	123,956
263,093	4,470	242,165	124,042
264,107	4,687	242,091	124,167
265,122	4,346	241,791	123,728
266,136	4,664	241,713	123,932
267,151	4,606	241,611	123,822
268,166	4,305	241,386	123,455
269,180	4,137	241,213	123,221
270,195	4,794	241,290	123,776
271,209	4,958	241,206	123,852
272,224	4,612	240,758	123,335
273,239	4,083	240,628	122,836
274,253	4,114	240,449	122,758
275,268	4,293	240,460	122,895
276,282	4,537	240,157	122,923
277,297	4,147	239,828	122,434
278,312	4,066	239,948	122,420
279,326	4,205	239,810	122,450
280,341	4,229	239,579	122,340
281,355	4,196	239,486	122,255
282,370	4,422	239,347	122,352
283,384	4,501	239,098	122,277
284,399	4,301	238,962	122,038
285,414	3,992	238,819	121,710
286,428	4,146	238,543	121,680
287,443	4,222	238,519	121,716
288,457	4,640	238,340	121,944
289,472	4,676	238,280	121,931
290,487	4,267	237,984	121,447
291,501	4,122	237,790	121,223
292,516	3,931	237,739	121,035
293,530	4,151	237,538	121,095
294,545	4,346	237,542	121,240
295,560	4,346	237,315	121,113
296,574	3,992	237,081	120,705
297,589	4,145	236,930	120,738
298,603	4,551	236,891	121,025
299,618	4,685	236,720	121,032
300,633	4,429	236,594	120,757
301,647	4,650	236,390	120,814
302,662	4,816	236,428	120,953
303,676	4,739	236,311	120,822
304,691	4,814	236,103	120,763
305,706	4,877	235,977	120,738
306,720	4,847	235,626	120,523
307,735	4,751	235,641	120,446
308,749	4,521	235,451	120,159
309,764	4,525	235,108	119,976
310,779	4,290	234,913	119,683
311,793	3,855	234,646	119,200
312,808	4,189	234,589	119,419
313,822	4,018	234,476	119,219
314,837	3,988	234,425	119,159
315,852	3,945	234,247	119,024
316,866	4,184	234,253	119,202
317,881	4,494	234,021	119,312
318,895	4,279	233,842	119,045
319,910	4,424	233,712	119,080
320,925	4,613	233,569	119,142
321,939	4,275	233,563	118,867
322,954	4,546	233,380	118,973
323,968	4,661	233,154	118,935
324,983	4,438	233,023	118,686
325,997	4,596	233,099	118,836
327,012	4,613	232,839	118,706
328,027	4,434	232,665	118,469
329,041	4,569	232,610	118,535
330,056	5,077	232,610	118,914
331,070	5,061	232,371	118,768
332,085	5,057	232,041	118,586
333,100	4,784	231,880	118,284
334,114	4,421	231,828	117,970
335,129	4,800	231,587	118,126
336,143	4,896	231,588	118,189
337,158	4,796	231,364	117,988
338,173	4,408	231,282	117,640
339,187	4,388	231,037	117,490
340,202	4,483	230,852	117,457
341,216	4,404	230,607	117,262
342,231	4,408	230,546	117,224
343,246	4,369	230,491	117,156
344,260	4,634	230,247	117,222
345,275	4,596	230,322	117,222
346,289	4,854	230,031	117,258
347,304	4,868	229,924	117,204
348,319	4,868	229,745	117,102
349,333	4,692	229,456	116,811
350,348	4,573	229,295	116,629
351,362	4,584	229,151	116,554
352,377	4,387	228,947	116,291
353,392	4,129	228,709	115,966
354,406	4,319	228,853	116,171
355,421	195,580	1319,815	1395,833
356,435	156,873	1452,702	1395,809
