DTS Sentinel unit serial number:	SN410029Multiplexer serial number:	ORYXHardware model number:	OX2-SRSoftware version number:	ORYX F/W v4,00 Oryx Data Collector v3.7.2.0data status	okinstallation	B5 Nyhavnadifferential loss correction	single-endedforward channel	channel 2reverse channel	N/Adate	2023/12/14time	03:22:13forward acquisition time	300,00reverse acquisition time	0,00gamma	499,1914k internal	0,3155k external	0,3155temperature offset calibration	1,0000default loss term (dB/km)	0,3820temperature slope calibration	1,0000multiplexer offset coefficient	1,0000multiplexer slope coefficient	1,0000fibre end	0,00T internal ref (°C)	8,24T ext. ref 1 (°C)	-8,16T ext. ref 2 (°C)	-8,23length (m)	temperature (°C)	Stokes	anti-Stokes-744,400	-41,851	0,079	0,030
-743,385	-93,938	-0,406	-0,082
-742,371	312,328	0,078	0,108
-741,356	-164,080	-0,416	-0,014
-740,342	346,042	0,124	0,180
-739,327	-101,704	-0,446	-0,079
-738,312	87,086	0,113	0,092
-737,298	-155,067	-0,254	0,012
-736,283	-12,833	0,247	0,118
-735,269	-168,521	-0,321	-0,009
-734,254	85,183	0,158	0,128
-733,239	6,853	-0,581	-0,318
-732,225	135,485	0,199	0,191
-731,210	31,032	0,054	0,034
-730,196	191,634	-0,046	-0,051
-729,181	641,551	-0,026	-0,050
-728,167	-52,529	0,033	0,011
-727,152	147,876	0,054	0,054
-726,137	130,376	0,020	-0,018
-725,123	800,000	-0,025	-0,078
-724,108	-200,000	-0,126	-0,000
-723,094	800,000	-0,089	-0,249
-722,079	44,672	0,147	-0,099
-721,064	-88,106	-0,109	0,024
-720,050	-87,485	-0,049	-0,011
-719,035	306,602	0,008	-0,011
-718,021	-147,862	-0,059	-0,004
-717,006	-200,000	-0,015	0,057
-715,991	-200,000	0,006	-0,129
-714,977	-150,066	-0,140	0,008
-713,962	-66,935	-0,103	-0,030
-712,948	156,252	-0,072	0,073
-711,933	-200,000	-0,015	0,074
-710,918	203,190	-0,022	-0,025
-709,904	-200,000	-0,005	-0,073
-708,889	-136,081	-0,033	-0,003
-707,875	-200,000	-0,038	-0,125
-706,860	-177,773	0,130	0,002
-705,845	-8,584	-0,016	0,008
-704,831	323,914	0,081	-0,115
-703,816	800,000	0,037	0,091
-702,802	-78,755	-0,111	-0,028
-701,787	239,062	-0,068	-0,083
-700,772	132,424	-0,087	-0,082
-699,758	14,827	-0,073	0,042
-698,743	-123,210	0,141	0,016
-697,729	-200,000	-0,043	-0,164
-696,714	-154,283	0,102	-0,005
-695,699	247,489	-0,078	-0,098
-694,685	-200,000	-0,004	0,036
-693,670	-200,000	-0,008	-0,140
-692,656	-45,102	0,019	0,007
-691,641	247,627	-0,073	0,091
-690,627	-17,806	0,167	0,077
-689,612	-42,357	-0,035	0,013
-688,597	-18,083	-0,071	0,032
-687,583	-109,203	-0,157	-0,024
-686,568	-200,000	-0,003	-0,044
-685,554	9,959	-0,032	0,018
-684,539	800,000	0,003	-0,009
-683,524	800,000	-0,038	0,078
-682,510	-156,604	0,188	0,008
-681,495	-47,915	-0,129	-0,046
-680,481	-12,604	-0,133	0,064
-679,466	83,254	-0,076	-0,061
-678,451	-125,101	0,030	0,003
-677,437	181,331	0,084	0,091
-676,422	176,880	-0,115	0,124
-675,408	800,000	0,028	0,078
-674,393	23,565	-0,058	-0,035
-673,378	542,573	-0,032	-0,056
-672,364	746,385	0,026	-0,052
-671,349	-200,000	0,006	-0,030
-670,335	-130,047	0,071	0,007
-669,320	-143,220	-0,141	-0,010
-668,305	108,462	0,050	0,044
-667,291	-105,456	-0,031	-0,005
-666,276	-200,000	-0,006	-0,047
-665,262	471,806	-0,052	-0,086
-664,247	-91,615	-0,182	0,038
-663,232	-71,192	0,047	0,013
-662,218	491,167	0,040	-0,068
-661,203	-68,726	0,033	0,009
-660,189	-128,130	-0,101	0,010
-659,174	213,446	0,093	-0,108
-658,159	-63,566	-0,194	-0,058
-657,145	718,118	0,026	0,050
-656,130	-14,713	0,034	0,016
-655,116	35,126	0,021	-0,014
-654,101	-200,000	-0,015	-0,058
-653,086	336,277	-0,106	0,152
-652,072	-4,468	-0,116	-0,059
-651,057	246,848	-0,110	-0,137
-650,043	-200,000	0,018	-0,081
-649,028	434,735	0,014	0,022
-648,014	-143,531	-0,069	0,005
-646,999	244,796	0,056	-0,069
-645,984	-36,698	-0,104	-0,041
-644,970	99,314	-0,085	-0,073
-643,955	123,420	0,039	-0,036
-642,941	203,399	-0,038	-0,044
-641,926	-53,745	0,066	0,022
-640,911	545,898	0,027	-0,048
-639,897	462,435	0,040	-0,066
-638,882	-6,692	0,064	0,032
-637,868	-200,000	-0,009	-0,032
-636,853	-120,139	-0,176	-0,022
-635,838	-200,000	-0,009	-0,095
-634,824	4,652	0,026	0,014
-633,809	259,309	0,036	0,045
-632,795	108,308	0,040	-0,035
-631,780	62,545	-0,032	-0,024
-630,765	-75,333	-0,075	-0,020
-629,751	800,000	-0,048	-0,127
-628,736	720,872	0,017	-0,034
-627,722	219,984	0,055	-0,064
-626,707	382,370	-0,072	-0,108
-625,692	478,360	0,097	-0,161
-624,678	-200,000	-0,015	0,132
-623,663	-144,928	-0,085	-0,006
-622,649	223,645	0,040	0,047
-621,634	33,196	-0,066	-0,042
-620,619	435,520	-0,051	-0,082
-619,605	235,180	0,109	0,132
-618,590	102,444	-0,101	0,087
-617,576	800,000	-0,022	0,053
-616,561	209,421	0,067	-0,077
-615,546	53,095	0,072	-0,050
-614,532	800,000	-0,078	-0,189
-613,517	-129,083	-0,134	-0,014
-612,503	-26,125	0,182	0,078
-611,488	90,384	-0,086	0,070
-610,474	-200,000	0,005	0,066
-609,459	163,173	-0,086	0,089
-608,444	-38,129	-0,110	-0,043
-607,430	216,793	-0,070	0,082
-606,415	-50,559	0,071	-0,024
-605,401	-197,862	-0,051	-0,000
-604,386	-200,000	-0,003	0,013
-603,371	-200,000	0,000	0,062
-602,357	-200,000	0,008	0,080
-601,342	549,748	-0,067	-0,119
-600,328	800,000	0,037	-0,091
-599,313	692,468	-0,071	-0,137
-598,298	1,511	0,109	0,058
-597,284	-130,315	0,027	-0,003
-596,269	192,810	0,083	0,092
-595,255	-63,924	0,033	0,010
-594,240	111,664	0,079	-0,070
-593,225	207,116	0,048	0,055
-592,211	800,000	0,040	-0,087
-591,196	12,555	0,123	0,069
-590,182	11,853	0,135	-0,076
-589,167	-200,000	0,015	-0,141
-588,152	-26,425	-0,038	0,016
-587,138	3,940	0,120	-0,064
-586,123	-8,995	-0,105	0,052
-585,109	-200,000	-0,003	-0,049
-584,094	-62,920	-0,025	-0,007
-583,079	-165,938	0,172	0,005
-582,065	60,346	-0,093	0,067
-581,050	-180,680	-0,030	-0,000
-580,036	-200,000	-0,017	-0,085
-579,021	-200,000	0,001	0,088
-578,006	-55,413	0,090	-0,029
-576,992	206,117	-0,076	0,086
-575,977	800,000	0,064	0,130
-574,963	-200,000	-0,028	0,101
-573,948	206,789	-0,033	-0,038
-572,934	105,319	-0,096	-0,083
-571,919	800,000	0,041	-0,091
-570,904	-200,000	0,002	0,064
-569,890	-200,000	-0,013	-0,114
-568,875	-200,000	0,024	0,125
-567,861	218,253	0,089	0,105
-566,846	-200,000	0,030	0,174
-565,831	-89,166	0,030	-0,006
-564,817	295,767	-0,034	0,046
-563,802	72,367	-0,114	-0,087
-562,788	800,000	0,035	-0,105
-561,773	-200,000	0,005	-0,043
-560,758	135,651	0,135	0,129
-559,744	-200,000	0,017	-0,102
-558,729	-200,000	0,017	-0,059
-557,715	-129,959	0,022	0,002
-556,700	454,383	-0,041	-0,067
-555,685	45,545	-0,126	-0,085
-554,671	800,000	-0,019	0,041
-553,656	53,393	-0,028	-0,020
-552,642	-85,152	0,125	0,028
-551,627	-200,000	-0,035	0,132
-550,612	-2,742	0,048	0,025
-549,598	141,552	-0,087	0,084
-548,583	-152,217	-0,174	0,009
-547,569	800,000	0,015	-0,034
-546,554	800,000	0,024	-0,053
-545,539	536,038	-0,039	-0,068
-544,525	-200,000	-0,008	-0,090
-543,510	21,176	-0,112	-0,066
-542,496	-28,831	0,168	0,070
-541,481	-25,379	-0,056	-0,024
-540,466	174,322	-0,029	-0,030
-539,452	107,203	0,095	0,082
-538,437	157,460	0,120	0,121
-537,423	-103,366	-0,061	-0,010
-536,408	-136,222	-0,046	0,004
-535,393	-200,000	0,028	0,104
-534,379	54,366	-0,069	0,049
-533,364	639,327	-0,099	-0,184
-532,350	-94,932	-0,038	0,007
-531,335	-76,428	-0,144	-0,037
-530,321	136,400	-0,042	-0,040
-529,306	800,000	0,056	0,119
-528,291	-200,000	0,001	-0,057
-527,277	375,603	-0,047	-0,070
-526,262	-65,354	-0,066	-0,019
-525,248	775,334	0,034	0,068
-524,233	1,376	0,055	-0,029
-523,218	-200,000	0,031	0,145
-522,204	800,000	-0,051	0,125
-521,189	63,816	0,076	0,056
-520,175	145,826	-0,048	0,047
-519,160	148,610	0,067	-0,066
-518,145	-200,000	0,016	-0,055
-517,131	670,752	0,068	0,129
-516,116	124,255	-0,066	0,061
-515,102	-200,000	0,002	-0,031
-514,087	800,000	-0,030	-0,080
-513,072	679,433	0,021	0,040
-512,058	800,000	-0,030	-0,078
-511,043	-200,000	0,015	0,081
-510,029	-200,000	-0,036	-0,197
-509,014	335,882	0,087	0,123
-507,999	359,878	0,039	0,057
-506,985	800,000	-0,011	-0,023
-505,970	505,509	-0,064	0,108
-504,956	-200,000	-0,016	-0,109
-503,941	800,000	0,038	-0,085
-502,926	800,000	0,049	-0,105
-501,912	25,909	0,138	0,084
-500,897	413,705	0,069	0,108
-499,883	-61,389	0,090	0,028
-498,868	-10,210	-0,165	-0,080
-497,853	-69,842	0,069	-0,019
-496,839	71,070	0,110	-0,083
-495,824	800,000	0,032	0,080
-494,810	-185,160	0,049	0,001
-493,795	14,777	-0,050	-0,029
-492,781	309,158	0,021	0,029
-491,766	800,000	-0,037	-0,116
-490,751	133,224	0,039	0,037
-489,737	-106,435	0,141	-0,023
-488,722	-59,379	-0,070	0,022
-487,708	-200,000	0,015	0,181
-486,693	800,000	-0,032	-0,075
-485,678	115,955	0,024	-0,021
-484,664	753,405	-0,026	-0,051
-483,649	800,000	0,037	-0,094
-482,635	-200,000	-0,028	-0,103
-481,620	28,670	-0,105	-0,065
-480,605	38,488	-0,034	0,022
-479,591	-148,234	0,067	0,004
-478,576	13,003	-0,178	0,100
-477,562	800,000	-0,061	0,130
-476,547	-4,837	-0,099	-0,050
-475,532	800,000	-0,021	0,044
-474,518	-200,000	0,022	0,122
-473,503	-200,000	0,028	0,189
-472,489	-18,528	-0,041	0,019
-471,474	-177,748	-0,032	-0,001
-470,459	-200,000	0,012	-0,063
-469,445	800,000	0,062	0,136
-468,430	65,561	-0,124	-0,091
-467,416	-200,000	0,004	0,063
-466,401	-200,000	0,018	0,120
-465,386	-200,000	0,009	0,053
-464,372	-200,000	-0,025	-0,089
-463,357	-200,000	-0,002	-0,054
-462,343	-175,305	-0,094	-0,002
-461,328	188,254	0,052	0,057
-460,313	725,486	0,064	0,125
-459,299	-200,000	-0,006	0,110
-458,284	-65,769	0,069	0,020
-457,270	77,066	0,062	-0,048
-456,255	227,046	-0,150	-0,178
-455,241	-200,000	-0,017	-0,099
-454,226	-200,000	-0,013	-0,055
-453,211	800,000	-0,011	-0,026
-452,197	-24,154	0,127	0,055
-451,182	-200,000	-0,002	0,096
-450,168	-91,311	-0,135	0,028
-449,153	-200,000	0,005	-0,076
-448,138	4,600	-0,113	-0,061
-447,124	-141,844	-0,034	0,002
-446,109	-71,933	-0,083	-0,022
-445,095	-50,730	0,046	0,016
-444,080	115,069	0,078	0,069
-443,065	-200,000	0,029	-0,124
-442,051	-133,312	-0,042	-0,004
-441,036	-200,000	-0,011	0,064
-440,022	88,057	-0,075	-0,061
-439,007	-200,000	0,010	-0,043
-437,992	262,713	0,037	-0,048
-436,978	232,776	0,103	0,124
-435,963	-200,000	0,144	0,000
-434,949	-131,755	0,090	0,009
-433,934	800,000	0,037	-0,108
-432,919	184,273	-0,136	-0,147
-431,905	292,469	-0,059	-0,079
-430,890	-163,207	0,066	-0,002
-429,876	-4,852	0,165	0,083
-428,861	296,344	-0,074	0,100
-427,846	-24,134	0,101	-0,044
-426,832	-200,000	-0,001	-0,056
-425,817	-21,789	-0,080	-0,036
-424,803	-200,000	-0,007	-0,132
-423,788	800,000	-0,028	0,077
-422,773	-200,000	-0,003	-0,023
-421,759	-136,136	0,215	-0,018
-420,744	-3,326	-0,145	0,074
-419,730	-31,485	0,062	-0,025
-418,715	-200,000	-0,020	0,097
-417,701	-62,767	0,064	0,019
-416,686	-54,960	0,024	0,008
-415,671	-115,418	-0,035	0,005
-414,657	-200,000	0,010	-0,089
-413,642	331,636	0,052	0,073
-412,628	-200,000	-0,020	0,097
-411,613	248,426	0,023	-0,028
-410,598	-200,000	0,003	0,037
-409,584	18,956	-0,040	-0,023
-408,569	-11,446	0,068	0,033
-407,555	-60,115	0,091	0,028
-406,540	734,349	-0,052	0,102
-405,525	303,872	-0,041	-0,055
-404,511	31,047	-0,108	0,067
-403,496	-200,000	-0,002	-0,072
-402,482	67,127	0,040	0,030
-401,467	800,000	-0,003	0,006
-400,452	249,887	0,092	-0,113
-399,438	-24,431	-0,078	0,034
-398,423	-200,000	-0,007	0,060
-397,409	74,120	0,081	-0,062
-396,394	-9,321	0,055	0,026
-395,379	-39,714	-0,121	-0,046
-394,365	-200,000	0,034	-0,120
-393,350	-28,321	0,196	0,082
-392,336	614,017	-0,039	-0,071
-391,321	-200,000	-0,024	-0,094
-390,306	100,495	-0,100	-0,085
-389,292	626,458	0,024	0,045
-388,277	-99,280	-0,173	-0,031
-387,263	65,242	0,116	0,085
-386,248	70,532	-0,123	0,093
-385,233	11,226	0,068	0,038
-384,219	580,300	-0,083	-0,148
-383,204	-200,000	-0,001	-0,068
-382,190	800,000	0,046	-0,144
-381,175	-58,374	0,034	0,011
-380,160	-200,000	0,018	0,142
-379,146	-200,000	0,040	0,188
-378,131	656,437	-0,038	0,072
-377,117	291,435	-0,011	-0,014
-376,102	121,721	-0,012	-0,011
-375,088	-58,628	-0,178	-0,056
-374,073	-200,000	0,003	-0,047
-373,058	-20,717	-0,036	0,016
-372,044	97,851	0,083	0,070
-371,029	-24,875	-0,057	0,025
-370,015	-129,402	0,067	-0,007
-369,000	57,825	-0,085	-0,060
-367,985	800,000	-0,023	0,048
-366,971	800,000	-0,026	-0,062
-365,956	42,878	0,030	0,020
-364,942	-200,000	0,012	-0,065
-363,927	417,647	-0,022	-0,035
-362,912	550,743	0,028	0,049
-361,898	12,132	0,160	-0,089
-360,883	-45,094	-0,022	0,008
-359,869	-3,982	-0,107	0,054
-358,854	-100,150	-0,059	0,011
-357,839	42,446	0,053	-0,035
-356,825	-12,637	0,128	0,061
-355,810	800,000	0,024	0,063
-354,796	-200,000	0,000	0,171
-353,781	-200,000	0,014	-0,067
-352,766	-91,065	-0,079	-0,016
-351,752	-200,000	0,003	-0,010
-350,737	-45,989	0,105	0,037
-349,723	304,744	0,066	-0,089
-348,708	330,902	0,018	-0,025
-347,693	-151,680	-0,068	-0,004
-346,679	800,000	-0,045	-0,111
-345,664	129,937	-0,126	-0,117
-344,650	74,855	-0,080	-0,061
-343,635	800,000	-0,017	0,045
-342,620	-85,503	0,077	-0,017
-341,606	190,251	0,053	0,058
-340,591	-200,000	0,043	-0,210
-339,577	-200,000	-0,007	-0,103
-338,562	-200,000	0,004	-0,047
-337,548	214,089	-0,053	0,061
-336,533	-0,835	-0,115	0,059
-335,518	-200,000	0,023	0,106
-334,504	40,936	-0,087	-0,057
-333,489	-63,914	-0,018	0,005
-332,475	-170,635	-0,118	-0,003
-331,460	-19,985	-0,015	0,006
-330,445	-200,000	-0,005	0,047
-329,431	-200,000	-0,021	-0,072
-328,416	22,583	-0,088	0,052
-327,402	-200,000	0,006	0,157
-326,387	41,956	-0,085	-0,056
-325,372	-200,000	0,028	-0,153
-324,358	-54,851	0,060	-0,020
-323,343	-144,702	-0,118	-0,008
-322,329	-200,000	-0,012	-0,056
-321,314	48,427	0,072	0,049
-320,299	408,904	0,052	0,081
-319,285	304,540	0,014	0,018
-318,270	797,852	-0,010	-0,020
-317,256	27,083	0,083	0,050
-316,241	-200,000	0,012	-0,059
-315,226	800,000	0,062	0,147
-314,212	31,113	0,077	-0,048
-313,197	183,356	0,057	0,061
-312,183	106,598	-0,109	0,094
-311,168	-200,000	0,037	-0,147
-310,153	-89,004	-0,052	-0,011
-309,139	566,225	-0,043	-0,077
-308,124	-200,000	-0,019	-0,108
-307,110	172,391	-0,067	-0,070
-306,095	-93,448	-0,048	0,010
-305,080	-200,000	-0,010	0,085
-304,066	800,000	0,014	-0,038
-303,051	25,956	0,091	-0,055
-302,037	25,047	-0,062	0,037
-301,022	-200,000	0,013	-0,118
-300,008	293,023	0,047	0,062
-298,993	-200,000	0,005	0,223
-297,978	800,000	-0,021	0,052
-296,964	548,628	-0,048	0,083
-295,949	-200,000	0,007	0,086
-294,935	579,592	-0,065	-0,116
-293,920	433,658	-0,047	-0,074
-292,905	-89,062	0,172	0,036
-291,891	-200,000	-0,021	0,152
-290,876	3,844	-0,100	-0,053
-289,862	109,877	-0,031	0,027
-288,847	-22,699	-0,058	-0,025
-287,832	800,000	0,028	-0,086
-286,818	-200,000	0,033	-0,121
-285,803	158,437	0,067	0,067
-284,789	524,367	0,011	-0,018
-283,774	143,406	0,068	0,066
-282,759	14,109	0,080	0,045
-281,745	800,000	0,037	0,078
-280,730	-33,968	0,069	-0,028
-279,716	-177,336	0,105	0,002
-278,701	59,338	0,128	0,092
-277,686	-108,239	0,164	-0,025
-276,672	-200,000	-0,003	-0,024
-275,657	-142,733	0,123	-0,009
-274,643	715,221	0,028	0,055
-273,628	-200,000	-0,031	0,135
-272,613	-200,000	-0,015	-0,062
-271,599	-200,000	0,002	0,014
-270,584	216,688	0,026	-0,030
-269,570	-200,000	-0,017	0,146
-268,555	-200,000	0,022	-0,085
-267,540	107,599	-0,042	0,036
-266,526	-39,419	0,103	-0,039
-265,511	164,863	-0,028	-0,029
-264,497	460,810	-0,013	0,021
-263,482	-100,180	0,063	-0,011
-262,467	-200,000	0,020	0,154
-261,453	-82,468	0,092	0,021
-260,438	232,464	-0,061	0,073
-259,424	-100,019	-0,126	-0,022
-258,409	-142,899	0,056	0,004
-257,395	657,621	0,014	0,026
-256,380	538,783	-0,067	-0,115
-255,365	295,779	-0,111	0,148
-254,351	344,775	-0,035	-0,050
-253,336	-69,996	-0,063	-0,017
-252,322	108,343	-0,079	-0,069
-251,307	194,506	0,048	0,053
-250,292	-200,000	-0,041	-0,000
-249,278	338,107	0,061	0,087
-248,263	-8,564	-0,042	-0,021
-247,249	145,254	0,059	0,057
-246,234	800,000	-0,070	-0,149
-245,219	-5,586	-0,079	-0,039
-244,205	-188,749	-0,162	0,001
-243,190	98,979	0,029	0,024
-242,176	-91,286	0,068	-0,014
-241,161	-166,882	0,145	-0,004
-240,146	-200,000	0,010	-0,204
-239,132	-200,000	-0,006	0,023
-238,117	-27,056	-0,064	-0,027
-237,103	-200,000	-0,034	-0,138
-236,088	139,192	0,021	-0,020
-235,073	800,000	0,026	-0,064
-234,059	-77,280	0,044	-0,011
-233,044	-123,607	-0,048	0,005
-232,030	-200,000	-0,037	0,263
-231,015	-168,551	-0,004	0,000
-230,000	541,644	0,029	0,051
-228,986	240,432	0,038	0,046
-227,971	-31,830	-0,053	-0,021
-226,957	74,542	0,079	-0,060
-225,942	-182,721	-0,110	-0,001
-224,927	-200,000	-0,009	0,094
-223,913	371,992	-0,079	-0,116
-222,898	-200,000	0,010	-0,068
-221,884	-190,391	0,127	-0,001
-220,869	-96,853	0,013	0,002
-219,855	-136,521	0,080	0,007
-218,840	-102,932	-0,169	0,029
-217,825	179,746	-0,059	0,062
-216,811	-200,000	0,001	0,007
-215,796	186,125	-0,057	0,062
-214,782	517,558	-0,021	0,036
-213,767	67,682	0,137	0,101
-212,752	382,833	0,087	0,130
-211,738	169,612	0,014	0,015
-210,723	192,384	-0,049	-0,054
-209,709	-200,000	0,030	-0,110
-208,694	137,431	-0,056	-0,053
-207,679	297,282	0,132	-0,176
-206,665	800,000	-0,029	-0,062
-205,650	29,308	0,091	0,056
-204,636	445,731	-0,073	0,117
-203,621	178,154	-0,097	-0,102
-202,606	573,870	-0,063	-0,112
-201,592	-121,166	-0,065	0,008
-200,577	-200,000	0,015	-0,053
-199,563	253,795	0,026	-0,032
-198,548	-200,000	0,019	0,187
-197,533	6,724	-0,013	0,007
-196,519	571,014	0,020	0,035
-195,504	120,405	-0,103	0,092
-194,490	-69,017	-0,101	-0,028
-193,475	-200,000	-0,022	-0,115
-192,460	800,000	0,076	-0,154
-191,446	-138,578	-0,029	-0,002
-190,431	389,865	0,074	0,111
-189,417	154,303	-0,044	0,043
-188,402	-200,000	0,005	-0,047
-187,387	800,000	-0,066	-0,169
-186,373	-200,000	-0,013	-0,080
-185,358	37,491	-0,046	-0,030
-184,344	-200,000	-0,016	0,089
-183,329	-200,000	0,015	0,153
-182,315	-110,120	0,106	-0,016
-181,300	-200,000	-0,021	0,096
-180,285	-200,000	0,003	-0,144
-179,271	-130,705	0,032	-0,003
-178,256	127,302	-0,033	0,031
-177,242	-32,873	0,076	0,030
-176,227	497,330	0,021	-0,035
-175,212	-108,011	-0,117	0,018
-174,198	96,594	0,050	-0,041
-173,183	149,406	0,075	0,074
-172,169	-39,271	0,141	0,053
-171,154	800,000	0,045	-0,101
-170,139	-88,703	-0,049	-0,010
-169,125	262,750	-0,044	0,055
-168,110	-200,000	-0,031	0,135
-167,096	234,045	0,030	-0,036
-166,081	553,108	-0,055	-0,096
-165,066	-112,393	-0,182	0,026
-164,052	-134,692	0,173	0,015
-163,037	-20,361	-0,073	0,032
-162,023	26,513	0,155	0,093
-161,008	-200,000	0,027	-0,102
-159,993	-73,334	-0,176	0,046
-158,979	-44,127	0,134	0,048
-157,964	577,084	0,037	-0,065
-156,950	-166,407	-0,062	0,002
-155,935	-200,000	-0,013	0,088
-154,920	107,570	0,113	0,097
-153,906	-200,000	0,027	0,147
-152,891	348,061	0,030	0,042
-151,877	-200,000	0,009	0,123
-150,862	-21,435	-0,089	-0,039
-149,847	212,519	0,109	0,124
-148,833	-200,000	-0,000	0,048
-147,818	60,952	0,039	0,028
-146,804	-200,000	0,013	-0,051
-145,789	74,043	-0,095	-0,072
-144,775	658,209	-0,075	-0,139
-143,760	128,615	-0,056	-0,051
-142,745	212,507	-0,062	-0,071
-141,731	-55,603	0,054	0,017
-140,716	94,079	0,028	0,023
-139,702	109,697	0,073	0,063
-138,687	-200,000	-0,002	0,076
-137,672	-200,000	-0,029	-0,118
-136,658	-126,287	-0,093	0,010
-135,643	-128,840	-0,162	-0,016
-134,629	-200,000	-0,005	0,082
-133,614	83,918	0,075	-0,059
-132,599	340,699	0,020	-0,029
-131,585	-200,000	0,003	0,021
-130,570	-200,000	-0,023	0,096
-129,556	-200,000	0,041	-0,155
-128,541	454,474	0,063	-0,102
-127,526	377,819	0,009	0,014
-126,512	800,000	0,019	0,038
-125,497	800,000	0,086	0,206
-124,483	-26,421	0,099	0,042
-123,468	-61,422	0,024	0,007
-122,453	800,000	-0,015	-0,044
-121,439	313,029	-0,083	-0,113
-120,424	452,620	-0,072	0,115
-119,410	-200,000	-0,002	-0,127
-118,395	11,730	-0,154	0,085
-117,380	61,171	0,124	-0,089
-116,366	-200,000	0,003	-0,110
-115,351	309,770	-0,091	0,122
-114,337	-200,000	-0,021	0,000
-113,322	172,059	-0,066	0,069
-112,307	109,875	0,023	0,020
-111,293	-171,954	-0,042	0,001
-110,278	333,832	-0,022	0,031
-109,264	-200,000	0,012	0,130
-108,249	800,000	-0,036	-0,108
-107,234	800,000	-0,024	-0,049
-106,220	-64,928	0,073	0,021
-105,205	800,000	0,028	-0,058
-104,191	-168,278	0,143	0,004
-103,176	-200,000	-0,036	0,133
-102,162	-200,000	-0,025	0,112
-101,147	322,598	-0,045	-0,061
-100,132	241,680	0,065	0,078
-99,118	-200,000	-0,003	-0,142
-98,103	-95,277	0,170	0,033
-97,089	-119,692	-0,025	0,003
-96,074	67,062	-0,032	-0,023
-95,059	231,076	-0,043	-0,050
-94,045	800,000	-0,016	-0,044
-93,030	800,000	-0,025	0,061
-92,016	679,539	0,032	-0,060
-91,001	65,211	-0,060	0,044
-89,986	-200,000	-0,051	0,191
-88,972	-200,000	-0,023	0,116
-87,957	-200,000	0,044	0,226
-86,943	-148,531	-0,063	0,004
-85,928	-0,775	0,057	0,029
-84,913	800,000	0,074	-0,176
-83,899	733,060	0,010	-0,019
-82,884	244,505	-0,010	-0,012
-81,870	278,470	-0,081	0,104
-80,855	-167,372	0,210	-0,006
-79,840	-200,000	0,001	-0,018
-78,826	-200,000	-0,009	0,053
-77,811	91,728	-0,090	-0,073
-76,797	-165,597	-0,032	-0,001
-75,782	-200,000	0,038	-0,150
-74,767	-7,997	0,127	-0,061
-73,753	121,306	0,072	0,064
-72,738	46,107	0,048	-0,032
-71,724	-200,000	-0,015	-0,105
-70,709	-200,000	-0,007	0,032
-69,694	72,905	-0,004	-0,003
-68,680	800,000	-0,027	0,070
-67,665	-200,000	-0,007	-0,025
-66,651	-80,812	0,120	0,028
-65,636	-200,000	-0,023	0,075
-64,622	-105,199	-0,143	-0,023
-63,607	218,859	0,116	-0,134
-62,592	169,731	-0,066	0,068
-61,578	484,164	0,032	0,053
-60,563	-200,000	-0,015	0,152
-59,549	-10,857	-0,148	0,070
-58,534	84,269	-2,625	-2,060
-57,519	69,285	0,465	-0,343
-56,505	-200,000	-1,680	-5,489
-55,490	473,027	1,152	1,872
-54,476	800,000	5,186	11,428
-53,461	-200,000	22,014	348,580
-52,446	800,000	759,558	2308,485
-51,432	519,061	1646,732	2780,443
-50,417	99,682	1611,101	1338,973
-49,403	67,607	1267,945	928,959
-48,388	23,825	1018,842	601,438
-47,373	19,389	985,793	567,263
-46,359	13,245	972,736	539,605
-45,344	8,866	969,756	523,567
-44,330	9,364	967,390	523,902
-43,315	8,348	965,801	519,697
-42,300	8,302	964,499	518,823
-41,286	8,317	963,509	518,320
-40,271	8,295	962,556	517,716
-39,257	8,281	961,701	517,189
-38,242	8,240	960,901	516,606
-37,227	8,209	960,137	516,073
-36,213	8,240	959,311	515,710
-35,198	8,287	958,250	515,272
-34,184	8,329	957,612	515,044
-33,169	8,311	956,446	514,338
-32,154	8,320	955,748	513,970
-31,140	8,313	954,796	513,416
-30,125	8,331	954,300	513,188
-29,111	8,326	953,227	512,575
-28,096	8,330	952,550	512,203
-27,082	8,293	951,864	511,695
-26,067	8,243	951,294	511,207
-25,052	8,181	950,443	510,528
-24,038	8,267	949,818	510,450
-23,023	8,247	949,185	510,026
-22,009	8,315	948,513	509,861
-20,994	8,272	947,823	509,331
-19,979	8,347	947,210	509,223
-18,965	8,246	946,651	508,579
-17,950	8,278	946,084	508,355
-16,936	8,245	945,488	507,910
-15,921	8,292	944,608	507,569
-14,906	8,111	944,072	506,680
-13,892	8,182	943,419	506,538
-12,877	8,152	942,815	506,096
-11,863	8,108	942,228	505,621
-10,848	8,146	941,705	505,441
-9,833	8,233	941,098	505,373
-8,819	8,176	940,417	504,805
-7,804	8,178	939,718	504,416
-6,790	8,122	939,368	504,032
-5,775	8,176	938,703	503,826
-4,760	8,216	938,086	503,603
-3,746	8,158	937,627	503,152
-2,731	8,066	936,678	502,332
-1,717	8,047	936,149	501,965
-0,702	7,980	935,467	501,368
0,313	7,875	934,858	501,467
1,327	11,299	932,544	510,991
2,342	20,028	780,748	450,723
3,356	15,158	447,892	251,212
4,371	-11,370	311,872	146,759
5,386	-15,265	294,329	134,559
6,400	-17,227	288,260	129,832
7,415	-17,376	285,636	128,492
8,429	-18,084	283,887	127,005
9,444	-18,069	282,930	126,580
10,459	-18,025	282,363	126,357
11,473	-18,127	281,791	125,992
12,488	-17,915	281,290	125,960
13,502	-17,945	280,833	125,716
14,517	-17,829	280,429	125,636
15,531	-17,885	279,968	125,364
16,546	-17,642	279,529	125,389
17,561	-17,697	279,001	125,089
18,575	-17,598	278,877	125,116
19,590	-17,780	278,416	124,725
20,604	-17,615	278,287	124,814
21,619	-17,565	277,722	124,597
22,634	-17,675	277,476	124,370
23,648	-17,551	277,140	124,326
24,663	-17,652	276,904	124,113
25,677	-17,527	276,470	124,026
26,692	-17,445	276,389	124,057
27,707	-17,786	276,133	123,608
28,721	-17,573	275,821	123,658
29,736	-17,612	275,624	123,523
30,750	-17,581	275,204	123,353
31,765	-17,537	274,896	123,246
32,780	-17,588	274,710	123,103
33,794	-17,575	274,469	122,996
34,809	-17,614	274,311	122,878
35,823	-17,676	274,002	122,670
36,838	-17,649	273,687	122,544
37,853	-17,721	273,671	122,458
38,867	-17,774	273,365	122,261
39,882	-17,630	273,088	122,260
40,896	-17,541	272,728	122,171
41,911	-17,760	272,564	121,882
42,926	-17,491	272,172	121,946
43,940	-17,645	272,185	121,799
44,955	-17,538	271,841	121,733
45,969	-17,741	271,685	121,463
46,984	-17,807	271,568	121,339
47,999	-17,629	271,404	121,420
49,013	-17,328	270,992	121,505
50,028	-17,371	270,683	121,315
51,042	-17,570	270,569	121,069
52,057	-17,427	270,365	121,099
53,071	-17,351	270,070	121,027
54,086	-17,450	269,968	120,878
55,101	-17,449	269,749	120,771
56,115	-17,439	269,357	120,594
57,130	-17,583	269,085	120,329
58,144	-17,802	268,829	120,002
59,159	-17,641	268,655	120,062
60,174	-17,569	268,249	119,935
61,188	-17,560	268,129	119,879
62,203	-17,713	268,028	119,683
63,217	-17,609	267,732	119,636
64,232	-17,557	267,629	119,627
65,247	-17,597	267,269	119,419
66,261	-17,573	267,037	119,326
67,276	-17,561	266,784	119,213
68,290	-17,481	266,669	119,224
69,305	-17,458	266,413	119,120
70,320	-17,656	266,247	118,855
71,334	-17,384	265,932	118,951
72,349	-17,582	265,690	118,652
73,363	-17,636	265,461	118,491
74,378	-17,695	265,107	118,269
75,393	-17,565	264,897	118,282
76,407	-17,638	264,722	118,127
77,422	-17,396	264,506	118,239
78,436	-17,468	264,266	118,056
79,451	-17,581	264,152	117,893
80,466	-17,542	263,885	117,799
81,480	-17,642	263,734	117,630
82,495	-17,698	263,531	117,479
83,509	-17,450	263,169	117,529
84,524	-17,318	263,077	117,597
85,539	-17,350	262,786	117,427
86,553	-17,352	262,503	117,289
87,568	-17,362	262,390	117,219
88,582	-17,479	262,082	116,966
89,597	-17,418	261,956	116,954
90,611	-17,606	261,765	116,691
91,626	-17,600	261,711	116,662
92,641	-17,340	261,247	116,676
93,655	-17,531	261,313	116,524
94,670	-17,491	260,861	116,348
95,684	-17,497	260,743	116,280
96,699	-17,429	260,418	116,185
97,714	-17,440	260,414	116,163
98,728	-17,482	260,101	115,976
99,743	-17,606	260,111	115,860
100,757	-17,466	259,712	115,796
101,772	-17,438	259,456	115,696
102,787	-17,439	259,311	115,620
103,801	-17,713	259,089	115,269
104,816	-17,436	258,834	115,390
105,830	-17,569	258,855	115,272
106,845	-17,583	258,601	115,136
107,860	-17,694	258,356	114,919
108,874	-17,651	258,115	114,839
109,889	-17,475	257,852	114,866
110,903	-17,476	257,597	114,742
111,918	-17,474	257,439	114,663
112,933	-17,378	257,391	114,715
113,947	-17,586	257,226	114,450
114,962	-17,534	256,802	114,296
115,976	-17,545	256,704	114,233
116,991	-17,772	256,511	113,938
118,006	-17,393	256,288	114,160
119,020	-17,552	256,234	113,987
120,035	-17,345	255,942	114,026
121,049	-17,457	255,665	113,796
122,064	-17,405	255,568	113,788
123,079	-17,510	255,399	113,611
124,093	-17,307	255,152	113,668
125,108	-17,575	254,912	113,319
126,122	-17,197	254,753	113,564
127,137	-17,357	254,575	113,337
128,151	-17,405	254,401	113,207
129,166	-17,320	254,206	113,184
130,181	-17,284	253,955	113,093
131,195	-17,406	253,792	112,906
132,210	-17,553	253,503	112,641
133,224	-17,499	253,334	112,602
134,239	-17,654	253,140	112,372
135,254	-17,317	252,837	112,517
136,268	-17,401	252,682	112,366
137,283	-17,424	252,574	112,288
138,297	-17,494	252,525	112,196
139,312	-17,326	252,240	112,204
140,327	-17,424	251,951	111,981
141,341	-17,362	251,758	111,939
142,356	-17,585	251,619	111,676
143,370	-17,438	251,309	111,654
144,385	-17,433	251,312	111,650
145,400	-17,360	250,883	111,511
146,414	-17,463	250,876	111,411
147,429	-17,702	250,652	111,098
148,443	-17,363	250,505	111,311
149,458	-17,538	250,225	111,028
150,473	-17,545	250,152	110,980
151,487	-17,349	249,810	110,984
152,502	-17,383	249,506	110,810
153,516	-17,441	249,526	110,760
154,531	-17,418	249,396	110,712
155,546	-17,406	249,063	110,564
156,560	-17,461	248,991	110,476
157,575	-17,579	248,677	110,228
158,589	-17,471	248,527	110,242
159,604	-17,496	248,427	110,167
160,619	-17,337	248,125	110,157
161,633	-17,390	247,957	110,028
162,648	-17,470	247,847	109,902
163,662	-17,294	247,683	109,967
164,677	-17,453	247,538	109,760
165,692	-17,431	247,411	109,712
166,706	-17,378	247,199	109,653
167,721	-17,454	246,984	109,485
168,735	-17,441	246,839	109,421
169,750	-17,613	246,779	109,241
170,764	-17,517	246,475	109,176
171,779	-17,355	246,281	109,216
172,794	-17,415	246,225	109,131
173,808	-17,412	246,088	109,064
174,823	-17,283	245,842	109,052
175,837	-17,424	245,573	108,806
176,852	-17,530	245,534	108,691
177,867	-17,508	245,392	108,637
178,881	-17,317	245,258	108,726
179,896	-17,440	244,951	108,479
180,910	-17,456	244,753	108,368
181,925	-17,471	244,554	108,258
182,940	-17,592	244,353	108,059
183,954	-17,520	244,292	108,082
184,969	-17,492	244,132	108,025
185,983	-17,508	243,899	107,898
186,998	-17,392	243,864	107,969
188,013	-17,416	243,568	107,809
189,027	-17,454	243,377	107,684
190,042	-17,377	243,134	107,629
191,056	-17,481	242,910	107,435
192,071	-17,654	242,782	107,228
193,086	-17,516	242,665	107,279
194,100	-17,637	242,525	107,109
195,115	-17,437	242,357	107,188
196,129	-17,406	241,874	106,991
197,144	-17,443	241,639	106,847
198,159	-17,591	241,600	106,700
199,173	-17,409	241,505	106,797
200,188	-17,391	241,308	106,715
201,202	-17,391	241,138	106,630
202,217	-17,258	240,980	106,659
203,232	-17,288	240,844	106,564
204,246	-17,535	240,646	106,266
205,261	-17,839	240,398	105,902
206,275	-16,353	240,782	107,268
207,290	-11,561	242,539	111,957
208,304	-5,234	244,572	118,090
209,319	-2,111	245,171	120,937
210,334	-1,294	245,632	121,826
211,348	-0,026	245,733	122,909
212,363	0,369	245,732	123,222
213,377	0,623	245,893	123,500
214,392	0,975	245,747	123,706
215,407	1,092	245,661	123,748
216,421	1,366	245,420	123,839
217,436	1,479	245,294	123,857
218,450	1,460	245,030	123,698
219,465	1,574	244,994	123,762
220,480	1,720	244,884	123,814
221,494	1,367	244,720	123,432
222,509	1,134	244,343	123,041
223,523	0,884	244,109	122,709
224,538	0,728	243,912	122,471
225,553	0,673	243,698	122,307
226,567	0,775	243,583	122,322
227,582	0,980	243,438	122,405
228,596	0,862	243,092	122,125
229,611	0,817	243,146	122,105
230,626	0,609	242,931	121,817
231,640	0,761	242,803	121,865
232,655	0,903	242,525	121,830
233,669	0,552	242,497	121,521
234,684	0,610	242,374	121,494
235,699	0,495	242,170	121,289
236,713	0,747	242,041	121,417
237,728	0,707	241,800	121,253
238,742	0,717	241,689	121,194
239,757	0,807	241,507	121,165
240,772	0,744	241,218	120,959
241,786	0,821	241,191	120,996
242,801	0,611	241,000	120,721
243,815	0,661	240,816	120,658
244,830	0,767	240,780	120,714
245,844	0,620	240,605	120,498
246,859	0,618	240,430	120,398
247,874	0,726	240,099	120,307
248,888	0,662	240,056	120,224
249,903	0,736	239,904	120,197
250,917	0,753	239,711	120,103
251,932	1,022	239,519	120,211
252,947	0,729	239,463	119,938
253,961	0,588	239,395	119,781
254,976	0,645	239,171	119,704
255,990	0,802	238,978	119,721
257,005	0,936	238,770	119,713
258,020	0,839	238,637	119,558
259,034	0,700	238,434	119,335
260,049	0,893	238,353	119,438
261,063	0,962	238,215	119,413
262,078	0,864	238,180	119,307
263,093	0,893	237,822	119,139
264,107	0,642	237,770	118,904
265,122	0,721	237,606	118,873
266,136	0,869	237,399	118,877
267,151	0,743	237,439	118,787
268,166	0,879	236,927	118,627
269,180	0,653	236,905	118,427
270,195	0,715	236,996	118,511
271,209	0,871	236,662	118,456
272,224	0,820	236,533	118,341
273,239	0,740	236,351	118,177
274,253	0,912	236,104	118,178
275,268	0,832	235,955	118,030
276,282	0,753	235,847	117,903
277,297	0,751	235,750	117,843
278,312	0,715	235,651	117,755
279,326	0,486	235,572	117,525
280,341	0,831	235,277	117,637
281,355	1,113	235,071	117,744
282,370	1,048	234,988	117,641
283,384	1,031	234,681	117,464
284,399	0,843	234,785	117,358
285,414	0,668	234,547	117,093
286,428	1,057	234,308	117,266
287,443	0,876	234,275	117,099
288,457	0,712	234,209	116,927
289,472	0,744	233,861	116,768
290,487	0,959	233,875	116,932
291,501	0,743	233,670	116,651
292,516	0,790	233,584	116,634
293,530	0,914	233,352	116,604
294,545	0,598	233,392	116,369
295,560	0,943	233,091	116,475
296,574	0,860	232,980	116,346
297,589	0,809	232,815	116,213
298,603	0,788	232,854	116,206
299,618	1,098	232,495	116,255
300,633	0,915	232,400	116,056
301,647	0,968	232,199	115,986
302,662	1,140	232,141	116,080
303,676	0,967	231,873	115,803
304,691	1,211	231,847	115,966
305,706	0,884	231,591	115,578
306,720	0,893	231,577	115,567
307,735	1,251	231,243	115,664
308,749	1,014	231,298	115,500
309,764	1,182	231,120	115,529
310,779	1,104	230,788	115,293
311,793	0,900	230,813	115,139
312,808	0,878	230,629	115,021
313,822	0,764	230,440	114,829
314,837	0,982	230,305	114,918
315,852	1,118	230,254	114,986
316,866	1,113	230,052	114,871
317,881	1,001	229,810	114,655
318,895	1,093	229,726	114,673
319,910	1,067	229,603	114,581
320,925	1,010	229,342	114,398
321,939	1,060	229,332	114,420
322,954	1,228	229,077	114,410
323,968	1,104	228,936	114,235
324,983	1,090	228,763	114,128
325,997	1,102	228,610	114,051
327,012	0,897	228,504	113,833
328,027	1,111	228,372	113,919
329,041	0,937	228,462	113,822
330,056	0,993	228,126	113,686
331,070	1,053	227,980	113,649
332,085	0,935	227,819	113,470
333,100	1,109	227,633	113,498
334,114	1,126	227,452	113,411
335,129	1,062	227,429	113,341
336,143	1,080	227,320	113,290
337,158	1,108	227,225	113,254
338,173	1,205	226,932	113,170
339,187	1,100	226,821	113,026
340,202	1,306	226,630	113,075
341,216	1,161	226,518	112,900
342,231	1,052	226,388	112,744
343,246	1,382	226,195	112,885
344,260	1,139	226,096	112,644
345,275	1,148	225,990	112,587
346,289	1,157	225,777	112,478
347,304	1,187	225,693	112,449
348,319	1,163	225,498	112,323
349,333	1,210	225,379	112,289
350,348	1,147	225,279	112,183
351,362	1,080	225,051	112,009
352,377	1,302	224,957	112,117
353,392	1,422	224,841	112,138
354,406	1,286	224,641	111,928
355,421	192,369	1312,136	1379,273
356,435	154,074	1444,485	1379,115
