DTS Sentinel unit serial number:	SN410029Multiplexer serial number:	ORYXHardware model number:	OX2-SRSoftware version number:	ORYX F/W v4,00 Oryx Data Collector v3.7.2.0data status	okinstallation	B5 Nyhavnadifferential loss correction	single-endedforward channel	channel 2reverse channel	N/Adate	2023/12/14time	06:27:13forward acquisition time	300,00reverse acquisition time	0,00gamma	499,1914k internal	0,3158k external	0,3158temperature offset calibration	1,0000default loss term (dB/km)	0,3820temperature slope calibration	1,0000multiplexer offset coefficient	1,0000multiplexer slope coefficient	1,0000fibre end	0,00T internal ref (°C)	7,48T ext. ref 1 (°C)	-9,00T ext. ref 2 (°C)	-9,07length (m)	temperature (°C)	Stokes	anti-Stokes-744,400	30,797	0,185	0,117
-743,385	-100,393	-0,310	-0,056
-742,371	-26,964	0,170	0,073
-741,356	-72,569	-0,410	0,111
-740,342	272,094	0,133	0,174
-739,327	70,460	-0,227	-0,173
-738,312	-54,930	0,119	0,039
-737,298	-75,790	-0,371	-0,096
-736,283	70,769	0,180	-0,137
-735,269	-38,874	-0,291	-0,112
-734,254	800,000	0,088	0,285
-733,239	25,420	-0,478	-0,293
-732,225	-7,734	0,202	0,100
-731,210	175,324	-0,049	0,053
-730,196	-41,854	-0,057	0,021
-729,181	33,500	0,029	0,019
-728,167	-130,898	-0,094	0,009
-727,152	-200,000	-0,005	-0,081
-726,137	-200,000	-0,035	-0,123
-725,123	-200,000	-0,027	-0,146
-724,108	-10,597	-0,093	-0,045
-723,094	-200,000	-0,029	-0,111
-722,079	-0,369	-0,030	0,016
-721,064	-137,378	0,189	0,016
-720,050	-159,329	-0,163	-0,007
-719,035	-51,950	0,065	0,022
-718,021	109,811	-0,053	0,046
-717,006	-48,438	-0,108	-0,038
-715,991	-200,000	0,038	-0,147
-714,977	-109,422	0,079	-0,012
-713,962	-82,276	0,026	-0,006
-712,948	800,000	0,007	-0,016
-711,933	-62,269	-0,071	0,022
-710,918	-90,812	-0,028	-0,006
-709,904	75,760	-0,113	0,088
-708,889	-200,000	-0,027	0,127
-707,875	85,418	-0,073	-0,059
-706,860	800,000	-0,036	0,090
-705,845	-23,636	-0,095	0,042
-704,831	10,989	-0,090	0,050
-703,816	800,000	-0,031	-0,067
-702,802	75,610	-0,052	-0,040
-701,787	-36,021	-0,054	0,021
-700,772	342,048	-0,059	0,085
-699,758	-45,738	-0,144	-0,052
-698,743	800,000	0,037	0,088
-697,729	59,990	0,050	-0,036
-696,714	529,643	-0,039	0,069
-695,699	800,000	0,029	-0,070
-694,685	-20,710	-0,111	-0,050
-693,670	102,734	-0,068	-0,059
-692,656	-170,211	0,132	-0,003
-691,641	51,105	-0,116	0,081
-690,627	579,469	0,066	0,119
-689,612	-200,000	0,001	0,154
-688,597	800,000	-0,031	0,079
-687,583	-200,000	0,016	-0,121
-686,568	-88,611	-0,096	-0,021
-685,554	50,944	0,148	-0,103
-684,539	-25,835	-0,015	-0,006
-683,524	-200,000	0,003	0,083
-682,510	250,899	-0,022	0,028
-681,495	171,134	-0,063	-0,066
-680,481	-200,000	-0,010	-0,111
-679,466	-200,000	-0,017	0,124
-678,451	-94,190	-0,077	-0,015
-677,437	-115,928	-0,094	-0,013
-676,422	-179,118	0,122	-0,002
-675,408	-200,000	0,006	0,073
-674,393	0,049	-0,030	0,016
-673,378	800,000	0,032	-0,102
-672,364	-200,000	-0,036	-0,146
-671,349	-96,083	-0,092	-0,018
-670,335	800,000	-0,033	-0,094
-669,320	653,487	0,030	-0,057
-668,305	170,673	-0,023	-0,025
-667,291	-142,375	0,029	-0,002
-666,276	-137,189	-0,154	0,013
-665,262	-77,252	-0,132	-0,034
-664,247	6,238	-0,018	0,010
-663,232	-90,735	-0,138	0,029
-662,218	225,835	0,034	-0,040
-661,203	-200,000	-0,031	0,110
-660,189	-142,324	-0,081	0,006
-659,174	-112,797	-0,113	-0,016
-658,159	800,000	0,050	-0,139
-657,145	88,642	0,054	-0,044
-656,130	-120,650	0,008	-0,001
-655,116	493,234	0,032	-0,055
-654,101	52,257	0,041	0,029
-653,086	-200,000	0,014	-0,146
-652,072	32,306	-0,023	-0,014
-651,057	-200,000	0,031	-0,152
-650,043	-131,062	-0,010	0,001
-649,028	-22,877	-0,056	-0,025
-648,014	303,229	0,081	-0,111
-646,999	62,403	-0,083	-0,061
-645,984	-200,000	0,042	0,137
-644,970	645,799	-0,038	-0,072
-643,955	-200,000	0,015	-0,061
-642,941	654,927	0,063	-0,120
-641,926	-200,000	-0,004	-0,056
-640,911	-101,491	-0,030	-0,005
-639,897	-200,000	-0,002	-0,027
-638,882	-85,655	-0,081	-0,018
-637,868	533,111	-0,039	0,068
-636,853	-200,000	0,011	-0,073
-635,838	435,202	-0,055	-0,088
-634,824	205,601	-0,044	-0,051
-633,809	446,981	0,061	-0,099
-632,795	-142,325	0,034	-0,002
-631,780	800,000	-0,022	0,048
-630,765	76,880	-0,040	0,031
-629,751	31,138	0,034	-0,022
-628,736	-200,000	-0,009	-0,072
-627,722	14,619	-0,130	0,074
-626,707	-200,000	0,018	0,109
-625,692	-60,638	0,060	-0,019
-624,678	-200,000	0,014	0,112
-623,663	-200,000	0,015	0,051
-622,649	-200,000	-0,003	-0,040
-621,634	256,741	-0,057	0,072
-620,619	496,820	-0,020	-0,033
-619,605	5,161	-0,098	-0,053
-618,590	-92,392	0,175	0,036
-617,576	-178,237	0,097	-0,002
-616,561	-55,352	-0,074	-0,024
-615,546	-200,000	-0,025	0,093
-614,532	435,046	0,020	-0,031
-613,517	-200,000	0,009	0,078
-612,503	344,939	0,049	-0,071
-611,488	59,593	0,106	0,077
-610,474	537,433	-0,024	0,041
-609,459	48,256	-0,069	0,048
-608,444	-21,472	-0,020	0,009
-607,430	352,678	0,028	-0,040
-606,415	800,000	0,028	0,063
-605,401	-200,000	0,013	0,083
-604,386	-200,000	0,011	0,109
-603,371	108,081	0,023	-0,021
-602,357	800,000	-0,016	-0,032
-601,342	539,138	0,039	0,069
-600,328	266,560	-0,072	0,092
-599,313	357,309	-0,088	-0,130
-598,298	-200,000	0,010	-0,077
-597,284	800,000	0,012	0,031
-596,269	302,203	-0,104	0,141
-595,255	26,198	0,078	0,047
-594,240	-101,612	0,146	0,026
-593,225	800,000	-0,046	-0,095
-592,211	-4,105	-0,058	-0,030
-591,196	800,000	-0,041	0,088
-590,182	-200,000	-0,015	0,143
-589,167	105,085	-0,058	-0,050
-588,152	468,299	-0,055	0,090
-587,138	114,130	-0,064	0,057
-586,123	-1,542	0,098	-0,050
-585,109	576,153	-0,081	-0,145
-584,094	-9,592	-0,156	-0,076
-583,079	-128,246	0,125	-0,013
-582,065	-200,000	0,003	-0,043
-581,050	516,493	-0,078	0,134
-580,036	40,476	-0,070	0,046
-579,021	-200,000	-0,025	-0,121
-578,006	62,302	0,063	-0,046
-576,992	-200,000	-0,008	-0,042
-575,977	800,000	-0,039	0,109
-574,963	800,000	0,033	0,075
-573,948	-19,156	0,018	-0,008
-572,934	-40,844	0,039	0,015
-571,919	201,424	0,116	-0,131
-570,904	71,708	-0,095	-0,072
-569,890	800,000	0,072	-0,148
-568,875	-137,045	-0,051	0,004
-567,861	-200,000	0,028	0,152
-566,846	30,544	0,087	-0,055
-565,831	-200,000	-0,020	0,087
-564,817	-200,000	0,021	0,076
-563,802	15,168	-0,076	0,044
-562,788	43,684	0,111	-0,074
-561,773	23,682	0,078	-0,047
-560,758	138,459	-0,038	0,036
-559,744	-133,611	-0,089	0,008
-558,729	72,929	0,056	-0,043
-557,715	-102,800	0,108	0,019
-556,700	164,795	-0,088	0,091
-555,685	-200,000	0,008	-0,043
-554,671	-200,000	-0,004	-0,059
-553,656	143,017	0,096	0,094
-552,642	-200,000	0,042	-0,221
-551,627	-60,503	-0,090	-0,028
-550,612	-200,000	-0,041	-0,135
-549,598	235,017	-0,057	-0,069
-548,583	102,993	0,066	-0,056
-547,569	-22,219	0,129	-0,057
-546,554	21,070	0,084	-0,050
-545,539	731,437	-0,039	0,077
-544,525	-200,000	0,033	-0,152
-543,510	-139,990	-0,139	0,011
-542,496	-1,883	-0,119	0,061
-541,481	-200,000	0,010	0,053
-540,466	-31,233	-0,085	-0,035
-539,452	86,877	0,043	0,035
-538,437	429,648	0,045	-0,071
-537,423	-200,000	-0,029	0,099
-536,408	-12,962	0,030	-0,014
-535,393	-200,000	-0,030	-0,179
-534,379	421,120	-0,022	-0,035
-533,364	47,096	0,060	-0,041
-532,350	-140,334	0,017	-0,001
-531,335	-95,172	0,122	0,024
-530,321	86,587	0,050	0,041
-529,306	-200,000	-0,014	-0,068
-528,291	-200,000	-0,001	-0,107
-527,277	-200,000	-0,036	-0,137
-526,262	800,000	0,016	0,048
-525,248	777,529	0,067	0,134
-524,233	-18,442	0,073	-0,033
-523,218	-72,601	0,038	-0,010
-522,204	204,466	-0,087	0,099
-521,189	-200,000	0,007	-0,055
-520,175	-44,625	-0,124	-0,045
-519,160	800,000	-0,048	-0,146
-518,145	583,497	0,039	0,071
-517,131	-200,000	0,012	0,069
-516,116	16,415	-0,085	0,049
-515,102	-47,184	-0,144	0,051
-514,087	64,675	-0,101	0,074
-513,072	319,113	-0,048	-0,067
-512,058	-200,000	-0,011	-0,053
-511,043	-101,852	-0,054	-0,010
-510,029	-3,900	0,116	0,059
-509,014	-200,000	-0,001	0,048
-507,999	-99,596	-0,070	0,013
-506,985	0,431	0,123	-0,064
-505,970	-70,103	-0,099	-0,027
-504,956	-54,205	0,071	-0,023
-503,941	31,293	0,069	0,043
-502,926	390,902	0,064	-0,097
-501,912	338,657	0,021	-0,031
-500,897	-200,000	0,013	0,101
-499,883	800,000	0,036	-0,081
-498,868	-200,000	0,013	-0,113
-497,853	0,866	0,087	-0,046
-496,839	-161,465	0,112	-0,004
-495,824	608,144	-0,004	-0,007
-494,810	800,000	-0,061	-0,147
-493,795	-23,515	0,071	0,031
-492,781	-84,188	-0,060	-0,014
-491,766	371,956	0,050	-0,075
-490,751	-105,842	-0,258	-0,042
-489,737	228,944	0,033	0,039
-488,722	-40,816	0,147	-0,055
-487,708	232,205	0,057	-0,068
-486,693	128,397	-0,027	-0,025
-485,678	-200,000	-0,014	0,072
-484,664	17,101	-0,055	0,032
-483,649	-158,091	0,116	-0,005
-482,635	-16,702	0,041	0,019
-481,620	-150,126	-0,184	0,010
-480,605	393,831	-0,072	0,110
-479,591	-116,185	0,122	-0,016
-478,576	223,406	-0,084	0,099
-477,562	61,897	0,154	0,112
-476,547	-54,188	0,074	0,024
-475,532	-200,000	-0,004	-0,049
-474,518	800,000	0,040	-0,086
-473,503	-104,139	0,102	0,017
-472,489	-160,726	-0,039	0,001
-471,474	-112,662	0,012	-0,002
-470,459	-163,346	-0,221	0,008
-469,445	70,068	-0,109	-0,082
-468,430	-200,000	-0,014	-0,128
-467,416	-200,000	-0,015	-0,177
-466,401	-130,099	0,011	0,001
-465,386	800,000	0,032	0,092
-464,372	-155,522	0,103	-0,005
-463,357	-106,318	-0,075	0,012
-462,343	-61,857	-0,068	0,021
-461,328	-85,993	0,092	0,021
-460,313	800,000	0,052	0,112
-459,299	124,098	0,087	0,080
-458,284	-200,000	0,037	0,189
-457,270	-200,000	0,008	-0,108
-456,255	701,887	0,080	0,155
-455,241	17,452	-0,043	0,025
-454,226	-137,112	0,091	0,007
-453,211	-200,000	-0,004	0,118
-452,197	800,000	0,037	0,090
-451,182	-200,000	-0,007	0,026
-450,168	800,000	0,021	0,058
-449,153	-57,154	-0,080	0,026
-448,138	-200,000	0,022	-0,094
-447,124	16,845	-0,146	-0,084
-446,109	-122,181	0,153	0,018
-445,095	18,910	-0,019	0,011
-444,080	-200,000	0,017	-0,072
-443,065	29,730	-0,015	-0,010
-442,051	11,685	-0,127	-0,071
-441,036	155,544	-0,020	-0,020
-440,022	27,460	0,047	0,029
-439,007	-200,000	-0,017	-0,089
-437,992	800,000	0,031	-0,076
-436,978	800,000	-0,025	0,076
-435,963	800,000	-0,031	0,089
-434,949	559,492	-0,032	-0,056
-433,934	800,000	-0,033	-0,081
-432,919	385,354	0,015	0,023
-431,905	-54,952	-0,104	0,034
-430,890	-200,000	-0,003	-0,065
-429,876	-200,000	-0,010	0,107
-428,861	800,000	0,011	0,029
-427,846	800,000	0,078	0,178
-426,832	-75,925	0,074	-0,019
-425,817	-200,000	-0,028	0,095
-424,803	778,791	0,012	-0,023
-423,788	96,849	-0,055	-0,046
-422,773	-132,250	0,031	0,003
-421,759	128,335	0,061	0,057
-420,744	182,409	-0,106	0,114
-419,730	-9,646	-0,098	0,047
-418,715	-139,390	-0,098	0,008
-417,701	-200,000	0,024	-0,095
-416,686	-200,000	0,008	0,127
-415,671	108,924	0,139	0,121
-414,657	800,000	-0,031	0,066
-413,642	800,000	0,013	0,028
-412,628	92,613	-0,039	0,032
-411,613	-200,000	-0,014	-0,091
-410,598	-200,000	-0,001	-0,020
-409,584	-200,000	-0,036	-0,119
-408,569	201,924	0,055	0,062
-407,555	-200,000	0,008	0,039
-406,540	-200,000	-0,015	0,072
-405,525	800,000	0,042	-0,129
-404,511	-200,000	0,022	-0,078
-403,496	436,931	-0,085	-0,135
-402,482	186,818	-0,028	0,031
-401,467	772,862	-0,055	0,110
-400,452	-26,099	0,033	0,014
-399,438	356,819	-0,046	0,067
-398,423	-36,940	0,037	-0,014
-397,409	12,136	-0,072	-0,040
-396,394	-200,000	-0,030	-0,103
-395,379	-200,000	-0,001	0,170
-394,365	607,734	0,078	0,142
-393,350	-76,924	-0,020	0,005
-392,336	-200,000	-0,015	0,089
-391,321	107,368	0,056	-0,048
-390,306	800,000	-0,032	-0,084
-389,292	-157,063	-0,166	-0,007
-388,277	10,482	0,108	0,060
-387,263	166,675	-0,069	-0,071
-386,248	141,123	-0,076	0,073
-385,233	-198,682	0,031	-0,000
-384,219	186,329	0,042	0,045
-383,204	692,523	-0,013	-0,025
-382,190	-200,000	0,031	-0,182
-381,175	354,716	-0,088	-0,128
-380,160	584,773	-0,040	-0,072
-379,146	800,000	-0,042	0,108
-378,131	-97,192	0,069	0,013
-377,117	605,083	-0,050	0,091
-376,102	-119,100	-0,006	0,001
-375,088	173,096	-0,023	0,024
-374,073	170,739	0,117	-0,122
-373,058	243,028	-0,099	0,121
-372,044	-200,000	0,003	0,024
-371,029	-200,000	-0,018	-0,073
-370,015	-71,583	0,112	-0,030
-369,000	151,801	-0,126	-0,125
-367,985	22,867	-0,161	-0,096
-366,971	341,599	0,034	0,048
-365,956	-200,000	-0,035	0,171
-364,942	97,135	0,091	-0,075
-363,927	-14,111	0,120	0,056
-362,912	54,066	0,020	-0,014
-361,898	153,669	-0,041	0,040
-360,883	-160,426	0,139	-0,005
-359,869	800,000	0,019	0,046
-358,854	595,746	0,038	-0,068
-357,839	-200,000	0,035	-0,147
-356,825	106,408	-0,104	-0,090
-355,810	137,936	0,048	-0,046
-354,796	-200,000	-0,094	0,000
-353,781	-200,000	0,018	-0,148
-352,766	800,000	-0,056	0,132
-351,752	10,066	-0,030	-0,017
-350,737	356,883	0,130	0,189
-349,723	-18,448	0,065	0,029
-348,708	-200,000	-0,004	-0,044
-347,693	148,225	-0,023	-0,023
-346,679	-200,000	-0,004	-0,026
-345,664	-200,000	0,008	-0,057
-344,650	-51,124	0,067	0,023
-343,635	26,559	0,049	0,030
-342,620	-137,706	-0,049	-0,004
-341,606	-94,050	0,088	-0,017
-340,591	800,000	-0,060	-0,121
-339,577	-80,054	-0,128	0,031
-338,562	-56,031	0,069	0,022
-337,548	-121,878	-0,065	0,008
-336,533	37,635	0,109	0,070
-335,518	800,000	-0,047	0,114
-334,504	-52,198	-0,116	0,039
-333,489	-200,000	0,015	-0,065
-332,475	536,825	-0,076	0,132
-331,460	454,005	-0,034	-0,055
-330,445	52,835	-0,015	0,011
-329,431	-51,833	0,014	-0,005
-328,416	-80,394	-0,070	-0,017
-327,402	27,606	-0,090	0,055
-326,387	-59,716	-0,153	0,047
-325,372	-117,487	-0,178	0,023
-324,358	-28,959	-0,021	-0,009
-323,343	545,334	0,083	0,145
-322,329	800,000	0,030	0,085
-321,314	127,424	-0,082	-0,076
-320,299	1,220	0,080	0,042
-319,285	282,643	0,085	0,110
-318,270	-16,453	0,073	0,033
-317,256	-45,437	-0,176	-0,063
-316,241	313,085	-0,088	-0,121
-315,226	-200,000	0,001	0,049
-314,212	136,280	0,036	-0,034
-313,197	275,817	-0,057	-0,074
-312,183	32,673	0,068	0,042
-311,168	-200,000	-0,007	-0,194
-310,153	168,050	-0,048	-0,050
-309,139	-32,195	0,066	-0,027
-308,124	141,389	0,066	0,063
-307,110	-121,775	-0,028	-0,003
-306,095	-101,375	0,075	0,013
-305,080	-165,714	-0,091	0,003
-304,066	-119,560	-0,140	0,017
-303,051	492,572	0,050	-0,084
-302,037	-78,116	-0,139	-0,034
-301,022	12,077	0,063	0,035
-300,008	-200,000	0,020	0,103
-298,993	643,992	0,041	-0,075
-297,978	800,000	0,095	-0,196
-296,964	-102,593	0,028	-0,005
-295,949	-139,508	-0,012	-0,001
-294,935	-60,688	-0,013	0,004
-293,920	-44,102	0,076	-0,028
-292,905	43,425	-0,126	0,083
-291,891	308,523	0,054	0,073
-290,876	-182,509	0,123	0,002
-289,862	344,558	-0,057	-0,081
-288,847	-79,006	-0,083	0,020
-287,832	800,000	-0,026	-0,076
-286,818	-89,533	0,124	0,026
-285,803	-53,886	-0,070	0,023
-284,789	-200,000	-0,014	0,126
-283,774	800,000	0,038	0,084
-282,759	-45,028	0,047	0,017
-281,745	800,000	0,062	-0,124
-280,730	800,000	0,027	-0,080
-279,716	278,817	-0,104	0,134
-278,701	-200,000	-0,002	0,039
-277,686	10,067	0,131	0,072
-276,672	-66,688	-0,053	0,015
-275,657	59,076	-0,039	-0,028
-274,643	214,868	-0,085	-0,098
-273,628	-46,343	0,120	-0,042
-272,613	8,067	-0,078	-0,042
-271,599	72,920	0,060	-0,045
-270,584	134,067	0,051	-0,048
-269,570	800,000	-0,036	-0,093
-268,555	-200,000	0,009	-0,091
-267,540	86,441	0,015	0,012
-266,526	209,198	0,033	0,037
-265,511	800,000	0,041	0,114
-264,497	-137,855	0,050	0,004
-263,482	-85,798	0,105	0,023
-262,467	-200,000	-0,002	-0,035
-261,453	31,564	0,083	-0,052
-260,438	166,117	-0,032	0,032
-259,424	244,578	0,092	0,113
-258,409	-200,000	0,001	-0,074
-257,395	667,740	0,045	-0,084
-256,380	360,051	-0,071	0,104
-255,365	7,370	0,026	0,014
-254,351	-47,598	0,118	0,041
-253,336	-102,010	-0,199	0,034
-252,322	161,343	0,038	0,038
-251,307	582,902	0,026	-0,047
-250,292	98,197	-0,111	0,093
-249,278	27,964	0,126	-0,076
-248,263	360,434	0,033	-0,048
-247,249	-82,589	-0,038	0,009
-246,234	350,499	-0,125	0,179
-245,219	59,654	0,075	0,053
-244,205	155,990	-0,011	-0,011
-243,190	-40,622	0,041	0,015
-242,176	-21,089	0,189	0,083
-241,161	-200,000	0,003	0,059
-240,146	-98,310	-0,079	-0,014
-239,132	-200,000	0,001	0,019
-238,117	-200,000	-0,021	-0,076
-237,103	-44,958	0,049	0,017
-236,088	800,000	-0,032	-0,071
-235,073	-114,079	-0,075	0,010
-234,059	-200,000	0,002	-0,022
-233,044	126,412	0,085	0,078
-232,030	800,000	0,053	0,120
-231,015	-65,394	0,203	-0,059
-230,000	384,929	-0,121	-0,181
-228,986	-77,694	0,110	-0,027
-227,971	33,447	0,077	0,048
-226,957	-27,783	0,079	0,033
-225,942	-200,000	0,003	0,132
-224,927	-200,000	-0,013	0,101
-223,913	-111,081	-0,024	-0,003
-222,898	145,657	-0,064	-0,062
-221,884	148,281	-0,076	-0,075
-220,869	800,000	-0,021	0,052
-219,855	131,055	0,068	-0,063
-218,840	-109,580	0,095	0,014
-217,825	185,192	-0,066	0,070
-216,811	142,807	-0,042	-0,041
-215,796	-200,000	0,013	0,088
-214,782	476,352	0,088	-0,144
-213,767	641,582	-0,036	0,067
-212,752	149,931	-0,073	-0,071
-211,738	359,835	-0,048	0,070
-210,723	7,042	0,175	0,094
-209,709	-200,000	0,030	-0,125
-208,694	112,556	-0,032	-0,028
-207,679	-93,584	0,062	0,012
-206,665	-51,336	-0,100	0,034
-205,650	-46,356	-0,015	0,005
-204,636	472,305	0,066	0,108
-203,621	-122,758	0,134	-0,015
-202,606	71,635	-0,155	-0,116
-201,592	104,405	0,047	-0,040
-200,577	-42,583	-0,212	-0,078
-199,563	-105,939	0,125	0,020
-198,548	800,000	-0,037	0,076
-197,533	-98,351	0,073	-0,013
-196,519	-140,217	-0,073	-0,005
-195,504	169,946	-0,067	0,070
-194,490	-35,299	-0,112	-0,044
-193,475	147,023	0,066	0,064
-192,460	-200,000	-0,010	0,105
-191,446	-200,000	0,031	0,136
-190,431	69,052	0,079	-0,059
-189,417	98,266	0,103	0,085
-188,402	800,000	-0,016	0,037
-187,387	176,885	-0,057	-0,060
-186,373	-200,000	0,005	-0,229
-185,358	449,858	0,052	-0,083
-184,344	-135,659	0,128	0,011
-183,329	-136,356	0,065	-0,005
-182,315	-200,000	0,007	-0,127
-181,300	354,455	-0,028	-0,040
-180,285	113,648	-0,041	-0,036
-179,271	157,586	-0,038	-0,038
-178,256	724,625	0,077	0,149
-177,242	-151,691	-0,224	-0,012
-176,227	-139,947	0,002	-0,000
-175,212	0,731	0,090	0,046
-174,198	-1,515	-0,109	-0,055
-173,183	-80,958	-0,068	-0,016
-172,169	-187,849	-0,140	0,001
-171,154	230,352	0,074	-0,087
-170,139	-200,000	-0,018	-0,105
-169,125	800,000	-0,033	0,085
-168,110	65,343	0,069	-0,050
-167,096	800,000	-0,036	0,087
-166,081	-146,731	-0,067	-0,004
-165,066	0,864	-0,080	-0,041
-164,052	-200,000	0,025	0,083
-163,037	100,630	-0,014	-0,012
-162,023	209,696	0,107	-0,121
-161,008	137,701	0,106	0,100
-159,993	15,149	0,055	-0,031
-158,979	-73,130	0,019	0,005
-157,964	-200,000	0,001	0,063
-156,950	97,170	-0,042	-0,035
-155,935	-121,118	0,104	-0,012
-154,920	261,813	-0,096	0,120
-153,906	308,235	0,048	0,065
-152,891	-200,000	-0,014	0,063
-151,877	800,000	-0,007	0,018
-150,862	-66,273	-0,098	-0,028
-149,847	11,003	-0,144	-0,079
-148,833	158,461	0,070	0,070
-147,818	753,242	-0,037	-0,072
-146,804	-200,000	0,001	-0,151
-145,789	-200,000	0,017	0,071
-144,775	800,000	0,030	-0,066
-143,760	-141,213	-0,108	-0,008
-142,745	-32,051	-0,092	0,037
-141,731	484,726	0,110	-0,182
-140,716	91,888	0,052	0,042
-139,702	39,339	0,078	0,050
-138,687	-56,288	0,149	0,047
-137,672	-200,000	0,018	0,200
-136,658	-77,128	-0,079	-0,020
-135,643	800,000	-0,061	0,149
-134,629	-200,000	0,022	0,151
-133,614	-200,000	0,010	0,042
-132,599	365,678	0,059	0,085
-131,585	800,000	0,011	0,028
-130,570	-101,801	-0,093	-0,016
-129,556	-200,000	-0,019	-0,082
-128,541	176,909	0,057	-0,060
-127,526	241,027	-0,027	-0,032
-126,512	-200,000	0,035	0,143
-125,497	-200,000	0,021	0,070
-124,483	800,000	0,019	0,046
-123,468	800,000	0,033	0,073
-122,453	-200,000	-0,001	0,074
-121,439	-24,733	-0,127	0,054
-120,424	323,358	-0,028	-0,038
-119,410	800,000	-0,017	-0,042
-118,395	182,949	0,043	0,046
-117,380	-54,577	0,081	0,026
-116,366	319,901	-0,038	-0,052
-115,351	319,717	0,099	-0,135
-114,337	800,000	-0,031	-0,076
-113,322	-116,238	-0,088	0,012
-112,307	800,000	-0,013	-0,033
-111,293	-152,453	0,061	0,003
-110,278	-33,132	-0,058	0,023
-109,264	-200,000	-0,057	-0,191
-108,249	409,805	0,026	0,040
-107,234	385,118	0,019	-0,029
-106,220	-110,806	-0,119	0,017
-105,205	-85,475	0,093	0,021
-104,191	471,547	-0,123	0,200
-103,176	514,097	0,099	0,166
-102,162	-53,820	0,064	-0,021
-101,147	5,758	-0,028	-0,015
-100,132	324,771	-0,065	-0,090
-99,118	1,053	0,086	0,044
-98,103	-48,319	0,073	-0,025
-97,089	732,097	-0,037	-0,071
-96,074	-133,191	0,163	-0,015
-95,059	786,906	-0,051	0,101
-94,045	0,908	-0,004	-0,002
-93,030	431,803	-0,041	0,064
-92,016	800,000	-0,113	-0,229
-91,001	-200,000	0,020	-0,135
-89,986	59,829	0,133	0,094
-88,972	-200,000	-0,006	-0,021
-87,957	-200,000	-0,003	0,029
-86,943	-30,301	0,171	0,069
-85,928	-200,000	-0,019	-0,165
-84,913	-200,000	-0,043	-0,137
-83,899	145,351	-0,010	0,010
-82,884	-34,386	0,186	0,073
-81,870	142,425	0,025	0,024
-80,855	-143,258	-0,131	-0,009
-79,840	-200,000	-0,030	0,101
-78,826	-200,000	0,000	0,090
-77,811	-40,477	-0,028	-0,010
-76,797	405,225	0,063	-0,095
-75,782	-158,668	-0,098	0,004
-74,767	378,578	-0,032	0,048
-73,753	99,398	0,042	-0,035
-72,738	-8,910	-0,063	0,030
-71,724	27,588	-0,072	0,044
-70,709	-40,522	-0,098	-0,036
-69,694	800,000	0,009	0,022
-68,680	-44,689	0,104	0,037
-67,665	638,881	-0,067	-0,124
-66,651	-107,095	-0,145	-0,023
-65,636	56,294	-0,139	0,097
-64,622	542,455	0,060	-0,103
-63,607	64,814	-0,051	-0,037
-62,592	-200,000	-0,002	-0,074
-61,578	8,298	0,120	0,064
-60,563	67,832	0,029	-0,021
-59,549	-200,000	0,011	0,102
-58,534	72,174	-2,740	-2,046
-57,519	7,369	0,470	-0,251
-56,505	800,000	-1,720	-5,404
-55,490	662,305	1,145	2,128
-54,476	800,000	5,277	11,313
-53,461	-200,000	22,769	348,984
-52,446	800,000	763,521	2277,999
-51,432	503,664	1644,763	2740,534
-50,417	94,459	1603,662	1306,669
-49,403	62,668	1260,810	903,349
-48,388	21,929	1013,004	591,112
-47,373	18,859	980,559	562,071
-46,359	12,354	967,313	533,274
-45,344	8,121	964,193	517,729
-44,330	8,513	962,135	517,884
-43,315	7,574	960,241	513,788
-42,300	7,514	959,329	513,084
-41,286	7,546	958,286	512,610
-40,271	7,504	957,187	511,864
-39,257	7,559	956,446	511,628
-38,242	7,575	955,302	511,047
-37,227	7,491	954,799	510,486
-36,213	7,519	953,912	510,079
-35,198	7,532	952,937	509,580
-34,184	7,588	952,299	509,399
-33,169	7,470	951,512	508,577
-32,154	7,520	950,590	508,227
-31,140	7,532	949,689	507,763
-30,125	7,583	948,816	507,442
-29,111	7,550	948,105	506,935
-28,096	7,565	947,518	506,650
-27,082	7,506	946,953	506,136
-26,067	7,452	946,188	505,536
-25,052	7,456	945,330	505,069
-24,038	7,519	944,390	504,749
-23,023	7,454	944,025	504,326
-22,009	7,460	943,294	503,935
-20,994	7,579	942,672	503,963
-19,979	7,501	942,070	503,372
-18,965	7,467	941,553	502,966
-17,950	7,499	940,831	502,662
-16,936	7,463	940,169	502,176
-15,921	7,484	939,373	501,797
-14,906	7,429	938,855	501,326
-13,892	7,454	938,072	500,966
-12,877	7,390	937,554	500,466
-11,863	7,409	936,903	500,161
-10,848	7,451	936,410	500,010
-9,833	7,478	935,993	499,854
-8,819	7,402	935,337	499,241
-7,804	7,356	934,672	498,723
-6,790	7,381	934,118	498,485
-5,775	7,432	933,596	498,348
-4,760	7,460	933,098	498,153
-3,746	7,428	932,345	497,629
-2,731	7,288	931,713	496,830
-1,717	7,248	931,246	496,436
-0,702	7,220	930,448	495,902
0,313	7,046	929,768	495,739
1,327	10,438	927,231	504,991
2,342	18,795	775,425	444,097
3,356	13,671	444,844	247,082
4,371	-12,234	310,423	145,046
5,386	-15,961	293,151	133,218
6,400	-18,088	287,062	128,345
7,415	-18,137	284,448	127,117
8,429	-18,833	282,653	125,629
9,444	-18,807	281,800	125,264
10,459	-18,777	281,239	125,033
11,473	-18,728	280,508	124,743
12,488	-18,749	280,028	124,499
13,502	-18,930	279,747	124,189
14,517	-18,651	279,136	124,173
15,531	-18,679	278,800	123,986
16,546	-18,497	278,336	123,943
17,561	-18,536	278,011	123,749
18,575	-18,356	277,735	123,787
19,590	-18,592	277,533	123,461
20,604	-18,214	276,910	123,531
21,619	-18,572	276,770	123,119
22,634	-18,446	276,274	123,006
23,648	-18,619	276,159	122,780
24,663	-18,523	275,883	122,737
25,677	-18,270	275,534	122,810
26,692	-18,555	275,286	122,420
27,707	-18,465	274,942	122,341
28,721	-18,421	274,692	122,260
29,736	-18,470	274,696	122,205
30,750	-18,545	274,223	121,913
31,765	-18,554	273,966	121,780
32,780	-18,578	273,736	121,644
33,794	-18,555	273,685	121,632
34,809	-18,377	273,080	121,519
35,823	-18,435	272,808	121,333
36,838	-18,403	272,612	121,264
37,853	-18,357	272,458	121,229
38,867	-18,346	272,105	121,071
39,882	-18,509	271,944	120,837
40,896	-18,408	271,656	120,792
41,911	-18,284	271,365	120,766
42,926	-18,457	271,256	120,547
43,940	-18,410	270,768	120,362
44,955	-18,312	270,720	120,421
45,969	-18,427	270,630	120,264
46,984	-18,224	270,319	120,303
47,999	-18,325	270,107	120,105
49,013	-18,265	270,014	120,108
50,028	-18,259	269,585	119,912
51,042	-18,279	269,463	119,828
52,057	-18,186	269,303	119,832
53,071	-18,346	269,112	119,589
54,086	-18,156	268,735	119,586
55,101	-18,419	268,633	119,288
56,115	-18,279	268,253	119,237
57,130	-18,274	267,916	119,081
58,144	-18,461	267,590	118,754
59,159	-18,479	267,393	118,641
60,174	-18,591	267,294	118,484
61,188	-18,404	266,991	118,509
62,203	-18,448	266,784	118,367
63,217	-18,445	266,726	118,333
64,232	-18,455	266,316	118,132
65,247	-18,411	266,087	118,060
66,261	-18,482	265,866	117,886
67,276	-18,201	265,632	118,027
68,290	-18,457	265,454	117,706
69,305	-18,406	265,234	117,644
70,320	-18,412	265,017	117,531
71,334	-18,409	264,889	117,467
72,349	-18,402	264,591	117,330
73,363	-18,309	264,261	117,257
74,378	-18,546	263,874	116,863
75,393	-18,445	263,760	116,892
76,407	-18,298	263,752	117,010
77,422	-18,268	263,568	116,945
78,436	-18,499	263,139	116,537
79,451	-18,426	262,895	116,484
80,466	-18,373	262,747	116,456
81,480	-18,278	262,509	116,425
82,495	-18,544	262,391	116,124
83,509	-18,332	262,182	116,211
84,524	-18,266	261,937	116,150
85,539	-18,062	261,647	116,194
86,553	-18,332	261,709	115,970
87,568	-18,464	261,492	115,746
88,582	-18,090	260,994	115,848
89,597	-18,454	260,933	115,487
90,611	-18,385	260,646	115,411
91,626	-18,357	260,461	115,343
92,641	-18,377	260,362	115,271
93,655	-18,424	260,071	115,091
94,670	-18,247	259,825	115,128
95,684	-18,421	259,671	114,896
96,699	-18,395	259,375	114,777
97,714	-18,261	259,184	114,801
98,728	-18,412	259,119	114,629
99,743	-18,285	259,022	114,688
100,757	-18,243	258,650	114,550
101,772	-18,266	258,430	114,421
102,787	-18,475	258,098	114,081
103,801	-18,400	258,041	114,111
104,816	-18,404	257,732	113,961
105,830	-18,218	257,453	113,991
106,845	-18,399	257,441	113,816
107,860	-18,242	257,179	113,827
108,874	-18,441	257,050	113,587
109,889	-18,382	256,729	113,486
110,903	-18,450	256,512	113,321
111,918	-18,213	256,316	113,430
112,933	-18,365	256,218	113,244
113,947	-18,168	255,966	113,295
114,962	-18,405	255,776	112,994
115,976	-18,392	255,605	112,921
116,991	-18,489	255,455	112,760
118,006	-18,348	255,176	112,749
119,020	-18,473	255,114	112,603
120,035	-18,429	254,955	112,560
121,049	-18,412	254,759	112,479
122,064	-18,341	254,472	112,404
123,079	-18,432	254,263	112,223
124,093	-18,271	254,093	112,277
125,108	-18,217	253,893	112,224
126,122	-18,306	253,560	111,991
127,137	-18,267	253,631	112,046
128,151	-18,117	253,318	112,027
129,166	-18,152	253,111	111,895
130,181	-18,139	252,811	111,763
131,195	-18,193	252,613	111,620
132,210	-18,418	252,512	111,372
133,224	-18,140	252,120	111,427
134,239	-18,320	251,996	111,209
135,254	-18,199	251,776	111,205
136,268	-18,212	251,762	111,178
137,283	-18,000	251,432	111,203
138,297	-18,243	251,380	110,963
139,312	-18,213	251,145	110,875
140,327	-18,404	250,956	110,620
141,341	-18,319	250,726	110,580
142,356	-18,164	250,406	110,560
143,370	-18,570	250,250	110,137
144,385	-18,318	250,019	110,240
145,400	-18,350	249,826	110,117
146,414	-18,359	249,746	110,065
147,429	-18,206	249,597	110,119
148,443	-18,115	249,265	110,040
149,458	-18,154	249,131	109,937
150,473	-18,473	249,012	109,606
151,487	-18,280	248,709	109,625
152,502	-18,145	248,603	109,683
153,516	-18,351	248,394	109,407
154,531	-18,338	248,250	109,346
155,546	-18,480	248,125	109,161
156,560	-18,398	247,788	109,072
157,575	-18,308	247,758	109,124
158,589	-18,289	247,457	108,998
159,604	-18,270	247,267	108,920
160,619	-18,224	247,039	108,849
161,633	-18,292	246,942	108,740
162,648	-18,371	246,839	108,619
163,662	-18,200	246,449	108,580
164,677	-18,384	246,533	108,453
165,692	-18,206	246,104	108,403
166,706	-18,364	246,097	108,259
167,721	-18,247	245,810	108,220
168,735	-18,272	245,831	108,199
169,750	-18,298	245,562	108,049
170,764	-17,961	245,410	108,253
171,779	-18,370	245,229	107,824
172,794	-18,156	245,065	107,920
173,808	-18,272	244,963	107,769
174,823	-18,042	244,787	107,872
175,837	-18,135	244,529	107,673
176,852	-18,216	244,505	107,585
177,867	-18,105	244,083	107,481
178,881	-18,192	244,119	107,415
179,896	-18,313	243,953	107,234
180,910	-18,227	243,642	107,158
181,925	-18,334	243,418	106,962
182,940	-18,102	243,240	107,065
183,954	-18,116	243,167	107,012
184,969	-18,219	242,966	106,829
185,983	-18,182	242,781	106,768
186,998	-18,165	242,648	106,715
188,013	-18,184	242,414	106,586
189,027	-18,410	242,079	106,245
190,042	-18,293	241,915	106,259
191,056	-18,315	241,937	106,242
192,071	-18,298	241,706	106,144
193,086	-18,274	241,428	106,032
194,100	-18,350	241,363	105,933
195,115	-18,314	241,182	105,873
196,129	-18,059	240,837	105,920
197,144	-18,241	240,725	105,713
198,159	-18,259	240,600	105,633
199,173	-18,412	240,425	105,424
200,188	-18,351	240,342	105,427
201,202	-18,402	240,254	105,337
202,217	-18,017	239,854	105,465
203,232	-18,051	239,638	105,333
204,246	-18,342	239,482	105,019
205,261	-18,407	239,152	104,813
206,275	-16,986	239,759	106,218
207,290	-12,710	241,444	110,432
208,304	-5,998	243,386	116,802
209,319	-2,151	244,520	120,490
210,334	-0,837	244,562	121,576
211,348	-0,268	244,736	122,117
212,363	0,227	244,702	122,495
213,377	0,327	244,644	122,536
214,392	0,314	244,701	122,544
215,407	0,717	244,622	122,823
216,421	1,145	244,517	123,108
217,436	1,004	244,273	122,860
218,450	1,165	244,162	122,924
219,465	1,218	244,024	122,886
220,480	1,160	243,891	122,761
221,494	1,061	243,705	122,576
222,509	0,808	243,480	122,246
223,523	0,746	243,154	122,022
224,538	0,405	242,998	121,656
225,553	0,596	242,770	121,686
226,567	0,455	242,584	121,468
227,582	0,574	242,501	121,511
228,596	0,372	242,478	121,326
229,611	0,623	242,246	121,401
230,626	0,625	242,089	121,314
231,640	0,405	241,871	121,016
232,655	0,195	241,738	120,769
233,669	0,586	241,458	120,934
234,684	0,405	241,307	120,701
235,699	0,479	241,261	120,727
236,713	0,577	241,108	120,719
237,728	0,426	240,990	120,528
238,742	0,393	240,782	120,387
239,757	0,422	240,556	120,286
240,772	0,462	240,453	120,256
241,786	0,415	240,356	120,159
242,801	0,394	240,103	120,005
243,815	0,550	239,907	120,021
244,830	0,446	239,769	119,858
245,844	0,555	239,694	119,897
246,859	0,430	239,687	119,783
247,874	0,466	239,241	119,578
248,888	0,471	239,087	119,494
249,903	0,324	238,929	119,288
250,917	0,627	238,806	119,457
251,932	0,509	238,897	119,398
252,947	0,562	238,508	119,235
253,961	0,458	238,374	119,075
254,976	0,376	238,264	118,944
255,990	0,685	238,055	119,074
257,005	0,566	237,851	118,867
258,020	0,487	237,968	118,852
259,034	0,680	237,641	118,831
260,049	0,580	237,557	118,699
261,063	0,593	237,386	118,614
262,078	0,457	237,298	118,452
263,093	0,646	236,930	118,407
264,107	0,482	236,847	118,225
265,122	0,576	236,749	118,240
266,136	0,560	236,565	118,124
267,151	0,438	236,413	117,943
268,166	0,449	236,314	117,891
269,180	0,391	236,050	117,703
270,195	0,362	235,963	117,627
271,209	0,577	235,747	117,677
272,224	0,628	235,551	117,609
273,239	0,594	235,468	117,530
274,253	0,467	235,352	117,362
275,268	0,347	235,186	117,176
276,282	0,518	235,052	117,231
277,297	0,456	234,833	117,063
278,312	0,530	234,769	117,079
279,326	0,471	234,436	116,856
280,341	0,774	234,384	117,056
281,355	0,539	234,301	116,821
282,370	0,723	234,071	116,839
283,384	0,575	234,030	116,693
284,399	0,570	233,930	116,630
285,414	0,401	233,650	116,348
286,428	0,459	233,520	116,318
287,443	0,605	233,419	116,370
288,457	0,714	233,147	116,309
289,472	0,550	233,067	116,131
290,487	0,584	232,946	116,087
291,501	0,457	232,824	115,918
292,516	0,603	232,580	115,899
293,530	0,574	232,546	115,849
294,545	0,563	232,473	115,794
295,560	0,621	232,160	115,673
296,574	0,558	232,072	115,570
297,589	0,764	231,807	115,586
298,603	0,989	231,522	115,606
299,618	0,656	231,565	115,362
300,633	0,713	231,639	115,432
301,647	0,735	231,388	115,314
302,662	0,977	231,211	115,400
303,676	1,049	230,947	115,314
304,691	1,024	230,949	115,286
305,706	0,785	230,766	115,001
306,720	0,759	230,530	114,853
307,735	0,695	230,663	114,860
308,749	0,769	230,397	114,774
309,764	0,818	230,128	114,667
310,779	0,826	230,133	114,666
311,793	0,994	229,784	114,609
312,808	0,953	229,681	114,517
313,822	0,768	229,471	114,261
314,837	0,891	229,379	114,298
315,852	0,745	229,388	114,181
316,866	0,975	229,143	114,224
317,881	0,734	229,035	113,977
318,895	0,833	228,902	113,976
319,910	0,716	228,669	113,761
320,925	0,708	228,550	113,685
321,939	0,689	228,475	113,624
322,954	1,050	228,355	113,828
323,968	0,745	228,122	113,471
324,983	0,805	228,105	113,497
325,997	0,984	227,907	113,523
327,012	0,734	227,699	113,222
328,027	0,824	227,547	113,203
329,041	0,908	227,307	113,137
330,056	0,930	227,207	113,094
331,070	0,886	227,127	113,011
332,085	1,048	226,924	113,022
333,100	0,787	226,932	112,819
334,114	0,782	226,607	112,644
335,129	0,965	226,412	112,674
336,143	1,087	226,272	112,686
337,158	1,140	226,244	112,701
338,173	0,823	226,163	112,414
339,187	1,125	225,802	112,450
340,202	1,054	225,811	112,391
341,216	1,040	225,595	112,264
342,231	1,075	225,472	112,218
343,246	0,647	225,492	111,900
344,260	0,721	225,298	111,848
345,275	0,945	225,124	111,918
346,289	1,029	224,985	111,902
347,304	0,953	224,715	111,700
348,319	1,031	224,662	111,723
349,333	0,964	224,500	111,582
350,348	0,777	224,303	111,336
351,362	1,276	224,038	111,564
352,377	0,969	224,099	111,357
353,392	1,079	224,041	111,399
354,406	0,997	223,789	111,204
355,421	192,804	1310,372	1377,733
356,435	154,422	1442,605	1377,567
