DTS Sentinel unit serial number:	SN410029Multiplexer serial number:	ORYXHardware model number:	OX2-SRSoftware version number:	ORYX F/W v4,00 Oryx Data Collector v3.7.2.0data status	okinstallation	B5 Nyhavnadifferential loss correction	single-endedforward channel	channel 2reverse channel	N/Adate	2023/12/12time	18:27:13forward acquisition time	300,00reverse acquisition time	0,00gamma	499,1914k internal	0,3157k external	0,3157temperature offset calibration	1,0000default loss term (dB/km)	0,3820temperature slope calibration	1,0000multiplexer offset coefficient	1,0000multiplexer slope coefficient	1,0000fibre end	0,00T internal ref (°C)	15,62T ext. ref 1 (°C)	-0,90T ext. ref 2 (°C)	-1,19length (m)	temperature (°C)	Stokes	anti-Stokes-744,400	50,367	0,122	-0,085
-743,385	-51,678	-0,344	-0,118
-742,371	-92,117	0,209	-0,043
-741,356	-173,113	-0,254	-0,006
-740,342	-200,000	0,015	0,149
-739,327	-92,939	-0,299	-0,061
-738,312	437,321	0,042	0,067
-737,298	18,499	-0,250	0,147
-736,283	41,644	0,078	-0,052
-735,269	-181,455	-0,254	-0,004
-734,254	-200,000	0,039	0,172
-733,239	-105,694	-0,482	-0,080
-732,225	35,255	0,140	0,090
-731,210	125,308	0,041	-0,039
-730,196	-46,768	0,010	-0,004
-729,181	767,732	0,015	0,029
-728,167	-200,000	-0,001	-0,009
-727,152	180,044	-0,057	-0,062
-726,137	-32,007	0,062	-0,026
-725,123	-47,638	-0,100	-0,036
-724,108	-200,000	-0,035	-0,210
-723,094	-200,000	0,044	-0,184
-722,079	800,000	0,034	-0,094
-721,064	262,773	0,020	0,026
-720,050	377,896	-0,033	0,050
-719,035	-72,674	-0,044	0,012
-718,021	-200,000	-0,026	-0,101
-717,006	23,973	-0,050	-0,030
-715,991	-41,286	-0,196	-0,074
-714,977	-200,000	0,009	-0,125
-713,962	-145,731	-0,083	0,005
-712,948	-200,000	-0,021	0,095
-711,933	447,011	0,051	-0,082
-710,918	223,457	0,054	-0,064
-709,904	193,457	-0,054	-0,060
-708,889	-38,872	-0,130	-0,050
-707,875	268,767	-0,060	-0,077
-706,860	-120,468	-0,145	-0,018
-705,845	-1,886	0,163	-0,084
-704,831	403,462	0,020	-0,031
-703,816	-52,678	-0,238	0,081
-702,802	-88,980	-0,082	0,018
-701,787	-124,594	-0,097	0,011
-700,772	156,753	-0,025	-0,025
-699,758	-200,000	-0,021	0,100
-698,743	-69,146	-0,103	0,029
-697,729	-83,227	0,122	0,029
-696,714	50,608	0,096	0,067
-695,699	15,354	-0,146	-0,084
-694,685	-200,000	0,037	-0,140
-693,670	-147,781	-0,133	0,008
-692,656	800,000	-0,037	0,089
-691,641	-20,948	0,046	0,021
-690,627	-200,000	0,006	0,079
-689,612	-93,651	-0,131	0,026
-688,597	45,677	0,045	-0,030
-687,583	87,846	0,054	0,044
-686,568	-200,000	0,049	-0,183
-685,554	-10,667	-0,091	-0,044
-684,539	472,247	0,029	0,048
-683,524	800,000	0,031	-0,073
-682,510	206,310	-0,136	0,156
-681,495	555,349	0,024	-0,043
-680,481	156,520	-0,059	0,060
-679,466	519,288	-0,030	-0,052
-678,451	203,450	-0,076	-0,087
-677,437	-118,152	0,132	0,017
-676,422	-200,000	0,004	-0,057
-675,408	-51,561	-0,041	-0,014
-674,393	32,254	-0,106	0,067
-673,378	582,000	0,059	-0,106
-672,364	63,893	-0,099	-0,073
-671,349	-200,000	0,011	0,101
-670,335	800,000	0,031	-0,066
-669,320	142,720	-0,031	-0,030
-668,305	49,555	0,079	0,055
-667,291	-142,503	-0,094	0,007
-666,276	800,000	0,031	0,076
-665,262	-76,765	-0,037	0,009
-664,247	510,171	-0,034	-0,059
-663,232	224,410	0,084	-0,100
-662,218	-94,384	0,100	0,020
-661,203	-200,000	-0,020	-0,096
-660,189	201,035	0,046	0,052
-659,174	115,063	0,025	0,022
-658,159	211,643	-0,012	0,014
-657,145	-200,000	0,013	0,048
-656,130	800,000	0,012	-0,028
-655,116	-197,867	0,146	0,001
-654,101	800,000	0,034	0,083
-653,086	-200,000	-0,001	-0,106
-652,072	-109,121	0,036	-0,006
-651,057	-200,000	-0,018	0,105
-650,043	-96,317	-0,119	-0,023
-649,028	-200,000	-0,002	-0,065
-648,014	-47,747	0,074	-0,026
-646,999	-102,498	0,193	0,034
-645,984	800,000	0,017	-0,039
-644,970	-87,212	-0,138	-0,031
-643,955	80,724	-0,028	0,022
-642,941	394,302	0,082	-0,125
-641,926	-151,520	0,020	0,001
-640,911	-200,000	-0,012	0,108
-639,897	-200,000	0,002	-0,102
-638,882	25,419	0,040	-0,024
-637,868	-12,989	0,025	-0,012
-636,853	-170,896	-0,128	-0,003
-635,838	800,000	0,059	-0,131
-634,824	-105,563	-0,050	0,008
-633,809	-183,710	-0,088	0,001
-632,795	140,323	0,083	0,081
-631,780	169,225	-0,075	0,079
-630,765	-200,000	-0,000	-0,070
-629,751	584,924	-0,030	-0,054
-628,736	-200,000	-0,012	-0,075
-627,722	-161,429	0,261	0,010
-626,707	182,979	-0,019	0,021
-625,692	-117,126	-0,105	0,014
-624,678	-117,944	0,061	-0,008
-623,663	53,179	-0,136	-0,095
-622,649	82,190	-0,030	0,024
-621,634	-89,121	-0,113	0,024
-620,619	-200,000	-0,020	-0,075
-619,605	47,083	-0,076	0,052
-618,590	-31,392	0,061	0,025
-617,576	-97,333	0,090	-0,017
-616,561	142,378	0,037	0,036
-615,546	-200,000	0,028	0,111
-614,532	-45,131	-0,085	-0,031
-613,517	-125,102	-0,079	0,009
-612,503	-45,944	-0,010	0,004
-611,488	742,433	0,012	0,024
-610,474	156,802	-0,129	0,131
-609,459	173,588	-0,076	-0,081
-608,444	-200,000	-0,058	-0,188
-607,430	488,420	-0,017	-0,029
-606,415	-111,328	0,103	-0,015
-605,401	679,837	-0,044	0,083
-604,386	18,398	0,071	0,042
-603,371	-200,000	0,004	0,110
-602,357	77,104	-0,054	0,042
-601,342	596,597	0,020	0,036
-600,328	800,000	0,042	0,115
-599,313	-161,826	-0,148	0,005
-598,298	764,398	-0,100	-0,199
-597,284	40,148	0,107	-0,071
-596,269	207,180	0,023	0,026
-595,255	27,749	-0,093	0,058
-594,240	-46,155	-0,063	-0,023
-593,225	800,000	-0,038	-0,094
-592,211	-191,779	-0,142	-0,001
-591,196	800,000	0,018	-0,043
-590,182	-9,349	0,119	0,058
-589,167	13,457	0,056	-0,032
-588,152	284,886	-0,084	0,111
-587,138	194,134	-0,009	0,010
-586,123	-5,464	-0,075	-0,038
-585,109	-200,000	-0,005	-0,146
-584,094	-200,000	-0,019	-0,102
-583,079	800,000	0,015	-0,038
-582,065	775,125	0,011	0,022
-581,050	-24,373	-0,091	0,039
-580,036	-69,118	0,056	0,016
-579,021	800,000	0,043	-0,131
-578,006	800,000	-0,029	-0,073
-576,992	672,015	0,029	0,056
-575,977	488,894	-0,007	-0,012
-574,963	-50,922	0,057	-0,020
-573,948	-120,276	0,096	-0,012
-572,934	-58,134	0,081	-0,026
-571,919	800,000	0,012	0,032
-570,904	-200,000	-0,007	-0,052
-569,890	-200,000	-0,011	-0,064
-568,875	-55,494	0,056	-0,018
-567,861	144,708	0,034	0,034
-566,846	512,477	0,093	0,159
-565,831	695,126	0,027	0,051
-564,817	-200,000	-0,000	0,051
-563,802	153,812	-0,029	0,029
-562,788	292,532	-0,009	-0,012
-561,773	8,130	0,008	0,004
-560,758	-20,852	0,050	0,022
-559,744	800,000	0,013	0,041
-558,729	206,865	0,086	0,099
-557,715	-76,602	-0,094	-0,024
-556,700	-200,000	0,014	-0,205
-555,685	-149,733	-0,037	-0,002
-554,671	800,000	0,008	0,021
-553,656	800,000	-0,052	-0,151
-552,642	-200,000	0,015	0,140
-551,627	129,549	-0,071	-0,066
-550,612	800,000	-0,033	0,105
-549,598	7,730	-0,058	-0,032
-548,583	141,712	0,094	0,091
-547,569	-40,909	-0,008	-0,003
-546,554	316,131	-0,056	0,078
-545,539	-110,559	0,176	0,026
-544,525	800,000	0,037	-0,105
-543,510	-155,196	-0,146	-0,007
-542,496	800,000	-0,040	0,081
-541,481	-200,000	0,005	0,022
-540,466	-200,000	0,004	0,058
-539,452	-184,822	0,074	0,001
-538,437	-200,000	0,018	-0,081
-537,423	687,201	0,060	0,115
-536,408	253,360	-0,053	0,067
-535,393	-200,000	0,000	0,126
-534,379	-48,300	-0,166	-0,058
-533,364	-200,000	0,029	0,105
-532,350	-15,482	0,132	-0,061
-531,335	359,133	0,056	-0,081
-530,321	103,552	-0,021	-0,018
-529,306	-50,424	0,113	-0,039
-528,291	-17,868	0,116	-0,053
-527,277	-200,000	0,021	-0,130
-526,262	-3,305	-0,099	-0,050
-525,248	139,048	-0,064	0,062
-524,233	-200,000	0,001	-0,043
-523,218	3,988	0,069	-0,037
-522,204	90,001	-0,049	-0,040
-521,189	-200,000	-0,025	0,110
-520,175	-118,698	0,059	0,008
-519,160	318,412	-0,042	0,058
-518,145	-15,411	0,141	-0,066
-517,131	-20,814	0,096	0,043
-516,116	800,000	0,027	0,074
-515,102	48,252	0,031	-0,021
-514,087	178,890	0,022	-0,023
-513,072	-100,115	0,045	0,008
-512,058	497,388	-0,088	-0,148
-511,043	-168,608	0,132	-0,004
-510,029	170,898	0,045	0,047
-509,014	-97,687	-0,069	0,013
-507,999	-200,000	0,001	-0,060
-506,985	800,000	0,024	0,058
-505,970	341,773	-0,066	0,094
-504,956	424,006	0,016	0,025
-503,941	515,097	0,036	-0,062
-502,926	800,000	-0,032	-0,083
-501,912	800,000	-0,035	0,084
-500,897	-56,195	-0,064	0,021
-499,883	-200,000	-0,009	0,062
-498,868	115,585	-0,230	-0,206
-497,853	264,939	-0,097	-0,124
-496,839	-200,000	-0,037	-0,130
-495,824	141,026	0,070	0,068
-494,810	37,812	0,044	-0,028
-493,795	-112,652	-0,073	-0,010
-492,781	188,320	0,022	-0,024
-491,766	800,000	0,027	0,086
-490,751	-97,409	-0,016	-0,003
-489,737	257,605	0,021	0,027
-488,722	-17,894	0,055	0,025
-487,708	67,629	0,055	0,041
-486,693	772,784	-0,022	-0,044
-485,678	800,000	-0,023	-0,069
-484,664	-200,000	-0,004	-0,057
-483,649	800,000	-0,034	-0,093
-482,635	-125,510	0,099	-0,011
-481,620	800,000	-0,082	-0,218
-480,605	800,000	0,026	0,074
-479,591	275,724	0,062	0,080
-478,576	-200,000	-0,003	0,030
-477,562	-200,000	0,001	0,052
-476,547	22,395	-0,075	0,045
-475,532	-39,181	0,017	-0,007
-474,518	52,828	0,021	-0,015
-473,503	-38,659	-0,035	-0,013
-472,489	285,049	0,055	0,072
-471,474	800,000	0,020	-0,044
-470,459	4,152	0,130	-0,069
-469,445	-106,893	0,020	0,003
-468,430	-78,060	-0,059	0,015
-467,416	-102,491	0,206	0,036
-466,401	-115,103	0,139	0,019
-465,386	84,262	-0,061	-0,048
-464,372	-200,000	0,037	0,123
-463,357	282,888	-0,075	-0,099
-462,343	220,930	-0,102	-0,119
-461,328	-114,221	-0,106	-0,015
-460,313	-200,000	0,011	-0,049
-459,299	-200,000	-0,013	0,054
-458,284	100,660	0,027	0,023
-457,270	35,888	-0,068	0,044
-456,255	57,565	-0,096	-0,069
-455,241	-51,905	0,076	-0,025
-454,226	-34,038	-0,051	-0,020
-453,211	-200,000	0,030	0,114
-452,197	800,000	0,008	0,023
-451,182	19,940	0,150	0,088
-450,168	-150,428	-0,073	-0,004
-449,153	120,753	0,016	0,015
-448,138	70,011	0,069	-0,052
-447,124	-200,000	0,032	-0,172
-446,109	59,367	-0,114	-0,081
-445,095	-75,698	0,163	-0,042
-444,080	168,538	0,086	0,090
-443,065	-200,000	-0,010	0,108
-442,051	-119,348	-0,052	-0,007
-441,036	64,148	-0,091	0,067
-440,022	573,868	-0,032	-0,056
-439,007	-200,000	-0,001	-0,019
-437,992	130,599	-0,122	0,114
-436,978	12,974	0,162	0,091
-435,963	-26,425	-0,064	0,027
-434,949	800,000	0,038	-0,122
-433,934	-9,860	-0,189	-0,091
-432,919	-200,000	0,021	-0,116
-431,905	-110,041	0,031	0,005
-430,890	400,194	-0,076	0,117
-429,876	81,631	-0,084	0,066
-428,861	605,295	-0,040	0,073
-427,846	-200,000	0,013	0,097
-426,832	-3,888	-0,031	-0,015
-425,817	-200,000	0,039	-0,163
-424,803	370,993	-0,029	-0,043
-423,788	800,000	-0,039	-0,082
-422,773	43,966	0,083	0,055
-421,759	-62,549	-0,090	0,027
-420,744	-95,567	-0,046	0,009
-419,730	-13,702	-0,048	0,022
-418,715	322,959	0,049	0,068
-417,701	77,438	0,061	0,047
-416,686	356,089	-0,055	0,081
-415,671	74,096	0,114	-0,087
-414,657	800,000	-0,028	0,075
-413,642	32,955	-0,104	-0,065
-412,628	-30,171	0,048	0,020
-411,613	165,022	-0,074	-0,076
-410,598	-200,000	-0,026	0,108
-409,584	-200,000	0,007	-0,087
-408,569	800,000	-0,025	-0,079
-407,555	800,000	0,072	0,159
-406,540	-62,654	0,094	-0,028
-405,525	800,000	-0,009	-0,018
-404,511	166,342	-0,054	-0,056
-403,496	290,893	-0,141	-0,187
-402,482	18,341	0,069	0,040
-401,467	-171,119	-0,086	-0,002
-400,452	96,827	0,038	-0,032
-399,438	336,416	0,046	0,066
-398,423	-200,000	0,006	-0,074
-397,409	105,003	-0,051	-0,044
-396,394	-27,098	0,100	0,042
-395,379	40,665	-0,012	0,008
-394,365	-61,123	0,173	0,053
-393,350	-105,430	0,037	-0,006
-392,336	-80,969	0,109	-0,026
-391,321	210,345	0,082	-0,094
-390,306	-200,000	0,003	-0,026
-389,292	-153,009	-0,057	0,003
-388,277	-200,000	0,010	0,044
-387,263	-92,127	0,137	0,028
-386,248	-105,752	0,127	-0,021
-385,233	60,638	0,140	0,101
-384,219	-77,941	-0,101	0,025
-383,204	148,478	0,041	0,040
-382,190	49,533	-0,064	0,044
-381,175	-200,000	0,034	-0,129
-380,160	-118,450	-0,009	0,001
-379,146	448,789	0,072	0,116
-378,131	17,621	0,052	-0,030
-377,117	11,993	-0,053	-0,029
-376,102	-73,951	-0,112	-0,029
-375,088	-200,000	-0,032	-0,137
-374,073	-14,051	-0,043	0,020
-373,058	357,491	0,049	0,071
-372,044	421,554	-0,005	0,008
-371,029	-120,721	0,062	-0,007
-370,015	-200,000	0,022	0,282
-369,000	-200,000	-0,041	-0,166
-367,985	-200,000	0,028	-0,108
-366,971	-82,390	0,044	-0,010
-365,956	-61,449	0,023	-0,007
-364,942	72,000	-0,047	0,036
-363,927	-56,426	0,085	0,027
-362,912	559,417	-0,069	-0,121
-361,898	-200,000	-0,045	-0,158
-360,883	171,284	0,051	0,053
-359,869	256,707	-0,080	0,100
-358,854	103,042	0,105	0,090
-357,839	137,913	0,059	-0,056
-356,825	-200,000	-0,011	0,112
-355,810	800,000	-0,020	-0,058
-354,796	38,131	-0,096	-0,062
-353,781	407,619	-0,016	-0,025
-352,766	-200,000	0,007	-0,029
-351,752	-200,000	0,007	0,137
-350,737	-85,809	0,167	-0,037
-349,723	-33,065	0,106	-0,042
-348,708	202,382	-0,020	0,023
-347,693	-36,961	0,041	0,016
-346,679	43,814	-0,059	0,039
-345,664	52,958	0,130	-0,090
-344,650	-200,000	0,018	0,074
-343,635	-11,870	0,118	-0,056
-342,620	-24,040	0,063	-0,027
-341,606	-200,000	-0,004	0,061
-340,591	-200,000	-0,051	0,188
-339,577	800,000	0,020	0,045
-338,562	-200,000	0,007	-0,057
-337,548	-98,721	0,104	-0,019
-336,533	82,604	-0,067	-0,053
-335,518	67,615	-0,083	0,062
-334,504	-200,000	0,033	0,222
-333,489	-200,000	-0,020	0,074
-332,475	-46,538	-0,087	0,031
-331,460	32,074	0,026	0,017
-330,445	800,000	0,028	-0,059
-329,431	116,574	-0,085	0,076
-328,416	399,206	0,049	0,074
-327,402	800,000	-0,022	0,047
-326,387	-79,440	-0,031	0,008
-325,372	216,627	-0,117	-0,135
-324,358	-140,533	-0,077	0,006
-323,343	-182,488	0,033	0,000
-322,329	350,579	0,050	0,072
-321,314	-200,000	0,016	0,162
-320,299	-91,390	-0,065	-0,013
-319,285	-176,125	0,047	-0,001
-318,270	-200,000	-0,031	0,132
-317,256	13,511	0,085	0,048
-316,241	-82,411	-0,036	-0,008
-315,226	-122,260	0,081	0,009
-314,212	88,369	0,060	-0,049
-313,197	212,415	0,022	-0,025
-312,183	42,960	-0,078	-0,052
-311,168	-7,954	0,052	0,025
-310,153	17,411	-0,137	-0,079
-309,139	537,181	-0,040	0,069
-308,124	454,595	-0,009	-0,015
-307,110	800,000	0,038	0,097
-306,095	-76,031	-0,101	-0,026
-305,080	-200,000	0,011	0,090
-304,066	800,000	0,038	0,110
-303,051	800,000	0,039	0,113
-302,037	-200,000	0,017	-0,097
-301,022	103,861	0,093	-0,079
-300,008	-200,000	0,027	0,141
-298,993	-97,714	-0,094	0,017
-297,978	277,597	0,058	0,075
-296,964	194,834	-0,090	-0,099
-295,949	81,099	0,030	0,024
-294,935	-48,506	-0,013	0,005
-293,920	-63,679	0,061	0,018
-292,905	800,000	0,034	0,070
-291,891	176,033	0,048	0,050
-290,876	248,884	-0,016	0,020
-289,862	142,463	0,016	0,016
-288,847	-200,000	-0,009	0,120
-287,832	-200,000	-0,009	-0,039
-286,818	-200,000	0,027	-0,157
-285,803	-125,720	-0,019	-0,002
-284,789	800,000	-0,077	-0,167
-283,774	-200,000	-0,003	0,097
-282,759	-125,197	0,020	-0,002
-281,745	129,182	-0,103	0,095
-280,730	-59,832	0,041	0,013
-279,716	-44,035	0,073	-0,027
-278,701	-14,684	-0,010	0,005
-277,686	800,000	-0,045	0,120
-276,672	-200,000	0,003	0,027
-275,657	6,532	0,110	0,059
-274,643	-200,000	-0,017	-0,081
-273,628	-126,613	-0,044	0,005
-272,613	800,000	-0,061	-0,177
-271,599	-102,550	0,134	-0,023
-270,584	-200,000	0,007	-0,104
-269,570	51,495	0,097	0,067
-268,555	-154,731	-0,011	0,001
-267,540	-91,239	0,077	-0,016
-266,526	397,736	0,024	-0,036
-265,511	40,023	-0,097	-0,063
-264,497	84,396	-0,015	0,012
-263,482	456,435	0,048	0,077
-262,467	800,000	0,047	0,114
-261,453	-200,000	0,007	0,105
-260,438	-65,717	-0,057	-0,016
-259,424	1,535	0,071	0,037
-258,409	396,745	0,043	-0,065
-257,395	-200,000	-0,047	0,152
-256,380	-200,000	-0,024	0,161
-255,365	-112,870	0,045	0,006
-254,351	-52,767	-0,081	-0,027
-253,336	-200,000	-0,004	-0,033
-252,322	-128,018	-0,073	0,007
-251,307	3,332	-0,017	-0,009
-250,292	800,000	0,014	-0,043
-249,278	-23,808	-0,154	0,067
-248,263	63,078	-0,057	-0,041
-247,249	248,466	0,048	0,059
-246,234	-188,881	-0,050	0,000
-245,219	-200,000	-0,001	0,021
-244,205	410,244	-0,069	0,107
-243,190	82,774	-0,063	0,049
-242,176	-22,308	0,020	-0,009
-241,161	145,561	0,114	0,111
-240,146	-200,000	0,007	-0,055
-239,132	-32,063	0,061	-0,025
-238,117	169,761	-0,063	0,065
-237,103	-200,000	-0,004	-0,099
-236,088	-200,000	0,008	0,071
-235,073	-200,000	0,012	-0,055
-234,059	205,442	0,063	0,071
-233,044	268,827	0,073	-0,093
-232,030	305,231	-0,058	0,078
-231,015	-50,404	-0,084	-0,028
-230,000	-79,583	-0,071	-0,017
-228,986	-200,000	0,010	0,127
-227,971	646,972	-0,076	0,141
-226,957	521,583	0,085	-0,144
-225,942	-200,000	-0,042	0,170
-224,927	-200,000	0,007	0,037
-223,913	91,155	-0,062	-0,050
-222,898	174,694	-0,097	-0,101
-221,884	800,000	0,018	0,050
-220,869	471,545	0,030	0,048
-219,855	49,563	0,097	0,066
-218,840	193,986	0,082	-0,090
-217,825	-168,169	0,032	-0,001
-216,811	800,000	-0,012	0,026
-215,796	114,514	-0,107	0,094
-214,782	146,522	-0,025	0,024
-213,767	-200,000	-0,019	-0,078
-212,752	-200,000	0,003	-0,048
-211,738	-91,261	-0,066	-0,014
-210,723	800,000	-0,076	0,215
-209,709	99,064	-0,062	-0,052
-208,694	44,164	0,081	-0,053
-207,679	520,815	-0,020	0,034
-206,665	-129,744	0,082	-0,008
-205,650	-135,068	-0,020	-0,002
-204,636	73,719	0,063	0,047
-203,621	152,095	-0,120	-0,118
-202,606	800,000	0,039	-0,123
-201,592	-200,000	-0,025	-0,202
-200,577	191,562	0,075	-0,082
-199,563	-20,521	-0,049	-0,022
-198,548	136,922	-0,085	-0,080
-197,533	-64,264	0,122	0,036
-196,519	-200,000	0,016	-0,055
-195,504	63,118	-0,063	-0,045
-194,490	800,000	-0,049	-0,107
-193,475	-92,663	-0,115	0,023
-192,460	190,357	0,120	-0,130
-191,446	0,043	0,065	-0,033
-190,431	-58,497	0,125	0,039
-189,417	554,357	0,022	-0,039
-188,402	-138,212	-0,159	-0,013
-187,387	15,944	-0,108	0,061
-186,373	-108,626	-0,138	-0,021
-185,358	-200,000	0,014	-0,057
-184,344	-200,000	-0,004	-0,034
-183,329	-137,081	-0,124	-0,010
-182,315	-200,000	-0,026	0,095
-181,300	-67,199	0,081	-0,023
-180,285	136,336	-0,054	-0,051
-179,271	800,000	-0,039	-0,121
-178,256	438,346	-0,033	-0,051
-177,242	159,602	0,068	-0,068
-176,227	-200,000	0,038	-0,155
-175,212	-200,000	-0,002	-0,106
-174,198	400,595	-0,035	0,054
-173,183	-120,632	-0,133	-0,016
-172,169	419,665	-0,050	0,078
-171,154	-200,000	0,005	0,051
-170,139	-200,000	-0,015	0,064
-169,125	41,188	-0,066	-0,043
-168,110	-192,230	-0,094	0,001
-167,096	-200,000	0,017	0,060
-166,081	-200,000	-0,052	0,174
-165,066	111,213	0,062	-0,054
-164,052	-200,000	0,011	-0,095
-163,037	199,597	-0,067	-0,074
-162,023	-109,849	0,102	0,015
-161,008	594,849	-0,023	-0,041
-159,993	362,264	0,069	-0,100
-158,979	129,339	-0,120	-0,110
-157,964	62,871	0,042	-0,030
-156,950	-200,000	0,001	-0,067
-155,935	-200,000	0,000	0,006
-154,920	441,082	0,067	0,105
-153,906	284,776	0,089	0,116
-152,891	800,000	0,033	0,088
-151,877	-83,389	-0,072	-0,017
-150,862	147,389	-0,085	-0,082
-149,847	-200,000	0,035	-0,118
-148,833	-200,000	-0,010	0,115
-147,818	486,084	0,044	0,073
-146,804	800,000	-0,052	0,127
-145,789	-200,000	0,037	0,122
-144,775	391,360	-0,084	0,127
-143,760	-200,000	0,009	0,065
-142,745	-131,900	0,085	0,008
-141,731	321,053	0,050	0,069
-140,716	176,772	0,111	0,117
-139,702	-72,561	-0,068	-0,018
-138,687	-88,825	-0,068	0,014
-137,672	800,000	-0,004	-0,011
-136,658	584,954	-0,070	-0,124
-135,643	-7,212	0,096	0,047
-134,629	-200,000	-0,022	-0,200
-133,614	-200,000	-0,004	0,067
-132,599	536,246	0,007	0,012
-131,585	78,436	0,058	0,045
-130,570	704,728	-0,039	0,074
-129,556	105,037	-0,012	-0,010
-128,541	-75,772	0,096	-0,024
-127,526	-79,137	-0,078	0,019
-126,512	-144,202	0,042	0,003
-125,497	-200,000	0,005	0,076
-124,483	604,036	-0,036	-0,065
-123,468	564,953	-0,106	0,186
-122,453	10,578	-0,114	0,062
-121,439	-123,779	-0,042	-0,005
-120,424	83,185	-0,053	0,042
-119,410	3,544	-0,016	0,009
-118,395	-200,000	0,011	-0,071
-117,380	800,000	-0,041	0,086
-116,366	-200,000	-0,005	-0,087
-115,351	-200,000	-0,050	-0,191
-114,337	201,312	0,085	-0,094
-113,322	65,791	0,048	-0,035
-112,307	-200,000	-0,017	0,101
-111,293	-109,236	0,054	-0,008
-110,278	-125,517	-0,095	-0,010
-109,264	232,778	0,070	0,083
-108,249	23,620	0,142	0,084
-107,234	-200,000	0,003	0,019
-106,220	-49,831	-0,101	0,034
-105,205	-144,016	0,104	-0,007
-104,191	-51,204	-0,063	0,021
-103,176	-200,000	0,033	0,130
-102,162	-37,789	0,055	0,021
-101,147	-200,000	-0,038	-0,131
-100,132	226,513	0,034	0,040
-99,118	-200,000	0,018	0,076
-98,103	-109,384	-0,120	-0,018
-97,089	-94,959	0,088	-0,017
-96,074	800,000	0,039	0,097
-95,059	800,000	-0,047	0,102
-94,045	800,000	0,030	0,080
-93,030	-200,000	0,018	-0,077
-92,016	-10,814	-0,186	-0,088
-91,001	276,370	0,056	-0,071
-89,986	84,653	-0,017	-0,014
-88,972	343,407	0,030	0,042
-87,957	93,312	0,077	-0,062
-86,943	-200,000	0,024	-0,129
-85,928	236,982	0,056	-0,066
-84,913	192,919	0,020	-0,021
-83,899	800,000	0,036	-0,082
-82,884	800,000	0,026	0,074
-81,870	-200,000	-0,015	0,171
-80,855	31,725	0,124	0,076
-79,840	-75,529	0,030	-0,008
-78,826	380,106	-0,020	-0,030
-77,811	-31,475	-0,168	-0,068
-76,797	-171,108	0,051	-0,001
-75,782	35,306	0,130	-0,082
-74,767	-18,177	0,164	0,074
-73,753	57,121	0,014	0,010
-72,738	-78,790	-0,128	0,031
-71,724	463,076	-0,090	-0,145
-70,709	248,789	-0,107	0,130
-69,694	151,510	-0,092	-0,090
-68,680	800,000	0,014	-0,040
-67,665	316,400	0,022	0,029
-66,651	-12,294	-0,071	0,033
-65,636	-93,875	-0,014	-0,003
-64,622	-122,433	-0,055	-0,006
-63,607	-0,631	-0,034	0,017
-62,592	-200,000	0,045	-0,197
-61,578	800,000	-0,020	-0,059
-60,563	337,271	0,093	0,130
-59,549	800,000	-0,049	0,122
-58,534	-13,907	-1,932	-0,893
-57,519	800,000	-0,336	-0,831
-56,505	-200,000	-1,184	-4,968
-55,490	12,286	0,749	0,413
-54,476	800,000	5,258	12,014
-53,461	-200,000	17,434	283,894
-52,446	800,000	725,148	2221,443
-51,432	539,123	1641,073	2812,874
-50,417	110,793	1632,196	1409,355
-49,403	75,218	1286,054	972,362
-48,388	32,303	1027,985	635,483
-47,373	20,167	989,746	571,819
-46,359	18,644	977,856	559,932
-45,344	15,938	973,866	548,766
-44,330	16,180	972,437	548,730
-43,315	15,745	970,612	546,258
-42,300	15,618	969,623	545,266
-41,286	15,697	968,256	544,734
-40,271	15,606	967,464	543,968
-39,257	15,692	966,359	543,608
-38,242	15,628	965,875	543,106
-37,227	15,700	964,947	542,794
-36,213	15,694	963,822	542,123
-35,198	15,618	963,166	541,486
-34,184	15,640	962,618	541,227
-33,169	15,574	961,546	540,387
-32,154	15,690	960,509	540,158
-31,140	15,660	959,675	539,570
-30,125	15,665	959,018	539,195
-29,111	15,663	958,137	538,673
-28,096	15,662	957,458	538,267
-27,082	15,658	956,802	537,865
-26,067	15,690	955,879	537,427
-25,052	15,658	955,332	536,996
-24,038	15,662	954,601	536,576
-23,023	15,623	954,061	536,125
-22,009	15,627	953,285	535,680
-20,994	15,683	952,681	535,499
-19,979	15,621	952,171	534,994
-18,965	15,670	951,533	534,772
-17,950	15,716	950,827	534,499
-16,936	15,609	950,226	533,799
-15,921	15,625	949,581	533,468
-14,906	15,564	948,852	532,842
-13,892	15,549	948,209	532,411
-12,877	15,551	947,399	531,942
-11,863	15,495	946,969	531,499
-10,848	15,488	946,406	531,141
-9,833	15,627	945,881	531,268
-8,819	15,620	945,376	530,940
-7,804	15,512	944,842	530,277
-6,790	15,547	944,066	529,930
-5,775	15,623	943,543	529,858
-4,760	15,585	942,826	529,314
-3,746	15,572	942,273	528,941
-2,731	15,471	941,542	528,189
-1,717	15,391	940,868	527,538
-0,702	15,379	940,204	527,108
0,313	15,220	939,500	527,006
1,327	18,300	937,395	535,485
2,342	27,065	794,780	477,255
3,356	23,686	459,117	270,500
4,371	-3,180	314,194	156,574
5,386	-7,245	295,939	143,354
6,400	-9,254	289,800	138,376
7,415	-9,746	287,469	136,767
8,429	-9,793	286,016	136,018
9,444	-10,023	285,062	135,327
10,459	-9,749	284,364	135,250
11,473	-9,621	283,691	135,042
12,488	-9,724	283,303	134,746
13,502	-9,952	282,975	134,357
14,517	-9,751	282,579	134,352
15,531	-9,933	282,038	133,906
16,546	-9,808	281,598	133,807
17,561	-9,746	281,189	133,659
18,575	-9,679	280,910	133,580
19,590	-9,869	280,563	133,220
20,604	-9,775	280,183	133,118
21,619	-9,656	279,730	133,005
22,634	-9,770	279,533	132,791
23,648	-10,010	279,329	132,452
24,663	-9,971	279,021	132,332
25,677	-9,857	278,648	132,252
26,692	-9,847	278,628	132,240
27,707	-9,905	278,216	131,978
28,721	-9,768	277,933	131,962
29,736	-9,729	277,625	131,840
30,750	-9,677	277,309	131,728
31,765	-9,848	277,137	131,472
32,780	-9,813	276,988	131,423
33,794	-9,720	276,640	131,335
34,809	-10,046	276,710	131,048
35,823	-9,877	276,216	130,962
36,838	-9,803	275,903	130,871
37,853	-9,885	275,813	130,740
38,867	-9,862	275,454	130,580
39,882	-9,935	275,115	130,339
40,896	-9,840	274,837	130,284
41,911	-9,884	274,719	130,176
42,926	-9,872	274,426	130,037
43,940	-9,712	274,052	129,997
44,955	-9,856	274,005	129,829
45,969	-9,908	273,819	129,680
46,984	-9,988	273,545	129,464
47,999	-10,093	273,163	129,175
49,013	-10,130	272,757	128,936
50,028	-10,392	272,668	128,639
51,042	-10,459	272,437	128,456
52,057	-10,554	272,284	128,285
53,071	-10,434	271,937	128,221
54,086	-10,455	271,793	128,122
55,101	-10,189	271,585	128,259
56,115	-10,065	271,424	128,286
57,130	-9,920	271,286	128,343
58,144	-9,695	270,902	128,358
59,159	-9,888	270,971	128,202
60,174	-9,779	270,680	128,153
61,188	-9,751	270,414	128,041
62,203	-9,803	270,260	127,909
63,217	-9,709	270,055	127,886
64,232	-9,666	269,695	127,745
65,247	-9,650	269,556	127,682
66,261	-9,776	269,252	127,411
67,276	-9,891	269,092	127,218
68,290	-9,918	268,690	126,993
69,305	-10,093	268,585	126,771
70,320	-10,015	268,487	126,786
71,334	-9,936	268,159	126,692
72,349	-9,613	268,089	126,941
73,363	-9,595	267,634	126,731
74,378	-9,621	267,456	126,612
75,393	-9,732	267,437	126,491
76,407	-9,594	267,152	126,470
77,422	-9,751	267,004	126,246
78,436	-9,816	266,772	126,067
79,451	-9,639	266,483	126,079
80,466	-9,742	266,185	125,833
81,480	-9,887	266,000	125,603
82,495	-10,026	265,846	125,394
83,509	-9,875	265,664	125,433
84,524	-9,742	265,382	125,409
85,539	-9,977	265,231	125,114
86,553	-10,114	265,081	124,909
87,568	-9,980	264,784	124,879
88,582	-9,950	264,623	124,818
89,597	-9,871	264,390	124,768
90,611	-9,725	264,207	124,802
91,626	-9,693	263,941	124,694
92,641	-9,711	263,843	124,621
93,655	-9,763	263,607	124,452
94,670	-9,839	263,462	124,304
95,684	-9,804	263,362	124,276
96,699	-9,854	263,095	124,095
97,714	-9,909	262,871	123,929
98,728	-9,950	262,622	123,764
99,743	-10,030	262,312	123,536
100,757	-10,135	262,213	123,385
101,772	-10,056	262,006	123,346
102,787	-9,964	261,869	123,353
103,801	-9,917	261,641	123,277
104,816	-9,825	261,506	123,284
105,830	-9,717	261,345	123,292
106,845	-9,582	261,119	123,294
107,860	-9,786	260,914	123,006
108,874	-9,685	260,729	122,997
109,889	-9,574	260,341	122,900
110,903	-9,849	260,203	122,582
111,918	-9,900	260,081	122,469
112,933	-9,869	259,754	122,331
113,947	-9,782	259,725	122,383
114,962	-9,887	259,550	122,197
115,976	-9,913	259,393	122,090
116,991	-9,831	259,178	122,050
118,006	-9,853	258,961	121,917
119,020	-9,934	258,775	121,748
120,035	-9,790	258,659	121,808
121,049	-9,779	258,473	121,720
122,064	-9,795	258,334	121,630
123,079	-9,572	258,023	121,667
124,093	-9,881	257,954	121,353
125,108	-9,964	257,640	121,123
126,122	-9,994	257,382	120,964
127,137	-10,166	257,275	120,753
128,151	-10,095	256,958	120,656
129,166	-9,840	256,737	120,763
130,181	-10,067	256,483	120,435
131,195	-10,169	256,471	120,331
132,210	-9,817	256,102	120,452
133,224	-9,731	256,113	120,521
134,239	-9,853	256,018	120,360
135,254	-9,661	255,726	120,378
136,268	-9,786	255,500	120,153
137,283	-10,024	255,182	119,786
138,297	-10,191	255,053	119,572
139,312	-10,148	254,773	119,467
140,327	-9,822	254,758	119,730
141,341	-9,727	254,763	119,803
142,356	-9,767	254,521	119,644
143,370	-9,528	254,376	119,771
144,385	-9,590	254,115	119,584
145,400	-9,579	253,939	119,501
146,414	-9,665	253,704	119,306
147,429	-9,517	253,515	119,332
148,443	-9,532	253,368	119,240
149,458	-9,585	253,313	119,158
150,473	-9,616	252,974	118,962
151,487	-9,783	252,818	118,735
152,502	-9,740	252,716	118,713
153,516	-9,412	252,495	118,879
154,531	-9,602	252,366	118,646
155,546	-9,692	252,171	118,466
156,560	-9,742	252,000	118,333
157,575	-9,756	251,745	118,191
158,589	-9,672	251,379	118,080
159,604	-9,715	251,464	118,072
160,619	-9,661	251,290	118,026
161,633	-9,535	250,975	117,975
162,648	-9,547	250,830	117,886
163,662	-9,507	250,713	117,854
164,677	-9,578	250,482	117,675
165,692	-9,767	250,486	117,506
166,706	-9,488	250,228	117,611
167,721	-9,602	249,981	117,388
168,735	-9,544	249,846	117,363
169,750	-9,632	249,808	117,260
170,764	-9,442	249,657	117,339
171,779	-9,572	249,412	117,104
172,794	-9,544	249,327	117,077
173,808	-9,666	249,038	116,829
174,823	-9,847	248,800	116,554
175,837	-10,115	248,472	116,166
176,852	-9,617	248,466	116,570
177,867	-9,445	248,321	116,636
178,881	-9,650	248,377	116,480
179,896	-9,465	247,959	116,428
180,910	-9,741	247,842	116,132
181,925	-9,539	247,615	116,184
182,940	-9,463	247,456	116,163
183,954	-9,530	247,399	116,069
184,969	-9,542	247,231	115,971
185,983	-9,417	246,951	115,933
186,998	-9,638	246,991	115,757
188,013	-9,531	246,741	115,718
189,027	-9,606	246,494	115,531
190,042	-9,642	246,352	115,424
191,056	-9,390	246,093	115,501
192,071	-9,678	245,992	115,205
193,086	-9,460	245,852	115,309
194,100	-9,686	245,573	114,981
195,115	-9,483	245,376	115,047
196,129	-9,600	245,268	114,889
197,144	-9,565	245,091	114,824
198,159	-9,722	244,927	114,608
199,173	-9,478	244,702	114,693
200,188	-9,524	244,503	114,552
201,202	-9,965	244,315	114,091
202,217	-9,823	243,864	113,987
203,232	-10,245	243,820	113,610
204,246	-9,909	243,823	113,877
205,261	-9,489	243,680	114,144
206,275	-10,513	243,111	113,030
207,290	-7,321	244,326	116,207
208,304	0,030	246,948	123,531
209,319	3,998	247,940	127,303
210,334	4,418	247,987	127,664
211,348	4,728	247,776	127,800
212,363	4,787	247,725	127,811
213,377	5,099	247,506	127,944
214,392	4,664	247,560	127,601
215,407	4,544	247,223	127,317
216,421	4,806	246,908	127,360
217,436	4,799	246,982	127,381
218,450	5,063	246,789	127,487
219,465	4,701	246,605	127,083
220,480	4,526	246,399	126,821
221,494	4,453	246,148	126,621
222,509	4,387	246,001	126,480
223,523	4,268	245,847	126,293
224,538	3,990	245,563	125,907
225,553	4,228	245,453	126,035
226,567	4,307	245,272	125,996
227,582	4,370	245,174	125,985
228,596	4,303	245,035	125,847
229,611	4,166	244,714	125,560
230,626	3,880	244,502	125,207
231,640	4,180	244,402	125,389
232,655	4,058	244,371	125,262
233,669	4,152	244,056	125,166
234,684	4,119	243,912	125,054
235,699	4,360	243,935	125,250
236,713	4,565	243,704	125,287
237,728	4,091	243,501	124,788
238,742	3,896	243,364	124,548
239,757	3,912	243,047	124,388
240,772	3,971	242,999	124,400
241,786	4,152	242,946	124,508
242,801	4,056	242,685	124,285
243,815	4,223	242,526	124,328
244,830	4,191	242,512	124,283
245,844	4,201	242,327	124,186
246,859	4,240	242,089	124,084
247,874	4,105	241,823	123,828
248,888	4,158	241,769	123,832
249,903	4,420	241,521	123,904
250,917	4,104	241,574	123,667
251,932	4,409	241,430	123,827
252,947	4,261	241,278	123,619
253,961	4,130	241,049	123,386
254,976	4,363	240,898	123,484
255,990	4,316	240,784	123,377
257,005	4,251	240,486	123,161
258,020	4,080	240,274	122,905
259,034	4,056	240,164	122,819
260,049	4,294	240,123	122,977
261,063	4,111	239,891	122,702
262,078	3,849	239,653	122,360
263,093	4,253	239,745	122,718
264,107	4,308	239,541	122,646
265,122	3,992	239,256	122,238
266,136	4,225	239,187	122,377
267,151	4,423	239,161	122,510
268,166	4,135	238,787	122,079
269,180	3,794	238,682	121,745
270,195	4,447	238,663	122,242
271,209	4,600	238,661	122,351
272,224	4,298	238,301	121,917
273,239	3,878	237,936	121,387
274,253	4,009	237,818	121,419
275,268	4,067	237,748	121,419
276,282	4,322	237,624	121,546
277,297	4,102	237,405	121,250
278,312	4,134	237,198	121,158
279,326	4,171	237,162	121,158
280,341	4,001	237,043	120,952
281,355	4,089	236,965	120,971
282,370	4,170	236,836	120,958
283,384	4,247	236,505	120,839
284,399	3,997	236,327	120,541
285,414	3,814	236,170	120,307
286,428	4,052	236,162	120,478
287,443	4,124	236,047	120,465
288,457	4,119	235,763	120,306
289,472	4,411	235,715	120,499
290,487	4,244	235,586	120,292
291,501	4,100	235,200	119,972
292,516	3,927	235,151	119,801
293,530	3,661	235,062	119,538
294,545	4,115	234,951	119,824
295,560	4,237	234,767	119,814
296,574	4,052	234,538	119,543
297,589	3,945	234,425	119,392
298,603	4,316	234,412	119,663
299,618	4,139	234,220	119,416
300,633	4,245	234,126	119,440
301,647	4,460	233,911	119,486
302,662	4,465	233,929	119,488
303,676	4,668	233,714	119,526
304,691	4,273	233,639	119,171
305,706	4,616	233,397	119,302
306,720	4,706	233,308	119,315
307,735	4,355	233,051	118,902
308,749	4,251	232,827	118,697
309,764	4,051	232,675	118,456
310,779	3,976	232,518	118,307
311,793	3,711	232,206	117,934
312,808	3,844	232,149	117,997
313,822	3,761	231,900	117,796
314,837	3,956	231,801	117,885
315,852	3,731	231,634	117,617
316,866	3,865	231,636	117,711
317,881	3,952	231,442	117,668
318,895	4,317	231,467	117,950
319,910	4,852	231,314	118,270
320,925	4,404	231,049	117,782
321,939	3,927	230,792	117,277
322,954	4,012	230,914	117,393
323,968	3,916	230,655	117,177
324,983	3,800	230,463	116,981
325,997	4,442	230,498	117,477
327,012	4,379	230,331	117,334
328,027	4,415	230,026	117,196
329,041	4,493	230,060	117,261
330,056	4,980	230,028	117,604
331,070	4,996	229,870	117,525
332,085	4,627	229,582	117,088
333,100	4,345	229,343	116,742
334,114	4,303	229,208	116,632
335,129	4,546	229,170	116,785
336,143	4,772	229,088	116,904
337,158	4,701	228,843	116,715
338,173	4,426	228,637	116,392
339,187	4,036	228,497	116,017
340,202	4,317	228,436	116,187
341,216	4,354	228,286	116,128
342,231	3,913	228,041	115,662
343,246	4,200	227,897	115,793
344,260	4,414	227,828	115,910
345,275	4,780	227,666	116,091
346,289	4,606	227,599	115,916
347,304	4,688	227,424	115,878
348,319	4,600	227,245	115,711
349,333	4,525	227,114	115,578
350,348	4,211	226,790	115,168
351,362	4,185	226,843	115,164
352,377	4,175	226,478	114,962
353,392	4,028	226,325	114,764
354,406	4,095	226,257	114,769
355,421	196,155	1321,642	1400,601
356,435	157,264	1455,096	1400,594
