DTS Sentinel unit serial number:	SN410029Multiplexer serial number:	ORYXHardware model number:	OX2-SRSoftware version number:	ORYX F/W v4,00 Oryx Data Collector v3.7.2.0data status	okinstallation	B5 Nyhavnadifferential loss correction	single-endedforward channel	channel 2reverse channel	N/Adate	2023/12/13time	07:02:13forward acquisition time	300,00reverse acquisition time	0,00gamma	499,1914k internal	0,3160k external	0,3160temperature offset calibration	1,0000default loss term (dB/km)	0,3820temperature slope calibration	1,0000multiplexer offset coefficient	1,0000multiplexer slope coefficient	1,0000fibre end	0,00T internal ref (°C)	13,73T ext. ref 1 (°C)	-2,70T ext. ref 2 (°C)	-2,99length (m)	temperature (°C)	Stokes	anti-Stokes-744,400	-65,334	0,133	0,039
-743,385	-67,605	-0,248	0,071
-742,371	-11,103	0,082	0,040
-741,356	-193,317	-0,320	0,002
-740,342	800,000	-0,010	0,022
-739,327	-171,723	-0,376	-0,009
-738,312	-200,000	-0,013	-0,113
-737,298	-33,578	-0,248	-0,100
-736,283	-200,000	-0,023	-0,184
-735,269	3,474	-0,109	-0,058
-734,254	409,474	-0,091	-0,142
-733,239	-65,803	-0,356	-0,104
-732,225	-131,149	0,295	0,029
-731,210	87,899	-0,112	0,092
-730,196	-16,367	-0,087	-0,040
-729,181	-70,513	-0,003	-0,001
-728,167	-200,000	0,002	0,103
-727,152	364,757	-0,062	-0,092
-726,137	-97,209	-0,029	0,006
-725,123	-200,000	-0,012	-0,136
-724,108	142,417	-0,042	-0,041
-723,094	547,175	-0,028	-0,049
-722,079	230,280	-0,010	-0,012
-721,064	-200,000	-0,002	-0,067
-720,050	229,341	0,125	-0,150
-719,035	-83,488	-0,058	0,014
-718,021	800,000	-0,023	0,060
-717,006	52,443	-0,090	0,063
-715,991	-200,000	-0,010	-0,234
-714,977	60,026	-0,056	-0,040
-713,962	60,300	-0,067	0,049
-712,948	248,314	0,063	-0,078
-711,933	68,824	0,051	-0,039
-710,918	510,129	-0,092	0,159
-709,904	14,165	-0,137	-0,078
-708,889	251,773	-0,122	-0,153
-707,875	-200,000	-0,011	-0,068
-706,860	-200,000	0,004	-0,065
-705,845	90,739	0,052	0,043
-704,831	-64,390	0,057	0,017
-703,816	122,450	-0,122	-0,112
-702,802	396,102	-0,023	0,036
-701,787	177,131	0,086	-0,092
-700,772	800,000	0,022	-0,050
-699,758	-200,000	-0,007	-0,032
-698,743	498,509	0,062	-0,106
-697,729	27,855	0,092	-0,057
-696,714	-37,438	-0,042	0,017
-695,699	685,257	0,067	-0,130
-694,685	627,854	-0,028	-0,052
-693,670	333,879	0,035	-0,050
-692,656	-76,001	0,117	-0,030
-691,641	30,661	0,059	0,037
-690,627	-148,511	-0,039	-0,002
-689,612	800,000	0,022	-0,053
-688,597	208,447	0,079	-0,091
-687,583	143,492	-0,061	-0,059
-686,568	-200,000	0,020	0,085
-685,554	326,000	-0,070	-0,098
-684,539	800,000	-0,013	-0,034
-683,524	-200,000	0,031	-0,134
-682,510	112,168	-0,059	-0,052
-681,495	-200,000	-0,001	-0,054
-680,481	800,000	-0,059	-0,157
-679,466	-67,535	-0,066	-0,019
-678,451	174,912	-0,090	-0,096
-677,437	219,923	-0,030	-0,035
-676,422	-200,000	0,007	0,035
-675,408	-150,147	-0,055	-0,003
-674,393	49,726	-0,049	0,034
-673,378	-200,000	0,010	-0,076
-672,364	10,016	-0,015	0,008
-671,349	-200,000	-0,045	-0,199
-670,335	-200,000	0,013	-0,096
-669,320	-17,828	-0,064	0,030
-668,305	88,102	0,066	-0,054
-667,291	-200,000	-0,006	-0,162
-666,276	-200,000	-0,018	-0,151
-665,262	314,532	0,015	-0,021
-664,247	-200,000	-0,019	-0,091
-663,232	108,808	0,050	0,044
-662,218	-200,000	0,020	0,075
-661,203	-131,326	0,032	0,003
-660,189	-76,088	-0,095	0,024
-659,174	403,936	0,056	0,086
-658,159	26,815	-0,162	-0,099
-657,145	398,174	-0,085	-0,131
-656,130	-46,654	0,178	-0,064
-655,116	-200,000	0,004	0,033
-654,101	-45,649	-0,079	0,029
-653,086	787,603	0,035	0,071
-652,072	298,490	-0,052	0,070
-651,057	53,488	-0,166	-0,117
-650,043	-200,000	-0,021	-0,111
-649,028	-63,911	-0,131	-0,039
-648,014	-33,721	-0,026	0,011
-646,999	-32,894	0,178	-0,072
-645,984	-135,690	-0,051	-0,004
-644,970	800,000	-0,041	0,093
-643,955	23,262	-0,098	0,059
-642,941	800,000	0,029	-0,066
-641,926	800,000	-0,020	0,045
-640,911	17,140	0,070	0,041
-639,897	-200,000	-0,004	-0,032
-638,882	-78,790	-0,088	-0,022
-637,868	166,291	0,031	-0,033
-636,853	469,791	0,010	-0,016
-635,838	-200,000	-0,002	0,012
-634,824	-70,188	-0,022	0,006
-633,809	800,000	0,025	0,081
-632,795	181,238	0,004	0,004
-631,780	681,419	-0,034	-0,065
-630,765	800,000	0,087	-0,185
-629,751	-93,383	-0,038	0,008
-628,736	-200,000	-0,018	-0,124
-627,722	266,847	-0,074	-0,095
-626,707	-109,818	-0,243	0,037
-625,692	800,000	0,020	-0,065
-624,678	-78,275	-0,102	-0,026
-623,663	-100,566	-0,034	0,006
-622,649	-107,901	0,084	0,013
-621,634	-95,237	-0,062	0,012
-620,619	81,752	-0,099	0,078
-619,605	-200,000	-0,025	0,101
-618,590	-134,070	0,044	-0,004
-617,576	-200,000	0,011	-0,115
-616,561	-200,000	0,018	0,121
-615,546	517,810	-0,038	-0,065
-614,532	-27,793	-0,124	0,053
-613,517	-200,000	0,023	0,155
-612,503	314,481	-0,052	0,072
-611,488	69,691	0,050	-0,038
-610,474	102,606	0,026	-0,022
-609,459	800,000	0,088	-0,184
-608,444	-200,000	-0,017	-0,157
-607,430	800,000	-0,038	-0,103
-606,415	-89,546	0,026	-0,005
-605,401	163,607	-0,032	0,033
-604,386	-118,200	0,117	-0,015
-603,371	-200,000	0,015	0,101
-602,357	800,000	-0,037	-0,093
-601,342	-200,000	-0,022	-0,105
-600,328	27,814	0,051	-0,031
-599,313	84,184	0,064	-0,052
-598,298	-134,447	0,150	0,013
-597,284	531,202	0,052	-0,091
-596,269	-46,904	0,073	0,026
-595,255	591,105	-0,027	0,050
-594,240	75,675	-0,118	-0,091
-593,225	67,141	-0,057	-0,042
-592,211	-200,000	-0,003	-0,146
-591,196	34,615	-0,027	-0,017
-590,182	52,571	0,019	0,013
-589,167	-124,599	0,067	0,008
-588,152	34,271	-0,173	-0,110
-587,138	-200,000	-0,003	-0,030
-586,123	141,106	-0,116	-0,113
-585,109	71,154	0,030	-0,023
-584,094	-69,993	-0,056	-0,015
-583,079	-101,315	0,150	0,027
-582,065	604,826	0,024	0,044
-581,050	229,906	0,066	-0,079
-580,036	163,919	-0,104	-0,108
-579,021	350,165	-0,045	-0,065
-578,006	-148,033	0,036	-0,002
-576,992	-200,000	0,006	-0,110
-575,977	-11,481	0,109	0,052
-574,963	-91,255	0,043	-0,009
-573,948	-1,713	0,102	-0,052
-572,934	800,000	-0,033	-0,087
-571,919	-200,000	0,008	-0,088
-570,904	186,873	-0,018	-0,020
-569,890	-49,030	-0,067	-0,023
-568,875	-200,000	0,009	0,096
-567,861	40,294	-0,039	-0,026
-566,846	-23,012	0,074	-0,033
-565,831	8,644	0,117	-0,064
-564,817	-62,416	-0,144	-0,043
-563,802	-78,005	-0,130	0,033
-562,788	-16,047	-0,037	0,017
-561,773	800,000	0,029	0,060
-560,758	354,793	-0,036	-0,053
-559,744	-152,745	-0,063	-0,003
-558,729	-50,674	0,053	-0,018
-557,715	35,752	-0,060	-0,038
-556,700	-44,683	0,056	-0,020
-555,685	-44,183	0,108	-0,039
-554,671	-200,000	-0,001	0,049
-553,656	29,010	-0,074	0,046
-552,642	800,000	0,011	0,029
-551,627	-136,522	0,130	-0,011
-550,612	498,083	-0,069	0,117
-549,598	-173,612	-0,188	0,004
-548,583	62,892	-0,017	-0,012
-547,569	627,119	0,033	0,062
-546,554	-35,619	-0,154	-0,061
-545,539	148,891	0,127	-0,126
-544,525	260,546	-0,076	-0,096
-543,510	591,662	-0,048	-0,087
-542,496	-200,000	0,003	-0,027
-541,481	258,778	-0,072	0,091
-540,466	-20,572	0,043	-0,019
-539,452	124,795	0,067	0,062
-538,437	-200,000	0,019	-0,110
-537,423	-184,929	0,118	0,001
-536,408	800,000	-0,016	-0,035
-535,393	280,520	-0,087	-0,113
-534,379	-63,582	-0,064	0,019
-533,364	-26,047	-0,021	-0,009
-532,350	-163,376	-0,116	0,004
-531,335	-200,000	0,003	-0,018
-530,321	492,060	-0,064	0,108
-529,306	-200,000	0,031	0,106
-528,291	-170,984	0,028	-0,001
-527,277	-120,443	-0,068	-0,008
-526,262	800,000	-0,032	-0,074
-525,248	86,544	0,076	0,061
-524,233	-81,822	0,028	-0,007
-523,218	155,413	0,028	0,029
-522,204	-40,743	0,020	-0,007
-521,189	-114,916	0,022	0,003
-520,175	186,769	-0,077	0,084
-519,160	-200,000	0,006	-0,066
-518,145	-109,080	0,050	0,008
-517,131	2,349	0,138	0,073
-516,116	-28,739	-0,088	0,037
-515,102	800,000	0,056	0,136
-514,087	-114,442	0,075	-0,010
-513,072	800,000	-0,030	-0,080
-512,058	212,919	0,016	-0,018
-511,043	-39,354	-0,022	-0,008
-510,029	-158,034	-0,027	-0,001
-509,014	-200,000	-0,003	0,013
-507,999	40,820	-0,033	0,022
-506,985	-176,717	-0,043	0,001
-505,970	-200,000	-0,001	-0,199
-504,956	296,125	-0,057	-0,077
-503,941	215,479	0,046	-0,054
-502,926	4,488	0,044	-0,024
-501,912	800,000	0,046	0,121
-500,897	-165,077	0,150	0,005
-499,883	88,469	0,028	-0,022
-498,868	376,112	-0,012	-0,018
-497,853	-141,674	0,162	0,012
-496,839	-145,923	0,055	-0,004
-495,824	80,560	0,072	0,056
-494,810	189,969	0,033	0,036
-493,795	51,343	-0,093	-0,065
-492,781	800,000	0,026	-0,075
-491,766	-89,514	-0,038	-0,008
-490,751	-170,639	-0,193	0,005
-489,737	-200,000	-0,002	-0,038
-488,722	628,739	0,019	0,035
-487,708	-53,560	-0,082	-0,027
-486,693	258,728	0,021	0,027
-485,678	800,000	-0,062	0,127
-484,664	-200,000	0,003	0,054
-483,649	111,065	0,035	0,031
-482,635	5,722	0,019	0,010
-481,620	43,839	-0,082	-0,054
-480,605	142,191	-0,106	-0,103
-479,591	128,907	-0,026	-0,024
-478,576	45,753	-0,065	0,044
-477,562	-200,000	-0,012	-0,125
-476,547	545,944	-0,026	0,046
-475,532	-200,000	0,029	-0,163
-474,518	-98,728	-0,163	0,030
-473,503	800,000	-0,061	0,123
-472,489	30,256	-0,092	0,057
-471,474	74,056	-0,064	0,049
-470,459	-200,000	0,025	0,087
-469,445	135,627	-0,092	0,088
-468,430	-176,347	0,089	0,002
-467,416	-200,000	-0,007	0,077
-466,401	201,897	0,068	0,076
-465,386	264,401	0,093	0,119
-464,372	800,000	-0,030	0,067
-463,357	607,311	0,022	-0,040
-462,343	52,738	-0,057	0,039
-461,328	-177,279	-0,070	-0,001
-460,313	800,000	-0,045	-0,105
-459,299	-145,752	0,016	0,001
-458,284	-200,000	-0,011	-0,046
-457,270	-106,547	-0,151	0,024
-456,255	-110,353	-0,207	-0,031
-455,241	-200,000	-0,008	-0,077
-454,226	-200,000	0,026	-0,142
-453,211	694,413	-0,042	-0,080
-452,197	-96,173	0,230	-0,044
-451,182	-27,497	0,139	0,059
-450,168	800,000	0,006	0,013
-449,153	-128,853	0,034	-0,003
-448,138	99,502	0,054	-0,046
-447,124	-3,765	-0,094	0,047
-446,109	-147,884	0,117	-0,007
-445,095	300,223	-0,015	-0,021
-444,080	800,000	0,068	0,144
-443,065	27,388	-0,122	0,075
-442,051	-200,000	-0,017	-0,087
-441,036	-200,000	-0,017	-0,068
-440,022	-102,712	-0,141	0,024
-439,007	485,633	0,069	-0,114
-437,992	-200,000	0,013	-0,046
-436,978	-58,293	0,026	-0,008
-435,963	-19,413	-0,052	0,023
-434,949	800,000	-0,047	-0,101
-433,934	94,897	-0,094	0,078
-432,919	64,113	-0,040	0,029
-431,905	79,739	-0,078	-0,061
-430,890	425,665	-0,104	0,164
-429,876	-200,000	0,038	0,222
-428,861	-200,000	-0,025	0,111
-427,846	147,976	0,089	-0,088
-426,832	-146,702	-0,093	0,006
-425,817	380,463	-0,075	-0,112
-424,803	147,499	-0,076	-0,075
-423,788	51,753	-0,045	-0,031
-422,773	141,447	-0,067	0,065
-421,759	-173,586	0,158	0,003
-420,744	453,038	-0,033	-0,054
-419,730	63,902	-0,169	0,123
-418,715	-124,684	-0,129	0,014
-417,701	-200,000	0,002	-0,026
-416,686	-200,000	-0,011	-0,123
-415,671	-10,542	-0,082	0,040
-414,657	-200,000	-0,014	0,068
-413,642	133,463	0,097	0,091
-412,628	192,846	-0,039	-0,043
-411,613	800,000	-0,033	-0,099
-410,598	-87,173	0,057	0,013
-409,584	325,410	-0,091	0,126
-408,569	20,594	-0,104	0,061
-407,555	285,673	-0,013	-0,017
-406,540	219,739	-0,093	-0,109
-405,525	72,403	-0,119	-0,090
-404,511	-200,000	0,010	0,038
-403,496	-99,986	-0,043	0,008
-402,482	800,000	-0,051	-0,148
-401,467	-112,503	-0,039	0,006
-400,452	-200,000	-0,008	-0,047
-399,438	800,000	0,027	-0,066
-398,423	-200,000	0,021	0,082
-397,409	303,515	0,028	0,038
-396,394	-200,000	-0,007	0,036
-395,379	-12,247	-0,012	-0,006
-394,365	-133,290	0,120	-0,011
-393,350	-33,514	0,099	0,040
-392,336	-200,000	-0,004	0,157
-391,321	-24,814	-0,051	0,022
-390,306	22,400	0,113	-0,067
-389,292	-138,003	-0,109	-0,009
-388,277	-69,473	0,144	-0,040
-387,263	800,000	0,015	0,035
-386,248	17,661	0,034	-0,020
-385,233	-109,911	-0,153	-0,023
-384,219	800,000	0,056	-0,121
-383,204	-69,009	-0,144	0,040
-382,190	32,981	-0,081	0,051
-381,175	-200,000	-0,017	0,125
-380,160	-129,398	0,012	-0,001
-379,146	292,276	0,044	-0,058
-378,131	362,451	0,067	-0,099
-377,117	-200,000	-0,022	0,129
-376,102	-20,893	-0,053	0,024
-375,088	105,080	-0,056	-0,048
-374,073	800,000	-0,028	-0,081
-373,058	184,230	0,069	0,074
-372,044	7,360	0,137	0,074
-371,029	800,000	-0,036	0,085
-370,015	-57,600	0,048	-0,015
-369,000	67,708	0,093	0,069
-367,985	-200,000	0,006	0,100
-366,971	85,493	-0,052	-0,041
-365,956	6,764	0,085	-0,046
-364,942	800,000	-0,031	0,076
-363,927	800,000	0,082	0,166
-362,912	-0,358	-0,089	0,046
-361,898	470,736	0,045	-0,073
-360,883	800,000	-0,077	-0,186
-359,869	-111,440	-0,076	-0,011
-358,854	-200,000	-0,024	-0,117
-357,839	-52,486	-0,073	0,024
-356,825	-62,164	0,198	0,060
-355,810	74,888	-0,086	0,066
-354,796	-157,971	0,080	0,003
-353,781	209,038	0,060	-0,068
-352,766	800,000	0,008	-0,025
-351,752	360,278	0,102	0,149
-350,737	-114,782	0,062	-0,008
-349,723	-200,000	0,020	-0,079
-348,708	164,196	-0,040	-0,041
-347,693	59,118	0,010	0,007
-346,679	-112,520	-0,136	-0,019
-345,664	800,000	-0,029	-0,067
-344,650	212,647	0,032	-0,036
-343,635	110,314	-0,032	-0,028
-342,620	-200,000	-0,005	0,131
-341,606	92,721	0,120	0,098
-340,591	-120,361	-0,257	-0,031
-339,577	340,978	0,050	-0,071
-338,562	626,081	0,020	-0,036
-337,548	-67,666	0,023	0,007
-336,533	377,694	-0,075	0,111
-335,518	179,901	0,085	0,090
-334,504	193,117	0,123	0,135
-333,489	272,117	0,032	0,041
-332,475	-200,000	-0,007	0,045
-331,460	231,720	0,058	-0,068
-330,445	180,536	0,069	0,074
-329,431	152,911	0,080	0,080
-328,416	280,110	0,075	-0,098
-327,402	-159,117	-0,004	0,000
-326,387	-75,221	-0,132	0,034
-325,372	-87,413	0,158	0,035
-324,358	46,628	-0,059	0,040
-323,343	62,498	-0,061	-0,044
-322,329	144,073	0,066	-0,063
-321,314	-170,062	0,105	0,003
-320,299	800,000	0,060	0,187
-319,285	-24,614	-0,139	-0,060
-318,270	-200,000	-0,004	0,020
-317,256	800,000	-0,074	-0,182
-316,241	489,902	0,126	-0,210
-315,226	-51,786	0,026	-0,009
-314,212	96,096	-0,159	0,132
-313,197	212,014	0,052	0,059
-312,183	-12,917	-0,132	-0,062
-311,168	-147,563	0,094	-0,006
-310,153	800,000	0,049	0,101
-309,139	800,000	0,035	-0,081
-308,124	-175,930	0,102	-0,002
-307,110	197,195	0,060	0,066
-306,095	72,739	0,111	0,084
-305,080	800,000	0,003	-0,007
-304,066	-200,000	-0,014	-0,134
-303,051	-17,890	0,155	-0,070
-302,037	800,000	-0,020	-0,050
-301,022	96,197	-0,139	-0,115
-300,008	-200,000	0,012	0,086
-298,993	107,934	0,015	0,013
-297,978	-200,000	0,008	0,168
-296,964	60,693	-0,061	0,044
-295,949	-141,649	0,117	-0,008
-294,935	800,000	-0,035	-0,095
-293,920	21,365	0,153	-0,090
-292,905	21,687	0,068	0,040
-291,891	-200,000	0,008	0,034
-290,876	-200,000	-0,034	0,132
-289,862	-200,000	-0,011	-0,096
-288,847	313,071	0,063	-0,086
-287,832	-7,699	0,124	-0,061
-286,818	-7,295	0,036	0,018
-285,803	800,000	0,058	0,144
-284,789	800,000	0,071	0,173
-283,774	-46,658	0,154	0,054
-282,759	179,502	0,037	-0,039
-281,745	286,079	0,008	-0,011
-280,730	-39,598	0,159	0,060
-279,716	-200,000	0,009	-0,042
-278,701	126,190	-0,132	0,121
-277,686	800,000	-0,018	0,041
-276,672	70,679	0,069	-0,051
-275,657	211,490	-0,076	0,087
-274,643	-142,017	-0,054	-0,004
-273,628	91,288	0,092	-0,075
-272,613	-200,000	0,004	-0,028
-271,599	-200,000	0,010	-0,045
-270,584	-200,000	-0,024	0,177
-269,570	-127,965	-0,023	0,002
-268,555	800,000	-0,036	0,105
-267,540	-200,000	0,009	-0,074
-266,526	-200,000	-0,013	-0,069
-265,511	758,329	0,016	-0,031
-264,497	331,753	0,088	0,123
-263,482	-107,981	0,070	0,011
-262,467	215,392	0,096	0,110
-261,453	152,743	-0,057	0,056
-260,438	-77,565	-0,030	-0,007
-259,424	-200,000	0,000	-0,030
-258,409	237,237	0,027	0,032
-257,395	-60,742	-0,082	0,025
-256,380	-200,000	0,004	-0,053
-255,365	-200,000	-0,020	0,072
-254,351	375,802	0,074	0,109
-253,336	-200,000	-0,009	-0,033
-252,322	-200,000	0,016	0,072
-251,307	448,587	0,038	0,060
-250,292	-200,000	0,016	-0,119
-249,278	-200,000	0,005	0,053
-248,263	-200,000	0,038	0,124
-247,249	-200,000	0,014	0,107
-246,234	800,000	0,028	-0,074
-245,219	-95,055	0,030	0,006
-244,205	-80,009	-0,169	0,041
-243,190	-200,000	-0,010	-0,069
-242,176	785,543	-0,066	0,131
-241,161	313,593	-0,042	0,057
-240,146	7,099	0,038	0,021
-239,132	33,806	-0,051	-0,032
-238,117	-200,000	-0,018	0,130
-237,103	800,000	0,054	0,144
-236,088	800,000	0,011	0,026
-235,073	11,166	0,165	-0,091
-234,059	166,465	0,052	-0,053
-233,044	59,614	-0,081	0,057
-232,030	-200,000	-0,001	0,113
-231,015	35,812	-0,066	-0,042
-230,000	-200,000	0,042	0,144
-228,986	3,643	0,026	0,013
-227,971	-162,230	0,057	0,002
-226,957	-50,239	0,129	0,044
-225,942	-9,463	0,131	0,063
-224,927	-200,000	-0,003	0,016
-223,913	-0,855	-0,022	0,011
-222,898	-75,069	0,112	0,029
-221,884	303,248	-0,058	-0,077
-220,869	118,140	0,116	-0,103
-219,855	-200,000	-0,003	0,159
-218,840	-116,058	0,079	-0,011
-217,825	196,427	-0,008	0,009
-216,811	76,098	-0,060	-0,046
-215,796	-200,000	-0,035	-0,170
-214,782	-200,000	-0,015	-0,080
-213,767	-38,636	0,040	0,015
-212,752	-200,000	0,001	-0,093
-211,738	-154,404	-0,049	-0,002
-210,723	337,044	-0,012	0,017
-209,709	83,914	-0,085	0,067
-208,694	405,616	-0,068	-0,103
-207,679	132,697	-0,106	0,099
-206,665	-27,646	0,114	-0,047
-205,650	800,000	-0,023	-0,064
-204,636	-196,484	0,108	-0,001
-203,621	49,241	0,049	0,033
-202,606	-134,635	0,016	-0,001
-201,592	-200,000	0,001	-0,027
-200,577	-38,994	-0,142	0,053
-199,563	181,983	0,037	-0,039
-198,548	8,325	-0,030	-0,016
-197,533	497,320	0,111	0,184
-196,519	348,748	-0,084	0,120
-195,504	23,487	0,078	-0,046
-194,490	111,282	0,051	-0,044
-193,475	-111,715	-0,127	0,018
-192,460	-174,936	0,029	0,001
-191,446	-200,000	-0,005	-0,040
-190,431	530,684	0,038	0,065
-189,417	-200,000	0,001	0,088
-188,402	800,000	-0,030	-0,080
-187,387	800,000	-0,056	0,142
-186,373	427,802	0,042	0,065
-185,358	19,459	-0,098	-0,057
-184,344	-200,000	0,008	-0,076
-183,329	43,714	0,120	-0,079
-182,315	603,372	0,023	-0,042
-181,300	-200,000	0,014	-0,142
-180,285	-101,212	-0,052	0,009
-179,271	134,463	-0,052	0,049
-178,256	724,458	-0,055	0,106
-177,242	-200,000	-0,034	0,121
-176,227	800,000	0,016	0,041
-175,212	800,000	-0,045	-0,125
-174,198	381,636	-0,107	0,158
-173,183	-13,588	0,060	-0,028
-172,169	-200,000	0,039	-0,189
-171,154	-200,000	-0,003	-0,162
-170,139	-109,255	0,113	-0,017
-169,125	-25,658	0,070	-0,029
-168,110	-200,000	0,008	-0,169
-167,096	-58,284	0,068	-0,021
-166,081	800,000	0,019	0,052
-165,066	-200,000	0,020	-0,182
-164,052	-200,000	0,001	0,032
-163,037	227,803	0,083	-0,097
-162,023	217,476	0,069	-0,080
-161,008	-200,000	0,013	0,060
-159,993	-29,199	-0,060	-0,025
-158,979	-78,319	0,059	0,015
-157,964	-200,000	0,050	0,190
-156,950	427,355	0,012	0,018
-155,935	-200,000	0,015	-0,049
-154,920	-200,000	-0,036	0,123
-153,906	-135,707	0,160	-0,013
-152,891	-33,236	-0,145	0,058
-151,877	553,964	0,013	-0,023
-150,862	-200,000	0,017	-0,120
-149,847	311,831	-0,068	-0,093
-148,833	121,456	0,060	0,054
-147,818	83,697	0,041	0,032
-146,804	8,682	0,126	0,068
-145,789	99,126	-0,059	0,049
-144,775	686,428	0,021	-0,041
-143,760	-200,000	-0,012	-0,079
-142,745	800,000	-0,035	-0,076
-141,731	435,850	0,106	-0,166
-140,716	-9,946	-0,035	0,017
-139,702	56,454	0,100	0,070
-138,687	164,576	-0,008	-0,009
-137,672	74,616	-0,111	-0,084
-136,658	-200,000	-0,003	-0,026
-135,643	-200,000	-0,008	-0,030
-134,629	116,928	-0,060	-0,053
-133,614	-200,000	-0,002	0,062
-132,599	71,679	-0,011	0,008
-131,585	19,193	0,058	0,033
-130,570	-95,822	-0,177	-0,034
-129,556	-200,000	0,002	-0,085
-128,541	800,000	-0,045	-0,094
-127,526	28,778	0,116	-0,070
-126,512	-200,000	0,013	0,074
-125,497	-56,809	0,117	-0,037
-124,483	143,326	-0,027	-0,026
-123,468	125,951	-0,050	-0,046
-122,453	39,250	0,026	0,017
-121,439	800,000	-0,079	-0,168
-120,424	-200,000	-0,021	-0,134
-119,410	800,000	0,045	-0,135
-118,395	-200,000	-0,005	0,015
-117,380	313,341	-0,051	0,069
-116,366	-104,635	-0,067	-0,011
-115,351	265,481	0,051	0,064
-114,337	62,884	-0,078	0,056
-113,322	-200,000	0,031	0,104
-112,307	-99,345	-0,052	0,009
-111,293	-36,350	-0,061	0,024
-110,278	-67,054	0,150	0,042
-109,264	-175,375	0,047	0,001
-108,249	795,813	0,080	-0,159
-107,234	55,049	0,122	-0,084
-106,220	70,695	0,144	0,107
-105,205	-200,000	0,007	0,037
-104,191	-93,574	-0,071	0,014
-103,176	225,361	0,029	0,034
-102,162	800,000	-0,034	-0,099
-101,147	534,065	-0,034	-0,059
-100,132	800,000	-0,032	0,100
-99,118	543,662	0,030	-0,052
-98,103	-200,000	0,004	-0,130
-97,089	150,569	-0,037	0,036
-96,074	-54,770	0,063	0,020
-95,059	-182,086	-0,084	0,001
-94,045	-200,000	-0,020	-0,093
-93,030	-38,983	-0,051	0,019
-92,016	-106,898	0,106	-0,017
-91,001	474,767	0,071	0,115
-89,986	139,907	0,086	-0,081
-88,972	90,459	0,077	-0,062
-87,957	-134,064	-0,120	0,011
-86,943	-88,806	0,053	-0,011
-85,928	-44,963	-0,101	0,036
-84,913	800,000	0,016	-0,049
-83,899	-67,552	0,080	0,022
-82,884	-56,654	0,116	0,037
-81,870	63,321	0,097	0,070
-80,855	230,764	0,030	0,035
-79,840	-46,661	-0,127	-0,045
-78,826	38,119	-0,125	0,080
-77,811	-155,414	-0,074	-0,003
-76,797	218,159	-0,083	-0,095
-75,782	38,871	0,057	-0,036
-74,767	477,483	-0,047	-0,076
-73,753	-162,786	0,131	0,004
-72,738	92,649	-0,065	-0,053
-71,724	202,354	0,087	-0,096
-70,709	-4,052	-0,048	-0,024
-69,694	-61,302	0,045	-0,014
-68,680	-153,738	-0,011	-0,001
-67,665	800,000	0,028	0,081
-66,651	547,866	-0,036	-0,063
-65,636	46,659	0,028	-0,019
-64,622	-200,000	0,031	-0,150
-63,607	800,000	0,030	-0,078
-62,592	13,013	-0,068	0,038
-61,578	-200,000	-0,006	-0,033
-60,563	-200,000	-0,013	-0,080
-59,549	-200,000	-0,016	-0,056
-58,534	13,355	-2,122	-1,177
-57,519	-200,000	-0,219	-0,762
-56,505	-200,000	-1,338	-5,101
-55,490	125,559	0,890	0,805
-54,476	800,000	5,340	12,030
-53,461	-200,000	18,532	316,317
-52,446	800,000	741,124	2332,674
-51,432	558,759	1657,124	2878,916
-50,417	111,197	1640,764	1417,227
-49,403	75,503	1290,972	976,218
-48,388	30,374	1031,385	630,346
-47,373	19,956	994,087	573,033
-46,359	17,413	981,636	557,461
-45,344	14,130	977,961	544,556
-44,330	14,456	976,326	544,695
-43,315	13,853	974,272	541,548
-42,300	13,738	973,308	540,616
-41,286	13,706	972,497	540,039
-40,271	13,710	971,583	539,523
-39,257	13,756	970,481	539,041
-38,242	13,767	969,730	538,637
-37,227	13,704	968,994	538,000
-36,213	13,710	967,873	537,375
-35,198	13,768	966,992	537,053
-34,184	13,751	966,323	536,606
-33,169	13,754	965,244	535,995
-32,154	13,800	964,392	535,650
-31,140	13,784	963,549	535,110
-30,125	13,811	962,710	534,709
-29,111	13,774	961,860	534,098
-28,096	13,787	961,366	533,842
-27,082	13,823	960,458	533,434
-26,067	13,800	959,912	533,035
-25,052	13,765	959,042	532,418
-24,038	13,720	958,500	531,951
-23,023	13,691	957,865	531,485
-22,009	13,749	957,184	531,274
-20,994	13,803	956,406	530,992
-19,979	13,747	956,015	530,575
-18,965	13,765	955,260	530,191
-17,950	13,803	954,719	529,994
-16,936	13,714	954,143	529,367
-15,921	13,725	953,329	528,929
-14,906	13,655	952,561	528,259
-13,892	13,711	951,859	528,028
-12,877	13,610	951,451	527,457
-11,863	13,643	950,691	527,121
-10,848	13,651	950,144	526,820
-9,833	13,757	949,466	526,764
-8,819	13,775	948,773	526,414
-7,804	13,722	948,169	525,889
-6,790	13,619	947,648	525,251
-5,775	13,602	947,339	525,004
-4,760	13,665	946,713	524,837
-3,746	13,612	946,115	524,317
-2,731	13,484	945,338	523,458
-1,717	13,477	944,502	522,953
-0,702	13,490	944,012	522,702
0,313	13,307	943,085	522,396
1,327	16,642	940,820	531,652
2,342	25,676	795,813	473,707
3,356	21,963	460,783	268,551
4,371	-5,048	318,158	156,360
5,386	-8,814	299,836	143,485
6,400	-10,886	293,911	138,554
7,415	-11,035	291,365	137,193
8,429	-11,329	289,627	136,071
9,444	-11,556	288,989	135,534
10,459	-11,461	288,286	135,287
11,473	-11,434	287,679	135,016
12,488	-11,508	287,121	134,669
13,502	-11,474	286,712	134,500
14,517	-11,438	286,285	134,322
15,531	-11,411	285,648	134,038
16,546	-11,419	285,378	133,892
17,561	-11,427	285,004	133,696
18,575	-11,414	284,751	133,578
19,590	-11,631	284,337	133,161
20,604	-11,317	283,956	133,276
21,619	-11,532	283,696	132,933
22,634	-11,279	283,138	132,904
23,648	-11,454	282,957	132,639
24,663	-11,311	282,628	132,611
25,677	-11,538	282,451	132,296
26,692	-11,632	282,365	132,154
27,707	-11,377	281,967	132,201
28,721	-11,499	281,717	131,955
29,736	-11,590	281,379	131,697
30,750	-11,590	280,851	131,439
31,765	-11,514	280,789	131,471
32,780	-11,395	280,573	131,472
33,794	-11,546	280,339	131,206
34,809	-11,296	280,073	131,309
35,823	-11,346	279,652	131,052
36,838	-11,540	279,523	130,795
37,853	-11,410	279,335	130,819
38,867	-11,408	279,091	130,695
39,882	-11,567	278,803	130,397
40,896	-11,443	278,507	130,365
41,911	-11,490	278,165	130,148
42,926	-11,500	278,073	130,085
43,940	-11,534	277,634	129,835
44,955	-11,558	277,414	129,699
45,969	-11,534	277,246	129,632
46,984	-11,692	277,137	129,419
47,999	-11,897	276,800	129,057
49,013	-11,926	276,510	128,882
50,028	-12,163	276,293	128,547
51,042	-12,129	275,988	128,426
52,057	-12,076	275,538	128,254
53,071	-12,154	275,616	128,205
54,086	-12,024	275,343	128,189
55,101	-11,843	275,189	128,276
56,115	-11,681	274,990	128,324
57,130	-11,334	274,730	128,515
58,144	-11,433	274,717	128,405
59,159	-11,309	274,453	128,387
60,174	-11,407	274,162	128,148
61,188	-11,424	274,037	128,062
62,203	-11,482	273,832	127,900
63,217	-11,351	273,427	127,822
64,232	-11,505	273,317	127,616
65,247	-11,300	273,085	127,687
66,261	-11,613	272,801	127,252
67,276	-11,589	272,596	127,167
68,290	-11,623	272,303	126,988
69,305	-11,673	272,026	126,800
70,320	-11,612	271,729	126,707
71,334	-11,540	271,678	126,739
72,349	-11,381	271,433	126,760
73,363	-11,246	271,228	126,778
74,378	-11,318	270,932	126,562
75,393	-11,293	270,793	126,509
76,407	-11,451	270,672	126,296
77,422	-11,304	270,216	126,206
78,436	-11,258	270,087	126,177
79,451	-11,408	269,944	125,962
80,466	-11,349	269,742	125,910
81,480	-11,385	269,399	125,706
82,495	-11,454	269,096	125,490
83,509	-11,437	268,953	125,428
84,524	-11,632	268,879	125,203
85,539	-11,681	268,609	125,022
86,553	-11,573	268,275	124,954
87,568	-11,703	268,244	124,810
88,582	-11,554	267,929	124,788
89,597	-11,519	267,735	124,718
90,611	-11,464	267,560	124,675
91,626	-11,479	267,515	124,630
92,641	-11,410	267,216	124,542
93,655	-11,311	266,893	124,470
94,670	-11,442	266,735	124,267
95,684	-11,361	266,377	124,162
96,699	-11,381	266,207	124,054
97,714	-11,645	266,133	123,770
98,728	-11,718	265,917	123,592
99,743	-11,793	265,712	123,418
100,757	-11,777	265,390	123,272
101,772	-11,461	265,251	123,481
102,787	-11,426	265,164	123,460
103,801	-11,415	264,897	123,336
104,816	-11,302	264,809	123,385
105,830	-11,328	264,709	123,304
106,845	-11,285	264,432	123,203
107,860	-11,172	264,176	123,173
108,874	-11,380	263,921	122,858
109,889	-11,223	263,692	122,880
110,903	-11,417	263,596	122,651
111,918	-11,545	263,281	122,380
112,933	-11,558	263,170	122,305
113,947	-11,321	262,970	122,413
114,962	-11,272	262,734	122,336
115,976	-11,323	262,518	122,179
116,991	-11,440	262,466	122,040
118,006	-11,405	262,234	121,952
119,020	-11,386	262,048	121,871
120,035	-11,467	262,058	121,794
121,049	-11,253	261,763	121,835
122,064	-11,292	261,624	121,725
123,079	-11,361	261,320	121,511
124,093	-11,477	261,128	121,309
125,108	-11,491	260,835	121,149
126,122	-11,736	260,610	120,818
127,137	-11,778	260,346	120,648
128,151	-11,553	260,195	120,766
129,166	-11,539	260,005	120,679
130,181	-11,760	259,831	120,393
131,195	-11,810	259,642	120,251
132,210	-11,458	259,431	120,451
133,224	-11,396	259,352	120,458
134,239	-11,483	259,067	120,239
135,254	-11,392	258,806	120,187
136,268	-11,362	258,591	120,102
137,283	-11,626	258,456	119,798
138,297	-11,751	258,144	119,533
139,312	-11,684	257,812	119,428
140,327	-11,489	257,977	119,664
141,341	-11,511	257,829	119,565
142,356	-11,248	257,587	119,671
143,370	-11,200	257,279	119,559
144,385	-11,238	257,442	119,591
145,400	-11,468	257,143	119,242
146,414	-11,289	256,912	119,280
147,429	-11,153	256,700	119,289
148,443	-11,267	256,479	119,076
149,458	-11,241	256,329	119,018
150,473	-11,016	256,112	119,101
151,487	-11,193	255,825	118,805
152,502	-11,286	255,788	118,697
153,516	-11,253	255,593	118,624
154,531	-11,050	255,381	118,691
155,546	-11,236	255,217	118,443
156,560	-11,089	255,058	118,486
157,575	-11,282	254,650	118,120
158,589	-11,317	254,562	118,038
159,604	-11,263	254,428	118,012
160,619	-11,028	254,217	118,105
161,633	-11,240	254,183	117,897
162,648	-11,185	253,927	117,815
163,662	-11,046	253,645	117,792
164,677	-11,233	253,706	117,650
165,692	-11,339	253,485	117,447
166,706	-11,320	253,288	117,361
167,721	-11,153	253,071	117,392
168,735	-11,066	252,851	117,354
169,750	-11,143	252,890	117,296
170,764	-11,217	252,684	117,127
171,779	-11,057	252,443	117,141
172,794	-11,182	252,351	116,981
173,808	-11,326	251,986	116,680
174,823	-11,664	251,747	116,272
175,837	-11,926	251,571	115,958
176,852	-11,288	251,526	116,468
177,867	-11,188	251,437	116,500
178,881	-11,200	251,261	116,398
179,896	-11,134	250,996	116,322
180,910	-11,080	250,884	116,304
181,925	-11,100	250,649	116,169
182,940	-11,178	250,528	116,037
183,954	-11,108	250,308	115,983
184,969	-11,144	250,230	115,907
185,983	-11,125	249,915	115,766
186,998	-10,989	249,751	115,794
188,013	-11,077	249,580	115,630
189,027	-11,147	249,577	115,560
190,042	-11,160	249,397	115,456
191,056	-11,096	248,955	115,294
192,071	-11,133	248,862	115,210
193,086	-11,162	248,694	115,098
194,100	-11,080	248,432	115,034
195,115	-11,167	248,443	114,957
196,129	-11,081	248,213	114,912
197,144	-10,967	247,880	114,842
198,159	-11,194	247,823	114,617
199,173	-10,954	247,550	114,680
200,188	-11,227	247,468	114,404
201,202	-11,230	247,288	114,309
202,217	-11,520	246,840	113,850
203,232	-11,664	246,713	113,663
204,246	-11,137	246,839	114,148
205,261	-10,851	246,491	114,214
206,275	-12,051	246,042	113,002
207,290	-8,428	247,611	116,728
208,304	-0,333	250,295	124,772
209,319	4,215	251,524	129,192
210,334	4,896	251,625	129,804
211,348	5,150	251,493	129,937
212,363	5,198	251,503	129,970
213,377	5,167	251,401	129,880
214,392	5,077	251,086	129,630
215,407	5,063	250,760	129,439
216,421	4,733	250,801	129,173
217,436	5,182	250,616	129,441
218,450	5,226	250,402	129,355
219,465	4,991	250,192	129,040
220,480	4,688	250,017	128,686
221,494	4,864	249,771	128,694
222,509	4,690	249,756	128,530
223,523	4,544	249,529	128,280
224,538	4,525	249,060	128,012
225,553	4,313	249,190	127,892
226,567	4,525	248,994	127,955
227,582	4,758	248,665	127,968
228,596	4,573	248,703	127,823
229,611	4,344	248,321	127,426
230,626	4,197	248,138	127,200
231,640	4,236	248,046	127,173
232,655	4,572	247,891	127,360
233,669	4,598	247,561	127,200
234,684	4,136	247,457	126,755
235,699	4,616	247,482	127,152
236,713	4,811	247,440	127,279
237,728	4,482	247,104	126,824
238,742	4,347	246,867	126,581
239,757	4,249	246,726	126,417
240,772	4,368	246,584	126,430
241,786	4,411	246,288	126,303
242,801	4,304	246,313	126,216
243,815	4,208	246,004	125,969
244,830	4,531	246,007	126,223
245,844	4,492	246,024	126,188
246,859	4,428	245,595	125,905
247,874	4,431	245,309	125,750
248,888	4,398	245,426	125,771
249,903	4,615	245,123	125,781
250,917	4,519	245,241	125,753
251,932	4,629	245,228	125,824
252,947	4,469	244,756	125,440
253,961	4,458	244,394	125,235
254,976	4,479	244,350	125,218
255,990	4,779	244,180	125,363
257,005	4,449	244,160	125,075
258,020	4,109	243,948	124,680
259,034	4,328	243,748	124,743
260,049	4,727	243,524	124,940
261,063	4,337	243,442	124,572
262,078	4,265	243,125	124,340
263,093	4,436	243,192	124,501
264,107	4,481	242,880	124,367
265,122	4,351	242,836	124,229
266,136	4,540	242,719	124,310
267,151	4,774	242,687	124,470
268,166	4,318	242,362	123,926
269,180	4,287	242,115	123,764
270,195	4,730	241,991	124,045
271,209	5,086	242,057	124,353
272,224	4,444	241,688	123,639
273,239	4,074	241,317	123,142
274,253	4,133	241,369	123,204
275,268	4,407	241,295	123,375
276,282	4,345	241,255	123,294
277,297	4,242	240,874	123,006
278,312	4,244	240,793	122,955
279,326	4,509	240,584	123,049
280,341	4,714	240,538	123,177
281,355	4,436	240,443	122,896
282,370	4,552	240,294	122,902
283,384	4,643	239,969	122,797
284,399	4,235	239,888	122,420
285,414	4,081	239,747	122,215
286,428	4,343	239,537	122,305
287,443	4,491	239,356	122,319
288,457	4,532	239,412	122,369
289,472	4,523	239,127	122,205
290,487	4,505	238,908	122,069
291,501	4,473	238,585	121,867
292,516	4,129	238,455	121,519
293,530	4,133	238,385	121,475
294,545	4,444	238,489	121,763
295,560	4,495	238,180	121,634
296,574	4,087	237,963	121,191
297,589	4,202	237,915	121,247
298,603	4,625	237,800	121,510
299,618	4,649	237,595	121,413
300,633	4,583	237,572	121,338
301,647	4,478	237,596	121,258
302,662	4,821	237,474	121,453
303,676	4,841	237,152	121,294
304,691	4,663	236,961	121,047
305,706	4,999	236,844	121,238
306,720	4,950	236,747	121,140
307,735	4,863	236,496	120,932
308,749	4,486	236,316	120,535
309,764	4,387	236,163	120,369
310,779	4,284	235,899	120,144
311,793	4,224	235,582	119,926
312,808	4,160	235,561	119,854
313,822	4,261	235,378	119,828
314,837	4,106	235,238	119,626
315,852	4,092	235,138	119,554
316,866	4,213	234,945	119,539
317,881	4,320	234,842	119,559
318,895	4,447	234,929	119,691
319,910	5,033	234,717	120,027
320,925	4,509	234,478	119,488
321,939	4,075	234,250	119,026
322,954	4,520	234,139	119,302
323,968	4,429	234,052	119,177
324,983	4,576	233,885	119,194
325,997	4,868	233,881	119,407
327,012	4,691	233,677	119,157
328,027	4,451	233,609	118,926
329,041	4,763	233,506	119,103
330,056	5,120	233,429	119,328
331,070	5,158	233,383	119,322
332,085	4,789	232,968	118,816
333,100	4,639	232,623	118,515
334,114	4,700	232,588	118,533
335,129	4,802	232,518	118,565
336,143	4,919	232,381	118,575
337,158	4,809	232,305	118,441
338,173	4,457	232,002	118,007
339,187	4,355	231,896	117,865
340,202	4,458	231,771	117,869
341,216	4,403	231,632	117,746
342,231	4,568	231,356	117,721
343,246	4,358	231,261	117,503
344,260	4,651	231,234	117,701
345,275	4,757	231,100	117,703
346,289	4,666	231,032	117,589
347,304	4,876	230,816	117,627
348,319	4,868	230,608	117,505
349,333	4,644	230,426	117,233
350,348	4,277	230,415	116,938
351,362	4,350	230,171	116,859
352,377	4,404	229,804	116,703
353,392	4,188	229,586	116,419
354,406	4,274	229,546	116,453
355,421	196,084	1317,156	1394,180
356,435	157,330	1449,628	1394,141
