DTS Sentinel unit serial number:	SN410029Multiplexer serial number:	ORYXHardware model number:	OX2-SRSoftware version number:	ORYX F/W v4,00 Oryx Data Collector v3.7.2.0data status	okinstallation	B5 Nyhavnadifferential loss correction	single-endedforward channel	channel 2reverse channel	N/Adate	2023/12/12time	05:12:13forward acquisition time	300,00reverse acquisition time	0,00gamma	499,1914k internal	0,3157k external	0,3157temperature offset calibration	1,0000default loss term (dB/km)	0,3820temperature slope calibration	1,0000multiplexer offset coefficient	1,0000multiplexer slope coefficient	1,0000fibre end	0,00T internal ref (°C)	15,40T ext. ref 1 (°C)	-1,00T ext. ref 2 (°C)	-1,28length (m)	temperature (°C)	Stokes	anti-Stokes-744,400	25,466	0,083	-0,051
-743,385	-53,446	-0,183	-0,062
-742,371	113,115	0,072	0,065
-741,356	-20,983	-0,291	0,131
-740,342	306,545	-0,109	-0,150
-739,327	-169,007	-0,323	-0,009
-738,312	-47,112	0,085	0,030
-737,298	-52,017	-0,339	-0,115
-736,283	694,923	-0,027	0,053
-735,269	-79,733	-0,200	0,049
-734,254	-200,000	-0,005	0,074
-733,239	-15,021	-0,523	-0,246
-732,225	25,319	0,196	-0,120
-731,210	-11,879	-0,079	0,038
-730,196	18,817	-0,022	-0,013
-729,181	-27,791	0,035	0,015
-728,167	-61,421	-0,075	-0,023
-727,152	-200,000	-0,000	-0,243
-726,137	11,035	-0,113	-0,063
-725,123	-3,096	-0,057	0,029
-724,108	-39,328	0,141	-0,054
-723,094	-200,000	0,022	-0,114
-722,079	407,363	-0,089	-0,139
-721,064	-200,000	0,004	0,073
-720,050	-67,065	-0,099	0,029
-719,035	-57,601	-0,096	-0,031
-718,021	525,734	0,042	0,074
-717,006	349,873	-0,086	0,125
-715,991	-200,000	-0,010	-0,058
-714,977	-200,000	0,019	0,098
-713,962	574,379	-0,037	0,066
-712,948	124,588	0,048	0,044
-711,933	52,284	-0,131	-0,092
-710,918	800,000	-0,032	0,083
-709,904	386,976	-0,039	-0,060
-708,889	372,112	0,039	-0,059
-707,875	-115,552	-0,085	-0,012
-706,860	-52,462	0,151	0,051
-705,845	-71,271	0,155	-0,043
-704,831	221,744	0,074	0,087
-703,816	-200,000	-0,017	0,067
-702,802	125,384	-0,072	0,067
-701,787	-88,069	-0,058	-0,013
-700,772	-200,000	0,005	0,060
-699,758	-72,756	0,036	-0,010
-698,743	-154,139	0,108	-0,005
-697,729	-50,587	-0,075	-0,026
-696,714	-200,000	0,001	0,050
-695,699	800,000	-0,041	0,086
-694,685	-200,000	-0,008	-0,035
-693,670	-88,637	-0,081	-0,018
-692,656	-200,000	-0,001	-0,054
-691,641	468,295	0,025	0,041
-690,627	266,521	-0,023	0,030
-689,612	573,877	-0,056	0,101
-688,597	28,164	0,125	-0,077
-687,583	-95,727	-0,136	-0,027
-686,568	385,116	-0,054	0,083
-685,554	136,862	0,049	-0,047
-684,539	-200,000	0,004	0,033
-683,524	16,192	0,004	-0,002
-682,510	-200,000	-0,015	-0,080
-681,495	211,720	-0,064	0,075
-680,481	415,056	0,027	0,042
-679,466	234,969	-0,093	-0,114
-678,451	-200,000	0,017	-0,103
-677,437	109,738	-0,054	0,048
-676,422	576,464	0,040	0,073
-675,408	-200,000	-0,002	0,015
-674,393	8,198	-0,096	0,053
-673,378	-41,869	-0,296	-0,111
-672,364	-200,000	0,013	-0,056
-671,349	-200,000	0,002	-0,136
-670,335	588,319	-0,034	-0,062
-669,320	-159,166	0,075	0,003
-668,305	-73,038	-0,070	0,019
-667,291	64,634	0,053	0,039
-666,276	-200,000	0,018	-0,078
-665,262	-200,000	-0,036	-0,224
-664,247	-200,000	-0,002	-0,106
-663,232	-102,851	0,112	-0,019
-662,218	-152,740	0,103	-0,005
-661,203	-124,285	-0,104	-0,012
-660,189	467,656	-0,092	0,153
-659,174	-181,596	0,013	-0,000
-658,159	-35,862	-0,090	-0,036
-657,145	83,073	-0,059	-0,047
-656,130	300,923	0,071	-0,096
-655,116	34,138	0,135	0,086
-654,101	-200,000	-0,021	-0,123
-653,086	-200,000	0,018	0,125
-652,072	140,413	-0,046	-0,045
-651,057	-88,144	-0,050	0,011
-650,043	175,554	-0,073	0,078
-649,028	800,000	-0,052	-0,107
-648,014	-159,279	-0,047	-0,002
-646,999	137,732	-0,065	0,062
-645,984	-200,000	-0,003	-0,046
-644,970	800,000	0,029	-0,063
-643,955	-200,000	-0,004	-0,014
-642,941	800,000	-0,032	-0,078
-641,926	-200,000	0,016	-0,139
-640,911	800,000	-0,047	-0,126
-639,897	-81,851	0,084	0,020
-638,882	-137,724	-0,032	0,003
-637,868	-200,000	0,022	-0,081
-636,853	418,784	-0,085	-0,134
-635,838	-200,000	0,022	-0,141
-634,824	358,279	0,081	-0,120
-633,809	-124,266	-0,190	0,022
-632,795	-121,933	0,065	0,008
-631,780	800,000	-0,014	0,040
-630,765	247,318	-0,044	0,055
-629,751	193,408	-0,124	-0,138
-628,736	-127,823	-0,085	0,009
-627,722	-200,000	0,013	0,069
-626,707	-200,000	0,016	-0,083
-625,692	235,385	-0,060	-0,073
-624,678	7,590	-0,003	0,002
-623,663	-97,453	0,017	-0,003
-622,649	-87,813	0,060	0,013
-621,634	234,350	0,024	-0,029
-620,619	-200,000	-0,012	0,051
-619,605	-200,000	0,026	0,115
-618,590	-200,000	0,001	0,008
-617,576	-169,941	0,035	0,001
-616,561	268,531	0,044	0,057
-615,546	339,894	0,094	0,135
-614,532	44,959	-0,178	-0,120
-613,517	-80,954	0,042	0,010
-612,503	-126,594	0,055	0,006
-611,488	-200,000	0,004	-0,081
-610,474	-41,336	-0,047	-0,018
-609,459	153,288	0,086	0,087
-608,444	671,317	-0,071	-0,136
-607,430	-0,070	0,131	-0,068
-606,415	800,000	-0,039	-0,097
-605,401	-200,000	0,040	0,150
-604,386	-98,215	-0,123	0,023
-603,371	35,615	0,056	-0,036
-602,357	-200,000	-0,024	0,132
-601,342	-24,745	-0,023	-0,010
-600,328	340,297	-0,057	-0,082
-599,313	4,323	-0,117	-0,063
-598,298	47,198	-0,065	-0,044
-597,284	85,093	0,030	-0,024
-596,269	-97,467	0,083	0,016
-595,255	800,000	-0,040	-0,091
-594,240	-97,544	-0,050	-0,009
-593,225	455,127	0,017	-0,028
-592,211	-200,000	0,013	-0,106
-591,196	702,260	0,056	-0,109
-590,182	-25,692	0,130	-0,056
-589,167	6,315	-0,080	-0,044
-588,152	-200,000	-0,008	-0,080
-587,138	246,886	0,063	-0,078
-586,123	800,000	-0,020	-0,054
-585,109	32,870	0,094	0,060
-584,094	263,778	-0,056	-0,072
-583,079	-200,000	-0,006	-0,116
-582,065	800,000	0,036	0,077
-581,050	269,908	0,026	0,034
-580,036	-58,962	-0,117	0,037
-579,021	800,000	0,044	-0,100
-578,006	7,788	-0,041	-0,022
-576,992	-56,325	-0,058	0,019
-575,977	-200,000	-0,012	-0,114
-574,963	-200,000	0,004	0,075
-573,948	-36,230	-0,110	0,043
-572,934	-200,000	-0,000	0,072
-571,919	-200,000	-0,022	-0,109
-570,904	67,547	-0,145	-0,108
-569,890	422,413	0,035	0,055
-568,875	800,000	-0,042	0,129
-567,861	149,895	-0,109	0,109
-566,846	122,421	-0,127	0,116
-565,831	-1,611	-0,082	0,042
-564,817	101,993	-0,080	0,068
-563,802	-129,523	-0,105	-0,011
-562,788	800,000	0,040	-0,086
-561,773	-55,392	-0,042	0,014
-560,758	530,728	-0,011	-0,019
-559,744	460,505	0,070	0,114
-558,729	-28,505	-0,042	-0,018
-557,715	-200,000	0,006	0,073
-556,700	800,000	0,078	-0,162
-555,685	-65,892	-0,091	0,026
-554,671	800,000	-0,022	0,069
-553,656	500,005	0,084	0,141
-552,642	-84,458	-0,019	-0,004
-551,627	-146,670	-0,027	-0,002
-550,612	-63,086	0,092	-0,028
-549,598	800,000	-0,070	-0,163
-548,583	-200,000	0,003	-0,035
-547,569	7,182	0,129	-0,070
-546,554	192,209	-0,045	0,050
-545,539	-128,117	0,107	0,011
-544,525	-77,509	0,193	0,049
-543,510	-53,158	0,096	-0,032
-542,496	-145,474	-0,126	-0,008
-541,481	-200,000	0,001	-0,088
-540,466	-200,000	-0,008	-0,086
-539,452	-55,045	0,150	0,049
-538,437	-200,000	-0,002	-0,146
-537,423	-63,634	0,161	-0,048
-536,408	-200,000	-0,025	0,100
-535,393	-99,813	-0,026	0,005
-534,379	-200,000	-0,036	-0,178
-533,364	199,020	-0,043	-0,049
-532,350	315,551	0,054	0,075
-531,335	-200,000	-0,001	0,025
-530,321	800,000	0,027	0,081
-529,306	-117,162	-0,059	0,008
-528,291	52,841	-0,080	0,056
-527,277	-200,000	0,010	0,082
-526,262	-112,993	0,108	-0,015
-525,248	-120,143	-0,092	0,011
-524,233	3,777	-0,139	0,074
-523,218	-200,000	0,017	0,091
-522,204	30,782	0,065	0,040
-521,189	-124,299	-0,062	0,007
-520,175	-200,000	-0,009	0,040
-519,160	800,000	-0,015	-0,047
-518,145	-200,000	-0,006	0,094
-517,131	-200,000	0,016	0,084
-516,116	-106,968	-0,036	0,006
-515,102	-49,988	-0,094	-0,032
-514,087	261,266	-0,070	-0,089
-513,072	53,861	-0,105	-0,074
-512,058	-47,593	0,096	0,034
-511,043	-5,597	-0,102	0,051
-510,029	800,000	-0,028	0,061
-509,014	-200,000	-0,008	0,078
-507,999	800,000	0,045	0,113
-506,985	-133,212	0,092	-0,008
-505,970	-200,000	0,001	0,117
-504,956	751,264	-0,036	0,072
-503,941	-56,534	0,079	0,025
-502,926	800,000	0,041	0,099
-501,912	101,256	0,026	-0,022
-500,897	9,679	-0,188	0,104
-499,883	-80,240	-0,005	-0,001
-498,868	800,000	-0,059	-0,157
-497,853	-102,926	-0,054	-0,009
-496,839	-147,002	-0,041	0,003
-495,824	-200,000	-0,001	0,069
-494,810	800,000	-0,020	0,059
-493,795	104,071	0,065	-0,055
-492,781	-200,000	-0,005	-0,029
-491,766	800,000	-0,074	0,198
-490,751	-183,447	-0,129	-0,002
-489,737	528,396	0,017	0,029
-488,722	91,879	0,128	0,105
-487,708	149,229	-0,073	-0,073
-486,693	-200,000	0,014	-0,091
-485,678	266,740	0,044	0,056
-484,664	514,900	0,026	-0,045
-483,649	-200,000	0,002	-0,139
-482,635	551,616	0,010	0,017
-481,620	-80,829	-0,098	0,023
-480,605	-200,000	0,028	0,114
-479,591	800,000	0,053	0,118
-478,576	-51,914	0,086	-0,029
-477,562	-200,000	0,006	0,196
-476,547	8,067	-0,144	-0,079
-475,532	47,314	0,046	-0,031
-474,518	-10,821	0,116	-0,056
-473,503	160,024	0,069	-0,070
-472,489	-200,000	0,004	0,017
-471,474	-13,425	0,087	-0,041
-470,459	-65,582	-0,026	-0,008
-469,445	31,299	0,028	0,018
-468,430	57,533	-0,068	-0,049
-467,416	800,000	0,017	0,048
-466,401	-97,077	0,037	0,007
-465,386	120,458	0,047	-0,042
-464,372	800,000	0,055	-0,135
-463,357	-200,000	-0,020	-0,127
-462,343	-200,000	-0,002	0,036
-461,328	-200,000	0,012	0,056
-460,313	369,704	0,015	-0,023
-459,299	-49,676	0,078	0,027
-458,284	-52,182	0,047	-0,016
-457,270	66,243	-0,085	0,063
-456,255	124,629	0,028	-0,026
-455,241	-142,709	0,079	0,006
-454,226	-47,575	-0,088	0,031
-453,211	-200,000	-0,026	0,136
-452,197	405,684	0,060	0,093
-451,182	-200,000	-0,011	0,053
-450,168	-75,151	0,092	-0,024
-449,153	-74,931	-0,088	-0,023
-448,138	-117,980	-0,124	0,016
-447,124	345,313	-0,014	-0,020
-446,109	-4,481	0,063	0,032
-445,095	-200,000	0,019	0,071
-444,080	-65,544	0,046	-0,013
-443,065	367,923	-0,040	-0,059
-442,051	-46,575	-0,113	-0,040
-441,036	193,750	-0,112	-0,124
-440,022	800,000	-0,044	0,107
-439,007	-200,000	0,001	0,059
-437,992	-97,393	0,042	-0,008
-436,978	800,000	0,073	0,185
-435,963	-108,913	-0,016	0,002
-434,949	106,683	0,044	0,038
-433,934	-200,000	0,018	-0,064
-432,919	-200,000	-0,015	0,072
-431,905	800,000	0,020	-0,041
-430,890	-31,058	-0,057	0,023
-429,876	800,000	0,025	0,055
-428,861	-200,000	0,012	0,092
-427,846	625,333	0,058	0,107
-426,832	-126,314	-0,046	-0,005
-425,817	800,000	0,057	-0,127
-424,803	92,640	0,063	-0,052
-423,788	-49,667	0,131	0,045
-422,773	90,718	-0,055	0,045
-421,759	-119,587	0,049	-0,006
-420,744	796,259	-0,019	-0,039
-419,730	-200,000	0,025	-0,091
-418,715	800,000	0,025	0,062
-417,701	299,620	-0,057	0,076
-416,686	-69,935	0,057	0,016
-415,671	800,000	-0,024	0,064
-414,657	-91,789	0,150	-0,031
-413,642	-200,000	0,008	-0,084
-412,628	379,268	-0,081	-0,120
-411,613	-38,038	0,103	-0,040
-410,598	-101,176	0,050	0,009
-409,584	451,725	-0,052	-0,083
-408,569	800,000	-0,004	-0,012
-407,555	-56,393	0,058	0,018
-406,540	-49,370	-0,121	0,042
-405,525	-132,200	0,013	0,001
-404,511	800,000	-0,074	-0,157
-403,496	571,046	-0,064	-0,113
-402,482	-11,463	0,040	-0,019
-401,467	491,263	-0,028	0,046
-400,452	-200,000	-0,014	0,149
-399,438	-200,000	-0,009	0,046
-398,423	800,000	-0,049	-0,108
-397,409	200,245	0,058	-0,064
-396,394	-200,000	-0,005	-0,063
-395,379	-200,000	0,045	-0,202
-394,365	210,598	-0,086	0,098
-393,350	-48,787	-0,047	0,016
-392,336	-101,887	0,025	-0,004
-391,321	79,231	0,131	0,102
-390,306	-200,000	0,005	-0,055
-389,292	245,643	-0,053	-0,065
-388,277	-200,000	-0,016	-0,077
-387,263	-26,096	0,063	0,027
-386,248	365,628	0,048	0,071
-385,233	800,000	0,039	0,113
-384,219	40,304	0,052	-0,034
-383,204	800,000	0,023	-0,052
-382,190	13,137	-0,077	-0,043
-381,175	800,000	-0,082	-0,178
-380,160	-200,000	0,072	0,247
-379,146	-80,622	0,235	0,057
-378,131	623,566	0,050	-0,092
-377,117	-44,287	0,135	-0,049
-376,102	-200,000	-0,020	-0,073
-375,088	-200,000	-0,039	0,143
-374,073	-50,417	-0,092	0,031
-373,058	-83,211	0,048	-0,011
-372,044	-67,796	-0,114	-0,032
-371,029	13,908	0,075	-0,042
-370,015	800,000	-0,019	-0,059
-369,000	-144,076	-0,211	0,014
-367,985	191,435	-0,035	-0,039
-366,971	-40,528	0,111	-0,042
-365,956	-122,411	0,087	0,010
-364,942	-170,585	0,172	0,004
-363,927	282,998	-0,041	0,053
-362,912	-200,000	-0,002	0,052
-361,898	32,447	-0,130	0,081
-360,883	800,000	-0,035	0,106
-359,869	800,000	0,035	-0,100
-358,854	262,542	0,057	0,073
-357,839	800,000	-0,008	-0,024
-356,825	-200,000	0,007	0,081
-355,810	138,815	-0,066	-0,063
-354,796	118,606	-0,065	-0,058
-353,781	99,735	0,078	-0,066
-352,766	800,000	0,034	0,097
-351,752	800,000	0,041	-0,095
-350,737	127,411	0,103	0,095
-349,723	-120,395	-0,099	-0,012
-348,708	-200,000	0,006	-0,032
-347,693	143,734	-0,073	-0,071
-346,679	319,625	0,047	-0,065
-345,664	330,284	-0,072	-0,101
-344,650	-200,000	-0,020	0,086
-343,635	-19,635	0,128	0,057
-342,620	-27,593	0,085	0,036
-341,606	-200,000	-0,008	0,157
-340,591	-105,253	-0,104	0,017
-339,577	371,898	0,023	0,033
-338,562	-69,162	0,060	-0,017
-337,548	-200,000	-0,002	-0,013
-336,533	-200,000	-0,005	0,043
-335,518	-200,000	-0,000	0,039
-334,504	-83,186	0,187	-0,043
-333,489	-2,132	0,069	-0,035
-332,475	800,000	0,036	0,101
-331,460	800,000	0,011	-0,024
-330,445	-174,198	0,111	0,002
-329,431	32,440	0,091	0,057
-328,416	-100,743	-0,112	0,020
-327,402	244,386	0,064	0,078
-326,387	488,429	-0,039	0,065
-325,372	115,625	-0,127	0,113
-324,358	-200,000	-0,012	-0,153
-323,343	-200,000	0,011	0,055
-322,329	-152,672	0,112	-0,006
-321,314	-200,000	0,103	0,000
-320,299	-200,000	-0,005	0,147
-319,285	172,278	-0,038	0,040
-318,270	-3,674	-0,040	-0,020
-317,256	-86,447	0,009	-0,002
-316,241	800,000	0,042	-0,101
-315,226	-200,000	-0,006	-0,066
-314,212	-34,712	0,152	0,060
-313,197	386,489	0,074	0,111
-312,183	35,007	0,074	-0,047
-311,168	49,640	0,084	-0,057
-310,153	264,272	0,058	0,073
-309,139	-167,242	0,038	0,001
-308,124	-150,956	-0,028	-0,001
-307,110	-53,278	0,037	0,012
-306,095	104,866	0,050	0,043
-305,080	32,401	0,146	0,091
-304,066	800,000	0,045	-0,140
-303,051	376,922	-0,021	-0,031
-302,037	288,159	0,021	-0,028
-301,022	-200,000	-0,039	-0,157
-300,008	800,000	0,055	0,127
-298,993	800,000	-0,041	0,091
-297,978	-142,042	-0,095	-0,007
-296,964	-33,574	-0,098	0,039
-295,949	-49,026	-0,084	0,029
-294,935	-200,000	-0,034	0,148
-293,920	800,000	-0,026	-0,071
-292,905	522,360	0,041	0,070
-291,891	-89,907	0,046	0,010
-290,876	-19,062	0,204	0,092
-289,862	78,537	-0,062	-0,048
-288,847	-200,000	-0,031	-0,130
-287,832	408,562	0,038	-0,058
-286,818	-200,000	-0,039	-0,131
-285,803	211,314	0,060	0,068
-284,789	12,516	0,048	0,027
-283,774	50,541	-0,119	-0,082
-282,759	463,897	-0,071	-0,115
-281,745	-200,000	0,046	-0,162
-280,730	9,836	-0,070	0,038
-279,716	-67,870	0,054	0,015
-278,701	488,922	-0,109	-0,181
-277,686	-200,000	0,007	0,084
-276,672	-93,920	-0,140	0,028
-275,657	99,740	-0,060	0,050
-274,643	-35,319	0,053	-0,021
-273,628	-71,052	-0,092	0,025
-272,613	54,354	-0,069	-0,048
-271,599	7,161	-0,040	0,022
-270,584	-47,034	0,113	-0,040
-269,570	-11,531	-0,214	0,101
-268,555	-200,000	0,020	0,073
-267,540	-16,276	0,042	-0,019
-266,526	367,915	-0,086	-0,126
-265,511	-26,315	0,133	0,056
-264,497	-200,000	-0,012	-0,089
-263,482	-200,000	-0,003	0,043
-262,467	250,763	0,074	-0,091
-261,453	-200,000	-0,052	0,171
-260,438	800,000	0,031	0,080
-259,424	-2,794	-0,009	-0,005
-258,409	800,000	-0,068	0,146
-257,395	760,529	0,064	0,126
-256,380	68,394	0,048	0,036
-255,365	800,000	0,019	-0,050
-254,351	262,741	-0,006	-0,007
-253,336	-200,000	0,027	0,127
-252,322	-21,188	-0,087	0,038
-251,307	-82,016	-0,036	-0,009
-250,292	609,174	-0,061	0,110
-249,278	-127,873	0,057	-0,006
-248,263	-137,687	-0,147	-0,012
-247,249	800,000	-0,029	0,068
-246,234	355,540	-0,082	-0,118
-245,219	800,000	-0,038	0,090
-244,205	-84,181	-0,121	-0,028
-243,190	28,627	-0,086	0,052
-242,176	-64,264	0,084	0,025
-241,161	496,192	-0,065	-0,109
-240,146	87,481	0,011	-0,009
-239,132	-200,000	-0,019	-0,176
-238,117	245,533	-0,067	0,082
-237,103	-20,715	-0,116	0,051
-236,088	121,622	-0,071	0,064
-235,073	50,889	0,049	-0,034
-234,059	-135,420	0,071	0,006
-233,044	-64,992	0,126	-0,036
-232,030	-200,000	-0,017	0,082
-231,015	-110,427	-0,174	-0,026
-230,000	-102,704	0,051	-0,009
-228,986	-104,630	-0,123	-0,020
-227,971	106,681	0,038	-0,033
-226,957	146,757	0,054	0,052
-225,942	-102,527	0,062	-0,011
-224,927	-138,013	0,063	0,005
-223,913	-52,902	-0,058	-0,019
-222,898	91,970	-0,043	-0,035
-221,884	165,431	0,062	0,063
-220,869	-122,287	0,090	0,011
-219,855	800,000	0,042	0,113
-218,840	-85,647	0,124	-0,028
-217,825	-53,218	0,146	-0,048
-216,811	-69,450	0,161	0,044
-215,796	243,398	-0,045	-0,055
-214,782	-69,132	0,036	0,010
-213,767	-102,874	0,101	0,017
-212,752	-27,492	0,056	0,024
-211,738	-78,241	-0,053	-0,013
-210,723	61,926	0,057	-0,041
-209,709	-11,559	-0,084	-0,040
-208,694	81,516	-0,070	-0,055
-207,679	36,912	-0,115	-0,073
-206,665	-56,710	0,009	-0,003
-205,650	-74,455	-0,021	-0,005
-204,636	-147,532	0,049	0,003
-203,621	-200,000	0,033	0,106
-202,606	321,839	0,073	-0,101
-201,592	-5,752	-0,097	-0,048
-200,577	729,833	-0,041	-0,080
-199,563	-99,697	0,018	0,003
-198,548	539,026	0,055	0,095
-197,533	-34,187	0,140	-0,055
-196,519	-46,381	-0,103	0,036
-195,504	660,189	-0,033	-0,061
-194,490	800,000	0,030	-0,062
-193,475	204,668	-0,029	0,033
-192,460	800,000	-0,028	0,072
-191,446	-77,373	0,109	0,027
-190,431	-200,000	0,005	0,136
-189,417	800,000	-0,032	0,074
-188,402	647,561	0,082	-0,152
-187,387	-200,000	0,012	-0,098
-186,373	-200,000	0,005	-0,025
-185,358	-200,000	-0,026	-0,134
-184,344	-200,000	-0,024	-0,079
-183,329	278,846	0,103	0,133
-182,315	632,315	-0,020	-0,036
-181,300	91,188	-0,014	0,012
-180,285	764,791	-0,041	-0,081
-179,271	800,000	0,023	-0,063
-178,256	327,138	-0,118	0,163
-177,242	-42,404	-0,133	0,049
-176,227	-200,000	0,014	0,174
-175,212	-90,523	-0,141	-0,029
-174,198	-166,060	-0,134	0,004
-173,183	-109,837	0,047	-0,007
-172,169	152,067	-0,096	-0,095
-171,154	109,322	0,085	-0,073
-170,139	-23,344	-0,060	-0,026
-169,125	131,262	0,072	0,067
-168,110	-125,161	-0,093	-0,010
-167,096	199,163	0,062	-0,069
-166,081	-152,041	0,122	0,006
-165,066	704,728	-0,046	-0,088
-164,052	-83,043	-0,062	-0,014
-163,037	-53,273	0,131	0,043
-162,023	-200,000	-0,040	0,147
-161,008	-7,331	0,125	-0,061
-159,993	-85,492	-0,070	0,016
-158,979	5,288	-0,080	-0,042
-157,964	-200,000	-0,012	0,073
-156,950	63,368	0,081	-0,059
-155,935	70,104	0,070	0,052
-154,920	-200,000	0,002	-0,025
-153,906	165,063	-0,027	0,027
-152,891	-45,101	-0,038	0,013
-151,877	-111,581	-0,049	0,007
-150,862	800,000	-0,039	-0,090
-149,847	178,059	-0,031	-0,033
-148,833	774,922	-0,050	-0,098
-147,818	-13,570	0,054	-0,025
-146,804	81,222	0,113	0,088
-145,789	40,829	0,021	-0,013
-144,775	-154,300	0,160	-0,008
-143,760	-200,000	-0,012	0,067
-142,745	393,408	-0,043	-0,065
-141,731	4,564	-0,136	0,072
-140,716	-200,000	0,005	0,167
-139,702	-81,294	0,133	-0,031
-138,687	-200,000	0,019	0,071
-137,672	59,644	0,030	0,021
-136,658	-200,000	0,005	-0,033
-135,643	-113,769	0,176	-0,024
-134,629	-200,000	-0,035	0,160
-133,614	234,125	-0,011	-0,013
-132,599	-200,000	-0,026	0,090
-131,585	112,511	-0,055	-0,048
-130,570	392,672	0,057	-0,086
-129,556	205,555	-0,061	-0,068
-128,541	468,617	-0,012	-0,020
-127,526	-93,198	0,024	0,005
-126,512	-200,000	0,032	-0,166
-125,497	-200,000	-0,017	-0,080
-124,483	231,198	0,062	0,073
-123,468	800,000	-0,010	0,026
-122,453	-98,958	0,082	-0,015
-121,439	-200,000	-0,013	-0,079
-120,424	-186,057	0,107	0,001
-119,410	800,000	-0,042	0,099
-118,395	-200,000	-0,002	0,065
-117,380	-119,871	-0,110	0,013
-116,366	532,002	0,037	-0,064
-115,351	-176,291	0,119	0,002
-114,337	800,000	0,013	0,034
-113,322	800,000	-0,032	-0,067
-112,307	-76,849	0,078	0,019
-111,293	189,129	0,066	0,071
-110,278	-146,345	0,076	-0,005
-109,264	38,828	0,025	-0,016
-108,249	300,057	0,031	0,042
-107,234	-46,387	0,115	0,040
-106,220	2,699	-0,152	-0,079
-105,205	68,397	0,079	-0,058
-104,191	800,000	-0,045	0,121
-103,176	68,587	0,141	0,104
-102,162	800,000	0,025	0,067
-101,147	-200,000	0,022	-0,176
-100,132	30,016	-0,138	0,084
-99,118	800,000	-0,033	0,068
-98,103	135,747	-0,033	0,031
-97,089	59,524	0,223	0,158
-96,074	107,328	-0,049	-0,042
-95,059	615,624	0,087	0,158
-94,045	-200,000	0,003	0,158
-93,030	-200,000	-0,023	-0,099
-92,016	-176,362	0,064	-0,001
-91,001	224,107	0,077	-0,090
-89,986	30,045	-0,110	0,067
-88,972	-128,468	0,069	0,007
-87,957	-200,000	0,030	0,105
-86,943	123,165	-0,025	0,023
-85,928	155,557	-0,075	-0,074
-84,913	111,458	-0,062	-0,053
-83,899	314,682	-0,063	0,085
-82,884	11,687	0,113	0,062
-81,870	-131,662	0,205	0,019
-80,855	498,115	-0,065	-0,108
-79,840	-39,809	0,056	-0,021
-78,826	375,337	0,050	-0,073
-77,811	11,986	-0,136	-0,075
-76,797	-120,367	0,115	0,014
-75,782	35,080	-0,100	0,063
-74,767	70,886	-0,012	0,009
-73,753	-115,874	-0,042	0,006
-72,738	254,713	0,020	0,024
-71,724	102,092	-0,034	0,029
-70,709	34,043	-0,025	-0,016
-69,694	-52,729	0,008	0,003
-68,680	-200,000	-0,012	0,059
-67,665	793,096	0,073	0,145
-66,651	-59,401	-0,061	0,019
-65,636	-200,000	0,023	0,122
-64,622	724,405	-0,028	0,054
-63,607	800,000	-0,015	-0,045
-62,592	-105,702	0,104	0,017
-61,578	-200,000	0,004	-0,035
-60,563	-34,338	0,099	-0,039
-59,549	-57,710	-0,003	0,001
-58,534	11,986	-1,917	-1,055
-57,519	800,000	-0,316	-0,932
-56,505	-200,000	-1,291	-5,080
-55,490	-45,917	0,733	0,258
-54,476	800,000	5,363	12,203
-53,461	-200,000	17,576	283,689
-52,446	800,000	727,360	2214,395
-51,432	534,412	1643,496	2806,855
-50,417	110,032	1633,923	1407,163
-49,403	75,470	1286,372	973,578
-48,388	32,110	1027,486	634,500
-47,373	20,188	989,666	571,826
-46,359	18,528	977,536	559,350
-45,344	15,746	973,509	547,917
-44,330	15,928	972,159	547,733
-43,315	15,497	970,319	545,264
-42,300	15,424	969,147	544,348
-41,286	15,373	968,094	543,567
-40,271	15,370	967,130	542,996
-39,257	15,429	966,370	542,741
-38,242	15,431	965,251	542,095
-37,227	15,447	964,441	541,672
-36,213	15,430	963,733	541,198
-35,198	15,445	962,769	540,684
-34,184	15,479	962,111	540,403
-33,169	15,371	961,088	539,457
-32,154	15,462	960,106	539,179
-31,140	15,396	959,382	538,536
-30,125	15,436	958,667	538,243
-29,111	15,409	957,761	537,627
-28,096	15,476	957,152	537,478
-27,082	15,460	956,430	537,002
-26,067	15,484	955,584	536,582
-25,052	15,444	954,870	536,032
-24,038	15,445	954,245	535,663
-23,023	15,407	953,503	535,102
-22,009	15,446	953,051	534,951
-20,994	15,454	952,266	534,516
-19,979	15,486	951,438	534,132
-18,965	15,449	950,941	533,713
-17,950	15,471	950,340	533,427
-16,936	15,358	949,876	532,783
-15,921	15,353	949,261	532,400
-14,906	15,327	948,113	531,655
-13,892	15,278	947,790	531,296
-12,877	15,293	947,040	530,902
-11,863	15,269	946,454	530,476
-10,848	15,319	945,814	530,254
-9,833	15,439	945,388	530,375
-8,819	15,358	944,839	529,789
-7,804	15,305	944,325	529,313
-6,790	15,337	943,623	529,000
-5,775	15,357	943,078	528,737
-4,760	15,313	942,376	528,181
-3,746	15,268	941,849	527,724
-2,731	15,225	941,039	527,113
-1,717	15,193	940,334	526,595
-0,702	15,118	940,013	526,159
0,313	14,958	939,158	525,967
1,327	18,131	936,971	534,692
2,342	27,057	793,971	476,732
3,356	23,666	459,637	270,767
4,371	-3,260	315,347	157,058
5,386	-7,178	297,107	143,984
6,400	-9,399	291,018	138,809
7,415	-9,923	288,666	137,157
8,429	-10,009	287,196	136,361
9,444	-10,067	286,296	135,866
10,459	-9,856	285,431	135,649
11,473	-9,986	285,024	135,317
12,488	-10,017	284,599	135,073
13,502	-9,908	284,077	134,919
14,517	-9,859	283,461	134,662
15,531	-9,750	282,986	134,530
16,546	-9,829	282,777	134,342
17,561	-9,988	282,347	133,972
18,575	-9,880	282,080	133,937
19,590	-9,896	281,408	133,592
20,604	-9,889	281,408	133,586
21,619	-9,961	280,966	133,295
22,634	-9,864	280,769	133,283
23,648	-9,855	280,376	133,093
24,663	-9,903	280,120	132,914
25,677	-9,881	279,895	132,816
26,692	-10,013	279,676	132,574
27,707	-9,821	279,288	132,562
28,721	-9,700	278,833	132,450
29,736	-9,930	278,625	132,120
30,750	-9,897	278,444	132,053
31,765	-9,890	278,374	132,015
32,780	-9,954	278,113	131,818
33,794	-10,138	277,817	131,493
34,809	-10,072	277,575	131,429
35,823	-9,987	277,305	131,370
36,838	-10,013	276,899	131,141
37,853	-10,082	276,816	131,025
38,867	-9,938	276,497	130,998
39,882	-10,006	276,282	130,820
40,896	-9,933	275,940	130,715
41,911	-10,123	275,853	130,483
42,926	-10,087	275,479	130,329
43,940	-10,147	275,332	130,191
44,955	-10,095	274,901	130,025
45,969	-9,898	274,758	130,131
46,984	-10,310	274,648	129,681
47,999	-10,215	274,248	129,569
49,013	-10,371	273,990	129,289
50,028	-10,531	273,761	129,020
51,042	-10,583	273,451	128,815
52,057	-10,667	273,334	128,669
53,071	-10,745	273,028	128,442
54,086	-10,445	272,946	128,671
55,101	-10,300	272,582	128,622
56,115	-10,077	272,545	128,801
57,130	-9,971	272,430	128,834
58,144	-9,878	272,240	128,818
59,159	-9,813	271,948	128,729
60,174	-9,863	271,883	128,641
61,188	-9,861	271,662	128,526
62,203	-9,778	271,380	128,458
63,217	-9,876	271,047	128,198
64,232	-9,878	270,817	128,076
65,247	-9,790	270,567	128,028
66,261	-9,893	270,368	127,827
67,276	-10,001	270,132	127,605
68,290	-10,159	269,912	127,345
69,305	-10,107	269,573	127,220
70,320	-10,164	269,516	127,131
71,334	-10,017	269,301	127,153
72,349	-9,752	268,985	127,235
73,363	-9,731	268,946	127,224
74,378	-9,823	268,652	126,990
75,393	-9,911	268,440	126,797
76,407	-9,755	268,155	126,794
77,422	-9,771	267,875	126,636
78,436	-9,742	267,640	126,540
79,451	-9,792	267,458	126,397
80,466	-9,883	267,313	126,234
81,480	-9,873	267,109	126,136
82,495	-10,181	266,858	125,726
83,509	-9,832	266,579	125,900
84,524	-10,081	266,370	125,565
85,539	-10,030	266,106	125,475
86,553	-10,252	265,995	125,211
87,568	-10,180	265,847	125,195
88,582	-9,964	265,658	125,290
89,597	-10,009	265,385	125,109
90,611	-9,914	265,313	125,150
91,626	-9,667	265,048	125,236
92,641	-9,789	264,846	125,020
93,655	-9,848	264,691	124,882
94,670	-10,002	264,547	124,665
95,684	-9,674	264,195	124,782
96,699	-10,033	264,172	124,438
97,714	-9,907	263,829	124,379
98,728	-10,195	263,741	124,068
99,743	-10,130	263,405	123,957
100,757	-10,051	263,065	123,856
101,772	-10,111	262,916	123,722
102,787	-10,109	262,857	123,685
103,801	-9,871	262,569	123,751
104,816	-9,862	262,526	123,727
105,830	-9,735	262,336	123,740
106,845	-9,878	262,038	123,461
107,860	-9,936	261,898	123,333
108,874	-9,807	261,686	123,336
109,889	-9,863	261,548	123,211
110,903	-9,932	261,239	122,992
111,918	-9,958	261,173	122,927
112,933	-9,873	260,796	122,814
113,947	-9,956	260,817	122,739
114,962	-9,803	260,448	122,690
115,976	-9,770	260,315	122,646
116,991	-10,004	260,151	122,351
118,006	-9,834	259,988	122,414
119,020	-9,971	259,930	122,254
120,035	-9,913	259,793	122,230
121,049	-9,958	259,548	122,065
122,064	-9,996	259,476	121,986
123,079	-9,864	259,030	121,881
124,093	-9,940	258,803	121,697
125,108	-10,217	258,600	121,348
126,122	-10,287	258,349	121,158
127,137	-10,303	258,087	121,011
128,151	-10,160	257,998	121,083
129,166	-10,211	257,809	120,940
130,181	-10,253	257,692	120,837
131,195	-10,227	257,360	120,693
132,210	-10,000	257,343	120,872
133,224	-9,920	257,179	120,854
134,239	-9,871	256,868	120,740
135,254	-9,998	256,826	120,599
136,268	-9,960	256,458	120,448
137,283	-10,196	256,260	120,140
138,297	-10,244	256,107	120,016
139,312	-10,086	255,821	120,007
140,327	-9,946	255,692	120,058
141,341	-9,824	255,588	120,103
142,356	-9,597	255,405	120,204
143,370	-9,804	255,351	119,988
144,385	-9,863	255,200	119,855
145,400	-9,517	254,797	119,954
146,414	-9,739	254,831	119,768
147,429	-9,767	254,590	119,620
148,443	-9,879	254,298	119,375
149,458	-9,701	254,297	119,517
150,473	-9,699	254,016	119,376
151,487	-9,812	253,890	119,210
152,502	-9,627	253,614	119,228
153,516	-9,778	253,557	119,061
154,531	-9,732	253,314	118,976
155,546	-9,745	253,122	118,864
156,560	-9,761	252,967	118,767
157,575	-9,739	252,628	118,616
158,589	-9,860	252,510	118,447
159,604	-9,697	252,485	118,563
160,619	-9,701	252,190	118,411
161,633	-9,584	251,989	118,405
162,648	-9,610	251,864	118,314
163,662	-9,714	251,678	118,128
164,677	-9,780	251,565	118,008
165,692	-9,870	251,397	117,843
166,706	-9,774	251,198	117,820
167,721	-9,696	251,044	117,804
168,735	-9,792	250,693	117,547
169,750	-9,546	250,729	117,761
170,764	-9,745	250,733	117,584
171,779	-9,635	250,318	117,472
172,794	-9,551	250,325	117,536
173,808	-9,683	249,955	117,240
174,823	-9,903	249,724	116,936
175,837	-10,263	249,523	116,529
176,852	-9,939	249,375	116,722
177,867	-9,828	249,436	116,834
178,881	-9,544	249,209	116,956
179,896	-9,647	249,196	116,852
180,910	-9,401	248,750	116,839
181,925	-9,765	248,593	116,450
182,940	-9,752	248,547	116,429
183,954	-9,686	248,261	116,340
184,969	-9,665	248,170	116,304
185,983	-9,462	247,916	116,344
186,998	-9,546	247,893	116,253
188,013	-9,814	247,766	115,959
189,027	-9,757	247,413	115,832
190,042	-9,562	247,398	115,977
191,056	-9,459	247,038	115,883
192,071	-9,526	246,934	115,768
193,086	-9,624	246,804	115,615
194,100	-9,683	246,686	115,501
195,115	-9,577	246,334	115,414
196,129	-9,560	246,148	115,330
197,144	-9,674	246,056	115,182
198,159	-9,691	245,810	115,043
199,173	-9,621	245,760	115,067
200,188	-9,671	245,609	114,945
201,202	-9,939	245,289	114,564
202,217	-10,117	245,040	114,290
203,232	-10,303	244,826	114,028
204,246	-9,879	244,724	114,319
205,261	-9,578	244,618	114,507
206,275	-10,720	244,255	113,388
207,290	-7,814	245,384	116,300
208,304	-0,688	247,657	123,286
209,319	3,270	248,711	127,091
210,334	3,683	248,707	127,421
211,348	3,785	248,655	127,467
212,363	4,257	248,349	127,689
213,377	4,154	248,343	127,589
214,392	4,025	248,185	127,391
215,407	3,817	248,060	127,143
216,421	3,816	247,803	126,999
217,436	4,223	247,652	127,246
218,450	4,179	247,516	127,129
219,465	3,892	247,317	126,778
220,480	3,586	247,126	126,417
221,494	3,727	246,798	126,355
222,509	3,754	246,766	126,349
223,523	3,686	246,524	126,158
224,538	3,415	246,342	125,831
225,553	3,454	246,189	125,773
226,567	3,592	246,122	125,841
227,582	3,626	245,969	125,780
228,596	3,640	245,864	125,726
229,611	3,481	245,511	125,404
230,626	3,365	245,384	125,234
231,640	3,417	245,231	125,187
232,655	3,609	245,100	125,266
233,669	3,532	244,935	125,107
234,684	3,261	244,643	124,726
235,699	3,960	244,646	125,286
236,713	3,872	244,545	125,151
237,728	3,527	244,260	124,713
238,742	3,484	243,964	124,516
239,757	3,502	243,847	124,460
240,772	3,271	243,788	124,232
241,786	3,649	243,632	124,448
242,801	3,409	243,532	124,191
243,815	3,332	243,263	123,981
244,830	3,602	243,173	124,142
245,844	3,717	243,062	124,167
246,859	3,475	242,835	123,845
247,874	3,419	242,715	123,727
248,888	3,605	242,525	123,769
249,903	3,519	242,427	123,639
250,917	3,552	242,458	123,670
251,932	3,921	242,119	123,783
252,947	3,832	242,064	123,673
253,961	3,606	241,665	123,276
254,976	3,778	241,573	123,356
255,990	3,681	241,483	123,222
257,005	3,450	241,230	122,896
258,020	3,175	241,033	122,565
259,034	3,314	240,964	122,630
260,049	3,680	240,834	122,846
261,063	3,402	240,721	122,555
262,078	3,564	240,486	122,554
263,093	3,720	240,368	122,607
264,107	3,559	240,338	122,452
265,122	3,510	240,150	122,307
266,136	3,428	240,048	122,178
267,151	3,468	239,942	122,146
268,166	3,540	239,580	122,007
269,180	3,442	239,348	121,801
270,195	3,806	239,552	122,183
271,209	4,120	239,267	122,276
272,224	3,695	239,023	121,803
273,239	3,240	238,746	121,291
274,253	3,198	238,604	121,174
275,268	3,767	238,547	121,585
276,282	3,570	238,432	121,360
277,297	3,327	238,118	120,997
278,312	3,187	238,163	120,899
279,326	3,478	237,918	120,993
280,341	3,674	237,811	121,083
281,355	3,449	237,554	120,764
282,370	3,719	237,577	120,978
283,384	3,550	237,345	120,716
284,399	3,376	237,032	120,409
285,414	3,441	236,780	120,321
286,428	3,446	236,772	120,311
287,443	3,437	236,774	120,294
288,457	3,524	236,575	120,250
289,472	3,898	236,234	120,359
290,487	3,749	236,192	120,210
291,501	3,736	235,859	120,020
292,516	3,180	235,761	119,525
293,530	3,154	235,734	119,480
294,545	3,415	235,626	119,618
295,560	3,560	235,501	119,657
296,574	3,347	235,299	119,378
297,589	3,274	235,215	119,268
298,603	3,829	235,133	119,648
299,618	3,589	234,994	119,380
300,633	3,632	234,779	119,293
301,647	3,801	234,812	119,431
302,662	4,227	234,614	119,650
303,676	3,879	234,393	119,257
304,691	3,817	234,269	119,135
305,706	3,892	234,222	119,159
306,720	3,880	233,966	119,009
307,735	3,729	233,823	118,809
308,749	3,708	233,633	118,685
309,764	3,325	233,360	118,240
310,779	3,217	233,291	118,111
311,793	3,173	233,048	117,944
312,808	3,349	232,947	118,018
313,822	3,319	232,695	117,856
314,837	3,349	232,617	117,829
315,852	3,272	232,382	117,641
316,866	3,678	232,278	117,890
317,881	3,864	232,387	118,077
318,895	3,699	232,198	117,844
319,910	4,063	232,090	118,057
320,925	3,876	231,806	117,759
321,939	3,401	231,659	117,310
322,954	3,659	231,526	117,430
323,968	3,568	231,244	117,208
324,983	3,359	231,082	116,955
325,997	3,867	230,918	117,249
327,012	3,722	230,959	117,149
328,027	3,863	230,767	117,149
329,041	3,926	230,687	117,145
330,056	4,159	230,691	117,315
331,070	3,985	230,559	117,105
332,085	3,918	230,331	116,928
333,100	3,993	230,170	116,892
334,114	3,934	229,938	116,719
335,129	3,710	229,969	116,555
336,143	4,005	229,605	116,583
337,158	3,917	229,500	116,453
338,173	3,824	229,320	116,280
339,187	4,015	229,243	116,376
340,202	3,730	229,013	116,033
341,216	3,892	229,037	116,157
342,231	3,605	228,793	115,807
343,246	3,659	228,691	115,785
344,260	3,567	228,597	115,659
345,275	3,814	228,654	115,863
346,289	4,030	228,169	115,770
347,304	4,081	228,012	115,718
348,319	4,076	228,035	115,716
349,333	3,794	227,721	115,334
350,348	3,621	227,667	115,167
351,362	3,814	227,574	115,254
352,377	3,643	227,343	114,999
353,392	3,461	227,041	114,699
354,406	3,539	227,024	114,739
355,421	194,578	1321,575	1395,469
356,435	155,964	1454,923	1395,471
