DTS Sentinel unit serial number:	SN410029Multiplexer serial number:	ORYXHardware model number:	OX2-SRSoftware version number:	ORYX F/W v4,00 Oryx Data Collector v3.7.2.0data status	okinstallation	B5 Nyhavnadifferential loss correction	single-endedforward channel	channel 2reverse channel	N/Adate	2023/12/13time	16:17:13forward acquisition time	300,00reverse acquisition time	0,00gamma	499,1914k internal	0,3160k external	0,3160temperature offset calibration	1,0000default loss term (dB/km)	0,3820temperature slope calibration	1,0000multiplexer offset coefficient	1,0000multiplexer slope coefficient	1,0000fibre end	0,00T internal ref (°C)	14,82T ext. ref 1 (°C)	-1,89T ext. ref 2 (°C)	-2,06length (m)	temperature (°C)	Stokes	anti-Stokes-744,400	800,000	0,039	0,087
-743,385	-141,424	-0,361	-0,027
-742,371	99,273	0,166	0,141
-741,356	-40,801	-0,202	-0,077
-740,342	316,943	0,064	0,089
-739,327	-131,746	-0,317	0,030
-738,312	-117,414	-0,093	0,012
-737,298	-87,739	-0,247	0,054
-736,283	764,923	-0,016	0,032
-735,269	-200,000	-0,360	0,001
-734,254	153,693	0,115	0,116
-733,239	-113,088	-0,481	-0,069
-732,225	-31,880	0,172	0,071
-731,210	-200,000	-0,011	-0,055
-730,196	-200,000	-0,006	-0,120
-729,181	197,262	-0,046	0,052
-728,167	-200,000	-0,013	-0,072
-727,152	205,319	0,051	-0,058
-726,137	-111,399	-0,132	-0,020
-725,123	-200,000	0,036	-0,206
-724,108	202,120	0,090	-0,102
-723,094	434,285	-0,074	-0,118
-722,079	182,465	-0,099	-0,108
-721,064	435,248	-0,045	-0,072
-720,050	-200,000	-0,009	0,043
-719,035	177,026	0,097	0,104
-718,021	-200,000	-0,018	-0,060
-717,006	800,000	-0,028	-0,057
-715,991	-95,963	-0,102	0,020
-714,977	-200,000	0,036	-0,227
-713,962	119,263	-0,099	-0,090
-712,948	83,823	-0,070	0,056
-711,933	-200,000	-0,010	-0,050
-710,918	11,317	0,051	0,029
-709,904	522,814	0,004	0,006
-708,889	232,872	0,151	-0,183
-707,875	-200,000	-0,034	-0,150
-706,860	-200,000	0,016	0,154
-705,845	72,395	0,104	-0,080
-704,831	-200,000	0,030	0,101
-703,816	9,215	0,019	0,010
-702,802	78,231	-0,082	-0,065
-701,787	176,536	-0,090	0,097
-700,772	-8,736	0,038	-0,019
-699,758	8,833	0,058	-0,032
-698,743	211,790	0,080	-0,092
-697,729	178,908	-0,062	0,067
-696,714	800,000	-0,087	0,197
-695,699	128,461	0,061	-0,058
-694,685	38,842	-0,066	0,043
-693,670	-89,285	-0,015	-0,003
-692,656	102,770	-0,110	-0,095
-691,641	800,000	-0,042	0,102
-690,627	178,707	0,109	0,117
-689,612	-200,000	-0,035	-0,190
-688,597	-200,000	0,004	-0,029
-687,583	-200,000	-0,006	-0,104
-686,568	-200,000	-0,000	-0,069
-685,554	-200,000	-0,000	-0,078
-684,539	-200,000	-0,001	-0,032
-683,524	293,365	0,037	-0,050
-682,510	-7,350	-0,073	-0,036
-681,495	-200,000	0,019	0,081
-680,481	478,365	-0,022	0,037
-679,466	-200,000	-0,045	-0,172
-678,451	45,118	-0,139	-0,094
-677,437	-200,000	-0,005	-0,057
-676,422	-104,369	0,107	-0,018
-675,408	44,296	-0,081	0,054
-674,393	-60,850	-0,085	0,026
-673,378	129,193	-0,125	-0,117
-672,364	-200,000	0,014	0,051
-671,349	79,939	-0,111	-0,087
-670,335	-200,000	-0,022	-0,118
-669,320	-32,019	0,081	-0,033
-668,305	-104,975	0,068	-0,011
-667,291	20,235	-0,062	-0,037
-666,276	-81,769	0,031	0,007
-665,262	-103,748	-0,064	0,011
-664,247	6,245	-0,072	0,039
-663,232	312,205	-0,054	0,075
-662,218	306,850	0,083	0,114
-661,203	-74,106	0,044	0,012
-660,189	800,000	-0,042	-0,095
-659,174	800,000	-0,097	-0,235
-658,159	31,781	0,053	0,033
-657,145	-200,000	-0,019	0,150
-656,130	-118,405	-0,149	-0,019
-655,116	800,000	0,033	0,091
-654,101	-73,593	-0,118	0,031
-653,086	113,375	-0,029	0,026
-652,072	209,487	-0,047	-0,054
-651,057	502,185	-0,083	-0,141
-650,043	14,163	-0,040	-0,023
-649,028	0,690	-0,044	0,023
-648,014	-61,488	0,150	0,046
-646,999	-111,625	0,185	0,027
-645,984	-107,254	-0,075	-0,012
-644,970	-116,546	-0,164	-0,022
-643,955	-19,187	0,130	-0,059
-642,941	417,226	-0,103	-0,162
-641,926	-169,395	0,053	-0,001
-640,911	-53,171	-0,027	0,009
-639,897	-43,284	0,168	0,062
-638,882	-24,459	0,067	0,029
-637,868	-36,913	-0,078	0,030
-636,853	-200,000	-0,015	0,137
-635,838	-1,441	0,024	0,013
-634,824	261,590	0,013	-0,017
-633,809	-130,649	-0,031	0,003
-632,795	153,909	0,075	0,076
-631,780	70,813	0,044	-0,034
-630,765	-200,000	-0,025	-0,081
-629,751	-200,000	0,004	-0,047
-628,736	-0,233	-0,063	-0,033
-627,722	800,000	0,022	-0,057
-626,707	429,479	0,057	0,091
-625,692	-90,939	-0,087	0,018
-624,678	-64,698	-0,078	0,023
-623,663	-107,794	-0,030	0,005
-622,649	-200,000	-0,013	0,123
-621,634	-32,605	-0,090	-0,036
-620,619	157,085	0,067	-0,068
-619,605	-77,609	0,054	-0,014
-618,590	-47,195	-0,075	0,027
-617,576	800,000	0,017	0,046
-616,561	-200,000	0,005	0,026
-615,546	-50,078	-0,029	-0,010
-614,532	-131,906	-0,063	0,006
-613,517	641,627	-0,040	-0,075
-612,503	-200,000	0,024	0,129
-611,488	-200,000	0,013	0,088
-610,474	26,165	0,036	0,022
-609,459	251,325	0,052	-0,065
-608,444	-200,000	-0,007	0,129
-607,430	255,379	-0,045	-0,057
-606,415	-91,817	0,080	0,017
-605,401	800,000	0,045	-0,111
-604,386	-155,595	0,125	-0,006
-603,371	800,000	-0,025	-0,066
-602,357	-200,000	-0,000	-0,031
-601,342	800,000	-0,037	0,076
-600,328	564,384	-0,026	-0,046
-599,313	800,000	-0,023	-0,058
-598,298	207,899	0,055	-0,063
-597,284	800,000	-0,045	0,132
-596,269	693,424	0,113	0,218
-595,255	714,020	-0,045	0,087
-594,240	29,993	-0,031	-0,019
-593,225	-104,585	-0,152	-0,025
-592,211	306,785	-0,110	-0,150
-591,196	800,000	-0,058	-0,147
-590,182	-55,267	0,141	-0,046
-589,167	800,000	0,033	-0,066
-588,152	-110,491	0,097	0,015
-587,138	-200,000	0,017	0,170
-586,123	-200,000	-0,009	-0,133
-585,109	-174,543	-0,174	-0,004
-584,094	-172,317	-0,174	-0,004
-583,079	326,928	-0,051	-0,072
-582,065	-82,695	0,052	0,012
-581,050	800,000	-0,049	0,114
-580,036	124,469	-0,014	0,013
-579,021	25,018	0,089	-0,054
-578,006	129,416	-0,198	-0,185
-576,992	140,613	0,009	-0,009
-575,977	-102,899	-0,097	0,017
-574,963	455,866	0,109	0,178
-573,948	167,603	-0,041	-0,042
-572,934	-21,401	0,121	0,054
-571,919	-200,000	-0,044	0,149
-570,904	49,202	-0,089	-0,061
-569,890	-200,000	0,003	0,122
-568,875	298,170	-0,017	-0,023
-567,861	800,000	0,051	0,103
-566,846	-63,095	0,062	-0,018
-565,831	105,783	-0,092	-0,079
-564,817	800,000	-0,045	-0,118
-563,802	-200,000	-0,013	-0,150
-562,788	-78,731	-0,064	0,016
-561,773	523,572	0,012	-0,021
-560,758	284,530	0,041	-0,054
-559,744	-38,969	-0,072	-0,027
-558,729	106,480	0,097	-0,084
-557,715	800,000	0,008	-0,018
-556,700	-200,000	-0,017	-0,104
-555,685	603,639	-0,039	-0,072
-554,671	-200,000	0,007	-0,087
-553,656	457,504	-0,048	0,078
-552,642	-200,000	0,007	0,108
-551,627	-200,000	0,008	0,121
-550,612	-200,000	0,008	0,120
-549,598	-200,000	-0,007	-0,040
-548,583	-59,715	-0,082	-0,026
-547,569	-5,991	0,106	0,053
-546,554	-27,014	-0,047	0,020
-545,539	-200,000	-0,001	-0,078
-544,525	-50,000	-0,088	0,030
-543,510	84,075	-0,080	-0,064
-542,496	800,000	-0,039	-0,103
-541,481	-136,844	-0,097	0,008
-540,466	504,386	0,016	0,027
-539,452	-101,656	-0,073	-0,013
-538,437	-87,161	0,076	0,017
-537,423	420,460	0,026	0,041
-536,408	-77,733	0,037	-0,009
-535,393	184,844	0,042	-0,046
-534,379	20,949	0,078	0,046
-533,364	352,758	-0,093	0,136
-532,350	171,301	0,110	0,115
-531,335	156,631	-0,075	0,076
-530,321	-200,000	0,003	0,098
-529,306	-151,349	0,123	0,007
-528,291	-200,000	0,001	-0,046
-527,277	-200,000	0,006	-0,170
-526,262	800,000	-0,050	0,131
-525,248	-200,000	-0,011	-0,113
-524,233	-200,000	0,004	0,039
-523,218	-200,000	-0,025	0,131
-522,204	6,959	-0,087	-0,047
-521,189	-80,511	-0,050	0,012
-520,175	-136,402	0,102	-0,009
-519,160	800,000	-0,043	0,091
-518,145	800,000	0,014	-0,036
-517,131	-85,335	-0,073	0,016
-516,116	417,801	0,051	0,080
-515,102	-200,000	0,004	-0,044
-514,087	800,000	0,017	-0,040
-513,072	800,000	-0,014	-0,030
-512,058	165,336	-0,056	0,057
-511,043	180,450	0,040	-0,043
-510,029	268,580	0,062	0,079
-509,014	-200,000	-0,030	0,157
-507,999	-200,000	-0,032	0,112
-506,985	792,748	-0,031	-0,063
-505,970	159,121	0,042	0,043
-504,956	-200,000	-0,024	-0,150
-503,941	-105,713	0,129	0,021
-502,926	137,082	0,045	-0,043
-501,912	800,000	0,022	-0,060
-500,897	-48,837	-0,034	-0,012
-499,883	104,568	0,087	0,075
-498,868	-200,000	0,001	-0,022
-497,853	-200,000	-0,008	-0,060
-496,839	800,000	0,072	-0,188
-495,824	-200,000	0,030	0,100
-494,810	544,507	-0,036	0,062
-493,795	-12,162	0,169	-0,080
-492,781	-85,131	-0,078	-0,018
-491,766	31,879	-0,126	-0,079
-490,751	-200,000	-0,011	-0,057
-489,737	-43,867	-0,073	-0,027
-488,722	-200,000	-0,015	0,093
-487,708	239,130	-0,001	-0,002
-486,693	-200,000	0,001	0,028
-485,678	138,618	-0,049	-0,047
-484,664	-200,000	-0,016	-0,135
-483,649	-200,000	-0,016	-0,136
-482,635	-200,000	0,011	-0,164
-481,620	-142,437	-0,032	0,002
-480,605	-200,000	-0,006	0,050
-479,591	407,317	-0,033	-0,052
-478,576	-200,000	-0,007	-0,100
-477,562	-200,000	0,005	-0,132
-476,547	-200,000	-0,006	0,085
-475,532	453,337	0,019	-0,031
-474,518	36,625	-0,087	-0,056
-473,503	225,417	0,084	0,099
-472,489	800,000	0,022	-0,057
-471,474	-200,000	0,011	0,118
-470,459	83,082	-0,107	-0,085
-469,445	181,802	-0,123	-0,132
-468,430	-70,963	0,055	-0,015
-467,416	-122,782	0,103	0,012
-466,401	162,969	-0,061	0,063
-465,386	-65,747	0,162	-0,047
-464,372	-98,682	0,108	0,020
-463,357	-200,000	-0,021	0,101
-462,343	-153,335	-0,026	0,001
-461,328	-200,000	0,031	0,102
-460,313	-200,000	-0,016	0,061
-459,299	173,346	0,034	0,035
-458,284	-200,000	0,011	0,172
-457,270	-200,000	0,028	0,136
-456,255	225,215	-0,089	0,105
-455,241	289,171	-0,060	0,080
-454,226	800,000	-0,056	0,138
-453,211	177,811	0,067	0,071
-452,197	800,000	-0,044	0,098
-451,182	-28,958	-0,107	0,045
-450,168	133,670	-0,093	0,087
-449,153	-200,000	-0,006	-0,070
-448,138	11,240	-0,134	-0,074
-447,124	-200,000	-0,010	0,137
-446,109	800,000	-0,021	-0,054
-445,095	-62,840	0,033	0,010
-444,080	-40,237	0,107	0,040
-443,065	800,000	-0,016	0,037
-442,051	400,285	-0,052	-0,079
-441,036	29,089	-0,101	-0,062
-440,022	-46,805	0,029	0,010
-439,007	100,128	-0,054	-0,046
-437,992	-200,000	-0,017	0,085
-436,978	-10,708	0,080	0,038
-435,963	800,000	-0,029	0,074
-434,949	-8,173	-0,048	-0,023
-433,934	800,000	0,025	-0,062
-432,919	800,000	0,045	-0,119
-431,905	745,237	-0,017	-0,033
-430,890	402,570	0,059	-0,090
-429,876	270,362	0,050	0,064
-428,861	113,264	-0,049	-0,043
-427,846	82,723	0,088	-0,070
-426,832	-200,000	0,024	-0,091
-425,817	-200,000	0,014	-0,049
-424,803	800,000	-0,055	0,112
-423,788	800,000	0,066	-0,138
-422,773	349,282	0,054	-0,078
-421,759	137,631	0,069	-0,065
-420,744	187,501	-0,126	-0,137
-419,730	-61,114	0,057	0,018
-418,715	37,355	-0,091	-0,059
-417,701	659,853	0,022	-0,042
-416,686	388,076	-0,047	-0,071
-415,671	3,809	0,114	0,060
-414,657	-126,958	0,208	0,022
-413,642	-49,614	-0,106	0,037
-412,628	800,000	-0,037	-0,079
-411,613	-200,000	0,000	-0,207
-410,598	227,272	-0,056	-0,067
-409,584	27,231	0,170	-0,103
-408,569	155,821	0,043	-0,044
-407,555	800,000	0,024	0,075
-406,540	-92,627	-0,079	0,016
-405,525	546,582	0,026	-0,045
-404,511	283,058	0,006	-0,008
-403,496	54,013	0,132	-0,092
-402,482	-200,000	-0,006	0,110
-401,467	177,105	0,066	0,070
-400,452	-200,000	-0,024	-0,217
-399,438	66,475	0,038	-0,028
-398,423	-56,908	-0,152	-0,048
-397,409	800,000	-0,039	0,095
-396,394	-73,374	-0,056	-0,015
-395,379	271,867	0,029	0,037
-394,365	111,760	-0,052	0,046
-393,350	408,192	0,085	-0,131
-392,336	176,261	-0,072	-0,076
-391,321	-149,701	-0,069	0,004
-390,306	-200,000	0,014	-0,179
-389,292	22,781	0,085	-0,051
-388,277	-29,509	0,125	0,052
-387,263	99,851	0,043	-0,036
-386,248	-200,000	0,006	-0,023
-385,233	-102,364	0,179	-0,031
-384,219	127,400	-0,087	0,080
-383,204	-26,851	-0,024	-0,010
-382,190	183,249	-0,051	-0,054
-381,175	-116,992	0,174	-0,023
-380,160	82,635	0,063	-0,049
-379,146	-200,000	-0,010	0,045
-378,131	-57,049	0,036	0,011
-377,117	-37,771	0,033	-0,013
-376,102	-200,000	-0,017	0,087
-375,088	-137,701	-0,064	-0,005
-374,073	164,805	-0,054	-0,055
-373,058	365,972	-0,062	-0,091
-372,044	-38,780	-0,084	0,032
-371,029	4,496	0,055	-0,029
-370,015	-200,000	-0,007	-0,069
-369,000	54,248	-0,016	-0,011
-367,985	800,000	-0,044	0,115
-366,971	28,184	-0,024	0,015
-365,956	55,532	-0,044	0,031
-364,942	780,980	0,016	-0,033
-363,927	800,000	0,044	0,105
-362,912	-85,865	0,092	-0,021
-361,898	-53,153	-0,154	-0,051
-360,883	711,127	-0,059	0,114
-359,869	7,486	0,007	0,004
-358,854	800,000	0,024	0,048
-357,839	16,895	0,058	0,033
-356,825	170,012	0,038	0,039
-355,810	-4,350	0,030	-0,015
-354,796	78,018	-0,102	-0,079
-353,781	-200,000	-0,001	-0,049
-352,766	-11,644	0,045	-0,022
-351,752	-137,019	0,017	0,001
-350,737	800,000	0,012	0,033
-349,723	279,808	-0,019	0,025
-348,708	735,627	0,031	-0,061
-347,693	-162,057	0,075	-0,003
-346,679	-200,000	-0,010	-0,071
-345,664	-200,000	0,016	-0,119
-344,650	324,699	-0,042	-0,059
-343,635	800,000	0,022	0,055
-342,620	-200,000	0,013	0,115
-341,606	-152,610	-0,064	0,003
-340,591	-23,742	0,130	0,056
-339,577	-200,000	-0,004	-0,066
-338,562	443,198	-0,096	-0,153
-337,548	-200,000	0,143	0,000
-336,533	-14,727	0,077	-0,036
-335,518	-162,879	0,140	0,005
-334,504	-65,757	0,074	0,021
-333,489	235,907	-0,053	-0,064
-332,475	-200,000	0,002	-0,058
-331,460	-200,000	0,004	-0,039
-330,445	-28,674	0,068	0,028
-329,431	-200,000	-0,007	-0,093
-328,416	48,356	0,060	-0,040
-327,402	143,514	-0,118	0,114
-326,387	-58,702	-0,191	0,060
-325,372	-200,000	0,019	-0,073
-324,358	609,030	-0,027	0,050
-323,343	251,025	-0,053	0,065
-322,329	-200,000	-0,007	-0,055
-321,314	-200,000	-0,044	0,170
-320,299	-40,980	0,114	0,043
-319,285	496,811	-0,040	0,067
-318,270	-200,000	-0,004	0,015
-317,256	11,048	-0,125	-0,069
-316,241	40,872	0,082	-0,054
-315,226	765,212	-0,006	0,013
-314,212	-77,508	0,066	-0,016
-313,197	-76,252	0,063	-0,016
-312,183	165,354	-0,085	-0,087
-311,168	156,052	-0,056	-0,056
-310,153	800,000	-0,042	-0,099
-309,139	65,137	0,032	-0,024
-308,124	800,000	0,040	0,091
-307,110	-200,000	-0,003	-0,104
-306,095	42,706	0,092	-0,060
-305,080	-60,980	0,085	0,026
-304,066	-157,105	0,008	0,000
-303,051	40,026	-0,089	0,058
-302,037	800,000	0,078	0,161
-301,022	-168,774	-0,093	0,002
-300,008	-200,000	-0,007	0,045
-298,993	254,406	0,120	0,148
-297,978	294,981	0,034	0,045
-296,964	-21,701	-0,084	-0,037
-295,949	432,023	0,052	-0,082
-294,935	-200,000	0,019	0,124
-293,920	-200,000	0,042	-0,186
-292,905	-43,529	0,032	-0,012
-291,891	482,032	0,020	0,032
-290,876	153,329	-0,040	-0,040
-289,862	40,972	-0,068	-0,044
-288,847	50,619	0,128	0,088
-287,832	213,509	-0,022	-0,025
-286,818	4,241	-0,043	-0,023
-285,803	196,303	-0,061	0,068
-284,789	-86,882	0,106	-0,023
-283,774	800,000	0,070	0,221
-282,759	-44,897	0,050	0,018
-281,745	-124,410	-0,137	0,015
-280,730	22,277	-0,024	0,014
-279,716	-200,000	-0,014	0,101
-278,701	-183,366	0,114	-0,001
-277,686	108,095	-0,068	0,058
-276,672	231,765	0,045	0,054
-275,657	800,000	0,020	-0,044
-274,643	-200,000	-0,018	-0,079
-273,628	-200,000	-0,038	0,133
-272,613	122,726	-0,082	0,074
-271,599	-200,000	0,001	0,133
-270,584	-200,000	-0,005	0,174
-269,570	-200,000	0,009	0,102
-268,555	-200,000	0,020	0,093
-267,540	-70,288	0,102	-0,028
-266,526	-200,000	-0,007	-0,076
-265,511	81,656	-0,078	-0,061
-264,497	-101,361	-0,121	-0,021
-263,482	116,324	0,103	-0,092
-262,467	-200,000	0,000	-0,032
-261,453	37,827	0,039	0,025
-260,438	428,850	0,018	0,028
-259,424	540,879	-0,011	-0,020
-258,409	125,492	-0,058	-0,053
-257,395	-200,000	0,017	-0,084
-256,380	-84,172	-0,041	0,009
-255,365	800,000	0,008	0,019
-254,351	125,827	0,036	-0,033
-253,336	304,657	0,026	-0,035
-252,322	-200,000	-0,024	-0,257
-251,307	800,000	-0,013	-0,032
-250,292	-200,000	-0,012	0,085
-249,278	481,973	0,030	0,049
-248,263	112,639	0,105	0,092
-247,249	5,765	-0,040	0,021
-246,234	239,598	-0,058	0,070
-245,219	-200,000	0,022	-0,081
-244,205	800,000	-0,045	-0,110
-243,190	174,131	-0,028	-0,029
-242,176	-144,983	0,146	0,010
-241,161	540,088	0,030	0,052
-240,146	101,560	-0,096	0,081
-239,132	-200,000	-0,005	-0,025
-238,117	-200,000	-0,022	-0,109
-237,103	-200,000	-0,001	-0,031
-236,088	361,448	-0,061	0,088
-235,073	-82,548	0,129	0,030
-234,059	-200,000	0,014	0,084
-233,044	800,000	0,021	0,043
-232,030	-121,281	0,208	-0,025
-231,015	800,000	-0,040	-0,096
-230,000	-200,000	0,017	-0,096
-228,986	-26,913	-0,089	-0,038
-227,971	-99,295	0,143	0,026
-226,957	126,672	-0,029	0,027
-225,942	-200,000	0,036	0,182
-224,927	800,000	-0,009	0,027
-223,913	-200,000	0,009	-0,036
-222,898	-125,028	-0,109	0,012
-221,884	-200,000	-0,000	0,044
-220,869	416,775	-0,045	-0,070
-219,855	-200,000	0,014	0,173
-218,840	-200,000	-0,031	0,142
-217,825	-200,000	0,002	0,202
-216,811	800,000	0,022	-0,066
-215,796	111,078	0,165	-0,143
-214,782	-58,134	-0,113	0,035
-213,767	800,000	0,067	-0,135
-212,752	641,245	0,034	0,062
-211,738	131,039	-0,061	-0,056
-210,723	-200,000	0,022	-0,089
-209,709	-60,160	-0,089	-0,027
-208,694	800,000	-0,026	-0,068
-207,679	-117,078	0,118	0,015
-206,665	-41,826	0,042	0,016
-205,650	321,149	0,086	0,119
-204,636	486,304	-0,100	0,165
-203,621	-200,000	0,005	-0,041
-202,606	-132,573	-0,096	0,009
-201,592	97,841	-0,067	-0,056
-200,577	-200,000	0,022	-0,139
-199,563	-137,918	-0,152	-0,012
-198,548	-200,000	-0,023	0,089
-197,533	-200,000	0,012	-0,105
-196,519	146,232	0,050	0,048
-195,504	315,343	0,022	0,030
-194,490	-91,170	-0,068	0,014
-193,475	-159,456	-0,074	-0,003
-192,460	-2,436	0,025	0,013
-191,446	473,010	0,070	0,115
-190,431	156,731	-0,072	0,071
-189,417	-200,000	0,017	-0,064
-188,402	22,964	-0,051	0,030
-187,387	224,355	-0,038	0,044
-186,373	800,000	-0,014	-0,031
-185,358	-18,142	0,054	0,024
-184,344	-32,861	0,086	0,034
-183,329	-200,000	0,014	0,075
-182,315	800,000	-0,017	0,044
-181,300	206,998	0,074	-0,084
-180,285	275,824	-0,062	0,079
-179,271	3,682	-0,171	-0,089
-178,256	28,489	0,205	-0,124
-177,242	-186,176	-0,053	-0,001
-176,227	-147,915	0,210	-0,012
-175,212	-10,442	0,098	0,047
-174,198	90,891	-0,156	-0,126
-173,183	207,538	0,050	0,056
-172,169	-9,264	0,097	0,047
-171,154	69,680	-0,011	-0,008
-170,139	402,277	0,004	-0,007
-169,125	-11,711	-0,083	-0,039
-168,110	-200,000	-0,055	0,208
-167,096	800,000	-0,005	0,013
-166,081	72,680	-0,036	-0,027
-165,066	-200,000	0,020	-0,122
-164,052	179,109	-0,104	0,110
-163,037	4,857	-0,002	0,001
-162,023	800,000	0,054	0,127
-161,008	-200,000	-0,002	0,058
-159,993	206,161	0,078	-0,087
-158,979	-70,070	-0,098	-0,027
-157,964	188,758	-0,088	-0,095
-156,950	-40,919	-0,008	-0,003
-155,935	-60,035	-0,107	0,033
-154,920	121,225	0,088	0,079
-153,906	146,796	0,060	0,058
-152,891	-39,519	-0,128	0,048
-151,877	800,000	0,026	0,057
-150,862	-30,474	0,042	0,017
-149,847	218,871	0,080	0,093
-148,833	800,000	0,032	-0,081
-147,818	145,521	0,101	-0,097
-146,804	-26,855	0,064	-0,027
-145,789	26,985	-0,083	0,050
-144,775	-108,454	0,142	-0,022
-143,760	77,174	-0,101	0,077
-142,745	-200,000	-0,001	-0,079
-141,731	62,225	-0,025	0,018
-140,716	396,530	0,031	-0,047
-139,702	121,408	-0,021	-0,019
-138,687	76,602	-0,036	0,027
-137,672	-111,100	-0,060	0,009
-136,658	304,006	0,021	0,029
-135,643	-82,933	-0,042	0,010
-134,629	-200,000	0,011	0,146
-133,614	88,702	0,035	0,028
-132,599	-26,677	0,032	-0,013
-131,585	-133,977	0,091	0,008
-130,570	-56,564	-0,182	-0,058
-129,556	49,610	-0,029	-0,020
-128,541	67,272	-0,073	0,054
-127,526	-5,427	0,126	0,062
-126,512	-77,072	-0,084	0,021
-125,497	-170,562	0,111	0,003
-124,483	154,135	0,058	0,057
-123,468	800,000	-0,042	-0,109
-122,453	800,000	-0,032	0,076
-121,439	-87,004	0,120	-0,026
-120,424	62,070	-0,051	0,037
-119,410	-200,000	-0,012	0,077
-118,395	-116,852	0,135	-0,018
-117,380	174,544	0,022	0,023
-116,366	99,111	-0,036	-0,030
-115,351	110,684	-0,125	0,108
-114,337	-200,000	0,032	-0,194
-113,322	-11,456	-0,144	-0,068
-112,307	9,861	0,124	0,068
-111,293	300,550	0,031	-0,041
-110,278	800,000	-0,046	0,103
-109,264	208,336	0,053	-0,059
-108,249	-128,507	0,106	-0,011
-107,234	429,847	-0,027	-0,042
-106,220	800,000	-0,036	0,094
-105,205	595,510	-0,031	-0,055
-104,191	800,000	-0,015	-0,045
-103,176	447,929	-0,064	-0,102
-102,162	156,151	-0,094	0,094
-101,147	800,000	0,008	-0,025
-100,132	800,000	-0,043	0,097
-99,118	11,237	0,048	0,026
-98,103	129,806	-0,031	-0,028
-97,089	-18,764	-0,100	-0,045
-96,074	-41,369	0,089	-0,033
-95,059	800,000	-0,034	-0,083
-94,045	709,038	-0,045	-0,086
-93,030	800,000	-0,050	-0,123
-92,016	643,936	-0,043	-0,079
-91,001	263,906	-0,075	0,094
-89,986	3,437	0,063	0,033
-88,972	64,643	0,052	0,038
-87,957	-120,647	0,174	0,021
-86,943	800,000	-0,052	-0,138
-85,928	-185,602	-0,082	-0,001
-84,913	-200,000	-0,007	-0,075
-83,899	128,420	0,063	-0,058
-82,884	176,413	0,062	0,065
-81,870	-97,168	-0,014	0,003
-80,855	-200,000	-0,003	0,026
-79,840	-95,722	0,077	-0,015
-78,826	-93,453	0,071	-0,014
-77,811	-200,000	0,004	-0,013
-76,797	55,019	-0,049	0,034
-75,782	194,953	-0,010	0,011
-74,767	-200,000	0,001	0,154
-73,753	800,000	0,024	-0,048
-72,738	-200,000	0,010	-0,078
-71,724	-99,085	-0,136	0,024
-70,709	-154,710	0,108	-0,005
-69,694	180,177	0,027	-0,028
-68,680	-200,000	-0,001	-0,079
-67,665	-200,000	0,021	0,086
-66,651	9,013	-0,112	-0,061
-65,636	156,485	-0,076	-0,076
-64,622	-200,000	-0,024	-0,156
-63,607	-200,000	-0,007	-0,066
-62,592	238,884	0,073	0,088
-61,578	-200,000	-0,005	0,083
-60,563	800,000	-0,036	0,087
-59,549	265,507	-0,080	0,100
-58,534	9,018	-1,950	-1,053
-57,519	-200,000	-0,264	-0,875
-56,505	-200,000	-1,250	-5,053
-55,490	84,999	0,780	0,613
-54,476	800,000	5,139	11,717
-53,461	-200,000	18,031	292,090
-52,446	800,000	729,843	2241,071
-51,432	538,131	1646,443	2817,615
-50,417	109,176	1636,461	1404,123
-49,403	74,379	1287,524	969,305
-48,388	31,364	1027,590	631,521
-47,373	20,114	989,243	570,878
-46,359	18,270	976,856	557,669
-45,344	15,154	973,031	545,275
-44,330	15,418	971,769	545,410
-43,315	14,901	969,555	542,458
-42,300	14,824	968,627	541,664
-41,286	14,823	967,672	541,107
-40,271	14,848	966,687	540,617
-39,257	14,829	965,726	539,997
-38,242	14,872	964,741	539,562
-37,227	14,878	963,954	539,121
-36,213	14,867	963,080	538,575
-35,198	14,836	962,017	537,858
-34,184	14,868	961,515	537,659
-33,169	14,846	960,662	537,092
-32,154	14,888	959,498	536,555
-31,140	14,820	958,839	535,944
-30,125	14,866	958,052	535,633
-29,111	14,817	957,334	535,050
-28,096	14,883	956,466	534,758
-27,082	14,821	956,064	534,312
-26,067	14,853	955,003	533,800
-25,052	14,825	954,332	533,315
-24,038	14,877	953,739	533,129
-23,023	14,864	952,977	532,641
-22,009	14,899	952,248	532,325
-20,994	14,864	951,760	531,918
-19,979	14,929	951,075	531,720
-18,965	14,813	950,440	530,974
-17,950	14,863	949,835	530,776
-16,936	14,812	949,246	530,262
-15,921	14,772	948,579	529,741
-14,906	14,754	947,788	529,220
-13,892	14,676	947,297	528,678
-12,877	14,738	946,579	528,452
-11,863	14,684	945,960	527,916
-10,848	14,705	945,405	527,651
-9,833	14,828	944,999	527,796
-8,819	14,799	944,289	527,284
-7,804	14,769	943,719	526,851
-6,790	14,776	943,000	526,450
-5,775	14,791	942,462	526,175
-4,760	14,748	941,927	525,720
-3,746	14,780	941,115	525,348
-2,731	14,624	940,510	524,495
-1,717	14,581	939,934	524,017
-0,702	14,609	939,150	523,647
0,313	14,393	938,550	523,423
1,327	17,588	936,253	532,152
2,342	26,464	792,742	474,051
3,356	22,718	458,319	268,325
4,371	-4,598	314,736	155,192
5,386	-8,507	296,447	142,202
6,400	-10,778	290,307	136,989
7,415	-11,107	287,985	135,558
8,429	-10,990	286,530	134,975
9,444	-11,048	285,865	134,594
10,459	-10,654	285,134	134,621
11,473	-10,953	284,684	134,106
12,488	-10,957	283,967	133,752
13,502	-10,978	283,497	133,498
14,517	-10,965	283,140	133,331
15,531	-10,517	282,663	133,528
16,546	-10,475	282,254	133,363
17,561	-10,436	281,898	133,221
18,575	-10,423	281,710	133,133
19,590	-10,445	281,348	132,928
20,604	-10,460	281,048	132,761
21,619	-10,545	280,563	132,438
22,634	-10,431	280,316	132,419
23,648	-10,492	279,942	132,172
24,663	-10,623	279,707	131,924
25,677	-10,475	279,412	131,915
26,692	-10,569	279,233	131,728
27,707	-10,472	278,918	131,660
28,721	-10,420	278,542	131,521
29,736	-10,456	278,299	131,360
30,750	-10,488	278,049	131,200
31,765	-10,529	277,903	131,081
32,780	-10,540	277,690	130,958
33,794	-10,549	277,236	130,724
34,809	-10,602	277,080	130,588
35,823	-10,585	276,831	130,475
36,838	-10,579	276,637	130,379
37,853	-10,575	276,289	130,206
38,867	-10,744	276,065	129,930
39,882	-10,619	275,906	129,961
40,896	-10,595	275,577	129,818
41,911	-10,530	275,230	129,703
42,926	-10,530	275,024	129,594
43,940	-10,490	274,792	129,511
44,955	-10,577	274,658	129,355
45,969	-10,581	274,335	129,188
46,984	-10,828	274,146	128,856
47,999	-10,929	273,827	128,600
49,013	-11,189	273,759	128,314
50,028	-11,126	273,287	128,140
51,042	-11,274	273,058	127,884
52,057	-11,311	272,875	127,752
53,071	-11,164	272,583	127,741
54,086	-11,157	272,540	127,716
55,101	-11,112	272,249	127,610
56,115	-11,105	272,300	127,628
57,130	-10,794	272,049	127,788
58,144	-10,579	271,855	127,885
59,159	-10,373	271,457	127,877
60,174	-10,537	271,271	127,626
61,188	-10,666	271,045	127,388
62,203	-10,511	270,854	127,430
63,217	-10,519	270,616	127,300
64,232	-10,528	270,415	127,186
65,247	-10,558	270,220	127,055
66,261	-10,648	270,039	126,876
67,276	-10,546	269,590	126,747
68,290	-10,713	269,402	126,494
69,305	-10,866	269,169	126,234
70,320	-10,690	268,866	126,241
71,334	-10,587	268,803	126,295
72,349	-10,559	268,570	126,200
73,363	-10,550	268,486	126,157
74,378	-10,601	268,037	125,889
75,393	-10,655	268,104	125,859
76,407	-10,523	267,763	125,809
77,422	-10,414	267,497	125,771
78,436	-10,488	267,278	125,590
79,451	-10,499	267,066	125,469
80,466	-10,682	266,826	125,179
81,480	-10,650	266,501	125,044
82,495	-10,805	266,355	124,825
83,509	-10,630	266,360	124,974
84,524	-10,617	266,175	124,888
85,539	-10,676	265,715	124,608
86,553	-10,762	265,581	124,456
87,568	-10,655	265,438	124,475
88,582	-10,632	265,175	124,361
89,597	-10,613	264,970	124,270
90,611	-10,656	264,935	124,204
91,626	-10,376	264,552	124,266
92,641	-10,532	264,550	124,113
93,655	-10,536	264,184	123,927
94,670	-10,593	263,996	123,776
95,684	-10,707	263,848	123,594
96,699	-10,549	263,479	123,551
97,714	-10,677	263,256	123,322
98,728	-10,763	263,169	123,193
99,743	-10,629	262,896	123,174
100,757	-10,859	262,743	122,886
101,772	-10,848	262,550	122,795
102,787	-10,770	262,398	122,782
103,801	-10,576	262,097	122,802
104,816	-10,732	262,052	122,631
105,830	-10,571	261,862	122,675
106,845	-10,617	261,601	122,501
107,860	-10,679	261,528	122,401
108,874	-10,677	261,306	122,288
109,889	-10,573	260,998	122,225
110,903	-10,862	260,811	121,871
111,918	-10,985	260,591	121,649
112,933	-10,771	260,554	121,809
113,947	-10,648	260,308	121,792
114,962	-10,770	260,071	121,562
115,976	-10,710	259,969	121,557
116,991	-10,691	259,776	121,472
118,006	-10,818	259,581	121,259
119,020	-10,536	259,425	121,423
120,035	-10,510	259,207	121,333
121,049	-10,584	259,123	121,218
122,064	-10,747	258,987	121,001
123,079	-10,341	258,448	121,093
124,093	-10,637	258,428	120,815
125,108	-10,769	258,217	120,589
126,122	-10,884	258,031	120,391
127,137	-10,941	257,732	120,191
128,151	-10,797	257,622	120,255
129,166	-10,860	257,469	120,118
130,181	-10,780	257,129	120,018
131,195	-11,051	256,923	119,676
132,210	-10,684	256,747	119,902
133,224	-10,683	256,656	119,850
134,239	-10,743	256,421	119,677
135,254	-10,847	256,317	119,528
136,268	-10,837	256,068	119,409
137,283	-10,902	255,746	119,192
138,297	-11,229	255,555	118,810
139,312	-10,936	255,323	118,945
140,327	-10,738	255,204	119,049
141,341	-10,668	255,329	119,157
142,356	-10,614	255,053	119,065
143,370	-10,658	254,776	118,887
144,385	-10,331	254,694	119,119
145,400	-10,311	254,447	119,011
146,414	-10,381	254,295	118,868
147,429	-10,340	253,937	118,726
148,443	-10,508	253,972	118,588
149,458	-10,507	253,778	118,487
150,473	-10,545	253,534	118,331
151,487	-10,691	253,363	118,115
152,502	-10,416	253,022	118,181
153,516	-10,402	252,890	118,121
154,531	-10,369	252,755	118,075
155,546	-10,441	252,524	117,895
156,560	-10,513	252,336	117,736
157,575	-10,799	252,206	117,421
158,589	-10,728	251,993	117,372
159,604	-10,410	251,803	117,543
160,619	-10,365	251,782	117,560
161,633	-10,361	251,491	117,418
162,648	-10,229	251,337	117,447
163,662	-10,372	251,066	117,189
164,677	-10,516	250,956	117,005
165,692	-10,479	250,808	116,957
166,706	-10,463	250,798	116,956
167,721	-10,307	250,473	116,926
168,735	-10,458	250,328	116,720
169,750	-10,390	250,192	116,704
170,764	-10,326	250,140	116,723
171,779	-10,582	249,946	116,406
172,794	-10,417	249,844	116,488
173,808	-10,484	249,544	116,280
174,823	-10,885	249,166	115,758
175,837	-11,055	249,090	115,569
176,852	-10,828	248,928	115,674
177,867	-10,435	248,766	115,917
178,881	-10,302	248,582	115,933
179,896	-10,537	248,662	115,763
180,910	-10,306	248,140	115,703
181,925	-10,467	248,161	115,568
182,940	-10,670	247,965	115,297
183,954	-10,476	247,768	115,357
184,969	-10,309	247,626	115,420
185,983	-10,094	247,525	115,541
186,998	-10,203	247,362	115,364
188,013	-10,188	247,267	115,322
189,027	-10,245	246,990	115,135
190,042	-10,435	246,899	114,924
191,056	-10,411	246,512	114,754
192,071	-10,577	246,421	114,564
193,086	-10,637	246,160	114,383
194,100	-10,611	245,979	114,310
195,115	-10,417	245,909	114,428
196,129	-10,453	245,807	114,340
197,144	-10,522	245,457	114,110
198,159	-10,562	245,363	114,024
199,173	-10,566	245,153	113,912
200,188	-10,957	244,865	113,446
201,202	-11,048	244,538	113,210
202,217	-11,148	244,423	113,064
203,232	-11,222	244,308	112,940
204,246	-11,248	243,963	112,749
205,261	-12,441	243,265	111,440
206,275	-13,016	243,164	110,914
207,290	-8,329	244,842	115,527
208,304	-0,237	247,467	123,467
209,319	3,936	248,651	127,511
210,334	4,566	248,714	128,054
211,348	4,841	248,614	128,219
212,363	5,040	248,640	128,386
213,377	5,083	248,507	128,341
214,392	4,975	248,256	128,111
215,407	5,041	248,133	128,090
216,421	4,962	248,028	127,960
217,436	5,205	247,850	128,057
218,450	5,074	247,531	127,773
219,465	5,112	247,310	127,679
220,480	5,083	247,270	127,623
221,494	4,752	247,046	127,224
222,509	4,759	246,947	127,167
223,523	4,499	246,783	126,857
224,538	4,194	246,531	126,467
225,553	4,227	246,321	126,374
226,567	4,296	246,114	126,313
227,582	4,269	246,038	126,241
228,596	4,267	245,780	126,096
229,611	4,379	245,397	125,979
230,626	3,943	245,354	125,590
231,640	4,016	245,241	125,581
232,655	4,278	245,208	125,766
233,669	4,162	244,946	125,527
234,684	3,981	244,749	125,267
235,699	4,222	244,660	125,406
236,713	4,521	244,592	125,604
237,728	4,198	244,418	125,241
238,742	4,188	244,195	125,107
239,757	4,104	243,988	124,921
240,772	4,151	243,783	124,843
241,786	4,074	243,671	124,713
242,801	4,014	243,465	124,547
243,815	4,188	243,344	124,616
244,830	4,365	243,384	124,768
245,844	4,299	243,074	124,545
246,859	4,319	242,877	124,448
247,874	4,192	242,657	124,222
248,888	4,262	242,614	124,246
249,903	4,361	242,504	124,258
250,917	4,281	242,385	124,122
251,932	4,639	242,270	124,339
252,947	4,474	242,057	124,087
253,961	4,276	241,838	123,804
254,976	4,241	241,620	123,654
255,990	4,282	241,529	123,629
257,005	4,222	241,482	123,546
258,020	4,292	241,119	123,405
259,034	4,310	240,921	123,307
260,049	4,170	240,989	123,219
261,063	4,043	240,708	122,963
262,078	4,141	240,587	122,968
263,093	4,519	240,365	123,145
264,107	4,523	240,232	123,069
265,122	4,119	240,005	122,620
266,136	4,324	239,957	122,748
267,151	4,555	239,873	122,878
268,166	4,303	239,530	122,491
269,180	4,156	239,303	122,247
270,195	4,434	239,313	122,462
271,209	4,737	239,328	122,699
272,224	4,290	239,073	122,204
273,239	4,250	238,710	121,975
274,253	4,137	238,616	121,827
275,268	4,259	238,524	121,865
276,282	4,370	238,233	121,794
277,297	4,056	238,251	121,544
278,312	4,433	238,086	121,746
279,326	4,240	238,041	121,560
280,341	4,281	237,955	121,538
281,355	4,119	237,805	121,322
282,370	4,288	237,621	121,351
283,384	4,047	237,405	121,041
284,399	4,169	237,219	121,031
285,414	4,311	236,969	121,004
286,428	4,203	236,765	120,804
287,443	4,107	236,804	120,738
288,457	4,425	236,657	120,901
289,472	4,514	236,357	120,807
290,487	4,078	236,256	120,403
291,501	4,115	236,004	120,293
292,516	4,145	235,900	120,253
293,530	3,945	235,795	120,033
294,545	4,122	235,575	120,048
295,560	3,900	235,660	119,907
296,574	4,075	235,286	119,843
297,589	4,118	235,251	119,848
298,603	4,123	235,167	119,798
299,618	4,445	235,110	120,009
300,633	4,221	234,820	119,676
301,647	4,390	234,752	119,762
302,662	4,698	234,705	119,966
303,676	4,559	234,507	119,747
304,691	4,238	234,359	119,411
305,706	4,595	234,171	119,582
306,720	4,561	233,802	119,356
307,735	4,706	233,750	119,431
308,749	4,453	233,611	119,154
309,764	3,988	233,435	118,695
310,779	4,018	233,066	118,520
311,793	3,741	232,881	118,202
312,808	3,729	232,885	118,185
313,822	4,285	232,889	118,604
314,837	4,569	232,775	118,754
315,852	4,329	232,570	118,454
316,866	4,204	232,593	118,359
317,881	4,312	232,358	118,312
318,895	4,587	232,068	118,364
319,910	4,589	232,043	118,343
320,925	4,449	231,733	118,067
321,939	4,083	231,618	117,718
322,954	4,438	231,576	117,957
323,968	4,167	231,492	117,697
324,983	4,252	231,248	117,627
325,997	4,894	231,115	118,039
327,012	4,352	231,021	117,567
328,027	4,385	230,733	117,435
329,041	4,464	230,743	117,490
330,056	4,422	230,753	117,452
331,070	4,595	230,490	117,440
332,085	4,421	230,290	117,195
333,100	4,396	230,036	117,037
334,114	4,246	230,033	116,911
335,129	4,367	229,858	116,903
336,143	4,598	229,591	116,931
337,158	4,430	229,576	116,786
338,173	4,459	229,455	116,736
339,187	4,376	229,150	116,508
340,202	4,383	229,217	116,537
341,216	4,418	228,877	116,380
342,231	4,093	228,842	116,107
343,246	4,558	228,587	116,318
344,260	4,379	228,475	116,116
345,275	4,228	228,509	116,009
346,289	4,551	228,164	116,066
347,304	4,445	228,079	115,933
348,319	4,410	228,006	115,859
349,333	4,398	227,793	115,732
350,348	4,335	227,577	115,564
351,362	4,322	227,442	115,476
352,377	4,260	227,315	115,355
353,392	4,286	227,098	115,253
354,406	4,190	227,050	115,147
355,421	194,481	1319,287	1391,633
356,435	155,893	1452,345	1391,617
