DTS Sentinel unit serial number:	SN410029Multiplexer serial number:	ORYXHardware model number:	OX2-SRSoftware version number:	ORYX F/W v4,00 Oryx Data Collector v3.7.2.0data status	okinstallation	B5 Nyhavnadifferential loss correction	single-endedforward channel	channel 2reverse channel	N/Adate	2023/12/13time	20:57:13forward acquisition time	300,00reverse acquisition time	0,00gamma	499,1914k internal	0,3157k external	0,3157temperature offset calibration	1,0000default loss term (dB/km)	0,3820temperature slope calibration	1,0000multiplexer offset coefficient	1,0000multiplexer slope coefficient	1,0000fibre end	0,00T internal ref (°C)	10,38T ext. ref 1 (°C)	-6,56T ext. ref 2 (°C)	-6,62length (m)	temperature (°C)	Stokes	anti-Stokes-744,400	752,067	0,036	0,071
-743,385	-83,047	-0,304	-0,072
-742,371	800,000	0,105	0,219
-741,356	-172,948	-0,255	0,006
-740,342	1,735	0,209	0,111
-739,327	-67,531	-0,315	-0,090
-738,312	-200,000	0,021	0,146
-737,298	-199,674	-0,320	0,001
-736,283	97,008	0,112	0,095
-735,269	-111,136	-0,411	-0,061
-734,254	58,738	0,198	0,143
-733,239	2,343	-0,451	-0,240
-732,225	47,620	0,145	0,100
-731,210	800,000	-0,059	0,163
-730,196	-50,937	-0,096	0,033
-729,181	-200,000	0,020	-0,139
-728,167	-200,000	-0,040	-0,180
-727,152	714,163	-0,088	-0,173
-726,137	35,074	0,043	0,028
-725,123	-12,832	-0,148	-0,071
-724,108	258,010	-0,101	-0,129
-723,094	155,004	-0,115	-0,116
-722,079	-153,978	-0,083	0,004
-721,064	800,000	0,017	0,050
-720,050	-63,358	-0,228	0,069
-719,035	800,000	0,026	0,056
-718,021	95,765	-0,070	0,059
-717,006	138,742	0,016	0,016
-715,991	-105,406	-0,141	-0,023
-714,977	35,193	-0,068	0,044
-713,962	-200,000	0,003	0,161
-712,948	10,250	0,069	0,039
-711,933	-63,571	-0,032	0,009
-710,918	-200,000	0,010	0,075
-709,904	189,366	-0,066	-0,073
-708,889	-177,055	-0,161	0,003
-707,875	39,747	-0,026	0,017
-706,860	22,970	-0,121	0,073
-705,845	437,653	0,042	-0,068
-704,831	-200,000	-0,022	0,074
-703,816	71,468	-0,053	-0,041
-702,802	800,000	-0,055	-0,114
-701,787	121,392	0,019	-0,017
-700,772	98,807	0,179	-0,152
-699,758	-200,000	0,036	-0,144
-698,743	-88,562	0,088	-0,019
-697,729	166,917	-0,044	0,046
-696,714	-46,688	0,013	-0,005
-695,699	-200,000	0,002	-0,151
-694,685	-25,531	-0,126	-0,055
-693,670	-181,199	-0,059	0,001
-692,656	-108,520	-0,076	0,012
-691,641	-200,000	-0,006	0,150
-690,627	-200,000	-0,003	0,088
-689,612	800,000	0,017	-0,051
-688,597	-176,571	-0,087	0,002
-687,583	-200,000	-0,004	0,108
-686,568	221,815	-0,083	-0,098
-685,554	-137,411	-0,058	0,005
-684,539	-200,000	-0,019	0,111
-683,524	116,779	-0,060	0,054
-682,510	-83,293	0,112	0,026
-681,495	-128,074	-0,042	-0,004
-680,481	387,346	-0,114	0,173
-679,466	265,070	-0,095	-0,122
-678,451	800,000	-0,031	0,090
-677,437	-105,253	-0,034	-0,006
-676,422	-110,660	-0,142	-0,021
-675,408	-26,589	-0,036	-0,016
-674,393	75,241	-0,080	0,062
-673,378	114,207	-0,064	-0,057
-672,364	-59,689	-0,120	-0,037
-671,349	597,297	0,056	-0,103
-670,335	27,839	0,126	0,078
-669,320	220,673	-0,010	-0,012
-668,305	74,927	0,041	-0,032
-667,291	-7,555	-0,045	0,022
-666,276	-177,541	-0,204	-0,004
-665,262	800,000	0,031	-0,087
-664,247	449,908	0,024	0,038
-663,232	564,471	-0,016	-0,029
-662,218	800,000	-0,046	-0,099
-661,203	-91,277	-0,035	0,007
-660,189	800,000	-0,045	-0,098
-659,174	102,714	-0,066	0,057
-658,159	161,242	0,029	-0,030
-657,145	800,000	-0,047	0,101
-656,130	-65,339	0,143	0,042
-655,116	-71,852	-0,234	-0,064
-654,101	103,957	-0,061	0,053
-653,086	-200,000	0,019	0,134
-652,072	-134,862	-0,108	0,009
-651,057	-200,000	-0,014	-0,153
-650,043	48,054	-0,205	-0,141
-649,028	800,000	-0,047	0,109
-648,014	309,033	-0,049	0,067
-646,999	155,036	-0,054	0,055
-645,984	66,181	-0,026	0,019
-644,970	165,182	-0,063	0,066
-643,955	-200,000	-0,014	0,098
-642,941	-90,792	-0,069	0,014
-641,926	495,884	-0,088	0,150
-640,911	-92,942	-0,066	0,013
-639,897	-35,214	0,053	0,021
-638,882	-200,000	0,011	0,042
-637,868	-130,300	-0,050	0,005
-636,853	-200,000	0,002	0,021
-635,838	-75,223	-0,090	-0,023
-634,824	433,422	-0,011	-0,018
-633,809	250,415	0,090	-0,113
-632,795	-129,502	0,068	0,007
-631,780	77,924	0,061	-0,048
-630,765	-145,985	0,034	-0,002
-629,751	1,246	-0,078	-0,041
-628,736	23,920	-0,056	-0,034
-627,722	-42,194	-0,061	-0,023
-626,707	800,000	-0,066	-0,149
-625,692	-62,380	0,013	0,004
-624,678	-200,000	0,000	0,059
-623,663	340,118	-0,030	-0,043
-622,649	-200,000	-0,023	-0,099
-621,634	50,265	-0,064	-0,045
-620,619	-117,011	0,146	0,019
-619,605	24,896	-0,043	0,026
-618,590	58,119	-0,030	0,022
-617,576	36,534	-0,109	0,070
-616,561	332,758	0,099	0,141
-615,546	800,000	0,042	0,105
-614,532	-156,765	-0,138	0,006
-613,517	-55,945	-0,076	-0,025
-612,503	600,318	-0,058	0,106
-611,488	-200,000	0,028	0,165
-610,474	-39,210	-0,035	-0,013
-609,459	800,000	0,050	-0,129
-608,444	-200,000	-0,018	-0,208
-607,430	723,806	0,024	-0,046
-606,415	407,156	0,062	-0,097
-605,401	-90,888	-0,096	0,020
-604,386	-200,000	-0,007	0,098
-603,371	-150,025	0,045	-0,003
-602,357	800,000	0,014	-0,043
-601,342	-200,000	-0,005	-0,114
-600,328	800,000	0,021	-0,055
-599,313	106,578	-0,063	-0,055
-598,298	-16,056	-0,168	0,078
-597,284	-181,426	0,109	-0,002
-596,269	-200,000	0,024	0,079
-595,255	-23,717	0,064	-0,028
-594,240	165,019	-0,084	-0,087
-593,225	-189,946	-0,038	0,000
-592,211	-63,548	-0,117	-0,035
-591,196	-187,310	-0,088	0,001
-590,182	-200,000	0,004	-0,041
-589,167	-153,130	0,047	0,002
-588,152	152,758	0,021	-0,021
-587,138	-200,000	-0,030	0,175
-586,123	-121,258	-0,036	0,004
-585,109	-200,000	0,014	-0,217
-584,094	100,349	-0,007	-0,006
-583,079	-200,000	-0,025	0,114
-582,065	-200,000	-0,017	0,159
-581,050	800,000	0,021	0,065
-580,036	-200,000	-0,002	0,112
-579,021	-177,048	-0,121	-0,002
-578,006	767,073	0,039	-0,077
-576,992	-190,355	0,122	0,001
-575,977	800,000	-0,057	-0,164
-574,963	800,000	0,066	0,179
-573,948	-200,000	0,031	0,153
-572,934	-73,166	0,041	-0,011
-571,919	-200,000	0,013	-0,074
-570,904	49,920	-0,102	-0,071
-569,890	-161,312	0,134	-0,005
-568,875	-29,237	-0,061	-0,026
-567,861	-200,000	0,005	0,041
-566,846	-48,218	0,042	-0,015
-565,831	-84,344	-0,101	-0,023
-564,817	209,832	0,044	-0,051
-563,802	800,000	-0,051	-0,124
-562,788	-200,000	-0,012	-0,092
-561,773	-63,013	-0,024	0,007
-560,758	800,000	-0,029	0,071
-559,744	45,333	-0,010	-0,007
-558,729	-114,687	0,090	-0,012
-557,715	-69,975	-0,124	-0,034
-556,700	125,703	-0,085	0,079
-555,685	800,000	0,014	-0,041
-554,671	800,000	-0,027	0,070
-553,656	70,899	0,040	0,030
-552,642	229,808	-0,083	0,100
-551,627	162,246	0,098	-0,101
-550,612	744,636	0,018	0,035
-549,598	418,705	-0,046	-0,072
-548,583	798,700	-0,063	-0,127
-547,569	446,888	0,037	0,059
-546,554	-200,000	-0,007	0,117
-545,539	-200,000	-0,002	-0,087
-544,525	800,000	-0,015	0,042
-543,510	426,399	-0,076	0,121
-542,496	800,000	0,022	0,056
-541,481	-200,000	0,017	-0,134
-540,466	-200,000	0,015	0,120
-539,452	50,657	0,019	0,013
-538,437	-88,611	-0,079	-0,017
-537,423	-200,000	-0,017	0,081
-536,408	349,318	-0,038	-0,056
-535,393	-56,182	0,031	0,010
-534,379	82,249	-0,106	0,084
-533,364	-29,919	-0,175	0,072
-532,350	800,000	0,035	0,088
-531,335	373,622	0,040	0,060
-530,321	-79,416	0,080	0,020
-529,306	33,982	-0,114	-0,072
-528,291	-200,000	0,008	-0,121
-527,277	668,989	-0,058	-0,110
-526,262	-145,911	-0,038	-0,002
-525,248	20,317	-0,018	-0,010
-524,233	-72,675	-0,097	-0,026
-523,218	-200,000	0,012	0,073
-522,204	-83,412	0,117	0,027
-521,189	-13,012	-0,098	0,046
-520,175	800,000	-0,029	-0,086
-519,160	399,700	0,082	-0,126
-518,145	-89,021	-0,080	0,017
-517,131	-79,489	0,092	0,022
-516,116	51,830	0,035	-0,024
-515,102	-154,481	0,024	0,001
-514,087	-200,000	-0,020	-0,075
-513,072	201,607	-0,048	-0,054
-512,058	88,375	-0,040	-0,032
-511,043	-172,159	0,109	-0,003
-510,029	72,643	0,045	0,034
-509,014	201,715	-0,112	0,126
-507,999	55,630	0,071	0,050
-506,985	-9,487	-0,064	-0,031
-505,970	-200,000	0,001	0,033
-504,956	59,374	-0,011	0,008
-503,941	141,651	0,054	0,052
-502,926	-137,675	0,122	0,010
-501,912	117,228	-0,066	-0,059
-500,897	-200,000	-0,004	0,040
-499,883	-200,000	-0,016	0,091
-498,868	149,903	-0,025	-0,025
-497,853	-200,000	0,026	-0,113
-496,839	-200,000	0,006	0,054
-495,824	46,003	0,128	0,087
-494,810	-200,000	0,018	0,060
-493,795	222,416	-0,043	0,051
-492,781	-84,528	0,110	-0,025
-491,766	-119,585	-0,185	-0,023
-490,751	6,791	-0,139	-0,075
-489,737	-73,664	0,102	-0,027
-488,722	800,000	0,014	0,038
-487,708	379,830	0,047	0,070
-486,693	561,997	0,048	0,085
-485,678	292,300	0,027	0,036
-484,664	-200,000	-0,004	-0,096
-483,649	-200,000	-0,051	-0,178
-482,635	1,265	-0,086	-0,045
-481,620	-195,770	-0,046	-0,000
-480,605	800,000	0,018	-0,043
-479,591	800,000	0,037	0,092
-478,576	51,165	-0,073	0,050
-477,562	-2,082	-0,046	0,023
-476,547	-98,968	-0,076	-0,014
-475,532	-74,617	-0,098	0,026
-474,518	-7,432	0,101	-0,050
-473,503	233,133	-0,042	0,050
-472,489	240,563	0,013	-0,016
-471,474	211,546	0,023	-0,027
-470,459	800,000	-0,024	-0,053
-469,445	-137,740	-0,195	0,016
-468,430	25,814	-0,014	-0,008
-467,416	-70,227	-0,051	0,014
-466,401	-100,269	0,055	-0,010
-465,386	-200,000	0,026	-0,125
-464,372	150,938	-0,050	0,050
-463,357	149,916	0,026	-0,025
-462,343	172,106	0,057	0,060
-461,328	17,825	-0,032	0,019
-460,313	-55,059	0,121	-0,040
-459,299	-35,803	-0,055	0,022
-458,284	-65,621	-0,138	0,040
-457,270	172,005	0,121	0,127
-456,255	124,511	0,043	-0,039
-455,241	-200,000	0,004	-0,030
-454,226	-200,000	0,000	-0,096
-453,211	-200,000	0,003	-0,064
-452,197	-200,000	0,005	-0,024
-451,182	85,747	0,048	-0,038
-450,168	-149,218	-0,075	0,004
-449,153	-36,928	0,085	0,033
-448,138	-200,000	-0,035	-0,155
-447,124	800,000	-0,058	-0,123
-446,109	297,186	0,020	0,027
-445,095	328,213	0,057	-0,080
-444,080	-99,417	0,084	0,015
-443,065	-200,000	-0,006	0,040
-442,051	800,000	0,023	0,059
-441,036	80,403	-0,074	-0,058
-440,022	-200,000	0,023	-0,163
-439,007	800,000	-0,028	-0,089
-437,992	-56,489	0,132	0,043
-436,978	-3,229	-0,029	0,014
-435,963	105,549	0,040	-0,034
-434,949	-200,000	0,010	0,036
-433,934	800,000	0,020	0,053
-432,919	-146,358	-0,069	-0,004
-431,905	36,330	-0,086	0,055
-430,890	800,000	0,049	-0,132
-429,876	144,426	0,048	0,047
-428,861	-139,165	0,082	-0,006
-427,846	60,784	0,026	0,019
-426,832	800,000	0,010	0,025
-425,817	27,677	-0,154	-0,094
-424,803	7,084	-0,056	0,030
-423,788	15,975	0,135	-0,077
-422,773	-200,000	0,012	-0,086
-421,759	-37,491	-0,109	-0,042
-420,744	800,000	-0,009	0,020
-419,730	-200,000	-0,021	0,080
-418,715	-200,000	-0,009	-0,114
-417,701	800,000	-0,010	-0,031
-416,686	-200,000	-0,013	0,116
-415,671	281,129	0,082	0,106
-414,657	-200,000	0,011	0,162
-413,642	-70,969	-0,130	-0,035
-412,628	-200,000	-0,052	-0,224
-411,613	365,915	-0,071	-0,105
-410,598	54,017	-0,061	0,043
-409,584	-200,000	0,016	-0,141
-408,569	-200,000	0,007	-0,030
-407,555	800,000	0,056	0,132
-406,540	-89,606	-0,117	0,025
-405,525	129,475	0,075	-0,070
-404,511	294,656	0,064	-0,085
-403,496	76,435	-0,117	-0,090
-402,482	-197,990	-0,030	-0,000
-401,467	-164,439	0,119	0,004
-400,452	-200,000	-0,022	-0,095
-399,438	226,700	-0,107	0,127
-398,423	239,251	-0,056	0,068
-397,409	-141,124	-0,119	0,009
-396,394	381,524	0,009	0,013
-395,379	800,000	-0,016	-0,044
-394,365	129,027	0,058	0,054
-393,350	7,546	0,058	0,032
-392,336	621,851	0,034	0,062
-391,321	-176,763	-0,055	-0,001
-390,306	-52,555	0,037	0,013
-389,292	62,731	-0,087	-0,063
-388,277	165,945	0,094	0,096
-387,263	-200,000	0,013	0,110
-386,248	466,716	0,023	-0,037
-385,233	787,540	0,014	-0,029
-384,219	800,000	-0,028	-0,078
-383,204	-83,290	-0,191	-0,044
-382,190	25,556	0,024	-0,014
-381,175	455,776	-0,034	0,054
-380,160	-51,893	0,096	0,032
-379,146	33,907	-0,053	-0,034
-378,131	593,197	-0,041	0,074
-377,117	653,651	0,039	0,073
-376,102	800,000	0,040	-0,088
-375,088	36,040	-0,065	-0,042
-374,073	800,000	0,037	-0,099
-373,058	-42,478	0,050	-0,018
-372,044	-82,359	0,073	-0,017
-371,029	800,000	-0,041	-0,086
-370,015	211,367	-0,079	-0,090
-369,000	93,149	-0,063	-0,052
-367,985	723,461	0,034	0,066
-366,971	-183,900	0,210	-0,003
-365,956	800,000	0,047	-0,115
-364,942	17,423	0,116	0,067
-363,927	89,289	-0,062	0,050
-362,912	800,000	-0,036	0,085
-361,898	34,813	-0,030	0,019
-360,883	14,323	0,090	0,051
-359,869	-168,294	0,168	0,005
-358,854	-200,000	0,019	-0,104
-357,839	-25,909	0,093	0,039
-356,825	-47,668	0,046	0,016
-355,810	-39,960	0,062	-0,024
-354,796	151,519	0,081	-0,080
-353,781	-200,000	-0,023	-0,153
-352,766	-200,000	0,027	-0,110
-351,752	-171,025	-0,117	-0,003
-350,737	25,769	0,064	-0,039
-349,723	800,000	-0,039	0,082
-348,708	136,125	-0,084	0,080
-347,693	179,183	0,108	-0,115
-346,679	-97,381	-0,159	-0,030
-345,664	-200,000	-0,016	-0,088
-344,650	207,110	0,066	0,075
-343,635	42,563	-0,102	-0,067
-342,620	800,000	0,065	0,135
-341,606	-20,074	-0,041	0,018
-340,591	-200,000	0,007	0,078
-339,577	800,000	0,043	0,132
-338,562	-33,247	-0,146	0,059
-337,548	-0,056	0,075	0,039
-336,533	-23,135	-0,022	-0,010
-335,518	43,868	-0,109	0,072
-334,504	-34,154	0,141	-0,056
-333,489	-62,076	0,076	0,023
-332,475	-200,000	-0,007	-0,049
-331,460	-200,000	0,000	-0,047
-330,445	449,056	0,047	-0,076
-329,431	266,861	0,042	0,054
-328,416	782,421	-0,053	0,106
-327,402	-200,000	-0,026	-0,132
-326,387	86,085	0,023	0,018
-325,372	-200,000	-0,007	0,064
-324,358	264,315	0,016	-0,020
-323,343	-116,696	-0,086	0,011
-322,329	-95,234	0,159	0,031
-321,314	-47,282	0,058	0,020
-320,299	558,085	0,037	0,064
-319,285	800,000	-0,039	0,095
-318,270	800,000	0,027	0,067
-317,256	431,569	-0,042	-0,067
-316,241	-200,000	-0,005	-0,022
-315,226	-200,000	-0,012	-0,053
-314,212	-34,177	0,137	0,054
-313,197	621,035	0,028	0,051
-312,183	-177,396	-0,123	0,002
-311,168	717,966	0,050	-0,096
-310,153	-94,662	-0,057	-0,011
-309,139	249,674	0,038	-0,047
-308,124	800,000	-0,021	0,051
-307,110	40,508	0,074	-0,048
-306,095	-152,792	0,150	-0,008
-305,080	-70,002	0,048	0,013
-304,066	-23,887	-0,112	0,048
-303,051	-143,122	-0,018	-0,001
-302,037	-200,000	-0,004	0,030
-301,022	-46,843	0,108	0,038
-300,008	23,320	-0,059	-0,035
-298,993	-92,477	0,095	0,019
-297,978	-200,000	0,002	-0,121
-296,964	-200,000	0,004	0,013
-295,949	25,545	-0,071	-0,043
-294,935	379,035	-0,031	-0,046
-293,920	-111,111	0,113	0,017
-292,905	751,025	0,066	0,130
-291,891	800,000	0,035	0,099
-290,876	-200,000	-0,002	-0,012
-289,862	-52,474	0,049	0,016
-288,847	246,048	-0,073	-0,089
-287,832	54,426	0,117	-0,082
-286,818	-119,813	-0,089	-0,011
-285,803	-111,227	0,216	0,032
-284,789	462,183	0,036	-0,058
-283,774	135,264	0,074	0,070
-282,759	-200,000	-0,000	-0,066
-281,745	-45,934	0,068	0,024
-280,730	-200,000	-0,018	0,066
-279,716	-200,000	0,008	-0,059
-278,701	-95,746	0,119	0,023
-277,686	-200,000	-0,023	0,107
-276,672	99,225	0,036	0,030
-275,657	-200,000	0,011	0,036
-274,643	16,124	-0,124	0,071
-273,628	-200,000	-0,040	-0,135
-272,613	-8,481	0,118	-0,057
-271,599	-35,060	-0,088	0,035
-270,584	-110,977	-0,114	-0,017
-269,570	175,252	0,100	0,105
-268,555	60,228	0,074	0,053
-267,540	77,357	-0,116	-0,089
-266,526	51,111	0,138	0,095
-265,511	-200,000	-0,020	0,109
-264,497	-200,000	-0,025	0,174
-263,482	-200,000	-0,002	-0,017
-262,467	-43,842	0,108	0,039
-261,453	117,961	0,119	0,106
-260,438	800,000	-0,026	0,073
-259,424	53,425	-0,128	0,089
-258,409	-200,000	0,001	-0,065
-257,395	548,008	0,028	0,049
-256,380	0,071	0,124	0,064
-255,365	-200,000	-0,007	-0,034
-254,351	137,462	-0,029	-0,027
-253,336	-34,314	-0,077	-0,030
-252,322	322,073	0,046	-0,063
-251,307	147,902	-0,029	0,028
-250,292	-158,446	-0,126	0,005
-249,278	-87,147	0,204	0,044
-248,263	577,932	0,015	0,027
-247,249	-70,949	0,065	-0,018
-246,234	-68,770	-0,100	0,028
-245,219	-113,177	0,107	-0,015
-244,205	-151,388	-0,133	-0,007
-243,190	253,771	0,050	-0,061
-242,176	404,902	-0,040	0,061
-241,161	-14,465	0,042	0,019
-240,146	-119,268	0,031	0,004
-239,132	79,698	-0,053	-0,041
-238,117	-200,000	0,013	-0,084
-237,103	-70,196	0,063	0,017
-236,088	-23,437	-0,041	-0,018
-235,073	222,095	0,118	0,137
-234,059	16,857	0,069	0,039
-233,044	-200,000	0,007	0,138
-232,030	-119,355	0,094	0,012
-231,015	156,060	0,023	-0,022
-230,000	-20,293	0,075	-0,033
-228,986	-200,000	-0,012	0,063
-227,971	-52,618	-0,020	-0,006
-226,957	20,423	0,064	0,037
-225,942	-108,163	-0,116	0,018
-224,927	115,091	-0,111	-0,098
-223,913	-200,000	-0,043	0,000
-222,898	-111,168	-0,119	-0,017
-221,884	800,000	0,035	-0,071
-220,869	-200,000	0,004	-0,092
-219,855	113,885	-0,069	0,060
-218,840	-200,000	0,022	0,094
-217,825	-39,387	-0,150	-0,057
-216,811	124,753	0,029	-0,027
-215,796	561,662	0,036	-0,062
-214,782	-18,257	-0,078	-0,035
-213,767	33,440	0,098	-0,061
-212,752	-153,548	0,047	-0,002
-211,738	800,000	0,035	0,090
-210,723	247,566	-0,050	-0,061
-209,709	-55,956	0,028	0,009
-208,694	-74,614	-0,133	-0,034
-207,679	800,000	0,031	-0,067
-206,665	800,000	0,033	0,096
-205,650	-200,000	-0,010	0,077
-204,636	317,656	0,069	0,094
-203,621	-95,971	0,099	0,019
-202,606	155,772	-0,060	0,060
-201,592	800,000	-0,040	-0,090
-200,577	15,175	-0,093	-0,053
-199,563	71,507	0,104	-0,078
-198,548	99,645	-0,082	0,069
-197,533	386,340	-0,016	0,025
-196,519	221,288	0,053	-0,062
-195,504	-200,000	-0,005	0,030
-194,490	800,000	0,097	-0,208
-193,475	71,080	0,054	-0,040
-192,460	-40,888	-0,047	0,018
-191,446	-200,000	-0,027	0,086
-190,431	-200,000	-0,003	0,012
-189,417	-200,000	0,008	0,148
-188,402	451,602	0,067	0,107
-187,387	229,757	0,039	-0,046
-186,373	-62,444	-0,095	-0,028
-185,358	-200,000	0,000	-0,030
-184,344	-66,152	0,030	-0,009
-183,329	800,000	-0,019	0,041
-182,315	-200,000	0,010	-0,087
-181,300	-200,000	0,010	-0,097
-180,285	168,351	-0,130	-0,134
-179,271	194,189	-0,075	-0,082
-178,256	782,342	0,009	-0,018
-177,242	-15,568	0,170	-0,078
-176,227	800,000	0,030	0,072
-175,212	-150,534	0,155	0,008
-174,198	53,975	0,119	0,083
-173,183	111,208	-0,078	-0,067
-172,169	8,701	-0,060	-0,032
-171,154	-74,328	0,066	-0,017
-170,139	-126,335	0,063	0,007
-169,125	448,908	0,024	0,039
-168,110	-134,099	0,042	0,004
-167,096	-87,464	-0,115	0,025
-166,081	-200,000	0,001	0,092
-165,066	48,316	-0,014	-0,010
-164,052	309,961	-0,083	-0,112
-163,037	65,599	0,046	-0,033
-162,023	-30,035	0,107	-0,044
-161,008	326,115	0,119	0,165
-159,993	-147,279	0,055	0,003
-158,979	-200,000	0,001	-0,102
-157,964	800,000	0,009	-0,024
-156,950	-132,102	-0,194	-0,018
-155,935	-51,172	0,057	-0,019
-154,920	350,647	0,092	-0,132
-153,906	-89,581	0,041	0,009
-152,891	-200,000	-0,017	0,198
-151,877	79,763	-0,094	-0,073
-150,862	61,623	0,085	0,061
-149,847	800,000	0,029	0,066
-148,833	-131,581	0,075	0,007
-147,818	-200,000	-0,010	0,042
-146,804	-15,114	0,040	-0,019
-145,789	-200,000	0,016	-0,057
-144,775	-115,967	0,036	-0,005
-143,760	65,066	-0,062	-0,045
-142,745	-185,384	-0,229	0,002
-141,731	-135,568	0,021	-0,002
-140,716	-200,000	-0,023	0,192
-139,702	-2,842	0,061	0,031
-138,687	270,261	-0,128	-0,162
-137,672	-122,840	0,063	0,007
-136,658	296,336	-0,080	-0,106
-135,643	-91,815	0,099	0,020
-134,629	-62,551	-0,121	-0,036
-133,614	82,567	-0,157	0,123
-132,599	91,672	-0,043	-0,035
-131,585	67,213	0,099	0,073
-130,570	93,238	-0,083	0,068
-129,556	171,308	-0,070	-0,072
-128,541	6,471	-0,220	0,117
-127,526	-22,819	0,038	-0,016
-126,512	-31,647	0,075	0,030
-125,497	625,055	-0,013	0,023
-124,483	-200,000	-0,005	0,162
-123,468	-9,664	0,079	0,038
-122,453	107,826	0,100	-0,086
-121,439	8,940	-0,204	-0,111
-120,424	-95,680	-0,109	-0,021
-119,410	-200,000	0,005	-0,031
-118,395	-29,391	-0,016	-0,006
-117,380	99,710	0,039	0,032
-116,366	120,198	-0,156	0,139
-115,351	200,067	0,054	-0,060
-114,337	416,792	-0,031	0,048
-113,322	31,464	-0,054	-0,033
-112,307	390,518	-0,035	-0,053
-111,293	-118,077	0,145	-0,018
-110,278	220,374	-0,050	0,057
-109,264	-77,856	-0,062	0,015
-108,249	-200,000	-0,039	-0,217
-107,234	534,056	0,048	-0,081
-106,220	428,715	-0,026	-0,040
-105,205	800,000	0,075	-0,153
-104,191	800,000	0,011	-0,028
-103,176	79,577	0,042	0,032
-102,162	-90,736	0,077	0,016
-101,147	-35,855	-0,143	-0,056
-100,132	-114,681	0,030	-0,004
-99,118	-47,747	0,026	0,009
-98,103	-200,000	-0,017	0,054
-97,089	-98,377	0,124	-0,023
-96,074	446,391	0,074	0,118
-95,059	-200,000	0,001	0,038
-94,045	-35,879	0,029	-0,011
-93,030	-200,000	0,001	-0,126
-92,016	76,881	0,030	-0,023
-91,001	-200,000	-0,004	-0,104
-89,986	74,743	0,041	-0,031
-88,972	58,844	0,165	0,117
-87,957	612,004	0,021	0,038
-86,943	-21,600	0,089	-0,039
-85,928	-200,000	0,011	0,053
-84,913	-7,129	-0,026	0,012
-83,899	-200,000	-0,005	-0,129
-82,884	36,919	0,129	0,082
-81,870	-200,000	-0,012	0,042
-80,855	-75,635	-0,023	0,006
-79,840	-200,000	0,014	0,075
-78,826	-132,708	0,047	0,004
-77,811	77,832	0,050	-0,038
-76,797	-120,088	-0,127	0,015
-75,782	-165,367	-0,059	0,002
-74,767	-38,122	0,084	0,032
-73,753	-200,000	0,021	0,192
-72,738	606,349	-0,126	0,227
-71,724	-200,000	0,005	0,067
-70,709	-200,000	0,002	-0,045
-69,694	194,436	0,074	-0,080
-68,680	17,606	0,106	0,060
-67,665	-39,657	0,016	0,006
-66,651	-200,000	0,012	-0,087
-65,636	184,902	0,054	0,058
-64,622	-200,000	0,003	0,025
-63,607	800,000	-0,017	0,036
-62,592	-97,045	0,139	-0,026
-61,578	-39,613	0,105	0,039
-60,563	-59,109	0,058	0,018
-59,549	624,736	-0,074	0,134
-58,534	58,273	-2,465	-1,733
-57,519	800,000	0,173	-0,499
-56,505	-200,000	-1,508	-5,276
-55,490	476,580	0,869	1,416
-54,476	800,000	5,430	11,991
-53,461	-200,000	20,804	340,473
-52,446	800,000	762,982	2364,587
-51,432	539,720	1668,086	2860,567
-50,417	111,970	1636,277	1418,556
-49,403	80,132	1286,061	991,979
-48,388	28,433	1028,726	622,766
-47,373	19,721	992,725	572,078
-46,359	14,896	980,534	549,124
-45,344	10,925	977,085	534,075
-44,330	11,422	975,070	534,592
-43,315	10,455	973,085	530,299
-42,300	10,397	971,957	529,473
-41,286	10,490	970,942	529,205
-40,271	10,382	970,124	528,385
-39,257	10,369	969,073	527,747
-38,242	10,428	968,151	527,417
-37,227	10,388	967,382	526,846
-36,213	10,340	966,594	526,241
-35,198	10,338	965,731	525,744
-34,184	10,425	964,753	525,473
-33,169	10,401	963,872	524,894
-32,154	10,460	963,086	524,636
-31,140	10,498	961,841	524,063
-30,125	10,498	961,318	523,755
-29,111	10,436	960,650	523,169
-28,096	10,438	960,104	522,858
-27,082	10,433	959,168	522,311
-26,067	10,419	958,499	521,882
-25,052	10,398	957,714	521,367
-24,038	10,431	956,960	521,039
-23,023	10,425	956,412	520,701
-22,009	10,413	955,677	520,243
-20,994	10,404	955,339	520,010
-19,979	10,393	954,618	519,559
-18,965	10,444	953,759	519,238
-17,950	10,346	953,494	518,757
-16,936	10,361	952,694	518,349
-15,921	10,318	952,002	517,812
-14,906	10,336	951,130	517,378
-13,892	10,304	950,392	516,851
-12,877	10,292	949,836	516,491
-11,863	10,273	949,235	516,081
-10,848	10,297	948,513	515,746
-9,833	10,389	948,145	515,818
-8,819	10,347	947,459	515,293
-7,804	10,298	946,768	514,738
-6,790	10,294	946,310	514,457
-5,775	10,375	945,754	514,392
-4,760	10,384	945,031	514,007
-3,746	10,372	944,369	513,590
-2,731	10,178	943,707	512,591
-1,717	10,151	943,059	512,131
-0,702	10,179	942,600	511,951
0,313	9,996	941,915	511,771
1,327	13,728	939,515	522,264
2,342	22,990	789,408	463,322
3,356	18,205	454,794	259,617
4,371	-9,640	315,512	150,269
5,386	-13,602	297,553	137,664
6,400	-15,721	291,495	132,731
7,415	-15,620	288,959	131,665
8,429	-16,198	287,376	130,362
9,444	-16,225	286,526	129,938
10,459	-16,061	285,660	129,695
11,473	-16,041	285,261	129,522
12,488	-16,172	284,749	129,149
13,502	-15,982	284,246	129,095
14,517	-15,965	283,894	128,939
15,531	-15,677	283,530	129,043
16,546	-15,396	283,070	129,095
17,561	-15,633	282,821	128,740
18,575	-15,365	282,332	128,766
19,590	-15,682	282,025	128,307
20,604	-15,513	281,847	128,378
21,619	-15,620	281,537	128,122
22,634	-15,555	281,186	128,014
23,648	-15,428	280,789	127,944
24,663	-15,447	280,446	127,758
25,677	-15,474	280,202	127,609
26,692	-15,434	279,843	127,473
27,707	-15,482	279,582	127,296
28,721	-15,429	279,300	127,207
29,736	-15,680	279,262	126,939
30,750	-15,615	279,022	126,881
31,765	-15,543	278,575	126,734
32,780	-15,604	278,373	126,574
33,794	-15,297	278,032	126,699
34,809	-15,651	277,854	126,270
35,823	-15,571	277,643	126,239
36,838	-15,429	277,181	126,152
37,853	-15,599	277,037	125,915
38,867	-15,515	276,770	125,861
39,882	-15,436	276,567	125,832
40,896	-15,478	276,436	125,722
41,911	-15,652	276,202	125,440
42,926	-15,454	275,877	125,468
43,940	-15,562	275,635	125,245
44,955	-15,441	275,332	125,210
45,969	-15,553	275,193	125,031
46,984	-15,457	274,951	124,999
47,999	-15,283	274,783	125,075
49,013	-15,343	274,575	124,913
50,028	-15,403	274,311	124,725
51,042	-15,397	274,005	124,581
52,057	-15,283	273,745	124,559
53,071	-15,371	273,680	124,435
54,086	-15,434	273,303	124,195
55,101	-15,446	273,193	124,122
56,115	-15,448	272,861	123,958
57,130	-15,450	272,560	123,809
58,144	-15,622	272,326	123,532
59,159	-15,435	272,101	123,591
60,174	-15,692	271,916	123,259
61,188	-15,662	271,674	123,165
62,203	-15,332	271,390	123,331
63,217	-15,506	271,326	123,130
64,232	-15,354	271,096	123,155
65,247	-15,582	270,867	122,830
66,261	-15,504	270,556	122,750
67,276	-15,336	270,194	122,730
68,290	-15,508	270,037	122,489
69,305	-15,426	269,891	122,487
70,320	-15,519	269,772	122,336
71,334	-15,417	269,322	122,215
72,349	-15,575	269,229	122,017
73,363	-15,689	269,045	121,818
74,378	-15,602	268,625	121,697
75,393	-15,532	268,397	121,647
76,407	-15,643	268,398	121,535
77,422	-15,482	268,151	121,559
78,436	-15,583	267,868	121,328
79,451	-15,507	267,465	121,204
80,466	-15,473	267,330	121,163
81,480	-15,415	267,185	121,139
82,495	-15,535	267,013	120,941
83,509	-15,581	266,817	120,799
84,524	-15,367	266,460	120,822
85,539	-15,469	266,392	120,688
86,553	-15,402	266,143	120,624
87,568	-15,384	265,903	120,521
88,582	-15,426	265,634	120,351
89,597	-15,406	265,535	120,313
90,611	-15,571	265,381	120,084
91,626	-15,618	265,120	119,913
92,641	-15,485	264,877	119,912
93,655	-15,447	264,543	119,784
94,670	-15,499	264,443	119,681
95,684	-15,392	264,108	119,615
96,699	-15,303	263,941	119,609
97,714	-15,521	263,890	119,379
98,728	-15,427	263,647	119,343
99,743	-15,430	263,376	119,207
100,757	-15,358	263,175	119,170
101,772	-15,482	263,032	118,984
102,787	-15,443	262,830	118,916
103,801	-15,639	262,585	118,620
104,816	-15,507	262,457	118,669
105,830	-15,625	262,302	118,484
106,845	-15,590	262,066	118,398
107,860	-15,769	261,737	118,079
108,874	-15,464	261,514	118,239
109,889	-15,545	261,383	118,097
110,903	-15,710	261,109	117,817
111,918	-15,451	260,899	117,941
112,933	-15,416	260,605	117,828
113,947	-15,484	260,525	117,722
114,962	-15,794	260,420	117,390
115,976	-15,333	260,154	117,666
116,991	-15,625	259,939	117,301
118,006	-15,411	259,604	117,328
119,020	-15,267	259,562	117,426
120,035	-15,542	259,453	117,123
121,049	-15,608	259,218	116,949
122,064	-15,349	259,049	117,090
123,079	-15,539	258,876	116,834
124,093	-15,463	258,456	116,701
125,108	-15,330	258,364	116,765
126,122	-15,516	258,329	116,576
127,137	-15,384	258,095	116,576
128,151	-15,313	257,853	116,518
129,166	-15,291	257,540	116,385
130,181	-15,344	257,363	116,249
131,195	-15,238	257,166	116,242
132,210	-15,439	256,918	115,945
133,224	-15,480	256,752	115,823
134,239	-15,494	256,635	115,748
135,254	-15,538	256,444	115,613
136,268	-15,588	256,289	115,490
137,283	-15,469	256,056	115,478
138,297	-15,448	255,871	115,403
139,312	-15,565	255,719	115,222
140,327	-15,657	255,414	114,995
141,341	-15,331	255,165	115,154
142,356	-15,736	254,898	114,673
143,370	-15,586	254,766	114,733
144,385	-15,304	254,532	114,861
145,400	-15,332	254,391	114,763
146,414	-15,472	254,188	114,541
147,429	-15,606	254,064	114,359
148,443	-15,436	253,867	114,407
149,458	-15,455	253,608	114,263
150,473	-15,558	253,557	114,142
151,487	-15,484	253,278	114,070
152,502	-15,397	253,086	114,047
153,516	-15,364	252,811	113,942
154,531	-15,470	252,647	113,767
155,546	-15,504	252,446	113,637
156,560	-15,491	252,383	113,610
157,575	-15,455	252,079	113,493
158,589	-15,552	251,842	113,294
159,604	-15,511	251,690	113,251
160,619	-15,374	251,595	113,314
161,633	-15,382	251,530	113,269
162,648	-15,272	251,101	113,159
163,662	-15,364	251,060	113,052
164,677	-15,416	250,833	112,895
165,692	-15,375	250,693	112,857
166,706	-15,438	250,538	112,724
167,721	-15,515	250,275	112,530
168,735	-15,483	250,236	112,530
169,750	-15,255	249,746	112,492
170,764	-15,471	249,852	112,347
171,779	-15,364	249,730	112,373
172,794	-15,510	249,612	112,186
173,808	-15,413	249,286	112,111
174,823	-15,360	249,134	112,078
175,837	-15,385	248,979	111,977
176,852	-15,480	248,811	111,812
177,867	-15,458	248,787	111,810
178,881	-15,414	248,522	111,717
179,896	-15,474	248,298	111,556
180,910	-15,569	248,124	111,389
181,925	-15,496	247,979	111,374
182,940	-15,616	247,826	111,196
183,954	-15,509	247,539	111,146
184,969	-15,408	247,521	111,212
185,983	-15,537	247,433	111,055
186,998	-15,341	247,045	111,035
188,013	-15,328	246,997	111,014
189,027	-15,385	246,757	110,849
190,042	-15,544	246,448	110,568
191,056	-15,420	246,315	110,601
192,071	-15,797	246,189	110,222
193,086	-15,550	245,913	110,294
194,100	-15,596	245,787	110,189
195,115	-15,577	245,638	110,128
196,129	-15,529	245,403	110,052
197,144	-15,567	245,139	109,892
198,159	-15,507	245,098	109,915
199,173	-15,340	244,736	109,880
200,188	-15,778	244,629	109,461
201,202	-15,633	244,461	109,496
202,217	-15,246	244,186	109,681
203,232	-15,529	244,156	109,425
204,246	-15,816	243,921	109,074
205,261	-16,150	243,428	108,570
206,275	-15,543	243,715	109,187
207,290	-11,255	245,211	113,388
208,304	-4,593	247,484	119,970
209,319	-0,679	248,637	123,779
210,334	0,518	248,885	124,888
211,348	1,183	248,945	125,461
212,363	1,964	248,818	126,035
213,377	2,146	249,073	126,304
214,392	2,312	248,936	126,361
215,407	2,680	248,596	126,483
216,421	2,633	248,654	126,462
217,436	2,780	248,470	126,479
218,450	2,627	248,317	126,263
219,465	2,457	248,023	125,962
220,480	2,593	247,849	125,975
221,494	2,349	247,728	125,700
222,509	1,902	247,355	125,131
223,523	1,694	247,049	124,793
224,538	1,358	246,785	124,372
225,553	1,625	246,701	124,539
226,567	1,337	246,509	124,193
227,582	1,591	246,251	124,262
228,596	1,516	246,233	124,180
229,611	1,485	246,022	124,036
230,626	1,412	245,933	123,921
231,640	1,439	245,673	123,801
232,655	1,512	245,363	123,693
233,669	1,564	245,366	123,726
234,684	1,461	245,131	123,512
235,699	1,488	245,140	123,528
236,713	1,564	245,021	123,519
237,728	1,618	244,711	123,397
238,742	1,552	244,528	123,239
239,757	1,493	244,429	123,130
240,772	1,676	244,165	123,135
241,786	1,597	244,145	123,050
242,801	1,350	243,922	122,725
243,815	1,371	243,808	122,674
244,830	1,373	243,507	122,513
245,844	1,403	243,542	122,545
246,859	1,596	243,261	122,549
247,874	1,648	243,031	122,464
248,888	1,540	242,920	122,309
249,903	1,578	242,936	122,338
250,917	1,587	242,756	122,243
251,932	1,546	242,555	122,098
252,947	1,836	242,425	122,256
253,961	1,574	242,193	121,917
254,976	1,742	242,034	121,961
255,990	1,584	241,855	121,733
257,005	1,727	241,683	121,750
258,020	1,444	241,731	121,535
259,034	1,528	241,438	121,445
260,049	1,717	241,220	121,477
261,063	1,600	241,034	121,278
262,078	1,584	240,968	121,222
263,093	1,512	240,736	121,036
264,107	1,461	240,613	120,923
265,122	1,529	240,360	120,840
266,136	1,481	240,435	120,827
267,151	1,544	240,170	120,734
268,166	1,457	240,002	120,569
269,180	1,577	239,725	120,515
270,195	1,582	239,655	120,473
271,209	1,499	239,464	120,301
272,224	1,459	239,415	120,233
273,239	1,543	239,278	120,220
274,253	1,550	239,062	120,107
275,268	1,449	239,017	119,993
276,282	1,437	238,696	119,812
277,297	1,447	238,587	119,754
278,312	1,447	238,587	119,743
279,326	1,458	238,400	119,648
280,341	1,608	238,111	119,611
281,355	1,475	238,061	119,470
282,370	1,280	237,873	119,211
283,384	1,530	237,822	119,372
284,399	1,474	237,478	119,145
285,414	1,527	237,366	119,120
286,428	1,734	237,185	119,181
287,443	1,466	237,111	118,922
288,457	1,482	236,949	118,843
289,472	1,597	236,712	118,804
290,487	1,325	236,590	118,518
291,501	1,512	236,441	118,580
292,516	1,578	236,285	118,543
293,530	1,558	236,123	118,436
294,545	1,779	236,022	118,547
295,560	1,666	235,822	118,348
296,574	1,670	235,672	118,265
297,589	1,608	235,555	118,148
298,603	1,777	235,433	118,208
299,618	1,692	235,210	118,020
300,633	1,627	235,142	117,923
301,647	1,585	235,129	117,874
302,662	1,681	234,906	117,826
303,676	1,839	234,692	117,832
304,691	1,989	234,586	117,884
305,706	1,803	234,406	117,639
306,720	1,765	234,306	117,548
307,735	1,725	234,134	117,421
308,749	1,838	233,961	117,411
309,764	1,706	233,779	117,207
310,779	1,638	233,548	117,028
311,793	1,706	233,515	117,053
312,808	1,581	233,431	116,904
313,822	1,796	233,116	116,903
314,837	1,763	233,000	116,808
315,852	1,690	232,839	116,662
316,866	1,883	232,666	116,713
317,881	1,861	232,555	116,630
318,895	1,860	232,452	116,567
319,910	1,903	232,122	116,424
320,925	1,631	232,056	116,171
321,939	1,609	231,935	116,083
322,954	1,802	231,906	116,207
323,968	1,630	231,821	116,022
324,983	1,776	231,506	115,966
325,997	1,808	231,262	115,858
327,012	1,904	231,218	115,899
328,027	1,621	231,018	115,572
329,041	1,513	230,860	115,401
330,056	1,638	230,920	115,516
331,070	1,684	230,788	115,474
332,085	1,592	230,505	115,252
333,100	1,657	230,347	115,212
334,114	1,874	230,037	115,212
335,129	1,847	230,049	115,187
336,143	1,761	229,832	115,003
337,158	1,727	229,805	114,953
338,173	1,778	229,666	114,913
339,187	1,918	229,321	114,836
340,202	1,920	229,241	114,787
341,216	1,780	229,157	114,629
342,231	1,839	228,949	114,559
343,246	1,889	228,738	114,481
344,260	1,697	228,715	114,314
345,275	1,911	228,519	114,367
346,289	1,851	228,342	114,223
347,304	1,663	228,400	114,101
348,319	1,877	228,066	114,084
349,333	1,714	228,016	113,927
350,348	1,830	227,764	113,878
351,362	1,778	227,726	113,810
352,377	1,869	227,524	113,766
353,392	1,841	227,447	113,698
354,406	1,899	227,203	113,609
355,421	193,383	1312,720	1382,429
356,435	155,007	1444,867	1382,319
