DTS Sentinel unit serial number:	SN410029Multiplexer serial number:	ORYXHardware model number:	OX2-SRSoftware version number:	ORYX F/W v4,00 Oryx Data Collector v3.7.2.0data status	okinstallation	B5 Nyhavnadifferential loss correction	single-endedforward channel	channel 2reverse channel	N/Adate	2023/12/12time	12:02:13forward acquisition time	300,00reverse acquisition time	0,00gamma	499,1914k internal	0,3158k external	0,3158temperature offset calibration	1,0000default loss term (dB/km)	0,3820temperature slope calibration	1,0000multiplexer offset coefficient	1,0000multiplexer slope coefficient	1,0000fibre end	0,00T internal ref (°C)	15,17T ext. ref 1 (°C)	-0,84T ext. ref 2 (°C)	-1,08length (m)	temperature (°C)	Stokes	anti-Stokes-744,400	315,003	-0,033	0,046
-743,385	-164,748	-0,240	-0,008
-742,371	-200,000	0,025	0,096
-741,356	-54,290	-0,210	0,070
-740,342	-114,713	0,066	-0,009
-739,327	-127,714	-0,456	-0,048
-738,312	-180,625	-0,076	0,001
-737,298	-90,772	-0,184	-0,039
-736,283	-140,025	0,194	-0,015
-735,269	-101,562	-0,170	0,030
-734,254	-144,583	0,134	0,009
-733,239	-117,382	-0,497	-0,066
-732,225	39,834	0,095	0,063
-731,210	-200,000	-0,017	0,144
-730,196	424,189	0,021	0,033
-729,181	96,392	-0,079	-0,067
-728,167	-138,402	0,051	-0,004
-727,152	-96,829	-0,035	-0,007
-726,137	414,949	-0,043	0,067
-725,123	126,005	-0,074	-0,069
-724,108	11,144	-0,062	-0,035
-723,094	-60,611	-0,195	-0,061
-722,079	102,250	-0,137	-0,118
-721,064	270,633	0,079	-0,102
-720,050	-62,274	-0,094	-0,029
-719,035	-200,000	-0,008	0,030
-718,021	55,593	-0,106	-0,075
-717,006	23,370	-0,052	0,031
-715,991	350,310	-0,065	0,094
-714,977	-200,000	0,014	-0,105
-713,962	-114,237	0,055	0,008
-712,948	-200,000	0,015	0,093
-711,933	-50,621	0,054	-0,019
-710,918	800,000	-0,089	0,229
-709,904	-200,000	0,006	0,080
-708,889	8,447	0,090	-0,049
-707,875	-120,103	0,122	0,015
-706,860	-98,849	-0,048	-0,009
-705,845	-25,714	-0,233	0,101
-704,831	486,051	-0,062	-0,104
-703,816	137,587	0,159	0,154
-702,802	800,000	-0,040	0,097
-701,787	-87,984	-0,057	0,013
-700,772	-53,755	0,021	0,007
-699,758	178,871	0,062	-0,067
-698,743	233,669	0,038	-0,046
-697,729	-200,000	0,007	0,041
-696,714	-200,000	0,005	0,024
-695,699	87,836	0,095	-0,077
-694,685	800,000	-0,023	-0,069
-693,670	800,000	0,010	-0,026
-692,656	184,588	-0,082	0,090
-691,641	-140,226	-0,054	0,004
-690,627	428,531	-0,051	0,081
-689,612	-200,000	-0,017	0,067
-688,597	2,061	-0,125	-0,066
-687,583	-65,353	-0,085	-0,025
-686,568	800,000	-0,055	-0,136
-685,554	-139,396	-0,052	-0,004
-684,539	-10,812	-0,106	0,051
-683,524	289,999	0,035	0,047
-682,510	199,122	0,047	0,053
-681,495	73,853	-0,072	0,056
-680,481	221,061	-0,070	0,083
-679,466	321,883	-0,089	0,125
-678,451	293,492	0,123	-0,166
-677,437	131,286	-0,114	0,108
-676,422	125,554	-0,127	0,118
-675,408	647,843	0,028	0,052
-674,393	328,397	0,008	-0,011
-673,378	-99,388	-0,078	0,014
-672,364	191,757	-0,062	0,069
-671,349	154,201	-0,103	0,103
-670,335	-200,000	0,030	-0,111
-669,320	-164,544	0,077	0,003
-668,305	12,532	-0,090	-0,051
-667,291	-46,351	-0,090	0,032
-666,276	-200,000	0,056	-0,198
-665,262	4,498	-0,107	0,057
-664,247	47,472	0,085	-0,058
-663,232	-200,000	0,012	-0,108
-662,218	-200,000	-0,020	0,069
-661,203	71,743	-0,124	0,094
-660,189	-200,000	0,031	0,123
-659,174	35,055	0,069	-0,045
-658,159	268,426	-0,053	0,069
-657,145	800,000	-0,024	-0,063
-656,130	32,872	-0,058	-0,037
-655,116	800,000	-0,045	0,101
-654,101	-39,600	0,131	-0,050
-653,086	-53,186	-0,083	0,028
-652,072	-77,219	-0,123	0,031
-651,057	268,655	-0,120	-0,155
-650,043	-200,000	-0,019	-0,130
-649,028	69,958	-0,084	0,064
-648,014	800,000	-0,058	0,124
-646,999	-19,427	0,152	0,069
-645,984	273,002	0,045	0,058
-644,970	-200,000	0,004	-0,016
-643,955	271,449	-0,122	-0,158
-642,941	-200,000	0,010	-0,095
-641,926	51,620	0,098	0,069
-640,911	-156,158	0,061	-0,003
-639,897	126,672	0,049	0,046
-638,882	-200,000	0,010	-0,064
-637,868	800,000	-0,036	0,085
-636,853	-200,000	-0,003	-0,012
-635,838	800,000	0,032	-0,078
-634,824	-200,000	-0,010	0,103
-633,809	110,957	-0,044	0,039
-632,795	-111,124	-0,073	-0,011
-631,780	-149,602	-0,097	-0,006
-630,765	42,549	-0,056	0,037
-629,751	-200,000	0,035	-0,175
-628,736	162,605	-0,052	0,054
-627,722	-200,000	0,009	-0,079
-626,707	-125,743	0,156	0,017
-625,692	-200,000	0,057	-0,228
-624,678	-14,240	0,015	0,007
-623,663	651,886	0,026	0,049
-622,649	244,192	-0,122	-0,151
-621,634	-200,000	0,021	0,089
-620,619	361,221	0,026	-0,039
-619,605	166,652	-0,041	0,043
-618,590	285,144	-0,008	0,011
-617,576	524,876	-0,047	0,082
-616,561	-131,918	0,123	-0,012
-615,546	104,680	-0,065	-0,057
-614,532	408,494	0,012	0,019
-613,517	-147,091	-0,116	0,007
-612,503	-50,261	-0,058	0,020
-611,488	389,211	0,079	0,121
-610,474	-74,646	0,106	0,028
-609,459	82,470	-0,122	0,097
-608,444	13,071	-0,049	-0,028
-607,430	34,733	-0,050	-0,032
-606,415	800,000	-0,036	0,106
-605,401	-200,000	0,004	-0,073
-604,386	732,353	0,038	-0,075
-603,371	-155,690	0,013	-0,001
-602,357	-200,000	-0,007	-0,139
-601,342	-126,902	-0,052	-0,006
-600,328	136,319	-0,089	-0,085
-599,313	135,715	0,076	0,072
-598,298	-146,775	-0,117	0,007
-597,284	-125,638	0,012	0,001
-596,269	800,000	-0,007	-0,015
-595,255	-102,635	0,010	-0,002
-594,240	-23,616	0,100	0,044
-593,225	-85,865	-0,118	-0,027
-592,211	363,720	-0,070	-0,104
-591,196	447,517	0,035	-0,057
-590,182	23,791	0,126	-0,076
-589,167	-200,000	-0,013	-0,077
-588,152	-39,401	0,018	-0,007
-587,138	-200,000	-0,018	-0,156
-586,123	422,203	-0,081	-0,128
-585,109	736,834	-0,065	-0,128
-584,094	-200,000	0,028	-0,158
-583,079	-200,000	-0,028	0,094
-582,065	153,732	0,091	0,091
-581,050	-0,054	-0,017	0,009
-580,036	-37,539	0,059	-0,023
-579,021	-50,986	-0,158	-0,054
-578,006	-200,000	-0,004	-0,150
-576,992	-92,499	-0,057	-0,012
-575,977	-200,000	0,036	-0,116
-574,963	208,065	0,169	-0,193
-573,948	126,559	0,010	-0,009
-572,934	28,471	-0,074	-0,046
-571,919	-200,000	-0,006	-0,058
-570,904	800,000	-0,019	-0,045
-569,890	800,000	0,022	-0,056
-568,875	336,580	0,099	-0,141
-567,861	187,784	-0,148	-0,161
-566,846	308,635	0,080	-0,110
-565,831	165,022	0,094	-0,097
-564,817	37,172	0,073	0,047
-563,802	800,000	-0,081	-0,175
-562,788	-200,000	-0,001	-0,162
-561,773	-200,000	-0,026	-0,096
-560,758	-200,000	-0,032	-0,123
-559,744	800,000	0,035	-0,076
-558,729	-200,000	0,005	0,090
-557,715	88,776	0,034	0,028
-556,700	-200,000	0,011	0,056
-555,685	-200,000	-0,008	-0,057
-554,671	-200,000	-0,024	0,085
-553,656	-200,000	-0,026	-0,104
-552,642	25,995	0,052	-0,032
-551,627	-200,000	0,006	-0,045
-550,612	800,000	-0,045	-0,092
-549,598	41,060	-0,046	0,030
-548,583	96,825	0,068	0,057
-547,569	206,601	-0,064	-0,073
-546,554	-139,283	0,226	-0,018
-545,539	-56,917	-0,180	0,058
-544,525	-200,000	-0,000	0,210
-543,510	335,101	-0,054	-0,077
-542,496	-200,000	-0,009	-0,093
-541,481	-82,510	-0,092	-0,022
-540,466	8,642	0,149	0,082
-539,452	-67,827	0,064	-0,018
-538,437	-52,974	-0,026	0,009
-537,423	800,000	0,033	-0,101
-536,408	-200,000	0,007	-0,043
-535,393	-200,000	-0,031	0,106
-534,379	555,544	-0,043	0,076
-533,364	245,511	0,039	0,048
-532,350	-200,000	0,002	-0,009
-531,335	13,376	-0,115	-0,065
-530,321	-200,000	-0,028	-0,226
-529,306	76,414	0,072	0,056
-528,291	800,000	-0,077	-0,166
-527,277	350,036	0,039	-0,057
-526,262	-11,286	-0,036	0,017
-525,248	-200,000	0,007	-0,028
-524,233	41,997	-0,009	-0,006
-523,218	-30,692	-0,074	-0,031
-522,204	-54,066	0,034	0,011
-521,189	445,793	0,010	0,016
-520,175	-45,450	-0,085	0,031
-519,160	-200,000	0,011	0,057
-518,145	-200,000	0,001	-0,048
-517,131	-86,215	0,095	0,021
-516,116	-16,440	-0,125	-0,057
-515,102	800,000	-0,044	0,128
-514,087	160,258	-0,037	0,038
-513,072	800,000	0,031	-0,083
-512,058	-93,223	-0,132	-0,027
-511,043	-200,000	-0,004	-0,051
-510,029	800,000	0,044	0,101
-509,014	-176,169	0,163	0,003
-507,999	289,698	0,027	-0,036
-506,985	-200,000	-0,006	-0,040
-505,970	-200,000	0,011	-0,068
-504,956	-102,578	-0,072	0,012
-503,941	260,589	0,046	0,059
-502,926	-75,155	-0,098	-0,025
-501,912	330,141	0,038	0,054
-500,897	-200,000	0,021	-0,091
-499,883	31,961	-0,094	-0,059
-498,868	409,102	-0,058	-0,090
-497,853	-200,000	-0,012	-0,109
-496,839	-200,000	0,026	-0,085
-495,824	-200,000	0,010	0,075
-494,810	-200,000	0,020	0,067
-493,795	-103,618	0,033	-0,006
-492,781	-163,503	0,037	-0,001
-491,766	41,451	-0,044	0,029
-490,751	-200,000	0,004	-0,046
-489,737	-200,000	-0,015	0,087
-488,722	-155,832	-0,056	-0,003
-487,708	357,134	0,052	0,076
-486,693	800,000	-0,065	0,158
-485,678	800,000	0,063	-0,181
-484,664	-200,000	0,020	-0,091
-483,649	565,496	0,060	-0,106
-482,635	-114,069	0,093	-0,013
-481,620	-80,015	-0,045	0,011
-480,605	16,604	-0,098	0,056
-479,591	-200,000	-0,013	-0,172
-478,576	-119,074	-0,067	-0,008
-477,562	150,635	0,090	0,089
-476,547	284,110	-0,075	-0,099
-475,532	41,270	-0,166	-0,109
-474,518	144,414	-0,050	-0,049
-473,503	738,046	0,060	0,118
-472,489	-13,553	0,130	-0,061
-471,474	-79,331	-0,053	0,013
-470,459	-200,000	0,021	0,162
-469,445	800,000	-0,023	-0,069
-468,430	-161,861	0,035	-0,001
-467,416	199,836	0,037	-0,041
-466,401	181,717	0,142	0,152
-465,386	205,549	0,130	0,147
-464,372	21,617	-0,018	0,011
-463,357	174,202	-0,053	0,056
-462,343	47,895	0,065	-0,044
-461,328	107,926	-0,065	-0,057
-460,313	-20,230	0,072	0,032
-459,299	190,167	-0,072	-0,079
-458,284	220,115	-0,020	0,023
-457,270	171,089	0,098	0,103
-456,255	-76,801	-0,093	-0,024
-455,241	-187,557	-0,166	0,002
-454,226	-40,185	-0,087	-0,033
-453,211	800,000	-0,023	0,050
-452,197	404,939	0,044	-0,068
-451,182	-17,457	0,008	-0,004
-450,168	-200,000	0,014	0,176
-449,153	-200,000	0,013	0,045
-448,138	33,490	-0,074	-0,047
-447,124	13,518	0,166	0,094
-446,109	800,000	0,026	0,066
-445,095	800,000	-0,019	0,055
-444,080	-89,410	-0,086	0,018
-443,065	108,946	0,050	0,044
-442,051	9,046	0,008	0,004
-441,036	-200,000	0,007	-0,072
-440,022	-10,160	-0,114	-0,055
-439,007	-200,000	-0,014	-0,078
-437,992	230,225	-0,123	0,147
-436,978	581,541	0,105	0,187
-435,963	465,793	-0,072	-0,118
-434,949	445,552	-0,013	-0,020
-433,934	582,259	-0,046	0,083
-432,919	-24,865	-0,071	0,031
-431,905	-200,000	-0,009	0,102
-430,890	-200,000	0,017	-0,089
-429,876	-153,117	0,046	0,002
-428,861	-78,177	-0,104	-0,026
-427,846	-33,125	0,081	0,032
-426,832	377,060	-0,061	0,092
-425,817	-54,831	-0,078	0,026
-424,803	10,605	0,072	0,040
-423,788	69,162	0,048	-0,036
-422,773	61,353	0,078	-0,057
-421,759	-57,334	0,077	0,024
-420,744	-200,000	-0,015	0,056
-419,730	-200,000	0,016	-0,122
-418,715	-200,000	0,006	-0,059
-417,701	-49,517	-0,114	0,039
-416,686	-200,000	0,007	0,094
-415,671	47,825	0,152	-0,103
-414,657	382,485	-0,061	0,092
-413,642	-6,117	-0,107	0,053
-412,628	7,371	-0,043	-0,023
-411,613	125,367	0,068	-0,063
-410,598	800,000	-0,047	-0,147
-409,584	800,000	-0,050	-0,120
-408,569	347,161	-0,024	-0,035
-407,555	-100,807	-0,140	0,025
-406,540	-148,145	0,140	0,008
-405,525	-141,988	0,094	0,007
-404,511	426,674	-0,057	0,089
-403,496	-58,965	0,049	0,015
-402,482	-148,662	0,166	0,010
-401,467	-200,000	0,004	0,045
-400,452	-122,627	0,055	-0,006
-399,438	-21,820	0,067	0,030
-398,423	-29,905	-0,117	-0,048
-397,409	20,208	0,082	-0,048
-396,394	160,361	-0,048	-0,048
-395,379	282,589	-0,055	-0,072
-394,365	-200,000	0,004	0,077
-393,350	603,811	-0,076	0,138
-392,336	-200,000	-0,002	-0,101
-391,321	-200,000	0,015	-0,158
-390,306	-83,921	0,026	-0,006
-389,292	-200,000	-0,010	-0,090
-388,277	36,655	-0,092	0,059
-387,263	-23,376	-0,069	0,030
-386,248	524,179	0,021	0,037
-385,233	33,714	0,040	-0,025
-384,219	-87,018	-0,067	-0,015
-383,204	-13,365	0,086	0,040
-382,190	241,046	-0,056	-0,069
-381,175	45,332	-0,014	0,009
-380,160	-200,000	0,008	0,184
-379,146	-65,557	0,138	0,040
-378,131	61,614	-0,104	0,075
-377,117	-9,575	0,091	0,044
-376,102	800,000	0,020	-0,056
-375,088	122,756	-0,044	0,040
-374,073	-1,114	0,057	-0,029
-373,058	-73,997	-0,110	-0,029
-372,044	-175,120	0,211	-0,004
-371,029	-200,000	-0,009	0,102
-370,015	65,875	-0,120	-0,088
-369,000	57,242	0,061	-0,043
-367,985	112,660	0,065	-0,057
-366,971	-200,000	0,011	0,067
-365,956	-200,000	-0,024	0,085
-364,942	370,315	0,039	0,057
-363,927	-161,123	0,170	-0,006
-362,912	575,489	-0,029	0,051
-361,898	800,000	0,069	-0,161
-360,883	-200,000	0,038	-0,152
-359,869	197,714	-0,078	-0,086
-358,854	-51,452	0,084	0,028
-357,839	-78,588	0,062	0,015
-356,825	-200,000	0,013	0,098
-355,810	-64,260	0,034	-0,010
-354,796	800,000	-0,026	-0,056
-353,781	-72,036	-0,112	0,030
-352,766	15,577	0,048	0,027
-351,752	687,269	-0,026	0,050
-350,737	-108,532	-0,132	0,020
-349,723	118,045	-0,070	0,063
-348,708	800,000	-0,146	0,308
-347,693	24,702	-0,047	0,028
-346,679	-95,559	-0,224	0,043
-345,664	756,467	-0,024	0,048
-344,650	-200,000	-0,007	0,122
-343,635	235,576	0,058	0,070
-342,620	800,000	0,057	0,178
-341,606	148,786	-0,066	0,064
-340,591	27,161	-0,124	0,076
-339,577	149,264	-0,083	0,081
-338,562	-200,000	0,007	-0,034
-337,548	800,000	-0,036	-0,104
-336,533	-104,166	0,081	-0,014
-335,518	800,000	-0,012	0,036
-334,504	-97,033	0,188	0,035
-333,489	101,217	0,119	-0,101
-332,475	9,502	-0,047	0,026
-331,460	715,549	0,028	-0,053
-330,445	-200,000	-0,007	0,044
-329,431	187,384	0,090	-0,097
-328,416	368,208	-0,031	0,045
-327,402	628,901	0,107	-0,197
-326,387	27,102	-0,015	-0,009
-325,372	115,157	-0,120	-0,106
-324,358	704,241	0,038	-0,072
-323,343	-108,218	0,051	-0,008
-322,329	80,964	0,170	0,133
-321,314	254,201	-0,068	-0,084
-320,299	-77,487	0,150	-0,037
-319,285	-200,000	-0,011	0,152
-318,270	-94,230	0,046	-0,009
-317,256	-77,529	0,076	-0,019
-316,241	-200,000	-0,007	0,043
-315,226	393,706	0,047	0,071
-314,212	137,795	0,095	-0,090
-313,197	-33,105	-0,121	0,049
-312,183	-50,442	0,023	-0,008
-311,168	12,259	0,038	0,021
-310,153	618,742	-0,012	-0,022
-309,139	-200,000	-0,030	0,109
-308,124	-91,135	-0,043	0,009
-307,110	-200,000	-0,011	0,085
-306,095	-200,000	0,013	0,052
-305,080	114,395	-0,053	0,046
-304,066	-200,000	0,002	0,056
-303,051	-200,000	0,030	-0,129
-302,037	-200,000	-0,003	0,013
-301,022	209,088	0,022	0,025
-300,008	408,519	0,051	0,079
-298,993	-6,567	0,100	0,049
-297,978	-110,457	0,027	-0,004
-296,964	240,815	-0,100	0,121
-295,949	800,000	0,011	-0,030
-294,935	-86,127	0,053	-0,012
-293,920	736,271	-0,056	0,109
-292,905	-200,000	0,019	-0,109
-291,891	800,000	-0,033	0,083
-290,876	-151,481	0,093	-0,005
-289,862	656,216	0,060	0,112
-288,847	-200,000	-0,001	0,147
-287,832	800,000	0,006	0,020
-286,818	114,844	-0,069	-0,061
-285,803	145,727	0,031	0,030
-284,789	20,645	-0,074	0,043
-283,774	800,000	0,035	-0,091
-282,759	800,000	-0,014	0,030
-281,745	800,000	-0,046	-0,095
-280,730	611,895	0,046	-0,084
-279,716	616,938	0,018	0,032
-278,701	-200,000	-0,001	0,096
-277,686	-58,861	0,174	0,054
-276,672	-200,000	-0,002	0,035
-275,657	-200,000	0,021	0,092
-274,643	-2,842	-0,015	-0,008
-273,628	-200,000	0,007	-0,048
-272,613	-151,398	-0,079	0,004
-271,599	-200,000	0,024	-0,087
-270,584	-200,000	0,006	0,045
-269,570	114,010	0,140	0,123
-268,555	-50,971	-0,047	0,016
-267,540	-54,571	-0,039	0,013
-266,526	-84,693	-0,087	0,020
-265,511	-83,572	-0,028	0,006
-264,497	-66,509	0,098	0,028
-263,482	-200,000	-0,006	0,068
-262,467	93,529	0,101	0,083
-261,453	243,894	-0,072	0,088
-260,438	11,119	-0,059	0,032
-259,424	609,725	-0,052	-0,094
-258,409	-200,000	0,025	-0,094
-257,395	180,358	0,009	-0,009
-256,380	39,476	0,182	0,117
-255,365	-55,564	0,142	-0,046
-254,351	-200,000	0,004	-0,043
-253,336	-58,560	-0,080	-0,025
-252,322	800,000	0,029	-0,075
-251,307	112,918	-0,074	-0,065
-250,292	-200,000	-0,014	0,067
-249,278	-124,128	0,097	-0,011
-248,263	33,152	0,099	0,062
-247,249	82,316	-0,023	0,018
-246,234	44,758	-0,028	-0,019
-245,219	-23,881	0,054	-0,023
-244,205	294,099	0,099	-0,131
-243,190	-200,000	-0,032	0,118
-242,176	60,721	0,040	0,028
-241,161	-200,000	0,009	-0,054
-240,146	800,000	-0,066	0,140
-239,132	-200,000	-0,012	-0,055
-238,117	190,029	-0,131	0,143
-237,103	165,040	-0,014	0,015
-236,088	-200,000	-0,004	0,022
-235,073	-200,000	0,004	-0,029
-234,059	74,801	0,076	0,058
-233,044	800,000	-0,017	-0,039
-232,030	74,391	0,054	0,041
-231,015	-10,721	-0,070	-0,034
-230,000	16,819	-0,033	0,019
-228,986	-200,000	0,006	0,048
-227,971	3,633	0,087	0,046
-226,957	16,808	0,092	0,053
-225,942	-200,000	-0,008	0,074
-224,927	-61,119	-0,102	-0,031
-223,913	-200,000	-0,022	0,153
-222,898	22,107	0,086	-0,050
-221,884	-26,671	0,076	0,032
-220,869	800,000	-0,063	0,133
-219,855	312,373	0,041	0,055
-218,840	-200,000	0,014	0,059
-217,825	281,442	-0,044	-0,057
-216,811	35,025	-0,077	-0,049
-215,796	-200,000	0,009	-0,113
-214,782	190,426	-0,115	-0,125
-213,767	42,860	0,037	-0,025
-212,752	-200,000	0,021	0,076
-211,738	-200,000	0,001	0,014
-210,723	-200,000	-0,012	-0,165
-209,709	203,252	0,089	-0,099
-208,694	132,297	-0,154	0,144
-207,679	-200,000	-0,021	-0,178
-206,665	-77,609	-0,046	0,011
-205,650	800,000	-0,028	0,079
-204,636	175,482	-0,019	-0,020
-203,621	-17,492	-0,012	0,005
-202,606	-115,933	-0,043	0,006
-201,592	241,279	-0,088	-0,106
-200,577	-200,000	0,029	0,125
-199,563	-47,501	0,106	0,037
-198,548	-21,694	0,087	-0,038
-197,533	98,898	-0,094	0,079
-196,519	-62,861	0,115	0,034
-195,504	-200,000	-0,001	-0,061
-194,490	259,095	-0,072	-0,089
-193,475	-94,609	-0,108	-0,021
-192,460	-117,269	-0,074	-0,010
-191,446	-200,000	0,002	-0,044
-190,431	-200,000	-0,010	0,124
-189,417	800,000	-0,055	0,172
-188,402	-43,557	0,198	0,072
-187,387	800,000	-0,007	-0,024
-186,373	211,912	-0,145	0,165
-185,358	358,823	-0,027	-0,039
-184,344	-200,000	0,001	-0,085
-183,329	800,000	0,105	0,276
-182,315	423,851	0,093	0,144
-181,300	-200,000	0,004	-0,077
-180,285	16,152	-0,088	-0,050
-179,271	-200,000	0,013	-0,099
-178,256	-44,671	-0,047	0,017
-177,242	800,000	0,069	0,172
-176,227	-47,400	-0,134	0,047
-175,212	208,844	0,056	0,063
-174,198	68,974	0,099	-0,073
-173,183	-96,761	-0,201	-0,038
-172,169	-1,546	0,072	-0,037
-171,154	433,022	0,046	0,072
-170,139	4,287	-0,032	-0,017
-169,125	-1,640	-0,063	-0,032
-168,110	-149,754	-0,061	0,003
-167,096	485,237	0,078	-0,128
-166,081	315,054	0,031	0,043
-165,066	46,614	-0,081	-0,054
-164,052	632,938	0,046	0,084
-163,037	1,055	0,056	0,029
-162,023	800,000	0,046	-0,113
-161,008	756,583	0,042	0,083
-159,993	301,071	-0,083	0,111
-158,979	-32,547	-0,105	-0,042
-157,964	-49,762	0,063	-0,021
-156,950	12,171	0,029	-0,016
-155,935	262,662	-0,030	-0,037
-154,920	32,572	0,098	-0,061
-153,906	286,958	0,053	0,069
-152,891	124,988	0,043	0,039
-151,877	-200,000	0,023	0,119
-150,862	52,916	-0,093	-0,064
-149,847	-200,000	-0,016	-0,054
-148,833	-108,635	-0,053	0,008
-147,818	479,419	0,055	0,090
-146,804	-200,000	0,050	0,193
-145,789	31,297	0,109	-0,067
-144,775	-200,000	-0,017	-0,078
-143,760	-126,229	-0,074	0,008
-142,745	157,305	0,062	0,062
-141,731	21,265	-0,086	0,050
-140,716	347,956	-0,047	-0,066
-139,702	800,000	0,027	0,074
-138,687	300,726	-0,037	0,049
-137,672	119,187	0,103	-0,092
-136,658	254,742	0,023	0,029
-135,643	-200,000	-0,014	0,091
-134,629	-23,234	0,075	0,032
-133,614	-200,000	-0,004	0,029
-132,599	78,934	0,070	0,054
-131,585	800,000	-0,026	-0,062
-130,570	-123,073	0,109	-0,012
-129,556	-55,889	-0,017	0,005
-128,541	-52,576	-0,173	-0,057
-127,526	419,885	-0,043	-0,067
-126,512	-82,170	-0,100	0,023
-125,497	800,000	0,035	0,081
-124,483	417,766	0,070	-0,108
-123,468	-200,000	-0,033	0,145
-122,453	800,000	0,026	-0,059
-121,439	-67,833	0,080	-0,022
-120,424	-101,836	-0,142	-0,024
-119,410	-22,728	-0,044	0,019
-118,395	401,539	0,063	0,096
-117,380	800,000	-0,046	0,118
-116,366	133,706	0,012	-0,011
-115,351	-200,000	-0,046	0,150
-114,337	800,000	0,046	-0,098
-113,322	133,220	0,039	0,036
-112,307	-75,763	0,083	0,021
-111,293	25,866	0,068	0,041
-110,278	-51,451	-0,029	-0,010
-109,264	33,948	0,050	-0,031
-108,249	14,612	0,106	0,060
-107,234	-24,126	-0,031	-0,013
-106,220	-200,000	-0,016	0,070
-105,205	211,277	0,046	0,052
-104,191	800,000	0,125	0,266
-103,176	-200,000	-0,001	0,148
-102,162	72,107	0,070	-0,052
-101,147	39,054	-0,100	-0,064
-100,132	800,000	0,097	-0,207
-99,118	-200,000	-0,008	0,064
-98,103	-200,000	0,002	0,069
-97,089	-111,700	0,167	0,024
-96,074	-20,873	0,042	-0,018
-95,059	-200,000	-0,043	-0,181
-94,045	-85,890	-0,036	0,008
-93,030	-49,529	0,053	-0,018
-92,016	348,064	0,048	-0,068
-91,001	273,749	-0,101	-0,128
-89,986	173,898	0,034	-0,035
-88,972	800,000	-0,049	0,144
-87,957	-66,059	-0,131	0,037
-86,943	134,111	0,022	0,021
-85,928	36,904	0,042	-0,027
-84,913	684,982	-0,087	0,164
-83,899	195,023	0,040	-0,044
-82,884	-50,000	0,137	0,047
-81,870	-156,846	-0,064	0,003
-80,855	83,130	0,073	-0,057
-79,840	-200,000	-0,018	0,064
-78,826	686,641	0,017	0,031
-77,811	331,941	-0,065	0,090
-76,797	648,766	0,048	-0,089
-75,782	-68,080	-0,027	0,008
-74,767	-73,343	0,078	0,020
-73,753	-86,566	0,150	0,033
-72,738	-122,227	-0,105	0,012
-71,724	189,079	0,078	-0,084
-70,709	-54,315	-0,159	-0,051
-69,694	-102,536	0,049	0,008
-68,680	-8,358	-0,143	0,069
-67,665	186,361	0,124	-0,133
-66,651	-139,785	0,084	-0,006
-65,636	200,623	-0,044	0,049
-64,622	-200,000	0,024	0,096
-63,607	-102,612	-0,129	-0,022
-62,592	-200,000	0,037	-0,194
-61,578	-200,000	-0,007	0,069
-60,563	-73,784	0,121	0,031
-59,549	-62,638	-0,086	0,025
-58,534	1,963	-1,942	-1,003
-57,519	-200,000	-0,196	-0,728
-56,505	-200,000	-1,238	-4,987
-55,490	67,562	0,730	0,534
-54,476	800,000	5,203	12,089
-53,461	-200,000	17,624	284,371
-52,446	800,000	727,853	2218,482
-51,432	535,993	1643,818	2810,066
-50,417	109,955	1634,209	1406,674
-49,403	75,911	1286,313	975,044
-48,388	32,017	1027,309	633,908
-47,373	20,111	989,206	571,155
-46,359	18,406	976,904	558,441
-45,344	15,508	972,826	546,612
-44,330	15,720	971,616	546,605
-43,315	15,227	969,644	543,864
-42,300	15,171	968,508	543,023
-41,286	15,138	967,586	542,375
-40,271	15,157	966,583	541,856
-39,257	15,175	965,487	541,276
-38,242	15,209	964,778	540,968
-37,227	15,252	963,849	540,566
-36,213	15,183	963,144	539,926
-35,198	15,159	962,274	539,339
-34,184	15,240	961,408	539,094
-33,169	15,164	960,457	538,294
-32,154	15,228	959,502	537,945
-31,140	15,138	958,761	537,215
-30,125	15,249	957,873	537,054
-29,111	15,289	956,972	536,656
-28,096	15,263	956,395	536,230
-27,082	15,233	955,876	535,821
-26,067	15,242	954,978	535,324
-25,052	15,231	954,272	534,871
-24,038	15,163	953,669	534,295
-23,023	15,110	953,111	533,789
-22,009	15,201	952,458	533,697
-20,994	15,208	951,731	533,290
-19,979	15,206	951,087	532,902
-18,965	15,190	950,450	532,471
-17,950	15,248	949,661	532,193
-16,936	15,186	949,156	531,691
-15,921	15,140	948,538	531,177
-14,906	15,149	947,715	530,725
-13,892	15,113	947,100	530,246
-12,877	15,103	946,415	529,808
-11,863	15,008	945,896	529,195
-10,848	15,057	945,417	529,060
-9,833	15,198	944,771	529,127
-8,819	15,221	944,041	528,769
-7,804	15,127	943,601	528,203
-6,790	15,123	943,075	527,877
-5,775	15,090	942,536	527,448
-4,760	15,093	941,934	527,099
-3,746	15,121	941,197	526,757
-2,731	14,957	940,319	525,726
-1,717	14,954	939,758	525,381
-0,702	14,961	939,118	525,023
0,313	14,775	938,413	524,834
1,327	18,098	936,356	534,099
2,342	27,295	793,672	477,057
3,356	24,357	458,556	271,117
4,371	-3,011	314,072	156,649
5,386	-6,956	295,762	143,519
6,400	-8,903	289,787	138,678
7,415	-9,378	287,347	137,030
8,429	-9,749	285,895	135,963
9,444	-9,899	284,923	135,342
10,459	-9,770	284,305	135,163
11,473	-9,746	283,666	134,870
12,488	-9,596	283,050	134,710
13,502	-9,860	282,792	134,320
14,517	-9,819	282,168	134,051
15,531	-9,777	281,758	133,885
16,546	-9,903	281,417	133,590
17,561	-9,895	280,887	133,334
18,575	-9,890	280,714	133,245
19,590	-9,842	280,021	132,950
20,604	-9,819	279,888	132,897
21,619	-9,930	279,505	132,597
22,634	-9,862	279,291	132,549
23,648	-10,147	279,002	132,128
24,663	-9,903	278,780	132,244
25,677	-9,881	278,379	132,062
26,692	-9,865	278,188	131,975
27,707	-9,903	277,877	131,780
28,721	-9,933	277,423	131,525
29,736	-10,115	277,304	131,284
30,750	-10,045	277,005	131,197
31,765	-9,975	276,819	131,163
32,780	-9,825	276,539	131,160
33,794	-10,125	276,325	130,765
34,809	-9,976	276,086	130,780
35,823	-10,195	275,887	130,468
36,838	-10,071	275,462	130,372
37,853	-10,045	275,434	130,372
38,867	-10,063	275,044	130,159
39,882	-10,084	274,918	130,068
40,896	-9,965	274,532	129,984
41,911	-10,167	274,344	129,695
42,926	-9,968	273,997	129,705
43,940	-9,890	273,804	129,675
44,955	-10,048	273,586	129,413
45,969	-10,157	273,407	129,215
46,984	-10,195	273,019	128,985
47,999	-10,504	272,857	128,609
49,013	-10,475	272,496	128,455
50,028	-10,570	272,190	128,211
51,042	-10,690	271,989	127,993
52,057	-10,877	271,863	127,750
53,071	-10,782	271,546	127,677
54,086	-10,606	271,446	127,782
55,101	-10,416	271,286	127,870
56,115	-10,405	271,324	127,887
57,130	-9,822	270,867	128,199
58,144	-9,830	270,750	128,125
59,159	-9,919	270,507	127,915
60,174	-9,890	270,356	127,860
61,188	-9,769	270,216	127,894
62,203	-9,765	269,879	127,726
63,217	-9,825	269,668	127,560
64,232	-9,913	269,526	127,400
65,247	-9,740	269,187	127,388
66,261	-9,687	268,991	127,332
67,276	-10,018	268,721	126,890
68,290	-10,507	268,550	126,350
69,305	-10,090	268,284	126,596
70,320	-10,175	268,020	126,382
71,334	-10,012	267,937	126,479
72,349	-9,791	267,628	126,524
73,363	-9,656	267,359	126,509
74,378	-9,636	267,214	126,446
75,393	-9,750	267,137	126,296
76,407	-9,943	266,766	125,934
77,422	-9,909	266,634	125,891
78,436	-9,987	266,459	125,726
79,451	-9,820	266,120	125,706
80,466	-9,894	265,895	125,522
81,480	-10,024	265,568	125,239
82,495	-9,919	265,415	125,250
83,509	-9,902	265,313	125,206
84,524	-10,056	264,868	124,847
85,539	-10,092	264,702	124,725
86,553	-10,250	264,585	124,517
87,568	-10,072	264,318	124,539
88,582	-10,144	264,263	124,438
89,597	-9,943	263,918	124,445
90,611	-10,047	264,048	124,401
91,626	-9,620	263,681	124,600
92,641	-9,754	263,421	124,347
93,655	-10,007	263,335	124,068
94,670	-9,895	263,092	124,043
95,684	-9,974	262,912	123,876
96,699	-9,951	262,706	123,789
97,714	-10,009	262,460	123,610
98,728	-10,180	262,203	123,326
99,743	-10,227	262,010	123,182
100,757	-10,075	261,719	123,170
101,772	-10,099	261,695	123,126
102,787	-10,019	261,316	123,008
103,801	-10,204	261,196	122,776
104,816	-9,890	261,005	122,954
105,830	-9,655	260,929	123,114
106,845	-9,805	260,818	122,918
107,860	-10,037	260,608	122,603
108,874	-9,853	260,326	122,622
109,889	-9,685	260,154	122,679
110,903	-9,908	259,889	122,347
111,918	-10,021	259,768	122,179
112,933	-9,838	259,425	122,168
113,947	-9,815	259,226	122,084
114,962	-9,858	259,270	122,055
115,976	-9,788	258,974	121,966
116,991	-9,832	258,823	121,846
118,006	-9,772	258,545	121,757
119,020	-9,843	258,486	121,656
120,035	-9,866	258,279	121,528
121,049	-9,903	258,245	121,468
122,064	-9,624	257,929	121,552
123,079	-9,853	257,751	121,258
124,093	-9,889	257,502	121,099
125,108	-9,991	257,177	120,846
126,122	-10,122	257,020	120,648
127,137	-10,182	256,776	120,470
128,151	-10,180	256,566	120,363
129,166	-10,114	256,519	120,387
130,181	-10,009	256,103	120,273
131,195	-10,159	256,019	120,092
132,210	-9,914	255,881	120,229
133,224	-9,845	255,866	120,271
134,239	-9,799	255,577	120,164
135,254	-9,691	255,415	120,170
136,268	-10,098	255,172	119,694
137,283	-9,970	254,889	119,661
138,297	-10,204	254,694	119,357
139,312	-10,215	254,396	119,197
140,327	-9,892	254,299	119,419
141,341	-9,721	254,231	119,524
142,356	-9,714	254,110	119,462
143,370	-9,652	253,920	119,415
144,385	-9,493	253,738	119,455
145,400	-9,799	253,563	119,100
146,414	-9,504	253,281	119,210
147,429	-9,386	253,206	119,265
148,443	-9,884	253,248	118,848
149,458	-9,514	252,864	118,973
150,473	-9,371	252,674	118,995
151,487	-9,678	252,572	118,674
152,502	-9,691	252,285	118,518
153,516	-9,717	252,203	118,447
154,531	-9,485	251,862	118,474
155,546	-9,566	251,811	118,370
156,560	-9,593	251,587	118,231
157,575	-9,516	251,231	118,119
158,589	-9,693	251,264	117,974
159,604	-9,427	250,803	117,972
160,619	-9,600	250,732	117,781
161,633	-9,922	250,577	117,425
162,648	-9,734	250,540	117,557
163,662	-9,607	250,496	117,633
164,677	-9,369	250,199	117,684
165,692	-9,545	250,051	117,455
166,706	-9,511	249,960	117,430
167,721	-9,771	249,776	117,115
168,735	-9,624	249,623	117,157
169,750	-9,552	249,277	117,044
170,764	-9,556	249,306	117,044
171,779	-9,536	249,003	116,908
172,794	-9,463	248,808	116,868
173,808	-9,540	248,673	116,728
174,823	-10,078	248,300	116,093
175,837	-10,063	248,196	116,047
176,852	-9,628	248,000	116,308
177,867	-9,612	248,088	116,353
178,881	-9,612	247,944	116,275
179,896	-9,547	247,629	116,171
180,910	-9,562	247,501	116,088
181,925	-9,484	247,374	116,082
182,940	-9,537	247,146	115,921
183,954	-9,687	247,022	115,728
184,969	-9,698	246,917	115,659
185,983	-9,451	246,634	115,722
186,998	-9,500	246,497	115,607
188,013	-9,437	246,272	115,543
189,027	-9,498	246,248	115,471
190,042	-9,501	245,964	115,325
191,056	-9,368	245,803	115,349
192,071	-9,612	245,637	115,059
193,086	-9,495	245,511	115,087
194,100	-9,432	245,502	115,124
195,115	-9,251	244,954	115,007
196,129	-9,577	244,814	114,661
197,144	-9,554	244,714	114,624
198,159	-9,522	244,601	114,587
199,173	-9,407	244,357	114,557
200,188	-9,519	244,257	114,407
201,202	-9,735	244,009	114,104
202,217	-9,802	243,643	113,867
203,232	-10,125	243,391	113,476
204,246	-9,710	243,523	113,867
205,261	-8,865	243,330	114,458
206,275	-9,435	243,356	113,993
207,290	-5,070	244,932	118,312
208,304	1,073	246,839	124,301
209,319	3,533	247,509	126,661
210,334	4,007	247,338	126,953
211,348	4,146	247,453	127,116
212,363	4,522	247,252	127,311
213,377	4,505	247,188	127,252
214,392	4,419	246,927	127,036
215,407	4,325	246,665	126,813
216,421	4,348	246,488	126,729
217,436	4,518	246,472	126,849
218,450	4,692	246,325	126,905
219,465	4,304	246,140	126,480
220,480	3,988	245,949	126,112
221,494	4,091	245,715	126,065
222,509	4,031	245,657	125,975
223,523	4,007	245,355	125,789
224,538	3,686	245,046	125,358
225,553	3,865	244,948	125,442
226,567	3,857	244,843	125,371
227,582	4,041	244,697	125,435
228,596	4,095	244,546	125,390
229,611	3,670	244,410	124,963
230,626	3,623	243,980	124,694
231,640	3,791	243,994	124,827
232,655	3,882	243,787	124,784
233,669	3,619	243,842	124,587
234,684	3,612	243,550	124,421
235,699	4,189	243,430	124,816
236,713	4,272	243,194	124,751
237,728	3,740	243,040	124,231
238,742	3,692	242,806	124,061
239,757	3,647	242,618	123,918
240,772	3,726	242,564	123,943
241,786	3,798	242,422	123,918
242,801	3,657	242,127	123,642
243,815	3,606	242,103	123,578
244,830	3,887	242,011	123,746
245,844	3,933	241,799	123,664
246,859	3,999	241,549	123,578
247,874	3,728	241,396	123,270
248,888	3,788	241,331	123,275
249,903	3,764	241,091	123,122
250,917	4,016	241,055	123,294
251,932	4,238	240,951	123,408
252,947	3,995	240,806	123,129
253,961	3,824	240,474	122,812
254,976	3,939	240,468	122,889
255,990	4,202	240,163	122,932
257,005	3,792	240,022	122,522
258,020	3,476	239,884	122,189
259,034	3,655	239,787	122,271
260,049	3,826	239,769	122,387
261,063	3,873	239,404	122,227
262,078	3,727	239,272	122,033
263,093	3,940	239,286	122,198
264,107	3,895	239,225	122,120
265,122	3,794	238,801	121,813
266,136	3,926	238,784	121,898
267,151	4,067	238,663	121,937
268,166	3,744	238,338	121,505
269,180	3,723	238,097	121,355
270,195	4,239	238,193	121,801
271,209	4,489	238,177	121,979
272,224	4,048	237,805	121,429
273,239	3,597	237,441	120,878
274,253	3,546	237,569	120,892
275,268	4,010	237,257	121,088
276,282	3,915	237,197	120,971
277,297	3,769	236,926	120,708
278,312	3,772	236,816	120,643
279,326	3,884	236,740	120,682
280,341	3,850	236,671	120,609
281,355	3,906	236,440	120,525
282,370	4,170	236,259	120,628
283,384	3,903	236,256	120,407
284,399	3,776	235,972	120,152
285,414	3,554	235,683	119,821
286,428	3,782	235,699	119,997
287,443	3,787	235,467	119,871
288,457	3,819	235,383	119,843
289,472	4,085	235,343	120,019
290,487	3,936	235,151	119,795
291,501	3,803	234,865	119,535
292,516	3,620	234,640	119,267
293,530	3,553	234,529	119,148
294,545	3,905	234,478	119,385
295,560	3,909	234,289	119,281
296,574	3,595	234,001	118,881
297,589	3,777	234,003	119,012
298,603	3,887	233,933	119,051
299,618	4,028	233,809	119,086
300,633	3,997	233,585	118,938
301,647	4,040	233,715	119,027
302,662	4,424	233,384	119,144
303,676	4,108	233,349	118,872
304,691	4,226	233,009	118,779
305,706	4,299	232,944	118,791
306,720	4,443	232,779	118,807
307,735	4,154	232,681	118,524
308,749	3,981	232,376	118,226
309,764	3,925	232,285	118,126
310,779	3,903	231,854	117,879
311,793	3,785	231,789	117,745
312,808	3,491	231,741	117,485
313,822	3,591	231,512	117,435
314,837	3,590	231,467	117,401
315,852	3,758	231,112	117,338
316,866	3,839	231,167	117,418
317,881	3,900	231,099	117,420
318,895	3,945	230,939	117,362
319,910	4,145	230,830	117,449
320,925	3,904	230,674	117,176
321,939	3,813	230,641	117,079
322,954	4,184	230,478	117,268
323,968	4,059	230,241	117,042
324,983	3,736	230,103	116,716
325,997	3,703	229,864	116,559
327,012	3,894	229,736	116,629
328,027	4,021	229,691	116,692
329,041	4,297	229,646	116,868
330,056	4,699	229,605	117,141
331,070	4,562	229,468	116,957
332,085	4,165	229,117	116,467
333,100	4,134	228,851	116,298
334,114	3,961	228,796	116,130
335,129	4,152	228,680	116,204
336,143	4,456	228,495	116,329
337,158	4,563	228,538	116,421
338,173	4,098	228,163	115,870
339,187	3,910	228,090	115,681
340,202	4,172	228,055	115,850
341,216	4,096	227,730	115,617
342,231	3,905	227,649	115,423
343,246	3,854	227,447	115,272
344,260	4,091	227,346	115,388
345,275	4,187	227,279	115,415
346,289	4,337	227,147	115,451
347,304	4,258	227,074	115,344
348,319	4,308	226,808	115,236
349,333	4,303	226,716	115,175
350,348	3,887	226,452	114,720
351,362	4,055	226,325	114,771
352,377	3,917	226,171	114,580
353,392	3,682	226,064	114,341
354,406	3,871	225,912	114,395
355,421	195,044	1321,648	1396,667
356,435	156,317	1455,142	1396,654
