DTS Sentinel unit serial number:	SN410029Multiplexer serial number:	ORYXHardware model number:	OX2-SRSoftware version number:	ORYX F/W v4,00 Oryx Data Collector v3.7.2.0data status	okinstallation	B5 Nyhavnadifferential loss correction	single-endedforward channel	channel 2reverse channel	N/Adate	2023/12/14time	02:37:13forward acquisition time	300,00reverse acquisition time	0,00gamma	499,1914k internal	0,3155k external	0,3155temperature offset calibration	1,0000default loss term (dB/km)	0,3820temperature slope calibration	1,0000multiplexer offset coefficient	1,0000multiplexer slope coefficient	1,0000fibre end	0,00T internal ref (°C)	8,47T ext. ref 1 (°C)	-7,88T ext. ref 2 (°C)	-7,93length (m)	temperature (°C)	Stokes	anti-Stokes-744,400	138,128	0,186	0,180
-743,385	-126,367	-0,434	-0,047
-742,371	172,858	0,167	0,178
-741,356	-127,188	-0,442	-0,047
-740,342	-175,943	0,307	-0,006
-739,327	-151,527	-0,334	0,018
-738,312	800,000	0,036	0,100
-737,298	-67,433	-0,355	-0,102
-736,283	28,208	0,164	0,102
-735,269	-113,981	-0,500	-0,071
-734,254	487,945	0,125	0,211
-733,239	13,963	-0,514	-0,294
-732,225	-144,650	0,238	-0,016
-731,210	-200,000	0,028	0,091
-730,196	-200,000	-0,041	-0,152
-729,181	800,000	-0,023	0,063
-728,167	-42,514	0,041	-0,015
-727,152	-190,364	0,047	0,000
-726,137	-200,000	0,001	-0,019
-725,123	712,481	-0,019	0,037
-724,108	452,130	-0,093	0,151
-723,094	55,961	-0,112	-0,080
-722,079	-125,396	-0,041	-0,005
-721,064	-200,000	0,014	-0,154
-720,050	-200,000	-0,031	-0,151
-719,035	-97,565	-0,140	-0,027
-718,021	800,000	0,020	-0,043
-717,006	422,102	0,026	-0,041
-715,991	-83,374	-0,217	-0,051
-714,977	800,000	0,074	-0,154
-713,962	-37,179	-0,057	0,022
-712,948	69,337	0,036	0,027
-711,933	740,830	-0,032	-0,064
-710,918	3,633	-0,091	-0,049
-709,904	-66,330	-0,085	-0,025
-708,889	601,572	-0,053	0,098
-707,875	218,890	0,036	-0,042
-706,860	-200,000	0,011	0,046
-705,845	800,000	-0,034	-0,105
-704,831	-28,212	0,007	-0,003
-703,816	-10,757	-0,104	0,051
-702,802	-141,082	-0,199	-0,015
-701,787	-13,078	-0,214	-0,102
-700,772	67,812	0,069	0,052
-699,758	-200,000	0,020	0,117
-698,743	-200,000	-0,005	0,016
-697,729	324,958	0,046	0,066
-696,714	800,000	-0,046	0,107
-695,699	800,000	-0,042	-0,111
-694,685	-109,511	0,179	-0,028
-693,670	800,000	-0,001	-0,002
-692,656	-146,774	0,072	-0,004
-691,641	800,000	0,082	0,168
-690,627	800,000	-0,049	0,100
-689,612	-200,000	0,001	-0,018
-688,597	800,000	0,047	-0,150
-687,583	-95,105	-0,040	0,008
-686,568	-61,165	-0,017	-0,005
-685,554	800,000	0,040	-0,099
-684,539	800,000	-0,015	-0,036
-683,524	-200,000	0,002	0,047
-682,510	-90,518	0,041	0,009
-681,495	-200,000	-0,014	-0,238
-680,481	-200,000	0,020	-0,069
-679,466	-3,900	-0,112	0,057
-678,451	-53,169	0,036	0,012
-677,437	-200,000	0,009	-0,080
-676,422	652,262	-0,111	0,210
-675,408	-200,000	-0,025	0,121
-674,393	-6,368	-0,056	0,028
-673,378	-200,000	-0,032	-0,133
-672,364	-117,127	-0,080	-0,011
-671,349	-200,000	-0,025	-0,177
-670,335	-0,231	-0,083	0,043
-669,320	-200,000	-0,026	0,127
-668,305	315,348	0,023	0,031
-667,291	213,056	0,029	-0,034
-666,276	84,204	-0,054	0,043
-665,262	800,000	-0,068	-0,162
-664,247	8,288	0,156	-0,086
-663,232	800,000	-0,031	0,087
-662,218	-200,000	0,014	-0,104
-661,203	-3,133	-0,031	-0,016
-660,189	-68,813	-0,101	-0,029
-659,174	161,675	-0,083	0,085
-658,159	-69,239	-0,057	0,016
-657,145	800,000	0,011	-0,030
-656,130	29,910	0,047	-0,030
-655,116	800,000	0,043	-0,110
-654,101	-200,000	0,010	0,118
-653,086	179,050	-0,110	0,119
-652,072	-114,978	-0,065	-0,009
-651,057	-200,000	0,018	-0,107
-650,043	-200,000	0,005	0,096
-649,028	6,025	-0,012	0,007
-648,014	-200,000	-0,009	-0,033
-646,999	553,246	0,019	0,033
-645,984	800,000	0,027	0,069
-644,970	800,000	-0,049	0,109
-643,955	-200,000	0,006	-0,122
-642,941	145,495	-0,107	0,105
-641,926	37,293	0,123	0,080
-640,911	-139,954	0,028	0,002
-639,897	-200,000	-0,007	0,032
-638,882	698,368	0,003	0,006
-637,868	218,699	0,037	-0,043
-636,853	132,633	-0,148	-0,140
-635,838	-200,000	0,013	-0,092
-634,824	-135,011	-0,106	0,009
-633,809	-115,861	0,056	0,008
-632,795	182,639	0,133	0,144
-631,780	-55,495	-0,044	0,015
-630,765	16,693	0,067	0,039
-629,751	-132,703	-0,094	0,009
-628,736	800,000	0,031	-0,065
-627,722	-164,978	-0,085	0,003
-626,707	-17,554	0,074	-0,034
-625,692	460,809	0,041	0,068
-624,678	34,115	-0,022	0,014
-623,663	159,105	-0,079	-0,081
-622,649	134,288	0,037	0,035
-621,634	98,290	-0,060	0,051
-620,619	800,000	-0,031	-0,072
-619,605	20,414	0,116	0,069
-618,590	-200,000	-0,010	0,063
-617,576	342,124	-0,013	-0,019
-616,561	-200,000	-0,006	-0,060
-615,546	-200,000	-0,004	0,037
-614,532	-200,000	0,019	-0,114
-613,517	280,381	-0,053	-0,070
-612,503	800,000	-0,037	0,098
-611,488	51,658	0,140	0,097
-610,474	-52,814	0,071	0,024
-609,459	-200,000	0,003	-0,114
-608,444	-35,912	-0,075	-0,030
-607,430	-200,000	0,029	-0,167
-606,415	-42,830	-0,083	0,031
-605,401	51,944	-0,065	0,045
-604,386	186,368	0,097	0,106
-603,371	800,000	-0,033	0,099
-602,357	-200,000	0,000	0,053
-601,342	-200,000	0,002	-0,089
-600,328	-84,469	-0,032	-0,007
-599,313	-155,591	0,020	-0,001
-598,298	-13,542	0,047	-0,022
-597,284	-200,000	-0,004	0,020
-596,269	49,102	0,114	0,078
-595,255	177,314	-0,076	0,081
-594,240	112,986	-0,110	0,098
-593,225	-152,371	-0,065	0,003
-592,211	800,000	-0,007	-0,019
-591,196	273,242	-0,079	-0,103
-590,182	8,246	0,098	0,054
-589,167	-71,546	-0,138	0,038
-588,152	-103,472	-0,043	0,007
-587,138	604,231	0,032	0,059
-586,123	738,860	-0,083	-0,163
-585,109	29,025	0,032	0,020
-584,094	-59,299	-0,108	-0,034
-583,079	-200,000	-0,005	-0,017
-582,065	-200,000	0,006	-0,049
-581,050	299,464	-0,033	0,045
-580,036	98,013	-0,084	-0,071
-579,021	646,664	-0,041	-0,078
-578,006	151,974	-0,019	-0,019
-576,992	664,154	-0,103	0,195
-575,977	800,000	-0,008	-0,021
-574,963	731,776	-0,027	-0,052
-573,948	800,000	-0,036	0,075
-572,934	32,059	-0,053	-0,034
-571,919	-21,406	0,047	0,021
-570,904	115,006	0,049	-0,044
-569,890	17,590	-0,014	-0,008
-568,875	-200,000	-0,004	0,117
-567,861	-200,000	0,001	0,094
-566,846	436,207	-0,064	0,103
-565,831	800,000	-0,002	0,004
-564,817	-200,000	-0,005	0,096
-563,802	-200,000	0,003	0,037
-562,788	185,845	-0,061	0,066
-561,773	-87,970	0,125	-0,027
-560,758	-200,000	-0,005	0,081
-559,744	-33,638	-0,167	0,067
-558,729	29,200	0,063	-0,039
-557,715	800,000	-0,024	-0,053
-556,700	800,000	-0,035	0,071
-555,685	361,449	0,036	-0,053
-554,671	158,294	-0,071	-0,072
-553,656	-200,000	0,018	-0,064
-552,642	66,656	-0,158	-0,117
-551,627	219,926	0,070	0,083
-550,612	800,000	-0,056	-0,156
-549,598	-31,984	-0,118	0,048
-548,583	163,205	-0,072	-0,074
-547,569	-15,826	0,065	-0,030
-546,554	-74,304	0,011	-0,003
-545,539	606,379	0,083	0,151
-544,525	-200,000	-0,001	0,098
-543,510	-200,000	-0,011	-0,058
-542,496	-69,350	-0,028	-0,008
-541,481	-200,000	-0,001	-0,128
-540,466	-157,312	-0,111	-0,005
-539,452	-25,006	-0,008	-0,004
-538,437	800,000	0,009	0,026
-537,423	-200,000	-0,001	0,092
-536,408	-200,000	-0,027	0,153
-535,393	164,884	0,028	0,029
-534,379	34,875	-0,086	0,055
-533,364	-200,000	-0,009	-0,150
-532,350	5,220	-0,071	-0,038
-531,335	22,721	0,054	0,032
-530,321	-97,047	-0,118	-0,022
-529,306	800,000	0,047	-0,124
-528,291	800,000	-0,034	-0,099
-527,277	-200,000	-0,008	-0,098
-526,262	78,842	0,082	0,064
-525,248	4,437	0,118	0,063
-524,233	325,643	-0,008	0,012
-523,218	117,627	-0,053	0,048
-522,204	85,563	-0,092	-0,074
-521,189	800,000	-0,042	-0,122
-520,175	-75,946	-0,062	0,016
-519,160	150,867	0,027	-0,027
-518,145	800,000	0,025	0,068
-517,131	153,470	-0,004	-0,004
-516,116	-200,000	-0,012	0,194
-515,102	98,839	0,087	0,073
-514,087	-200,000	-0,031	-0,252
-513,072	-84,789	-0,048	-0,011
-512,058	-89,837	-0,107	-0,023
-511,043	84,284	0,099	0,079
-510,029	800,000	0,077	0,225
-509,014	-60,900	0,054	0,017
-507,999	152,334	0,097	0,097
-506,985	-200,000	-0,006	0,080
-505,970	8,552	0,083	-0,045
-504,956	-107,592	0,021	-0,003
-503,941	158,208	-0,058	0,059
-502,926	-167,160	0,098	-0,003
-501,912	58,306	0,102	0,073
-500,897	800,000	-0,055	0,156
-499,883	53,746	-0,086	0,061
-498,868	404,464	-0,056	-0,087
-497,853	76,268	0,149	-0,115
-496,839	-200,000	-0,009	-0,041
-495,824	-107,197	0,096	-0,015
-494,810	-200,000	0,013	-0,069
-493,795	-69,164	0,115	0,032
-492,781	-106,267	-0,124	-0,020
-491,766	-159,019	0,022	0,001
-490,751	239,857	-0,040	-0,049
-489,737	60,656	-0,035	0,025
-488,722	800,000	-0,007	-0,014
-487,708	-123,902	0,157	-0,018
-486,693	15,821	0,067	0,039
-485,678	-179,485	-0,032	-0,000
-484,664	-200,000	0,006	-0,040
-483,649	800,000	0,097	-0,285
-482,635	23,197	-0,086	0,051
-481,620	-165,014	0,069	0,002
-480,605	170,648	0,046	0,048
-479,591	23,786	0,093	0,056
-478,576	-200,000	0,004	-0,064
-477,562	-57,400	-0,140	0,045
-476,547	-200,000	0,033	0,142
-475,532	163,856	0,030	-0,031
-474,518	-32,355	0,118	0,048
-473,503	682,656	0,001	0,001
-472,489	-200,000	-0,004	0,128
-471,474	-25,306	0,070	0,030
-470,459	64,489	-0,116	0,086
-469,445	800,000	0,026	-0,074
-468,430	60,772	0,057	-0,041
-467,416	-106,050	0,096	0,016
-466,401	-125,113	0,113	-0,012
-465,386	-200,000	-0,013	-0,044
-464,372	-81,122	-0,050	-0,012
-463,357	-200,000	-0,000	-0,028
-462,343	-111,275	-0,104	0,015
-461,328	483,687	0,061	-0,102
-460,313	85,994	-0,184	-0,148
-459,299	-77,710	0,143	-0,036
-458,284	800,000	0,055	0,137
-457,270	108,678	-0,164	0,143
-456,255	-200,000	0,013	-0,123
-455,241	-200,000	-0,021	0,085
-454,226	800,000	0,018	-0,039
-453,211	712,200	0,016	0,030
-452,197	-200,000	-0,041	0,145
-451,182	305,712	0,026	0,035
-450,168	478,372	-0,059	-0,097
-449,153	-47,764	0,136	-0,048
-448,138	-40,107	0,083	-0,031
-447,124	-139,517	-0,075	-0,006
-446,109	90,933	-0,073	0,060
-445,095	-124,574	0,077	-0,009
-444,080	151,292	-0,079	0,078
-443,065	800,000	0,005	-0,010
-442,051	-37,145	-0,066	-0,026
-441,036	-62,109	-0,217	-0,066
-440,022	145,183	0,033	-0,032
-439,007	-197,621	-0,090	-0,000
-437,992	186,631	0,096	-0,105
-436,978	68,342	0,066	0,049
-435,963	-200,000	-0,014	0,053
-434,949	-80,326	-0,099	-0,024
-433,934	-84,604	-0,113	0,026
-432,919	65,181	0,041	0,030
-431,905	800,000	0,020	-0,061
-430,890	-16,143	0,099	0,046
-429,876	-200,000	-0,022	0,161
-428,861	800,000	-0,032	0,077
-427,846	800,000	0,047	0,132
-426,832	283,131	0,104	-0,137
-425,817	-200,000	-0,008	-0,057
-424,803	800,000	0,029	0,074
-423,788	-106,905	0,032	0,005
-422,773	63,974	0,037	-0,027
-421,759	-200,000	-0,015	0,061
-420,744	-200,000	-0,001	-0,030
-419,730	-83,901	-0,130	-0,030
-418,715	32,711	-0,071	-0,045
-417,701	9,176	-0,058	0,032
-416,686	800,000	-0,022	-0,064
-415,671	-200,000	0,041	0,166
-414,657	-200,000	0,017	0,189
-413,642	-200,000	0,002	0,024
-412,628	-27,841	0,133	0,056
-411,613	-109,729	0,077	-0,012
-410,598	480,308	0,078	-0,130
-409,584	-12,464	0,068	-0,032
-408,569	-200,000	0,041	0,219
-407,555	248,273	0,037	0,045
-406,540	-200,000	-0,012	-0,131
-405,525	-200,000	0,023	0,077
-404,511	-176,522	-0,108	0,002
-403,496	119,637	0,063	-0,057
-402,482	-200,000	-0,007	0,152
-401,467	800,000	-0,034	-0,101
-400,452	800,000	0,029	-0,086
-399,438	-200,000	0,003	-0,109
-398,423	236,787	-0,047	-0,057
-397,409	377,021	0,013	-0,020
-396,394	146,070	0,023	-0,023
-395,379	-200,000	-0,024	-0,091
-394,365	147,725	0,035	-0,034
-393,350	-151,466	0,076	-0,004
-392,336	295,527	-0,037	-0,049
-391,321	-78,855	-0,236	-0,058
-390,306	-200,000	-0,023	-0,092
-389,292	225,335	-0,073	-0,086
-388,277	-26,447	0,099	-0,042
-387,263	153,665	-0,085	0,085
-386,248	800,000	0,036	0,104
-385,233	572,612	0,036	0,064
-384,219	-104,629	0,037	0,006
-383,204	-3,704	-0,106	-0,054
-382,190	245,736	0,099	-0,121
-381,175	-200,000	-0,028	0,121
-380,160	-200,000	-0,014	0,130
-379,146	-166,066	0,062	-0,002
-378,131	-18,229	0,115	0,052
-377,117	-200,000	-0,006	-0,107
-376,102	89,923	-0,129	0,105
-375,088	-53,396	0,105	0,035
-374,073	-200,000	-0,001	-0,009
-373,058	-27,708	0,081	0,034
-372,044	344,513	-0,086	0,123
-371,029	800,000	0,015	0,034
-370,015	695,224	-0,108	-0,207
-369,000	-39,968	-0,127	0,048
-367,985	-24,431	-0,033	0,014
-366,971	204,751	-0,018	-0,021
-365,956	-182,858	0,107	-0,001
-364,942	800,000	-0,067	0,168
-363,927	800,000	0,009	-0,022
-362,912	-157,396	-0,047	0,002
-361,898	800,000	-0,030	-0,072
-360,883	600,720	-0,023	-0,042
-359,869	800,000	0,021	-0,043
-358,854	54,506	0,025	-0,018
-357,839	-131,402	0,164	0,016
-356,825	-98,026	-0,132	0,025
-355,810	21,821	0,025	0,015
-354,796	-200,000	-0,019	-0,152
-353,781	-200,000	-0,009	-0,186
-352,766	68,151	0,041	-0,030
-351,752	-29,828	-0,170	0,070
-350,737	419,912	0,094	-0,147
-349,723	-200,000	0,010	0,110
-348,708	-42,013	0,117	0,043
-347,693	-200,000	0,010	0,068
-346,679	9,892	-0,059	0,033
-345,664	-200,000	-0,007	-0,108
-344,650	52,858	-0,094	-0,065
-343,635	103,505	-0,113	-0,096
-342,620	401,509	0,053	0,082
-341,606	-200,000	-0,006	-0,062
-340,591	96,042	0,098	-0,081
-339,577	-47,524	0,076	-0,027
-338,562	561,657	-0,076	-0,133
-337,548	800,000	-0,037	-0,102
-336,533	90,112	0,030	0,025
-335,518	-200,000	-0,013	0,099
-334,504	376,865	-0,026	0,039
-333,489	351,017	0,057	0,081
-332,475	212,738	0,047	0,054
-331,460	-16,686	-0,127	-0,058
-330,445	-71,539	-0,050	0,013
-329,431	253,835	0,076	0,094
-328,416	800,000	0,019	-0,039
-327,402	-200,000	-0,008	-0,036
-326,387	112,802	0,122	0,107
-325,372	551,596	-0,053	0,093
-324,358	-200,000	-0,022	0,083
-323,343	-23,643	-0,054	0,023
-322,329	605,718	0,060	-0,110
-321,314	470,561	-0,071	0,116
-320,299	800,000	-0,022	-0,057
-319,285	800,000	0,045	0,124
-318,270	800,000	-0,036	0,084
-317,256	50,659	0,052	-0,036
-316,241	-73,376	0,095	-0,025
-315,226	-184,463	-0,060	0,001
-314,212	328,690	0,045	-0,063
-313,197	54,984	-0,044	0,030
-312,183	265,548	0,118	0,150
-311,168	205,420	0,059	0,066
-310,153	-200,000	0,018	-0,146
-309,139	172,949	-0,033	-0,034
-308,124	52,719	0,113	0,078
-307,110	158,234	0,141	-0,142
-306,095	-200,000	-0,004	-0,057
-305,080	-200,000	-0,034	0,119
-304,066	-33,818	-0,139	0,055
-303,051	42,233	0,086	-0,057
-302,037	134,099	0,114	0,107
-301,022	30,766	-0,095	-0,059
-300,008	-200,000	0,002	0,028
-298,993	528,870	0,013	-0,022
-297,978	256,154	0,027	0,033
-296,964	505,222	-0,033	0,055
-295,949	351,351	0,058	-0,084
-294,935	-142,827	-0,040	-0,003
-293,920	-31,050	0,032	-0,013
-292,905	329,690	-0,043	-0,060
-291,891	-200,000	0,010	-0,135
-290,876	-164,308	0,220	0,007
-289,862	800,000	-0,036	-0,077
-288,847	800,000	-0,060	-0,161
-287,832	-200,000	-0,000	0,092
-286,818	800,000	-0,025	-0,060
-285,803	378,912	-0,057	-0,085
-284,789	-200,000	0,021	0,083
-283,774	800,000	0,031	0,092
-282,759	-200,000	0,019	-0,076
-281,745	800,000	-0,025	-0,056
-280,730	-41,817	-0,106	-0,039
-279,716	-49,591	0,100	0,034
-278,701	14,854	-0,194	-0,110
-277,686	-200,000	-0,023	0,081
-276,672	800,000	0,012	0,029
-275,657	-200,000	0,005	-0,073
-274,643	-200,000	0,009	0,047
-273,628	800,000	-0,020	-0,044
-272,613	800,000	-0,019	-0,059
-271,599	800,000	0,041	-0,083
-270,584	-48,154	0,031	0,011
-269,570	-39,183	-0,078	-0,029
-268,555	-129,889	0,031	0,003
-267,540	-200,000	-0,009	0,049
-266,526	800,000	-0,028	0,083
-265,511	146,816	0,059	0,058
-264,497	131,602	0,087	0,081
-263,482	-91,788	-0,038	-0,008
-262,467	-81,205	0,068	0,016
-261,453	-102,645	-0,089	0,015
-260,438	-18,707	0,150	-0,067
-259,424	-200,000	0,009	-0,093
-258,409	460,617	0,076	-0,122
-257,395	333,911	0,059	0,084
-256,380	-200,000	-0,011	0,085
-255,365	40,882	-0,077	0,050
-254,351	800,000	-0,052	0,109
-253,336	323,975	-0,065	0,090
-252,322	-86,977	-0,062	0,014
-251,307	-37,224	-0,114	0,044
-250,292	32,176	0,009	0,006
-249,278	-196,251	0,079	0,000
-248,263	236,440	-0,036	0,043
-247,249	-200,000	-0,006	0,046
-246,234	-200,000	-0,007	0,055
-245,219	-16,878	0,091	-0,041
-244,205	-116,649	0,083	-0,011
-243,190	236,943	-0,068	0,082
-242,176	-35,173	0,047	0,018
-241,161	-200,000	0,010	-0,048
-240,146	-108,920	0,085	0,013
-239,132	-85,709	0,107	-0,024
-238,117	-200,000	0,003	-0,079
-237,103	-145,590	-0,097	-0,006
-236,088	-168,046	0,099	0,003
-235,073	-92,671	0,102	-0,020
-234,059	-104,374	0,020	-0,003
-233,044	800,000	0,045	0,115
-232,030	-200,000	-0,006	-0,022
-231,015	282,125	0,088	-0,115
-230,000	193,181	-0,097	-0,106
-228,986	-97,963	-0,096	-0,018
-227,971	-10,338	0,041	0,019
-226,957	38,120	0,097	0,062
-225,942	-29,785	0,117	-0,048
-224,927	-135,481	-0,115	0,010
-223,913	107,659	-0,026	-0,023
-222,898	-200,000	-0,028	-0,114
-221,884	575,246	0,014	-0,026
-220,869	290,382	0,069	-0,091
-219,855	-200,000	0,013	-0,064
-218,840	345,209	-0,012	0,017
-217,825	174,552	0,016	-0,017
-216,811	-200,000	-0,003	-0,063
-215,796	-200,000	-0,033	0,000
-214,782	-135,259	0,079	-0,007
-213,767	-109,681	-0,023	-0,004
-212,752	214,840	0,071	-0,081
-211,738	-200,000	-0,013	0,072
-210,723	800,000	0,010	0,024
-209,709	12,006	-0,044	0,024
-208,694	-200,000	-0,004	-0,090
-207,679	-118,311	0,059	0,007
-206,665	97,904	0,007	0,006
-205,650	-200,000	0,012	0,051
-204,636	93,337	0,091	0,074
-203,621	-200,000	0,030	0,136
-202,606	215,664	-0,031	-0,036
-201,592	800,000	0,061	-0,139
-200,577	358,814	-0,086	-0,125
-199,563	32,862	0,020	0,013
-198,548	-114,510	0,040	0,005
-197,533	280,369	-0,049	-0,064
-196,519	800,000	-0,031	0,068
-195,504	-200,000	0,001	0,065
-194,490	-130,065	-0,157	-0,015
-193,475	-200,000	-0,096	-0,000
-192,460	418,017	0,055	0,084
-191,446	-200,000	0,014	0,059
-190,431	-4,729	0,136	-0,067
-189,417	312,983	-0,043	0,058
-188,402	48,672	-0,092	-0,062
-187,387	-200,000	-0,003	-0,040
-186,373	615,722	0,048	-0,087
-185,358	-32,744	0,139	0,056
-184,344	-126,912	0,032	0,003
-183,329	-73,615	0,116	0,030
-182,315	344,235	-0,023	0,033
-181,300	-38,025	0,009	-0,004
-180,285	800,000	-0,034	0,071
-179,271	-8,846	0,084	0,040
-178,256	800,000	-0,017	-0,035
-177,242	800,000	-0,018	-0,050
-176,227	702,843	-0,043	0,081
-175,212	75,372	-0,047	-0,036
-174,198	513,500	-0,063	-0,106
-173,183	457,914	-0,039	0,064
-172,169	333,419	0,035	-0,050
-171,154	-1,855	-0,159	-0,080
-170,139	-200,000	-0,010	0,046
-169,125	17,618	-0,020	-0,011
-168,110	291,018	-0,057	0,074
-167,096	162,392	0,087	-0,088
-166,081	-200,000	0,042	-0,159
-165,066	-102,151	-0,093	-0,016
-164,052	774,706	-0,031	-0,061
-163,037	-3,733	0,205	-0,103
-162,023	800,000	0,035	-0,074
-161,008	200,725	-0,081	0,090
-159,993	15,622	0,024	-0,014
-158,979	196,814	-0,107	-0,118
-157,964	-16,961	-0,082	0,037
-156,950	-105,984	0,088	-0,014
-155,935	17,191	0,100	-0,057
-154,920	-128,091	-0,096	0,010
-153,906	-200,000	-0,004	0,066
-152,891	-200,000	-0,003	-0,025
-151,877	54,928	0,037	-0,025
-150,862	-101,865	0,030	-0,005
-149,847	-148,965	-0,088	0,005
-148,833	212,342	0,059	-0,068
-147,818	-12,924	0,098	-0,046
-146,804	595,869	0,048	0,086
-145,789	133,111	0,082	-0,077
-144,775	-200,000	-0,008	0,026
-143,760	800,000	-0,019	-0,059
-142,745	-200,000	-0,019	0,154
-141,731	-115,418	0,141	-0,019
-140,716	-193,320	-0,060	0,000
-139,702	-18,749	0,074	0,033
-138,687	-85,379	-0,061	0,014
-137,672	202,867	0,107	0,119
-136,658	188,557	-0,066	-0,071
-135,643	227,481	-0,040	-0,047
-134,629	419,296	-0,030	0,046
-133,614	-200,000	0,002	0,069
-132,599	-6,120	-0,021	0,011
-131,585	-200,000	0,008	-0,079
-130,570	107,347	0,102	0,087
-129,556	-106,764	0,006	-0,001
-128,541	-123,178	-0,103	-0,012
-127,526	256,893	-0,079	0,098
-126,512	-200,000	0,005	0,051
-125,497	76,876	0,118	0,090
-124,483	800,000	0,010	0,025
-123,468	124,508	0,020	-0,018
-122,453	267,776	-0,049	-0,062
-121,439	184,910	-0,087	-0,093
-120,424	800,000	0,011	0,030
-119,410	-146,044	0,025	-0,002
-118,395	-200,000	0,000	0,057
-117,380	318,493	0,064	0,088
-116,366	-200,000	-0,005	0,041
-115,351	108,369	0,061	0,052
-114,337	-64,663	-0,097	-0,028
-113,322	-200,000	-0,013	-0,062
-112,307	254,802	-0,095	-0,118
-111,293	-30,679	-0,016	0,006
-110,278	-200,000	-0,001	0,010
-109,264	-200,000	-0,036	0,184
-108,249	-200,000	-0,002	0,053
-107,234	-142,105	0,093	0,007
-106,220	-25,103	0,149	0,063
-105,205	-69,332	0,114	0,031
-104,191	-200,000	0,012	-0,143
-103,176	-200,000	-0,009	0,047
-102,162	512,814	0,022	-0,037
-101,147	-128,134	-0,178	0,018
-100,132	-200,000	0,016	0,072
-99,118	800,000	-0,005	-0,013
-98,103	109,475	0,111	0,096
-97,089	171,296	0,048	0,050
-96,074	800,000	0,047	0,114
-95,059	61,320	0,050	0,035
-94,045	144,954	0,084	0,081
-93,030	-200,000	0,009	0,043
-92,016	-82,410	-0,106	0,025
-91,001	280,872	-0,086	-0,111
-89,986	66,270	-0,089	-0,065
-88,972	800,000	0,046	0,133
-87,957	-123,185	0,014	0,002
-86,943	267,886	-0,049	-0,061
-85,928	-112,302	-0,169	-0,024
-84,913	-106,523	-0,115	-0,018
-83,899	-20,617	-0,046	-0,020
-82,884	-200,000	0,018	0,075
-81,870	144,781	0,113	0,109
-80,855	-200,000	-0,038	-0,122
-79,840	-200,000	-0,043	-0,240
-78,826	-84,754	0,144	0,032
-77,811	483,794	0,048	-0,079
-76,797	694,754	-0,075	-0,141
-75,782	800,000	0,033	0,092
-74,767	163,094	0,109	0,110
-73,753	-200,000	0,012	0,175
-72,738	800,000	-0,025	-0,073
-71,724	92,051	-0,041	-0,033
-70,709	29,234	0,034	-0,021
-69,694	449,396	0,011	0,017
-68,680	200,081	-0,039	-0,043
-67,665	-200,000	-0,022	0,173
-66,651	100,018	0,030	0,025
-65,636	-200,000	0,006	-0,109
-64,622	351,737	-0,058	0,083
-63,607	-10,882	-0,119	0,056
-62,592	-55,651	0,109	-0,035
-61,578	-14,336	0,053	-0,024
-60,563	295,326	-0,088	0,116
-59,549	800,000	-0,028	0,088
-58,534	58,820	-2,630	-1,855
-57,519	-0,477	0,368	-0,187
-56,505	-200,000	-1,567	-5,448
-55,490	548,083	1,073	1,853
-54,476	800,000	5,202	11,335
-53,461	-200,000	21,905	347,321
-52,446	800,000	761,043	2315,240
-51,432	520,362	1650,251	2789,836
-50,417	102,381	1614,230	1354,823
-49,403	71,471	1270,428	946,388
-48,388	24,753	1020,247	605,552
-47,373	19,184	987,036	567,413
-46,359	13,281	974,270	540,687
-45,344	9,132	970,873	525,152
-44,330	9,594	968,864	525,561
-43,315	8,604	966,933	521,251
-42,300	8,506	965,871	520,337
-41,286	8,472	964,819	519,639
-40,271	8,517	963,792	519,212
-39,257	8,508	963,011	518,740
-38,242	8,479	962,232	518,205
-37,227	8,473	961,252	517,637
-36,213	8,467	960,525	517,207
-35,198	8,466	959,561	516,664
-34,184	8,514	958,927	516,457
-33,169	8,497	957,892	515,823
-32,154	8,520	956,970	515,380
-31,140	8,584	956,085	515,093
-30,125	8,564	955,321	514,595
-29,111	8,515	954,453	513,949
-28,096	8,527	953,933	513,688
-27,082	8,545	953,130	513,291
-26,067	8,496	952,519	512,785
-25,052	8,479	951,590	512,208
-24,038	8,481	950,786	511,762
-23,023	8,415	950,308	511,271
-22,009	8,445	949,879	511,117
-20,994	8,464	949,453	510,930
-19,979	8,472	948,649	510,502
-18,965	8,473	947,978	510,123
-17,950	8,500	947,336	509,845
-16,936	8,438	946,712	509,289
-15,921	8,508	945,825	509,016
-14,906	8,344	945,086	508,076
-13,892	8,355	944,532	507,792
-12,877	8,391	943,913	507,553
-11,863	8,367	943,400	507,180
-10,848	8,389	942,827	506,923
-9,833	8,482	942,227	506,879
-8,819	8,501	941,632	506,598
-7,804	8,403	940,892	505,868
-6,790	8,457	940,134	505,613
-5,775	8,457	939,631	505,322
-4,760	8,429	939,258	505,012
-3,746	8,381	938,739	504,559
-2,731	8,271	937,698	503,631
-1,717	8,194	937,281	503,144
-0,702	8,213	936,595	502,816
0,313	8,126	935,829	502,887
1,327	11,500	933,679	512,351
2,342	20,147	781,705	451,677
3,356	15,109	448,560	251,565
4,371	-11,230	312,030	147,013
5,386	-15,212	294,455	134,698
6,400	-17,154	288,446	130,015
7,415	-17,247	285,870	128,750
8,429	-17,743	283,961	127,396
9,444	-17,837	283,112	126,913
10,459	-17,712	282,570	126,779
11,473	-17,743	281,863	126,421
12,488	-17,767	281,438	126,196
13,502	-17,661	280,771	125,987
14,517	-17,633	280,485	125,875
15,531	-17,642	280,232	125,741
16,546	-17,582	279,749	125,572
17,561	-17,489	279,313	125,453
18,575	-17,313	278,755	125,360
19,590	-17,568	278,504	124,992
20,604	-17,375	278,328	125,086
21,619	-17,487	277,942	124,795
22,634	-17,401	277,575	124,701
23,648	-17,228	277,234	124,702
24,663	-17,358	277,013	124,467
25,677	-17,372	276,746	124,323
26,692	-17,300	276,411	124,230
27,707	-17,541	276,352	123,964
28,721	-17,421	276,025	123,919
29,736	-17,545	275,583	123,592
30,750	-17,378	275,303	123,614
31,765	-17,307	275,091	123,574
32,780	-17,450	274,952	123,366
33,794	-17,626	274,784	123,114
34,809	-17,472	274,530	123,134
35,823	-17,494	274,216	122,962
36,838	-17,423	273,886	122,869
37,853	-17,550	273,681	122,647
38,867	-17,466	273,425	122,601
39,882	-17,381	273,130	122,536
40,896	-17,330	272,956	122,495
41,911	-17,235	272,507	122,371
42,926	-17,495	272,501	122,116
43,940	-17,520	272,172	121,933
44,955	-17,429	271,945	121,906
45,969	-17,434	271,780	121,816
46,984	-17,330	271,369	121,718
47,999	-17,291	271,210	121,672
49,013	-17,204	271,094	121,690
50,028	-17,313	270,819	121,454
51,042	-17,304	270,587	121,347
52,057	-17,214	270,427	121,348
53,071	-17,224	270,253	121,251
54,086	-17,336	270,052	121,046
55,101	-17,242	269,832	121,023
56,115	-17,384	269,544	120,753
57,130	-17,457	269,192	120,517
58,144	-17,531	268,957	120,333
59,159	-17,403	268,750	120,347
60,174	-17,516	268,467	120,106
61,188	-17,404	268,366	120,153
62,203	-17,393	268,011	119,993
63,217	-17,485	267,865	119,834
64,232	-17,469	267,572	119,706
65,247	-17,553	267,380	119,533
66,261	-17,620	267,188	119,375
67,276	-17,501	267,004	119,391
68,290	-17,436	266,798	119,347
69,305	-17,261	266,452	119,341
70,320	-17,393	266,334	119,158
71,334	-17,439	266,095	118,998
72,349	-17,507	265,745	118,769
73,363	-17,346	265,430	118,764
74,378	-17,593	265,264	118,455
75,393	-17,401	265,173	118,578
76,407	-17,469	264,900	118,384
77,422	-17,444	264,732	118,321
78,436	-17,383	264,573	118,294
79,451	-17,482	264,127	117,994
80,466	-17,353	264,032	118,058
81,480	-17,418	263,785	117,879
82,495	-17,283	263,531	117,876
83,509	-17,305	263,480	117,823
84,524	-17,425	263,211	117,584
85,539	-17,209	263,051	117,696
86,553	-17,302	262,687	117,439
87,568	-17,344	262,491	117,303
88,582	-17,381	262,404	117,222
89,597	-17,244	262,068	117,183
90,611	-17,379	262,126	117,078
91,626	-17,535	261,904	116,829
92,641	-17,381	261,452	116,755
93,655	-17,383	261,413	116,725
94,670	-17,334	261,082	116,610
95,684	-17,482	261,035	116,447
96,699	-17,372	260,780	116,421
97,714	-17,396	260,568	116,294
98,728	-17,136	260,192	116,347
99,743	-17,133	260,132	116,312
100,757	-17,358	259,893	115,996
101,772	-17,322	259,767	115,961
102,787	-17,263	259,379	115,830
103,801	-17,259	259,132	115,713
104,816	-17,370	259,112	115,596
105,830	-17,330	258,815	115,487
106,845	-17,278	258,644	115,446
107,860	-17,256	258,439	115,365
108,874	-17,372	258,221	115,155
109,889	-17,203	258,048	115,216
110,903	-17,368	257,805	114,952
111,918	-17,404	257,800	114,908
112,933	-17,423	257,465	114,732
113,947	-17,412	257,282	114,650
114,962	-17,352	257,042	114,585
115,976	-17,313	256,831	114,515
116,991	-17,367	256,634	114,370
118,006	-17,537	256,484	114,144
119,020	-17,452	256,358	114,153
120,035	-17,316	256,179	114,181
121,049	-17,335	255,904	114,032
122,064	-17,386	255,714	113,892
123,079	-17,459	255,607	113,771
124,093	-17,434	255,310	113,651
125,108	-17,452	255,183	113,569
126,122	-17,229	255,033	113,685
127,137	-17,156	254,913	113,684
128,151	-17,214	254,528	113,453
129,166	-17,224	254,458	113,403
130,181	-17,091	254,098	113,347
131,195	-17,315	253,974	113,088
132,210	-17,242	253,801	113,064
133,224	-17,124	253,437	112,994
134,239	-17,201	253,325	112,866
135,254	-17,452	253,135	112,557
136,268	-17,398	253,062	112,560
137,283	-17,326	252,710	112,456
138,297	-17,305	252,566	112,399
139,312	-17,335	252,312	112,250
140,327	-17,340	252,172	112,174
141,341	-17,213	251,854	112,131
142,356	-17,331	251,799	111,996
143,370	-17,505	251,590	111,744
144,385	-17,353	251,318	111,743
145,400	-17,284	251,295	111,781
146,414	-17,224	250,910	111,652
147,429	-17,257	250,883	111,602
148,443	-17,353	250,751	111,451
149,458	-17,381	250,297	111,216
150,473	-17,212	250,207	111,310
151,487	-17,222	250,033	111,213
152,502	-17,265	249,892	111,105
153,516	-17,310	249,762	110,998
154,531	-17,165	249,363	110,934
155,546	-17,348	249,297	110,740
156,560	-17,325	249,133	110,677
157,575	-17,229	248,896	110,642
158,589	-17,296	248,772	110,521
159,604	-17,408	248,413	110,257
160,619	-17,154	248,298	110,410
161,633	-17,235	248,120	110,253
162,648	-17,391	248,058	110,085
163,662	-17,310	247,904	110,074
164,677	-17,211	247,751	110,079
165,692	-17,109	247,482	110,036
166,706	-17,343	247,415	109,801
167,721	-17,235	247,165	109,770
168,735	-17,211	246,998	109,706
169,750	-17,317	246,833	109,534
170,764	-17,217	246,581	109,496
171,779	-17,448	246,584	109,295
172,794	-17,107	246,336	109,460
173,808	-17,281	246,091	109,196
174,823	-17,025	246,019	109,368
175,837	-17,189	245,776	109,114
176,852	-17,159	245,749	109,117
177,867	-17,407	245,609	108,839
178,881	-17,296	245,353	108,807
179,896	-17,284	245,109	108,699
180,910	-17,224	245,004	108,693
181,925	-17,415	244,829	108,448
182,940	-17,331	244,577	108,396
183,954	-17,327	244,519	108,364
184,969	-17,342	244,296	108,243
185,983	-17,011	244,159	108,446
186,998	-17,170	243,887	108,185
188,013	-17,134	243,604	108,079
189,027	-17,384	243,560	107,844
190,042	-17,334	243,284	107,753
191,056	-17,106	243,139	107,866
192,071	-17,233	242,868	107,632
193,086	-17,167	242,743	107,622
194,100	-17,155	242,494	107,512
195,115	-17,095	242,491	107,549
196,129	-17,380	242,279	107,213
197,144	-17,336	242,067	107,145
198,159	-17,104	241,788	107,202
199,173	-17,389	241,697	106,919
200,188	-17,298	241,401	106,853
201,202	-17,124	241,316	106,948
202,217	-17,198	241,123	106,792
203,232	-16,984	240,926	106,870
204,246	-17,495	240,736	106,360
205,261	-17,681	240,534	106,111
206,275	-16,578	240,910	107,164
207,290	-11,360	242,654	112,198
208,304	-4,689	244,515	118,534
209,319	-2,046	245,427	121,141
210,334	-1,027	245,738	122,124
211,348	0,019	245,759	122,984
212,363	0,503	245,784	123,383
213,377	0,811	245,797	123,632
214,392	1,110	245,772	123,854
215,407	1,354	245,790	124,053
216,421	1,533	245,566	124,076
217,436	1,573	245,379	124,003
218,450	1,526	245,125	123,825
219,465	1,648	245,066	123,884
220,480	1,614	245,017	123,820
221,494	1,509	244,840	123,634
222,509	1,068	244,459	123,070
223,523	0,883	244,170	122,763
224,538	0,681	244,080	122,542
225,553	0,776	243,855	122,496
226,567	0,816	243,667	122,422
227,582	0,482	243,489	122,051
228,596	0,808	243,314	122,217
229,611	0,845	243,077	122,117
230,626	0,563	243,156	121,917
231,640	0,602	242,944	121,831
232,655	0,714	242,583	121,730
233,669	0,627	242,515	121,615
234,684	0,619	242,554	121,617
235,699	0,727	242,215	121,524
236,713	0,678	241,989	121,360
237,728	0,693	241,887	121,310
238,742	0,752	241,688	121,247
239,757	0,655	241,763	121,196
240,772	0,804	241,446	121,145
241,786	0,645	241,340	120,954
242,801	0,692	241,112	120,866
243,815	0,658	240,961	120,752
244,830	0,324	240,896	120,441
245,844	0,859	240,593	120,708
246,859	0,599	240,389	120,387
247,874	0,828	240,404	120,567
248,888	0,784	240,203	120,420
249,903	0,905	239,975	120,392
250,917	0,680	239,998	120,213
251,932	1,031	239,742	120,354
252,947	0,979	239,500	120,181
253,961	0,788	239,478	120,006
254,976	0,938	239,213	119,982
255,990	0,687	239,075	119,702
257,005	0,809	238,865	119,684
258,020	0,871	238,800	119,690
259,034	0,783	238,645	119,531
260,049	0,569	238,573	119,315
261,063	0,612	238,320	119,211
262,078	0,614	238,238	119,162
263,093	0,935	237,852	119,212
264,107	0,770	237,866	119,078
265,122	0,684	237,698	118,915
266,136	0,725	237,646	118,911
267,151	0,904	237,503	118,971
268,166	0,738	237,198	118,676
269,180	0,637	237,164	118,569
270,195	0,743	236,812	118,466
271,209	0,741	236,786	118,441
272,224	0,730	236,559	118,308
273,239	0,753	236,364	118,217
274,253	0,806	236,319	118,226
275,268	0,714	236,141	118,054
276,282	0,812	235,886	117,993
277,297	0,481	235,786	117,673
278,312	0,624	235,723	117,744
279,326	0,674	235,653	117,737
280,341	0,913	235,330	117,752
281,355	0,730	235,378	117,622
282,370	0,823	235,100	117,546
283,384	0,995	234,926	117,582
284,399	0,730	234,792	117,298
285,414	0,732	234,606	117,196
286,428	1,238	234,445	117,499
287,443	0,754	234,416	117,097
288,457	0,655	234,270	116,937
289,472	0,843	233,998	116,937
290,487	0,950	233,922	116,972
291,501	0,699	233,815	116,713
292,516	0,747	233,593	116,629
293,530	1,037	233,484	116,789
294,545	0,853	233,379	116,584
295,560	0,811	233,171	116,437
296,574	0,754	233,100	116,347
297,589	0,873	232,835	116,296
298,603	0,660	232,797	116,102
299,618	0,923	232,594	116,194
300,633	0,858	232,435	116,054
301,647	0,822	232,323	115,960
302,662	1,236	232,215	116,214
303,676	1,117	231,978	115,994
304,691	1,109	231,930	115,953
305,706	1,135	231,756	115,876
306,720	0,845	231,557	115,544
307,735	1,065	231,345	115,596
308,749	1,080	231,268	115,559
309,764	1,084	231,193	115,514
310,779	1,025	230,881	115,303
311,793	1,093	230,706	115,257
312,808	1,057	230,648	115,191
313,822	0,841	230,558	114,970
314,837	1,005	230,274	114,944
315,852	1,057	230,249	114,961
316,866	0,937	230,169	114,819
317,881	1,098	229,958	114,826
318,895	0,935	229,794	114,609
319,910	1,083	229,625	114,628
320,925	0,952	229,515	114,463
321,939	1,012	229,353	114,418
322,954	1,016	229,219	114,344
323,968	0,901	229,144	114,209
324,983	0,989	228,985	114,186
325,997	0,981	228,760	114,057
327,012	0,981	228,648	113,991
328,027	1,105	228,497	113,999
329,041	1,017	228,362	113,856
330,056	1,104	228,077	113,769
331,070	0,857	228,039	113,553
332,085	1,040	227,803	113,564
333,100	0,913	227,807	113,460
334,114	0,942	227,547	113,342
335,129	1,022	227,354	113,296
336,143	0,958	227,275	113,199
337,158	1,185	227,151	113,297
338,173	1,119	226,994	113,159
339,187	1,095	226,942	113,106
340,202	1,225	226,684	113,064
341,216	0,949	226,686	112,848
342,231	0,999	226,382	112,725
343,246	1,057	226,278	112,706
344,260	1,240	226,100	112,744
345,275	1,172	226,096	112,681
346,289	1,404	225,800	112,696
347,304	1,352	225,765	112,630
348,319	1,188	225,648	112,439
349,333	1,071	225,444	112,240
350,348	1,311	225,230	112,302
351,362	1,166	225,146	112,143
352,377	1,079	225,121	112,056
353,392	1,106	225,070	112,040
354,406	1,333	224,759	112,044
355,421	192,548	1313,246	1381,290
356,435	154,223	1445,720	1381,139
