DTS Sentinel unit serial number:	SN410029Multiplexer serial number:	ORYXHardware model number:	OX2-SRSoftware version number:	ORYX F/W v4,00 Oryx Data Collector v3.7.2.0data status	okinstallation	B5 Nyhavnadifferential loss correction	single-endedforward channel	channel 2reverse channel	N/Adate	2023/12/13time	13:22:13forward acquisition time	300,00reverse acquisition time	0,00gamma	499,1914k internal	0,3161k external	0,3161temperature offset calibration	1,0000default loss term (dB/km)	0,3820temperature slope calibration	1,0000multiplexer offset coefficient	1,0000multiplexer slope coefficient	1,0000fibre end	0,00T internal ref (°C)	14,54T ext. ref 1 (°C)	-1,28T ext. ref 2 (°C)	-1,53length (m)	temperature (°C)	Stokes	anti-Stokes-744,400	13,419	0,032	0,018
-743,385	-129,735	-0,279	0,028
-742,371	-91,229	0,194	0,041
-741,356	-188,004	-0,236	-0,002
-740,342	-200,000	-0,038	0,140
-739,327	-19,638	-0,410	0,186
-738,312	151,629	0,063	0,063
-737,298	-94,324	-0,310	-0,062
-736,283	-200,000	-0,002	-0,021
-735,269	-40,922	-0,264	-0,100
-734,254	15,214	0,082	0,047
-733,239	-1,383	-0,512	-0,265
-732,225	-78,241	0,267	0,067
-731,210	212,318	-0,064	-0,074
-730,196	800,000	0,041	0,086
-729,181	-200,000	-0,002	-0,061
-728,167	161,354	-0,021	-0,021
-727,152	-200,000	0,008	-0,081
-726,137	-87,055	-0,178	-0,039
-725,123	106,864	-0,142	-0,124
-724,108	373,064	0,029	-0,044
-723,094	-200,000	-0,022	-0,091
-722,079	278,608	-0,014	-0,019
-721,064	800,000	-0,010	0,030
-720,050	-104,311	0,080	-0,014
-719,035	610,696	-0,018	-0,033
-718,021	487,350	-0,049	-0,082
-717,006	-141,584	0,065	0,005
-715,991	800,000	-0,069	-0,169
-714,977	-175,286	-0,198	-0,004
-713,962	425,291	0,053	-0,084
-712,948	337,589	0,029	0,041
-711,933	-200,000	0,017	-0,081
-710,918	-45,250	0,091	-0,033
-709,904	-12,472	0,018	-0,009
-708,889	-200,000	0,012	0,073
-707,875	-57,017	0,058	-0,019
-706,860	-43,817	0,030	-0,011
-705,845	210,452	-0,056	0,065
-704,831	-200,000	-0,027	0,112
-703,816	800,000	0,059	0,171
-702,802	800,000	-0,033	-0,070
-701,787	-90,075	-0,082	-0,017
-700,772	-68,914	-0,061	-0,017
-699,758	163,747	0,104	0,108
-698,743	213,864	-0,057	-0,067
-697,729	397,808	-0,072	-0,111
-696,714	148,285	-0,020	0,020
-695,699	-200,000	-0,023	-0,123
-694,685	-16,870	0,032	0,015
-693,670	270,670	-0,055	-0,072
-692,656	-106,373	-0,021	-0,003
-691,641	-28,114	0,039	-0,017
-690,627	41,116	-0,110	0,073
-689,612	-200,000	-0,002	0,096
-688,597	-78,750	-0,124	-0,031
-687,583	289,010	0,035	-0,046
-686,568	-87,838	-0,082	0,018
-685,554	-29,707	-0,174	-0,073
-684,539	800,000	-0,031	-0,096
-683,524	235,630	-0,040	-0,049
-682,510	-200,000	0,006	-0,068
-681,495	159,209	-0,066	-0,068
-680,481	-71,635	-0,114	-0,031
-679,466	800,000	-0,060	-0,188
-678,451	-200,000	0,052	-0,169
-677,437	-101,794	0,144	0,025
-676,422	109,686	-0,123	-0,108
-675,408	231,208	0,052	0,063
-674,393	98,008	0,073	0,062
-673,378	-200,000	-0,009	-0,045
-672,364	-140,000	0,125	-0,010
-671,349	800,000	0,039	-0,081
-670,335	-200,000	0,006	0,024
-669,320	-66,588	0,097	-0,028
-668,305	800,000	0,021	-0,053
-667,291	-68,658	0,153	0,043
-666,276	-200,000	-0,000	-0,057
-665,262	-200,000	0,048	-0,198
-664,247	-112,678	-0,204	0,029
-663,232	236,632	0,037	0,045
-662,218	-50,491	-0,099	-0,034
-661,203	-200,000	-0,004	0,087
-660,189	-131,576	0,103	0,010
-659,174	-40,382	-0,163	-0,062
-658,159	-200,000	-0,011	-0,149
-657,145	55,282	-0,081	0,057
-656,130	800,000	0,059	0,140
-655,116	-200,000	-0,008	-0,046
-654,101	0,987	0,120	0,063
-653,086	-7,325	0,049	-0,024
-652,072	-112,563	-0,135	0,020
-651,057	-89,808	-0,166	0,035
-650,043	-158,874	-0,115	0,005
-649,028	-6,642	-0,065	-0,032
-648,014	14,321	0,074	-0,042
-646,999	-200,000	-0,033	-0,111
-645,984	210,040	-0,064	0,074
-644,970	-62,720	-0,052	0,016
-643,955	-200,000	-0,004	0,067
-642,941	438,321	0,029	-0,047
-641,926	-25,602	0,042	-0,018
-640,911	-95,256	-0,056	-0,011
-639,897	32,021	0,130	-0,082
-638,882	-200,000	0,015	0,068
-637,868	-80,932	0,049	0,012
-636,853	-71,606	-0,188	-0,051
-635,838	479,723	-0,082	-0,137
-634,824	-131,021	0,053	-0,005
-633,809	363,156	-0,067	-0,099
-632,795	800,000	-0,035	0,077
-631,780	392,395	0,059	0,090
-630,765	185,173	-0,077	-0,084
-629,751	-200,000	0,008	-0,110
-628,736	-200,000	0,000	-0,104
-627,722	45,005	-0,128	-0,086
-626,707	-161,314	-0,109	-0,004
-625,692	-200,000	-0,001	0,018
-624,678	-200,000	-0,034	0,113
-623,663	129,805	-0,073	-0,068
-622,649	-62,422	0,109	0,033
-621,634	526,330	-0,055	-0,095
-620,619	800,000	0,020	0,046
-619,605	156,344	-0,046	-0,046
-618,590	5,200	-0,059	-0,032
-617,576	3,339	0,055	-0,029
-616,561	-200,000	-0,035	-0,138
-615,546	242,089	-0,101	-0,124
-614,532	-169,465	0,072	0,002
-613,517	-177,096	-0,074	-0,001
-612,503	-74,730	-0,110	-0,029
-611,488	-86,163	0,039	0,009
-610,474	771,576	0,054	0,108
-609,459	800,000	-0,006	0,018
-608,444	800,000	0,073	-0,193
-607,430	58,568	0,024	-0,018
-606,415	800,000	0,008	-0,019
-605,401	800,000	0,016	0,039
-604,386	-200,000	0,007	-0,106
-603,371	-78,889	-0,112	0,028
-602,357	-166,901	-0,108	-0,003
-601,342	70,173	-0,091	-0,069
-600,328	-10,820	-0,094	0,045
-599,313	299,794	-0,083	0,112
-598,298	-130,543	0,116	-0,011
-597,284	-55,325	-0,141	-0,046
-596,269	-96,927	0,088	-0,017
-595,255	-200,000	0,004	-0,100
-594,240	255,795	-0,048	-0,060
-593,225	-85,512	-0,097	0,022
-592,211	321,093	-0,017	-0,024
-591,196	-59,598	0,104	-0,032
-590,182	44,808	-0,081	-0,055
-589,167	-0,866	-0,030	-0,016
-588,152	-110,220	-0,140	0,021
-587,138	800,000	0,016	-0,040
-586,123	-133,720	0,085	-0,008
-585,109	337,476	-0,041	-0,058
-584,094	-200,000	0,000	-0,145
-583,079	109,826	-0,038	0,034
-582,065	800,000	0,017	0,034
-581,050	-200,000	0,002	0,075
-580,036	800,000	-0,045	-0,129
-579,021	682,781	-0,029	0,056
-578,006	-200,000	0,014	-0,100
-576,992	-108,873	0,096	-0,015
-575,977	-200,000	0,042	0,246
-574,963	800,000	0,088	0,200
-573,948	47,358	0,068	0,046
-572,934	-200,000	0,016	-0,171
-571,919	800,000	-0,063	-0,137
-570,904	133,709	-0,075	-0,071
-569,890	2,235	0,063	-0,033
-568,875	-200,000	-0,020	0,133
-567,861	-200,000	0,047	0,182
-566,846	-200,000	0,022	0,174
-565,831	-83,229	-0,214	0,050
-564,817	50,749	0,046	-0,032
-563,802	9,897	-0,080	0,044
-562,788	33,203	0,062	0,039
-561,773	-7,159	-0,091	-0,045
-560,758	52,770	0,081	0,057
-559,744	-200,000	-0,028	-0,107
-558,729	-200,000	-0,019	-0,113
-557,715	-200,000	0,024	-0,102
-556,700	-139,703	-0,139	0,011
-555,685	114,839	0,126	-0,112
-554,671	-15,211	-0,060	-0,028
-553,656	113,232	-0,077	0,069
-552,642	-200,000	0,030	0,188
-551,627	318,098	-0,075	0,104
-550,612	800,000	0,019	0,041
-549,598	-152,815	0,088	-0,004
-548,583	109,330	0,079	-0,069
-547,569	194,185	-0,072	0,080
-546,554	-200,000	-0,022	0,091
-545,539	212,474	0,047	-0,054
-544,525	595,354	0,027	-0,050
-543,510	135,728	-0,106	0,101
-542,496	-200,000	-0,016	-0,097
-541,481	800,000	-0,023	-0,068
-540,466	48,394	-0,051	0,035
-539,452	800,000	0,035	0,106
-538,437	-200,000	0,010	-0,038
-537,423	737,118	0,084	0,166
-536,408	-25,585	-0,075	0,032
-535,393	310,430	0,074	-0,101
-534,379	465,985	0,049	0,080
-533,364	-200,000	-0,024	0,092
-532,350	-102,092	0,149	0,026
-531,335	-200,000	-0,009	0,034
-530,321	-66,159	0,130	-0,037
-529,306	-200,000	-0,013	0,059
-528,291	309,348	0,064	0,088
-527,277	-200,000	-0,017	-0,098
-526,262	-200,000	-0,008	0,034
-525,248	27,921	0,042	0,026
-524,233	-65,529	0,208	-0,060
-523,218	623,117	0,051	-0,094
-522,204	800,000	-0,025	0,077
-521,189	800,000	0,033	0,069
-520,175	124,959	0,004	0,004
-519,160	295,769	0,019	-0,025
-518,145	-200,000	-0,004	-0,110
-517,131	336,183	0,045	0,064
-516,116	-123,950	0,266	-0,030
-515,102	206,118	0,069	0,078
-514,087	60,030	-0,092	-0,066
-513,072	135,617	-0,016	0,015
-512,058	212,411	-0,086	-0,100
-511,043	-200,000	-0,012	-0,065
-510,029	800,000	-0,036	0,110
-509,014	-200,000	0,006	0,033
-507,999	-102,335	-0,039	0,007
-506,985	10,515	-0,051	-0,028
-505,970	-200,000	0,008	0,029
-504,956	-200,000	0,004	-0,033
-503,941	800,000	-0,022	0,069
-502,926	-82,776	-0,056	0,013
-501,912	800,000	0,047	0,134
-500,897	280,643	0,043	-0,056
-499,883	-200,000	0,003	0,041
-498,868	-49,896	0,014	0,005
-497,853	-200,000	0,002	-0,046
-496,839	-200,000	0,011	-0,179
-495,824	-200,000	0,002	0,013
-494,810	-200,000	0,006	0,059
-493,795	532,786	-0,038	0,066
-492,781	800,000	-0,060	-0,148
-491,766	489,828	0,057	-0,096
-490,751	-200,000	0,012	-0,072
-489,737	70,371	-0,063	-0,047
-488,722	304,653	0,082	-0,111
-487,708	-200,000	-0,005	-0,034
-486,693	-18,686	-0,072	0,032
-485,678	-0,648	-0,072	0,037
-484,664	-200,000	0,022	-0,083
-483,649	-200,000	-0,011	0,056
-482,635	75,561	-0,030	-0,023
-481,620	54,728	0,075	-0,053
-480,605	-66,929	0,040	0,011
-479,591	153,576	0,123	0,123
-478,576	-200,000	-0,034	0,135
-477,562	416,107	-0,093	-0,145
-476,547	-200,000	0,001	-0,061
-475,532	-47,819	-0,058	-0,020
-474,518	25,713	0,010	0,006
-473,503	-200,000	-0,035	0,122
-472,489	-200,000	0,022	0,090
-471,474	-200,000	0,008	0,049
-470,459	-200,000	0,034	-0,119
-469,445	-64,956	-0,128	0,037
-468,430	284,628	0,050	-0,066
-467,416	800,000	-0,026	-0,084
-466,401	95,526	0,029	0,024
-465,386	389,899	0,100	0,152
-464,372	-200,000	0,003	0,130
-463,357	610,655	0,030	-0,055
-462,343	-110,290	0,040	-0,006
-461,328	-96,403	0,030	-0,006
-460,313	243,278	0,103	-0,126
-459,299	107,633	0,093	0,080
-458,284	28,083	-0,134	-0,082
-457,270	381,382	0,043	-0,064
-456,255	-200,000	0,006	-0,111
-455,241	-127,919	-0,110	0,011
-454,226	-71,687	0,134	0,036
-453,211	-200,000	-0,028	-0,167
-452,197	18,042	0,152	0,088
-451,182	628,411	0,072	0,132
-450,168	-200,000	0,001	0,005
-449,153	-18,882	-0,052	-0,023
-448,138	800,000	0,034	-0,085
-447,124	800,000	-0,011	-0,031
-446,109	141,388	0,071	0,069
-445,095	-200,000	0,038	0,131
-444,080	800,000	-0,041	0,122
-443,065	72,371	-0,068	0,052
-442,051	-72,256	-0,082	-0,022
-441,036	800,000	-0,047	-0,108
-440,022	-51,811	-0,070	-0,023
-439,007	714,151	0,042	0,081
-437,992	349,674	0,008	0,012
-436,978	5,672	0,016	-0,008
-435,963	46,756	0,089	-0,060
-434,949	-200,000	0,029	-0,096
-433,934	-14,817	-0,046	0,022
-432,919	-200,000	0,011	-0,135
-431,905	-2,095	-0,094	0,048
-430,890	-123,528	0,112	-0,013
-429,876	-32,768	0,093	-0,037
-428,861	-36,147	-0,071	-0,028
-427,846	-200,000	-0,001	-0,019
-426,832	-101,501	-0,024	-0,004
-425,817	66,004	-0,095	0,070
-424,803	42,027	-0,105	-0,069
-423,788	-149,526	0,050	0,003
-422,773	800,000	0,070	0,154
-421,759	-200,000	0,005	-0,057
-420,744	800,000	-0,006	0,012
-419,730	34,332	0,119	0,076
-418,715	180,713	-0,094	-0,101
-417,701	18,163	0,051	-0,030
-416,686	129,251	0,057	-0,053
-415,671	800,000	0,042	0,122
-414,657	343,297	-0,101	-0,144
-413,642	9,432	0,078	0,043
-412,628	-200,000	-0,024	0,124
-411,613	-137,446	-0,157	-0,013
-410,598	6,671	0,125	0,067
-409,584	51,395	0,087	0,060
-408,569	-1,030	0,084	-0,043
-407,555	-56,067	0,140	-0,045
-406,540	800,000	-0,043	-0,111
-405,525	415,955	0,057	0,089
-404,511	-200,000	-0,017	-0,074
-403,496	-200,000	-0,025	-0,093
-402,482	217,106	-0,045	0,052
-401,467	800,000	-0,061	0,166
-400,452	85,638	-0,026	-0,020
-399,438	226,611	0,041	0,049
-398,423	517,778	-0,048	-0,082
-397,409	-123,110	0,071	0,008
-396,394	145,616	0,102	-0,099
-395,379	121,739	-0,038	0,035
-394,365	-3,050	0,047	-0,024
-393,350	94,140	-0,055	-0,045
-392,336	-113,274	0,044	0,006
-391,321	218,612	0,045	-0,053
-390,306	89,405	0,096	-0,078
-389,292	731,208	0,028	-0,055
-388,277	381,171	-0,032	0,048
-387,263	219,481	0,079	-0,091
-386,248	589,234	0,067	0,121
-385,233	222,298	0,094	0,111
-384,219	-138,561	-0,136	-0,011
-383,204	-51,457	-0,062	-0,021
-382,190	-2,714	0,014	0,007
-381,175	169,103	-0,031	0,032
-380,160	79,491	-0,096	-0,075
-379,146	123,362	0,160	0,145
-378,131	-86,160	0,057	-0,013
-377,117	-155,955	-0,051	0,002
-376,102	-200,000	0,016	-0,199
-375,088	156,653	0,043	-0,043
-374,073	-166,308	-0,055	-0,002
-373,058	263,206	-0,044	0,055
-372,044	-148,070	0,051	0,003
-371,029	-22,825	-0,032	0,014
-370,015	800,000	0,017	0,035
-369,000	7,401	0,107	-0,058
-367,985	110,651	-0,087	-0,076
-366,971	112,336	-0,051	-0,045
-365,956	-63,866	0,086	0,025
-364,942	-25,370	-0,037	0,016
-363,927	-160,274	-0,089	0,003
-362,912	301,365	-0,044	-0,059
-361,898	234,415	-0,063	-0,075
-360,883	-200,000	0,000	0,021
-359,869	743,018	-0,017	0,034
-358,854	602,797	0,040	-0,073
-357,839	66,674	0,052	0,038
-356,825	324,279	0,082	0,114
-355,810	474,350	0,040	-0,065
-354,796	-62,231	-0,095	-0,029
-353,781	121,565	0,066	-0,060
-352,766	-78,211	0,062	-0,015
-351,752	702,090	0,078	0,149
-350,737	40,841	0,117	0,076
-349,723	800,000	0,011	-0,030
-348,708	274,281	-0,099	0,128
-347,693	51,291	-0,102	-0,070
-346,679	235,306	-0,072	-0,087
-345,664	-200,000	-0,012	-0,163
-344,650	-200,000	-0,002	-0,168
-343,635	-200,000	0,019	-0,093
-342,620	-200,000	-0,014	0,072
-341,606	-200,000	-0,009	0,072
-340,591	800,000	0,104	0,210
-339,577	167,279	-0,059	0,061
-338,562	800,000	-0,036	-0,073
-337,548	800,000	-0,015	-0,044
-336,533	-78,990	-0,132	0,032
-335,518	-91,400	-0,040	0,008
-334,504	24,413	-0,140	0,084
-333,489	800,000	-0,045	0,136
-332,475	-44,712	-0,082	0,030
-331,460	-1,851	0,018	0,009
-330,445	399,469	0,029	-0,044
-329,431	-173,091	0,026	-0,001
-328,416	717,242	0,083	0,161
-327,402	-36,943	0,152	0,059
-326,387	-50,203	-0,122	0,042
-325,372	231,021	-0,077	0,091
-324,358	89,514	-0,039	-0,031
-323,343	17,542	-0,053	0,030
-322,329	-180,582	-0,071	-0,001
-321,314	800,000	-0,038	0,100
-320,299	800,000	0,029	0,076
-319,285	149,961	-0,075	-0,074
-318,270	246,808	-0,035	-0,043
-317,256	9,121	0,022	0,012
-316,241	316,539	0,062	0,085
-315,226	800,000	-0,023	0,049
-314,212	213,923	0,100	0,115
-313,197	395,620	0,058	0,088
-312,183	-12,971	-0,169	0,079
-311,168	171,559	0,034	0,036
-310,153	-86,343	-0,133	-0,029
-309,139	-200,000	-0,000	-0,010
-308,124	609,550	0,064	-0,117
-307,110	4,927	0,090	-0,048
-306,095	800,000	0,026	-0,077
-305,080	800,000	-0,018	0,053
-304,066	141,028	-0,113	-0,108
-303,051	-40,515	-0,203	0,076
-302,037	800,000	-0,024	0,073
-301,022	628,732	0,065	-0,119
-300,008	209,278	0,067	-0,076
-298,993	800,000	-0,021	-0,050
-297,978	-52,588	-0,079	-0,026
-296,964	6,015	0,053	-0,028
-295,949	117,458	0,076	0,068
-294,935	562,793	0,069	-0,121
-293,920	-147,142	-0,090	0,005
-292,905	-141,368	0,050	0,004
-291,891	222,097	0,035	-0,040
-290,876	-200,000	-0,004	0,048
-289,862	173,348	-0,038	-0,040
-288,847	-200,000	-0,032	-0,215
-287,832	204,688	-0,048	-0,054
-286,818	-200,000	0,007	-0,108
-285,803	-200,000	-0,023	0,099
-284,789	685,378	0,120	0,227
-283,774	90,365	-0,054	0,044
-282,759	145,785	-0,109	0,106
-281,745	-200,000	0,005	0,057
-280,730	800,000	0,096	-0,208
-279,716	46,921	0,088	-0,059
-278,701	-40,879	-0,055	0,020
-277,686	800,000	0,029	0,078
-276,672	-200,000	-0,002	0,134
-275,657	800,000	0,010	-0,023
-274,643	800,000	-0,030	-0,088
-273,628	361,438	0,034	0,049
-272,613	-125,855	0,066	-0,007
-271,599	-127,228	0,053	0,006
-270,584	4,472	0,090	0,047
-269,570	106,438	0,069	0,059
-268,555	-200,000	0,006	0,045
-267,540	34,833	0,065	-0,041
-266,526	-200,000	0,001	-0,103
-265,511	-61,952	-0,050	-0,015
-264,497	-132,633	0,067	0,006
-263,482	242,351	-0,049	0,060
-262,467	-200,000	-0,022	0,074
-261,453	800,000	0,027	0,069
-260,438	-200,000	0,019	0,076
-259,424	-200,000	0,038	-0,126
-258,409	-200,000	-0,006	0,097
-257,395	-200,000	0,013	-0,123
-256,380	-27,626	0,034	0,014
-255,365	738,265	0,061	-0,120
-254,351	-41,193	-0,027	-0,010
-253,336	207,369	-0,038	-0,042
-252,322	-103,464	-0,017	0,003
-251,307	147,215	-0,116	-0,113
-250,292	-37,573	-0,021	0,008
-249,278	-27,138	0,120	0,050
-248,263	107,228	-0,065	0,056
-247,249	-10,718	0,039	0,019
-246,234	-59,461	-0,101	0,031
-245,219	-144,506	-0,076	0,005
-244,205	-200,000	0,011	0,049
-243,190	110,230	0,038	0,033
-242,176	305,516	0,093	0,125
-241,161	800,000	-0,034	0,096
-240,146	-53,297	-0,099	-0,033
-239,132	800,000	-0,032	0,063
-238,117	74,562	-0,115	0,087
-237,103	3,761	0,105	0,055
-236,088	-111,936	0,095	-0,014
-235,073	-46,713	0,048	-0,017
-234,059	-200,000	-0,006	0,148
-233,044	251,373	0,037	0,045
-232,030	25,860	0,035	-0,021
-231,015	65,920	-0,103	-0,076
-230,000	800,000	-0,044	-0,108
-228,986	269,334	0,041	-0,052
-227,971	-154,142	-0,093	-0,004
-226,957	-21,189	-0,029	-0,013
-225,942	-1,113	0,029	0,015
-224,927	366,309	-0,034	0,050
-223,913	334,064	-0,021	-0,029
-222,898	262,990	-0,049	-0,061
-221,884	-60,682	0,040	-0,012
-220,869	31,284	-0,072	-0,044
-219,855	248,265	0,050	0,062
-218,840	-200,000	0,028	0,111
-217,825	96,325	-0,025	0,021
-216,811	219,178	0,074	-0,085
-215,796	-117,176	-0,068	0,009
-214,782	-200,000	0,007	0,027
-213,767	800,000	0,022	0,066
-212,752	-200,000	0,005	0,046
-211,738	-200,000	0,006	0,080
-210,723	-200,000	-0,015	0,082
-209,709	-94,034	0,108	0,021
-208,694	-105,500	-0,163	0,026
-207,679	-84,844	-0,194	-0,044
-206,665	-135,586	0,137	-0,012
-205,650	328,454	0,035	0,049
-204,636	800,000	0,057	0,159
-203,621	382,800	0,065	0,096
-202,606	800,000	-0,050	-0,107
-201,592	-200,000	0,001	-0,086
-200,577	800,000	-0,006	0,018
-199,563	800,000	0,073	0,163
-198,548	800,000	0,039	-0,124
-197,533	-107,269	-0,202	-0,032
-196,519	99,023	0,133	0,111
-195,504	637,727	0,013	0,025
-194,490	-200,000	0,021	-0,195
-193,475	330,594	0,047	-0,065
-192,460	237,241	-0,058	-0,069
-191,446	-72,006	0,144	0,038
-190,431	788,717	0,047	-0,093
-189,417	162,068	-0,078	0,079
-188,402	800,000	0,043	0,099
-187,387	435,310	-0,016	-0,026
-186,373	800,000	-0,014	0,032
-185,358	-33,584	0,084	-0,033
-184,344	274,365	0,031	0,040
-183,329	-200,000	0,011	0,102
-182,315	-200,000	-0,003	-0,164
-181,300	-66,626	0,084	-0,024
-180,285	167,714	-0,020	0,021
-179,271	250,275	0,034	-0,041
-178,256	800,000	-0,024	0,069
-177,242	145,368	-0,016	0,016
-176,227	466,344	0,098	0,159
-175,212	-24,818	-0,053	-0,023
-174,198	322,241	0,083	0,115
-173,183	10,957	0,034	-0,019
-172,169	-126,686	0,044	-0,005
-171,154	57,553	-0,023	0,016
-170,139	-57,083	-0,017	0,005
-169,125	-200,000	0,042	-0,183
-168,110	800,000	0,048	0,111
-167,096	5,125	-0,065	0,034
-166,081	-61,340	0,064	-0,019
-165,066	800,000	-0,025	0,061
-164,052	-200,000	-0,025	-0,085
-163,037	111,349	0,118	-0,102
-162,023	269,633	0,041	0,051
-161,008	84,503	0,072	0,056
-159,993	25,817	-0,135	-0,080
-158,979	-44,241	-0,048	-0,017
-157,964	62,541	-0,118	-0,085
-156,950	-200,000	-0,012	-0,124
-155,935	-59,597	-0,139	-0,043
-154,920	53,268	0,062	0,043
-153,906	-200,000	0,010	0,131
-152,891	29,787	-0,095	0,058
-151,877	-200,000	-0,000	-0,088
-150,862	-167,088	0,025	0,001
-149,847	800,000	-0,027	0,072
-148,833	64,494	-0,126	-0,092
-147,818	329,377	-0,035	-0,049
-146,804	-200,000	-0,002	0,025
-145,789	-21,265	0,090	0,039
-144,775	44,318	-0,082	0,054
-143,760	-122,841	-0,118	0,014
-142,745	-29,205	-0,095	0,039
-141,731	144,604	0,033	-0,031
-140,716	-200,000	0,033	0,170
-139,702	800,000	-0,010	-0,021
-138,687	-112,620	0,070	-0,010
-137,672	589,382	0,041	-0,073
-136,658	22,020	-0,057	-0,033
-135,643	800,000	-0,032	-0,094
-134,629	-0,422	0,063	0,032
-133,614	385,142	0,093	0,138
-132,599	311,876	0,050	0,068
-131,585	182,822	-0,088	0,093
-130,570	484,695	-0,064	-0,104
-129,556	-200,000	-0,023	0,139
-128,541	-200,000	-0,007	0,037
-127,526	-114,954	-0,024	0,003
-126,512	-66,573	-0,023	-0,006
-125,497	-92,647	0,186	0,037
-124,483	124,745	0,043	0,039
-123,468	800,000	-0,011	0,033
-122,453	63,801	0,004	0,003
-121,439	450,948	-0,064	0,103
-120,424	551,165	0,042	-0,073
-119,410	800,000	0,114	-0,276
-118,395	-58,604	-0,108	0,033
-117,380	-200,000	-0,008	0,164
-116,366	-200,000	0,002	-0,021
-115,351	416,800	-0,034	-0,053
-114,337	-200,000	0,044	-0,140
-113,322	132,642	-0,055	-0,051
-112,307	-42,856	0,087	-0,032
-111,293	-6,324	0,095	0,047
-110,278	-200,000	-0,007	0,027
-109,264	164,025	-0,075	-0,076
-108,249	239,404	0,085	-0,102
-107,234	55,371	-0,040	-0,027
-106,220	800,000	-0,039	-0,081
-105,205	-200,000	-0,020	0,081
-104,191	-157,674	-0,062	-0,003
-103,176	7,149	0,085	-0,045
-102,162	239,074	-0,082	0,098
-101,147	-17,181	-0,084	0,038
-100,132	62,480	-0,131	-0,094
-99,118	-83,872	-0,035	-0,008
-98,103	-200,000	0,003	-0,132
-97,089	-200,000	-0,002	-0,048
-96,074	-122,810	0,060	-0,007
-95,059	-79,300	0,047	-0,011
-94,045	378,559	-0,059	-0,087
-93,030	-200,000	0,047	-0,180
-92,016	-200,000	-0,011	-0,114
-91,001	800,000	-0,013	-0,037
-89,986	-111,879	0,117	0,017
-88,972	-200,000	-0,008	-0,064
-87,957	75,123	-0,072	0,054
-86,943	478,336	-0,020	0,032
-85,928	-200,000	0,012	0,088
-84,913	16,876	-0,047	-0,027
-83,899	-57,529	-0,060	0,019
-82,884	-200,000	0,014	-0,056
-81,870	54,317	0,070	0,049
-80,855	-200,000	0,008	-0,051
-79,840	287,832	-0,075	-0,098
-78,826	100,539	-0,032	-0,027
-77,811	82,020	0,032	0,025
-76,797	302,398	-0,023	0,031
-75,782	-200,000	0,032	-0,132
-74,767	800,000	-0,085	0,195
-73,753	-125,273	0,073	0,008
-72,738	117,449	-0,037	0,033
-71,724	-46,614	-0,128	0,045
-70,709	51,621	-0,126	-0,086
-69,694	122,190	0,044	-0,040
-68,680	58,269	-0,044	0,031
-67,665	-156,637	-0,090	-0,004
-66,651	-200,000	-0,036	0,146
-65,636	167,217	0,044	0,045
-64,622	-163,476	-0,047	0,002
-63,607	136,435	-0,069	-0,064
-62,592	-111,536	0,107	-0,015
-61,578	-15,925	-0,077	0,035
-60,563	323,921	0,037	0,051
-59,549	333,588	-0,045	0,063
-58,534	3,661	-2,068	-1,078
-57,519	-200,000	-0,177	-0,749
-56,505	-200,000	-1,336	-4,968
-55,490	120,067	0,806	0,717
-54,476	800,000	5,208	11,952
-53,461	-200,000	17,882	295,337
-52,446	800,000	730,941	2250,408
-51,432	540,819	1647,101	2823,046
-50,417	108,992	1636,456	1402,525
-49,403	73,762	1287,133	966,052
-48,388	31,020	1027,224	629,808
-47,373	19,943	989,174	569,982
-46,359	17,987	976,936	556,504
-45,344	14,857	973,021	544,021
-44,330	15,140	971,558	544,106
-43,315	14,587	969,643	541,208
-42,300	14,544	968,480	540,397
-41,286	14,587	967,525	539,982
-40,271	14,570	966,511	539,339
-39,257	14,646	965,550	539,028
-38,242	14,602	964,712	538,398
-37,227	14,600	963,800	537,860
-36,213	14,588	962,999	537,354
-35,198	14,580	962,109	536,810
-34,184	14,628	961,451	536,577
-33,169	14,578	960,248	535,721
-32,154	14,617	959,540	535,430
-31,140	14,553	958,578	534,665
-30,125	14,594	957,986	534,448
-29,111	14,537	957,098	533,747
-28,096	14,574	956,553	533,542
-27,082	14,595	955,809	533,173
-26,067	14,534	955,026	532,517
-25,052	14,568	954,114	532,098
-24,038	14,511	953,735	531,682
-23,023	14,552	952,852	531,302
-22,009	14,556	952,352	531,014
-20,994	14,628	951,537	530,769
-19,979	14,538	951,057	530,193
-18,965	14,578	950,285	529,868
-17,950	14,588	949,753	529,584
-16,936	14,485	949,255	528,955
-15,921	14,514	948,557	528,639
-14,906	14,510	947,536	528,035
-13,892	14,465	947,155	527,658
-12,877	14,452	946,395	527,173
-11,863	14,429	945,850	526,776
-10,848	14,469	945,199	526,520
-9,833	14,540	944,972	526,598
-8,819	14,514	944,049	525,978
-7,804	14,564	943,333	525,719
-6,790	14,472	942,929	525,181
-5,775	14,474	942,427	524,886
-4,760	14,527	941,598	524,572
-3,746	14,450	941,147	524,056
-2,731	14,372	940,297	523,315
-1,717	14,277	939,805	522,721
-0,702	14,353	938,994	522,489
0,313	14,119	938,493	522,262
1,327	17,421	936,309	531,388
2,342	26,534	792,551	473,881
3,356	23,322	457,868	268,848
4,371	-3,441	314,393	156,185
5,386	-7,398	296,296	143,180
6,400	-9,269	290,186	138,360
7,415	-9,883	287,609	136,515
8,429	-9,890	286,108	135,784
9,444	-10,197	285,161	135,024
10,459	-10,218	284,579	134,716
11,473	-10,297	284,123	134,411
12,488	-10,132	283,552	134,289
13,502	-10,361	282,994	133,791
14,517	-10,201	282,513	133,706
15,531	-10,374	282,075	133,320
16,546	-10,192	281,532	133,227
17,561	-10,336	281,267	132,951
18,575	-10,401	280,882	132,695
19,590	-10,444	280,518	132,470
20,604	-10,416	280,285	132,375
21,619	-10,482	279,891	132,114
22,634	-10,446	279,567	131,984
23,648	-10,348	279,120	131,854
24,663	-10,394	278,905	131,697
25,677	-10,537	278,687	131,446
26,692	-10,468	278,444	131,385
27,707	-10,482	278,290	131,288
28,721	-10,507	277,903	131,069
29,736	-10,484	277,535	130,906
30,750	-10,499	277,426	130,830
31,765	-10,510	277,082	130,646
32,780	-10,405	276,949	130,669
33,794	-10,578	276,665	130,361
34,809	-10,532	276,503	130,317
35,823	-10,582	276,054	130,046
36,838	-10,451	275,885	130,078
37,853	-10,557	275,583	129,824
38,867	-10,502	275,393	129,775
39,882	-10,624	275,151	129,534
40,896	-10,634	275,040	129,462
41,911	-10,549	274,654	129,348
42,926	-10,486	274,417	129,284
43,940	-10,454	274,122	129,163
44,955	-10,616	273,924	128,907
45,969	-10,646	273,684	128,755
46,984	-10,740	273,440	128,541
47,999	-11,000	273,194	128,172
49,013	-11,164	272,958	127,897
50,028	-11,346	272,528	127,516
51,042	-11,384	272,334	127,378
52,057	-11,240	271,952	127,321
53,071	-11,362	272,006	127,222
54,086	-11,169	271,846	127,314
55,101	-11,241	271,685	127,161
56,115	-10,942	271,565	127,370
57,130	-10,341	271,289	127,785
58,144	-10,203	271,201	127,859
59,159	-10,082	270,901	127,818
60,174	-10,166	270,658	127,615
61,188	-10,433	270,638	127,347
62,203	-10,401	270,233	127,175
63,217	-10,471	270,178	127,074
64,232	-10,422	269,754	126,909
65,247	-10,220	269,568	126,994
66,261	-10,358	269,285	126,723
67,276	-10,503	268,919	126,407
68,290	-10,676	268,764	126,165
69,305	-10,761	268,610	126,004
70,320	-10,733	268,293	125,869
71,334	-10,548	268,222	125,993
72,349	-10,291	268,012	126,117
73,363	-10,382	267,951	125,995
74,378	-10,276	267,731	125,977
75,393	-10,428	267,421	125,682
76,407	-10,297	267,155	125,664
77,422	-10,482	266,920	125,375
78,436	-10,384	266,736	125,366
79,451	-10,259	266,570	125,390
80,466	-10,476	266,212	125,014
81,480	-10,333	265,829	124,952
82,495	-10,478	265,740	124,768
83,509	-10,498	265,581	124,665
84,524	-10,475	265,318	124,551
85,539	-10,593	265,086	124,325
86,553	-10,632	264,921	124,201
87,568	-10,459	264,764	124,272
88,582	-10,631	264,397	123,934
89,597	-10,619	264,403	123,937
90,611	-10,383	264,238	124,060
91,626	-10,222	264,074	124,116
92,641	-10,307	263,820	123,910
93,655	-10,279	263,534	123,789
94,670	-10,363	263,226	123,558
95,684	-10,331	263,242	123,583
96,699	-10,472	262,969	123,319
97,714	-10,341	262,776	123,334
98,728	-10,644	262,564	122,953
99,743	-10,706	262,404	122,812
100,757	-10,909	262,168	122,511
101,772	-10,632	262,067	122,699
102,787	-10,491	261,766	122,672
103,801	-10,536	261,641	122,562
104,816	-10,324	261,401	122,627
105,830	-10,396	261,274	122,493
106,845	-10,380	261,048	122,390
107,860	-10,428	260,982	122,306
108,874	-10,163	260,580	122,340
109,889	-10,469	260,584	122,061
110,903	-10,203	260,062	122,039
111,918	-10,397	260,078	121,866
112,933	-10,282	259,885	121,865
113,947	-10,222	259,729	121,834
114,962	-10,423	259,482	121,531
115,976	-10,444	259,340	121,435
116,991	-10,378	259,106	121,373
118,006	-10,318	258,935	121,334
119,020	-10,291	258,766	121,268
120,035	-10,217	258,625	121,255
121,049	-10,350	258,503	121,071
122,064	-10,295	258,274	121,002
123,079	-10,155	257,995	120,982
124,093	-10,363	257,786	120,692
125,108	-10,666	257,513	120,290
126,122	-10,788	257,438	120,137
127,137	-10,798	256,900	119,867
128,151	-10,764	257,056	119,959
129,166	-10,442	256,681	120,053
130,181	-10,512	256,482	119,889
131,195	-10,733	256,371	119,634
132,210	-10,474	256,299	119,814
133,224	-10,271	256,104	119,889
134,239	-10,289	255,974	119,801
135,254	-10,203	255,787	119,777
136,268	-10,432	255,565	119,465
137,283	-10,632	255,197	119,109
138,297	-10,810	255,045	118,874
139,312	-10,789	254,819	118,777
140,327	-10,621	254,774	118,890
141,341	-10,149	254,552	119,182
142,356	-10,071	254,527	119,226
143,370	-10,178	254,408	119,068
144,385	-10,131	254,252	119,025
145,400	-10,002	253,761	118,894
146,414	-10,021	253,616	118,800
147,429	-10,146	253,476	118,617
148,443	-10,077	253,425	118,641
149,458	-9,985	253,210	118,609
150,473	-10,119	252,988	118,379
151,487	-10,270	252,800	118,152
152,502	-10,149	252,695	118,196
153,516	-10,278	252,503	117,985
154,531	-9,913	252,170	118,130
155,546	-10,041	251,962	117,913
156,560	-10,337	251,934	117,638
157,575	-10,199	251,664	117,619
158,589	-10,169	251,428	117,523
159,604	-10,182	251,327	117,455
160,619	-10,144	251,159	117,397
161,633	-10,151	250,931	117,275
162,648	-10,116	250,830	117,247
163,662	-10,006	250,737	117,286
164,677	-10,123	250,564	117,096
165,692	-10,156	250,443	117,001
166,706	-10,096	250,148	116,903
167,721	-10,122	250,042	116,821
168,735	-10,139	249,868	116,715
169,750	-9,977	249,656	116,742
170,764	-10,056	249,715	116,693
171,779	-9,936	249,500	116,683
172,794	-9,999	249,273	116,514
173,808	-10,071	249,012	116,321
174,823	-10,359	248,604	115,878
175,837	-10,610	248,460	115,590
176,852	-10,139	248,275	115,888
177,867	-9,979	248,317	116,031
178,881	-9,970	248,245	115,995
179,896	-9,911	248,038	115,937
180,910	-10,075	247,857	115,705
181,925	-10,014	247,576	115,614
182,940	-9,830	247,665	115,800
183,954	-10,030	247,357	115,478
184,969	-10,100	247,193	115,333
185,983	-10,109	247,039	115,244
186,998	-9,855	246,730	115,300
188,013	-9,936	246,552	115,140
189,027	-10,032	246,479	115,016
190,042	-9,853	246,418	115,126
191,056	-9,901	246,178	114,963
192,071	-9,704	245,799	114,939
193,086	-9,703	245,628	114,849
194,100	-9,678	245,615	114,854
195,115	-9,879	245,433	114,593
196,129	-9,903	245,162	114,436
197,144	-9,923	245,188	114,421
198,159	-9,862	244,848	114,303
199,173	-9,988	244,755	114,145
200,188	-9,971	244,459	114,011
201,202	-10,171	244,180	113,706
202,217	-10,378	243,992	113,439
203,232	-10,642	243,772	113,111
204,246	-10,274	243,933	113,477
205,261	-9,362	243,812	114,157
206,275	-9,992	243,493	113,483
207,290	-5,961	245,144	117,559
208,304	1,247	247,585	124,690
209,319	4,610	248,159	127,751
210,334	4,789	248,315	127,969
211,348	5,015	248,156	128,062
212,363	5,414	248,059	128,330
213,377	5,472	247,969	128,320
214,392	5,493	247,653	128,162
215,407	5,217	247,510	127,850
216,421	5,231	247,252	127,717
217,436	5,374	247,361	127,879
218,450	5,418	247,177	127,808
219,465	5,364	246,723	127,518
220,480	5,117	246,668	127,275
221,494	4,915	246,592	127,059
222,509	5,104	246,431	127,119
223,523	4,928	246,184	126,837
224,538	4,781	245,920	126,569
225,553	4,739	245,820	126,472
226,567	5,004	245,691	126,611
227,582	4,995	245,604	126,548
228,596	4,920	245,331	126,334
229,611	4,597	245,064	125,922
230,626	4,650	244,903	125,872
231,640	4,700	244,618	125,755
232,655	4,716	244,612	125,753
233,669	4,562	244,451	125,534
234,684	4,612	244,230	125,450
235,699	4,937	244,197	125,686
236,713	5,149	244,136	125,815
237,728	4,894	243,863	125,457
238,742	4,718	243,509	125,121
239,757	4,519	243,353	124,869
240,772	4,646	243,211	124,887
241,786	4,570	243,150	124,784
242,801	4,500	243,049	124,665
243,815	4,618	242,849	124,645
244,830	4,628	242,830	124,632
245,844	4,942	242,636	124,775
246,859	4,659	242,435	124,433
247,874	4,480	242,203	124,159
248,888	4,500	242,042	124,081
249,903	4,888	242,045	124,383
250,917	4,838	241,918	124,267
251,932	5,034	241,872	124,390
252,947	4,835	241,565	124,061
253,961	4,703	241,407	123,863
254,976	4,666	241,233	123,733
255,990	5,011	241,059	123,909
257,005	4,685	240,826	123,518
258,020	4,640	240,596	123,353
259,034	4,818	240,546	123,458
260,049	4,811	240,515	123,425
261,063	4,533	240,164	123,013
262,078	4,620	240,050	123,013
263,093	4,597	240,023	122,969
264,107	4,698	239,966	123,010
265,122	4,812	239,572	122,887
266,136	4,607	239,638	122,748
267,151	4,931	239,530	122,938
268,166	4,447	239,151	122,350
269,180	4,515	239,000	122,316
270,195	5,014	239,069	122,734
271,209	5,468	238,960	123,027
272,224	4,747	238,652	122,288
273,239	4,353	238,198	121,733
274,253	4,411	238,160	121,748
275,268	4,679	238,115	121,927
276,282	4,752	238,035	121,932
277,297	4,567	237,677	121,592
278,312	4,523	237,576	121,495
279,326	4,807	237,487	121,661
280,341	4,629	237,489	121,512
281,355	4,593	237,207	121,329
282,370	4,920	237,138	121,539
283,384	4,919	236,876	121,393
284,399	4,494	236,770	120,995
285,414	4,336	236,627	120,787
286,428	4,526	236,411	120,815
287,443	4,527	236,224	120,709
288,457	4,669	236,271	120,834
289,472	4,799	235,988	120,780
290,487	5,026	235,849	120,876
291,501	4,574	235,595	120,382
292,516	4,539	235,353	120,220
293,530	4,285	235,186	119,926
294,545	4,718	235,222	120,271
295,560	4,645	235,091	120,137
296,574	4,644	234,661	119,905
297,589	4,576	234,686	119,855
298,603	4,971	234,854	120,236
299,618	4,971	234,579	120,085
300,633	4,784	234,396	119,836
301,647	4,740	234,346	119,766
302,662	5,337	234,222	120,153
303,676	5,186	234,026	119,925
304,691	4,888	233,903	119,621
305,706	5,176	233,766	119,763
306,720	5,220	233,541	119,671
307,735	4,836	233,350	119,266
308,749	4,579	233,300	119,033
309,764	4,496	232,982	118,795
310,779	4,422	232,819	118,645
311,793	4,223	232,551	118,346
312,808	4,074	232,428	118,158
313,822	4,211	232,292	118,183
314,837	4,813	232,252	118,613
315,852	4,803	232,141	118,538
316,866	4,692	232,081	118,412
317,881	4,961	231,883	118,507
318,895	5,152	231,796	118,598
319,910	4,922	231,757	118,392
320,925	4,849	231,407	118,146
321,939	4,369	231,221	117,675
322,954	4,663	231,186	117,870
323,968	4,642	230,880	117,688
324,983	4,647	230,890	117,687
325,997	5,179	230,755	118,012
327,012	5,044	230,596	117,818
328,027	4,858	230,468	117,600
329,041	4,963	230,479	117,675
330,056	5,610	230,287	118,057
331,070	5,399	230,229	117,857
332,085	5,129	229,957	117,503
333,100	4,761	229,876	117,173
334,114	4,812	229,543	117,031
335,129	5,136	229,430	117,207
336,143	5,336	229,355	117,310
337,158	5,192	229,192	117,107
338,173	4,964	228,869	116,760
339,187	4,647	228,890	116,521
340,202	4,699	228,760	116,484
341,216	5,013	228,615	116,636
342,231	5,007	228,417	116,520
343,246	4,848	228,211	116,285
344,260	4,901	228,070	116,243
345,275	5,055	228,071	116,348
346,289	5,176	228,002	116,394
347,304	5,135	227,806	116,252
348,319	5,257	227,681	116,269
349,333	4,902	227,504	115,904
350,348	4,573	227,290	115,538
351,362	4,854	227,158	115,671
352,377	4,508	227,167	115,406
353,392	4,647	226,605	115,214
354,406	4,752	226,604	115,282
355,421	195,541	1318,561	1393,525
356,435	156,778	1451,565	1393,499
