DTS Sentinel unit serial number:	SN410029Multiplexer serial number:	ORYXHardware model number:	OX2-SRSoftware version number:	ORYX F/W v4,00 Oryx Data Collector v3.7.2.0data status	okinstallation	B5 Nyhavnadifferential loss correction	single-endedforward channel	channel 2reverse channel	N/Adate	2023/12/12time	23:32:13forward acquisition time	300,00reverse acquisition time	0,00gamma	499,1914k internal	0,3158k external	0,3158temperature offset calibration	1,0000default loss term (dB/km)	0,3820temperature slope calibration	1,0000multiplexer offset coefficient	1,0000multiplexer slope coefficient	1,0000fibre end	0,00T internal ref (°C)	14,43T ext. ref 1 (°C)	-2,14T ext. ref 2 (°C)	-2,41length (m)	temperature (°C)	Stokes	anti-Stokes-744,400	18,891	0,077	0,046
-743,385	21,978	-0,239	0,143
-742,371	-79,604	0,062	0,015
-741,356	26,899	-0,223	0,138
-740,342	-200,000	0,047	0,189
-739,327	-75,539	-0,309	0,080
-738,312	550,857	0,061	-0,109
-737,298	-76,544	-0,358	0,092
-736,283	-21,488	0,224	0,100
-735,269	-113,059	-0,351	0,051
-734,254	-113,670	0,047	0,007
-733,239	-35,281	-0,399	-0,159
-732,225	-16,728	0,121	-0,056
-731,210	-200,000	0,016	0,059
-730,196	-200,000	-0,008	0,142
-729,181	-47,651	-0,065	0,023
-728,167	-200,000	-0,015	0,055
-727,152	-200,000	-0,001	-0,116
-726,137	800,000	-0,092	-0,203
-725,123	-34,222	-0,056	0,022
-724,108	-101,790	-0,016	0,003
-723,094	104,323	-0,113	-0,098
-722,079	-73,444	0,008	-0,002
-721,064	-200,000	-0,012	-0,108
-720,050	-200,000	-0,001	-0,021
-719,035	36,161	-0,048	-0,031
-718,021	800,000	-0,023	-0,057
-717,006	-200,000	0,006	-0,247
-715,991	73,061	-0,196	-0,151
-714,977	-200,000	-0,013	-0,140
-713,962	-78,586	-0,221	0,055
-712,948	4,866	-0,038	-0,021
-711,933	94,120	0,048	-0,040
-710,918	800,000	-0,030	-0,084
-709,904	152,682	-0,045	-0,045
-708,889	-52,028	-0,153	-0,052
-707,875	273,448	-0,103	-0,134
-706,860	24,823	0,012	-0,007
-705,845	-200,000	0,013	0,062
-704,831	83,440	0,013	-0,011
-703,816	52,587	0,070	-0,049
-702,802	-102,917	-0,122	0,021
-701,787	361,309	-0,095	-0,141
-700,772	93,032	0,032	-0,026
-699,758	-151,606	-0,132	-0,007
-698,743	-142,029	0,121	0,009
-697,729	-200,000	0,006	0,118
-696,714	216,030	-0,057	-0,067
-695,699	-200,000	-0,018	0,066
-694,685	9,011	0,104	0,058
-693,670	235,244	-0,054	-0,065
-692,656	-164,867	0,064	-0,002
-691,641	91,962	-0,063	-0,052
-690,627	271,146	-0,072	0,093
-689,612	-96,056	-0,035	-0,007
-688,597	452,249	0,063	-0,104
-687,583	-200,000	0,007	-0,112
-686,568	597,163	-0,039	-0,071
-685,554	-200,000	-0,037	-0,127
-684,539	50,260	0,120	0,083
-683,524	800,000	0,025	-0,070
-682,510	168,963	0,129	-0,135
-681,495	277,161	-0,095	-0,124
-680,481	219,888	-0,043	-0,050
-679,466	-147,435	-0,075	-0,005
-678,451	321,051	0,027	0,038
-677,437	-200,000	-0,002	0,037
-676,422	600,898	0,076	0,139
-675,408	-142,553	-0,078	-0,006
-674,393	470,377	0,024	-0,039
-673,378	-66,927	-0,089	0,026
-672,364	-200,000	-0,008	-0,074
-671,349	-13,411	0,076	0,036
-670,335	-69,881	0,165	0,046
-669,320	272,652	0,048	-0,062
-668,305	-200,000	0,022	-0,115
-667,291	54,702	-0,020	-0,014
-666,276	800,000	0,008	-0,023
-665,262	21,038	-0,087	-0,052
-664,247	800,000	0,040	-0,108
-663,232	7,419	-0,018	-0,010
-662,218	-44,257	-0,131	0,048
-661,203	6,992	-0,069	0,038
-660,189	42,345	0,086	-0,057
-659,174	-63,392	-0,116	-0,035
-658,159	342,864	0,038	-0,055
-657,145	800,000	-0,038	-0,108
-656,130	800,000	-0,039	-0,088
-655,116	434,233	-0,054	0,086
-654,101	81,329	0,032	-0,026
-653,086	17,821	-0,066	-0,038
-652,072	-200,000	-0,033	-0,108
-651,057	274,777	-0,029	-0,038
-650,043	-53,277	-0,074	0,025
-649,028	170,669	0,074	0,078
-648,014	-200,000	0,024	-0,080
-646,999	-3,191	0,094	-0,048
-645,984	-200,000	0,009	-0,101
-644,970	-13,182	-0,074	-0,035
-643,955	728,918	0,035	0,069
-642,941	-200,000	-0,024	-0,146
-641,926	-17,950	0,112	0,051
-640,911	66,860	0,087	0,065
-639,897	800,000	-0,040	-0,118
-638,882	368,420	-0,088	-0,131
-637,868	-23,339	0,023	0,010
-636,853	-75,261	-0,136	0,035
-635,838	461,112	-0,029	-0,047
-634,824	176,891	-0,042	-0,045
-633,809	-200,000	-0,022	-0,145
-632,795	31,356	0,074	0,046
-631,780	-101,040	-0,064	-0,011
-630,765	59,023	0,046	-0,033
-629,751	-200,000	-0,006	-0,064
-628,736	61,160	-0,056	0,041
-627,722	42,101	-0,088	0,059
-626,707	-83,619	0,042	0,010
-625,692	406,538	-0,094	0,147
-624,678	-200,000	0,018	0,102
-623,663	-169,577	0,104	-0,003
-622,649	800,000	-0,072	-0,151
-621,634	118,648	-0,078	-0,071
-620,619	23,290	0,037	-0,022
-619,605	-34,426	0,063	0,025
-618,590	-74,589	0,146	0,038
-617,576	800,000	0,017	0,054
-616,561	-97,279	-0,037	-0,007
-615,546	36,657	-0,100	-0,064
-614,532	15,897	0,083	0,048
-613,517	200,903	0,079	0,089
-612,503	-200,000	0,000	-0,021
-611,488	-79,758	0,082	-0,020
-610,474	185,174	-0,054	0,059
-609,459	560,363	-0,055	0,098
-608,444	-200,000	-0,032	-0,127
-607,430	28,027	-0,037	-0,023
-606,415	11,555	-0,072	-0,041
-605,401	800,000	0,028	0,081
-604,386	-200,000	-0,028	0,160
-603,371	160,046	0,163	0,167
-602,357	185,734	-0,026	0,028
-601,342	-200,000	0,013	-0,042
-600,328	320,859	-0,074	0,104
-599,313	0,038	0,154	-0,080
-598,298	800,000	-0,018	-0,055
-597,284	138,625	0,023	0,022
-596,269	800,000	-0,012	-0,031
-595,255	-200,000	-0,015	0,076
-594,240	800,000	-0,013	-0,039
-593,225	99,844	-0,168	-0,143
-592,211	800,000	-0,051	-0,138
-591,196	9,349	0,051	-0,028
-590,182	-200,000	-0,001	-0,072
-589,167	-200,000	0,001	0,006
-588,152	579,561	-0,074	0,133
-587,138	-12,307	0,124	0,059
-586,123	-81,329	-0,099	0,024
-585,109	216,034	0,053	0,062
-584,094	-200,000	0,024	-0,103
-583,079	235,926	0,045	0,055
-582,065	-142,164	-0,043	-0,003
-581,050	-200,000	-0,023	0,115
-580,036	-144,415	-0,109	0,007
-579,021	142,783	-0,062	-0,060
-578,006	-200,000	0,014	0,080
-576,992	-200,000	-0,016	-0,071
-575,977	-200,000	-0,038	-0,158
-574,963	695,397	0,061	0,117
-573,948	16,408	0,052	0,030
-572,934	-75,357	0,101	-0,026
-571,919	-53,946	0,077	0,026
-570,904	119,829	-0,119	-0,108
-569,890	-200,000	0,038	-0,125
-568,875	32,368	0,020	-0,013
-567,861	43,221	-0,065	-0,044
-566,846	800,000	0,018	-0,040
-565,831	-200,000	0,010	-0,081
-564,817	-19,255	-0,155	-0,070
-563,802	800,000	-0,030	-0,071
-562,788	-200,000	-0,009	-0,171
-561,773	-70,484	0,152	0,042
-560,758	-200,000	-0,008	0,029
-559,744	25,263	-0,040	-0,024
-558,729	98,620	-0,076	-0,064
-557,715	-200,000	0,028	-0,143
-556,700	625,200	0,062	-0,115
-555,685	5,589	-0,039	-0,021
-554,671	311,703	0,071	0,098
-553,656	-77,769	-0,082	0,021
-552,642	-62,790	-0,034	0,010
-551,627	-200,000	-0,005	-0,106
-550,612	-200,000	0,022	-0,074
-549,598	-200,000	-0,004	-0,048
-548,583	726,446	0,035	0,068
-547,569	800,000	-0,020	0,061
-546,554	299,444	0,001	-0,001
-545,539	800,000	0,032	0,074
-544,525	731,271	0,005	0,010
-543,510	-200,000	0,022	-0,072
-542,496	-31,593	0,069	0,028
-541,481	800,000	-0,030	-0,073
-540,466	207,600	0,088	0,101
-539,452	-80,751	-0,045	-0,011
-538,437	800,000	-0,035	-0,094
-537,423	162,463	-0,150	-0,154
-536,408	-120,905	-0,055	0,007
-535,393	-79,852	0,113	-0,027
-534,379	-102,138	-0,125	-0,022
-533,364	800,000	0,033	-0,070
-532,350	-164,355	0,082	0,003
-531,335	468,947	-0,025	0,042
-530,321	800,000	-0,065	0,144
-529,306	133,381	-0,050	0,047
-528,291	136,913	-0,148	-0,141
-527,277	-77,933	-0,139	0,035
-526,262	-200,000	0,025	-0,172
-525,248	-71,650	-0,124	-0,034
-524,233	246,788	0,009	-0,012
-523,218	-104,294	-0,108	0,018
-522,204	734,070	0,034	0,066
-521,189	-102,621	0,028	0,005
-520,175	190,472	0,035	-0,039
-519,160	800,000	-0,033	-0,108
-518,145	-101,969	-0,016	-0,003
-517,131	292,976	-0,032	0,042
-516,116	141,246	-0,092	-0,089
-515,102	489,632	-0,049	-0,083
-514,087	-200,000	0,008	-0,120
-513,072	415,754	-0,086	-0,134
-512,058	-200,000	-0,049	-0,195
-511,043	800,000	0,011	-0,031
-510,029	52,317	0,031	0,021
-509,014	800,000	0,029	-0,083
-507,999	406,694	0,046	-0,071
-506,985	-200,000	0,001	0,013
-505,970	78,387	-0,128	-0,100
-504,956	-200,000	0,003	0,021
-503,941	-24,245	0,067	0,029
-502,926	-200,000	-0,014	0,065
-501,912	-119,036	0,076	-0,010
-500,897	11,593	-0,099	0,055
-499,883	651,456	-0,039	0,073
-498,868	702,666	-0,013	0,025
-497,853	800,000	-0,058	-0,178
-496,839	-200,000	0,035	-0,246
-495,824	-200,000	0,047	0,165
-494,810	333,322	-0,063	-0,089
-493,795	-37,259	0,084	0,033
-492,781	800,000	0,022	0,056
-491,766	601,894	-0,027	-0,049
-490,751	297,888	-0,088	-0,119
-489,737	800,000	-0,064	-0,175
-488,722	800,000	0,027	-0,058
-487,708	167,979	0,094	0,097
-486,693	479,666	0,113	0,188
-485,678	84,308	-0,087	0,069
-484,664	-180,827	-0,145	0,002
-483,649	-200,000	0,032	-0,209
-482,635	61,844	-0,004	0,003
-481,620	-30,354	0,082	-0,034
-480,605	-19,297	-0,035	-0,016
-479,591	-106,266	0,051	0,008
-478,576	86,686	0,106	-0,086
-477,562	88,781	-0,103	0,084
-476,547	745,740	0,036	-0,070
-475,532	434,926	0,010	0,016
-474,518	115,178	-0,060	-0,054
-473,503	-126,368	0,137	0,015
-472,489	-200,000	0,001	-0,022
-471,474	-68,822	0,034	-0,010
-470,459	239,271	0,034	0,041
-469,445	800,000	-0,060	-0,141
-468,430	184,324	-0,053	0,057
-467,416	-196,967	0,005	0,000
-466,401	-5,460	0,048	-0,024
-465,386	67,602	0,134	0,100
-464,372	-128,424	-0,032	0,003
-463,357	800,000	0,046	-0,099
-462,343	695,915	-0,115	-0,222
-461,328	522,865	0,035	0,061
-460,313	-117,275	-0,063	-0,008
-459,299	-200,000	-0,010	-0,070
-458,284	800,000	0,035	-0,084
-457,270	-4,441	-0,281	-0,141
-456,255	-200,000	0,021	-0,137
-455,241	24,928	-0,054	0,032
-454,226	-163,390	-0,059	0,002
-453,211	168,262	0,017	0,018
-452,197	-200,000	0,012	-0,055
-451,182	800,000	-0,036	0,103
-450,168	47,626	0,031	-0,021
-449,153	-59,740	0,108	0,033
-448,138	-200,000	0,026	-0,168
-447,124	-44,515	-0,173	0,063
-446,109	276,845	0,078	0,101
-445,095	-200,000	0,014	-0,050
-444,080	22,916	0,083	-0,049
-443,065	800,000	0,024	-0,053
-442,051	39,682	-0,072	-0,047
-441,036	800,000	-0,064	-0,133
-440,022	-200,000	0,000	-0,167
-439,007	-67,714	0,085	-0,024
-437,992	-200,000	0,036	0,142
-436,978	337,670	0,072	0,103
-435,963	312,323	0,002	-0,003
-434,949	800,000	0,017	-0,037
-433,934	269,727	-0,080	0,102
-432,919	800,000	0,029	0,070
-431,905	419,861	-0,041	-0,064
-430,890	-19,551	0,154	0,069
-429,876	-46,807	0,119	-0,042
-428,861	-102,653	-0,103	0,018
-427,846	319,883	0,089	-0,124
-426,832	-200,000	0,004	0,086
-425,817	-97,845	-0,031	0,006
-424,803	-101,596	-0,064	-0,011
-423,788	248,766	-0,054	-0,067
-422,773	-5,195	-0,123	0,061
-421,759	92,039	0,114	0,094
-420,744	168,909	-0,041	-0,043
-419,730	502,340	0,053	0,089
-418,715	-40,640	-0,052	0,020
-417,701	257,105	-0,084	0,105
-416,686	13,451	0,123	0,069
-415,671	249,049	-0,105	-0,129
-414,657	146,625	0,074	0,073
-413,642	-139,466	-0,099	0,008
-412,628	-131,001	0,084	-0,008
-411,613	-134,168	-0,151	-0,013
-410,598	-200,000	0,009	-0,114
-409,584	271,786	-0,022	-0,029
-408,569	-200,000	0,019	0,063
-407,555	-200,000	0,003	0,136
-406,540	-200,000	0,000	0,031
-405,525	-200,000	-0,046	0,181
-404,511	390,499	-0,043	0,065
-403,496	-200,000	-0,003	-0,014
-402,482	86,294	0,024	0,020
-401,467	189,740	0,137	0,150
-400,452	-200,000	-0,013	0,067
-399,438	-200,000	-0,034	0,167
-398,423	800,000	0,018	-0,047
-397,409	-135,023	-0,095	0,008
-396,394	-200,000	0,002	-0,015
-395,379	-37,585	0,070	0,027
-394,365	180,537	-0,088	0,094
-393,350	-106,985	0,212	0,034
-392,336	800,000	-0,027	0,079
-391,321	-57,022	-0,075	0,024
-390,306	116,321	-0,055	0,049
-389,292	-164,044	-0,096	0,003
-388,277	46,285	0,073	-0,049
-387,263	-126,448	0,135	-0,014
-386,248	-47,436	-0,058	-0,020
-385,233	-200,000	0,000	-0,034
-384,219	-200,000	0,010	0,035
-383,204	-200,000	0,002	-0,059
-382,190	-84,368	0,099	0,023
-381,175	396,797	-0,032	-0,048
-380,160	291,364	0,095	-0,126
-379,146	800,000	0,059	0,150
-378,131	-59,390	-0,116	0,036
-377,117	108,018	0,012	-0,010
-376,102	65,532	0,090	0,066
-375,088	48,203	-0,126	0,086
-374,073	-115,782	-0,035	-0,005
-373,058	-200,000	0,018	0,083
-372,044	-62,688	0,142	-0,042
-371,029	386,072	0,031	0,047
-370,015	252,937	-0,026	0,032
-369,000	557,135	-0,028	-0,050
-367,985	-200,000	-0,008	-0,111
-366,971	-62,908	-0,108	-0,032
-365,956	-7,764	-0,082	-0,040
-364,942	195,481	0,042	-0,047
-363,927	-46,325	-0,064	-0,023
-362,912	153,928	0,019	-0,019
-361,898	-200,000	-0,000	0,057
-360,883	-200,000	-0,003	-0,132
-359,869	42,715	-0,088	0,058
-358,854	-200,000	-0,031	-0,112
-357,839	800,000	0,016	0,050
-356,825	663,529	0,049	0,092
-355,810	124,576	0,024	0,022
-354,796	-0,882	0,038	0,019
-353,781	-111,797	-0,203	-0,030
-352,766	153,424	0,093	0,093
-351,752	800,000	-0,003	0,008
-350,737	-200,000	-0,022	0,095
-349,723	-200,000	-0,006	0,045
-348,708	-40,914	-0,043	0,016
-347,693	-41,746	0,064	-0,024
-346,679	-93,335	-0,057	-0,011
-345,664	800,000	-0,050	0,106
-344,650	-161,139	-0,138	-0,005
-343,635	120,296	0,059	-0,054
-342,620	73,943	0,030	-0,023
-341,606	-137,759	0,012	0,001
-340,591	-31,641	0,126	0,051
-339,577	299,697	-0,087	-0,117
-338,562	103,306	0,142	-0,121
-337,548	498,946	0,071	0,120
-336,533	800,000	-0,017	0,042
-335,518	9,739	-0,053	0,029
-334,504	91,961	0,108	0,088
-333,489	-200,000	-0,034	0,177
-332,475	800,000	-0,063	0,157
-331,460	149,200	0,046	-0,045
-330,445	-200,000	0,015	0,163
-329,431	-200,000	-0,003	-0,083
-328,416	71,476	0,148	0,111
-327,402	800,000	-0,014	-0,045
-326,387	-200,000	0,046	0,150
-325,372	240,472	0,025	-0,031
-324,358	84,286	0,032	0,025
-323,343	659,886	-0,051	0,095
-322,329	-59,550	0,090	0,028
-321,314	166,075	0,071	0,073
-320,299	-200,000	0,002	0,069
-319,285	300,601	0,035	0,046
-318,270	654,869	-0,013	0,025
-317,256	-3,079	-0,173	-0,087
-316,241	186,534	-0,020	0,021
-315,226	146,766	0,111	0,109
-314,212	-181,648	0,091	0,001
-313,197	800,000	-0,041	0,097
-312,183	157,840	0,050	0,050
-311,168	-200,000	-0,020	-0,165
-310,153	-116,915	-0,104	0,014
-309,139	-163,445	0,073	0,002
-308,124	-161,841	0,079	0,003
-307,110	396,277	-0,057	0,087
-306,095	-200,000	-0,005	-0,098
-305,080	-133,831	-0,094	-0,008
-304,066	37,534	-0,146	-0,094
-303,051	-114,150	-0,041	0,006
-302,037	7,877	-0,056	-0,031
-301,022	-108,325	-0,200	0,031
-300,008	800,000	0,041	0,098
-298,993	-21,722	0,151	0,066
-297,978	-200,000	-0,004	0,032
-296,964	72,213	0,114	-0,086
-295,949	283,653	0,039	0,051
-294,935	60,366	-0,111	0,080
-293,920	557,772	0,049	0,086
-292,905	-200,000	-0,004	-0,022
-291,891	800,000	0,030	0,068
-290,876	-177,897	0,012	0,000
-289,862	8,300	-0,066	-0,036
-288,847	-200,000	-0,007	-0,032
-287,832	139,917	-0,029	-0,028
-286,818	1,966	-0,102	0,053
-285,803	-51,489	-0,044	0,015
-284,789	142,300	0,059	0,056
-283,774	7,996	-0,062	-0,033
-282,759	-126,773	0,091	-0,010
-281,745	338,059	0,064	-0,090
-280,730	-31,413	0,059	0,024
-279,716	-65,140	0,081	-0,023
-278,701	79,422	0,116	0,090
-277,686	-42,091	0,257	0,095
-276,672	800,000	-0,014	0,034
-275,657	-200,000	0,012	-0,100
-274,643	-69,077	-0,172	-0,048
-273,628	263,935	0,040	0,051
-272,613	151,236	0,049	-0,048
-271,599	-120,225	-0,071	0,009
-270,584	800,000	-0,029	0,092
-269,570	134,327	0,057	0,054
-268,555	84,896	-0,014	-0,011
-267,540	-39,901	0,088	0,033
-266,526	-200,000	0,001	0,012
-265,511	-200,000	0,002	0,101
-264,497	-200,000	-0,005	0,024
-263,482	800,000	0,022	-0,057
-262,467	-200,000	-0,001	-0,083
-261,453	-89,189	0,152	-0,032
-260,438	63,094	0,074	0,053
-259,424	-86,302	-0,122	0,027
-258,409	52,195	-0,112	0,077
-257,395	114,260	0,126	0,111
-256,380	-26,249	0,086	-0,036
-255,365	306,109	0,102	0,138
-254,351	-18,801	-0,083	0,037
-253,336	51,956	-0,048	-0,033
-252,322	-116,025	-0,108	-0,014
-251,307	303,428	0,029	-0,039
-250,292	-82,827	0,053	0,012
-249,278	-133,646	0,162	-0,014
-248,263	655,998	-0,071	0,133
-247,249	-126,439	0,028	-0,003
-246,234	430,424	0,023	-0,036
-245,219	-53,425	0,022	-0,007
-244,205	-200,000	0,003	-0,046
-243,190	39,560	0,068	-0,044
-242,176	77,446	0,097	0,074
-241,161	75,791	-0,017	0,013
-240,146	-165,292	0,148	0,005
-239,132	54,144	0,107	-0,074
-238,117	523,724	-0,008	-0,013
-237,103	-53,229	-0,093	0,031
-236,088	800,000	-0,053	-0,162
-235,073	-200,000	0,014	0,166
-234,059	281,126	0,058	0,075
-233,044	309,890	0,053	-0,071
-232,030	22,412	0,029	-0,017
-231,015	-200,000	-0,049	-0,172
-230,000	116,601	-0,105	0,093
-228,986	-148,197	-0,211	-0,012
-227,971	529,068	0,045	-0,077
-226,957	28,397	-0,072	0,044
-225,942	-200,000	-0,004	-0,015
-224,927	-77,997	-0,018	0,004
-223,913	-76,717	0,091	-0,023
-222,898	3,789	-0,099	-0,052
-221,884	-41,233	0,108	-0,040
-220,869	-200,000	-0,025	0,220
-219,855	651,245	0,027	0,051
-218,840	-144,876	-0,022	0,001
-217,825	800,000	0,044	-0,135
-216,811	-77,299	0,141	-0,035
-215,796	800,000	-0,036	-0,101
-214,782	-89,949	-0,149	-0,031
-213,767	-200,000	0,003	0,051
-212,752	315,194	0,113	0,154
-211,738	187,688	0,075	0,081
-210,723	-142,494	0,072	0,005
-209,709	13,000	-0,067	-0,037
-208,694	-200,000	-0,010	-0,192
-207,679	239,868	0,041	0,049
-206,665	99,523	-0,019	0,015
-205,650	800,000	0,066	0,181
-204,636	112,414	-0,120	0,105
-203,621	1,944	-0,032	0,017
-202,606	-200,000	0,017	0,094
-201,592	83,531	0,039	0,031
-200,577	254,269	0,036	0,045
-199,563	-200,000	0,000	0,042
-198,548	103,491	0,097	0,082
-197,533	63,856	-0,013	0,009
-196,519	776,080	0,036	0,072
-195,504	377,180	0,068	-0,100
-194,490	-200,000	-0,012	-0,177
-193,475	279,522	-0,076	-0,098
-192,460	-55,483	0,042	0,013
-191,446	-68,856	0,002	-0,001
-190,431	188,222	0,071	0,077
-189,417	800,000	0,041	0,098
-188,402	58,241	0,024	0,017
-187,387	52,976	-0,061	-0,042
-186,373	800,000	-0,018	-0,046
-185,358	389,850	-0,017	0,026
-184,344	18,322	0,097	0,056
-183,329	249,627	-0,016	-0,019
-182,315	268,937	0,080	-0,101
-181,300	269,424	-0,022	-0,029
-180,285	137,292	0,064	0,061
-179,271	-200,000	-0,015	-0,190
-178,256	800,000	0,006	0,017
-177,242	-145,171	-0,074	-0,005
-176,227	-200,000	-0,002	0,076
-175,212	-200,000	-0,026	0,124
-174,198	-19,747	-0,098	-0,043
-173,183	-63,366	-0,099	-0,029
-172,169	122,911	-0,053	-0,048
-171,154	314,459	0,020	0,027
-170,139	800,000	0,043	0,132
-169,125	-156,866	-0,097	-0,004
-168,110	-142,724	0,091	-0,006
-167,096	-200,000	0,009	0,200
-166,081	416,596	-0,068	0,105
-165,066	800,000	0,038	-0,114
-164,052	-200,000	-0,017	0,113
-163,037	-200,000	-0,022	-0,107
-162,023	-1,196	-0,045	-0,023
-161,008	-83,973	-0,108	0,025
-159,993	-200,000	0,019	0,080
-158,979	160,183	0,042	0,042
-157,964	578,471	-0,032	-0,056
-156,950	45,865	-0,050	0,033
-155,935	-200,000	0,004	-0,109
-154,920	-59,090	0,179	-0,055
-153,906	-200,000	0,002	0,048
-152,891	-200,000	0,002	-0,017
-151,877	800,000	-0,017	-0,039
-150,862	-105,244	-0,148	-0,024
-149,847	586,299	-0,069	-0,123
-148,833	39,971	0,059	0,038
-147,818	368,926	0,036	0,052
-146,804	135,200	-0,044	-0,041
-145,789	-57,886	-0,006	0,002
-144,775	243,437	-0,048	-0,059
-143,760	78,938	-0,128	0,099
-142,745	-200,000	0,010	-0,088
-141,731	513,273	-0,024	0,041
-140,716	344,762	0,035	0,050
-139,702	57,920	0,051	0,036
-138,687	100,184	-0,027	-0,022
-137,672	-200,000	0,022	-0,090
-136,658	473,002	-0,077	-0,125
-135,643	-71,160	-0,116	-0,031
-134,629	-109,699	-0,092	-0,014
-133,614	-68,735	0,062	-0,017
-132,599	800,000	0,027	0,063
-131,585	-200,000	0,005	-0,105
-130,570	155,192	-0,047	-0,047
-129,556	-200,000	0,030	-0,135
-128,541	-60,327	0,061	-0,019
-127,526	144,419	-0,084	-0,081
-126,512	800,000	-0,032	0,072
-125,497	-70,085	0,146	-0,040
-124,483	4,206	0,117	-0,061
-123,468	-200,000	-0,020	0,206
-122,453	-200,000	-0,002	-0,033
-121,439	374,615	-0,049	-0,072
-120,424	-200,000	0,018	0,101
-119,410	-200,000	0,035	0,169
-118,395	-68,187	0,077	-0,021
-117,380	720,068	0,051	0,097
-116,366	800,000	0,040	0,084
-115,351	424,324	0,016	0,025
-114,337	69,005	-0,018	-0,013
-113,322	326,279	-0,084	0,115
-112,307	268,091	0,129	0,163
-111,293	-124,656	0,075	-0,008
-110,278	800,000	0,025	0,059
-109,264	800,000	0,023	0,069
-108,249	372,681	0,047	-0,069
-107,234	384,305	-0,047	-0,070
-106,220	800,000	-0,033	0,103
-105,205	-200,000	-0,015	0,104
-104,191	212,438	0,061	0,070
-103,176	-200,000	-0,022	0,072
-102,162	-3,554	-0,111	0,055
-101,147	-118,188	0,158	-0,020
-100,132	52,618	-0,101	-0,069
-99,118	304,564	0,034	-0,046
-98,103	-200,000	-0,011	-0,069
-97,089	800,000	-0,043	0,134
-96,074	-60,198	-0,077	-0,023
-95,059	512,635	0,051	0,086
-94,045	-126,557	0,093	-0,010
-93,030	33,712	-0,079	-0,049
-92,016	800,000	0,018	0,043
-91,001	800,000	-0,025	0,063
-89,986	-43,254	0,143	-0,052
-88,972	-200,000	0,020	0,120
-87,957	-185,324	0,048	0,001
-86,943	-200,000	-0,015	-0,101
-85,928	438,419	0,059	-0,094
-84,913	601,653	-0,060	-0,108
-83,899	11,084	0,097	0,053
-82,884	800,000	-0,039	0,082
-81,870	267,446	0,063	0,080
-80,855	81,909	0,033	0,026
-79,840	-200,000	-0,011	0,179
-78,826	95,257	-0,067	-0,054
-77,811	272,756	-0,040	-0,051
-76,797	-87,470	-0,102	-0,022
-75,782	800,000	0,013	0,032
-74,767	43,900	0,064	-0,042
-73,753	800,000	-0,052	0,120
-72,738	-200,000	0,022	0,158
-71,724	-200,000	-0,044	0,151
-70,709	-200,000	0,003	-0,030
-69,694	-19,296	-0,128	0,057
-68,680	209,078	0,054	0,061
-67,665	447,363	-0,060	0,095
-66,651	29,653	-0,070	0,042
-65,636	61,041	0,036	0,026
-64,622	-29,499	0,076	0,031
-63,607	283,016	-0,061	-0,078
-62,592	445,936	0,084	0,134
-61,578	-200,000	-0,007	0,076
-60,563	800,000	-0,029	0,080
-59,549	561,033	-0,093	0,161
-58,534	11,436	-2,014	-1,104
-57,519	-200,000	-0,116	-0,855
-56,505	-200,000	-1,276	-4,931
-55,490	1,792	0,946	0,488
-54,476	800,000	5,267	11,995
-53,461	-200,000	18,335	300,972
-52,446	800,000	734,913	2273,343
-51,432	545,881	1651,180	2843,340
-50,417	109,754	1638,527	1409,224
-49,403	74,526	1288,885	971,302
-48,388	31,061	1028,814	631,491
-47,373	20,018	990,954	571,774
-46,359	18,011	978,523	557,988
-45,344	14,770	974,816	545,228
-44,330	15,088	973,161	545,323
-43,315	14,478	971,334	542,284
-42,300	14,442	970,130	541,470
-41,286	14,438	969,285	540,966
-40,271	14,385	968,530	540,350
-39,257	14,473	967,277	539,916
-38,242	14,460	966,486	539,410
-37,227	14,460	965,651	538,924
-36,213	14,422	964,890	538,352
-35,198	14,427	963,882	537,786
-34,184	14,492	963,206	537,597
-33,169	14,451	962,208	536,885
-32,154	14,484	961,248	536,437
-31,140	14,471	960,309	535,850
-30,125	14,435	959,822	535,441
-29,111	14,449	958,973	534,990
-28,096	14,513	958,242	534,769
-27,082	14,455	957,595	534,198
-26,067	14,526	956,598	533,851
-25,052	14,515	956,009	533,464
-24,038	14,461	955,384	532,920
-23,023	14,440	954,793	532,503
-22,009	14,517	953,985	532,277
-20,994	14,504	953,480	531,932
-19,979	14,464	952,810	531,410
-18,965	14,514	952,007	531,101
-17,950	14,522	951,395	530,765
-16,936	14,430	950,880	530,161
-15,921	14,410	950,159	529,674
-14,906	14,319	949,629	529,068
-13,892	14,382	948,803	528,788
-12,877	14,335	948,164	528,259
-11,863	14,332	947,445	527,829
-10,848	14,351	947,063	527,655
-9,833	14,477	946,570	527,761
-8,819	14,400	945,906	527,126
-7,804	14,385	945,342	526,744
-6,790	14,319	944,866	526,247
-5,775	14,318	944,311	525,915
-4,760	14,385	943,471	525,636
-3,746	14,352	942,993	525,245
-2,731	14,257	942,235	524,502
-1,717	14,240	941,472	524,004
-0,702	14,222	940,859	523,583
0,313	14,002	940,343	523,389
1,327	17,280	937,936	532,348
2,342	26,146	794,182	474,259
3,356	22,640	459,545	269,030
4,371	-4,289	316,209	156,313
5,386	-8,143	298,069	143,408
6,400	-10,412	292,053	138,233
7,415	-10,633	289,580	136,832
8,429	-10,651	288,132	136,118
9,444	-11,004	287,284	135,358
10,459	-10,822	286,597	135,201
11,473	-10,700	285,996	135,024
12,488	-10,818	285,459	134,643
13,502	-11,039	284,967	134,184
14,517	-10,837	284,605	134,198
15,531	-10,895	284,147	133,915
16,546	-10,632	283,505	133,855
17,561	-10,945	283,323	133,454
18,575	-10,802	283,059	133,456
19,590	-11,058	282,901	133,122
20,604	-10,613	282,424	133,315
21,619	-10,807	281,933	132,884
22,634	-10,637	281,519	132,842
23,648	-10,662	281,304	132,704
24,663	-10,741	281,090	132,515
25,677	-10,738	280,808	132,373
26,692	-11,012	280,610	132,006
27,707	-10,850	280,410	132,055
28,721	-10,857	279,987	131,837
29,736	-10,838	279,747	131,730
30,750	-10,765	279,497	131,671
31,765	-10,783	279,187	131,496
32,780	-10,829	278,988	131,346
33,794	-10,878	278,765	131,183
34,809	-10,795	278,473	131,113
35,823	-10,897	278,318	130,931
36,838	-10,973	278,003	130,699
37,853	-10,890	277,638	130,595
38,867	-10,916	277,496	130,492
39,882	-10,849	277,174	130,391
40,896	-10,703	276,965	130,420
41,911	-10,624	276,755	130,384
42,926	-10,750	276,370	130,072
43,940	-10,999	276,268	129,778
44,955	-10,790	275,930	129,804
45,969	-10,862	275,675	129,605
46,984	-10,980	275,547	129,422
47,999	-11,219	275,286	129,064
49,013	-11,165	274,885	128,915
50,028	-11,254	274,569	128,672
51,042	-11,494	274,531	128,418
52,057	-11,529	274,062	128,155
53,071	-11,307	273,915	128,282
54,086	-11,379	273,760	128,130
55,101	-11,219	273,531	128,161
56,115	-11,112	273,379	128,178
57,130	-10,724	273,253	128,469
58,144	-10,795	273,102	128,320
59,159	-10,687	272,810	128,273
60,174	-10,678	272,558	128,150
61,188	-10,717	272,551	128,099
62,203	-10,693	272,188	127,940
63,217	-10,814	272,186	127,815
64,232	-10,716	271,741	127,685
65,247	-10,750	271,562	127,558
66,261	-10,894	271,181	127,235
67,276	-10,750	270,870	127,211
68,290	-10,911	270,699	126,971
69,305	-11,158	270,499	126,638
70,320	-11,119	270,409	126,621
71,334	-10,803	270,152	126,780
72,349	-10,659	269,809	126,740
73,363	-10,652	269,793	126,728
74,378	-10,920	269,517	126,340
75,393	-10,703	269,365	126,457
76,407	-10,466	268,924	126,455
77,422	-10,729	268,769	126,131
78,436	-10,631	268,560	126,111
79,451	-10,970	268,412	125,721
80,466	-10,788	268,079	125,719
81,480	-10,883	267,851	125,515
82,495	-10,913	267,727	125,419
83,509	-11,073	267,663	125,232
84,524	-10,953	267,298	125,158
85,539	-10,944	267,002	125,017
86,553	-10,882	266,900	125,014
87,568	-10,784	266,673	124,986
88,582	-10,898	266,477	124,780
89,597	-10,835	266,166	124,680
90,611	-10,730	266,151	124,756
91,626	-10,557	265,854	124,763
92,641	-10,566	265,703	124,672
93,655	-10,888	265,550	124,299
94,670	-10,851	265,259	124,185
95,684	-10,638	265,091	124,287
96,699	-10,913	264,991	123,981
97,714	-11,040	264,781	123,759
98,728	-11,070	264,492	123,585
99,743	-10,860	264,164	123,609
100,757	-11,058	264,075	123,379
101,772	-10,790	263,805	123,482
102,787	-10,967	263,601	123,217
103,801	-11,002	263,522	123,138
104,816	-10,890	263,261	123,105
105,830	-10,604	263,133	123,290
106,845	-10,833	262,957	122,992
107,860	-10,723	262,711	122,964
108,874	-10,827	262,605	122,810
109,889	-10,951	262,290	122,542
110,903	-10,785	262,088	122,584
111,918	-10,648	261,878	122,597
112,933	-10,852	261,885	122,408
113,947	-10,573	261,549	122,487
114,962	-10,644	261,335	122,313
115,976	-10,690	261,121	122,162
116,991	-10,779	260,861	121,950
118,006	-10,680	260,673	121,939
119,020	-10,742	260,610	121,844
120,035	-10,587	260,457	121,898
121,049	-10,646	260,182	121,707
122,064	-10,812	260,132	121,526
123,079	-10,779	259,803	121,391
124,093	-10,882	259,648	121,217
125,108	-10,854	259,479	121,151
126,122	-11,160	259,222	120,752
127,137	-11,238	258,955	120,549
128,151	-11,077	258,782	120,598
129,166	-11,114	258,694	120,514
130,181	-10,925	258,384	120,524
131,195	-11,040	258,080	120,272
132,210	-10,922	258,101	120,373
133,224	-10,774	257,768	120,337
134,239	-10,671	257,703	120,385
135,254	-10,762	257,397	120,152
136,268	-10,832	257,232	120,004
137,283	-11,022	256,905	119,675
138,297	-10,996	256,663	119,574
139,312	-11,064	256,376	119,371
140,327	-10,947	256,540	119,539
141,341	-10,616	256,265	119,686
142,356	-10,761	256,247	119,542
143,370	-10,663	256,054	119,526
144,385	-10,443	255,853	119,612
145,400	-10,453	255,607	119,477
146,414	-10,570	255,416	119,276
147,429	-10,477	255,197	119,244
148,443	-10,422	255,089	119,231
149,458	-10,546	255,028	119,084
150,473	-10,567	254,708	118,906
151,487	-10,804	254,614	118,647
152,502	-10,584	254,352	118,704
153,516	-10,516	254,131	118,649
154,531	-10,655	253,972	118,445
155,546	-10,620	253,882	118,422
156,560	-10,650	253,699	118,300
157,575	-10,671	253,334	118,102
158,589	-10,639	253,218	118,065
159,604	-10,406	252,878	118,094
160,619	-10,597	252,817	117,892
161,633	-10,719	252,745	117,744
162,648	-10,432	252,449	117,841
163,662	-10,568	252,414	117,697
164,677	-10,389	252,196	117,738
165,692	-10,442	251,842	117,517
166,706	-10,453	251,945	117,545
167,721	-10,769	251,913	117,251
168,735	-10,673	251,592	117,173
169,750	-10,733	251,474	117,056
170,764	-10,401	251,189	117,195
171,779	-10,375	251,134	117,181
172,794	-10,579	250,987	116,929
173,808	-10,715	250,870	116,749
174,823	-10,836	250,352	116,395
175,837	-10,940	250,222	116,237
176,852	-10,543	250,076	116,493
177,867	-10,521	249,985	116,459
178,881	-10,416	249,803	116,452
179,896	-10,519	249,720	116,316
180,910	-10,364	249,541	116,353
181,925	-10,488	249,270	116,112
182,940	-10,690	249,237	115,917
183,954	-10,676	248,942	115,781
184,969	-10,362	248,741	115,940
185,983	-10,672	248,643	115,625
186,998	-10,348	248,586	115,859
188,013	-10,358	248,292	115,704
189,027	-10,588	248,160	115,439
190,042	-10,574	247,937	115,337
191,056	-10,566	247,709	115,227
192,071	-10,525	247,357	115,088
193,086	-10,619	247,457	115,046
194,100	-10,713	247,257	114,864
195,115	-10,292	246,945	115,059
196,129	-10,626	246,786	114,697
197,144	-10,522	246,609	114,691
198,159	-10,574	246,434	114,556
199,173	-10,565	246,322	114,501
200,188	-10,522	246,182	114,462
201,202	-10,849	245,852	114,027
202,217	-10,983	245,548	113,766
203,232	-11,020	245,342	113,630
204,246	-10,718	245,519	113,951
205,261	-10,303	245,211	114,140
206,275	-11,190	244,854	113,233
207,290	-6,459	246,809	118,051
208,304	1,335	249,208	125,694
209,319	4,099	249,823	128,298
210,334	4,515	249,983	128,716
211,348	4,781	249,829	128,846
212,363	4,916	249,697	128,879
213,377	4,948	249,564	128,826
214,392	4,880	249,334	128,639
215,407	4,647	249,275	128,404
216,421	4,637	249,068	128,277
217,436	4,996	248,997	128,527
218,450	5,072	248,777	128,464
219,465	4,670	248,574	128,016
220,480	4,603	248,389	127,854
221,494	4,305	248,320	127,560
222,509	4,665	247,997	127,681
223,523	4,601	247,777	127,503
224,538	4,277	247,572	127,119
225,553	4,389	247,440	127,132
226,567	4,274	247,373	126,992
227,582	4,290	247,239	126,924
228,596	4,325	247,100	126,870
229,611	4,231	246,735	126,594
230,626	4,196	246,569	126,470
231,640	4,115	246,410	126,310
232,655	4,313	246,410	126,462
233,669	4,241	246,160	126,263
234,684	4,080	245,962	126,018
235,699	4,558	245,841	126,336
236,713	4,609	245,824	126,358
237,728	4,139	245,617	125,856
238,742	4,293	245,191	125,752
239,757	3,911	245,113	125,390
240,772	4,122	244,957	125,470
241,786	4,210	244,839	125,470
242,801	3,965	244,689	125,183
243,815	4,181	244,464	125,232
244,830	4,360	244,487	125,378
245,844	4,273	244,391	125,247
246,859	4,282	243,970	125,028
247,874	3,852	243,867	124,615
248,888	4,352	243,664	124,906
249,903	4,480	243,591	124,960
250,917	4,072	243,651	124,650
251,932	4,759	243,313	125,021
252,947	4,495	243,200	124,739
253,961	4,194	242,890	124,326
254,976	4,221	242,856	124,319
255,990	4,426	242,820	124,454
257,005	4,255	242,378	124,079
258,020	4,131	242,275	123,915
259,034	3,890	242,275	123,711
260,049	4,133	242,054	123,782
261,063	4,263	241,877	123,785
262,078	4,251	241,552	123,599
263,093	4,670	241,574	123,934
264,107	4,584	241,549	123,841
265,122	4,456	241,196	123,547
266,136	4,362	241,144	123,434
267,151	4,559	241,073	123,544
268,166	4,578	240,570	123,291
269,180	4,216	240,614	123,013
270,195	4,737	240,609	123,415
271,209	4,824	240,495	123,416
272,224	4,336	240,147	122,837
273,239	3,925	239,907	122,377
274,253	4,041	239,754	122,379
275,268	4,135	239,810	122,472
276,282	4,298	239,549	122,458
277,297	4,087	239,371	122,188
278,312	4,181	239,214	122,171
279,326	4,249	239,176	122,195
280,341	4,347	238,928	122,135
281,355	4,160	238,775	121,898
282,370	4,523	238,715	122,143
283,384	4,431	238,420	121,909
284,399	4,192	238,332	121,665
285,414	4,037	238,033	121,379
286,428	4,402	237,861	121,568
287,443	4,188	237,750	121,332
288,457	4,208	237,878	121,402
289,472	4,450	237,652	121,466
290,487	4,252	237,554	121,250
291,501	4,119	237,187	120,947
292,516	4,009	237,047	120,779
293,530	3,962	236,885	120,648
294,545	4,314	236,870	120,906
295,560	4,304	236,769	120,836
296,574	4,144	236,494	120,560
297,589	4,169	236,388	120,514
298,603	4,463	236,318	120,698
299,618	4,469	236,185	120,624
300,633	4,264	236,080	120,400
301,647	4,493	235,890	120,470
302,662	4,666	235,907	120,603
303,676	4,585	235,787	120,468
304,691	4,799	235,440	120,446
305,706	4,624	235,283	120,219
306,720	4,622	235,234	120,182
307,735	4,611	234,855	119,969
308,749	4,215	234,876	119,662
309,764	4,145	234,635	119,474
310,779	4,042	234,418	119,273
311,793	3,985	234,082	119,047
312,808	3,951	233,875	118,906
313,822	3,529	233,721	118,490
314,837	3,940	233,726	118,799
315,852	4,091	233,642	118,863
316,866	4,595	233,640	119,240
317,881	4,670	233,460	119,196
318,895	4,466	233,181	118,886
319,910	4,288	233,095	118,694
320,925	4,209	232,884	118,515
321,939	4,361	232,782	118,570
322,954	4,638	232,752	118,757
323,968	4,757	232,641	118,781
324,983	4,297	232,523	118,357
325,997	4,734	232,289	118,562
327,012	4,547	232,125	118,325
328,027	4,250	232,012	118,029
329,041	4,514	231,906	118,166
330,056	4,984	231,998	118,562
331,070	5,110	231,744	118,518
332,085	4,434	231,470	117,852
333,100	4,530	231,269	117,812
334,114	4,452	231,076	117,644
335,129	4,385	231,088	117,589
336,143	4,888	230,809	117,819
337,158	4,566	230,666	117,491
338,173	4,209	230,652	117,202
339,187	4,376	230,341	117,160
340,202	4,370	230,230	117,088
341,216	4,579	230,007	117,122
342,231	4,334	229,896	116,870
343,246	4,274	229,802	116,767
344,260	4,467	229,582	116,790
345,275	4,835	229,487	117,010
346,289	4,636	229,543	116,877
347,304	4,606	229,413	116,779
348,319	4,735	229,157	116,735
349,333	4,408	228,920	116,357
350,348	4,433	228,617	116,212
351,362	4,317	228,629	116,120
352,377	3,959	228,408	115,729
353,392	4,068	228,194	115,692
354,406	4,143	228,073	115,676
355,421	194,798	1321,507	1395,531
356,435	156,177	1454,702	1395,498
